{"condition": 0, "counterbalance": 257, "assignmentId": "3YDGXNSEO013XH8GN3ZL1DG0Y4W48D", "workerId": "MTK0019", "hitId": "3S1WOPCJFG08MG3YDB3NA55LEPNJE3", "currenttrial": 625, "bonus": 0, "data": [{"uniqueid": "MTK0019:3YDGXNSEO013XH8GN3ZL1DG0Y4W48D", "current_trial": 0, "dateTime": 1509047060922, "trialdata": {"rt": 2778, "key_press": 32, "type": "INSTRUCTIONS", "trial_type": "text", "trial_index": 0, "time_elapsed": 2784, "internal_node_id": "0.0-0.0"}}, {"uniqueid": "MTK0019:3YDGXNSEO013XH8GN3ZL1DG0Y4W48D", "current_trial": 1, "dateTime": 1509047063803, "trialdata": {"rt": 2874, "key_press": 32, "type": "INSTRUCTIONS", "trial_type": "text", "trial_index": 1, "time_elapsed": 5665, "internal_node_id": "0.0-1.0"}}, {"uniqueid": "MTK0019:3YDGXNSEO013XH8GN3ZL1DG0Y4W48D", "current_trial": 2, "dateTime": 1509047075727, "trialdata": {"rt": [11833], "responses": ["ocean"], "type": "AUDIO_TEST", "trial_type": "audio-test", "trial_index": 2, "time_elapsed": 17589, "internal_node_id": "0.0-2.0"}}, {"uniqueid": "MTK0019:3YDGXNSEO013XH8GN3ZL1DG0Y4W48D", "current_trial": 3, "dateTime": 1509047082455, "trialdata": {"rt": [6703], "responses": ["crystal"], "type": "AUDIO_TEST", "trial_type": "audio-test", "trial_index": 3, "time_elapsed": 24318, "internal_node_id": "0.0-3.0"}}, {"uniqueid": "MTK0019:3YDGXNSEO013XH8GN3ZL1DG0Y4W48D", "current_trial": 4, "dateTime": 1509047117653, "trialdata": {"rt": [35180], "responses": ["spice"], "type": "AUDIO_TEST", "trial_type": "audio-test", "trial_index": 4, "time_elapsed": 59515, "internal_node_id": "0.0-4.0"}}, {"uniqueid": "MTK0019:3YDGXNSEO013XH8GN3ZL1DG0Y4W48D", "current_trial": 5, "dateTime": 1509047121415, "trialdata": {"rt": 2992, "key_press": 13, "type": "INSTRUCTIONS", "trial_type": "text", "trial_index": 5, "time_elapsed": 63278, "internal_node_id": "0.0-5.0"}}, {"uniqueid": "MTK0019:3YDGXNSEO013XH8GN3ZL1DG0Y4W48D", "current_trial": 6, "dateTime": 1509047123001, "trialdata": {"rt": 1580, "key_press": 13, "type": "INSTRUCTIONS", "trial_type": "text", "trial_index": 6, "time_elapsed": 64863, "internal_node_id": "0.0-6.0"}}, {"uniqueid": "MTK0019:3YDGXNSEO013XH8GN3ZL1DG0Y4W48D", "current_trial": 7, "dateTime": 1509047125815, "trialdata": {"rt": 2812, "key_press": 13, "type": "INSTRUCTIONS", "trial_type": "text", "trial_index": 7, "time_elapsed": 67678, "internal_node_id": "0.0-7.0"}}, {"uniqueid": "MTK0019:3YDGXNSEO013XH8GN3ZL1DG0Y4W48D", "current_trial": 8, "dateTime": 1509047128278, "trialdata": {"rt": 2461, "key_press": 13, "type": "INSTRUCTIONS", "trial_type": "text", "trial_index": 8, "time_elapsed": 70141, "internal_node_id": "0.0-8.0"}}, {"uniqueid": "MTK0019:3YDGXNSEO013XH8GN3ZL1DG0Y4W48D", "current_trial": 9, "dateTime": 1509047147330, "trialdata": {"rt": [2071, 3569, 4801, 5819, 8980, 10579, 11613, 13718, 14925, 15438, 16170, 17350], "responses": ["a", "c", "b", "a", "12", "14", "b", "c", "d", "", "a", "b"], "num1": [7, 5, 4, 8, 2, 5, 8, 5, 5, 6, 4, 8, 8], "num2": [2, 3, 4, 7, 8, 3, 2, 5, 3, 5, 3, 1, 3], "num3": [8, 1, 4, 7, 4, 1, 2, 5, 5, 8, 4, 7, 9], "type": "DISTRACTOR", "conditions": [18, 1200, "a", 18000], "trial": 0, "trial_type": "math-distractor", "trial_index": 9, "time_elapsed": 89193, "internal_node_id": "0.0-9.0"}}, {"uniqueid": "MTK0019:3YDGXNSEO013XH8GN3ZL1DG0Y4W48D", "current_trial": 10, "dateTime": 1509047150340, "trialdata": {"rt": -1, "stimulus": "<p id=\"stim\">10</p>", "key_press": -1, "trial_type": "single-stim", "trial_index": 10, "time_elapsed": 92202, "internal_node_id": "0.0-10.0-0.0"}}, {"uniqueid": "MTK0019:3YDGXNSEO013XH8GN3ZL1DG0Y4W48D", "current_trial": 11, "dateTime": 1509047151343, "trialdata": {"rt": -1, "stimulus": "<p id=\"stim\">9</p>", "key_press": -1, "trial_type": "single-stim", "trial_index": 11, "time_elapsed": 93206, "internal_node_id": "0.0-10.0-1.0"}}, {"uniqueid": "MTK0019:3YDGXNSEO013XH8GN3ZL1DG0Y4W48D", "current_trial": 12, "dateTime": 1509047152355, "trialdata": {"rt": -1, "stimulus": "<p id=\"stim\">8</p>", "key_press": -1, "trial_type": "single-stim", "trial_index": 12, "time_elapsed": 94217, "internal_node_id": "0.0-10.0-2.0"}}, {"uniqueid": "MTK0019:3YDGXNSEO013XH8GN3ZL1DG0Y4W48D", "current_trial": 13, "dateTime": 1509047153361, "trialdata": {"rt": -1, "stimulus": "<p id=\"stim\">7</p>", "key_press": -1, "trial_type": "single-stim", "trial_index": 13, "time_elapsed": 95224, "internal_node_id": "0.0-10.0-3.0"}}, {"uniqueid": "MTK0019:3YDGXNSEO013XH8GN3ZL1DG0Y4W48D", "current_trial": 14, "dateTime": 1509047154366, "trialdata": {"rt": -1, "stimulus": "<p id=\"stim\">6</p>", "key_press": -1, "trial_type": "single-stim", "trial_index": 14, "time_elapsed": 96229, "internal_node_id": "0.0-10.0-4.0"}}, {"uniqueid": "MTK0019:3YDGXNSEO013XH8GN3ZL1DG0Y4W48D", "current_trial": 15, "dateTime": 1509047155398, "trialdata": {"rt": -1, "stimulus": "<p id=\"stim\">5</p>", "key_press": -1, "trial_type": "single-stim", "trial_index": 15, "time_elapsed": 97261, "internal_node_id": "0.0-10.0-5.0"}}, {"uniqueid": "MTK0019:3YDGXNSEO013XH8GN3ZL1DG0Y4W48D", "current_trial": 16, "dateTime": 1509047156404, "trialdata": {"rt": -1, "stimulus": "<p id=\"stim\">4</p>", "key_press": -1, "trial_type": "single-stim", "trial_index": 16, "time_elapsed": 98266, "internal_node_id": "0.0-10.0-6.0"}}, {"uniqueid": "MTK0019:3YDGXNSEO013XH8GN3ZL1DG0Y4W48D", "current_trial": 17, "dateTime": 1509047157408, "trialdata": {"rt": -1, "stimulus": "<p id=\"stim\">3</p>", "key_press": -1, "trial_type": "single-stim", "trial_index": 17, "time_elapsed": 99271, "internal_node_id": "0.0-10.0-7.0"}}, {"uniqueid": "MTK0019:3YDGXNSEO013XH8GN3ZL1DG0Y4W48D", "current_trial": 18, "dateTime": 1509047158414, "trialdata": {"rt": -1, "stimulus": "<p id=\"stim\">2</p>", "key_press": -1, "trial_type": "single-stim", "trial_index": 18, "time_elapsed": 100276, "internal_node_id": "0.0-10.0-8.0"}}, {"uniqueid": "MTK0019:3YDGXNSEO013XH8GN3ZL1DG0Y4W48D", "current_trial": 19, "dateTime": 1509047159420, "trialdata": {"rt": -1, "stimulus": "<p id=\"stim\">1</p>", "key_press": -1, "trial_type": "single-stim", "trial_index": 19, "time_elapsed": 101282, "internal_node_id": "0.0-10.0-9.0"}}, {"uniqueid": "MTK0019:3YDGXNSEO013XH8GN3ZL1DG0Y4W48D", "current_trial": 20, "dateTime": 1509047160923, "trialdata": {"rt": -1, "stimulus": "<p id=\"stim\">+</p>", "key_press": -1, "type": "FIXATION", "trial_type": "single-stim", "trial_index": 20, "time_elapsed": 102786, "internal_node_id": "0.0-11.0-0.0"}}, {"uniqueid": "MTK0019:3YDGXNSEO013XH8GN3ZL1DG0Y4W48D", "current_trial": 21, "dateTime": 1509047163057, "trialdata": {"rt": -1000, "stimulus": "/static/audio/wordpool/OX.wav", "key_press": -1, "type": "PRES_AUD", "word": "ox", "wordID": 993, "conditions": [18, 1200, "a", 18000], "trial": 0, "serialpos": 0, "trial_type": "single-audio", "trial_index": 21, "time_elapsed": 104920, "internal_node_id": "0.0-12.0"}}, {"uniqueid": "MTK0019:3YDGXNSEO013XH8GN3ZL1DG0Y4W48D", "current_trial": 22, "dateTime": 1509047165138, "trialdata": {"rt": -1000, "stimulus": "/static/audio/wordpool/ZEBRA.wav", "key_press": -1, "type": "PRES_AUD", "word": "zebra", "wordID": 1634, "conditions": [18, 1200, "a", 18000], "trial": 0, "serialpos": 1, "trial_type": "single-audio", "trial_index": 22, "time_elapsed": 107001, "internal_node_id": "0.0-13.0"}}, {"uniqueid": "MTK0019:3YDGXNSEO013XH8GN3ZL1DG0Y4W48D", "current_trial": 23, "dateTime": 1509047167307, "trialdata": {"rt": -1000, "stimulus": "/static/audio/wordpool/CURTAIN.wav", "key_press": -1, "type": "PRES_AUD", "word": "curtain", "wordID": 426, "conditions": [18, 1200, "a", 18000], "trial": 0, "serialpos": 2, "trial_type": "single-audio", "trial_index": 23, "time_elapsed": 109170, "internal_node_id": "0.0-14.0"}}, {"uniqueid": "MTK0019:3YDGXNSEO013XH8GN3ZL1DG0Y4W48D", "current_trial": 24, "dateTime": 1509047169440, "trialdata": {"rt": -1000, "stimulus": "/static/audio/wordpool/MAILBOX.wav", "key_press": -1, "type": "PRES_AUD", "word": "mailbox", "wordID": 856, "conditions": [18, 1200, "a", 18000], "trial": 0, "serialpos": 3, "trial_type": "single-audio", "trial_index": 24, "time_elapsed": 111303, "internal_node_id": "0.0-15.0"}}, {"uniqueid": "MTK0019:3YDGXNSEO013XH8GN3ZL1DG0Y4W48D", "current_trial": 25, "dateTime": 1509047171667, "trialdata": {"rt": -1000, "stimulus": "/static/audio/wordpool/BEEF.wav", "key_press": -1, "type": "PRES_AUD", "word": "beef", "wordID": 112, "conditions": [18, 1200, "a", 18000], "trial": 0, "serialpos": 4, "trial_type": "single-audio", "trial_index": 25, "time_elapsed": 113530, "internal_node_id": "0.0-16.0"}}, {"uniqueid": "MTK0019:3YDGXNSEO013XH8GN3ZL1DG0Y4W48D", "current_trial": 26, "dateTime": 1509047173734, "trialdata": {"rt": -1000, "stimulus": "/static/audio/wordpool/SEAL.wav", "key_press": -1, "type": "PRES_AUD", "word": "seal", "wordID": 1261, "conditions": [18, 1200, "a", 18000], "trial": 0, "serialpos": 5, "trial_type": "single-audio", "trial_index": 26, "time_elapsed": 115597, "internal_node_id": "0.0-17.0"}}, {"uniqueid": "MTK0019:3YDGXNSEO013XH8GN3ZL1DG0Y4W48D", "current_trial": 27, "dateTime": 1509047175818, "trialdata": {"rt": -1000, "stimulus": "/static/audio/wordpool/BASEMENT.wav", "key_press": -1, "type": "PRES_AUD", "word": "basement", "wordID": 93, "conditions": [18, 1200, "a", 18000], "trial": 0, "serialpos": 6, "trial_type": "single-audio", "trial_index": 27, "time_elapsed": 117680, "internal_node_id": "0.0-18.0"}}, {"uniqueid": "MTK0019:3YDGXNSEO013XH8GN3ZL1DG0Y4W48D", "current_trial": 28, "dateTime": 1509047177990, "trialdata": {"rt": -1000, "stimulus": "/static/audio/wordpool/COIN.wav", "key_press": -1, "type": "PRES_AUD", "word": "coin", "wordID": 342, "conditions": [18, 1200, "a", 18000], "trial": 0, "serialpos": 7, "trial_type": "single-audio", "trial_index": 28, "time_elapsed": 119852, "internal_node_id": "0.0-19.0"}}, {"uniqueid": "MTK0019:3YDGXNSEO013XH8GN3ZL1DG0Y4W48D", "current_trial": 29, "dateTime": 1509047180017, "trialdata": {"rt": -1000, "stimulus": "/static/audio/wordpool/CREATURE.wav", "key_press": -1, "type": "PRES_AUD", "word": "creature", "wordID": 402, "conditions": [18, 1200, "a", 18000], "trial": 0, "serialpos": 8, "trial_type": "single-audio", "trial_index": 29, "time_elapsed": 121880, "internal_node_id": "0.0-20.0"}}, {"uniqueid": "MTK0019:3YDGXNSEO013XH8GN3ZL1DG0Y4W48D", "current_trial": 30, "dateTime": 1509047182153, "trialdata": {"rt": -1000, "stimulus": "/static/audio/wordpool/MATCH.wav", "key_press": -1, "type": "PRES_AUD", "word": "match", "wordID": 877, "conditions": [18, 1200, "a", 18000], "trial": 0, "serialpos": 9, "trial_type": "single-audio", "trial_index": 30, "time_elapsed": 124015, "internal_node_id": "0.0-21.0"}}, {"uniqueid": "MTK0019:3YDGXNSEO013XH8GN3ZL1DG0Y4W48D", "current_trial": 31, "dateTime": 1509047184512, "trialdata": {"rt": -1000, "stimulus": "/static/audio/wordpool/POPCORN.wav", "key_press": -1, "type": "PRES_AUD", "word": "popcorn", "wordID": 1103, "conditions": [18, 1200, "a", 18000], "trial": 0, "serialpos": 10, "trial_type": "single-audio", "trial_index": 31, "time_elapsed": 126375, "internal_node_id": "0.0-22.0"}}, {"uniqueid": "MTK0019:3YDGXNSEO013XH8GN3ZL1DG0Y4W48D", "current_trial": 32, "dateTime": 1509047186528, "trialdata": {"rt": -1000, "stimulus": "/static/audio/wordpool/KEEPER.wav", "key_press": -1, "type": "PRES_AUD", "word": "keeper", "wordID": 768, "conditions": [18, 1200, "a", 18000], "trial": 0, "serialpos": 11, "trial_type": "single-audio", "trial_index": 32, "time_elapsed": 128388, "internal_node_id": "0.0-23.0"}}, {"uniqueid": "MTK0019:3YDGXNSEO013XH8GN3ZL1DG0Y4W48D", "current_trial": 33, "dateTime": 1509047188574, "trialdata": {"rt": -1000, "stimulus": "/static/audio/wordpool/FLOWER.wav", "key_press": -1, "type": "PRES_AUD", "word": "flower", "wordID": 583, "conditions": [18, 1200, "a", 18000], "trial": 0, "serialpos": 12, "trial_type": "single-audio", "trial_index": 33, "time_elapsed": 130437, "internal_node_id": "0.0-24.0"}}, {"uniqueid": "MTK0019:3YDGXNSEO013XH8GN3ZL1DG0Y4W48D", "current_trial": 34, "dateTime": 1509047190630, "trialdata": {"rt": -1000, "stimulus": "/static/audio/wordpool/SMOG.wav", "key_press": -1, "type": "PRES_AUD", "word": "smog", "wordID": 1329, "conditions": [18, 1200, "a", 18000], "trial": 0, "serialpos": 13, "trial_type": "single-audio", "trial_index": 34, "time_elapsed": 132493, "internal_node_id": "0.0-25.0"}}, {"uniqueid": "MTK0019:3YDGXNSEO013XH8GN3ZL1DG0Y4W48D", "current_trial": 35, "dateTime": 1509047192724, "trialdata": {"rt": -1000, "stimulus": "/static/audio/wordpool/DINER.wav", "key_press": -1, "type": "PRES_AUD", "word": "diner", "wordID": 466, "conditions": [18, 1200, "a", 18000], "trial": 0, "serialpos": 14, "trial_type": "single-audio", "trial_index": 35, "time_elapsed": 134587, "internal_node_id": "0.0-26.0"}}, {"uniqueid": "MTK0019:3YDGXNSEO013XH8GN3ZL1DG0Y4W48D", "current_trial": 36, "dateTime": 1509047194778, "trialdata": {"rt": -1000, "stimulus": "/static/audio/wordpool/DORM.wav", "key_press": -1, "type": "PRES_AUD", "word": "dorm", "wordID": 487, "conditions": [18, 1200, "a", 18000], "trial": 0, "serialpos": 15, "trial_type": "single-audio", "trial_index": 36, "time_elapsed": 136641, "internal_node_id": "0.0-27.0"}}, {"uniqueid": "MTK0019:3YDGXNSEO013XH8GN3ZL1DG0Y4W48D", "current_trial": 37, "dateTime": 1509047197121, "trialdata": {"rt": -1000, "stimulus": "/static/audio/wordpool/KIDNEY.wav", "key_press": -1, "type": "PRES_AUD", "word": "kidney", "wordID": 775, "conditions": [18, 1200, "a", 18000], "trial": 0, "serialpos": 16, "trial_type": "single-audio", "trial_index": 37, "time_elapsed": 138951, "internal_node_id": "0.0-28.0"}}, {"uniqueid": "MTK0019:3YDGXNSEO013XH8GN3ZL1DG0Y4W48D", "current_trial": 38, "dateTime": 1509047199453, "trialdata": {"rt": -1000, "stimulus": "/static/audio/wordpool/PADDING.wav", "key_press": -1, "type": "PRES_AUD", "word": "padding", "wordID": 998, "conditions": [18, 1200, "a", 18000], "trial": 0, "serialpos": 17, "trial_type": "single-audio", "trial_index": 38, "time_elapsed": 141316, "internal_node_id": "0.0-29.0"}}, {"uniqueid": "MTK0019:3YDGXNSEO013XH8GN3ZL1DG0Y4W48D", "current_trial": 39, "dateTime": 1509047200807, "trialdata": {"rt": -1, "stimulus": "", "key_press": -1, "type": "PRE_RECALL_DELAY", "trial_type": "single-stim", "trial_index": 39, "time_elapsed": 142670, "internal_node_id": "0.0-30.0-0.0"}}, {"uniqueid": "MTK0019:3YDGXNSEO013XH8GN3ZL1DG0Y4W48D", "current_trial": 40, "dateTime": 1509047201312, "trialdata": {"rt": -1000, "stimulus": "/static/audio/400Hz.wav", "key_press": -1, "type": "PRE_RECALL_ALERT", "trial_type": "single-audio", "trial_index": 40, "time_elapsed": 143175, "internal_node_id": "0.0-31.0"}}, {"uniqueid": "MTK0019:3YDGXNSEO013XH8GN3ZL1DG0Y4W48D", "current_trial": 41, "dateTime": 1509047261320, "trialdata": {"rt": [32503, 34628, 35446, 36340, 36813, 37578, 38053, 38753, 39551, 40065, 40616, 42428, 43079, 45344, 46507, 47059, 47800, 48513, 48972, 49817, 50320, 50810, 51532, 52483, 53167, 53745, 54666, 55221, 55923, 56425, 57117, 57667, 58526, 59131, 59789], "recwords": ["b", "a", "b", "c", "a", "b", "c", "a", "b", "c", "a", "b", "c", "spice", "b", "a", "b", "c", "a", "b", "c", "a", "b", "b", "b", "a", "c", "a", "c", "a", "c", "a", "b", "a", "a"], "type": "FREE_RECALL", "conditions": [18, 1200, "a", 18000], "trial": 0, "trial_type": "free-recall", "trial_index": 41, "time_elapsed": 203182, "internal_node_id": "0.0-32.0-0.0"}}, {"uniqueid": "MTK0019:3YDGXNSEO013XH8GN3ZL1DG0Y4W48D", "current_trial": 42, "dateTime": 1509047266084, "trialdata": {"rt": 2760, "key_press": 32, "type": "INSTRUCTIONS", "trial_type": "text", "trial_index": 42, "time_elapsed": 207947, "internal_node_id": "0.0-33.0"}}, {"uniqueid": "MTK0019:3YDGXNSEO013XH8GN3ZL1DG0Y4W48D", "current_trial": 43, "dateTime": 1509047286099, "trialdata": {"rt": [4247, 5895, 6573, 7900, 9029, 11690, 13406, 14621, 16035, 17174], "responses": ["12", "12", "11", "13", "14", "15", "14", "12", "14", "15"], "num1": [6, 2, 7, 3, 9, 7, 5, 2, 3, 7, 4], "num2": [5, 9, 3, 9, 8, 9, 4, 7, 4, 4, 8], "num3": [3, 1, 8, 1, 7, 8, 3, 1, 5, 7, 4], "type": "DISTRACTOR", "conditions": [18, 1200, "v", 18000], "trial": 1, "trial_type": "math-distractor", "trial_index": 43, "time_elapsed": 227961, "internal_node_id": "0.0-34.0"}}, {"uniqueid": "MTK0019:3YDGXNSEO013XH8GN3ZL1DG0Y4W48D", "current_trial": 44, "dateTime": 1509047289105, "trialdata": {"rt": -1, "stimulus": "<p id=\"stim\">10</p>", "key_press": -1, "trial_type": "single-stim", "trial_index": 44, "time_elapsed": 230968, "internal_node_id": "0.0-35.0-0.0"}}, {"uniqueid": "MTK0019:3YDGXNSEO013XH8GN3ZL1DG0Y4W48D", "current_trial": 45, "dateTime": 1509047290111, "trialdata": {"rt": -1, "stimulus": "<p id=\"stim\">9</p>", "key_press": -1, "trial_type": "single-stim", "trial_index": 45, "time_elapsed": 231973, "internal_node_id": "0.0-35.0-1.0"}}, {"uniqueid": "MTK0019:3YDGXNSEO013XH8GN3ZL1DG0Y4W48D", "current_trial": 46, "dateTime": 1509047291116, "trialdata": {"rt": -1, "stimulus": "<p id=\"stim\">8</p>", "key_press": -1, "trial_type": "single-stim", "trial_index": 46, "time_elapsed": 232978, "internal_node_id": "0.0-35.0-2.0"}}, {"uniqueid": "MTK0019:3YDGXNSEO013XH8GN3ZL1DG0Y4W48D", "current_trial": 47, "dateTime": 1509047292122, "trialdata": {"rt": -1, "stimulus": "<p id=\"stim\">7</p>", "key_press": -1, "trial_type": "single-stim", "trial_index": 47, "time_elapsed": 233984, "internal_node_id": "0.0-35.0-3.0"}}, {"uniqueid": "MTK0019:3YDGXNSEO013XH8GN3ZL1DG0Y4W48D", "current_trial": 48, "dateTime": 1509047293126, "trialdata": {"rt": -1, "stimulus": "<p id=\"stim\">6</p>", "key_press": -1, "trial_type": "single-stim", "trial_index": 48, "time_elapsed": 234988, "internal_node_id": "0.0-35.0-4.0"}}, {"uniqueid": "MTK0019:3YDGXNSEO013XH8GN3ZL1DG0Y4W48D", "current_trial": 49, "dateTime": 1509047294131, "trialdata": {"rt": -1, "stimulus": "<p id=\"stim\">5</p>", "key_press": -1, "trial_type": "single-stim", "trial_index": 49, "time_elapsed": 235993, "internal_node_id": "0.0-35.0-5.0"}}, {"uniqueid": "MTK0019:3YDGXNSEO013XH8GN3ZL1DG0Y4W48D", "current_trial": 50, "dateTime": 1509047295135, "trialdata": {"rt": -1, "stimulus": "<p id=\"stim\">4</p>", "key_press": -1, "trial_type": "single-stim", "trial_index": 50, "time_elapsed": 236997, "internal_node_id": "0.0-35.0-6.0"}}, {"uniqueid": "MTK0019:3YDGXNSEO013XH8GN3ZL1DG0Y4W48D", "current_trial": 51, "dateTime": 1509047296140, "trialdata": {"rt": -1, "stimulus": "<p id=\"stim\">3</p>", "key_press": -1, "trial_type": "single-stim", "trial_index": 51, "time_elapsed": 238002, "internal_node_id": "0.0-35.0-7.0"}}, {"uniqueid": "MTK0019:3YDGXNSEO013XH8GN3ZL1DG0Y4W48D", "current_trial": 52, "dateTime": 1509047297144, "trialdata": {"rt": -1, "stimulus": "<p id=\"stim\">2</p>", "key_press": -1, "trial_type": "single-stim", "trial_index": 52, "time_elapsed": 239006, "internal_node_id": "0.0-35.0-8.0"}}, {"uniqueid": "MTK0019:3YDGXNSEO013XH8GN3ZL1DG0Y4W48D", "current_trial": 53, "dateTime": 1509047298148, "trialdata": {"rt": -1, "stimulus": "<p id=\"stim\">1</p>", "key_press": -1, "trial_type": "single-stim", "trial_index": 53, "time_elapsed": 240010, "internal_node_id": "0.0-35.0-9.0"}}, {"uniqueid": "MTK0019:3YDGXNSEO013XH8GN3ZL1DG0Y4W48D", "current_trial": 54, "dateTime": 1509047299653, "trialdata": {"rt": -1, "stimulus": "<p id=\"stim\">+</p>", "key_press": -1, "type": "FIXATION", "trial_type": "single-stim", "trial_index": 54, "time_elapsed": 241515, "internal_node_id": "0.0-36.0-0.0"}}, {"uniqueid": "MTK0019:3YDGXNSEO013XH8GN3ZL1DG0Y4W48D", "current_trial": 55, "dateTime": 1509047300859, "trialdata": {"rt": -1, "stimulus": "<p id=\"stim\">BANQUET</p>", "key_press": -1, "type": "PRES_VIS", "word": "banquet", "wordID": 85, "conditions": [18, 1200, "v", 18000], "trial": 1, "serialpos": 0, "trial_type": "single-stim", "trial_index": 55, "time_elapsed": 242721, "internal_node_id": "0.0-37.0"}}, {"uniqueid": "MTK0019:3YDGXNSEO013XH8GN3ZL1DG0Y4W48D", "current_trial": 56, "dateTime": 1509047302916, "trialdata": {"rt": -1, "stimulus": "<p id=\"stim\">DONOR</p>", "key_press": -1, "type": "PRES_VIS", "word": "donor", "wordID": 484, "conditions": [18, 1200, "v", 18000], "trial": 1, "serialpos": 1, "trial_type": "single-stim", "trial_index": 56, "time_elapsed": 244778, "internal_node_id": "0.0-38.0"}}, {"uniqueid": "MTK0019:3YDGXNSEO013XH8GN3ZL1DG0Y4W48D", "current_trial": 57, "dateTime": 1509047304963, "trialdata": {"rt": -1, "stimulus": "<p id=\"stim\">LIGHTNING</p>", "key_press": -1, "type": "PRES_VIS", "word": "lightning", "wordID": 819, "conditions": [18, 1200, "v", 18000], "trial": 1, "serialpos": 2, "trial_type": "single-stim", "trial_index": 57, "time_elapsed": 246825, "internal_node_id": "0.0-39.0"}}, {"uniqueid": "MTK0019:3YDGXNSEO013XH8GN3ZL1DG0Y4W48D", "current_trial": 58, "dateTime": 1509047307125, "trialdata": {"rt": -1, "stimulus": "<p id=\"stim\">LION</p>", "key_press": -1, "type": "PRES_VIS", "word": "lion", "wordID": 826, "conditions": [18, 1200, "v", 18000], "trial": 1, "serialpos": 3, "trial_type": "single-stim", "trial_index": 58, "time_elapsed": 248987, "internal_node_id": "0.0-40.0"}}, {"uniqueid": "MTK0019:3YDGXNSEO013XH8GN3ZL1DG0Y4W48D", "current_trial": 59, "dateTime": 1509047309429, "trialdata": {"rt": -1, "stimulus": "<p id=\"stim\">SUSPECT</p>", "key_press": -1, "type": "PRES_VIS", "word": "suspect", "wordID": 1414, "conditions": [18, 1200, "v", 18000], "trial": 1, "serialpos": 4, "trial_type": "single-stim", "trial_index": 59, "time_elapsed": 251291, "internal_node_id": "0.0-41.0"}}, {"uniqueid": "MTK0019:3YDGXNSEO013XH8GN3ZL1DG0Y4W48D", "current_trial": 60, "dateTime": 1509047311626, "trialdata": {"rt": -1, "stimulus": "<p id=\"stim\">SWORD</p>", "key_press": -1, "type": "PRES_VIS", "word": "sword", "wordID": 1422, "conditions": [18, 1200, "v", 18000], "trial": 1, "serialpos": 5, "trial_type": "single-stim", "trial_index": 60, "time_elapsed": 253489, "internal_node_id": "0.0-42.0"}}, {"uniqueid": "MTK0019:3YDGXNSEO013XH8GN3ZL1DG0Y4W48D", "current_trial": 61, "dateTime": 1509047313693, "trialdata": {"rt": -1, "stimulus": "<p id=\"stim\">HARP</p>", "key_press": -1, "type": "PRES_VIS", "word": "harp", "wordID": 688, "conditions": [18, 1200, "v", 18000], "trial": 1, "serialpos": 6, "trial_type": "single-stim", "trial_index": 61, "time_elapsed": 255555, "internal_node_id": "0.0-43.0"}}, {"uniqueid": "MTK0019:3YDGXNSEO013XH8GN3ZL1DG0Y4W48D", "current_trial": 62, "dateTime": 1509047315968, "trialdata": {"rt": -1, "stimulus": "<p id=\"stim\">BIKE</p>", "key_press": -1, "type": "PRES_VIS", "word": "bike", "wordID": 124, "conditions": [18, 1200, "v", 18000], "trial": 1, "serialpos": 7, "trial_type": "single-stim", "trial_index": 62, "time_elapsed": 257830, "internal_node_id": "0.0-44.0"}}, {"uniqueid": "MTK0019:3YDGXNSEO013XH8GN3ZL1DG0Y4W48D", "current_trial": 63, "dateTime": 1509047318295, "trialdata": {"rt": -1, "stimulus": "<p id=\"stim\">SALAD</p>", "key_press": -1, "type": "PRES_VIS", "word": "salad", "wordID": 1223, "conditions": [18, 1200, "v", 18000], "trial": 1, "serialpos": 8, "trial_type": "single-stim", "trial_index": 63, "time_elapsed": 260157, "internal_node_id": "0.0-45.0"}}, {"uniqueid": "MTK0019:3YDGXNSEO013XH8GN3ZL1DG0Y4W48D", "current_trial": 64, "dateTime": 1509047320521, "trialdata": {"rt": -1, "stimulus": "<p id=\"stim\">ROOSTER</p>", "key_press": -1, "type": "PRES_VIS", "word": "rooster", "wordID": 1208, "conditions": [18, 1200, "v", 18000], "trial": 1, "serialpos": 9, "trial_type": "single-stim", "trial_index": 64, "time_elapsed": 262383, "internal_node_id": "0.0-46.0"}}, {"uniqueid": "MTK0019:3YDGXNSEO013XH8GN3ZL1DG0Y4W48D", "current_trial": 65, "dateTime": 1509047322883, "trialdata": {"rt": -1, "stimulus": "<p id=\"stim\">PIGEON</p>", "key_press": -1, "type": "PRES_VIS", "word": "pigeon", "wordID": 1064, "conditions": [18, 1200, "v", 18000], "trial": 1, "serialpos": 10, "trial_type": "single-stim", "trial_index": 65, "time_elapsed": 264745, "internal_node_id": "0.0-47.0"}}, {"uniqueid": "MTK0019:3YDGXNSEO013XH8GN3ZL1DG0Y4W48D", "current_trial": 66, "dateTime": 1509047325220, "trialdata": {"rt": -1, "stimulus": "<p id=\"stim\">INMATE</p>", "key_press": -1, "type": "PRES_VIS", "word": "inmate", "wordID": 737, "conditions": [18, 1200, "v", 18000], "trial": 1, "serialpos": 11, "trial_type": "single-stim", "trial_index": 66, "time_elapsed": 267083, "internal_node_id": "0.0-48.0"}}, {"uniqueid": "MTK0019:3YDGXNSEO013XH8GN3ZL1DG0Y4W48D", "current_trial": 67, "dateTime": 1509047327318, "trialdata": {"rt": -1, "stimulus": "<p id=\"stim\">GHETTO</p>", "key_press": -1, "type": "PRES_VIS", "word": "ghetto", "wordID": 632, "conditions": [18, 1200, "v", 18000], "trial": 1, "serialpos": 12, "trial_type": "single-stim", "trial_index": 67, "time_elapsed": 269180, "internal_node_id": "0.0-49.0"}}, {"uniqueid": "MTK0019:3YDGXNSEO013XH8GN3ZL1DG0Y4W48D", "current_trial": 68, "dateTime": 1509047329707, "trialdata": {"rt": -1, "stimulus": "<p id=\"stim\">SUMMIT</p>", "key_press": -1, "type": "PRES_VIS", "word": "summit", "wordID": 1404, "conditions": [18, 1200, "v", 18000], "trial": 1, "serialpos": 13, "trial_type": "single-stim", "trial_index": 68, "time_elapsed": 271557, "internal_node_id": "0.0-50.0"}}, {"uniqueid": "MTK0019:3YDGXNSEO013XH8GN3ZL1DG0Y4W48D", "current_trial": 69, "dateTime": 1509047331773, "trialdata": {"rt": -1, "stimulus": "<p id=\"stim\">BLUEPRINT</p>", "key_press": -1, "type": "PRES_VIS", "word": "blueprint", "wordID": 141, "conditions": [18, 1200, "v", 18000], "trial": 1, "serialpos": 14, "trial_type": "single-stim", "trial_index": 69, "time_elapsed": 273635, "internal_node_id": "0.0-51.0"}}, {"uniqueid": "MTK0019:3YDGXNSEO013XH8GN3ZL1DG0Y4W48D", "current_trial": 70, "dateTime": 1509047333810, "trialdata": {"rt": -1, "stimulus": "<p id=\"stim\">FIDDLE</p>", "key_press": -1, "type": "PRES_VIS", "word": "fiddle", "wordID": 560, "conditions": [18, 1200, "v", 18000], "trial": 1, "serialpos": 15, "trial_type": "single-stim", "trial_index": 70, "time_elapsed": 275672, "internal_node_id": "0.0-52.0"}}, {"uniqueid": "MTK0019:3YDGXNSEO013XH8GN3ZL1DG0Y4W48D", "current_trial": 71, "dateTime": 1509047336184, "trialdata": {"rt": -1, "stimulus": "<p id=\"stim\">FLUTE</p>", "key_press": -1, "type": "PRES_VIS", "word": "flute", "wordID": 584, "conditions": [18, 1200, "v", 18000], "trial": 1, "serialpos": 16, "trial_type": "single-stim", "trial_index": 71, "time_elapsed": 278046, "internal_node_id": "0.0-53.0"}}, {"uniqueid": "MTK0019:3YDGXNSEO013XH8GN3ZL1DG0Y4W48D", "current_trial": 72, "dateTime": 1509047338279, "trialdata": {"rt": -1, "stimulus": "<p id=\"stim\">WHISKERS</p>", "key_press": -1, "type": "PRES_VIS", "word": "whiskers", "wordID": 1604, "conditions": [18, 1200, "v", 18000], "trial": 1, "serialpos": 17, "trial_type": "single-stim", "trial_index": 72, "time_elapsed": 280142, "internal_node_id": "0.0-54.0"}}, {"uniqueid": "MTK0019:3YDGXNSEO013XH8GN3ZL1DG0Y4W48D", "current_trial": 73, "dateTime": 1509047340526, "trialdata": {"rt": -1, "stimulus": "", "key_press": -1, "type": "PRE_RECALL_DELAY", "trial_type": "single-stim", "trial_index": 73, "time_elapsed": 282389, "internal_node_id": "0.0-55.0-0.0"}}, {"uniqueid": "MTK0019:3YDGXNSEO013XH8GN3ZL1DG0Y4W48D", "current_trial": 74, "dateTime": 1509047341031, "trialdata": {"rt": -1000, "stimulus": "/static/audio/400Hz.wav", "key_press": -1, "type": "PRE_RECALL_ALERT", "trial_type": "single-audio", "trial_index": 74, "time_elapsed": 282894, "internal_node_id": "0.0-56.0"}}, {"uniqueid": "MTK0019:3YDGXNSEO013XH8GN3ZL1DG0Y4W48D", "current_trial": 75, "dateTime": 1509047401043, "trialdata": {"rt": [3175, 3725, 4459, 7895, 8228, 8494, 8791, 9084, 9344, 9608, 9994, 10399, 11237, 11605, 11935, 12246, 12510, 13287, 13727, 14185, 14867, 15406, 15791, 16238, 16900, 17346, 17916, 18314, 18740, 19386, 19867, 20365, 20710, 21787, 22244, 22794, 23146, 23687, 24100, 25041, 25500, 25840, 26567, 26942, 27616, 28130, 28810, 29328, 29867, 31143, 31743, 32262, 33064, 33716, 34357, 34843, 35447, 36005, 36456, 37008, 37754, 38152, 38947, 39633, 40093, 40456, 41150, 41692, 42102, 43243, 43638, 44288, 44722, 45558, 46194, 46748, 47451, 48000, 48628, 49430, 50042, 50755, 51363, 51938, 52467, 53108, 53579, 54571, 55293, 55795, 57558, 58192, 58575, 58775, 59347], "recwords": ["a", "a", "b", "flute", "", "", "", "", "", "", "b", "b", "a", "a", "a", "a", "a", "b", "c", "a", "b", "c", "a", "a", "b", "a", "c", "a", "a", "b", "c", "a", "a", "b", "", "c", "c", "a", "a", "b", "a", "a", "b", "b", "c", "a", "b", "c", "a", "b", "a", "a", "b", "a", "b", "b", "c", "b", "c", "b", "a", "a", "b", "b", "b", "b", "", "a", "a", "a", "b", "c", "c", "a", "b", "a", "c", "b", "a", "c", "a", "", "c", "", "a", "", "b", "", "a", "a", "c", "a", "", "", "c"], "type": "FREE_RECALL", "conditions": [18, 1200, "v", 18000], "trial": 1, "trial_type": "free-recall", "trial_index": 75, "time_elapsed": 342905, "internal_node_id": "0.0-57.0-0.0"}}, {"uniqueid": "MTK0019:3YDGXNSEO013XH8GN3ZL1DG0Y4W48D", "current_trial": 76, "dateTime": 1509047406870, "trialdata": {"rt": 3822, "key_press": 32, "type": "INSTRUCTIONS", "trial_type": "text", "trial_index": 76, "time_elapsed": 348732, "internal_node_id": "0.0-58.0"}}, {"uniqueid": "MTK0019:3YDGXNSEO013XH8GN3ZL1DG0Y4W48D", "current_trial": 77, "dateTime": 1509047419883, "trialdata": {"rt": [], "responses": [], "num1": [6], "num2": [1], "num3": [5], "type": "DISTRACTOR", "conditions": [12, 800, "a", 12000], "trial": 2, "trial_type": "math-distractor", "trial_index": 77, "time_elapsed": 361746, "internal_node_id": "0.0-59.0"}}, {"uniqueid": "MTK0019:3YDGXNSEO013XH8GN3ZL1DG0Y4W48D", "current_trial": 78, "dateTime": 1509047422889, "trialdata": {"rt": -1, "stimulus": "<p id=\"stim\">10</p>", "key_press": -1, "trial_type": "single-stim", "trial_index": 78, "time_elapsed": 364752, "internal_node_id": "0.0-60.0-0.0"}}, {"uniqueid": "MTK0019:3YDGXNSEO013XH8GN3ZL1DG0Y4W48D", "current_trial": 79, "dateTime": 1509047423894, "trialdata": {"rt": -1, "stimulus": "<p id=\"stim\">9</p>", "key_press": -1, "trial_type": "single-stim", "trial_index": 79, "time_elapsed": 365756, "internal_node_id": "0.0-60.0-1.0"}}, {"uniqueid": "MTK0019:3YDGXNSEO013XH8GN3ZL1DG0Y4W48D", "current_trial": 80, "dateTime": 1509047424899, "trialdata": {"rt": -1, "stimulus": "<p id=\"stim\">8</p>", "key_press": -1, "trial_type": "single-stim", "trial_index": 80, "time_elapsed": 366762, "internal_node_id": "0.0-60.0-2.0"}}, {"uniqueid": "MTK0019:3YDGXNSEO013XH8GN3ZL1DG0Y4W48D", "current_trial": 81, "dateTime": 1509047425904, "trialdata": {"rt": -1, "stimulus": "<p id=\"stim\">7</p>", "key_press": -1, "trial_type": "single-stim", "trial_index": 81, "time_elapsed": 367767, "internal_node_id": "0.0-60.0-3.0"}}, {"uniqueid": "MTK0019:3YDGXNSEO013XH8GN3ZL1DG0Y4W48D", "current_trial": 82, "dateTime": 1509047426908, "trialdata": {"rt": -1, "stimulus": "<p id=\"stim\">6</p>", "key_press": -1, "trial_type": "single-stim", "trial_index": 82, "time_elapsed": 368771, "internal_node_id": "0.0-60.0-4.0"}}, {"uniqueid": "MTK0019:3YDGXNSEO013XH8GN3ZL1DG0Y4W48D", "current_trial": 83, "dateTime": 1509047427913, "trialdata": {"rt": -1, "stimulus": "<p id=\"stim\">5</p>", "key_press": -1, "trial_type": "single-stim", "trial_index": 83, "time_elapsed": 369776, "internal_node_id": "0.0-60.0-5.0"}}, {"uniqueid": "MTK0019:3YDGXNSEO013XH8GN3ZL1DG0Y4W48D", "current_trial": 84, "dateTime": 1509047428918, "trialdata": {"rt": -1, "stimulus": "<p id=\"stim\">4</p>", "key_press": -1, "trial_type": "single-stim", "trial_index": 84, "time_elapsed": 370780, "internal_node_id": "0.0-60.0-6.0"}}, {"uniqueid": "MTK0019:3YDGXNSEO013XH8GN3ZL1DG0Y4W48D", "current_trial": 85, "dateTime": 1509047429923, "trialdata": {"rt": -1, "stimulus": "<p id=\"stim\">3</p>", "key_press": -1, "trial_type": "single-stim", "trial_index": 85, "time_elapsed": 371784, "internal_node_id": "0.0-60.0-7.0"}}, {"uniqueid": "MTK0019:3YDGXNSEO013XH8GN3ZL1DG0Y4W48D", "current_trial": 86, "dateTime": 1509047430928, "trialdata": {"rt": -1, "stimulus": "<p id=\"stim\">2</p>", "key_press": -1, "trial_type": "single-stim", "trial_index": 86, "time_elapsed": 372790, "internal_node_id": "0.0-60.0-8.0"}}, {"uniqueid": "MTK0019:3YDGXNSEO013XH8GN3ZL1DG0Y4W48D", "current_trial": 87, "dateTime": 1509047431931, "trialdata": {"rt": -1, "stimulus": "<p id=\"stim\">1</p>", "key_press": -1, "trial_type": "single-stim", "trial_index": 87, "time_elapsed": 373793, "internal_node_id": "0.0-60.0-9.0"}}, {"uniqueid": "MTK0019:3YDGXNSEO013XH8GN3ZL1DG0Y4W48D", "current_trial": 88, "dateTime": 1509047433437, "trialdata": {"rt": -1, "stimulus": "<p id=\"stim\">+</p>", "key_press": -1, "type": "FIXATION", "trial_type": "single-stim", "trial_index": 88, "time_elapsed": 375299, "internal_node_id": "0.0-61.0-0.0"}}, {"uniqueid": "MTK0019:3YDGXNSEO013XH8GN3ZL1DG0Y4W48D", "current_trial": 89, "dateTime": 1509047435295, "trialdata": {"rt": -1000, "stimulus": "/static/audio/wordpool/SIBLING.wav", "key_press": -1, "type": "PRES_AUD", "word": "sibling", "wordID": 1300, "conditions": [12, 800, "a", 12000], "trial": 2, "serialpos": 0, "trial_type": "single-audio", "trial_index": 89, "time_elapsed": 377157, "internal_node_id": "0.0-62.0"}}, {"uniqueid": "MTK0019:3YDGXNSEO013XH8GN3ZL1DG0Y4W48D", "current_trial": 90, "dateTime": 1509047437201, "trialdata": {"rt": -1000, "stimulus": "/static/audio/wordpool/FLASHLIGHT.wav", "key_press": -1, "type": "PRES_AUD", "word": "flashlight", "wordID": 574, "conditions": [12, 800, "a", 12000], "trial": 2, "serialpos": 1, "trial_type": "single-audio", "trial_index": 90, "time_elapsed": 379063, "internal_node_id": "0.0-63.0"}}, {"uniqueid": "MTK0019:3YDGXNSEO013XH8GN3ZL1DG0Y4W48D", "current_trial": 91, "dateTime": 1509047439198, "trialdata": {"rt": -1000, "stimulus": "/static/audio/wordpool/GALLON.wav", "key_press": -1, "type": "PRES_AUD", "word": "gallon", "wordID": 617, "conditions": [12, 800, "a", 12000], "trial": 2, "serialpos": 2, "trial_type": "single-audio", "trial_index": 91, "time_elapsed": 381061, "internal_node_id": "0.0-64.0"}}, {"uniqueid": "MTK0019:3YDGXNSEO013XH8GN3ZL1DG0Y4W48D", "current_trial": 92, "dateTime": 1509047441155, "trialdata": {"rt": -1000, "stimulus": "/static/audio/wordpool/BARREL.wav", "key_press": -1, "type": "PRES_AUD", "word": "barrel", "wordID": 90, "conditions": [12, 800, "a", 12000], "trial": 2, "serialpos": 3, "trial_type": "single-audio", "trial_index": 92, "time_elapsed": 383018, "internal_node_id": "0.0-65.0"}}, {"uniqueid": "MTK0019:3YDGXNSEO013XH8GN3ZL1DG0Y4W48D", "current_trial": 93, "dateTime": 1509047442825, "trialdata": {"rt": -1000, "stimulus": "/static/audio/wordpool/UNCLE.wav", "key_press": -1, "type": "PRES_AUD", "word": "uncle", "wordID": 1535, "conditions": [12, 800, "a", 12000], "trial": 2, "serialpos": 4, "trial_type": "single-audio", "trial_index": 93, "time_elapsed": 384687, "internal_node_id": "0.0-66.0"}}, {"uniqueid": "MTK0019:3YDGXNSEO013XH8GN3ZL1DG0Y4W48D", "current_trial": 94, "dateTime": 1509047444837, "trialdata": {"rt": -1000, "stimulus": "/static/audio/wordpool/SALMON.wav", "key_press": -1, "type": "PRES_AUD", "word": "salmon", "wordID": 1226, "conditions": [12, 800, "a", 12000], "trial": 2, "serialpos": 5, "trial_type": "single-audio", "trial_index": 94, "time_elapsed": 386700, "internal_node_id": "0.0-67.0"}}, {"uniqueid": "MTK0019:3YDGXNSEO013XH8GN3ZL1DG0Y4W48D", "current_trial": 95, "dateTime": 1509047446567, "trialdata": {"rt": -1000, "stimulus": "/static/audio/wordpool/POSSUM.wav", "key_press": -1, "type": "PRES_AUD", "word": "possum", "wordID": 1111, "conditions": [12, 800, "a", 12000], "trial": 2, "serialpos": 6, "trial_type": "single-audio", "trial_index": 95, "time_elapsed": 388429, "internal_node_id": "0.0-68.0"}}, {"uniqueid": "MTK0019:3YDGXNSEO013XH8GN3ZL1DG0Y4W48D", "current_trial": 96, "dateTime": 1509047448376, "trialdata": {"rt": -1000, "stimulus": "/static/audio/wordpool/COUSIN.wav", "key_press": -1, "type": "PRES_AUD", "word": "cousin", "wordID": 391, "conditions": [12, 800, "a", 12000], "trial": 2, "serialpos": 7, "trial_type": "single-audio", "trial_index": 96, "time_elapsed": 390239, "internal_node_id": "0.0-69.0"}}, {"uniqueid": "MTK0019:3YDGXNSEO013XH8GN3ZL1DG0Y4W48D", "current_trial": 97, "dateTime": 1509047450057, "trialdata": {"rt": -1000, "stimulus": "/static/audio/wordpool/EMPIRE.wav", "key_press": -1, "type": "PRES_AUD", "word": "empire", "wordID": 529, "conditions": [12, 800, "a", 12000], "trial": 2, "serialpos": 8, "trial_type": "single-audio", "trial_index": 97, "time_elapsed": 391920, "internal_node_id": "0.0-70.0"}}, {"uniqueid": "MTK0019:3YDGXNSEO013XH8GN3ZL1DG0Y4W48D", "current_trial": 98, "dateTime": 1509047452036, "trialdata": {"rt": -1000, "stimulus": "/static/audio/wordpool/ROBIN.wav", "key_press": -1, "type": "PRES_AUD", "word": "robin", "wordID": 1198, "conditions": [12, 800, "a", 12000], "trial": 2, "serialpos": 9, "trial_type": "single-audio", "trial_index": 98, "time_elapsed": 393899, "internal_node_id": "0.0-71.0"}}, {"uniqueid": "MTK0019:3YDGXNSEO013XH8GN3ZL1DG0Y4W48D", "current_trial": 99, "dateTime": 1509047453815, "trialdata": {"rt": -1000, "stimulus": "/static/audio/wordpool/CANYON.wav", "key_press": -1, "type": "PRES_AUD", "word": "canyon", "wordID": 234, "conditions": [12, 800, "a", 12000], "trial": 2, "serialpos": 10, "trial_type": "single-audio", "trial_index": 99, "time_elapsed": 395678, "internal_node_id": "0.0-72.0"}}, {"uniqueid": "MTK0019:3YDGXNSEO013XH8GN3ZL1DG0Y4W48D", "current_trial": 100, "dateTime": 1509047455454, "trialdata": {"rt": -1000, "stimulus": "/static/audio/wordpool/ROD.wav", "key_press": -1, "type": "PRES_AUD", "word": "rod", "wordID": 1202, "conditions": [12, 800, "a", 12000], "trial": 2, "serialpos": 11, "trial_type": "single-audio", "trial_index": 100, "time_elapsed": 397317, "internal_node_id": "0.0-73.0"}}, {"uniqueid": "MTK0019:3YDGXNSEO013XH8GN3ZL1DG0Y4W48D", "current_trial": 101, "dateTime": 1509047456680, "trialdata": {"rt": -1, "stimulus": "", "key_press": -1, "type": "PRE_RECALL_DELAY", "trial_type": "single-stim", "trial_index": 101, "time_elapsed": 398542, "internal_node_id": "0.0-74.0-0.0"}}, {"uniqueid": "MTK0019:3YDGXNSEO013XH8GN3ZL1DG0Y4W48D", "current_trial": 102, "dateTime": 1509047457186, "trialdata": {"rt": -1000, "stimulus": "/static/audio/400Hz.wav", "key_press": -1, "type": "PRE_RECALL_ALERT", "trial_type": "single-audio", "trial_index": 102, "time_elapsed": 399049, "internal_node_id": "0.0-75.0"}}, {"uniqueid": "MTK0019:3YDGXNSEO013XH8GN3ZL1DG0Y4W48D", "current_trial": 103, "dateTime": 1509047517200, "trialdata": {"rt": [23707, 24051, 24342, 25415, 26122, 26901, 27674, 28443, 29212, 29803, 30595, 31395, 31943, 32623, 33468, 34204, 34985, 35431, 36084, 36705, 37329, 37954, 38500, 39048, 39594, 40074, 40522, 41026, 41694, 42305, 42985, 43637, 44299, 46654, 47379, 48223, 48828, 49433, 49936, 50413, 51006, 52583, 53654, 54320, 55192, 55810, 56639, 57210, 57803, 58278, 58821, 59254, 59744], "recwords": ["a", "a", "a", "a", "b", "a", "c", "a", "c", "a", "a", "c", "a", "c", "b", "a", "b", "b", "c", "a", "b", "b", "c", "a", "c", "a", "c", "a", "c", "c", "c", "a", "c", "b", "b", "c", "b", "c", "b", "b", "b", "a", "c", "b", "a", "b", "a", "b", "c", "", "c", "c", "a"], "type": "FREE_RECALL", "conditions": [12, 800, "a", 12000], "trial": 2, "trial_type": "free-recall", "trial_index": 103, "time_elapsed": 459063, "internal_node_id": "0.0-76.0-0.0"}}, {"uniqueid": "MTK0019:3YDGXNSEO013XH8GN3ZL1DG0Y4W48D", "current_trial": 104, "dateTime": 1509047520511, "trialdata": {"rt": 1305, "key_press": 13, "type": "INSTRUCTIONS", "trial_type": "text", "trial_index": 104, "time_elapsed": 462373, "internal_node_id": "0.0-77.0"}}, {"uniqueid": "MTK0019:3YDGXNSEO013XH8GN3ZL1DG0Y4W48D", "current_trial": 105, "dateTime": 1509047534521, "trialdata": {"rt": [], "responses": [], "num1": [9], "num2": [7], "num3": [4], "type": "DISTRACTOR", "conditions": [24, 1600, "v", 12000], "trial": 3, "trial_type": "math-distractor", "trial_index": 105, "time_elapsed": 476383, "internal_node_id": "0.0-78.0"}}, {"uniqueid": "MTK0019:3YDGXNSEO013XH8GN3ZL1DG0Y4W48D", "current_trial": 106, "dateTime": 1509047537527, "trialdata": {"rt": -1, "stimulus": "<p id=\"stim\">10</p>", "key_press": -1, "trial_type": "single-stim", "trial_index": 106, "time_elapsed": 479389, "internal_node_id": "0.0-79.0-0.0"}}, {"uniqueid": "MTK0019:3YDGXNSEO013XH8GN3ZL1DG0Y4W48D", "current_trial": 107, "dateTime": 1509047538529, "trialdata": {"rt": -1, "stimulus": "<p id=\"stim\">9</p>", "key_press": -1, "trial_type": "single-stim", "trial_index": 107, "time_elapsed": 480392, "internal_node_id": "0.0-79.0-1.0"}}, {"uniqueid": "MTK0019:3YDGXNSEO013XH8GN3ZL1DG0Y4W48D", "current_trial": 108, "dateTime": 1509047539532, "trialdata": {"rt": -1, "stimulus": "<p id=\"stim\">8</p>", "key_press": -1, "trial_type": "single-stim", "trial_index": 108, "time_elapsed": 481395, "internal_node_id": "0.0-79.0-2.0"}}, {"uniqueid": "MTK0019:3YDGXNSEO013XH8GN3ZL1DG0Y4W48D", "current_trial": 109, "dateTime": 1509047540535, "trialdata": {"rt": -1, "stimulus": "<p id=\"stim\">7</p>", "key_press": -1, "trial_type": "single-stim", "trial_index": 109, "time_elapsed": 482398, "internal_node_id": "0.0-79.0-3.0"}}, {"uniqueid": "MTK0019:3YDGXNSEO013XH8GN3ZL1DG0Y4W48D", "current_trial": 110, "dateTime": 1509047541539, "trialdata": {"rt": -1, "stimulus": "<p id=\"stim\">6</p>", "key_press": -1, "trial_type": "single-stim", "trial_index": 110, "time_elapsed": 483402, "internal_node_id": "0.0-79.0-4.0"}}, {"uniqueid": "MTK0019:3YDGXNSEO013XH8GN3ZL1DG0Y4W48D", "current_trial": 111, "dateTime": 1509047542547, "trialdata": {"rt": -1, "stimulus": "<p id=\"stim\">5</p>", "key_press": -1, "trial_type": "single-stim", "trial_index": 111, "time_elapsed": 484410, "internal_node_id": "0.0-79.0-5.0"}}, {"uniqueid": "MTK0019:3YDGXNSEO013XH8GN3ZL1DG0Y4W48D", "current_trial": 112, "dateTime": 1509047543553, "trialdata": {"rt": -1, "stimulus": "<p id=\"stim\">4</p>", "key_press": -1, "trial_type": "single-stim", "trial_index": 112, "time_elapsed": 485415, "internal_node_id": "0.0-79.0-6.0"}}, {"uniqueid": "MTK0019:3YDGXNSEO013XH8GN3ZL1DG0Y4W48D", "current_trial": 113, "dateTime": 1509047544556, "trialdata": {"rt": -1, "stimulus": "<p id=\"stim\">3</p>", "key_press": -1, "trial_type": "single-stim", "trial_index": 113, "time_elapsed": 486419, "internal_node_id": "0.0-79.0-7.0"}}, {"uniqueid": "MTK0019:3YDGXNSEO013XH8GN3ZL1DG0Y4W48D", "current_trial": 114, "dateTime": 1509047545562, "trialdata": {"rt": -1, "stimulus": "<p id=\"stim\">2</p>", "key_press": -1, "trial_type": "single-stim", "trial_index": 114, "time_elapsed": 487425, "internal_node_id": "0.0-79.0-8.0"}}, {"uniqueid": "MTK0019:3YDGXNSEO013XH8GN3ZL1DG0Y4W48D", "current_trial": 115, "dateTime": 1509047546564, "trialdata": {"rt": -1, "stimulus": "<p id=\"stim\">1</p>", "key_press": -1, "trial_type": "single-stim", "trial_index": 115, "time_elapsed": 488427, "internal_node_id": "0.0-79.0-9.0"}}, {"uniqueid": "MTK0019:3YDGXNSEO013XH8GN3ZL1DG0Y4W48D", "current_trial": 116, "dateTime": 1509047548068, "trialdata": {"rt": -1, "stimulus": "<p id=\"stim\">+</p>", "key_press": -1, "type": "FIXATION", "trial_type": "single-stim", "trial_index": 116, "time_elapsed": 489929, "internal_node_id": "0.0-80.0-0.0"}}, {"uniqueid": "MTK0019:3YDGXNSEO013XH8GN3ZL1DG0Y4W48D", "current_trial": 117, "dateTime": 1509047549671, "trialdata": {"rt": -1, "stimulus": "<p id=\"stim\">CLOTHES</p>", "key_press": -1, "type": "PRES_VIS", "word": "clothes", "wordID": 326, "conditions": [24, 1600, "v", 12000], "trial": 3, "serialpos": 0, "trial_type": "single-stim", "trial_index": 117, "time_elapsed": 491534, "internal_node_id": "0.0-81.0"}}, {"uniqueid": "MTK0019:3YDGXNSEO013XH8GN3ZL1DG0Y4W48D", "current_trial": 118, "dateTime": 1509047552227, "trialdata": {"rt": -1, "stimulus": "<p id=\"stim\">WARDROBE</p>", "key_press": -1, "type": "PRES_VIS", "word": "wardrobe", "wordID": 1586, "conditions": [24, 1600, "v", 12000], "trial": 3, "serialpos": 1, "trial_type": "single-stim", "trial_index": 118, "time_elapsed": 494090, "internal_node_id": "0.0-82.0"}}, {"uniqueid": "MTK0019:3YDGXNSEO013XH8GN3ZL1DG0Y4W48D", "current_trial": 119, "dateTime": 1509047555026, "trialdata": {"rt": -1, "stimulus": "<p id=\"stim\">PASTRY</p>", "key_press": -1, "type": "PRES_VIS", "word": "pastry", "wordID": 1021, "conditions": [24, 1600, "v", 12000], "trial": 3, "serialpos": 2, "trial_type": "single-stim", "trial_index": 119, "time_elapsed": 496888, "internal_node_id": "0.0-83.0"}}, {"uniqueid": "MTK0019:3YDGXNSEO013XH8GN3ZL1DG0Y4W48D", "current_trial": 120, "dateTime": 1509047557777, "trialdata": {"rt": -1, "stimulus": "<p id=\"stim\">MILK</p>", "key_press": -1, "type": "PRES_VIS", "word": "milk", "wordID": 894, "conditions": [24, 1600, "v", 12000], "trial": 3, "serialpos": 3, "trial_type": "single-stim", "trial_index": 120, "time_elapsed": 499639, "internal_node_id": "0.0-84.0"}}, {"uniqueid": "MTK0019:3YDGXNSEO013XH8GN3ZL1DG0Y4W48D", "current_trial": 121, "dateTime": 1509047560393, "trialdata": {"rt": -1, "stimulus": "<p id=\"stim\">COFFEE</p>", "key_press": -1, "type": "PRES_VIS", "word": "coffee", "wordID": 340, "conditions": [24, 1600, "v", 12000], "trial": 3, "serialpos": 4, "trial_type": "single-stim", "trial_index": 121, "time_elapsed": 502255, "internal_node_id": "0.0-85.0"}}, {"uniqueid": "MTK0019:3YDGXNSEO013XH8GN3ZL1DG0Y4W48D", "current_trial": 122, "dateTime": 1509047562815, "trialdata": {"rt": -1, "stimulus": "<p id=\"stim\">BROTHER</p>", "key_press": -1, "type": "PRES_VIS", "word": "brother", "wordID": 178, "conditions": [24, 1600, "v", 12000], "trial": 3, "serialpos": 5, "trial_type": "single-stim", "trial_index": 122, "time_elapsed": 504678, "internal_node_id": "0.0-86.0"}}, {"uniqueid": "MTK0019:3YDGXNSEO013XH8GN3ZL1DG0Y4W48D", "current_trial": 123, "dateTime": 1509047565334, "trialdata": {"rt": -1, "stimulus": "<p id=\"stim\">SIDEWALK</p>", "key_press": -1, "type": "PRES_VIS", "word": "sidewalk", "wordID": 1302, "conditions": [24, 1600, "v", 12000], "trial": 3, "serialpos": 6, "trial_type": "single-stim", "trial_index": 123, "time_elapsed": 507196, "internal_node_id": "0.0-87.0"}}, {"uniqueid": "MTK0019:3YDGXNSEO013XH8GN3ZL1DG0Y4W48D", "current_trial": 124, "dateTime": 1509047567936, "trialdata": {"rt": -1, "stimulus": "<p id=\"stim\">TERMITE</p>", "key_press": -1, "type": "PRES_VIS", "word": "termite", "wordID": 1450, "conditions": [24, 1600, "v", 12000], "trial": 3, "serialpos": 7, "trial_type": "single-stim", "trial_index": 124, "time_elapsed": 509799, "internal_node_id": "0.0-88.0"}}, {"uniqueid": "MTK0019:3YDGXNSEO013XH8GN3ZL1DG0Y4W48D", "current_trial": 125, "dateTime": 1509047570560, "trialdata": {"rt": -1, "stimulus": "<p id=\"stim\">COOKBOOK</p>", "key_press": -1, "type": "PRES_VIS", "word": "cookbook", "wordID": 372, "conditions": [24, 1600, "v", 12000], "trial": 3, "serialpos": 8, "trial_type": "single-stim", "trial_index": 125, "time_elapsed": 512423, "internal_node_id": "0.0-89.0"}}, {"uniqueid": "MTK0019:3YDGXNSEO013XH8GN3ZL1DG0Y4W48D", "current_trial": 126, "dateTime": 1509047573348, "trialdata": {"rt": -1, "stimulus": "<p id=\"stim\">WAITRESS</p>", "key_press": -1, "type": "PRES_VIS", "word": "waitress", "wordID": 1580, "conditions": [24, 1600, "v", 12000], "trial": 3, "serialpos": 9, "trial_type": "single-stim", "trial_index": 126, "time_elapsed": 515211, "internal_node_id": "0.0-90.0"}}, {"uniqueid": "MTK0019:3YDGXNSEO013XH8GN3ZL1DG0Y4W48D", "current_trial": 127, "dateTime": 1509047576099, "trialdata": {"rt": -1, "stimulus": "<p id=\"stim\">HEART</p>", "key_press": -1, "type": "PRES_VIS", "word": "heart", "wordID": 696, "conditions": [24, 1600, "v", 12000], "trial": 3, "serialpos": 10, "trial_type": "single-stim", "trial_index": 127, "time_elapsed": 517962, "internal_node_id": "0.0-91.0"}}, {"uniqueid": "MTK0019:3YDGXNSEO013XH8GN3ZL1DG0Y4W48D", "current_trial": 128, "dateTime": 1509047578597, "trialdata": {"rt": -1, "stimulus": "<p id=\"stim\">MUFFIN</p>", "key_press": -1, "type": "PRES_VIS", "word": "muffin", "wordID": 928, "conditions": [24, 1600, "v", 12000], "trial": 3, "serialpos": 11, "trial_type": "single-stim", "trial_index": 128, "time_elapsed": 520460, "internal_node_id": "0.0-92.0"}}, {"uniqueid": "MTK0019:3YDGXNSEO013XH8GN3ZL1DG0Y4W48D", "current_trial": 129, "dateTime": 1509047581285, "trialdata": {"rt": -1, "stimulus": "<p id=\"stim\">FRANCE</p>", "key_press": -1, "type": "PRES_VIS", "word": "france", "wordID": 600, "conditions": [24, 1600, "v", 12000], "trial": 3, "serialpos": 12, "trial_type": "single-stim", "trial_index": 129, "time_elapsed": 523148, "internal_node_id": "0.0-93.0"}}, {"uniqueid": "MTK0019:3YDGXNSEO013XH8GN3ZL1DG0Y4W48D", "current_trial": 130, "dateTime": 1509047583768, "trialdata": {"rt": -1, "stimulus": "<p id=\"stim\">TURTLE</p>", "key_press": -1, "type": "PRES_VIS", "word": "turtle", "wordID": 1521, "conditions": [24, 1600, "v", 12000], "trial": 3, "serialpos": 13, "trial_type": "single-stim", "trial_index": 130, "time_elapsed": 525631, "internal_node_id": "0.0-94.0"}}, {"uniqueid": "MTK0019:3YDGXNSEO013XH8GN3ZL1DG0Y4W48D", "current_trial": 131, "dateTime": 1509047586420, "trialdata": {"rt": -1, "stimulus": "<p id=\"stim\">PEPPER</p>", "key_press": -1, "type": "PRES_VIS", "word": "pepper", "wordID": 1046, "conditions": [24, 1600, "v", 12000], "trial": 3, "serialpos": 14, "trial_type": "single-stim", "trial_index": 131, "time_elapsed": 528283, "internal_node_id": "0.0-95.0"}}, {"uniqueid": "MTK0019:3YDGXNSEO013XH8GN3ZL1DG0Y4W48D", "current_trial": 132, "dateTime": 1509047589154, "trialdata": {"rt": -1, "stimulus": "<p id=\"stim\">STREAM</p>", "key_press": -1, "type": "PRES_VIS", "word": "stream", "wordID": 1391, "conditions": [24, 1600, "v", 12000], "trial": 3, "serialpos": 15, "trial_type": "single-stim", "trial_index": 132, "time_elapsed": 531017, "internal_node_id": "0.0-96.0"}}, {"uniqueid": "MTK0019:3YDGXNSEO013XH8GN3ZL1DG0Y4W48D", "current_trial": 133, "dateTime": 1509047591857, "trialdata": {"rt": -1, "stimulus": "<p id=\"stim\">GRILL</p>", "key_press": -1, "type": "PRES_VIS", "word": "grill", "wordID": 660, "conditions": [24, 1600, "v", 12000], "trial": 3, "serialpos": 16, "trial_type": "single-stim", "trial_index": 133, "time_elapsed": 533719, "internal_node_id": "0.0-97.0"}}, {"uniqueid": "MTK0019:3YDGXNSEO013XH8GN3ZL1DG0Y4W48D", "current_trial": 134, "dateTime": 1509047594551, "trialdata": {"rt": -1, "stimulus": "<p id=\"stim\">GRAVEL</p>", "key_press": -1, "type": "PRES_VIS", "word": "gravel", "wordID": 658, "conditions": [24, 1600, "v", 12000], "trial": 3, "serialpos": 17, "trial_type": "single-stim", "trial_index": 134, "time_elapsed": 536413, "internal_node_id": "0.0-98.0"}}, {"uniqueid": "MTK0019:3YDGXNSEO013XH8GN3ZL1DG0Y4W48D", "current_trial": 135, "dateTime": 1509047597164, "trialdata": {"rt": -1, "stimulus": "<p id=\"stim\">SODA</p>", "key_press": -1, "type": "PRES_VIS", "word": "soda", "wordID": 1340, "conditions": [24, 1600, "v", 12000], "trial": 3, "serialpos": 18, "trial_type": "single-stim", "trial_index": 135, "time_elapsed": 539027, "internal_node_id": "0.0-99.0"}}, {"uniqueid": "MTK0019:3YDGXNSEO013XH8GN3ZL1DG0Y4W48D", "current_trial": 136, "dateTime": 1509047599614, "trialdata": {"rt": -1, "stimulus": "<p id=\"stim\">DRINK</p>", "key_press": -1, "type": "PRES_VIS", "word": "drink", "wordID": 497, "conditions": [24, 1600, "v", 12000], "trial": 3, "serialpos": 19, "trial_type": "single-stim", "trial_index": 136, "time_elapsed": 541476, "internal_node_id": "0.0-100.0"}}, {"uniqueid": "MTK0019:3YDGXNSEO013XH8GN3ZL1DG0Y4W48D", "current_trial": 137, "dateTime": 1509047602251, "trialdata": {"rt": -1, "stimulus": "<p id=\"stim\">AIRPORT</p>", "key_press": -1, "type": "PRES_VIS", "word": "airport", "wordID": 12, "conditions": [24, 1600, "v", 12000], "trial": 3, "serialpos": 20, "trial_type": "single-stim", "trial_index": 137, "time_elapsed": 544114, "internal_node_id": "0.0-101.0"}}, {"uniqueid": "MTK0019:3YDGXNSEO013XH8GN3ZL1DG0Y4W48D", "current_trial": 138, "dateTime": 1509047604836, "trialdata": {"rt": -1, "stimulus": "<p id=\"stim\">FRUIT</p>", "key_press": -1, "type": "PRES_VIS", "word": "fruit", "wordID": 609, "conditions": [24, 1600, "v", 12000], "trial": 3, "serialpos": 21, "trial_type": "single-stim", "trial_index": 138, "time_elapsed": 546699, "internal_node_id": "0.0-102.0"}}, {"uniqueid": "MTK0019:3YDGXNSEO013XH8GN3ZL1DG0Y4W48D", "current_trial": 139, "dateTime": 1509047607534, "trialdata": {"rt": -1, "stimulus": "<p id=\"stim\">LUNCH</p>", "key_press": -1, "type": "PRES_VIS", "word": "lunch", "wordID": 848, "conditions": [24, 1600, "v", 12000], "trial": 3, "serialpos": 22, "trial_type": "single-stim", "trial_index": 139, "time_elapsed": 549397, "internal_node_id": "0.0-103.0"}}, {"uniqueid": "MTK0019:3YDGXNSEO013XH8GN3ZL1DG0Y4W48D", "current_trial": 140, "dateTime": 1509047610276, "trialdata": {"rt": -1, "stimulus": "<p id=\"stim\">SKILLET</p>", "key_press": -1, "type": "PRES_VIS", "word": "skillet", "wordID": 1316, "conditions": [24, 1600, "v", 12000], "trial": 3, "serialpos": 23, "trial_type": "single-stim", "trial_index": 140, "time_elapsed": 552139, "internal_node_id": "0.0-104.0"}}, {"uniqueid": "MTK0019:3YDGXNSEO013XH8GN3ZL1DG0Y4W48D", "current_trial": 141, "dateTime": 1509047612452, "trialdata": {"rt": -1, "stimulus": "", "key_press": -1, "type": "PRE_RECALL_DELAY", "trial_type": "single-stim", "trial_index": 141, "time_elapsed": 554315, "internal_node_id": "0.0-105.0-0.0"}}, {"uniqueid": "MTK0019:3YDGXNSEO013XH8GN3ZL1DG0Y4W48D", "current_trial": 142, "dateTime": 1509047612961, "trialdata": {"rt": -1000, "stimulus": "/static/audio/400Hz.wav", "key_press": -1, "type": "PRE_RECALL_ALERT", "trial_type": "single-audio", "trial_index": 142, "time_elapsed": 554824, "internal_node_id": "0.0-106.0"}}, {"uniqueid": "MTK0019:3YDGXNSEO013XH8GN3ZL1DG0Y4W48D", "current_trial": 143, "dateTime": 1509047672978, "trialdata": {"rt": [43369, 44455, 44540, 45028, 45337, 45633, 46105, 46407, 46723, 47254, 47561, 47848, 48148, 48429, 48706, 48991, 49258, 49559, 49833, 50117, 50397, 50677, 50933, 51191, 51486, 51773, 52040, 52290, 52528, 52827, 53108, 53393, 54208, 54508, 54763, 55030, 55290, 55564, 55801, 56480, 56766, 57050, 57323, 57585, 57871, 58387, 58656, 58918, 59146, 59620, 59904], "recwords": ["a", "a", "b", "b", "b", "b", "c", "c", "c", "a", "a", "a", "a", "a", "a", "a", "a", "aa", "a", "", "a", "aa", "", "a", "a", "aa", "a", "a", "", "a", "a", "a", "a", "b", "b", "b", "b", "bb", "b", "c", "c", "c", "c", "c", "cc", "b", "b", "b", "b", "a", "a"], "type": "FREE_RECALL", "conditions": [24, 1600, "v", 12000], "trial": 3, "trial_type": "free-recall", "trial_index": 143, "time_elapsed": 614840, "internal_node_id": "0.0-107.0-0.0"}}, {"uniqueid": "MTK0019:3YDGXNSEO013XH8GN3ZL1DG0Y4W48D", "current_trial": 144, "dateTime": 1509047676502, "trialdata": {"rt": 1521, "key_press": 32, "type": "INSTRUCTIONS", "trial_type": "text", "trial_index": 144, "time_elapsed": 618365, "internal_node_id": "0.0-108.0"}}, {"uniqueid": "MTK0019:3YDGXNSEO013XH8GN3ZL1DG0Y4W48D", "current_trial": 145, "dateTime": 1509047690538, "trialdata": {"rt": [], "responses": [], "num1": [5], "num2": [7], "num3": [5], "type": "DISTRACTOR", "conditions": [12, 800, "v", 12000], "trial": 4, "trial_type": "math-distractor", "trial_index": 145, "time_elapsed": 632401, "internal_node_id": "0.0-109.0"}}, {"uniqueid": "MTK0019:3YDGXNSEO013XH8GN3ZL1DG0Y4W48D", "current_trial": 146, "dateTime": 1509047693697, "trialdata": {"rt": -1, "stimulus": "<p id=\"stim\">10</p>", "key_press": -1, "trial_type": "single-stim", "trial_index": 146, "time_elapsed": 635560, "internal_node_id": "0.0-110.0-0.0"}}, {"uniqueid": "MTK0019:3YDGXNSEO013XH8GN3ZL1DG0Y4W48D", "current_trial": 147, "dateTime": 1509047694708, "trialdata": {"rt": -1, "stimulus": "<p id=\"stim\">9</p>", "key_press": -1, "trial_type": "single-stim", "trial_index": 147, "time_elapsed": 636570, "internal_node_id": "0.0-110.0-1.0"}}, {"uniqueid": "MTK0019:3YDGXNSEO013XH8GN3ZL1DG0Y4W48D", "current_trial": 148, "dateTime": 1509047695721, "trialdata": {"rt": -1, "stimulus": "<p id=\"stim\">8</p>", "key_press": -1, "trial_type": "single-stim", "trial_index": 148, "time_elapsed": 637584, "internal_node_id": "0.0-110.0-2.0"}}, {"uniqueid": "MTK0019:3YDGXNSEO013XH8GN3ZL1DG0Y4W48D", "current_trial": 149, "dateTime": 1509047696732, "trialdata": {"rt": -1, "stimulus": "<p id=\"stim\">7</p>", "key_press": -1, "trial_type": "single-stim", "trial_index": 149, "time_elapsed": 638595, "internal_node_id": "0.0-110.0-3.0"}}, {"uniqueid": "MTK0019:3YDGXNSEO013XH8GN3ZL1DG0Y4W48D", "current_trial": 150, "dateTime": 1509047697737, "trialdata": {"rt": -1, "stimulus": "<p id=\"stim\">6</p>", "key_press": -1, "trial_type": "single-stim", "trial_index": 150, "time_elapsed": 639599, "internal_node_id": "0.0-110.0-4.0"}}, {"uniqueid": "MTK0019:3YDGXNSEO013XH8GN3ZL1DG0Y4W48D", "current_trial": 151, "dateTime": 1509047698745, "trialdata": {"rt": -1, "stimulus": "<p id=\"stim\">5</p>", "key_press": -1, "trial_type": "single-stim", "trial_index": 151, "time_elapsed": 640607, "internal_node_id": "0.0-110.0-5.0"}}, {"uniqueid": "MTK0019:3YDGXNSEO013XH8GN3ZL1DG0Y4W48D", "current_trial": 152, "dateTime": 1509047699751, "trialdata": {"rt": -1, "stimulus": "<p id=\"stim\">4</p>", "key_press": -1, "trial_type": "single-stim", "trial_index": 152, "time_elapsed": 641613, "internal_node_id": "0.0-110.0-6.0"}}, {"uniqueid": "MTK0019:3YDGXNSEO013XH8GN3ZL1DG0Y4W48D", "current_trial": 153, "dateTime": 1509047700755, "trialdata": {"rt": -1, "stimulus": "<p id=\"stim\">3</p>", "key_press": -1, "trial_type": "single-stim", "trial_index": 153, "time_elapsed": 642617, "internal_node_id": "0.0-110.0-7.0"}}, {"uniqueid": "MTK0019:3YDGXNSEO013XH8GN3ZL1DG0Y4W48D", "current_trial": 154, "dateTime": 1509047701757, "trialdata": {"rt": -1, "stimulus": "<p id=\"stim\">2</p>", "key_press": -1, "trial_type": "single-stim", "trial_index": 154, "time_elapsed": 643620, "internal_node_id": "0.0-110.0-8.0"}}, {"uniqueid": "MTK0019:3YDGXNSEO013XH8GN3ZL1DG0Y4W48D", "current_trial": 155, "dateTime": 1509047702761, "trialdata": {"rt": -1, "stimulus": "<p id=\"stim\">1</p>", "key_press": -1, "trial_type": "single-stim", "trial_index": 155, "time_elapsed": 644624, "internal_node_id": "0.0-110.0-9.0"}}, {"uniqueid": "MTK0019:3YDGXNSEO013XH8GN3ZL1DG0Y4W48D", "current_trial": 156, "dateTime": 1509047704305, "trialdata": {"rt": -1, "stimulus": "<p id=\"stim\">+</p>", "key_press": -1, "type": "FIXATION", "trial_type": "single-stim", "trial_index": 156, "time_elapsed": 646167, "internal_node_id": "0.0-111.0-0.0"}}, {"uniqueid": "MTK0019:3YDGXNSEO013XH8GN3ZL1DG0Y4W48D", "current_trial": 157, "dateTime": 1509047705120, "trialdata": {"rt": -1, "stimulus": "<p id=\"stim\">FLEET</p>", "key_press": -1, "type": "PRES_VIS", "word": "fleet", "wordID": 577, "conditions": [12, 800, "v", 12000], "trial": 4, "serialpos": 0, "trial_type": "single-stim", "trial_index": 157, "time_elapsed": 646982, "internal_node_id": "0.0-112.0"}}, {"uniqueid": "MTK0019:3YDGXNSEO013XH8GN3ZL1DG0Y4W48D", "current_trial": 158, "dateTime": 1509047707143, "trialdata": {"rt": -1, "stimulus": "<p id=\"stim\">VALVE</p>", "key_press": -1, "type": "PRES_VIS", "word": "valve", "wordID": 1545, "conditions": [12, 800, "v", 12000], "trial": 4, "serialpos": 1, "trial_type": "single-stim", "trial_index": 158, "time_elapsed": 649006, "internal_node_id": "0.0-113.0"}}, {"uniqueid": "MTK0019:3YDGXNSEO013XH8GN3ZL1DG0Y4W48D", "current_trial": 159, "dateTime": 1509047708782, "trialdata": {"rt": -1, "stimulus": "<p id=\"stim\">JAPAN</p>", "key_press": -1, "type": "PRES_VIS", "word": "japan", "wordID": 748, "conditions": [12, 800, "v", 12000], "trial": 4, "serialpos": 2, "trial_type": "single-stim", "trial_index": 159, "time_elapsed": 650644, "internal_node_id": "0.0-114.0"}}, {"uniqueid": "MTK0019:3YDGXNSEO013XH8GN3ZL1DG0Y4W48D", "current_trial": 160, "dateTime": 1509047710772, "trialdata": {"rt": -1, "stimulus": "<p id=\"stim\">ZIPPER</p>", "key_press": -1, "type": "PRES_VIS", "word": "zipper", "wordID": 1635, "conditions": [12, 800, "v", 12000], "trial": 4, "serialpos": 3, "trial_type": "single-stim", "trial_index": 160, "time_elapsed": 652635, "internal_node_id": "0.0-115.0"}}, {"uniqueid": "MTK0019:3YDGXNSEO013XH8GN3ZL1DG0Y4W48D", "current_trial": 161, "dateTime": 1509047712416, "trialdata": {"rt": -1, "stimulus": "<p id=\"stim\">PISTON</p>", "key_press": -1, "type": "PRES_VIS", "word": "piston", "wordID": 1075, "conditions": [12, 800, "v", 12000], "trial": 4, "serialpos": 4, "trial_type": "single-stim", "trial_index": 161, "time_elapsed": 654279, "internal_node_id": "0.0-116.0"}}, {"uniqueid": "MTK0019:3YDGXNSEO013XH8GN3ZL1DG0Y4W48D", "current_trial": 162, "dateTime": 1509047714416, "trialdata": {"rt": -1, "stimulus": "<p id=\"stim\">PIMPLE</p>", "key_press": -1, "type": "PRES_VIS", "word": "pimple", "wordID": 1070, "conditions": [12, 800, "v", 12000], "trial": 4, "serialpos": 5, "trial_type": "single-stim", "trial_index": 162, "time_elapsed": 656278, "internal_node_id": "0.0-117.0"}}, {"uniqueid": "MTK0019:3YDGXNSEO013XH8GN3ZL1DG0Y4W48D", "current_trial": 163, "dateTime": 1509047716348, "trialdata": {"rt": -1, "stimulus": "<p id=\"stim\">TRUCK</p>", "key_press": -1, "type": "PRES_VIS", "word": "truck", "wordID": 1511, "conditions": [12, 800, "v", 12000], "trial": 4, "serialpos": 6, "trial_type": "single-stim", "trial_index": 163, "time_elapsed": 658211, "internal_node_id": "0.0-118.0"}}, {"uniqueid": "MTK0019:3YDGXNSEO013XH8GN3ZL1DG0Y4W48D", "current_trial": 164, "dateTime": 1509047718245, "trialdata": {"rt": -1, "stimulus": "<p id=\"stim\">TRACTOR</p>", "key_press": -1, "type": "PRES_VIS", "word": "tractor", "wordID": 1492, "conditions": [12, 800, "v", 12000], "trial": 4, "serialpos": 7, "trial_type": "single-stim", "trial_index": 164, "time_elapsed": 660107, "internal_node_id": "0.0-119.0"}}, {"uniqueid": "MTK0019:3YDGXNSEO013XH8GN3ZL1DG0Y4W48D", "current_trial": 165, "dateTime": 1509047719965, "trialdata": {"rt": -1, "stimulus": "<p id=\"stim\">PARROT</p>", "key_press": -1, "type": "PRES_VIS", "word": "parrot", "wordID": 1014, "conditions": [12, 800, "v", 12000], "trial": 4, "serialpos": 8, "trial_type": "single-stim", "trial_index": 165, "time_elapsed": 661828, "internal_node_id": "0.0-120.0"}}, {"uniqueid": "MTK0019:3YDGXNSEO013XH8GN3ZL1DG0Y4W48D", "current_trial": 166, "dateTime": 1509047721756, "trialdata": {"rt": -1, "stimulus": "<p id=\"stim\">SKETCH</p>", "key_press": -1, "type": "PRES_VIS", "word": "sketch", "wordID": 1314, "conditions": [12, 800, "v", 12000], "trial": 4, "serialpos": 9, "trial_type": "single-stim", "trial_index": 166, "time_elapsed": 663618, "internal_node_id": "0.0-121.0"}}, {"uniqueid": "MTK0019:3YDGXNSEO013XH8GN3ZL1DG0Y4W48D", "current_trial": 167, "dateTime": 1509047723562, "trialdata": {"rt": -1, "stimulus": "<p id=\"stim\">SUNRISE</p>", "key_press": -1, "type": "PRES_VIS", "word": "sunrise", "wordID": 1406, "conditions": [12, 800, "v", 12000], "trial": 4, "serialpos": 10, "trial_type": "single-stim", "trial_index": 167, "time_elapsed": 665425, "internal_node_id": "0.0-122.0"}}, {"uniqueid": "MTK0019:3YDGXNSEO013XH8GN3ZL1DG0Y4W48D", "current_trial": 168, "dateTime": 1509047725343, "trialdata": {"rt": -1, "stimulus": "<p id=\"stim\">TAXI</p>", "key_press": -1, "type": "PRES_VIS", "word": "taxi", "wordID": 1437, "conditions": [12, 800, "v", 12000], "trial": 4, "serialpos": 11, "trial_type": "single-stim", "trial_index": 168, "time_elapsed": 667206, "internal_node_id": "0.0-123.0"}}, {"uniqueid": "MTK0019:3YDGXNSEO013XH8GN3ZL1DG0Y4W48D", "current_trial": 169, "dateTime": 1509047727794, "trialdata": {"rt": -1, "stimulus": "", "key_press": -1, "type": "PRE_RECALL_DELAY", "trial_type": "single-stim", "trial_index": 169, "time_elapsed": 669657, "internal_node_id": "0.0-124.0-0.0"}}, {"uniqueid": "MTK0019:3YDGXNSEO013XH8GN3ZL1DG0Y4W48D", "current_trial": 170, "dateTime": 1509047728304, "trialdata": {"rt": -1000, "stimulus": "/static/audio/400Hz.wav", "key_press": -1, "type": "PRE_RECALL_ALERT", "trial_type": "single-audio", "trial_index": 170, "time_elapsed": 670166, "internal_node_id": "0.0-125.0"}}, {"uniqueid": "MTK0019:3YDGXNSEO013XH8GN3ZL1DG0Y4W48D", "current_trial": 171, "dateTime": 1509047788318, "trialdata": {"rt": [21796, 22081, 22339, 22608, 23251, 23595, 23874, 24133, 24375, 24617, 24983, 25277, 25564, 25801, 26072, 26371, 26644, 26899, 27149, 27753, 28074, 28388, 28817, 29122, 29390, 29649, 29981, 30253, 30556, 30847, 31116, 31378, 31639, 31898, 32141, 32390, 32636, 32912, 33177, 33437, 33678, 33918, 34517, 34789, 35057, 35319, 35590, 36080, 36371, 36643, 36928, 37214, 37489, 37791, 38110, 38482, 38968, 39238, 39517, 39827, 40150, 40428, 40723, 41360, 41657, 41939, 42296, 42610, 42894, 43313, 43610, 43931, 45607, 46039, 46383, 47341, 47802, 48117, 48680, 49197, 49852, 50390, 50766, 51229, 51753, 52232, 53939, 54530, 55643, 56237, 56859, 57620, 58218, 58708, 59561], "recwords": ["a", "a", "a", "a", "ab", "b", "b", "b", "b", "b", "c", "c", "c", "c", "c", "a", "a", "a", "a", "b", "b", "b", "c", "c", "c", "c", "a", "a", "a", "a", "a", "a", "a", "a", "a", "a", "a", "aa", "a", "a", "a", "a", "b", "b", "b", "b", "b", "bc", "c", "c", "c", "c", "c", "c", "cc", "", "a", "a", "a", "a", "aa", "a", "a", "b", "b", "b", "c", "c", "c", "a", "a", "a", "a", "b", "b", "b", "c", "c", "a", "a", "b", "c", "a", "b", "c", "a", "b", "a", "b", "a", "b", "a", "c", "a", "a"], "type": "FREE_RECALL", "conditions": [12, 800, "v", 12000], "trial": 4, "trial_type": "free-recall", "trial_index": 171, "time_elapsed": 730181, "internal_node_id": "0.0-126.0-0.0"}}, {"uniqueid": "MTK0019:3YDGXNSEO013XH8GN3ZL1DG0Y4W48D", "current_trial": 172, "dateTime": 1509047791880, "trialdata": {"rt": 1556, "key_press": 32, "type": "INSTRUCTIONS", "trial_type": "text", "trial_index": 172, "time_elapsed": 733742, "internal_node_id": "0.0-127.0"}}, {"uniqueid": "MTK0019:3YDGXNSEO013XH8GN3ZL1DG0Y4W48D", "current_trial": 173, "dateTime": 1509047805897, "trialdata": {"rt": [], "responses": [], "num1": [4], "num2": [9], "num3": [4], "type": "DISTRACTOR", "conditions": [12, 1600, "a", 12000], "trial": 5, "trial_type": "math-distractor", "trial_index": 173, "time_elapsed": 747760, "internal_node_id": "0.0-128.0"}}, {"uniqueid": "MTK0019:3YDGXNSEO013XH8GN3ZL1DG0Y4W48D", "current_trial": 174, "dateTime": 1509047808902, "trialdata": {"rt": -1, "stimulus": "<p id=\"stim\">10</p>", "key_press": -1, "trial_type": "single-stim", "trial_index": 174, "time_elapsed": 750765, "internal_node_id": "0.0-129.0-0.0"}}, {"uniqueid": "MTK0019:3YDGXNSEO013XH8GN3ZL1DG0Y4W48D", "current_trial": 175, "dateTime": 1509047809958, "trialdata": {"rt": -1, "stimulus": "<p id=\"stim\">9</p>", "key_press": -1, "trial_type": "single-stim", "trial_index": 175, "time_elapsed": 751820, "internal_node_id": "0.0-129.0-1.0"}}, {"uniqueid": "MTK0019:3YDGXNSEO013XH8GN3ZL1DG0Y4W48D", "current_trial": 176, "dateTime": 1509047811039, "trialdata": {"rt": -1, "stimulus": "<p id=\"stim\">8</p>", "key_press": -1, "trial_type": "single-stim", "trial_index": 176, "time_elapsed": 752894, "internal_node_id": "0.0-129.0-2.0"}}, {"uniqueid": "MTK0019:3YDGXNSEO013XH8GN3ZL1DG0Y4W48D", "current_trial": 177, "dateTime": 1509047812091, "trialdata": {"rt": -1, "stimulus": "<p id=\"stim\">7</p>", "key_press": -1, "trial_type": "single-stim", "trial_index": 177, "time_elapsed": 753954, "internal_node_id": "0.0-129.0-3.0"}}, {"uniqueid": "MTK0019:3YDGXNSEO013XH8GN3ZL1DG0Y4W48D", "current_trial": 178, "dateTime": 1509047813135, "trialdata": {"rt": -1, "stimulus": "<p id=\"stim\">6</p>", "key_press": -1, "trial_type": "single-stim", "trial_index": 178, "time_elapsed": 754998, "internal_node_id": "0.0-129.0-4.0"}}, {"uniqueid": "MTK0019:3YDGXNSEO013XH8GN3ZL1DG0Y4W48D", "current_trial": 179, "dateTime": 1509047814138, "trialdata": {"rt": -1, "stimulus": "<p id=\"stim\">5</p>", "key_press": -1, "trial_type": "single-stim", "trial_index": 179, "time_elapsed": 756001, "internal_node_id": "0.0-129.0-5.0"}}, {"uniqueid": "MTK0019:3YDGXNSEO013XH8GN3ZL1DG0Y4W48D", "current_trial": 180, "dateTime": 1509047815148, "trialdata": {"rt": -1, "stimulus": "<p id=\"stim\">4</p>", "key_press": -1, "trial_type": "single-stim", "trial_index": 180, "time_elapsed": 757011, "internal_node_id": "0.0-129.0-6.0"}}, {"uniqueid": "MTK0019:3YDGXNSEO013XH8GN3ZL1DG0Y4W48D", "current_trial": 181, "dateTime": 1509047816171, "trialdata": {"rt": -1, "stimulus": "<p id=\"stim\">3</p>", "key_press": -1, "trial_type": "single-stim", "trial_index": 181, "time_elapsed": 758033, "internal_node_id": "0.0-129.0-7.0"}}, {"uniqueid": "MTK0019:3YDGXNSEO013XH8GN3ZL1DG0Y4W48D", "current_trial": 182, "dateTime": 1509047817180, "trialdata": {"rt": -1, "stimulus": "<p id=\"stim\">2</p>", "key_press": -1, "trial_type": "single-stim", "trial_index": 182, "time_elapsed": 759042, "internal_node_id": "0.0-129.0-8.0"}}, {"uniqueid": "MTK0019:3YDGXNSEO013XH8GN3ZL1DG0Y4W48D", "current_trial": 183, "dateTime": 1509047818186, "trialdata": {"rt": -1, "stimulus": "<p id=\"stim\">1</p>", "key_press": -1, "trial_type": "single-stim", "trial_index": 183, "time_elapsed": 760049, "internal_node_id": "0.0-129.0-9.0"}}, {"uniqueid": "MTK0019:3YDGXNSEO013XH8GN3ZL1DG0Y4W48D", "current_trial": 184, "dateTime": 1509047819688, "trialdata": {"rt": -1, "stimulus": "<p id=\"stim\">+</p>", "key_press": -1, "type": "FIXATION", "trial_type": "single-stim", "trial_index": 184, "time_elapsed": 761551, "internal_node_id": "0.0-130.0-0.0"}}, {"uniqueid": "MTK0019:3YDGXNSEO013XH8GN3ZL1DG0Y4W48D", "current_trial": 185, "dateTime": 1509047822262, "trialdata": {"rt": -1000, "stimulus": "/static/audio/wordpool/LODGE.wav", "key_press": -1, "type": "PRES_AUD", "word": "lodge", "wordID": 838, "conditions": [12, 1600, "a", 12000], "trial": 5, "serialpos": 0, "trial_type": "single-audio", "trial_index": 185, "time_elapsed": 764125, "internal_node_id": "0.0-131.0"}}, {"uniqueid": "MTK0019:3YDGXNSEO013XH8GN3ZL1DG0Y4W48D", "current_trial": 186, "dateTime": 1509047824772, "trialdata": {"rt": -1000, "stimulus": "/static/audio/wordpool/BLADE.wav", "key_press": -1, "type": "PRES_AUD", "word": "blade", "wordID": 133, "conditions": [12, 1600, "a", 12000], "trial": 5, "serialpos": 1, "trial_type": "single-audio", "trial_index": 186, "time_elapsed": 766634, "internal_node_id": "0.0-132.0"}}, {"uniqueid": "MTK0019:3YDGXNSEO013XH8GN3ZL1DG0Y4W48D", "current_trial": 187, "dateTime": 1509047827358, "trialdata": {"rt": -1000, "stimulus": "/static/audio/wordpool/RAZOR.wav", "key_press": -1, "type": "PRES_AUD", "word": "razor", "wordID": 1170, "conditions": [12, 1600, "a", 12000], "trial": 5, "serialpos": 2, "trial_type": "single-audio", "trial_index": 187, "time_elapsed": 769221, "internal_node_id": "0.0-133.0"}}, {"uniqueid": "MTK0019:3YDGXNSEO013XH8GN3ZL1DG0Y4W48D", "current_trial": 188, "dateTime": 1509047829797, "trialdata": {"rt": -1000, "stimulus": "/static/audio/wordpool/JUNGLE.wav", "key_press": -1, "type": "PRES_AUD", "word": "jungle", "wordID": 763, "conditions": [12, 1600, "a", 12000], "trial": 5, "serialpos": 3, "trial_type": "single-audio", "trial_index": 188, "time_elapsed": 771660, "internal_node_id": "0.0-134.0"}}, {"uniqueid": "MTK0019:3YDGXNSEO013XH8GN3ZL1DG0Y4W48D", "current_trial": 189, "dateTime": 1509047832573, "trialdata": {"rt": -1000, "stimulus": "/static/audio/wordpool/RECEIPT.wav", "key_press": -1, "type": "PRES_AUD", "word": "receipt", "wordID": 1172, "conditions": [12, 1600, "a", 12000], "trial": 5, "serialpos": 4, "trial_type": "single-audio", "trial_index": 189, "time_elapsed": 774436, "internal_node_id": "0.0-135.0"}}, {"uniqueid": "MTK0019:3YDGXNSEO013XH8GN3ZL1DG0Y4W48D", "current_trial": 190, "dateTime": 1509047835130, "trialdata": {"rt": -1000, "stimulus": "/static/audio/wordpool/BANJO.wav", "key_press": -1, "type": "PRES_AUD", "word": "banjo", "wordID": 81, "conditions": [12, 1600, "a", 12000], "trial": 5, "serialpos": 5, "trial_type": "single-audio", "trial_index": 190, "time_elapsed": 776992, "internal_node_id": "0.0-136.0"}}, {"uniqueid": "MTK0019:3YDGXNSEO013XH8GN3ZL1DG0Y4W48D", "current_trial": 191, "dateTime": 1509047837731, "trialdata": {"rt": -1000, "stimulus": "/static/audio/wordpool/SWAMP.wav", "key_press": -1, "type": "PRES_AUD", "word": "swamp", "wordID": 1415, "conditions": [12, 1600, "a", 12000], "trial": 5, "serialpos": 6, "trial_type": "single-audio", "trial_index": 191, "time_elapsed": 779594, "internal_node_id": "0.0-137.0"}}, {"uniqueid": "MTK0019:3YDGXNSEO013XH8GN3ZL1DG0Y4W48D", "current_trial": 192, "dateTime": 1509047840463, "trialdata": {"rt": -1000, "stimulus": "/static/audio/wordpool/SCULPTURE.wav", "key_press": -1, "type": "PRES_AUD", "word": "sculpture", "wordID": 1257, "conditions": [12, 1600, "a", 12000], "trial": 5, "serialpos": 7, "trial_type": "single-audio", "trial_index": 192, "time_elapsed": 782324, "internal_node_id": "0.0-138.0"}}, {"uniqueid": "MTK0019:3YDGXNSEO013XH8GN3ZL1DG0Y4W48D", "current_trial": 193, "dateTime": 1509047843262, "trialdata": {"rt": -1000, "stimulus": "/static/audio/wordpool/BUREAU.wav", "key_press": -1, "type": "PRES_AUD", "word": "bureau", "wordID": 198, "conditions": [12, 1600, "a", 12000], "trial": 5, "serialpos": 8, "trial_type": "single-audio", "trial_index": 193, "time_elapsed": 785122, "internal_node_id": "0.0-139.0"}}, {"uniqueid": "MTK0019:3YDGXNSEO013XH8GN3ZL1DG0Y4W48D", "current_trial": 194, "dateTime": 1509047845793, "trialdata": {"rt": -1000, "stimulus": "/static/audio/wordpool/OFFICE.wav", "key_press": -1, "type": "PRES_AUD", "word": "office", "wordID": 971, "conditions": [12, 1600, "a", 12000], "trial": 5, "serialpos": 9, "trial_type": "single-audio", "trial_index": 194, "time_elapsed": 787656, "internal_node_id": "0.0-140.0"}}, {"uniqueid": "MTK0019:3YDGXNSEO013XH8GN3ZL1DG0Y4W48D", "current_trial": 195, "dateTime": 1509047848401, "trialdata": {"rt": -1000, "stimulus": "/static/audio/wordpool/CAPTIVE.wav", "key_press": -1, "type": "PRES_AUD", "word": "captive", "wordID": 239, "conditions": [12, 1600, "a", 12000], "trial": 5, "serialpos": 10, "trial_type": "single-audio", "trial_index": 195, "time_elapsed": 790264, "internal_node_id": "0.0-141.0"}}, {"uniqueid": "MTK0019:3YDGXNSEO013XH8GN3ZL1DG0Y4W48D", "current_trial": 196, "dateTime": 1509047850887, "trialdata": {"rt": -1000, "stimulus": "/static/audio/wordpool/PIANO.wav", "key_press": -1, "type": "PRES_AUD", "word": "piano", "wordID": 1056, "conditions": [12, 1600, "a", 12000], "trial": 5, "serialpos": 11, "trial_type": "single-audio", "trial_index": 196, "time_elapsed": 792750, "internal_node_id": "0.0-142.0"}}, {"uniqueid": "MTK0019:3YDGXNSEO013XH8GN3ZL1DG0Y4W48D", "current_trial": 197, "dateTime": 1509047852300, "trialdata": {"rt": -1, "stimulus": "", "key_press": -1, "type": "PRE_RECALL_DELAY", "trial_type": "single-stim", "trial_index": 197, "time_elapsed": 794162, "internal_node_id": "0.0-143.0-0.0"}}, {"uniqueid": "MTK0019:3YDGXNSEO013XH8GN3ZL1DG0Y4W48D", "current_trial": 198, "dateTime": 1509047852827, "trialdata": {"rt": -1000, "stimulus": "/static/audio/400Hz.wav", "key_press": -1, "type": "PRE_RECALL_ALERT", "trial_type": "single-audio", "trial_index": 198, "time_elapsed": 794690, "internal_node_id": "0.0-144.0"}}, {"uniqueid": "MTK0019:3YDGXNSEO013XH8GN3ZL1DG0Y4W48D", "current_trial": 199, "dateTime": 1509047912833, "trialdata": {"rt": [], "recwords": [], "type": "FREE_RECALL", "conditions": [12, 1600, "a", 12000], "trial": 5, "trial_type": "free-recall", "trial_index": 199, "time_elapsed": 854696, "internal_node_id": "0.0-145.0-0.0"}}, {"uniqueid": "MTK0019:3YDGXNSEO013XH8GN3ZL1DG0Y4W48D", "current_trial": 200, "dateTime": 1509047940563, "trialdata": {"rt": 25720, "key_press": 32, "type": "INSTRUCTIONS", "trial_type": "text", "trial_index": 200, "time_elapsed": 882426, "internal_node_id": "0.0-146.0"}}, {"uniqueid": "MTK0019:3YDGXNSEO013XH8GN3ZL1DG0Y4W48D", "current_trial": 201, "dateTime": 1509047954587, "trialdata": {"rt": [], "responses": [], "num1": [3], "num2": [3], "num3": [2], "type": "DISTRACTOR", "conditions": [12, 1600, "v", 12000], "trial": 6, "trial_type": "math-distractor", "trial_index": 201, "time_elapsed": 896449, "internal_node_id": "0.0-147.0"}}, {"uniqueid": "MTK0019:3YDGXNSEO013XH8GN3ZL1DG0Y4W48D", "current_trial": 202, "dateTime": 1509047957595, "trialdata": {"rt": -1, "stimulus": "<p id=\"stim\">10</p>", "key_press": -1, "trial_type": "single-stim", "trial_index": 202, "time_elapsed": 899457, "internal_node_id": "0.0-148.0-0.0"}}, {"uniqueid": "MTK0019:3YDGXNSEO013XH8GN3ZL1DG0Y4W48D", "current_trial": 203, "dateTime": 1509047958598, "trialdata": {"rt": -1, "stimulus": "<p id=\"stim\">9</p>", "key_press": -1, "trial_type": "single-stim", "trial_index": 203, "time_elapsed": 900461, "internal_node_id": "0.0-148.0-1.0"}}, {"uniqueid": "MTK0019:3YDGXNSEO013XH8GN3ZL1DG0Y4W48D", "current_trial": 204, "dateTime": 1509047959604, "trialdata": {"rt": -1, "stimulus": "<p id=\"stim\">8</p>", "key_press": -1, "trial_type": "single-stim", "trial_index": 204, "time_elapsed": 901466, "internal_node_id": "0.0-148.0-2.0"}}, {"uniqueid": "MTK0019:3YDGXNSEO013XH8GN3ZL1DG0Y4W48D", "current_trial": 205, "dateTime": 1509047960615, "trialdata": {"rt": -1, "stimulus": "<p id=\"stim\">7</p>", "key_press": -1, "trial_type": "single-stim", "trial_index": 205, "time_elapsed": 902477, "internal_node_id": "0.0-148.0-3.0"}}, {"uniqueid": "MTK0019:3YDGXNSEO013XH8GN3ZL1DG0Y4W48D", "current_trial": 206, "dateTime": 1509047961621, "trialdata": {"rt": -1, "stimulus": "<p id=\"stim\">6</p>", "key_press": -1, "trial_type": "single-stim", "trial_index": 206, "time_elapsed": 903484, "internal_node_id": "0.0-148.0-4.0"}}, {"uniqueid": "MTK0019:3YDGXNSEO013XH8GN3ZL1DG0Y4W48D", "current_trial": 207, "dateTime": 1509047962628, "trialdata": {"rt": -1, "stimulus": "<p id=\"stim\">5</p>", "key_press": -1, "trial_type": "single-stim", "trial_index": 207, "time_elapsed": 904489, "internal_node_id": "0.0-148.0-5.0"}}, {"uniqueid": "MTK0019:3YDGXNSEO013XH8GN3ZL1DG0Y4W48D", "current_trial": 208, "dateTime": 1509047963632, "trialdata": {"rt": -1, "stimulus": "<p id=\"stim\">4</p>", "key_press": -1, "trial_type": "single-stim", "trial_index": 208, "time_elapsed": 905495, "internal_node_id": "0.0-148.0-6.0"}}, {"uniqueid": "MTK0019:3YDGXNSEO013XH8GN3ZL1DG0Y4W48D", "current_trial": 209, "dateTime": 1509047964636, "trialdata": {"rt": -1, "stimulus": "<p id=\"stim\">3</p>", "key_press": -1, "trial_type": "single-stim", "trial_index": 209, "time_elapsed": 906498, "internal_node_id": "0.0-148.0-7.0"}}, {"uniqueid": "MTK0019:3YDGXNSEO013XH8GN3ZL1DG0Y4W48D", "current_trial": 210, "dateTime": 1509047965639, "trialdata": {"rt": -1, "stimulus": "<p id=\"stim\">2</p>", "key_press": -1, "trial_type": "single-stim", "trial_index": 210, "time_elapsed": 907500, "internal_node_id": "0.0-148.0-8.0"}}, {"uniqueid": "MTK0019:3YDGXNSEO013XH8GN3ZL1DG0Y4W48D", "current_trial": 211, "dateTime": 1509047966642, "trialdata": {"rt": -1, "stimulus": "<p id=\"stim\">1</p>", "key_press": -1, "trial_type": "single-stim", "trial_index": 211, "time_elapsed": 908505, "internal_node_id": "0.0-148.0-9.0"}}, {"uniqueid": "MTK0019:3YDGXNSEO013XH8GN3ZL1DG0Y4W48D", "current_trial": 212, "dateTime": 1509047968168, "trialdata": {"rt": -1, "stimulus": "<p id=\"stim\">+</p>", "key_press": -1, "type": "FIXATION", "trial_type": "single-stim", "trial_index": 212, "time_elapsed": 910024, "internal_node_id": "0.0-149.0-0.0"}}, {"uniqueid": "MTK0019:3YDGXNSEO013XH8GN3ZL1DG0Y4W48D", "current_trial": 213, "dateTime": 1509047969771, "trialdata": {"rt": -1, "stimulus": "<p id=\"stim\">HATCHET</p>", "key_press": -1, "type": "PRES_VIS", "word": "hatchet", "wordID": 690, "conditions": [12, 1600, "v", 12000], "trial": 6, "serialpos": 0, "trial_type": "single-stim", "trial_index": 213, "time_elapsed": 911633, "internal_node_id": "0.0-150.0"}}, {"uniqueid": "MTK0019:3YDGXNSEO013XH8GN3ZL1DG0Y4W48D", "current_trial": 214, "dateTime": 1509047972405, "trialdata": {"rt": -1, "stimulus": "<p id=\"stim\">GRAPE</p>", "key_press": -1, "type": "PRES_VIS", "word": "grape", "wordID": 653, "conditions": [12, 1600, "v", 12000], "trial": 6, "serialpos": 1, "trial_type": "single-stim", "trial_index": 214, "time_elapsed": 914268, "internal_node_id": "0.0-151.0"}}, {"uniqueid": "MTK0019:3YDGXNSEO013XH8GN3ZL1DG0Y4W48D", "current_trial": 215, "dateTime": 1509047975192, "trialdata": {"rt": -1, "stimulus": "<p id=\"stim\">NOMAD</p>", "key_press": -1, "type": "PRES_VIS", "word": "nomad", "wordID": 954, "conditions": [12, 1600, "v", 12000], "trial": 6, "serialpos": 2, "trial_type": "single-stim", "trial_index": 215, "time_elapsed": 917054, "internal_node_id": "0.0-152.0"}}, {"uniqueid": "MTK0019:3YDGXNSEO013XH8GN3ZL1DG0Y4W48D", "current_trial": 216, "dateTime": 1509047977950, "trialdata": {"rt": -1, "stimulus": "<p id=\"stim\">HUSBAND</p>", "key_press": -1, "type": "PRES_VIS", "word": "husband", "wordID": 727, "conditions": [12, 1600, "v", 12000], "trial": 6, "serialpos": 3, "trial_type": "single-stim", "trial_index": 216, "time_elapsed": 919813, "internal_node_id": "0.0-153.0"}}, {"uniqueid": "MTK0019:3YDGXNSEO013XH8GN3ZL1DG0Y4W48D", "current_trial": 217, "dateTime": 1509047980620, "trialdata": {"rt": -1, "stimulus": "<p id=\"stim\">WIFE</p>", "key_press": -1, "type": "PRES_VIS", "word": "wife", "wordID": 1608, "conditions": [12, 1600, "v", 12000], "trial": 6, "serialpos": 4, "trial_type": "single-stim", "trial_index": 217, "time_elapsed": 922483, "internal_node_id": "0.0-154.0"}}, {"uniqueid": "MTK0019:3YDGXNSEO013XH8GN3ZL1DG0Y4W48D", "current_trial": 218, "dateTime": 1509047983347, "trialdata": {"rt": -1, "stimulus": "<p id=\"stim\">SISTER</p>", "key_press": -1, "type": "PRES_VIS", "word": "sister", "wordID": 1311, "conditions": [12, 1600, "v", 12000], "trial": 6, "serialpos": 5, "trial_type": "single-stim", "trial_index": 218, "time_elapsed": 925210, "internal_node_id": "0.0-155.0"}}, {"uniqueid": "MTK0019:3YDGXNSEO013XH8GN3ZL1DG0Y4W48D", "current_trial": 219, "dateTime": 1509047986111, "trialdata": {"rt": -1, "stimulus": "<p id=\"stim\">SPOUSE</p>", "key_press": -1, "type": "PRES_VIS", "word": "spouse", "wordID": 1357, "conditions": [12, 1600, "v", 12000], "trial": 6, "serialpos": 6, "trial_type": "single-stim", "trial_index": 219, "time_elapsed": 927973, "internal_node_id": "0.0-156.0"}}, {"uniqueid": "MTK0019:3YDGXNSEO013XH8GN3ZL1DG0Y4W48D", "current_trial": 220, "dateTime": 1509047988912, "trialdata": {"rt": -1, "stimulus": "<p id=\"stim\">VIRUS</p>", "key_press": -1, "type": "PRES_VIS", "word": "virus", "wordID": 1571, "conditions": [12, 1600, "v", 12000], "trial": 6, "serialpos": 7, "trial_type": "single-stim", "trial_index": 220, "time_elapsed": 930775, "internal_node_id": "0.0-157.0"}}, {"uniqueid": "MTK0019:3YDGXNSEO013XH8GN3ZL1DG0Y4W48D", "current_trial": 221, "dateTime": 1509047991737, "trialdata": {"rt": -1, "stimulus": "<p id=\"stim\">BUG</p>", "key_press": -1, "type": "PRES_VIS", "word": "bug", "wordID": 186, "conditions": [12, 1600, "v", 12000], "trial": 6, "serialpos": 8, "trial_type": "single-stim", "trial_index": 221, "time_elapsed": 933598, "internal_node_id": "0.0-158.0"}}, {"uniqueid": "MTK0019:3YDGXNSEO013XH8GN3ZL1DG0Y4W48D", "current_trial": 222, "dateTime": 1509047994467, "trialdata": {"rt": -1, "stimulus": "<p id=\"stim\">FRIEND</p>", "key_press": -1, "type": "PRES_VIS", "word": "friend", "wordID": 605, "conditions": [12, 1600, "v", 12000], "trial": 6, "serialpos": 9, "trial_type": "single-stim", "trial_index": 222, "time_elapsed": 936329, "internal_node_id": "0.0-159.0"}}, {"uniqueid": "MTK0019:3YDGXNSEO013XH8GN3ZL1DG0Y4W48D", "current_trial": 223, "dateTime": 1509047996994, "trialdata": {"rt": -1, "stimulus": "<p id=\"stim\">CRITIC</p>", "key_press": -1, "type": "PRES_VIS", "word": "critic", "wordID": 409, "conditions": [12, 1600, "v", 12000], "trial": 6, "serialpos": 10, "trial_type": "single-stim", "trial_index": 223, "time_elapsed": 938856, "internal_node_id": "0.0-160.0"}}, {"uniqueid": "MTK0019:3YDGXNSEO013XH8GN3ZL1DG0Y4W48D", "current_trial": 224, "dateTime": 1509047999706, "trialdata": {"rt": -1, "stimulus": "<p id=\"stim\">WIDOW</p>", "key_press": -1, "type": "PRES_VIS", "word": "widow", "wordID": 1607, "conditions": [12, 1600, "v", 12000], "trial": 6, "serialpos": 11, "trial_type": "single-stim", "trial_index": 224, "time_elapsed": 941569, "internal_node_id": "0.0-161.0"}}, {"uniqueid": "MTK0019:3YDGXNSEO013XH8GN3ZL1DG0Y4W48D", "current_trial": 225, "dateTime": 1509048002147, "trialdata": {"rt": -1, "stimulus": "", "key_press": -1, "type": "PRE_RECALL_DELAY", "trial_type": "single-stim", "trial_index": 225, "time_elapsed": 944006, "internal_node_id": "0.0-162.0-0.0"}}, {"uniqueid": "MTK0019:3YDGXNSEO013XH8GN3ZL1DG0Y4W48D", "current_trial": 226, "dateTime": 1509048002650, "trialdata": {"rt": -1000, "stimulus": "/static/audio/400Hz.wav", "key_press": -1, "type": "PRE_RECALL_ALERT", "trial_type": "single-audio", "trial_index": 226, "time_elapsed": 944513, "internal_node_id": "0.0-163.0"}}, {"uniqueid": "MTK0019:3YDGXNSEO013XH8GN3ZL1DG0Y4W48D", "current_trial": 227, "dateTime": 1509048062658, "trialdata": {"rt": [], "recwords": [], "type": "FREE_RECALL", "conditions": [12, 1600, "v", 12000], "trial": 6, "trial_type": "free-recall", "trial_index": 227, "time_elapsed": 1004519, "internal_node_id": "0.0-164.0-0.0"}}, {"uniqueid": "MTK0019:3YDGXNSEO013XH8GN3ZL1DG0Y4W48D", "current_trial": 228, "dateTime": 1509048263775, "trialdata": {"rt": 199113, "key_press": 32, "type": "INSTRUCTIONS", "trial_type": "text", "trial_index": 228, "time_elapsed": 1205638, "internal_node_id": "0.0-165.0"}}, {"uniqueid": "MTK0019:3YDGXNSEO013XH8GN3ZL1DG0Y4W48D", "current_trial": 229, "dateTime": 1509048289801, "trialdata": {"rt": [], "responses": [], "num1": [9], "num2": [1], "num3": [6], "type": "DISTRACTOR", "conditions": [12, 1600, "a", 24000], "trial": 7, "trial_type": "math-distractor", "trial_index": 229, "time_elapsed": 1231664, "internal_node_id": "0.0-166.0"}}, {"uniqueid": "MTK0019:3YDGXNSEO013XH8GN3ZL1DG0Y4W48D", "current_trial": 230, "dateTime": 1509048292807, "trialdata": {"rt": -1, "stimulus": "<p id=\"stim\">10</p>", "key_press": -1, "trial_type": "single-stim", "trial_index": 230, "time_elapsed": 1234668, "internal_node_id": "0.0-167.0-0.0"}}, {"uniqueid": "MTK0019:3YDGXNSEO013XH8GN3ZL1DG0Y4W48D", "current_trial": 231, "dateTime": 1509048293844, "trialdata": {"rt": -1, "stimulus": "<p id=\"stim\">9</p>", "key_press": -1, "trial_type": "single-stim", "trial_index": 231, "time_elapsed": 1235706, "internal_node_id": "0.0-167.0-1.0"}}, {"uniqueid": "MTK0019:3YDGXNSEO013XH8GN3ZL1DG0Y4W48D", "current_trial": 232, "dateTime": 1509048294847, "trialdata": {"rt": -1, "stimulus": "<p id=\"stim\">8</p>", "key_press": -1, "trial_type": "single-stim", "trial_index": 232, "time_elapsed": 1236710, "internal_node_id": "0.0-167.0-2.0"}}, {"uniqueid": "MTK0019:3YDGXNSEO013XH8GN3ZL1DG0Y4W48D", "current_trial": 233, "dateTime": 1509048295849, "trialdata": {"rt": -1, "stimulus": "<p id=\"stim\">7</p>", "key_press": -1, "trial_type": "single-stim", "trial_index": 233, "time_elapsed": 1237711, "internal_node_id": "0.0-167.0-3.0"}}, {"uniqueid": "MTK0019:3YDGXNSEO013XH8GN3ZL1DG0Y4W48D", "current_trial": 234, "dateTime": 1509048296852, "trialdata": {"rt": -1, "stimulus": "<p id=\"stim\">6</p>", "key_press": -1, "trial_type": "single-stim", "trial_index": 234, "time_elapsed": 1238715, "internal_node_id": "0.0-167.0-4.0"}}, {"uniqueid": "MTK0019:3YDGXNSEO013XH8GN3ZL1DG0Y4W48D", "current_trial": 235, "dateTime": 1509048297896, "trialdata": {"rt": -1, "stimulus": "<p id=\"stim\">5</p>", "key_press": -1, "trial_type": "single-stim", "trial_index": 235, "time_elapsed": 1239758, "internal_node_id": "0.0-167.0-5.0"}}, {"uniqueid": "MTK0019:3YDGXNSEO013XH8GN3ZL1DG0Y4W48D", "current_trial": 236, "dateTime": 1509048298899, "trialdata": {"rt": -1, "stimulus": "<p id=\"stim\">4</p>", "key_press": -1, "trial_type": "single-stim", "trial_index": 236, "time_elapsed": 1240762, "internal_node_id": "0.0-167.0-6.0"}}, {"uniqueid": "MTK0019:3YDGXNSEO013XH8GN3ZL1DG0Y4W48D", "current_trial": 237, "dateTime": 1509048299903, "trialdata": {"rt": -1, "stimulus": "<p id=\"stim\">3</p>", "key_press": -1, "trial_type": "single-stim", "trial_index": 237, "time_elapsed": 1241765, "internal_node_id": "0.0-167.0-7.0"}}, {"uniqueid": "MTK0019:3YDGXNSEO013XH8GN3ZL1DG0Y4W48D", "current_trial": 238, "dateTime": 1509048300906, "trialdata": {"rt": -1, "stimulus": "<p id=\"stim\">2</p>", "key_press": -1, "trial_type": "single-stim", "trial_index": 238, "time_elapsed": 1242769, "internal_node_id": "0.0-167.0-8.0"}}, {"uniqueid": "MTK0019:3YDGXNSEO013XH8GN3ZL1DG0Y4W48D", "current_trial": 239, "dateTime": 1509048301910, "trialdata": {"rt": -1, "stimulus": "<p id=\"stim\">1</p>", "key_press": -1, "trial_type": "single-stim", "trial_index": 239, "time_elapsed": 1243772, "internal_node_id": "0.0-167.0-9.0"}}, {"uniqueid": "MTK0019:3YDGXNSEO013XH8GN3ZL1DG0Y4W48D", "current_trial": 240, "dateTime": 1509048303418, "trialdata": {"rt": -1, "stimulus": "<p id=\"stim\">+</p>", "key_press": -1, "type": "FIXATION", "trial_type": "single-stim", "trial_index": 240, "time_elapsed": 1245280, "internal_node_id": "0.0-168.0-0.0"}}, {"uniqueid": "MTK0019:3YDGXNSEO013XH8GN3ZL1DG0Y4W48D", "current_trial": 241, "dateTime": 1509048305952, "trialdata": {"rt": -1000, "stimulus": "/static/audio/wordpool/SHARK.wav", "key_press": -1, "type": "PRES_AUD", "word": "shark", "wordID": 1274, "conditions": [12, 1600, "a", 24000], "trial": 7, "serialpos": 0, "trial_type": "single-audio", "trial_index": 241, "time_elapsed": 1247814, "internal_node_id": "0.0-169.0"}}, {"uniqueid": "MTK0019:3YDGXNSEO013XH8GN3ZL1DG0Y4W48D", "current_trial": 242, "dateTime": 1509048308731, "trialdata": {"rt": -1000, "stimulus": "/static/audio/wordpool/BROOK.wav", "key_press": -1, "type": "PRES_AUD", "word": "brook", "wordID": 176, "conditions": [12, 1600, "a", 24000], "trial": 7, "serialpos": 1, "trial_type": "single-audio", "trial_index": 242, "time_elapsed": 1250594, "internal_node_id": "0.0-170.0"}}, {"uniqueid": "MTK0019:3YDGXNSEO013XH8GN3ZL1DG0Y4W48D", "current_trial": 243, "dateTime": 1509048311254, "trialdata": {"rt": -1000, "stimulus": "/static/audio/wordpool/BANK.wav", "key_press": -1, "type": "PRES_AUD", "word": "bank", "wordID": 82, "conditions": [12, 1600, "a", 24000], "trial": 7, "serialpos": 2, "trial_type": "single-audio", "trial_index": 243, "time_elapsed": 1253117, "internal_node_id": "0.0-171.0"}}, {"uniqueid": "MTK0019:3YDGXNSEO013XH8GN3ZL1DG0Y4W48D", "current_trial": 244, "dateTime": 1509048313731, "trialdata": {"rt": -1000, "stimulus": "/static/audio/wordpool/FUNGUS.wav", "key_press": -1, "type": "PRES_AUD", "word": "fungus", "wordID": 613, "conditions": [12, 1600, "a", 24000], "trial": 7, "serialpos": 3, "trial_type": "single-audio", "trial_index": 244, "time_elapsed": 1255594, "internal_node_id": "0.0-172.0"}}, {"uniqueid": "MTK0019:3YDGXNSEO013XH8GN3ZL1DG0Y4W48D", "current_trial": 245, "dateTime": 1509048316403, "trialdata": {"rt": -1000, "stimulus": "/static/audio/wordpool/CUPBOARD.wav", "key_press": -1, "type": "PRES_AUD", "word": "cupboard", "wordID": 424, "conditions": [12, 1600, "a", 24000], "trial": 7, "serialpos": 4, "trial_type": "single-audio", "trial_index": 245, "time_elapsed": 1258265, "internal_node_id": "0.0-173.0"}}, {"uniqueid": "MTK0019:3YDGXNSEO013XH8GN3ZL1DG0Y4W48D", "current_trial": 246, "dateTime": 1509048318884, "trialdata": {"rt": -1000, "stimulus": "/static/audio/wordpool/FIREPLACE.wav", "key_press": -1, "type": "PRES_AUD", "word": "fireplace", "wordID": 569, "conditions": [12, 1600, "a", 24000], "trial": 7, "serialpos": 5, "trial_type": "single-audio", "trial_index": 246, "time_elapsed": 1260742, "internal_node_id": "0.0-174.0"}}, {"uniqueid": "MTK0019:3YDGXNSEO013XH8GN3ZL1DG0Y4W48D", "current_trial": 247, "dateTime": 1509048321615, "trialdata": {"rt": -1000, "stimulus": "/static/audio/wordpool/TOASTER.wav", "key_press": -1, "type": "PRES_AUD", "word": "toaster", "wordID": 1471, "conditions": [12, 1600, "a", 24000], "trial": 7, "serialpos": 6, "trial_type": "single-audio", "trial_index": 247, "time_elapsed": 1263455, "internal_node_id": "0.0-175.0"}}, {"uniqueid": "MTK0019:3YDGXNSEO013XH8GN3ZL1DG0Y4W48D", "current_trial": 248, "dateTime": 1509048324103, "trialdata": {"rt": -1000, "stimulus": "/static/audio/wordpool/HAMPER.wav", "key_press": -1, "type": "PRES_AUD", "word": "hamper", "wordID": 681, "conditions": [12, 1600, "a", 24000], "trial": 7, "serialpos": 7, "trial_type": "single-audio", "trial_index": 248, "time_elapsed": 1265965, "internal_node_id": "0.0-176.0"}}, {"uniqueid": "MTK0019:3YDGXNSEO013XH8GN3ZL1DG0Y4W48D", "current_trial": 249, "dateTime": 1509048326712, "trialdata": {"rt": -1000, "stimulus": "/static/audio/wordpool/SCISSORS.wav", "key_press": -1, "type": "PRES_AUD", "word": "scissors", "wordID": 1249, "conditions": [12, 1600, "a", 24000], "trial": 7, "serialpos": 8, "trial_type": "single-audio", "trial_index": 249, "time_elapsed": 1268575, "internal_node_id": "0.0-177.0"}}, {"uniqueid": "MTK0019:3YDGXNSEO013XH8GN3ZL1DG0Y4W48D", "current_trial": 250, "dateTime": 1509048329240, "trialdata": {"rt": -1000, "stimulus": "/static/audio/wordpool/KNIFE.wav", "key_press": -1, "type": "PRES_AUD", "word": "knife", "wordID": 784, "conditions": [12, 1600, "a", 24000], "trial": 7, "serialpos": 9, "trial_type": "single-audio", "trial_index": 250, "time_elapsed": 1271103, "internal_node_id": "0.0-178.0"}}, {"uniqueid": "MTK0019:3YDGXNSEO013XH8GN3ZL1DG0Y4W48D", "current_trial": 251, "dateTime": 1509048331921, "trialdata": {"rt": -1000, "stimulus": "/static/audio/wordpool/HOUND.wav", "key_press": -1, "type": "PRES_AUD", "word": "hound", "wordID": 723, "conditions": [12, 1600, "a", 24000], "trial": 7, "serialpos": 10, "trial_type": "single-audio", "trial_index": 251, "time_elapsed": 1273784, "internal_node_id": "0.0-179.0"}}, {"uniqueid": "MTK0019:3YDGXNSEO013XH8GN3ZL1DG0Y4W48D", "current_trial": 252, "dateTime": 1509048334570, "trialdata": {"rt": -1000, "stimulus": "/static/audio/wordpool/BANKER.wav", "key_press": -1, "type": "PRES_AUD", "word": "banker", "wordID": 83, "conditions": [12, 1600, "a", 24000], "trial": 7, "serialpos": 11, "trial_type": "single-audio", "trial_index": 252, "time_elapsed": 1276433, "internal_node_id": "0.0-180.0"}}, {"uniqueid": "MTK0019:3YDGXNSEO013XH8GN3ZL1DG0Y4W48D", "current_trial": 253, "dateTime": 1509048335931, "trialdata": {"rt": -1, "stimulus": "", "key_press": -1, "type": "PRE_RECALL_DELAY", "trial_type": "single-stim", "trial_index": 253, "time_elapsed": 1277794, "internal_node_id": "0.0-181.0-0.0"}}, {"uniqueid": "MTK0019:3YDGXNSEO013XH8GN3ZL1DG0Y4W48D", "current_trial": 254, "dateTime": 1509048336434, "trialdata": {"rt": -1000, "stimulus": "/static/audio/400Hz.wav", "key_press": -1, "type": "PRE_RECALL_ALERT", "trial_type": "single-audio", "trial_index": 254, "time_elapsed": 1278297, "internal_node_id": "0.0-182.0"}}, {"uniqueid": "MTK0019:3YDGXNSEO013XH8GN3ZL1DG0Y4W48D", "current_trial": 255, "dateTime": 1509048396441, "trialdata": {"rt": [18795, 19061, 19322, 19558, 20251, 20517, 20777, 21033, 21811, 22123, 22394, 22879, 23189, 23882, 24259, 24614, 25087, 25757, 26229, 26682, 27131, 27562, 27941, 28539, 29075, 29599, 30121, 30514, 30871, 31405, 31938, 32393, 32736, 33409, 33860, 34222, 34826, 35211, 35687, 36040, 36385, 37174, 37564, 38025, 38407, 38902, 39412, 39824, 40269, 40652, 41227, 41658, 42056, 42474, 42857, 43538, 43952, 44344, 44815, 45170, 45810, 46173, 46807, 47199, 47542, 48021, 48441, 48931, 49326, 49795, 50188, 50648, 51029, 51503, 51875, 52301, 52674, 53298, 53655, 54064, 54578, 54989, 55429, 56084, 56862, 57329, 57675, 58009, 58471, 58830, 59190, 59629], "recwords": ["a", "a", "a", "a", "b", "b", "b", "b", "b", "c", "c", "a", "a", "a", "c", "", "a", "c", "a", "c", "a", "c", "a", "", "c", "a", "c", "a", "a", "a", "c", "a", "a", "c", "a", "a", "c", "c", "a", "a", "a", "c", "c", "a", "a", "c", "c", "c", "a", "a", "c", "c", "c", "a", "a", "a", "c", "c", "a", "a", "c", "c", "c", "a", "a", "c", "c", "a", "a", "c", "c", "a", "a", "c", "c", "a", "a", "a", "c", "c", "a", "a", "a", "ac", "", "c", "c", "c", "a", "a", "a", "c"], "type": "FREE_RECALL", "conditions": [12, 1600, "a", 24000], "trial": 7, "trial_type": "free-recall", "trial_index": 255, "time_elapsed": 1338304, "internal_node_id": "0.0-183.0-0.0"}}, {"uniqueid": "MTK0019:3YDGXNSEO013XH8GN3ZL1DG0Y4W48D", "current_trial": 256, "dateTime": 1509048399287, "trialdata": {"rt": 841, "key_press": 32, "type": "INSTRUCTIONS", "trial_type": "text", "trial_index": 256, "time_elapsed": 1341150, "internal_node_id": "0.0-184.0"}}, {"uniqueid": "MTK0019:3YDGXNSEO013XH8GN3ZL1DG0Y4W48D", "current_trial": 257, "dateTime": 1509048425304, "trialdata": {"rt": [], "responses": [], "num1": [3], "num2": [9], "num3": [5], "type": "DISTRACTOR", "conditions": [12, 800, "a", 24000], "trial": 8, "trial_type": "math-distractor", "trial_index": 257, "time_elapsed": 1367167, "internal_node_id": "0.0-185.0"}}, {"uniqueid": "MTK0019:3YDGXNSEO013XH8GN3ZL1DG0Y4W48D", "current_trial": 258, "dateTime": 1509048428314, "trialdata": {"rt": -1, "stimulus": "<p id=\"stim\">10</p>", "key_press": -1, "trial_type": "single-stim", "trial_index": 258, "time_elapsed": 1370176, "internal_node_id": "0.0-186.0-0.0"}}, {"uniqueid": "MTK0019:3YDGXNSEO013XH8GN3ZL1DG0Y4W48D", "current_trial": 259, "dateTime": 1509048429317, "trialdata": {"rt": -1, "stimulus": "<p id=\"stim\">9</p>", "key_press": -1, "trial_type": "single-stim", "trial_index": 259, "time_elapsed": 1371180, "internal_node_id": "0.0-186.0-1.0"}}, {"uniqueid": "MTK0019:3YDGXNSEO013XH8GN3ZL1DG0Y4W48D", "current_trial": 260, "dateTime": 1509048430324, "trialdata": {"rt": -1, "stimulus": "<p id=\"stim\">8</p>", "key_press": -1, "trial_type": "single-stim", "trial_index": 260, "time_elapsed": 1372186, "internal_node_id": "0.0-186.0-2.0"}}, {"uniqueid": "MTK0019:3YDGXNSEO013XH8GN3ZL1DG0Y4W48D", "current_trial": 261, "dateTime": 1509048431327, "trialdata": {"rt": -1, "stimulus": "<p id=\"stim\">7</p>", "key_press": -1, "trial_type": "single-stim", "trial_index": 261, "time_elapsed": 1373189, "internal_node_id": "0.0-186.0-3.0"}}, {"uniqueid": "MTK0019:3YDGXNSEO013XH8GN3ZL1DG0Y4W48D", "current_trial": 262, "dateTime": 1509048432332, "trialdata": {"rt": -1, "stimulus": "<p id=\"stim\">6</p>", "key_press": -1, "trial_type": "single-stim", "trial_index": 262, "time_elapsed": 1374194, "internal_node_id": "0.0-186.0-4.0"}}, {"uniqueid": "MTK0019:3YDGXNSEO013XH8GN3ZL1DG0Y4W48D", "current_trial": 263, "dateTime": 1509048433342, "trialdata": {"rt": -1, "stimulus": "<p id=\"stim\">5</p>", "key_press": -1, "trial_type": "single-stim", "trial_index": 263, "time_elapsed": 1375204, "internal_node_id": "0.0-186.0-5.0"}}, {"uniqueid": "MTK0019:3YDGXNSEO013XH8GN3ZL1DG0Y4W48D", "current_trial": 264, "dateTime": 1509048434347, "trialdata": {"rt": -1, "stimulus": "<p id=\"stim\">4</p>", "key_press": -1, "trial_type": "single-stim", "trial_index": 264, "time_elapsed": 1376209, "internal_node_id": "0.0-186.0-6.0"}}, {"uniqueid": "MTK0019:3YDGXNSEO013XH8GN3ZL1DG0Y4W48D", "current_trial": 265, "dateTime": 1509048435353, "trialdata": {"rt": -1, "stimulus": "<p id=\"stim\">3</p>", "key_press": -1, "trial_type": "single-stim", "trial_index": 265, "time_elapsed": 1377215, "internal_node_id": "0.0-186.0-7.0"}}, {"uniqueid": "MTK0019:3YDGXNSEO013XH8GN3ZL1DG0Y4W48D", "current_trial": 266, "dateTime": 1509048436504, "trialdata": {"rt": -1, "stimulus": "<p id=\"stim\">2</p>", "key_press": -1, "trial_type": "single-stim", "trial_index": 266, "time_elapsed": 1378365, "internal_node_id": "0.0-186.0-8.0"}}, {"uniqueid": "MTK0019:3YDGXNSEO013XH8GN3ZL1DG0Y4W48D", "current_trial": 267, "dateTime": 1509048437549, "trialdata": {"rt": -1, "stimulus": "<p id=\"stim\">1</p>", "key_press": -1, "trial_type": "single-stim", "trial_index": 267, "time_elapse