{"condition": 0, "counterbalance": 930, "assignmentId": "326O153BMJ5X6E10THMEWR6SOJCDEN", "workerId": "MTK0407", "hitId": "388CL5C1RJUQ1GI06XN6BNFQBHVLH9", "currenttrial": 667, "bonus": 0, "data": [{"current_trial": 0, "dateTime": 1510857485565, "trialdata": {"internal_node_id": "0.0-0.0", "key_press": 32, "rt": 2601, "time_elapsed": 2605, "trial_index": 0, "trial_type": "text", "type": "INSTRUCTIONS"}, "uniqueid": "MTK0407:326O153BMJ5X6E10THMEWR6SOJCDEN"}, {"current_trial": 1, "dateTime": 1510857504872, "trialdata": {"internal_node_id": "0.0-1.0", "key_press": 32, "rt": 19305, "time_elapsed": 21913, "trial_index": 1, "trial_type": "text", "type": "INSTRUCTIONS"}, "uniqueid": "MTK0407:326O153BMJ5X6E10THMEWR6SOJCDEN"}, {"current_trial": 2, "dateTime": 1510857514105, "trialdata": {"internal_node_id": "0.0-2.0", "responses": ["ocean"], "rt": [9215], "time_elapsed": 31146, "trial_index": 2, "trial_type": "audio-test", "type": "AUDIO_TEST"}, "uniqueid": "MTK0407:326O153BMJ5X6E10THMEWR6SOJCDEN"}, {"current_trial": 3, "dateTime": 1510857522753, "trialdata": {"internal_node_id": "0.0-3.0", "responses": ["crystal"], "rt": [8639], "time_elapsed": 39794, "trial_index": 3, "trial_type": "audio-test", "type": "AUDIO_TEST"}, "uniqueid": "MTK0407:326O153BMJ5X6E10THMEWR6SOJCDEN"}, {"current_trial": 4, "dateTime": 1510857534369, "trialdata": {"internal_node_id": "0.0-4.0", "responses": ["spice"], "rt": [11607], "time_elapsed": 51409, "trial_index": 4, "trial_type": "audio-test", "type": "AUDIO_TEST"}, "uniqueid": "MTK0407:326O153BMJ5X6E10THMEWR6SOJCDEN"}, {"current_trial": 5, "dateTime": 1510857561357, "trialdata": {"internal_node_id": "0.0-5.0", "responses": "{\"Q0\":\"10:00\",\"Q1\":\"7:00\",\"Q2\":\"4\"}", "rt": 26233, "time_elapsed": 78398, "trial_index": 5, "trial_type": "survey-text", "type": "SLEEP_SURVEY"}, "uniqueid": "MTK0407:326O153BMJ5X6E10THMEWR6SOJCDEN"}, {"current_trial": 6, "dateTime": 1510857625894, "trialdata": {"internal_node_id": "0.0-6.0", "key_press": 13, "rt": 63535, "time_elapsed": 142935, "trial_index": 6, "trial_type": "text", "type": "INSTRUCTIONS"}, "uniqueid": "MTK0407:326O153BMJ5X6E10THMEWR6SOJCDEN"}, {"current_trial": 7, "dateTime": 1510857650432, "trialdata": {"internal_node_id": "0.0-7.0", "key_press": 13, "rt": 24036, "time_elapsed": 167473, "trial_index": 7, "trial_type": "text", "type": "INSTRUCTIONS"}, "uniqueid": "MTK0407:326O153BMJ5X6E10THMEWR6SOJCDEN"}, {"current_trial": 8, "dateTime": 1510857656541, "trialdata": {"internal_node_id": "0.0-8.0", "key_press": 13, "rt": 5605, "time_elapsed": 173581, "trial_index": 8, "trial_type": "text", "type": "INSTRUCTIONS"}, "uniqueid": "MTK0407:326O153BMJ5X6E10THMEWR6SOJCDEN"}, {"current_trial": 9, "dateTime": 1510857675552, "trialdata": {"conditions": [18, 1200, "v", 18000], "internal_node_id": "0.0-9.0", "num1": [4, 1, 3, 8, 6, 7, 9], "num2": [8, 1, 6, 4, 7, 3, 1], "num3": [3, 4, 3, 2, 4, 1, 3], "responses": ["14", "6", "12", "14", "17", "11"], "rt": [5589, 8620, 10795, 13209, 15615, 17362], "time_elapsed": 192593, "trial": 0, "trial_index": 9, "trial_type": "math-distractor", "type": "DISTRACTOR"}, "uniqueid": "MTK0407:326O153BMJ5X6E10THMEWR6SOJCDEN"}, {"current_trial": 10, "dateTime": 1510857678557, "trialdata": {"internal_node_id": "0.0-10.0-0.0", "key_press": -1, "rt": -1, "stimulus": "<p id=\"stim\">10</p>", "time_elapsed": 195597, "trial_index": 10, "trial_type": "single-stim"}, "uniqueid": "MTK0407:326O153BMJ5X6E10THMEWR6SOJCDEN"}, {"current_trial": 11, "dateTime": 1510857679560, "trialdata": {"internal_node_id": "0.0-10.0-1.0", "key_press": -1, "rt": -1, "stimulus": "<p id=\"stim\">9</p>", "time_elapsed": 196601, "trial_index": 11, "trial_type": "single-stim"}, "uniqueid": "MTK0407:326O153BMJ5X6E10THMEWR6SOJCDEN"}, {"current_trial": 12, "dateTime": 1510857680566, "trialdata": {"internal_node_id": "0.0-10.0-2.0", "key_press": -1, "rt": -1, "stimulus": "<p id=\"stim\">8</p>", "time_elapsed": 197607, "trial_index": 12, "trial_type": "single-stim"}, "uniqueid": "MTK0407:326O153BMJ5X6E10THMEWR6SOJCDEN"}, {"current_trial": 13, "dateTime": 1510857681569, "trialdata": {"internal_node_id": "0.0-10.0-3.0", "key_press": -1, "rt": -1, "stimulus": "<p id=\"stim\">7</p>", "time_elapsed": 198610, "trial_index": 13, "trial_type": "single-stim"}, "uniqueid": "MTK0407:326O153BMJ5X6E10THMEWR6SOJCDEN"}, {"current_trial": 14, "dateTime": 1510857682571, "trialdata": {"internal_node_id": "0.0-10.0-4.0", "key_press": -1, "rt": -1, "stimulus": "<p id=\"stim\">6</p>", "time_elapsed": 199611, "trial_index": 14, "trial_type": "single-stim"}, "uniqueid": "MTK0407:326O153BMJ5X6E10THMEWR6SOJCDEN"}, {"current_trial": 15, "dateTime": 1510857683573, "trialdata": {"internal_node_id": "0.0-10.0-5.0", "key_press": -1, "rt": -1, "stimulus": "<p id=\"stim\">5</p>", "time_elapsed": 200614, "trial_index": 15, "trial_type": "single-stim"}, "uniqueid": "MTK0407:326O153BMJ5X6E10THMEWR6SOJCDEN"}, {"current_trial": 16, "dateTime": 1510857684585, "trialdata": {"internal_node_id": "0.0-10.0-6.0", "key_press": -1, "rt": -1, "stimulus": "<p id=\"stim\">4</p>", "time_elapsed": 201625, "trial_index": 16, "trial_type": "single-stim"}, "uniqueid": "MTK0407:326O153BMJ5X6E10THMEWR6SOJCDEN"}, {"current_trial": 17, "dateTime": 1510857685589, "trialdata": {"internal_node_id": "0.0-10.0-7.0", "key_press": -1, "rt": -1, "stimulus": "<p id=\"stim\">3</p>", "time_elapsed": 202630, "trial_index": 17, "trial_type": "single-stim"}, "uniqueid": "MTK0407:326O153BMJ5X6E10THMEWR6SOJCDEN"}, {"current_trial": 18, "dateTime": 1510857686590, "trialdata": {"internal_node_id": "0.0-10.0-8.0", "key_press": -1, "rt": -1, "stimulus": "<p id=\"stim\">2</p>", "time_elapsed": 203631, "trial_index": 18, "trial_type": "single-stim"}, "uniqueid": "MTK0407:326O153BMJ5X6E10THMEWR6SOJCDEN"}, {"current_trial": 19, "dateTime": 1510857687591, "trialdata": {"internal_node_id": "0.0-10.0-9.0", "key_press": -1, "rt": -1, "stimulus": "<p id=\"stim\">1</p>", "time_elapsed": 204632, "trial_index": 19, "trial_type": "single-stim"}, "uniqueid": "MTK0407:326O153BMJ5X6E10THMEWR6SOJCDEN"}, {"current_trial": 20, "dateTime": 1510857689093, "trialdata": {"internal_node_id": "0.0-11.0-0.0", "key_press": -1, "rt": -1, "stimulus": "<p id=\"stim\">+</p>", "time_elapsed": 206134, "trial_index": 20, "trial_type": "single-stim", "type": "FIXATION"}, "uniqueid": "MTK0407:326O153BMJ5X6E10THMEWR6SOJCDEN"}, {"current_trial": 21, "dateTime": 1510857690296, "trialdata": {"conditions": [18, 1200, "v", 18000], "internal_node_id": "0.0-12.0", "key_press": -1, "rt": -1, "serialpos": 0, "stimulus": "<p id=\"stim\">SCALPEL</p>", "time_elapsed": 207336, "trial": 0, "trial_index": 21, "trial_type": "single-stim", "type": "PRES_VIS", "word": "scalpel", "wordID": 1242}, "uniqueid": "MTK0407:326O153BMJ5X6E10THMEWR6SOJCDEN"}, {"current_trial": 22, "dateTime": 1510857692399, "trialdata": {"conditions": [18, 1200, "v", 18000], "internal_node_id": "0.0-13.0", "key_press": -1, "rt": -1, "serialpos": 1, "stimulus": "<p id=\"stim\">FOREST</p>", "time_elapsed": 209440, "trial": 0, "trial_index": 22, "trial_type": "single-stim", "type": "PRES_VIS", "word": "forest", "wordID": 592}, "uniqueid": "MTK0407:326O153BMJ5X6E10THMEWR6SOJCDEN"}, {"current_trial": 23, "dateTime": 1510857694464, "trialdata": {"conditions": [18, 1200, "v", 18000], "internal_node_id": "0.0-14.0", "key_press": -1, "rt": -1, "serialpos": 2, "stimulus": "<p id=\"stim\">BOYFRIEND</p>", "time_elapsed": 211505, "trial": 0, "trial_index": 23, "trial_type": "single-stim", "type": "PRES_VIS", "word": "boyfriend", "wordID": 161}, "uniqueid": "MTK0407:326O153BMJ5X6E10THMEWR6SOJCDEN"}, {"current_trial": 24, "dateTime": 1510857696515, "trialdata": {"conditions": [18, 1200, "v", 18000], "internal_node_id": "0.0-15.0", "key_press": -1, "rt": -1, "serialpos": 3, "stimulus": "<p id=\"stim\">LACE</p>", "time_elapsed": 213556, "trial": 0, "trial_index": 24, "trial_type": "single-stim", "type": "PRES_VIS", "word": "lace", "wordID": 791}, "uniqueid": "MTK0407:326O153BMJ5X6E10THMEWR6SOJCDEN"}, {"current_trial": 25, "dateTime": 1510857698580, "trialdata": {"conditions": [18, 1200, "v", 18000], "internal_node_id": "0.0-16.0", "key_press": -1, "rt": -1, "serialpos": 4, "stimulus": "<p id=\"stim\">FLOWER</p>", "time_elapsed": 215621, "trial": 0, "trial_index": 25, "trial_type": "single-stim", "type": "PRES_VIS", "word": "flower", "wordID": 583}, "uniqueid": "MTK0407:326O153BMJ5X6E10THMEWR6SOJCDEN"}, {"current_trial": 26, "dateTime": 1510857700953, "trialdata": {"conditions": [18, 1200, "v", 18000], "internal_node_id": "0.0-17.0", "key_press": -1, "rt": -1, "serialpos": 5, "stimulus": "<p id=\"stim\">FIREMAN</p>", "time_elapsed": 217994, "trial": 0, "trial_index": 26, "trial_type": "single-stim", "type": "PRES_VIS", "word": "fireman", "wordID": 568}, "uniqueid": "MTK0407:326O153BMJ5X6E10THMEWR6SOJCDEN"}, {"current_trial": 27, "dateTime": 1510857703309, "trialdata": {"conditions": [18, 1200, "v", 18000], "internal_node_id": "0.0-18.0", "key_press": -1, "rt": -1, "serialpos": 6, "stimulus": "<p id=\"stim\">BISON</p>", "time_elapsed": 220350, "trial": 0, "trial_index": 27, "trial_type": "single-stim", "type": "PRES_VIS", "word": "bison", "wordID": 130}, "uniqueid": "MTK0407:326O153BMJ5X6E10THMEWR6SOJCDEN"}, {"current_trial": 28, "dateTime": 1510857705441, "trialdata": {"conditions": [18, 1200, "v", 18000], "internal_node_id": "0.0-19.0", "key_press": -1, "rt": -1, "serialpos": 7, "stimulus": "<p id=\"stim\">BIKE</p>", "time_elapsed": 222481, "trial": 0, "trial_index": 28, "trial_type": "single-stim", "type": "PRES_VIS", "word": "bike", "wordID": 124}, "uniqueid": "MTK0407:326O153BMJ5X6E10THMEWR6SOJCDEN"}, {"current_trial": 29, "dateTime": 1510857707455, "trialdata": {"conditions": [18, 1200, "v", 18000], "internal_node_id": "0.0-20.0", "key_press": -1, "rt": -1, "serialpos": 8, "stimulus": "<p id=\"stim\">OINTMENT</p>", "time_elapsed": 224496, "trial": 0, "trial_index": 29, "trial_type": "single-stim", "type": "PRES_VIS", "word": "ointment", "wordID": 973}, "uniqueid": "MTK0407:326O153BMJ5X6E10THMEWR6SOJCDEN"}, {"current_trial": 30, "dateTime": 1510857709542, "trialdata": {"conditions": [18, 1200, "v", 18000], "internal_node_id": "0.0-21.0", "key_press": -1, "rt": -1, "serialpos": 9, "stimulus": "<p id=\"stim\">LION</p>", "time_elapsed": 226582, "trial": 0, "trial_index": 30, "trial_type": "single-stim", "type": "PRES_VIS", "word": "lion", "wordID": 826}, "uniqueid": "MTK0407:326O153BMJ5X6E10THMEWR6SOJCDEN"}, {"current_trial": 31, "dateTime": 1510857711891, "trialdata": {"conditions": [18, 1200, "v", 18000], "internal_node_id": "0.0-22.0", "key_press": -1, "rt": -1, "serialpos": 10, "stimulus": "<p id=\"stim\">FLIPPER</p>", "time_elapsed": 228932, "trial": 0, "trial_index": 31, "trial_type": "single-stim", "type": "PRES_VIS", "word": "flipper", "wordID": 579}, "uniqueid": "MTK0407:326O153BMJ5X6E10THMEWR6SOJCDEN"}, {"current_trial": 32, "dateTime": 1510857714250, "trialdata": {"conditions": [18, 1200, "v", 18000], "internal_node_id": "0.0-23.0", "key_press": -1, "rt": -1, "serialpos": 11, "stimulus": "<p id=\"stim\">FARMER</p>", "time_elapsed": 231291, "trial": 0, "trial_index": 32, "trial_type": "single-stim", "type": "PRES_VIS", "word": "farmer", "wordID": 552}, "uniqueid": "MTK0407:326O153BMJ5X6E10THMEWR6SOJCDEN"}, {"current_trial": 33, "dateTime": 1510857716484, "trialdata": {"conditions": [18, 1200, "v", 18000], "internal_node_id": "0.0-24.0", "key_press": -1, "rt": -1, "serialpos": 12, "stimulus": "<p id=\"stim\">CHEMIST</p>", "time_elapsed": 233525, "trial": 0, "trial_index": 33, "trial_type": "single-stim", "type": "PRES_VIS", "word": "chemist", "wordID": 291}, "uniqueid": "MTK0407:326O153BMJ5X6E10THMEWR6SOJCDEN"}, {"current_trial": 34, "dateTime": 1510857718637, "trialdata": {"conditions": [18, 1200, "v", 18000], "internal_node_id": "0.0-25.0", "key_press": -1, "rt": -1, "serialpos": 13, "stimulus": "<p id=\"stim\">ANKLE</p>", "time_elapsed": 235678, "trial": 0, "trial_index": 34, "trial_type": "single-stim", "type": "PRES_VIS", "word": "ankle", "wordID": 23}, "uniqueid": "MTK0407:326O153BMJ5X6E10THMEWR6SOJCDEN"}, {"current_trial": 35, "dateTime": 1510857720956, "trialdata": {"conditions": [18, 1200, "v", 18000], "internal_node_id": "0.0-26.0", "key_press": -1, "rt": -1, "serialpos": 14, "stimulus": "<p id=\"stim\">PASTA</p>", "time_elapsed": 237997, "trial": 0, "trial_index": 35, "trial_type": "single-stim", "type": "PRES_VIS", "word": "pasta", "wordID": 1020}, "uniqueid": "MTK0407:326O153BMJ5X6E10THMEWR6SOJCDEN"}, {"current_trial": 36, "dateTime": 1510857723187, "trialdata": {"conditions": [18, 1200, "v", 18000], "internal_node_id": "0.0-27.0", "key_press": -1, "rt": -1, "serialpos": 15, "stimulus": "<p id=\"stim\">TART</p>", "time_elapsed": 240228, "trial": 0, "trial_index": 36, "trial_type": "single-stim", "type": "PRES_VIS", "word": "tart", "wordID": 1435}, "uniqueid": "MTK0407:326O153BMJ5X6E10THMEWR6SOJCDEN"}, {"current_trial": 37, "dateTime": 1510857725410, "trialdata": {"conditions": [18, 1200, "v", 18000], "internal_node_id": "0.0-28.0", "key_press": -1, "rt": -1, "serialpos": 16, "stimulus": "<p id=\"stim\">OFFICE</p>", "time_elapsed": 242451, "trial": 0, "trial_index": 37, "trial_type": "single-stim", "type": "PRES_VIS", "word": "office", "wordID": 971}, "uniqueid": "MTK0407:326O153BMJ5X6E10THMEWR6SOJCDEN"}, {"current_trial": 38, "dateTime": 1510857727521, "trialdata": {"conditions": [18, 1200, "v", 18000], "internal_node_id": "0.0-29.0", "key_press": -1, "rt": -1, "serialpos": 17, "stimulus": "<p id=\"stim\">SERVANT</p>", "time_elapsed": 244562, "trial": 0, "trial_index": 38, "trial_type": "single-stim", "type": "PRES_VIS", "word": "servant", "wordID": 1270}, "uniqueid": "MTK0407:326O153BMJ5X6E10THMEWR6SOJCDEN"}, {"current_trial": 39, "dateTime": 1510857729916, "trialdata": {"internal_node_id": "0.0-30.0-0.0", "key_press": -1, "rt": -1, "stimulus": "", "time_elapsed": 246956, "trial_index": 39, "trial_type": "single-stim", "type": "PRE_RECALL_DELAY"}, "uniqueid": "MTK0407:326O153BMJ5X6E10THMEWR6SOJCDEN"}, {"current_trial": 40, "dateTime": 1510857730472, "trialdata": {"internal_node_id": "0.0-31.0", "key_press": -1, "rt": -1000, "stimulus": "/static/audio/400Hz.wav", "time_elapsed": 247513, "trial_index": 40, "trial_type": "single-audio", "type": "PRE_RECALL_ALERT"}, "uniqueid": "MTK0407:326O153BMJ5X6E10THMEWR6SOJCDEN"}, {"uniqueid": "MTK0407:326O153BMJ5X6E10THMEWR6SOJCDEN", "current_trial": 41, "dateTime": 1510860220493, "trialdata": {"rt": 1871, "key_press": 13, "type": "INSTRUCTIONS", "trial_type": "text", "trial_index": 0, "time_elapsed": 1872, "internal_node_id": "0.0-0.0"}}, {"uniqueid": "MTK0407:326O153BMJ5X6E10THMEWR6SOJCDEN", "current_trial": 42, "dateTime": 1510860221863, "trialdata": {"rt": 1370, "key_press": 13, "type": "INSTRUCTIONS", "trial_type": "text", "trial_index": 1, "time_elapsed": 3242, "internal_node_id": "0.0-1.0"}}, {"uniqueid": "MTK0407:326O153BMJ5X6E10THMEWR6SOJCDEN", "current_trial": 43, "dateTime": 1510860243858, "trialdata": {"rt": [21922], "responses": ["ocean"], "type": "AUDIO_TEST", "trial_type": "audio-test", "trial_index": 2, "time_elapsed": 25237, "internal_node_id": "0.0-2.0"}}, {"uniqueid": "MTK0407:326O153BMJ5X6E10THMEWR6SOJCDEN", "current_trial": 44, "dateTime": 1510860252205, "trialdata": {"rt": [8331], "responses": ["crystal"], "type": "AUDIO_TEST", "trial_type": "audio-test", "trial_index": 3, "time_elapsed": 33584, "internal_node_id": "0.0-3.0"}}, {"uniqueid": "MTK0407:326O153BMJ5X6E10THMEWR6SOJCDEN", "current_trial": 45, "dateTime": 1510860257988, "trialdata": {"rt": [5776], "responses": ["spice"], "type": "AUDIO_TEST", "trial_type": "audio-test", "trial_index": 4, "time_elapsed": 39367, "internal_node_id": "0.0-4.0"}}, {"uniqueid": "MTK0407:326O153BMJ5X6E10THMEWR6SOJCDEN", "current_trial": 46, "dateTime": 1510860272808, "trialdata": {"rt": 14065, "responses": "{\"Q0\":\"10:00\",\"Q1\":\"7:00\",\"Q2\":\"4\"}", "type": "SLEEP_SURVEY", "trial_type": "survey-text", "trial_index": 5, "time_elapsed": 54186, "internal_node_id": "0.0-5.0"}}, {"uniqueid": "MTK0407:326O153BMJ5X6E10THMEWR6SOJCDEN", "current_trial": 47, "dateTime": 1510860276025, "trialdata": {"rt": 2215, "key_press": 13, "type": "INSTRUCTIONS", "trial_type": "text", "trial_index": 6, "time_elapsed": 57404, "internal_node_id": "0.0-6.0"}}, {"uniqueid": "MTK0407:326O153BMJ5X6E10THMEWR6SOJCDEN", "current_trial": 48, "dateTime": 1510860278504, "trialdata": {"rt": 1976, "key_press": 13, "type": "INSTRUCTIONS", "trial_type": "text", "trial_index": 7, "time_elapsed": 59882, "internal_node_id": "0.0-7.0"}}, {"uniqueid": "MTK0407:326O153BMJ5X6E10THMEWR6SOJCDEN", "current_trial": 49, "dateTime": 1510860280612, "trialdata": {"rt": 1605, "key_press": 13, "type": "INSTRUCTIONS", "trial_type": "text", "trial_index": 8, "time_elapsed": 61990, "internal_node_id": "0.0-8.0"}}, {"uniqueid": "MTK0407:326O153BMJ5X6E10THMEWR6SOJCDEN", "current_trial": 50, "dateTime": 1510860299623, "trialdata": {"rt": [4037, 6869, 8985, 12378, 16229], "responses": ["10", "14", "11", "16", "20"], "num1": [3, 5, 4, 2, 8, 3], "num2": [4, 3, 3, 6, 6, 7], "num3": [3, 6, 4, 8, 6, 8], "type": "DISTRACTOR", "conditions": [18, 1200, "v", 18000], "trial": 0, "trial_type": "math-distractor", "trial_index": 9, "time_elapsed": 81001, "internal_node_id": "0.0-9.0"}}, {"uniqueid": "MTK0407:326O153BMJ5X6E10THMEWR6SOJCDEN", "current_trial": 51, "dateTime": 1510860302627, "trialdata": {"rt": -1, "stimulus": "<p id=\"stim\">10</p>", "key_press": -1, "trial_type": "single-stim", "trial_index": 10, "time_elapsed": 84006, "internal_node_id": "0.0-10.0-0.0"}}, {"uniqueid": "MTK0407:326O153BMJ5X6E10THMEWR6SOJCDEN", "current_trial": 52, "dateTime": 1510860303629, "trialdata": {"rt": 62, "stimulus": "<p id=\"stim\">9</p>", "key_press": 174, "trial_type": "single-stim", "trial_index": 11, "time_elapsed": 85008, "internal_node_id": "0.0-10.0-1.0"}}, {"uniqueid": "MTK0407:326O153BMJ5X6E10THMEWR6SOJCDEN", "current_trial": 53, "dateTime": 1510860304631, "trialdata": {"rt": 24, "stimulus": "<p id=\"stim\">8</p>", "key_press": 174, "trial_type": "single-stim", "trial_index": 12, "time_elapsed": 86010, "internal_node_id": "0.0-10.0-2.0"}}, {"uniqueid": "MTK0407:326O153BMJ5X6E10THMEWR6SOJCDEN", "current_trial": 54, "dateTime": 1510860305633, "trialdata": {"rt": 128, "stimulus": "<p id=\"stim\">7</p>", "key_press": 174, "trial_type": "single-stim", "trial_index": 13, "time_elapsed": 87012, "internal_node_id": "0.0-10.0-3.0"}}, {"uniqueid": "MTK0407:326O153BMJ5X6E10THMEWR6SOJCDEN", "current_trial": 55, "dateTime": 1510860306635, "trialdata": {"rt": 113, "stimulus": "<p id=\"stim\">6</p>", "key_press": 174, "trial_type": "single-stim", "trial_index": 14, "time_elapsed": 88014, "internal_node_id": "0.0-10.0-4.0"}}, {"uniqueid": "MTK0407:326O153BMJ5X6E10THMEWR6SOJCDEN", "current_trial": 56, "dateTime": 1510860307638, "trialdata": {"rt": 99, "stimulus": "<p id=\"stim\">5</p>", "key_press": 174, "trial_type": "single-stim", "trial_index": 15, "time_elapsed": 89017, "internal_node_id": "0.0-10.0-5.0"}}, {"uniqueid": "MTK0407:326O153BMJ5X6E10THMEWR6SOJCDEN", "current_trial": 57, "dateTime": 1510860308640, "trialdata": {"rt": 331, "stimulus": "<p id=\"stim\">4</p>", "key_press": 174, "trial_type": "single-stim", "trial_index": 16, "time_elapsed": 90019, "internal_node_id": "0.0-10.0-6.0"}}, {"uniqueid": "MTK0407:326O153BMJ5X6E10THMEWR6SOJCDEN", "current_trial": 58, "dateTime": 1510860309643, "trialdata": {"rt": 101, "stimulus": "<p id=\"stim\">3</p>", "key_press": 174, "trial_type": "single-stim", "trial_index": 17, "time_elapsed": 91022, "internal_node_id": "0.0-10.0-7.0"}}, {"uniqueid": "MTK0407:326O153BMJ5X6E10THMEWR6SOJCDEN", "current_trial": 59, "dateTime": 1510860310645, "trialdata": {"rt": -1, "stimulus": "<p id=\"stim\">2</p>", "key_press": -1, "trial_type": "single-stim", "trial_index": 18, "time_elapsed": 92023, "internal_node_id": "0.0-10.0-8.0"}}, {"uniqueid": "MTK0407:326O153BMJ5X6E10THMEWR6SOJCDEN", "current_trial": 60, "dateTime": 1510860311647, "trialdata": {"rt": -1, "stimulus": "<p id=\"stim\">1</p>", "key_press": -1, "trial_type": "single-stim", "trial_index": 19, "time_elapsed": 93026, "internal_node_id": "0.0-10.0-9.0"}}, {"uniqueid": "MTK0407:326O153BMJ5X6E10THMEWR6SOJCDEN", "current_trial": 61, "dateTime": 1510860313149, "trialdata": {"rt": -1, "stimulus": "<p id=\"stim\">+</p>", "key_press": -1, "type": "FIXATION", "trial_type": "single-stim", "trial_index": 20, "time_elapsed": 94527, "internal_node_id": "0.0-11.0-0.0"}}, {"uniqueid": "MTK0407:326O153BMJ5X6E10THMEWR6SOJCDEN", "current_trial": 62, "dateTime": 1510860314352, "trialdata": {"rt": -1, "stimulus": "<p id=\"stim\">SCALPEL</p>", "key_press": -1, "type": "PRES_VIS", "word": "scalpel", "wordID": 1242, "conditions": [18, 1200, "v", 18000], "trial": 0, "serialpos": 0, "trial_type": "single-stim", "trial_index": 21, "time_elapsed": 95730, "internal_node_id": "0.0-12.0"}}, {"uniqueid": "MTK0407:326O153BMJ5X6E10THMEWR6SOJCDEN", "current_trial": 63, "dateTime": 1510860316708, "trialdata": {"rt": -1, "stimulus": "<p id=\"stim\">FOREST</p>", "key_press": -1, "type": "PRES_VIS", "word": "forest", "wordID": 592, "conditions": [18, 1200, "v", 18000], "trial": 0, "serialpos": 1, "trial_type": "single-stim", "trial_index": 22, "time_elapsed": 98086, "internal_node_id": "0.0-13.0"}}, {"uniqueid": "MTK0407:326O153BMJ5X6E10THMEWR6SOJCDEN", "current_trial": 64, "dateTime": 1510860318881, "trialdata": {"rt": -1, "stimulus": "<p id=\"stim\">BOYFRIEND</p>", "key_press": -1, "type": "PRES_VIS", "word": "boyfriend", "wordID": 161, "conditions": [18, 1200, "v", 18000], "trial": 0, "serialpos": 2, "trial_type": "single-stim", "trial_index": 23, "time_elapsed": 100259, "internal_node_id": "0.0-14.0"}}, {"uniqueid": "MTK0407:326O153BMJ5X6E10THMEWR6SOJCDEN", "current_trial": 65, "dateTime": 1510860321039, "trialdata": {"rt": -1, "stimulus": "<p id=\"stim\">LACE</p>", "key_press": -1, "type": "PRES_VIS", "word": "lace", "wordID": 791, "conditions": [18, 1200, "v", 18000], "trial": 0, "serialpos": 3, "trial_type": "single-stim", "trial_index": 24, "time_elapsed": 102417, "internal_node_id": "0.0-15.0"}}, {"uniqueid": "MTK0407:326O153BMJ5X6E10THMEWR6SOJCDEN", "current_trial": 66, "dateTime": 1510860323364, "trialdata": {"rt": -1, "stimulus": "<p id=\"stim\">FLOWER</p>", "key_press": -1, "type": "PRES_VIS", "word": "flower", "wordID": 583, "conditions": [18, 1200, "v", 18000], "trial": 0, "serialpos": 4, "trial_type": "single-stim", "trial_index": 25, "time_elapsed": 104742, "internal_node_id": "0.0-16.0"}}, {"uniqueid": "MTK0407:326O153BMJ5X6E10THMEWR6SOJCDEN", "current_trial": 67, "dateTime": 1510860325599, "trialdata": {"rt": -1, "stimulus": "<p id=\"stim\">FIREMAN</p>", "key_press": -1, "type": "PRES_VIS", "word": "fireman", "wordID": 568, "conditions": [18, 1200, "v", 18000], "trial": 0, "serialpos": 5, "trial_type": "single-stim", "trial_index": 26, "time_elapsed": 106977, "internal_node_id": "0.0-17.0"}}, {"uniqueid": "MTK0407:326O153BMJ5X6E10THMEWR6SOJCDEN", "current_trial": 68, "dateTime": 1510860327788, "trialdata": {"rt": -1, "stimulus": "<p id=\"stim\">BISON</p>", "key_press": -1, "type": "PRES_VIS", "word": "bison", "wordID": 130, "conditions": [18, 1200, "v", 18000], "trial": 0, "serialpos": 6, "trial_type": "single-stim", "trial_index": 27, "time_elapsed": 109167, "internal_node_id": "0.0-18.0"}}, {"uniqueid": "MTK0407:326O153BMJ5X6E10THMEWR6SOJCDEN", "current_trial": 69, "dateTime": 1510860329988, "trialdata": {"rt": -1, "stimulus": "<p id=\"stim\">BIKE</p>", "key_press": -1, "type": "PRES_VIS", "word": "bike", "wordID": 124, "conditions": [18, 1200, "v", 18000], "trial": 0, "serialpos": 7, "trial_type": "single-stim", "trial_index": 28, "time_elapsed": 111366, "internal_node_id": "0.0-19.0"}}, {"uniqueid": "MTK0407:326O153BMJ5X6E10THMEWR6SOJCDEN", "current_trial": 70, "dateTime": 1510860332314, "trialdata": {"rt": -1, "stimulus": "<p id=\"stim\">OINTMENT</p>", "key_press": -1, "type": "PRES_VIS", "word": "ointment", "wordID": 973, "conditions": [18, 1200, "v", 18000], "trial": 0, "serialpos": 8, "trial_type": "single-stim", "trial_index": 29, "time_elapsed": 113693, "internal_node_id": "0.0-20.0"}}, {"uniqueid": "MTK0407:326O153BMJ5X6E10THMEWR6SOJCDEN", "current_trial": 71, "dateTime": 1510860334569, "trialdata": {"rt": -1, "stimulus": "<p id=\"stim\">LION</p>", "key_press": -1, "type": "PRES_VIS", "word": "lion", "wordID": 826, "conditions": [18, 1200, "v", 18000], "trial": 0, "serialpos": 9, "trial_type": "single-stim", "trial_index": 30, "time_elapsed": 115948, "internal_node_id": "0.0-21.0"}}, {"uniqueid": "MTK0407:326O153BMJ5X6E10THMEWR6SOJCDEN", "current_trial": 72, "dateTime": 1510860336680, "trialdata": {"rt": -1, "stimulus": "<p id=\"stim\">FLIPPER</p>", "key_press": -1, "type": "PRES_VIS", "word": "flipper", "wordID": 579, "conditions": [18, 1200, "v", 18000], "trial": 0, "serialpos": 10, "trial_type": "single-stim", "trial_index": 31, "time_elapsed": 118058, "internal_node_id": "0.0-22.0"}}, {"uniqueid": "MTK0407:326O153BMJ5X6E10THMEWR6SOJCDEN", "current_trial": 73, "dateTime": 1510860338865, "trialdata": {"rt": -1, "stimulus": "<p id=\"stim\">FARMER</p>", "key_press": -1, "type": "PRES_VIS", "word": "farmer", "wordID": 552, "conditions": [18, 1200, "v", 18000], "trial": 0, "serialpos": 11, "trial_type": "single-stim", "trial_index": 32, "time_elapsed": 120244, "internal_node_id": "0.0-23.0"}}, {"uniqueid": "MTK0407:326O153BMJ5X6E10THMEWR6SOJCDEN", "current_trial": 74, "dateTime": 1510860340895, "trialdata": {"rt": -1, "stimulus": "<p id=\"stim\">CHEMIST</p>", "key_press": -1, "type": "PRES_VIS", "word": "chemist", "wordID": 291, "conditions": [18, 1200, "v", 18000], "trial": 0, "serialpos": 12, "trial_type": "single-stim", "trial_index": 33, "time_elapsed": 122273, "internal_node_id": "0.0-24.0"}}, {"uniqueid": "MTK0407:326O153BMJ5X6E10THMEWR6SOJCDEN", "current_trial": 75, "dateTime": 1510860342965, "trialdata": {"rt": -1, "stimulus": "<p id=\"stim\">ANKLE</p>", "key_press": -1, "type": "PRES_VIS", "word": "ankle", "wordID": 23, "conditions": [18, 1200, "v", 18000], "trial": 0, "serialpos": 13, "trial_type": "single-stim", "trial_index": 34, "time_elapsed": 124343, "internal_node_id": "0.0-25.0"}}, {"uniqueid": "MTK0407:326O153BMJ5X6E10THMEWR6SOJCDEN", "current_trial": 76, "dateTime": 1510860345023, "trialdata": {"rt": -1, "stimulus": "<p id=\"stim\">PASTA</p>", "key_press": -1, "type": "PRES_VIS", "word": "pasta", "wordID": 1020, "conditions": [18, 1200, "v", 18000], "trial": 0, "serialpos": 14, "trial_type": "single-stim", "trial_index": 35, "time_elapsed": 126401, "internal_node_id": "0.0-26.0"}}, {"uniqueid": "MTK0407:326O153BMJ5X6E10THMEWR6SOJCDEN", "current_trial": 77, "dateTime": 1510860347202, "trialdata": {"rt": -1, "stimulus": "<p id=\"stim\">TART</p>", "key_press": -1, "type": "PRES_VIS", "word": "tart", "wordID": 1435, "conditions": [18, 1200, "v", 18000], "trial": 0, "serialpos": 15, "trial_type": "single-stim", "trial_index": 36, "time_elapsed": 128581, "internal_node_id": "0.0-27.0"}}, {"uniqueid": "MTK0407:326O153BMJ5X6E10THMEWR6SOJCDEN", "current_trial": 78, "dateTime": 1510860349316, "trialdata": {"rt": -1, "stimulus": "<p id=\"stim\">OFFICE</p>", "key_press": -1, "type": "PRES_VIS", "word": "office", "wordID": 971, "conditions": [18, 1200, "v", 18000], "trial": 0, "serialpos": 16, "trial_type": "single-stim", "trial_index": 37, "time_elapsed": 130695, "internal_node_id": "0.0-28.0"}}, {"uniqueid": "MTK0407:326O153BMJ5X6E10THMEWR6SOJCDEN", "current_trial": 79, "dateTime": 1510860351386, "trialdata": {"rt": -1, "stimulus": "<p id=\"stim\">SERVANT</p>", "key_press": -1, "type": "PRES_VIS", "word": "servant", "wordID": 1270, "conditions": [18, 1200, "v", 18000], "trial": 0, "serialpos": 17, "trial_type": "single-stim", "trial_index": 38, "time_elapsed": 132764, "internal_node_id": "0.0-29.0"}}, {"uniqueid": "MTK0407:326O153BMJ5X6E10THMEWR6SOJCDEN", "current_trial": 80, "dateTime": 1510860353617, "trialdata": {"rt": -1, "stimulus": "", "key_press": -1, "type": "PRE_RECALL_DELAY", "trial_type": "single-stim", "trial_index": 39, "time_elapsed": 134995, "internal_node_id": "0.0-30.0-0.0"}}, {"uniqueid": "MTK0407:326O153BMJ5X6E10THMEWR6SOJCDEN", "current_trial": 81, "dateTime": 1510860354121, "trialdata": {"rt": -1000, "stimulus": "/static/audio/400Hz.wav", "key_press": -1, "type": "PRE_RECALL_ALERT", "trial_type": "single-audio", "trial_index": 40, "time_elapsed": 135500, "internal_node_id": "0.0-31.0"}}, {"uniqueid": "MTK0407:326O153BMJ5X6E10THMEWR6SOJCDEN", "current_trial": 82, "dateTime": 1510860414131, "trialdata": {"rt": [14225, 17525, 20799, 25320, 27499, 31271, 34919, 39307, 47085, 50247, 57633], "recwords": ["lace", "office", "flower", "flipper", "lion", "flower", "scalpel", "forest", "bison", "bike", "past"], "type": "FREE_RECALL", "conditions": [18, 1200, "v", 18000], "trial": 0, "trial_type": "free-recall", "trial_index": 41, "time_elapsed": 195507, "internal_node_id": "0.0-32.0-0.0"}}, {"uniqueid": "MTK0407:326O153BMJ5X6E10THMEWR6SOJCDEN", "current_trial": 83, "dateTime": 1510860417429, "trialdata": {"rt": 1296, "key_press": 13, "type": "INSTRUCTIONS", "trial_type": "text", "trial_index": 42, "time_elapsed": 198807, "internal_node_id": "0.0-33.0"}}, {"uniqueid": "MTK0407:326O153BMJ5X6E10THMEWR6SOJCDEN", "current_trial": 84, "dateTime": 1510860437434, "trialdata": {"rt": [5942, 10688, 14880, 16943], "responses": ["19", "19", "21", "11"], "num1": [6, 4, 9, 2, 2], "num2": [9, 8, 5, 5, 3], "num3": [4, 7, 7, 4, 7], "type": "DISTRACTOR", "conditions": [18, 1200, "a", 18000], "trial": 1, "trial_type": "math-distractor", "trial_index": 43, "time_elapsed": 218813, "internal_node_id": "0.0-34.0"}}, {"uniqueid": "MTK0407:326O153BMJ5X6E10THMEWR6SOJCDEN", "current_trial": 85, "dateTime": 1510860440438, "trialdata": {"rt": -1, "stimulus": "<p id=\"stim\">10</p>", "key_press": -1, "trial_type": "single-stim", "trial_index": 44, "time_elapsed": 221816, "internal_node_id": "0.0-35.0-0.0"}}, {"uniqueid": "MTK0407:326O153BMJ5X6E10THMEWR6SOJCDEN", "current_trial": 86, "dateTime": 1510860441440, "trialdata": {"rt": -1, "stimulus": "<p id=\"stim\">9</p>", "key_press": -1, "trial_type": "single-stim", "trial_index": 45, "time_elapsed": 222818, "internal_node_id": "0.0-35.0-1.0"}}, {"uniqueid": "MTK0407:326O153BMJ5X6E10THMEWR6SOJCDEN", "current_trial": 87, "dateTime": 1510860442443, "trialdata": {"rt": -1, "stimulus": "<p id=\"stim\">8</p>", "key_press": -1, "trial_type": "single-stim", "trial_index": 46, "time_elapsed": 223821, "internal_node_id": "0.0-35.0-2.0"}}, {"uniqueid": "MTK0407:326O153BMJ5X6E10THMEWR6SOJCDEN", "current_trial": 88, "dateTime": 1510860443445, "trialdata": {"rt": -1, "stimulus": "<p id=\"stim\">7</p>", "key_press": -1, "trial_type": "single-stim", "trial_index": 47, "time_elapsed": 224823, "internal_node_id": "0.0-35.0-3.0"}}, {"uniqueid": "MTK0407:326O153BMJ5X6E10THMEWR6SOJCDEN", "current_trial": 89, "dateTime": 1510860444447, "trialdata": {"rt": -1, "stimulus": "<p id=\"stim\">6</p>", "key_press": -1, "trial_type": "single-stim", "trial_index": 48, "time_elapsed": 225825, "internal_node_id": "0.0-35.0-4.0"}}, {"uniqueid": "MTK0407:326O153BMJ5X6E10THMEWR6SOJCDEN", "current_trial": 90, "dateTime": 1510860445449, "trialdata": {"rt": -1, "stimulus": "<p id=\"stim\">5</p>", "key_press": -1, "trial_type": "single-stim", "trial_index": 49, "time_elapsed": 226827, "internal_node_id": "0.0-35.0-5.0"}}, {"uniqueid": "MTK0407:326O153BMJ5X6E10THMEWR6SOJCDEN", "current_trial": 91, "dateTime": 1510860446451, "trialdata": {"rt": -1, "stimulus": "<p id=\"stim\">4</p>", "key_press": -1, "trial_type": "single-stim", "trial_index": 50, "time_elapsed": 227829, "internal_node_id": "0.0-35.0-6.0"}}, {"uniqueid": "MTK0407:326O153BMJ5X6E10THMEWR6SOJCDEN", "current_trial": 92, "dateTime": 1510860447452, "trialdata": {"rt": -1, "stimulus": "<p id=\"stim\">3</p>", "key_press": -1, "trial_type": "single-stim", "trial_index": 51, "time_elapsed": 228831, "internal_node_id": "0.0-35.0-7.0"}}, {"uniqueid": "MTK0407:326O153BMJ5X6E10THMEWR6SOJCDEN", "current_trial": 93, "dateTime": 1510860448455, "trialdata": {"rt": -1, "stimulus": "<p id=\"stim\">2</p>", "key_press": -1, "trial_type": "single-stim", "trial_index": 52, "time_elapsed": 229834, "internal_node_id": "0.0-35.0-8.0"}}, {"uniqueid": "MTK0407:326O153BMJ5X6E10THMEWR6SOJCDEN", "current_trial": 94, "dateTime": 1510860449457, "trialdata": {"rt": -1, "stimulus": "<p id=\"stim\">1</p>", "key_press": -1, "trial_type": "single-stim", "trial_index": 53, "time_elapsed": 230835, "internal_node_id": "0.0-35.0-9.0"}}, {"uniqueid": "MTK0407:326O153BMJ5X6E10THMEWR6SOJCDEN", "current_trial": 95, "dateTime": 1510860450959, "trialdata": {"rt": -1, "stimulus": "<p id=\"stim\">+</p>", "key_press": -1, "type": "FIXATION", "trial_type": "single-stim", "trial_index": 54, "time_elapsed": 232337, "internal_node_id": "0.0-36.0-0.0"}}, {"uniqueid": "MTK0407:326O153BMJ5X6E10THMEWR6SOJCDEN", "current_trial": 96, "dateTime": 1510860453085, "trialdata": {"rt": -1000, "stimulus": "/static/audio/wordpool/PALACE.wav", "key_press": -1, "type": "PRES_AUD", "word": "palace", "wordID": 1005, "conditions": [18, 1200, "a", 18000], "trial": 1, "serialpos": 0, "trial_type": "single-audio", "trial_index": 55, "time_elapsed": 234464, "internal_node_id": "0.0-37.0"}}, {"uniqueid": "MTK0407:326O153BMJ5X6E10THMEWR6SOJCDEN", "current_trial": 97, "dateTime": 1510860455281, "trialdata": {"rt": 1862.0861678004417, "stimulus": "/static/audio/wordpool/VAGRANT.wav", "key_press": 13, "type": "PRES_AUD", "word": "vagrant", "wordID": 1543, "conditions": [18, 1200, "a", 18000], "trial": 1, "serialpos": 1, "trial_type": "single-audio", "trial_index": 56, "time_elapsed": 236660, "internal_node_id": "0.0-38.0"}}, {"uniqueid": "MTK0407:326O153BMJ5X6E10THMEWR6SOJCDEN", "current_trial": 98, "dateTime": 1510860457379, "trialdata": {"rt": -1000, "stimulus": "/static/audio/wordpool/MILK.wav", "key_press": -1, "type": "PRES_AUD", "word": "milk", "wordID": 894, "conditions": [18, 1200, "a", 18000], "trial": 1, "serialpos": 2, "trial_type": "single-audio", "trial_index": 57, "time_elapsed": 238758, "internal_node_id": "0.0-39.0"}}, {"uniqueid": "MTK0407:326O153BMJ5X6E10THMEWR6SOJCDEN", "current_trial": 99, "dateTime": 1510860459392, "trialdata": {"rt": -1000, "stimulus": "/static/audio/wordpool/PATROL.wav", "key_press": -1, "type": "PRES_AUD", "word": "patrol", "wordID": 1026, "conditions": [18, 1200, "a", 18000], "trial": 1, "serialpos": 3, "trial_type": "single-audio", "trial_index": 58, "time_elapsed": 240770, "internal_node_id": "0.0-40.0"}}, {"uniqueid": "MTK0407:326O153BMJ5X6E10THMEWR6SOJCDEN", "current_trial": 100, "dateTime": 1510860461712, "trialdata": {"rt": -1000, "stimulus": "/static/audio/wordpool/CYCLONE.wav", "key_press": -1, "type": "PRES_AUD", "word": "cyclone", "wordID": 430, "conditions": [18, 1200, "a", 18000], "trial": 1, "serialpos": 4, "trial_type": "single-audio", "trial_index": 59, "time_elapsed": 243091, "internal_node_id": "0.0-41.0"}}, {"uniqueid": "MTK0407:326O153BMJ5X6E10THMEWR6SOJCDEN", "current_trial": 101, "dateTime": 1510860463997, "trialdata": {"rt": 619.8185941043164, "stimulus": "/static/audio/wordpool/LUMBER.wav", "key_press": 13, "type": "PRES_AUD", "word": "lumber", "wordID": 847, "conditions": [18, 1200, "a", 18000], "trial": 1, "serialpos": 5, "trial_type": "single-audio", "trial_index": 60, "time_elapsed": 245376, "internal_node_id": "0.0-42.0"}}, {"uniqueid": "MTK0407:326O153BMJ5X6E10THMEWR6SOJCDEN", "current_trial": 102, "dateTime": 1510860466111, "trialdata": {"rt": -1000, "stimulus": "/static/audio/wordpool/HEADBAND.wav", "key_press": -1, "type": "PRES_AUD", "word": "headband", "wordID": 695, "conditions": [18, 1200, "a", 18000], "trial": 1, "serialpos": 6, "trial_type": "single-audio", "trial_index": 61, "time_elapsed": 247490, "internal_node_id": "0.0-43.0"}}, {"uniqueid": "MTK0407:326O153BMJ5X6E10THMEWR6SOJCDEN", "current_trial": 103, "dateTime": 1510860468299, "trialdata": {"rt": -1000, "stimulus": "/static/audio/wordpool/SADDLE.wav", "key_press": -1, "type": "PRES_AUD", "word": "saddle", "wordID": 1220, "conditions": [18, 1200, "a", 18000], "trial": 1, "serialpos": 7, "trial_type": "single-audio", "trial_index": 62, "time_elapsed": 249678, "internal_node_id": "0.0-44.0"}}, {"uniqueid": "MTK0407:326O153BMJ5X6E10THMEWR6SOJCDEN", "current_trial": 104, "dateTime": 1510860470546, "trialdata": {"rt": -1000, "stimulus": "/static/audio/wordpool/SCARF.wav", "key_press": -1, "type": "PRES_AUD", "word": "scarf", "wordID": 1245, "conditions": [18, 1200, "a", 18000], "trial": 1, "serialpos": 8, "trial_type": "single-audio", "trial_index": 63, "time_elapsed": 251925, "internal_node_id": "0.0-45.0"}}, {"uniqueid": "MTK0407:326O153BMJ5X6E10THMEWR6SOJCDEN", "current_trial": 105, "dateTime": 1510860472816, "trialdata": {"rt": -1000, "stimulus": "/static/audio/wordpool/MISTER.wav", "key_press": -1, "type": "PRES_AUD", "word": "mister", "wordID": 900, "conditions": [18, 1200, "a", 18000], "trial": 1, "serialpos": 9, "trial_type": "single-audio", "trial_index": 64, "time_elapsed": 254195, "internal_node_id": "0.0-46.0"}}, {"uniqueid": "MTK0407:326O153BMJ5X6E10THMEWR6SOJCDEN", "current_trial": 106, "dateTime": 1510860475049, "trialdata": {"rt": -1000, "stimulus": "/static/audio/wordpool/ULCER.wav", "key_press": -1, "type": "PRES_AUD", "word": "ulcer", "wordID": 1532, "conditions": [18, 1200, "a", 18000], "trial": 1, "serialpos": 10, "trial_type": "single-audio", "trial_index": 65, "time_elapsed": 256428, "internal_node_id": "0.0-47.0"}}, {"uniqueid": "MTK0407:326O153BMJ5X6E10THMEWR6SOJCDEN", "current_trial": 107, "dateTime": 1510860477112, "trialdata": {"rt": -1000, "stimulus": "/static/audio/wordpool/FRIEND.wav", "key_press": -1, "type": "PRES_AUD", "word": "friend", "wordID": 605, "conditions": [18, 1200, "a", 18000], "trial": 1, "serialpos": 11, "trial_type": "single-audio", "trial_index": 66, "time_elapsed": 258491, "internal_node_id": "0.0-48.0"}}, {"uniqueid": "MTK0407:326O153BMJ5X6E10THMEWR6SOJCDEN", "current_trial": 108, "dateTime": 1510860479171, "trialdata": {"rt": 376.00907029479913, "stimulus": "/static/audio/wordpool/JURY.wav", "key_press": 32, "type": "PRES_AUD", "word": "jury", "wordID": 765, "conditions": [18, 1200, "a", 18000], "trial": 1, "serialpos": 12, "trial_type": "single-audio", "trial_index": 67, "time_elapsed": 260550, "internal_node_id": "0.0-49.0"}}, {"uniqueid": "MTK0407:326O153BMJ5X6E10THMEWR6SOJCDEN", "current_trial": 109, "dateTime": 1510860481334, "trialdata": {"rt": 123.49206349205133, "stimulus": "/static/audio/wordpool/OZONE.wav", "key_press": 13, "type": "PRES_AUD", "word": "ozone", "wordID": 995, "conditions": [18, 1200, "a", 18000], "trial": 1, "serialpos": 13, "trial_type": "single-audio", "trial_index": 68, "time_elapsed": 262711, "internal_node_id": "0.0-50.0"}}, {"uniqueid": "MTK0407:326O153BMJ5X6E10THMEWR6SOJCDEN", "current_trial": 110, "dateTime": 1510860483573, "trialdata": {"rt": 286.03174603171055, "stimulus": "/static/audio/wordpool/GRAVEL.wav", "key_press": 68, "type": "PRES_AUD", "word": "gravel", "wordID": 658, "conditions": [18, 1200, "a", 18000], "trial": 1, "serialpos": 14, "trial_type": "single-audio", "trial_index": 69, "time_elapsed": 264952, "internal_node_id": "0.0-51.0"}}, {"uniqueid": "MTK0407:326O153BMJ5X6E10THMEWR6SOJCDEN", "current_trial": 111, "dateTime": 1510860485897, "trialdata": {"rt": 407.9365079364834, "stimulus": "/static/audio/wordpool/AWARD.wav", "key_press": 71, "type": "PRES_AUD", "word": "award", "wordID": 62, "conditions": [18, 1200, "a", 18000], "trial": 1, "serialpos": 15, "trial_type": "single-audio", "trial_index": 70, "time_elapsed": 267276, "internal_node_id": "0.0-52.0"}}, {"uniqueid": "MTK0407:326O153BMJ5X6E10THMEWR6SOJCDEN", "current_trial": 112, "dateTime": 1510860488126, "trialdata": {"rt": -1000, "stimulus": "/static/audio/wordpool/CLIMBER.wav", "key_press": -1, "type": "PRES_AUD", "word": "climber", "wordID": 322, "conditions": [18, 1200, "a", 18000], "trial": 1, "serialpos": 16, "trial_type": "single-audio", "trial_index": 71, "time_elapsed": 269505, "internal_node_id": "0.0-53.0"}}, {"uniqueid": "MTK0407:326O153BMJ5X6E10THMEWR6SOJCDEN", "current_trial": 113, "dateTime": 1510860490383, "trialdata": {"rt": -1000, "stimulus": "/static/audio/wordpool/BACON.wav", "key_press": -1, "type": "PRES_AUD", "word": "bacon", "wordID": 66, "conditions": [18, 1200, "a", 18000], "trial": 1, "serialpos": 17, "trial_type": "single-audio", "trial_index": 72, "time_elapsed": 271762, "internal_node_id": "0.0-54.0"}}, {"uniqueid": "MTK0407:326O153BMJ5X6E10THMEWR6SOJCDEN", "current_trial": 114, "dateTime": 1510860491613, "trialdata": {"rt": -1, "stimulus": "", "key_press": -1, "type": "PRE_RECALL_DELAY", "trial_type": "single-stim", "trial_index": 73, "time_elapsed": 272992, "internal_node_id": "0.0-55.0-0.0"}}, {"uniqueid": "MTK0407:326O153BMJ5X6E10THMEWR6SOJCDEN", "current_trial": 115, "dateTime": 1510860492115, "trialdata": {"rt": -1000, "stimulus": "/static/audio/400Hz.wav", "key_press": -1, "type": "PRE_RECALL_ALERT", "trial_type": "single-audio", "trial_index": 74, "time_elapsed": 273493, "internal_node_id": "0.0-56.0"}}, {"uniqueid": "MTK0407:326O153BMJ5X6E10THMEWR6SOJCDEN", "current_trial": 116, "dateTime": 1510860552124, "trialdata": {"rt": [16016, 21728, 23930, 26533, 36794, 43688, 47084, 53115, 56486, 59555], "recwords": ["lion", "lace", "bison", "pasta", "boyfriend", "tart", "office", "farmer", "bike", "bison"], "type": "FREE_RECALL", "conditions": [18, 1200, "a", 18000], "trial": 1, "trial_type": "free-recall", "trial_index": 75, "time_elapsed": 333499, "internal_node_id": "0.0-57.0-0.0"}}, {"uniqueid": "MTK0407:326O153BMJ5X6E10THMEWR6SOJCDEN", "current_trial": 117, "dateTime": 1510860558222, "trialdata": {"rt": 4089, "key_press": 13, "type": "INSTRUCTIONS", "trial_type": "text", "trial_index": 76, "time_elapsed": 339594, "internal_node_id": "0.0-58.0"}}, {"uniqueid": "MTK0407:326O153BMJ5X6E10THMEWR6SOJCDEN", "current_trial": 118, "dateTime": 1510860583227, "trialdata": {"rt": [6191, 8871, 11145, 13320, 16144, 19204], "responses": ["14", "9", "18", "14", "17", "19"], "num1": [1, 1, 3, 4, 6, 7, 6], "num2": [7, 5, 7, 4, 8, 7, 9], "num3": [6, 3, 8, 5, 3, 5, 3], "type": "DISTRACTOR", "conditions": [24, 1600, "v", 24000], "trial": 2, "trial_type": "math-distractor", "trial_index": 77, "time_elapsed": 364606, "internal_node_id": "0.0-59.0"}}, {"uniqueid": "MTK0407:326O153BMJ5X6E10THMEWR6SOJCDEN", "current_trial": 119, "dateTime": 1510860586230, "trialdata": {"rt": -1, "stimulus": "<p id=\"stim\">10</p>", "key_press": -1, "trial_type": "single-stim", "trial_index": 78, "time_elapsed": 367608, "internal_node_id": "0.0-60.0-0.0"}}, {"uniqueid": "MTK0407:326O153BMJ5X6E10THMEWR6SOJCDEN", "current_trial": 120, "dateTime": 1510860587232, "trialdata": {"rt": -1, "stimulus": "<p id=\"stim\">9</p>", "key_press": -1, "trial_type": "single-stim", "trial_index": 79, "time_elapsed": 368610, "internal_node_id": "0.0-60.0-1.0"}}, {"uniqueid": "MTK0407:326O153BMJ5X6E10THMEWR6SOJCDEN", "current_trial": 121, "dateTime": 1510860588234, "trialdata": {"rt": -1, "stimulus": "<p id=\"stim\">8</p>", "key_press": -1, "trial_type": "single-stim", "trial_index": 80, "time_elapsed": 369612, "internal_node_id": "0.0-60.0-2.0"}}, {"uniqueid": "MTK0407:326O153BMJ5X6E10THMEWR6SOJCDEN", "current_trial": 122, "dateTime": 1510860589236, "trialdata": {"rt": -1, "stimulus": "<p id=\"stim\">7</p>", "key_press": -1, "trial_type": "single-stim", "trial_index": 81, "time_elapsed": 370614, "internal_node_id": "0.0-60.0-3.0"}}, {"uniqueid": "MTK0407:326O153BMJ5X6E10THMEWR6SOJCDEN", "current_trial": 123, "dateTime": 1510860590238, "trialdata": {"rt": -1, "stimulus": "<p id=\"stim\">6</p>", "key_press": -1, "trial_type": "single-stim", "trial_index": 82, "time_elapsed": 371616, "internal_node_id": "0.0-60.0-4.0"}}, {"uniqueid": "MTK0407:326O153BMJ5X6E10THMEWR6SOJCDEN", "current_trial": 124, "dateTime": 1510860591240, "trialdata": {"rt": -1, "stimulus": "<p id=\"stim\">5</p>", "key_press": -1, "trial_type": "single-stim", "trial_index": 83, "time_elapsed": 372618, "internal_node_id": "0.0-60.0-5.0"}}, {"uniqueid": "MTK0407:326O153BMJ5X6E10THMEWR6SOJCDEN", "current_trial": 125, "dateTime": 1510860592242, "trialdata": {"rt": -1, "stimulus": "<p id=\"stim\">4</p>", "key_press": -1, "trial_type": "single-stim", "trial_index": 84, "time_elapsed": 373620, "internal_node_id": "0.0-60.0-6.0"}}, {"uniqueid": "MTK0407:326O153BMJ5X6E10THMEWR6SOJCDEN", "current_trial": 126, "dateTime": 1510860593244, "trialdata": {"rt": -1, "stimulus": "<p id=\"stim\">3</p>", "key_press": -1, "trial_type": "single-stim", "trial_index": 85, "time_elapsed": 374623, "internal_node_id": "0.0-60.0-7.0"}}, {"uniqueid": "MTK0407:326O153BMJ5X6E10THMEWR6SOJCDEN", "current_trial": 127, "dateTime": 1510860594247, "trialdata": {"rt": -1, "stimulus": "<p id=\"stim\">2</p>", "key_press": -1, "trial_type": "single-stim", "trial_index": 86, "time_elapsed": 375625, "internal_node_id": "0.0-60.0-8.0"}}, {"uniqueid": "MTK0407:326O153BMJ5X6E10THMEWR6SOJCDEN", "current_trial": 128, "dateTime": 1510860595249, "trialdata": {"rt": -1, "stimulus": "<p id=\"stim\">1</p>", "key_press": -1, "trial_type": "single-stim", "trial_index": 87, "time_elapsed": 376627, "internal_node_id": "0.0-60.0-9.0"}}, {"uniqueid": "MTK0407:326O153BMJ5X6E10THMEWR6SOJCDEN", "current_trial": 129, "dateTime": 1510860596755, "trialdata": {"rt": -1, "stimulus": "<p id=\"stim\">+</p>", "key_press": -1, "type": "FIXATION", "trial_type": "single-stim", "trial_index": 88, "time_elapsed": 378134, "internal_node_id": "0.0-61.0-0.0"}}, {"uniqueid": "MTK0407:326O153BMJ5X6E10THMEWR6SOJCDEN", "current_trial": 130, "dateTime": 1510860598356, "trialdata": {"rt": -1, "stimulus": "<p id=\"stim\">GIFT</p>", "key_press": -1, "type": "PRES_VIS", "word": "gift", "wordID": 634, "conditions": [24, 1600, "v", 24000], "trial": 2, "serialpos": 0, "trial_type": "single-stim", "trial_index": 89, "time_elapsed": 379735, "internal_node_id": "0.0-62.0"}}, {"uniqueid": "MTK0407:326O153BMJ5X6E10THMEWR6SOJCDEN", "current_trial": 131, "dateTime": 1510860600871, "trialdata": {"rt": -1, "stimulus": "<p id=\"stim\">VIRUS</p>", "key_press": -1, "type": "PRES_VIS", "word": "virus", "wordID": 1571, "conditions": [24, 1600, "v", 24000], "trial": 2, "serialpos": 1, "trial_type": "single-stim", "trial_index": 90, "time_elapsed": 382250, "internal_node_id": "0.0-63.0"}}, {"uniqueid": "MTK0407:326O153BMJ5X6E10THMEWR6SOJCDEN", "current_trial": 132, "dateTime": 1510860603595, "trialdata": {"rt": -1, "stimulus": "<p id=\"stim\">BUG</p>", "key_press": -1, "type": "PRES_VIS", "word": "bug", "wordID": 186, "conditions": [24, 1600, "v", 24000], "trial": 2, "serialpos": 2, "trial_type": "single-stim", "trial_index": 91, "time_elapsed": 384970, "internal_node_id": "0.0-64.0"}}, {"uniqueid": "MTK0407:326O153BMJ5X6E10THMEWR6SOJCDEN", "current_trial": 133, "dateTime": 1510860605998, "trialdata": {"rt": -1, "stimulus": "<p id=\"stim\">GROUND</p>", "key_press": -1, "type": "PRES_VIS", "word": "ground", "wordID": 665, "conditions": [24, 1600, "v", 24000], "trial": 2, "serialpos": 3, "trial_type": "single-stim", "trial_index": 92, "time_elapsed": 387377, "internal_node_id": "0.0-65.0"}}, {"uniqueid": "MTK0407:326O153BMJ5X6E10THMEWR6SOJCDEN", "current_trial": 134, "dateTime": 1510860608419, "trialdata": {"rt": -1, "stimulus": "<p id=\"stim\">COUNTRY</p>", "key_press": -1, "type": "PRES_VIS", "word": "country", "wordID": 387, "conditions": [24, 1600, "v", 24000], "trial": 2, "serialpos": 4, "trial_type": "single-stim", "trial_index": 93, "time_elapsed": 389798, "internal_node_id": "0.0-66.0"}}, {"uniqueid": "MTK0407:326O153BMJ5X6E10THMEWR6SOJCDEN", "current_trial": 135, "dateTime": 1510860611079, "trialdata": {"rt": -1, "stimulus": "<p id=\"stim\">SHRUB</p>", "key_press": -1, "type": "PRES_VIS", "word": "shrub", "wordID": 1298, "conditions": [24, 1600, "v", 24000], "trial": 2, "serialpos": 5, "trial_type": "single-stim", "trial_index": 94, "time_elapsed": 392457, "internal_node_id": "0.0-67.0"}}, {"uniqueid": "MTK0407:326O153BMJ5X6E10THMEWR6SOJCDEN", "current_trial": 136, "dateTime": 1510860613764, "trialdata": {"rt": -1, "stimulus": "<p id=\"stim\">COSTUME</p>", "key_press": -1, "type": "PRES_VIS", "word": "costume", "wordID": 382, "conditions": [24, 1600, "v", 24000], "trial": 2, "serialpos": 6, "trial_type": "single-stim", "trial_index": 95, "time_elapsed": 395143, "internal_node_id": "0.0-68.0"}}, {"uniqueid": "MTK0407:326O153BMJ5X6E10THMEWR6SOJCDEN", "current_trial": 137, "dateTime": 1510860616490, "trialdata": {"rt": -1, "stimulus": "<p id=\"stim\">WASP</p>", "key_press": -1, "type": "PRES_VIS", "word": "wasp", "wordID": 1592, "conditions": [24, 1600, "v", 24000], "trial": 2, "serialpos": 7, "trial_type": "single-stim", "trial_index": 96, "time_elapsed": 397868, "internal_node_id": "0.0-69.0"}}, {"uniqueid": "MTK0407:326O153BMJ5X6E10THMEWR6SOJCDEN", "current_trial": 138, "dateTime": 1510860618971, "trialdata": {"rt": -1, "stimulus": "<p id=\"stim\">SUITCASE</p>", "key_press": -1, "type": "PRES_VIS", "word": "suitcase", "wordID": 1402, "conditions": [24, 1600, "v", 24000], "trial": 2, "serialpos": 8, "trial_type": "single-stim", "trial_index": 97, "time_elapsed": 400350, "internal_node_id": "0.0-70.0"}}, {"uniqueid": "MTK0407:326O153BMJ5X6E10THMEWR6SOJCDEN", "current_trial": 139, "dateTime": 1510860621475, "trialdata": {"rt": -1, "stimulus": "<p id=\"stim\">SHORTS</p>", "key_press": -1, "type": "PRES_VIS", "word": "shorts", "wordID": 1292, "conditions": [24, 1600, "v", 24000], "trial": 2, "serialpos": 9, "trial_type": "single-stim", "trial_index": 98, "time_elapsed": 402854, "internal_node_id": "0.0-71.0"}}, {"uniqueid": "MTK0407:326O153BMJ5X6E10THMEWR6SOJCDEN", "current_trial": 140, "dateTime": 1510860624139, "trialdata": {"rt": -1, "stimulus": "<p id=\"stim\">GARDEN</p>", "key_press": -1, "type": "PRES_VIS", "word": "garden", "wordID": 622, "conditions": [24, 1600, "v", 24000], "trial": 2, "serialpos": 10, "trial_type": "single-stim", "trial_index": 99, "time_elapsed": 405518, "internal_node_id": "0.0-72.0"}}, {"uniqueid": "MTK0407:326O153BMJ5X6E10THMEWR6SOJCDEN", "current_trial": 141, "dateTime": 1510860626942, "trialdata": {"rt": -1, "stimulus": "<p id=\"stim\">STONE</p>", "key_press": -1, "type": "PRES_VIS", "word": "stone", "wordID": 1384, "conditions": [24, 1600, "v", 24000], "trial": 2, "serialpos": 11, "trial_type": "single-stim", "trial_index": 100, "time_elapsed": 408320, "internal_node_id": "0.0-73.0"}}, {"uniqueid": "MTK0407:326O153BMJ5X6E10THMEWR6SOJCDEN", "current_trial": 142, "dateTime": 1510860629444, "trialdata": {"rt": -1, "stimulus": "<p id=\"stim\">WOMAN</p>", "key_press": -1, "type": "PRES_VIS", "word": "woman", "wordID": 1619, "conditions": [24, 1600, "v", 24000], "trial": 2, "serialpos": 12, "trial_type": "single-stim", "trial_index": 101, "time_elapsed": 410823, "internal_node_id": "0.0-74.0"}}, {"uniqueid": "MTK0407:326O153BMJ5X6E10THMEWR6SOJCDEN", "current_trial": 143, "dateTime": 1510860631916, "trialdata": {"rt": -1, "stimulus": "<p id=\"stim\">GARLIC</p>", "key_press": -1, "type": "PRES_VIS", "word": "garlic", "wordID": 623, "conditions": [24, 1600, "v", 24000], "trial": 2, "serialpos": 13, "trial_type": "single-stim", "trial_index": 102, "time_elapsed": 413295, "internal_node_id": "0.0-75.0"}}, {"uniqueid": "MTK0407:326O153BMJ5X6E10THMEWR6SOJCDEN", "current_trial": 144, "dateTime": 1510860634455, "trialdata": {"rt": -1, "stimulus": "<p id=\"stim\">CANAL</p>", "key_press": -1, "type": "PRES_VIS", "word": "canal", "wordID": 225, "conditions": [24, 1600, "v", 24000], "trial": 2, "serialpos": 14, "trial_type": "single-stim", "trial_index": 103, "time_elapsed": 415834, "internal_node_id": "0.0-76.0"}}, {"uniqueid": "MTK0407:326O153BMJ5X6E10THMEWR6SOJCDEN", "current_trial": 145, "dateTime": 1510860636933, "trialdata": {"rt": -1, "stimulus": "<p id=\"stim\">GUARD</p>", "key_press": -1, "type": "PRES_VIS", "word": "guard", "wordID": 666, "conditions": [24, 1600, "v", 24000], "trial": 2, "serialpos": 15, "trial_type": "single-stim", "trial_index": 104, "time_elapsed": 418312, "internal_node_id": "0.0-77.0"}}, {"uniqueid": "MTK0407:326O153BMJ5X6E10THMEWR6SOJCDEN", "current_trial": 146, "dateTime": 1510860639512, "trialdata": {"rt": -1, "stimulus": "<p id=\"stim\">STALLION</p>", "key_press": -1, "type": "PRES_VIS", "word": "stallion", "wordID": 1368, "conditions": [24, 1600, "v", 24000], "trial": 2, "serialpos": 16, "trial_type": "single-stim", "trial_index": 105, "time_elapsed": 420890, "internal_node_id": "0.0-78.0"}}, {"uniqueid": "MTK0407:326O153BMJ5X6E10THMEWR6SOJCDEN", "current_trial": 147, "dateTime": 1510860642264, "trialdata": {"rt": -1, "stimulus": "<p id=\"stim\">DRINK</p>", "key_press": -1, "type": "PRES_VIS", "word": "drink", "wordID": 497, "conditions": [24, 1600, "v", 24000], "trial": 2, "serialpos": 17, "trial_type": "single-stim", "trial_index": 106, "time_elapsed": 423643, "internal_node_id": "0.0-79.0"}}, {"uniqueid": "MTK0407:326O153BMJ5X6E10THMEWR6SOJCDEN", "current_trial": 148, "dateTime": 1510860644851, "trialdata": {"rt": -1, "stimulus": "<p id=\"stim\">MAPLE</p>", "key_press": -1, "type": "PRES_VIS", "word": "maple", "wordID": 865, "conditions": [24, 1600, "v", 24000], "trial": 2, "serialpos": 18, "trial_type": "single-stim", "trial_index": 107, "time_elapsed": 426230, "internal_node_id": "0.0-80.0"}}, {"uniqueid": "MTK0407:326O153BMJ5X6E10THMEWR6SOJCDEN", "current_trial": 149, "dateTime": 1510860647394, "trialdata": {"rt": -1, "stimulus": "<p id=\"stim\">BUBBLE</p>", "key_press": -1, "type": "PRES_VIS", "word": "bubble", "wordID": 182, "conditions": [24, 1600, "v", 24000], "trial": 2, "serialpos": 19, "trial_type": "single-stim", "trial_index": 108, "time_elapsed": 428772, "internal_node_id": "0.0-81.0"}}, {"uniqueid": "MTK0407:326O153BMJ5X6E10THMEWR6SOJCDEN", "current_trial": 150, "dateTime": 1510860649830, "trialdata": {"rt": -1, "stimulus": "<p id=\"stim\">DOUGHNUT</p>", "key_press": -1, "type": "PRES_VIS", "word": "doughnut", "wordID": 489, "conditions": [24, 1600, "v", 24000], "trial": 2, "serialpos": 20, "trial_type": "single-stim", "trial_index": 109, "time_elapsed": 431209, "internal_node_id": "0.0-82.0"}}, {"uniqueid": "MTK0407:326O153BMJ5X6E10THMEWR6SOJCDEN", "current_trial": 151, "dateTime": 1510860652399, "trialdata": {"rt": -1, "stimulus": "<p id=\"stim\">LAGOON</p>", "key_press": -1, "type": "PRES_VIS", "word": "lagoon", "wordID": 794, "conditions": [24, 1600, "v", 24000], "trial": 2, "serialpos": 21, "trial_type": "single-stim", "trial_index": 110, "time_elapsed": 433778, "internal_node_id": "0.0-83.0"}}, {"uniqueid": "MTK0407:326O153BMJ5X6E10THMEWR6SOJCDEN", "current_trial": 152, "dateTime": 1510860655173, "trialdata": {"rt": -1, "stimulus": "<p id=\"stim\">BRANCH</p>", "key_press": -1, "type": "PRES_VIS", "word": "branch", "wordID": 167, "conditions": [24, 1600, "v", 24000], "trial": 2, "serialpos": 22, "trial_type": "single-stim", "trial_index": 111, "time_elapsed": 436551, "internal_node_id": "0.0-84.0"}}, {"uniqueid": "MTK0407:326O153BMJ5X6E10THMEWR6SOJCDEN", "current_trial": 153, "dateTime": 1510860657783, "trialdata": {"rt": -1, "stimulus": "<p id=\"stim\">BANK</p>", "key_press": -1, "type": "PRES_VIS", "word": "bank", "wordID": 82, "conditions": [24, 1600, "v", 24000], "trial": 2, "serialpos": 23, "trial_type": "single-stim", "trial_index": 112, "time_elapsed": 439161, "internal_node_id": "0.0-85.0"}}, {"uniqueid": "MTK0407:326O153BMJ5X6E10THMEWR6SOJCDEN", "current_trial": 154, "dateTime": 1510860660167, "trialdata": {"rt": -1, "stimulus": "", "key_press": -1, "type": "PRE_RECALL_DELAY", "trial_type": "single-stim", "trial_index": 113, "time_elapsed": 441546, "internal_node_id": "0.0-86.0-0.0"}}, {"uniqueid": "MTK0407:326O153BMJ5X6E10THMEWR6SOJCDEN", "current_trial": 155, "dateTime": 1510860660669, "trialdata": {"rt": -1000, "stimulus": "/static/audio/400Hz.wav", "key_press": -1, "type": "PRE_RECALL_ALERT", "trial_type": "single-audio", "trial_index": 114, "time_elapsed": 442048, "internal_node_id": "0.0-87.0"}}, {"uniqueid": "MTK0407:326O153BMJ5X6E10THMEWR6SOJCDEN", "current_trial": 156, "dateTime": 1510860720680, "trialdata": {"rt": [4011, 8236, 13181, 16042, 18699, 23225, 27911, 30773, 34065, 38026, 42445, 46357, 49127, 53735], "recwords": ["bank", "lagoon", "meple", "wasp", "garlic", "shorts", "costume", "bug", "gift", "virus", "stone", "women", "canal", "drink"], "type": "FREE_RECALL", "conditions": [24, 1600, "v", 24000], "trial": 2, "trial_type": "free-recall", "trial_index": 115, "time_elapsed": 502054, "internal_node_id": "0.0-88.0-0.0"}}, {"uniqueid": "MTK0407:326O153BMJ5X6E10THMEWR6SOJCDEN", "current_trial": 157, "dateTime": 1510860724497, "trialdata": {"rt": 1815, "key_press": 13, "type": "INSTRUCTIONS", "trial_type": "text", "trial_index": 116, "time_elapsed": 505876, "internal_node_id": "0.0-89.0"}}, {"uniqueid": "MTK0407:326O153BMJ5X6E10THMEWR6SOJCDEN", "current_trial": 158, "dateTime": 1510860738502, "trialdata": {"rt": [5773, 9013], "responses": ["24", "18"], "num1": [9, 6, 6], "num2": [9, 7, 8], "num3": [6, 5, 6], "type": "DISTRACTOR", "conditions": [12, 1600, "a", 12000], "trial": 3, "trial_type": "math-distractor", "trial_index": 117, "time_elapsed": 519881, "internal_node_id": "0.0-90.0"}}, {"uniqueid": "MTK0407:326O153BMJ5X6E10THMEWR6SOJCDEN", "current_trial": 159, "dateTime": 1510860741504, "trialdata": {"rt": -1, "stimulus": "<p id=\"stim\">10</p>", "key_press": -1, "trial_type": "single-stim", "trial_index": 118, "time_elapsed": 522883, "internal_node_id": "0.0-91.0-0.0"}}, {"uniqueid": "MTK0407:326O153BMJ5X6E10THMEWR6SOJCDEN", "current_trial": 160, "dateTime": 1510860742506, "trialdata": {"rt": -1, "stimulus": "<p id=\"stim\">9</p>", "key_press": -1, "trial_type": "single-stim", "trial_index": 119, "time_elapsed": 523885, "internal_node_id": "0.0-91.0-1.0"}}, {"uniqueid": "MTK0407:326O153BMJ5X6E10THMEWR6SOJCDEN", "current_trial": 161, "dateTime": 1510860743508, "trialdata": {"rt": -1, "stimulus": "<p id=\"stim\">8</p>", "key_press": -1, "trial_type": "single-stim", "trial_index": 120, "time_elapsed": 524887, "internal_node_id": "0.0-91.0-2.0"}}, {"uniqueid": "MTK0407:326O153BMJ5X6E10THMEWR6SOJCDEN", "current_trial": 162, "dateTime": 1510860744511, "trialdata": {"rt": -1, "stimulus": "<p id=\"stim\">7</p>", "key_press": -1, "trial_type": "single-stim", "trial_index": 121, "time_elapsed": 525889, "internal_node_id": "0.0-91.0-3.0"}}, {"uniqueid": "MTK0407:326O153BMJ5X6E10THMEWR6SOJCDEN", "current_trial": 163, "dateTime": 1510860745513, "trialdata": {"rt": -1, "stimulus": "<p id=\"stim\">6</p>", "key_press": -1, "trial_type": "single-stim", "trial_index": 122, "time_elapsed": 526891, "internal_node_id": "0.0-91.0-4.0"}}, {"uniqueid": "MTK0407:326O153BMJ5X6E10THMEWR6SOJCDEN", "current_trial": 164, "dateTime": 1510860746517, "trialdata": {"rt": -1, "stimulus": "<p id=\"stim\">5</p>", "key_press": -1, "trial_type": "single-stim", "trial_index": 123, "time_elapsed": 527894, "internal_node_id": "0.0-91.0-5.0"}}, {"uniqueid": "MTK0407:326O153BMJ5X6E10THMEWR6SOJCDEN", "current_trial": 165, "dateTime": 1510860747519, "trialdata": {"rt": -1, "stimulus": "<p id=\"stim\">4</p>", "key_press": -1, "trial_type": "single-stim", "trial_index": 124, "time_elapsed": 528898, "internal_node_id": "0.0-91.0-6.0"}}, {"uniqueid": "MTK0407:326O153BMJ5X6E10THMEWR6SOJCDEN", "current_trial": 166, "dateTime": 1510860748521, "trialdata": {"rt": -1, "stimulus": "<p id=\"stim\">3</p>", "key_press": -1, "trial_type": "single-stim", "trial_index": 125, "time_elapsed": 529900, "internal_node_id": "0.0-91.0-7.0"}}, {"uniqueid": "MTK0407:326O153BMJ5X6E10THMEWR6SOJCDEN", "current_trial": 167, "dateTime": 1510860749522, "trialdata": {"rt": -1, "stimulus": "<p id=\"stim\">2</p>", "key_press": -1, "trial_type": "single-stim", "trial_index": 126, "time_elapsed": 530901, "internal_node_id": "0.0-91.0-8.0"}}, {"uniqueid": "MTK0407:326O153BMJ5X6E10THMEWR6SOJCDEN", "current_trial": 168, "dateTime": 1510860750525, "trialdata": {"rt": -1, "stimulus": "<p id=\"stim\">1</p>", "key_press": -1, "trial_type": "single-stim", "trial_index": 127, "time_elapsed": 531903, "internal_node_id": "0.0-91.0-9.0"}}, {"uniqueid": "MTK0407:326O153BMJ5X6E10THMEWR6SOJCDEN", "current_trial": 169, "dateTime": 1510860752026, "trialdata": {"rt": -1, "stimulus": "<p id=\"stim\">+</p>", "key_press": -1, "type": "FIXATION", "trial_type": "single-stim", "trial_index": 128, "time_elapsed": 533405, "internal_node_id": "0.0-92.0-0.0"}}, {"uniqueid": "MTK0407:326O153BMJ5X6E10THMEWR6SOJCDEN", "current_trial": 170, "dateTime": 1510860754545, "trialdata": {"rt": -1000, "stimulus": "/static/audio/wordpool/BURGLAR.wav", "key_press": -1, "type": "PRES_AUD", "word": "burglar", "wordID": 199, "conditions": [12, 1600, "a", 12000], "trial": 3, "serialpos": 0, "trial_type": "single-audio", "trial_index": 129, "time_elapsed": 535924, "internal_node_id": "0.0-93.0"}}, {"uniqueid": "MTK0407:326O153BMJ5X6E10THMEWR6SOJCDEN", "current_trial": 171, "dateTime": 1510860757162, "trialdata": {"rt": -1000, "stimulus": "/static/audio/wordpool/SHERIFF.wav", "key_press": -1, "type": "PRES_AUD", "word": "sheriff", "wordID": 1283, "conditions": [12, 1600, "a", 12000], "trial": 3, "serialpos": 1, "trial_type": "single-audio", "trial_index": 130, "time_elapsed": 538541, "internal_node_id": "0.0-94.0"}}, {"uniqueid": "MTK0407:326O153BMJ5X6E10THMEWR6SOJCDEN", "current_trial": 172, "dateTime": 1510860759706, "trialdata": {"rt": -1000, "stimulus": "/static/audio/wordpool/COUNTY.wav", "key_press": -1, "type": "PRES_AUD", "word": "county", "wordID": 388, "conditions": [12, 1600, "a", 12000], "trial": 3, "serialpos": 2, "trial_type": "single-audio", "trial_index": 131, "time_elapsed": 541084, "internal_node_id": "0.0-95.0"}}, {"uniqueid": "MTK0407:326O153BMJ5X6E10THMEWR6SOJCDEN", "current_trial": 173, "dateTime": 1510860762305, "trialdata": {"rt": -1000, "stimulus": "/static/audio/wordpool/SEAFOOD.wav", "key_press": -1, "type": "PRES_AUD", "word": "seafood", "wordID": 1259, "conditions": [12, 1600, "a", 12000], "trial": 3, "serialpos": 3, "trial_type": "single-audio", "trial_index": 132, "time_elapsed": 543684, "internal_node_id": "0.0-96.0"}}, {"uniqueid": "MTK0407:326O153BMJ5X6E10THMEWR6SOJCDEN", "current_trial": 174, "dateTime": 1510860764911, "trialdata": {"rt": -1000, "stimulus": "/static/audio/wordpool/MONSTER.wav", "key_press": -1, "type": "PRES_AUD", "word": "monster", "wordID": 911, "conditions": [12, 1600, "a", 12000], "trial": 3, "serialpos": 4, "trial_type": "single-audio", "trial_index": 133, "time_elapsed": 546290, "internal_node_id": "0.0-97.0"}}, {"uniqueid": "MTK0407:326O153BMJ5X6E10THMEWR6SOJCDEN", "current_trial": 175, "dateTime": 1510860767615, "trialdata": {"rt": -1000, "stimulus": "/static/audio/wordpool/MACHINE.wav", "key_press": -1, "type": "PRES_AUD", "word": "machine", "wordID": 851, "conditions": [12, 1600, "a", 12000], "trial": 3, "serialpos": 5, "trial_type": "single-audio", "trial_index": 134, "time_elapsed": 548994, "internal_node_id": "0.0-98.0"}}, {"uniqueid": "MTK0407:326O153BMJ5X6E10THMEWR6SOJCDEN", "current_trial": 176, "dateTime": 1510860770276, "trialdata": {"rt": -1000, "stimulus": "/static/audio/wordpool/LUGGAGE.wav", "key_press": -1, "type": "PRES_AUD", "word": "luggage", "wordID": 846, "conditions": [12, 1600, "a", 12000], "trial": 3, "serialpos": 6, "trial_type": "single-audio", "trial_index": 135, "time_elapsed": 551655, "internal_node_id": "0.0-99.0"}}, {"uniqueid": "MTK0407:326O153BMJ5X6E10THMEWR6SOJCDEN", "current_trial": 177, "dateTime": 1510860772846, "trialdata": {"rt": -1000, "stimulus": "/static/audio/wordpool/BRIEFCASE.wav", "key_press": -1, "type": "PRES_AUD", "word": "briefcase", "wordID": 174, "conditions": [12, 1600, "a", 12000], "trial": 3, "serialpos": 7, "trial_type": "single-audio", "trial_index": 136, "time_elapsed": 554225, "internal_node_id": "0.0-100.0"}}, {"uniqueid": "MTK0407:326O153BMJ5X6E10THMEWR6SOJCDEN", "current_trial": 178, "dateTime": 1510860775469, "trialdata": {"rt": -1000, "stimulus": "/static/audio/wordpool/MATCH.wav", "key_press": -1, "type": "PRES_AUD", "word": "match", "wordID": 877, "conditions": [12, 1600, "a", 12000], "trial": 3, "serialpos": 8, "trial_type": "single-audio", "trial_index": 137, "time_elapsed": 556848, "internal_node_id": "0.0-101.0"}}, {"uniqueid": "MTK0407:326O153BMJ5X6E10THMEWR6SOJCDEN", "current_trial": 179, "dateTime": 1510860778127, "trialdata": {"rt": -1000, "stimulus": "/static/audio/wordpool/OYSTER.wav", "key_press": -1, "type": "PRES_AUD", "word": "oyster", "wordID": 994, "conditions": [12, 1600, "a", 12000], "trial": 3, "serialpos": 9, "trial_type": "single-audio", "trial_index": 138, "time_elapsed": 559506, "internal_node_id": "0.0-102.0"}}, {"uniqueid": "MTK0407:326O153BMJ5X6E10THMEWR6SOJCDEN", "current_trial": 180, "dateTime": 1510860780529, "trialdata": {"rt": -1000, "stimulus": "/static/audio/wordpool/HELMET.wav", "key_press": -1, "type": "PRES_AUD", "word": "helmet", "wordID": 701, "conditions": [12, 1600, "a", 12000], "trial": 3, "serialpos": 10, "trial_type": "single-audio", "trial_index": 139, "time_elapsed": 561908, "internal_node_id": "0.0-103.0"}}, {"uniqueid": "MTK0407:326O153BMJ5X6E10THMEWR6SOJCDEN", "current_trial": 181, "dateTime": 1510860782945, "trialdata": {"rt": -1000, "stimulus": "/static/audio/wordpool/ORCHID.wav", "key_press": -1, "type": "PRES_AUD", "word": "orchid", "wordID": 981, "conditions": [12, 1600, "a", 12000], "trial": 3, "serialpos": 11, "trial_type": "single-audio", "trial_index": 140, "time_elapsed": 564324, "internal_node_id": "0.0-104.0"}}, {"uniqueid": "MTK0407:326O153BMJ5X6E10THMEWR6SOJCDEN", "current_trial": 182, "dateTime": 1510860784196, "trialdata": {"rt": -1, "stimulus": "", "key_press": -1, "type": "PRE_RECALL_DELAY", "trial_type": "single-stim", "trial_index": 141, "time_elapsed": 565575, "internal_node_id": "0.0-105.0-0.0"}}, {"uniqueid": "MTK0407:326O153BMJ5X6E10THMEWR6SOJCDEN", "current_trial": 183, "dateTime": 1510860784698, "trialdata": {"rt": -1000, "stimulus": "/static/audio/400Hz.wav", "key_press": -1, "type": "PRE_RECALL_ALERT", "trial_type": "single-audio", "trial_index": 142, "time_elapsed": 566077, "internal_node_id": "0.0-106.0"}}, {"uniqueid": "MTK0407:326O153BMJ5X6E10THMEWR6SOJCDEN", "current_trial": 184, "dateTime": 1510860844710, "trialdata": {"rt": [3787, 8477, 13136, 18807, 26159, 33827, 58343], "recwords": ["helme", "machine", "sheriff", "seafood", "lugge", "contry", "brifecase"], "type": "FREE_RECALL", "conditions": [12, 1600, "a", 12000], "trial": 3, "trial_type": "free-recall", "trial_index": 143, "time_elapsed": 626083, "internal_node_id": "0.0-107.0-0.0"}}, {"uniqueid": "MTK0407:326O153BMJ5X6E10THMEWR6SOJCDEN", "current_trial": 185, "dateTime": 1510860847958, "trialdata": {"rt": 1246, "key_press": 13, "type": "INSTRUCTIONS", "trial_type": "text", "trial_index": 144, "time_elapsed": 629336, "internal_node_id": "0.0-108.0"}}, {"uniqueid": "MTK0407:326O153BMJ5X6E10THMEWR6SOJCDEN", "current_trial": 186, "dateTime": 1510860873964, "trialdata": {"rt": [2635, 5872, 7700, 10689, 14235, 23206], "responses": ["19", "18", "16", "18", "1", "20"], "num1": [2, 8, 1, 4, 2, 6, 6], "num2": [8, 4, 6, 8, 6, 8, 9], "num3": [9, 6, 9, 6, 7, 7, 6], "type": "DISTRACTOR", "conditions": [24, 1600, "a", 24000], "trial": 4, "trial_type": "math-distractor", "trial_index": 145, "time_elapsed": 655343, "internal_node_id": "0.0-109.0"}}, {"uniqueid": "MTK0407:326O153BMJ5X6E10THMEWR6SOJCDEN", "current_trial": 187, "dateTime": 1510860876967, "trialdata": {"rt": -1, "stimulus": "<p id=\"stim\">10</p>", "key_press": -1, "trial_type": "single-stim", "trial_index": 146, "time_elapsed": 658345, "internal_node_id": "0.0-110.0-0.0"}}, {"uniqueid": "MTK0407:326O153BMJ5X6E10THMEWR6SOJCDEN", "current_trial": 188, "dateTime": 1510860877969, "trialdata": {"rt": -1, "stimulus": "<p id=\"stim\">9</p>", "key_press": -1, "trial_type": "single-stim", "trial_index": 147, "time_elapsed": 659347, "internal_node_id": "0.0-110.0-1.0"}}, {"uniqueid": "MTK0407:326O153BMJ5X6E10THMEWR6SOJCDEN", "current_trial": 189, "dateTime": 1510860878971, "trialdata": {"rt": -1, "stimulus": "<p id=\"stim\">8</p>", "key_press": -1, "trial_type": "single-stim", "trial_index": 148, "time_elapsed": 660350, "internal_node_id": "0.0-110.0-2.0"}}, {"uniqueid": "MTK0407:326O153BMJ5X6E10THMEWR6SOJCDEN", "current_trial": 190, "dateTime": 1510860879973, "trialdata": {"rt": -1, "stimulus": "<p id=\"stim\">7</p>", "key_press": -1, "trial_type": "single-stim", "trial_index": 149, "time_elapsed": 661351, "internal_node_id": "0.0-110.0-3.0"}}, {"uniqueid": "MTK0407:326O153BMJ5X6E10THMEWR6SOJCDEN", "current_trial": 191, "dateTime": 1510860880975, "trialdata": {"rt": -1, "stimulus": "<p id=\"stim\">6</p>", "key_press": -1, "trial_type": "single-stim", "trial_index": 150, "time_elapsed": 662353, "internal_node_id": "0.0-110.0-4.0"}}, {"uniqueid": "MTK0407:326O153BMJ5X6E10THMEWR6SOJCDEN", "current_trial": 192, "dateTime": 1510860881977, "trialdata": {"rt": -1, "stimulus": "<p id=\"stim\">5</p>", "key_press": -1, "trial_type": "single-stim", "trial_index": 151, "time_elapsed": 663355, "internal_node_id": "0.0-110.0-5.0"}}, {"uniqueid": "MTK0407:326O153BMJ5X6E10THMEWR6SOJCDEN", "current_trial": 193, "dateTime": 1510860882979, "trialdata": {"rt": -1, "stimulus": "<p id=\"stim\">4</p>", "key_press": -1, "trial_type": "single-stim", "trial_index": 152, "time_elapsed": 664358, "internal_node_id": "0.0-110.0-6.0"}}, {"uniqueid": "MTK0407:326O153BMJ5X6E10THMEWR6SOJCDEN", "current_trial": 194, "dateTime": 1510860883981, "trialdata": {"rt": -1, "stimulus": "<p id=\"stim\">3</p>", "key_press": -1, "trial_type": "single-stim", "trial_index": 153, "time_elapsed": 665359, "internal_node_id": "0.0-110.0-7.0"}}, {"uniqueid": "MTK0407:326O153BMJ5X6E10THMEWR6SOJCDEN", "current_trial": 195, "dateTime": 1510860884982, "trialdata": {"rt": -1, "stimulus": "<p id=\"stim\">2</p>", "key_press": -1, "trial_type": "single-stim", "trial_index": 154, "time_elapsed": 666361, "internal_node_id": "0.0-110.0-8.0"}}, {"uniqueid": "MTK0407:326O153BMJ5X6E10THMEWR6SOJCDEN", "current_trial": 196, "dateTime": 1510860885985, "trialdata": {"rt": -1, "stimulus": "<p id=\"stim\">1</p>", "key_press": -1, "trial_type": "single-stim", "trial_index": 155, "time_elapsed": 667364, "internal_node_id": "0.0-110.0-9.0"}}, {"uniqueid": "MTK0407:326O153BMJ5X6E10THMEWR6SOJCDEN", "current_trial": 197, "dateTime": 1510860887487, "trialdata": {"rt": -1, "stimulus": "<p id=\"stim\">+</p>", "key_press": -1, "type": "FIXATION", "trial_type": "single-stim", "trial_index": 156, "time_elapsed": 668865, "internal_node_id": "0.0-111.0-0.0"}}, {"uniqueid": "MTK0407:326O153BMJ5X6E10THMEWR6SOJCDEN", "current_trial": 198, "dateTime": 1510860890117, "trialdata": {"rt": -1000, "stimulus": "/static/audio/wordpool/JUNGLE.wav", "key_press": -1, "type": "PRES_AUD", "word": "jungle", "wordID": 763, "conditions": [24, 1600, "a", 24000], "trial": 4, "serialpos": 0, "trial_type": "single-audio", "trial_index": 157, "time_elapsed": 671496, "internal_node_id": "0.0-112.0"}}, {"uniqueid": "MTK0407:326O153BMJ5X6E10THMEWR6SOJCDEN", "current_trial": 199, "dateTime": 1510860892658, "trialdata": {"rt": -1000, "stimulus": "/static/audio/wordpool/LIZARD.wav", "key_press": -1, "type": "PRES_AUD", "word": "lizard", "wordID": 833, "conditions": [24, 1600, "a", 24000], "trial": 4, "serialpos": 1, "trial_type": "single-audio", "trial_index": 158, "time_elapsed": 674037, "internal_node_id": "0.0-113.0"}}, {"uniqueid": "MTK0407:326O153BMJ5X6E10THMEWR6SOJCDEN", "current_trial": 200, "dateTime": 1510860895144, "trialdata": {"rt": -1000, "stimulus": "/static/audio/wordpool/BASEMENT.wav", "key_press": -1, "type": "PRES_AUD", "word": "basement", "wordID": 93, "conditions": [24, 1600, "a", 24000], "trial": 4, "serialpos": 2, "trial_type": "single-audio", "trial_index": 159, "time_elapsed": 676523, "internal_node_id": "0.0-114.0"}}, {"uniqueid": "MTK0407:326O153BMJ5X6E10THMEWR6SOJCDEN", "current_trial": 201, "dateTime": 1510860897867, "trialdata": {"rt": -1000, "stimulus": "/static/audio/wordpool/TOMBSTONE.wav", "key_press": -1, "type": "PRES_AUD", "word": "tombstone", "wordID": 1477, "conditions": [24, 1600, "a", 24000], "trial": 4, "serialpos": 3, "trial_type": "single-audio", "trial_index": 160, "time_elapsed": 679246, "internal_node_id": "0.0-115.0"}}, {"uniqueid": "MTK0407:326O153BMJ5X6E10THMEWR6SOJCDEN", "current_trial": 202, "dateTime": 1510860900651, "trialdata": {"rt": -1000, "stimulus": "/static/audio/wordpool/UMPIRE.wav", "key_press": -1, "type": "PRES_AUD", "word": "umpire", "wordID": 1534, "conditions": [24, 1600, "a", 24000], "trial": 4, "serialpos": 4, "trial_type": "single-audio", "trial_index": 161, "time_elapsed": 682030, "internal_node_id": "0.0-116.0"}}, {"uniqueid": "MTK0407:326O153BMJ5X6E10THMEWR6SOJCDEN", "current_trial": 203, "dateTime": 1510860903379, "trialdata": {"rt": -1000, "stimulus": "/static/audio/wordpool/EMPIRE.wav", "key_press": -1, "type": "PRES_AUD", "word": "empire", "wordID": 529, "conditions": [24, 1600, "a", 24000], "trial": 4, "serialpos": 5, "trial_type": "single-audio", "trial_index": 162, "time_elapsed": 684757, "internal_node_id": "0.0-117.0"}}, {"uniqueid": "MTK0407:326O153BMJ5X6E10THMEWR6SOJCDEN", "current_trial": 204, "dateTime": 1510860906109, "trialdata": {"rt": -1000, "stimulus": "/static/audio/wordpool/PIGMENT.wav", "key_press": -1, "type": "PRES_AUD", "word": "pigment", "wordID": 1065, "conditions": [24, 1600, "a", 24000], "trial": 4, "serialpos": 6, "trial_type": "single-audio", "trial_index": 163, "time_elapsed": 687488, "internal_node_id": "0.0-118.0"}}, {"uniqueid": "MTK0407:326O153BMJ5X6E10THMEWR6SOJCDEN", "current_trial": 205, "dateTime": 1510860908859, "trialdata": {"rt": -1000, "stimulus": "/static/audio/wordpool/CELLAR.wav", "key_press": -1, "type": "PRES_AUD", "word": "cellar", "wordID": 266, "conditions": [24, 1600, "a", 24000], "trial": 4, "serialpos": 7, "trial_type": "single-audio", "trial_index": 164, "time_elapsed": 690238, "internal_node_id": "0.0-119.0"}}, {"uniqueid": "MTK0407:326O153BMJ5X6E10THMEWR6SOJCDEN", "current_trial": 206, "dateTime": 1510860911569, "trialdata": {"rt": -1000, "stimulus": "/static/audio/wordpool/TERMITE.wav", "key_press": -1, "type": "PRES_AUD", "word": "termite", "wordID": 1450, "conditions": [24, 1600, "a", 24000], "trial": 4, "serialpos": 8, "trial_type": "single-audio", "trial_index": 165, "time_elapsed": 692948, "internal_node_id": "0.0-120.0"}}, {"uniqueid": "MTK0407:326O153BMJ5X6E10THMEWR6SOJCDEN", "current_trial": 207, "dateTime": 1510860914169, "trialdata": {"rt": -1000, "stimulus": "/static/audio/wordpool/FUNGUS.wav", "key_press": -1, "type": "PRES_AUD", "word": "fungus", "wordID": 613, "conditions": [24, 1600, "a", 24000], "trial": 4, "serialpos": 9, "trial_type": "single-audio", "trial_index": 166, "time_elapsed": 695548, "internal_node_id": "0.0-121.0"}}, {"uniqueid": "MTK0407:326O153BMJ5X6E10THMEWR6SOJCDEN", "current_trial": 208, "dateTime": 1510860916678, "trialdata": {"rt": -1000, "stimulus": "/static/audio/wordpool/PANTHER.wav", "key_press": -1, "type": "PRES_AUD", "word": "panther", "wordID": 1008, "conditions": [24, 1600, "a", 24000], "trial": 4, "serialpos": 10, "trial_type": "single-audio", "trial_index": 167, "time_elapsed": 698057, "internal_node_id": "0.0-122.0"}}, {"uniqueid": "MTK0407:326O153BMJ5X6E10THMEWR6SOJCDEN", "current_trial": 209, "dateTime": 1510860919259, "trialdata": {"rt": -1000, "stimulus": "/static/audio/wordpool/TAXI.wav", "key_press": -1, "type": "PRES_AUD", "word": "taxi", "wordID": 1437, "conditions": [24, 1600, "a", 24000], "trial": 4, "serialpos": 11, "trial_type": "single-audio", "trial_index": 168, "time_elapsed": 700638, "internal_node_id": "0.0-123.0"}}, {"uniqueid": "MTK0407:326O153BMJ5X6E10THMEWR6SOJCDEN", "current_trial": 210, "dateTime": 1510860921688, "trialdata": {"rt": -1000, "stimulus": "/static/audio/wordpool/STREAM.wav", "key_press": -1, "type": "PRES_AUD", "word": "stream", "wordID": 1391, "conditions": [24, 1600, "a", 24000], "trial": 4, "serialpos": 12, "trial_type": "single-audio", "trial_index": 169, "time_elapsed": 703066, "internal_node_id": "0.0-124.0"}}, {"uniqueid": "MTK0407:326O153BMJ5X6E10THMEWR6SOJCDEN", "current_trial": 211, "dateTime": 1510860924442, "trialdata": {"rt": -1000, "stimulus": "/static/audio/wordpool/TUNNEL.wav", "key_press": -1, "type": "PRES_AUD", "word": "tunnel", "wordID": 1518, "conditions": [24, 1600, "a", 24000], "trial": 4, "serialpos": 13, "trial_type": "single-audio", "trial_index": 170, "time_elapsed": 705821, "internal_node_id": "0.0-125.0"}}, {"uniqueid": "MTK0407:326O153BMJ5X6E10THMEWR6SOJCDEN", "current_trial": 212, "dateTime": 1510860927120, "trialdata": {"rt": -1000, "stimulus": "/static/audio/wordpool/WIDOW.wav", "key_press": -1, "type": "PRES_AUD", "word": "widow", "wordID": 1607, "conditions": [24, 1600, "a", 24000], "trial": 4, "serialpos": 14, "trial_type": "single-audio", "trial_index": 171, "time_elapsed": 708499, "internal_node_id": "0.0-126.0"}}, {"uniqueid": "MTK0407:326O153BMJ5X6E10THMEWR6SOJCDEN", "current_trial": 213, "dateTime": 1510860929702, "trialdata": {"rt": -1000, "stimulus": "/static/audio/wordpool/GHETTO.wav", "key_press": -1, "type": "PRES_AUD", "word": "ghetto", "wordID": 632, "conditions": [24, 1600, "a", 24000], "trial": 4, "serialpos": 15, "trial_type": "single-audio", "trial_index": 172, "time_elapsed": 711081, "internal_node_id": "0.0-127.0"}}, {"uniqueid": "MTK0407:326O153BMJ5X6E10THMEWR6SOJCDEN", "current_trial": 214, "dateTime": 1510860932109, "trialdata": {"rt": -1000, "stimulus": "/static/audio/wordpool/VIKING.wav", "key_press": -1, "type": "PRES_AUD", "word": "viking", "wordID": 1564, "conditions": [24, 1600, "a", 24000], "trial": 4, "serialpos": 16, "trial_type": "single-audio", "trial_index": 173, "time_elapsed": 713487, "internal_node_id": "0.0-128.0"}}, {"uniqueid": "MTK0407:326O153BMJ5X6E10THMEWR6SOJCDEN", "current_trial": 215, "dateTime": 1510860934744, "trialdata": {"rt": -1000, "stimulus": "/static/audio/wordpool/EAGLE.wav", "key_press": -1, "type": "PRES_AUD", "word": "eagle", "wordID": 511, "conditions": [24, 1600, "a", 24000], "trial": 4, "serialpos": 17, "trial_type": "single-audio", "trial_index": 174, "time_elapsed": 716122, "internal_node_id": "0.0-129.0"}}, {"uniqueid": "MTK0407:326O153BMJ5X6E10THMEWR6SOJCDEN", "current_trial": 216, "dateTime": 1510860937319, "trialdata": {"rt": -1000, "stimulus": "/static/audio/wordpool/STOMACH.wav", "key_press": -1, "type": "PRES_AUD", "word": "stomach", "wordID": 1383, "conditions": [24, 1600, "a", 24000], "trial": 4, "serialpos": 18, "trial_type": "single-audio", "trial_index": 175, "time_elapsed": 718698, "internal_node_id": "0.0-130.0"}}, {"uniqueid": "MTK0407:326O153BMJ5X6E10THMEWR6SOJCDEN", "current_trial": 217, "dateTime": 1510860940076, "trialdata": {"rt": -1000, "stimulus": "/static/audio/wordpool/PORK.wav", "key_press": -1, "type": "PRES_AUD", "word": "pork", "wordID": 1107, "conditions": [24, 1600, "a", 24000], "trial": 4, "serialpos": 19, "trial_type": "single-audio", "trial_index": 176, "time_elapsed": 721455, "internal_node_id": "0.0-131.0"}}, {"uniqueid": "MTK0407:326O153BMJ5X6E10THMEWR6SOJCDEN", "current_trial": 218, "dateTime": 1510860942540, "trialdata": {"rt": -1000, "stimulus": "/static/audio/wordpool/BEEF.wav", "key_press": -1, "type": "PRES_AUD", "word": "beef", "wordID": 112, "conditions": [24, 1600, "a", 24000], "trial": 4, "serialpos": 20, "trial_type": "single-audio", "trial_index": 177, "time_elapsed": 723918, "internal_node_id": "0.0-132.0"}}, {"uniqueid": "MTK0407:326O153BMJ5X6E10THMEWR6SOJCDEN", "current_trial": 219, "dateTime": 1510860945156, "trialdata": {"rt": -1000, "stimulus": "/static/audio/wordpool/CHEST.wav", "key_press": -1, "type": "PRES_AUD", "word": "chest", "wordID": 294, "conditions": [24, 1600, "a", 24000], "trial": 4, "serialpos": 21, "trial_type": "single-audio", "trial_index": 178, "time_elapsed": 726535, "internal_node_id": "0.0-133.0"}}, {"uniqueid": "MTK0407:326O153BMJ5X6E10THMEWR6SOJCDEN", "current_trial": 220, "dateTime": 1510860947664, "trialdata": {"rt": -1000, "stimulus": "/static/audio/wordpool/BINDER.wav", "key_press": -1, "type": "PRES_AUD", "word": "binder", "wordID": 126, "conditions": [24, 1600, "a", 24000], "trial": 4, "serialpos": 22, "trial_type": "single-audio", "trial_index": 179, "time_elapsed": 729042, "internal_node_id": "0.0-134.0"}}, {"uniqueid": "MTK0407:326O153BMJ5X6E10THMEWR6SOJCDEN", "current_trial": 221, "dateTime": 1510860950412, "trialdata": {"rt": -1000, "stimulus": "/static/audio/wordpool/HARP.wav", "key_press": -1, "type": "PRES_AUD", "word": "harp", "wordID": 688, "conditions": [24, 1600, "a", 24000], "trial": 4, "serialpos": 23, "trial_type": "single-audio", "trial_index": 180, "time_elapsed": 731790, "internal_node_id": "0.0-135.0"}}, {"uniqueid": "MTK0407:326O153BMJ5X6E10THMEWR6SOJCDEN", "current_trial": 222, "dateTime": 1510860951773, "trialdata": {"rt": -1, "stimulus": "", "key_press": -1, "type": "PRE_RECALL_DELAY", "trial_type": "single-stim", "trial_index": 181, "time_elapsed": 733151, "internal_node_id": "0.0-136.0-0.0"}}, {"uniqueid": "MTK0407:326O153BMJ5X6E10THMEWR6SOJCDEN", "current_trial": 223, "dateTime": 1510860952274, "trialdata": {"rt": -1000, "stimulus": "/static/audio/400Hz.wav", "key_press": -1, "type": "PRE_RECALL_ALERT", "trial_type": "single-audio", "trial_index": 182, "time_elapsed": 733653, "internal_node_id": "0.0-137.0"}}, {"uniqueid": "MTK0407:326O153BMJ5X6E10THMEWR6SOJCDEN", "current_trial": 224, "dateTime": 1510861012287, "trialdata": {"rt": [5605, 7822, 14992, 18545, 24896, 28215, 35678, 42947, 48286, 54627], "recwords": ["jungle", "taxi", "empire", "umpire", "sream", "beef", "cheast", "finder", "fungus", "tunnel"], "type": "FREE_RECALL", "conditions": [24, 1600, "a", 24000], "trial": 4, "trial_type": "free-recall", "trial_index": 183, "time_elapsed": 793660, "internal_node_id": "0.0-138.0-0.0"}}, {"uniqueid": "MTK0407:326O153BMJ5X6E10THMEWR6SOJCDEN", "current_trial": 225, "dateTime": 1510861016173, "trialdata": {"rt": 1884, "key_press": 13, "type": "INSTRUCTIONS", "trial_type": "text", "trial_index": 184, "time_elapsed": 797552, "internal_node_id": "0.0-139.0"}}, {"uniqueid": "MTK0407:326O153BMJ5X6E10THMEWR6SOJCDEN", "current_trial": 226, "dateTime": 1510861042177, "trialdata": {"rt": [5847, 12030, 15334, 18024, 21628, 23501], "responses": ["14", "24", "14", "17", "21", "12"], "num1": [7, 7, 6, 8, 5, 2, 5], "num2": [4, 9, 7, 8, 8, 1, 4], "num3": [4, 9, 2, 1, 8, 9, 6], "type": "DISTRACTOR", "conditions": [24, 800, "v", 24000], "trial": 5, "trial_type": "math-distractor", "trial_index": 185, "time_elapsed": 823556, "internal_node_id": "0.0-140.0"}}, {"uniqueid": "MTK0407:326O153BMJ5X6E10THMEWR6SOJCDEN", "current_trial": 227, "dateTime": 1510861045180, "trialdata": {"rt": -1, "stimulus": "<p id=\"stim\">10</p>", "key_press": -1, "trial_type": "single-stim", "trial_index": 186, "time_elapsed": 826559, "internal_node_id": "0.0-141.0-0.0"}}, {"uniqueid": "MTK0407:326O153BMJ5X6E10THMEWR6SOJCDEN", "current_trial": 228, "dateTime": 1510861046182, "trialdata": {"rt": -1, "stimulus": "<p id=\"stim\">9</p>", "key_press": -1, "trial_type": "single-stim", "trial_index": 187, "time_elapsed": 827561, "internal_node_id": "0.0-141.0-1.0"}}, {"uniqueid": "MTK0407:326O153BMJ5X6E10THMEWR6SOJCDEN", "current_trial": 229, "dateTime": 1510861047184, "trialdata": {"rt": -1, "stimulus": "<p id=\"stim\">8</p>", "key_press": -1, "trial_type": "single-stim", "trial_index": 188, "time_elapsed": 828563, "internal_node_id": "0.0-141.0-2.0"}}, {"uniqueid": "MTK0407:326O153BMJ5X6E10THMEWR6SOJCDEN", "current_trial": 230, "dateTime": 1510861048185, "trialdata": {"rt": -1, "stimulus": "<p id=\"stim\">7</p>", "key_press": -1, "trial_type": "single-stim", "trial_index": 189, "time_elapsed": 829564, "internal_node_id": "0.0-141.0-3.0"}}, {"uniqueid": "MTK0407:326O153BMJ5X6E10THMEWR6SOJCDEN", "current_trial": 231, "dateTime": 1510861049188, "trialdata": {"rt": -1, "stimulus": "<p id=\"stim\">6</p>", "key_press": -1, "trial_type": "single-stim", "trial_index": 190, "time_elapsed": 830566, "internal_node_id": "0.0-141.0-4.0"}}, {"uniqueid": "MTK0407:326O153BMJ5X6E10THMEWR6SOJCDEN", "current_trial": 232, "dateTime": 1510861050189, "trialdata": {"rt": -1, "stimulus": "<p id=\"stim\">5</p>", "key_press": -1, "trial_type": "single-stim", "trial_index": 191, "time_elapsed": 831568, "internal_node_id": "0.0-141.0-5.0"}}, {"uniqueid": "MTK0407:326O153BMJ5X6E10THMEWR6SOJCDEN", "current_trial": 233, "dateTime": 1510861051192, "trialdata": {"rt": -1, "stimulus": "<p id=\"stim\">4</p>", "key_press": -1, "trial_type": "single-stim", "trial_index": 192, "time_elapsed": 832571, "internal_node_id": "0.0-141.0-6.0"}}, {"uniqueid": "MTK0407:326O153BMJ5X6E10THMEWR6SOJCDEN", "current_trial": 234, "dateTime": 1510861052193, "trialdata": {"rt": -1, "stimulus": "<p id=\"stim\">3</p>", "key_press": -1, "trial_type": "single-stim", "trial_index": 193, "time_elapsed": 833572, "internal_node_id": "0.0-141.0-7.0"}}, {"uniqueid": "MTK0407:326O153BMJ5X6E10THMEWR6SOJCDEN", "current_trial": 235, "dateTime": 1510861053195, "trialdata": {"rt": -1, "stimulus": "<p id=\"stim\">2</p>", "key_press": -1, "trial_type": "single-stim", "trial_index": 194, "time_elapsed": 834573, "internal_node_id": "0.0-141.0-8.0"}}, {"uniqueid": "MTK0407:326O153BMJ5X6E10THMEWR6SOJCDEN", "current_trial": 236, "dateTime": 1510861054196, "trialdata": {"rt": -1, "stimulus": "<p id=\"stim\">1</p>", "key_press": -1, "trial_type": "single-stim", "trial_index": 195, "time_elapsed": 835574, "internal_node_id": "0.0-141.0-9.0"}}, {"uniqueid": "MTK0407:326O153BMJ5X6E10THMEWR6SOJCDEN", "current_trial": 237, "dateTime": 1510861055697, "trialdata": {"rt": -1, "stimulus": "<p id=\"stim\">+</p>", "key_press": -1, "type": "FIXATION", "trial_type": "single-stim", "trial_index": 196, "time_elapsed": 837076, "internal_node_id": "0.0-142.0-0.0"}}, {"uniqueid": "MTK0407:326O153BMJ5X6E10THMEWR6SOJCDEN", "current_trial": 238, "dateTime": 1510861056499, "trialdata": {"rt": -1, "stimulus": "<p id=\"stim\">SNAIL</p>", "key_press": -1, "type": "PRES_VIS", "word": "snail", "wordID": 1331, "conditions": [24, 800, "v", 24000], "trial": 5, "serialpos": 0, "trial_type": "single-stim", "trial_index": 197, "time_elapsed": 837878, "internal_node_id": "0.0-143.0"}}, {"uniqueid": "MTK0407:326O153BMJ5X6E10THMEWR6SOJCDEN", "current_trial": 239, "dateTime": 1510861058321, "trialdata": {"rt": -1, "stimulus": "<p id=\"stim\">BRACES</p>", "key_press": -1, "type": "PRES_VIS", "word": "braces", "wordID": 163, "conditions": [24, 800, "v", 24000], "trial": 5, "serialpos": 1, "trial_type": "single-stim", "trial_index": 198, "time_elapsed": 839699, "internal_node_id": "0.0-144.0"}}, {"uniqueid": "MTK0407:326O153BMJ5X6E10THMEWR6SOJCDEN", "current_trial": 240, "dateTime": 1510861059953, "trialdata": {"rt": -1, "stimulus": "<p id=\"stim\">DENIM</p>", "key_press": -1, "type": "PRES_VIS", "word": "denim", "wordID": 445, "conditions": [24, 800, "v", 24000], "trial": 5, "serialpos": 2, "trial_type": "single-stim", "trial_index": 199, "time_elapsed": 841332, "internal_node_id": "0.0-145.0"}}, {"uniqueid": "MTK0407:326O153BMJ5X6E10THMEWR6SOJCDEN", "current_trial": 241, "dateTime": 1510861061680, "trialdata": {"rt": -1, "stimulus": "<p id=\"stim\">KNIFE</p>", "key_press": -1, "type": "PRES_VIS", "word": "knife", "wordID": 784, "conditions": [24, 800, "v", 24000], "trial": 5, "serialpos": 3, "trial_type": "single-stim", "trial_index": 200, "time_elapsed": 843058, "internal_node_id": "0.0-146.0"}}, {"uniqueid": "MTK0407:326O153BMJ5X6E10THMEWR6SOJCDEN", "current_trial": 242, "dateTime": 1510861063418, "trialdata": {"rt": -1, "stimulus": "<p id=\"stim\">PISTOL</p>", "key_press": -1, "type": "PRES_VIS", "word": "pistol", "wordID": 1074, "conditions": [24, 800, "v", 24000], "trial": 5, "serialpos": 4, "trial_type": "single-stim", "trial_index": 201, "time_elapsed": 844796, "internal_node_id": "0.0-147.0"}}, {"uniqueid": "MTK0407:326O153BMJ5X6E10THMEWR6SOJCDEN", "current_trial": 243, "dateTime": 1510861065107, "trialdata": {"rt": -1, "stimulus": "<p id=\"stim\">DOLPHIN</p>", "key_press": -1, "type": "PRES_VIS", "word": "dolphin", "wordID": 482, "conditions": [24, 800, "v", 24000], "trial": 5, "serialpos": 5, "trial_type": "single-stim", "trial_index": 202, "time_elapsed": 846485, "internal_node_id": "0.0-148.0"}}, {"uniqueid": "MTK0407:326O153BMJ5X6E10THMEWR6SOJCDEN", "current_trial": 244, "dateTime": 1510861066892, "trialdata": {"rt": -1, "stimulus": "<p id=\"stim\">GLOBE</p>", "key_press": -1, "type": "PRES_VIS", "word": "globe", "wordID": 640, "conditions": [24, 800, "v", 24000], "trial": 5, "serialpos": 6, "trial_type": "single-stim", "trial_index": 203, "time_elapsed": 848270, "internal_node_id": "0.0-149.0"}}, {"uniqueid": "MTK0407:326O153BMJ5X6E10THMEWR6SOJCDEN", "current_trial": 245, "dateTime": 1510861068694, "trialdata": {"rt": -1, "stimulus": "<p id=\"stim\">SPIDER</p>", "key_press": -1, "type": "PRES_VIS", "word": "spider", "wordID": 1350, "conditions": [24, 800, "v", 24000], "trial": 5, "serialpos": 7, "trial_type": "single-stim", "trial_index": 204, "time_elapsed": 850073, "internal_node_id": "0.0-150.0"}}, {"uniqueid": "MTK0407:326O153BMJ5X6E10THMEWR6SOJCDEN", "current_trial": 246, "dateTime": 1510861070312, "trialdata": {"rt": -1, "stimulus": "<p id=\"stim\">TABLE</p>", "key_press": -1, "type": "PRES_VIS", "word": "table", "wordID": 1425, "conditions": [24, 800, "v", 24000], "trial": 5, "serialpos": 8, "trial_type": "single-stim", "trial_index": 205, "time_elapsed": 851691, "internal_node_id": "0.0-151.0"}}, {"uniqueid": "MTK0407:326O153BMJ5X6E10THMEWR6SOJCDEN", "current_trial": 247, "dateTime": 1510861072209, "trialdata": {"rt": -1, "stimulus": "<p id=\"stim\">RIVER</p>", "key_press": -1, "type": "PRES_VIS", "word": "river", "wordID": 1193, "conditions": [24, 800, "v", 24000], "trial": 5, "serialpos": 9, "trial_type": "single-stim", "trial_index": 206, "time_elapsed": 853587, "internal_node_id": "0.0-152.0"}}, {"uniqueid": "MTK0407:326O153BMJ5X6E10THMEWR6SOJCDEN", "current_trial": 248, "dateTime": 1510861074182, "trialdata": {"rt": -1, "stimulus": "<p id=\"stim\">WORLD</p>", "key_press": -1, "type": "PRES_VIS", "word": "world", "wordID": 1621, "conditions": [24, 800, "v", 24000], "trial": 5, "serialpos": 10, "trial_type": "single-stim", "trial_index": 207, "time_elapsed": 855560, "internal_node_id": "0.0-153.0"}}, {"uniqueid": "MTK0407:326O153BMJ5X6E10THMEWR6SOJCDEN", "current_trial": 249, "dateTime": 1510861075883, "trialdata": {"rt": -1, "stimulus": "<p id=\"stim\">WAGON</p>", "key_press": -1, "type": "PRES_VIS", "word": "wagon", "wordID": 1577, "conditions": [24, 800, "v", 24000], "trial": 5, "serialpos": 11, "trial_type": "single-stim", "trial_index": 208, "time_elapsed": 857262, "internal_node_id": "0.0-154.0"}}, {"uniqueid": "MTK0407:326O153BMJ5X6E10THMEWR6SOJCDEN", "current_trial": 250, "dateTime": 1510861077535, "trialdata": {"rt": -1, "stimulus": "<p id=\"stim\">SUPPER</p>", "key_press": -1, "type": "PRES_VIS", "word": "supper", "wordID": 1410, "conditions": [24, 800, "v", 24000], "trial": 5, "serialpos": 12, "trial_type": "single-stim", "trial_index": 209, "time_elapsed": 858913, "internal_node_id": "0.0-155.0"}}, {"uniqueid": "MTK0407:326O153BMJ5X6E10THMEWR6SOJCDEN", "current_trial": 251, "dateTime": 1510861079494, "trialdata": {"rt": -1, "stimulus": "<p id=\"stim\">PICNIC</p>", "key_press": -1, "type": "PRES_VIS", "word": "picnic", "wordID": 1059, "conditions": [24, 800, "v", 24000], "trial": 5, "serialpos": 13, "trial_type": "single-stim", "trial_index": 210, "time_elapsed": 860872, "internal_node_id": "0.0-156.0"}}, {"uniqueid": "MTK0407:326O153BMJ5X6E10THMEWR6SOJCDEN", "current_trial": 252, "dateTime": 1510861081272, "trialdata": {"rt": -1, "stimulus": "<p id=\"stim\">DANDRUFF</p>", "key_press": -1, "type": "PRES_VIS", "word": "dandruff", "wordID": 438, "conditions": [24, 800, "v", 24000], "trial": 5, "serialpos": 14, "trial_type": "single-stim", "trial_index": 211, "time_elapsed": 862650, "internal_node_id": "0.0-157.0"}}, {"uniqueid": "MTK0407:326O153BMJ5X6E10THMEWR6SOJCDEN", "current_trial": 253, "dateTime": 1510861083127, "trialdata": {"rt": -1, "stimulus": "<p id=\"stim\">JOURNAL</p>", "key_press": -1, "type": "PRES_VIS", "word": "journal", "wordID": 759, "conditions": [24, 800, "v", 24000], "trial": 5, "serialpos": 15, "trial_type": "single-stim", "trial_index": 212, "time_elapsed": 864506, "internal_node_id": "0.0-158.0"}}, {"uniqueid": "MTK0407:326O153BMJ5X6E10THMEWR6SOJCDEN", "current_trial": 254, "dateTime": 1510861085120, "trialdata": {"rt": -1, "stimulus": "<p id=\"stim\">TEACHER</p>", "key_press": -1, "type": "PRES_VIS", "word": "teacher", "wordID": 1439, "conditions": [24, 800, "v", 24000], "trial": 5, "serialpos": 16, "trial_type": "single-stim", "trial_index": 213, "time_elapsed": 866499, "internal_node_id": "0.0-159.0"}}, {"uniqueid": "MTK0407:326O153BMJ5X6E10THMEWR6SOJCDEN", "current_trial": 255, "dateTime": 1510861087047, "trialdata": {"rt": -1, "stimulus": "<p id=\"stim\">MARROW</p>", "key_press": -1, "type": "PRES_VIS", "word": "marrow", "wordID": 871, "conditions": [24, 800, "v", 24000], "trial": 5, "serialpos": 17, "trial_type": "single-stim", "trial_index": 214, "time_elapsed": 868426, "internal_node_id": "0.0-160.0"}}, {"uniqueid": "MTK0407:326O153BMJ5X6E10THMEWR6SOJCDEN", "current_trial": 256, "dateTime": 1510861089039, "trialdata": {"rt": -1, "stimulus": "<p id=\"stim\">WHISKERS</p>", "key_press": -1, "type": "PRES_VIS", "word": "whiskers", "wordID": 1604, "conditions": [24, 800, "v", 24000], "trial": 5, "serialpos": 18, "trial_type": "single-stim", "trial_index": 215, "time_elapsed": 870417, "internal_node_id": "0.0-161.0"}}, {"uniqueid": "MTK0407:326O153BMJ5X6E10THMEWR6SOJCDEN", "current_trial": 257, "dateTime": 1510861091010, "trialdata": {"rt": -1, "stimulus": "<p id=\"stim\">SEAL</p>", "key_press": -1, "type": "PRES_VIS", "word": "seal", "wordID": 1261, "conditions": [24, 800, "v", 24000], "trial": 5, "serialpos": 19, "trial_type": "single-stim", "trial_index": 216, "time_elapsed": 872389, "internal_node_id": "0.0-162.0"}}, {"uniqueid": "MTK0407:326O153BMJ5X6E10THMEWR6SOJCDEN", "current_trial": 258, "dateTime": 1510861092754, "trialdata": {"rt": -1, "stimulus": "<p id=\"stim\">ONION</p>", "key_press": -1, "type": "PRES_VIS", "word": "onion", "wordID": 976, "conditions": [24, 800, "v", 24000], "trial": 5, "serialpos": 20, "trial_type": "single-stim", "trial_index": 217, "time_elapsed": 874132, "internal_node_id": "0.0-163.0"}}, {"uniqueid": "MTK0407:326O153BMJ5X6E10THMEWR6SOJCDEN", "current_trial": 259, "dateTime": 1510861094723, "trialdata": {"rt": -1, "stimulus": "<p id=\"stim\">PATIENT</p>", "key_press": -1, "type": "PRES_VIS", "word": "patient", "wordID": 1023, "conditions": [24, 800, "v", 24000], "trial": 5, "serialpos": 21, "trial_type": "single-stim", "trial_index": 218, "time_elapsed": 876101, "internal_node_id": "0.0-164.0"}}, {"uniqueid": "MTK0407:326O153BMJ5X6E10THMEWR6SOJCDEN", "current_trial": 260, "dateTime": 1510861096518, "trialdata": {"rt": -1, "stimulus": "<p id=\"stim\">COMET</p>", "key_press": -1, "type": "PRES_VIS", "word": "comet", "wordID": 352, "conditions": [24, 800, "v", 24000], "trial": 5, "serialpos": 22, "trial_type": "single-stim", "trial_index": 219, "time_elapsed": 877896, "internal_node_id": "0.0-165.0"}}, {"uniqueid": "MTK0407:326O153BMJ5X6E10THMEWR6SOJCDEN", "current_trial": 261, "dateTime": 1510861098439, "trialdata": {"rt": -1, "stimulus": "<p id=\"stim\">PARSLEY</p>", "key_press": -1, "type": "PRES_VIS", "word": "parsley", "wordID": 1015, "conditions": [24, 800, "v", 24000], "trial": 5, "serialpos": 23, "trial_type": "single-stim", "trial_index": 220, "time_elapsed": 879817, "internal_node_id": "0.0-166.0"}}, {"uniqueid": "MTK0407:326O153BMJ5X6E10THMEWR6SOJCDEN", "current_trial": 262, "dateTime": 1510861100668, "trialdata": {"rt": -1, "stimulus": "", "key_press": -1, "type": "PRE_RECALL_DELAY", "trial_type": "single-stim", "trial_index": 221, "time_elapsed": 882046, "internal_node_id": "0.0-167.0-0.0"}}, {"uniqueid": "MTK0407:326O153BMJ5X6E10THMEWR6SOJCDEN", "current_trial": 263, "dateTime": 1510861101174, "trialdata": {"rt": -1000, "stimulus": "/static/audio/400Hz.wav", "key_press": -1, "type": "PRE_RECALL_ALERT", "trial_type": "single-audio", "trial_index": 222, "time_elapsed": 882553, "internal_node_id": "0.0-168.0"}}, {"uniqueid": "MTK0407:326O153BMJ5X6E10THMEWR6SOJCDEN", "current_trial": 264, "dateTime": 1510861161186, "trialdata": {"rt": [3210, 5010, 11171, 15484, 18190, 21825, 27630, 30948, 34033, 38604, 44605], "recwords": ["comet", "onion", "pistol", "spider", "dolphin", "snail", "denim", "knife", "world", "wagon", "supper"], "type": "FREE_RECALL", "conditions": [24, 800, "v", 24000], "trial": 5, "trial_type": "free-recall", "trial_index": 223, "time_elapsed": 942559, "internal_node_id": "0.0-169.0-0.0"}}, {"uniqueid": "MTK0407:326O153BMJ5X6E10THMEWR6SOJCDEN", "current_trial": 265, "dateTime": 1510861164615, "trialdata": {"rt": 1427, "key_press": 13, "type": "INSTRUCTIONS", "trial_type": "text", "trial_index": 224, "time_elapsed": 945994, "internal_node_id": "0.0-170.0"}}, {"uniqueid": "MTK0407:326O153BMJ5X6E10THMEWR6SOJCDEN", "current_trial": 266, "dateTime": 1510861190621, "trialdata": {"rt": [5000, 8102, 11637, 14453, 18382, 21370], "responses": ["21", "17", "18", "14", "12", "9"], "num1": [6, 4, 4, 5, 3, 3, 4], "num2": [9, 9, 5, 6, 2, 4, 2], "num3": [6, 4, 9, 3, 7, 2, 7], "type": "DISTRACTOR", "conditions": [12, 800, "v", 24000], "trial": 6, "trial_type": "math-distractor", "trial_index": 225, "time_elapsed": 972000, "internal_node_id": "0.0-171.0"}}, {"uniqueid": "MTK0407:326O153BMJ5X6E10THMEWR6SOJCDEN", "current_trial": 267, "dateTime": 1510861193624, "trialdata": {"rt": -1, "stimulus": "<p id=\"stim\">10</p>", "key_press": -1, "trial_type": "single-stim", "trial_index": 226, "time_elapsed": 975002, "internal_node_id": "0.0-172.0-0.0"}}, {"uniqueid": "MTK0407:326O153BMJ5X6E10THMEWR6SOJCDEN", "current_trial": 268, "dateTime": 1510861194627, "trialdata": {"rt": -1, "stimulus": "<p id=\"stim\">9</p>", "key_press": -1, "trial_type": "single-stim", "trial_index": 227, "time_elapsed": 976005, "internal_node_id": "0.0-172.0-1.0"}}, {"uniqueid": "MTK0407:326O153BMJ5X6E10THMEWR6SOJCDEN", "current_trial": 269, "dateTime": 1510861195629, "trialdata": {"rt": -1, "stimulus": "<p id=\"stim\">8</p>", "key_press": -1, "trial_type": "single-stim", "trial_index": 228, "time_elapsed": 977007, "internal_node_id": "0.0-172.0-2.0"}}, {"uniqueid": "MTK0407:326O153BMJ5X6E10THMEWR6SOJCDEN", "current_trial": 270, "dateTime": 1510861196631, "trialdata": {"rt": -1, "stimulus": "<p id=\"stim\">7</p>", "key_press": -1, "trial_type": "single-stim", "trial_index": 229, "time_elapsed": 978009, "internal_node_id": "0.0-172.0-3.0"}}, {"uniqueid": "MTK0407:326O153BMJ5X6E10THMEWR6SOJCDEN", "current_trial": 271, "dateTime": 1510861197633, "trialdata": {"rt": -1, "stimulus": "<p id=\"stim\">6</p>", "key_press": -1, "trial_type": "single-stim", "trial_index": 230, "time_elapsed": 979011, "internal_node_id": "0.0-172.0-4.0"}}, {"uniqueid": "MTK0407:326O153BMJ5X6E10THMEWR6SOJCDEN", "current_trial": 272, "dateTime": 1510861198634, "trialdata": {"rt": -1, "stimulus": "<p id=\"stim\">5</p>", "key_press": -1, "trial_type": "single-stim", "trial_index": 231, "time_elapsed": 980013, "internal_node_id": "0.0-172.0-5.0"}}, {"uniqueid": "MTK0407:326O153BMJ5X6E10THMEWR6SOJCDEN", "current_trial": 273, "dateTime": 1510861199637, "trialdata": {"rt": -1, "stimulus": "<p id=\"stim\">4</p>", "key_press