{"condition": 0, "counterbalance": 2059, "assignmentId": "3TK8OJTYM2SNXMQCTG2JWPB34XSPVV", "workerId": "MTK1060", "hitId": "3CIS7GGG65QH0WESPA71H7EWWA6EUQ", "currenttrial": 667, "bonus": 0, "data": [{"current_trial": 0, "dateTime": 1513022130963, "trialdata": {"internal_node_id": "0.0-0.0", "key_press": 75, "rt": 4038, "time_elapsed": 4058, "trial_index": 0, "trial_type": "text", "type": "INSTRUCTIONS"}, "uniqueid": "MTK1060:3TK8OJTYM2SNXMQCTG2JWPB34XSPVV"}, {"current_trial": 1, "dateTime": 1513022143100, "trialdata": {"internal_node_id": "0.0-1.0", "key_press": 13, "rt": 12132, "time_elapsed": 16201, "trial_index": 1, "trial_type": "text", "type": "INSTRUCTIONS"}, "uniqueid": "MTK1060:3TK8OJTYM2SNXMQCTG2JWPB34XSPVV"}, {"current_trial": 2, "dateTime": 1513022161855, "trialdata": {"internal_node_id": "0.0-2.0", "responses": ["ocean"], "rt": [18702], "time_elapsed": 34955, "trial_index": 2, "trial_type": "audio-test", "type": "AUDIO_TEST"}, "uniqueid": "MTK1060:3TK8OJTYM2SNXMQCTG2JWPB34XSPVV"}, {"current_trial": 3, "dateTime": 1513022168591, "trialdata": {"internal_node_id": "0.0-3.0", "responses": ["crystal"], "rt": [6718], "time_elapsed": 41692, "trial_index": 3, "trial_type": "audio-test", "type": "AUDIO_TEST"}, "uniqueid": "MTK1060:3TK8OJTYM2SNXMQCTG2JWPB34XSPVV"}, {"current_trial": 4, "dateTime": 1513022174566, "trialdata": {"internal_node_id": "0.0-4.0", "responses": ["spice"], "rt": [5958], "time_elapsed": 47667, "trial_index": 4, "trial_type": "audio-test", "type": "AUDIO_TEST"}, "uniqueid": "MTK1060:3TK8OJTYM2SNXMQCTG2JWPB34XSPVV"}, {"current_trial": 5, "dateTime": 1513022199509, "trialdata": {"internal_node_id": "0.0-5.0", "responses": "{\"Q0\":\"9\",\"Q1\":\"6\",\"Q2\":\"5\"}", "rt": 24186, "time_elapsed": 72610, "trial_index": 5, "trial_type": "survey-text", "type": "SLEEP_SURVEY"}, "uniqueid": "MTK1060:3TK8OJTYM2SNXMQCTG2JWPB34XSPVV"}, {"current_trial": 6, "dateTime": 1513022304586, "trialdata": {"internal_node_id": "0.0-6.0", "key_press": 88, "rt": 104072, "time_elapsed": 177686, "trial_index": 6, "trial_type": "text", "type": "INSTRUCTIONS"}, "uniqueid": "MTK1060:3TK8OJTYM2SNXMQCTG2JWPB34XSPVV"}, {"current_trial": 7, "dateTime": 1513022387936, "trialdata": {"internal_node_id": "0.0-7.0", "key_press": 13, "rt": 82847, "time_elapsed": 261037, "trial_index": 7, "trial_type": "text", "type": "INSTRUCTIONS"}, "uniqueid": "MTK1060:3TK8OJTYM2SNXMQCTG2JWPB34XSPVV"}, {"current_trial": 8, "dateTime": 1513022454666, "trialdata": {"internal_node_id": "0.0-8.0", "key_press": 13, "rt": 66227, "time_elapsed": 327767, "trial_index": 8, "trial_type": "text", "type": "INSTRUCTIONS"}, "uniqueid": "MTK1060:3TK8OJTYM2SNXMQCTG2JWPB34XSPVV"}, {"current_trial": 9, "dateTime": 1513022473688, "trialdata": {"conditions": [18, 1200, "a", 18000], "internal_node_id": "0.0-9.0", "num1": [9], "num2": [8], "num3": [1], "responses": [], "rt": [], "time_elapsed": 346789, "trial": 0, "trial_index": 9, "trial_type": "math-distractor", "type": "DISTRACTOR"}, "uniqueid": "MTK1060:3TK8OJTYM2SNXMQCTG2JWPB34XSPVV"}, {"current_trial": 10, "dateTime": 1513022476727, "trialdata": {"internal_node_id": "0.0-10.0-0.0", "key_press": -1, "rt": -1, "stimulus": "<p id=\"stim\">10</p>", "time_elapsed": 349828, "trial_index": 10, "trial_type": "single-stim"}, "uniqueid": "MTK1060:3TK8OJTYM2SNXMQCTG2JWPB34XSPVV"}, {"current_trial": 11, "dateTime": 1513022477731, "trialdata": {"internal_node_id": "0.0-10.0-1.0", "key_press": -1, "rt": -1, "stimulus": "<p id=\"stim\">9</p>", "time_elapsed": 350831, "trial_index": 11, "trial_type": "single-stim"}, "uniqueid": "MTK1060:3TK8OJTYM2SNXMQCTG2JWPB34XSPVV"}, {"current_trial": 12, "dateTime": 1513022478736, "trialdata": {"internal_node_id": "0.0-10.0-2.0", "key_press": -1, "rt": -1, "stimulus": "<p id=\"stim\">8</p>", "time_elapsed": 351837, "trial_index": 12, "trial_type": "single-stim"}, "uniqueid": "MTK1060:3TK8OJTYM2SNXMQCTG2JWPB34XSPVV"}, {"current_trial": 13, "dateTime": 1513022479739, "trialdata": {"internal_node_id": "0.0-10.0-3.0", "key_press": -1, "rt": -1, "stimulus": "<p id=\"stim\">7</p>", "time_elapsed": 352840, "trial_index": 13, "trial_type": "single-stim"}, "uniqueid": "MTK1060:3TK8OJTYM2SNXMQCTG2JWPB34XSPVV"}, {"current_trial": 14, "dateTime": 1513022480775, "trialdata": {"internal_node_id": "0.0-10.0-4.0", "key_press": -1, "rt": -1, "stimulus": "<p id=\"stim\">6</p>", "time_elapsed": 353876, "trial_index": 14, "trial_type": "single-stim"}, "uniqueid": "MTK1060:3TK8OJTYM2SNXMQCTG2JWPB34XSPVV"}, {"current_trial": 15, "dateTime": 1513022481779, "trialdata": {"internal_node_id": "0.0-10.0-5.0", "key_press": -1, "rt": -1, "stimulus": "<p id=\"stim\">5</p>", "time_elapsed": 354880, "trial_index": 15, "trial_type": "single-stim"}, "uniqueid": "MTK1060:3TK8OJTYM2SNXMQCTG2JWPB34XSPVV"}, {"current_trial": 16, "dateTime": 1513022482840, "trialdata": {"internal_node_id": "0.0-10.0-6.0", "key_press": -1, "rt": -1, "stimulus": "<p id=\"stim\">4</p>", "time_elapsed": 355941, "trial_index": 16, "trial_type": "single-stim"}, "uniqueid": "MTK1060:3TK8OJTYM2SNXMQCTG2JWPB34XSPVV"}, {"current_trial": 17, "dateTime": 1513022483845, "trialdata": {"internal_node_id": "0.0-10.0-7.0", "key_press": -1, "rt": -1, "stimulus": "<p id=\"stim\">3</p>", "time_elapsed": 356946, "trial_index": 17, "trial_type": "single-stim"}, "uniqueid": "MTK1060:3TK8OJTYM2SNXMQCTG2JWPB34XSPVV"}, {"current_trial": 18, "dateTime": 1513022484862, "trialdata": {"internal_node_id": "0.0-10.0-8.0", "key_press": -1, "rt": -1, "stimulus": "<p id=\"stim\">2</p>", "time_elapsed": 357962, "trial_index": 18, "trial_type": "single-stim"}, "uniqueid": "MTK1060:3TK8OJTYM2SNXMQCTG2JWPB34XSPVV"}, {"current_trial": 19, "dateTime": 1513022485868, "trialdata": {"internal_node_id": "0.0-10.0-9.0", "key_press": -1, "rt": -1, "stimulus": "<p id=\"stim\">1</p>", "time_elapsed": 358969, "trial_index": 19, "trial_type": "single-stim"}, "uniqueid": "MTK1060:3TK8OJTYM2SNXMQCTG2JWPB34XSPVV"}, {"current_trial": 20, "dateTime": 1513022487372, "trialdata": {"internal_node_id": "0.0-11.0-0.0", "key_press": -1, "rt": -1, "stimulus": "<p id=\"stim\">+</p>", "time_elapsed": 360473, "trial_index": 20, "trial_type": "single-stim", "type": "FIXATION"}, "uniqueid": "MTK1060:3TK8OJTYM2SNXMQCTG2JWPB34XSPVV"}, {"current_trial": 21, "dateTime": 1513022489615, "trialdata": {"conditions": [18, 1200, "a", 18000], "internal_node_id": "0.0-12.0", "key_press": -1, "rt": -1000, "serialpos": 0, "stimulus": "/static/audio/wordpool/VIKING.wav", "time_elapsed": 362715, "trial": 0, "trial_index": 21, "trial_type": "single-audio", "type": "PRES_AUD", "word": "viking", "wordID": 1564}, "uniqueid": "MTK1060:3TK8OJTYM2SNXMQCTG2JWPB34XSPVV"}, {"current_trial": 22, "dateTime": 1513022491985, "trialdata": {"conditions": [18, 1200, "a", 18000], "internal_node_id": "0.0-13.0", "key_press": -1, "rt": -1000, "serialpos": 1, "stimulus": "/static/audio/wordpool/BACON.wav", "time_elapsed": 365086, "trial": 0, "trial_index": 22, "trial_type": "single-audio", "type": "PRES_AUD", "word": "bacon", "wordID": 66}, "uniqueid": "MTK1060:3TK8OJTYM2SNXMQCTG2JWPB34XSPVV"}, {"current_trial": 23, "dateTime": 1513022494217, "trialdata": {"conditions": [18, 1200, "a", 18000], "internal_node_id": "0.0-14.0", "key_press": -1, "rt": -1000, "serialpos": 2, "stimulus": "/static/audio/wordpool/RAFT.wav", "time_elapsed": 367318, "trial": 0, "trial_index": 23, "trial_type": "single-audio", "type": "PRES_AUD", "word": "raft", "wordID": 1158}, "uniqueid": "MTK1060:3TK8OJTYM2SNXMQCTG2JWPB34XSPVV"}, {"current_trial": 24, "dateTime": 1513022496290, "trialdata": {"conditions": [18, 1200, "a", 18000], "internal_node_id": "0.0-15.0", "key_press": -1, "rt": -1000, "serialpos": 3, "stimulus": "/static/audio/wordpool/TOURIST.wav", "time_elapsed": 369391, "trial": 0, "trial_index": 24, "trial_type": "single-audio", "type": "PRES_AUD", "word": "tourist", "wordID": 1487}, "uniqueid": "MTK1060:3TK8OJTYM2SNXMQCTG2JWPB34XSPVV"}, {"current_trial": 25, "dateTime": 1513022498363, "trialdata": {"conditions": [18, 1200, "a", 18000], "internal_node_id": "0.0-16.0", "key_press": -1, "rt": -1000, "serialpos": 4, "stimulus": "/static/audio/wordpool/HUMAN.wav", "time_elapsed": 371463, "trial": 0, "trial_index": 25, "trial_type": "single-audio", "type": "PRES_AUD", "word": "human", "wordID": 725}, "uniqueid": "MTK1060:3TK8OJTYM2SNXMQCTG2JWPB34XSPVV"}, {"current_trial": 26, "dateTime": 1513022500376, "trialdata": {"conditions": [18, 1200, "a", 18000], "internal_node_id": "0.0-17.0", "key_press": -1, "rt": -1000, "serialpos": 5, "stimulus": "/static/audio/wordpool/NURSE.wav", "time_elapsed": 373472, "trial": 0, "trial_index": 26, "trial_type": "single-audio", "type": "PRES_AUD", "word": "nurse", "wordID": 962}, "uniqueid": "MTK1060:3TK8OJTYM2SNXMQCTG2JWPB34XSPVV"}, {"current_trial": 27, "dateTime": 1513022502778, "trialdata": {"conditions": [18, 1200, "a", 18000], "internal_node_id": "0.0-18.0", "key_press": -1, "rt": -1000, "serialpos": 6, "stimulus": "/static/audio/wordpool/COFFEE.wav", "time_elapsed": 375879, "trial": 0, "trial_index": 27, "trial_type": "single-audio", "type": "PRES_AUD", "word": "coffee", "wordID": 340}, "uniqueid": "MTK1060:3TK8OJTYM2SNXMQCTG2JWPB34XSPVV"}, {"current_trial": 28, "dateTime": 1513022505108, "trialdata": {"conditions": [18, 1200, "a", 18000], "internal_node_id": "0.0-19.0", "key_press": -1, "rt": -1000, "serialpos": 7, "stimulus": "/static/audio/wordpool/CITRUS.wav", "time_elapsed": 378209, "trial": 0, "trial_index": 28, "trial_type": "single-audio", "type": "PRES_AUD", "word": "citrus", "wordID": 312}, "uniqueid": "MTK1060:3TK8OJTYM2SNXMQCTG2JWPB34XSPVV"}, {"current_trial": 29, "dateTime": 1513022507197, "trialdata": {"conditions": [18, 1200, "a", 18000], "internal_node_id": "0.0-20.0", "key_press": -1, "rt": -1000, "serialpos": 8, "stimulus": "/static/audio/wordpool/WAITRESS.wav", "time_elapsed": 380297, "trial": 0, "trial_index": 29, "trial_type": "single-audio", "type": "PRES_AUD", "word": "waitress", "wordID": 1580}, "uniqueid": "MTK1060:3TK8OJTYM2SNXMQCTG2JWPB34XSPVV"}, {"current_trial": 30, "dateTime": 1513022509276, "trialdata": {"conditions": [18, 1200, "a", 18000], "internal_node_id": "0.0-21.0", "key_press": -1, "rt": -1000, "serialpos": 9, "stimulus": "/static/audio/wordpool/SPIDER.wav", "time_elapsed": 382377, "trial": 0, "trial_index": 30, "trial_type": "single-audio", "type": "PRES_AUD", "word": "spider", "wordID": 1350}, "uniqueid": "MTK1060:3TK8OJTYM2SNXMQCTG2JWPB34XSPVV"}, {"current_trial": 31, "dateTime": 1513022511557, "trialdata": {"conditions": [18, 1200, "a", 18000], "internal_node_id": "0.0-22.0", "key_press": -1, "rt": -1000, "serialpos": 10, "stimulus": "/static/audio/wordpool/SURVEY.wav", "time_elapsed": 384658, "trial": 0, "trial_index": 31, "trial_type": "single-audio", "type": "PRES_AUD", "word": "survey", "wordID": 1413}, "uniqueid": "MTK1060:3TK8OJTYM2SNXMQCTG2JWPB34XSPVV"}, {"current_trial": 32, "dateTime": 1513022513631, "trialdata": {"conditions": [18, 1200, "a", 18000], "internal_node_id": "0.0-23.0", "key_press": -1, "rt": -1000, "serialpos": 11, "stimulus": "/static/audio/wordpool/DRAWING.wav", "time_elapsed": 386732, "trial": 0, "trial_index": 32, "trial_type": "single-audio", "type": "PRES_AUD", "word": "drawing", "wordID": 493}, "uniqueid": "MTK1060:3TK8OJTYM2SNXMQCTG2JWPB34XSPVV"}, {"current_trial": 33, "dateTime": 1513022515719, "trialdata": {"conditions": [18, 1200, "a", 18000], "internal_node_id": "0.0-24.0", "key_press": -1, "rt": -1000, "serialpos": 12, "stimulus": "/static/audio/wordpool/PLATE.wav", "time_elapsed": 388819, "trial": 0, "trial_index": 33, "trial_type": "single-audio", "type": "PRES_AUD", "word": "plate", "wordID": 1085}, "uniqueid": "MTK1060:3TK8OJTYM2SNXMQCTG2JWPB34XSPVV"}, {"current_trial": 34, "dateTime": 1513022517769, "trialdata": {"conditions": [18, 1200, "a", 18000], "internal_node_id": "0.0-25.0", "key_press": -1, "rt": -1000, "serialpos": 13, "stimulus": "/static/audio/wordpool/DAISY.wav", "time_elapsed": 390870, "trial": 0, "trial_index": 34, "trial_type": "single-audio", "type": "PRES_AUD", "word": "daisy", "wordID": 434}, "uniqueid": "MTK1060:3TK8OJTYM2SNXMQCTG2JWPB34XSPVV"}, {"current_trial": 35, "dateTime": 1513022520041, "trialdata": {"conditions": [18, 1200, "a", 18000], "internal_node_id": "0.0-26.0", "key_press": -1, "rt": -1000, "serialpos": 14, "stimulus": "/static/audio/wordpool/SIBLING.wav", "time_elapsed": 393141, "trial": 0, "trial_index": 35, "trial_type": "single-audio", "type": "PRES_AUD", "word": "sibling", "wordID": 1300}, "uniqueid": "MTK1060:3TK8OJTYM2SNXMQCTG2JWPB34XSPVV"}, {"current_trial": 36, "dateTime": 1513022522258, "trialdata": {"conditions": [18, 1200, "a", 18000], "internal_node_id": "0.0-27.0", "key_press": -1, "rt": -1000, "serialpos": 15, "stimulus": "/static/audio/wordpool/TEACHER.wav", "time_elapsed": 395359, "trial": 0, "trial_index": 36, "trial_type": "single-audio", "type": "PRES_AUD", "word": "teacher", "wordID": 1439}, "uniqueid": "MTK1060:3TK8OJTYM2SNXMQCTG2JWPB34XSPVV"}, {"current_trial": 37, "dateTime": 1513022524581, "trialdata": {"conditions": [18, 1200, "a", 18000], "internal_node_id": "0.0-28.0", "key_press": -1, "rt": -1000, "serialpos": 16, "stimulus": "/static/audio/wordpool/SLUG.wav", "time_elapsed": 397682, "trial": 0, "trial_index": 37, "trial_type": "single-audio", "type": "PRES_AUD", "word": "slug", "wordID": 1328}, "uniqueid": "MTK1060:3TK8OJTYM2SNXMQCTG2JWPB34XSPVV"}, {"current_trial": 38, "dateTime": 1513022526652, "trialdata": {"conditions": [18, 1200, "a", 18000], "internal_node_id": "0.0-29.0", "key_press": -1, "rt": -1000, "serialpos": 17, "stimulus": "/static/audio/wordpool/LIVER.wav", "time_elapsed": 399752, "trial": 0, "trial_index": 38, "trial_type": "single-audio", "type": "PRES_AUD", "word": "liver", "wordID": 832}, "uniqueid": "MTK1060:3TK8OJTYM2SNXMQCTG2JWPB34XSPVV"}, {"current_trial": 39, "dateTime": 1513022528037, "trialdata": {"internal_node_id": "0.0-30.0-0.0", "key_press": -1, "rt": -1, "stimulus": "", "time_elapsed": 401138, "trial_index": 39, "trial_type": "single-stim", "type": "PRE_RECALL_DELAY"}, "uniqueid": "MTK1060:3TK8OJTYM2SNXMQCTG2JWPB34XSPVV"}, {"current_trial": 40, "dateTime": 1513022528544, "trialdata": {"internal_node_id": "0.0-31.0", "key_press": -1, "rt": -1000, "stimulus": "/static/audio/400Hz.wav", "time_elapsed": 401644, "trial_index": 40, "trial_type": "single-audio", "type": "PRE_RECALL_ALERT"}, "uniqueid": "MTK1060:3TK8OJTYM2SNXMQCTG2JWPB34XSPVV"}, {"uniqueid": "MTK1060:3TK8OJTYM2SNXMQCTG2JWPB34XSPVV", "current_trial": 41, "dateTime": 1513022796877, "trialdata": {"rt": 40766, "key_press": 13, "type": "INSTRUCTIONS", "trial_type": "text", "trial_index": 0, "time_elapsed": 40776, "internal_node_id": "0.0-0.0"}}, {"uniqueid": "MTK1060:3TK8OJTYM2SNXMQCTG2JWPB34XSPVV", "current_trial": 42, "dateTime": 1513022801007, "trialdata": {"rt": 4127, "key_press": 13, "type": "INSTRUCTIONS", "trial_type": "text", "trial_index": 1, "time_elapsed": 44907, "internal_node_id": "0.0-1.0"}}, {"uniqueid": "MTK1060:3TK8OJTYM2SNXMQCTG2JWPB34XSPVV", "current_trial": 43, "dateTime": 1513022811499, "trialdata": {"rt": [10469], "responses": ["ocean"], "type": "AUDIO_TEST", "trial_type": "audio-test", "trial_index": 2, "time_elapsed": 55400, "internal_node_id": "0.0-2.0"}}, {"uniqueid": "MTK1060:3TK8OJTYM2SNXMQCTG2JWPB34XSPVV", "current_trial": 44, "dateTime": 1513022818771, "trialdata": {"rt": [7256], "responses": ["crystal"], "type": "AUDIO_TEST", "trial_type": "audio-test", "trial_index": 3, "time_elapsed": 62672, "internal_node_id": "0.0-3.0"}}, {"uniqueid": "MTK1060:3TK8OJTYM2SNXMQCTG2JWPB34XSPVV", "current_trial": 45, "dateTime": 1513022829867, "trialdata": {"rt": [11079], "responses": ["spice"], "type": "AUDIO_TEST", "trial_type": "audio-test", "trial_index": 4, "time_elapsed": 73767, "internal_node_id": "0.0-4.0"}}, {"uniqueid": "MTK1060:3TK8OJTYM2SNXMQCTG2JWPB34XSPVV", "current_trial": 46, "dateTime": 1513022856758, "trialdata": {"rt": 26129, "responses": "{\"Q0\":\"9\",\"Q1\":\"6\",\"Q2\":\"5\"}", "type": "SLEEP_SURVEY", "trial_type": "survey-text", "trial_index": 5, "time_elapsed": 100659, "internal_node_id": "0.0-5.0"}}, {"uniqueid": "MTK1060:3TK8OJTYM2SNXMQCTG2JWPB34XSPVV", "current_trial": 47, "dateTime": 1513022862308, "trialdata": {"rt": 4546, "key_press": 13, "type": "INSTRUCTIONS", "trial_type": "text", "trial_index": 6, "time_elapsed": 106208, "internal_node_id": "0.0-6.0"}}, {"uniqueid": "MTK1060:3TK8OJTYM2SNXMQCTG2JWPB34XSPVV", "current_trial": 48, "dateTime": 1513022865257, "trialdata": {"rt": 2446, "key_press": 13, "type": "INSTRUCTIONS", "trial_type": "text", "trial_index": 7, "time_elapsed": 109157, "internal_node_id": "0.0-7.0"}}, {"uniqueid": "MTK1060:3TK8OJTYM2SNXMQCTG2JWPB34XSPVV", "current_trial": 49, "dateTime": 1513022866913, "trialdata": {"rt": 1153, "key_press": 13, "type": "INSTRUCTIONS", "trial_type": "text", "trial_index": 8, "time_elapsed": 110813, "internal_node_id": "0.0-8.0"}}, {"uniqueid": "MTK1060:3TK8OJTYM2SNXMQCTG2JWPB34XSPVV", "current_trial": 50, "dateTime": 1513022885938, "trialdata": {"rt": [8642, 13579], "responses": ["18", "19"], "num1": [9, 7, 6], "num2": [7, 7, 1], "num3": [2, 5, 7], "type": "DISTRACTOR", "conditions": [18, 1200, "a", 18000], "trial": 0, "trial_type": "math-distractor", "trial_index": 9, "time_elapsed": 129839, "internal_node_id": "0.0-9.0"}}, {"uniqueid": "MTK1060:3TK8OJTYM2SNXMQCTG2JWPB34XSPVV", "current_trial": 51, "dateTime": 1513022888947, "trialdata": {"rt": 148, "stimulus": "<p id=\"stim\">10</p>", "key_press": 52, "trial_type": "single-stim", "trial_index": 10, "time_elapsed": 132847, "internal_node_id": "0.0-10.0-0.0"}}, {"uniqueid": "MTK1060:3TK8OJTYM2SNXMQCTG2JWPB34XSPVV", "current_trial": 52, "dateTime": 1513022889951, "trialdata": {"rt": -1, "stimulus": "<p id=\"stim\">9</p>", "key_press": -1, "trial_type": "single-stim", "trial_index": 11, "time_elapsed": 133851, "internal_node_id": "0.0-10.0-1.0"}}, {"uniqueid": "MTK1060:3TK8OJTYM2SNXMQCTG2JWPB34XSPVV", "current_trial": 53, "dateTime": 1513022890954, "trialdata": {"rt": -1, "stimulus": "<p id=\"stim\">8</p>", "key_press": -1, "trial_type": "single-stim", "trial_index": 12, "time_elapsed": 134855, "internal_node_id": "0.0-10.0-2.0"}}, {"uniqueid": "MTK1060:3TK8OJTYM2SNXMQCTG2JWPB34XSPVV", "current_trial": 54, "dateTime": 1513022891958, "trialdata": {"rt": -1, "stimulus": "<p id=\"stim\">7</p>", "key_press": -1, "trial_type": "single-stim", "trial_index": 13, "time_elapsed": 135859, "internal_node_id": "0.0-10.0-3.0"}}, {"uniqueid": "MTK1060:3TK8OJTYM2SNXMQCTG2JWPB34XSPVV", "current_trial": 55, "dateTime": 1513022892964, "trialdata": {"rt": -1, "stimulus": "<p id=\"stim\">6</p>", "key_press": -1, "trial_type": "single-stim", "trial_index": 14, "time_elapsed": 136865, "internal_node_id": "0.0-10.0-4.0"}}, {"uniqueid": "MTK1060:3TK8OJTYM2SNXMQCTG2JWPB34XSPVV", "current_trial": 56, "dateTime": 1513022893969, "trialdata": {"rt": -1, "stimulus": "<p id=\"stim\">5</p>", "key_press": -1, "trial_type": "single-stim", "trial_index": 15, "time_elapsed": 137870, "internal_node_id": "0.0-10.0-5.0"}}, {"uniqueid": "MTK1060:3TK8OJTYM2SNXMQCTG2JWPB34XSPVV", "current_trial": 57, "dateTime": 1513022894974, "trialdata": {"rt": 445, "stimulus": "<p id=\"stim\">4</p>", "key_press": 13, "trial_type": "single-stim", "trial_index": 16, "time_elapsed": 138875, "internal_node_id": "0.0-10.0-6.0"}}, {"uniqueid": "MTK1060:3TK8OJTYM2SNXMQCTG2JWPB34XSPVV", "current_trial": 58, "dateTime": 1513022895977, "trialdata": {"rt": -1, "stimulus": "<p id=\"stim\">3</p>", "key_press": -1, "trial_type": "single-stim", "trial_index": 17, "time_elapsed": 139878, "internal_node_id": "0.0-10.0-7.0"}}, {"uniqueid": "MTK1060:3TK8OJTYM2SNXMQCTG2JWPB34XSPVV", "current_trial": 59, "dateTime": 1513022896982, "trialdata": {"rt": -1, "stimulus": "<p id=\"stim\">2</p>", "key_press": -1, "trial_type": "single-stim", "trial_index": 18, "time_elapsed": 140882, "internal_node_id": "0.0-10.0-8.0"}}, {"uniqueid": "MTK1060:3TK8OJTYM2SNXMQCTG2JWPB34XSPVV", "current_trial": 60, "dateTime": 1513022897985, "trialdata": {"rt": -1, "stimulus": "<p id=\"stim\">1</p>", "key_press": -1, "trial_type": "single-stim", "trial_index": 19, "time_elapsed": 141885, "internal_node_id": "0.0-10.0-9.0"}}, {"uniqueid": "MTK1060:3TK8OJTYM2SNXMQCTG2JWPB34XSPVV", "current_trial": 61, "dateTime": 1513022899515, "trialdata": {"rt": -1, "stimulus": "<p id=\"stim\">+</p>", "key_press": -1, "type": "FIXATION", "trial_type": "single-stim", "trial_index": 20, "time_elapsed": 143415, "internal_node_id": "0.0-11.0-0.0"}}, {"uniqueid": "MTK1060:3TK8OJTYM2SNXMQCTG2JWPB34XSPVV", "current_trial": 62, "dateTime": 1513022901738, "trialdata": {"rt": -1000, "stimulus": "/static/audio/wordpool/VIKING.wav", "key_press": -1, "type": "PRES_AUD", "word": "viking", "wordID": 1564, "conditions": [18, 1200, "a", 18000], "trial": 0, "serialpos": 0, "trial_type": "single-audio", "trial_index": 21, "time_elapsed": 145638, "internal_node_id": "0.0-12.0"}}, {"uniqueid": "MTK1060:3TK8OJTYM2SNXMQCTG2JWPB34XSPVV", "current_trial": 63, "dateTime": 1513022903991, "trialdata": {"rt": -1000, "stimulus": "/static/audio/wordpool/BACON.wav", "key_press": -1, "type": "PRES_AUD", "word": "bacon", "wordID": 66, "conditions": [18, 1200, "a", 18000], "trial": 0, "serialpos": 1, "trial_type": "single-audio", "trial_index": 22, "time_elapsed": 147892, "internal_node_id": "0.0-13.0"}}, {"uniqueid": "MTK1060:3TK8OJTYM2SNXMQCTG2JWPB34XSPVV", "current_trial": 64, "dateTime": 1513022906133, "trialdata": {"rt": -1000, "stimulus": "/static/audio/wordpool/RAFT.wav", "key_press": -1, "type": "PRES_AUD", "word": "raft", "wordID": 1158, "conditions": [18, 1200, "a", 18000], "trial": 0, "serialpos": 2, "trial_type": "single-audio", "trial_index": 23, "time_elapsed": 150034, "internal_node_id": "0.0-14.0"}}, {"uniqueid": "MTK1060:3TK8OJTYM2SNXMQCTG2JWPB34XSPVV", "current_trial": 65, "dateTime": 1513022908269, "trialdata": {"rt": -1000, "stimulus": "/static/audio/wordpool/TOURIST.wav", "key_press": -1, "type": "PRES_AUD", "word": "tourist", "wordID": 1487, "conditions": [18, 1200, "a", 18000], "trial": 0, "serialpos": 3, "trial_type": "single-audio", "trial_index": 24, "time_elapsed": 152169, "internal_node_id": "0.0-15.0"}}, {"uniqueid": "MTK1060:3TK8OJTYM2SNXMQCTG2JWPB34XSPVV", "current_trial": 66, "dateTime": 1513022910426, "trialdata": {"rt": -1000, "stimulus": "/static/audio/wordpool/HUMAN.wav", "key_press": -1, "type": "PRES_AUD", "word": "human", "wordID": 725, "conditions": [18, 1200, "a", 18000], "trial": 0, "serialpos": 4, "trial_type": "single-audio", "trial_index": 25, "time_elapsed": 154326, "internal_node_id": "0.0-16.0"}}, {"uniqueid": "MTK1060:3TK8OJTYM2SNXMQCTG2JWPB34XSPVV", "current_trial": 67, "dateTime": 1513022912761, "trialdata": {"rt": -1000, "stimulus": "/static/audio/wordpool/NURSE.wav", "key_press": -1, "type": "PRES_AUD", "word": "nurse", "wordID": 962, "conditions": [18, 1200, "a", 18000], "trial": 0, "serialpos": 5, "trial_type": "single-audio", "trial_index": 26, "time_elapsed": 156662, "internal_node_id": "0.0-17.0"}}, {"uniqueid": "MTK1060:3TK8OJTYM2SNXMQCTG2JWPB34XSPVV", "current_trial": 68, "dateTime": 1513022914803, "trialdata": {"rt": -1000, "stimulus": "/static/audio/wordpool/COFFEE.wav", "key_press": -1, "type": "PRES_AUD", "word": "coffee", "wordID": 340, "conditions": [18, 1200, "a", 18000], "trial": 0, "serialpos": 6, "trial_type": "single-audio", "trial_index": 27, "time_elapsed": 158704, "internal_node_id": "0.0-18.0"}}, {"uniqueid": "MTK1060:3TK8OJTYM2SNXMQCTG2JWPB34XSPVV", "current_trial": 69, "dateTime": 1513022916911, "trialdata": {"rt": -1000, "stimulus": "/static/audio/wordpool/CITRUS.wav", "key_press": -1, "type": "PRES_AUD", "word": "citrus", "wordID": 312, "conditions": [18, 1200, "a", 18000], "trial": 0, "serialpos": 7, "trial_type": "single-audio", "trial_index": 28, "time_elapsed": 160812, "internal_node_id": "0.0-19.0"}}, {"uniqueid": "MTK1060:3TK8OJTYM2SNXMQCTG2JWPB34XSPVV", "current_trial": 70, "dateTime": 1513022919061, "trialdata": {"rt": -1000, "stimulus": "/static/audio/wordpool/WAITRESS.wav", "key_press": -1, "type": "PRES_AUD", "word": "waitress", "wordID": 1580, "conditions": [18, 1200, "a", 18000], "trial": 0, "serialpos": 8, "trial_type": "single-audio", "trial_index": 29, "time_elapsed": 162962, "internal_node_id": "0.0-20.0"}}, {"uniqueid": "MTK1060:3TK8OJTYM2SNXMQCTG2JWPB34XSPVV", "current_trial": 71, "dateTime": 1513022921374, "trialdata": {"rt": -1000, "stimulus": "/static/audio/wordpool/SPIDER.wav", "key_press": -1, "type": "PRES_AUD", "word": "spider", "wordID": 1350, "conditions": [18, 1200, "a", 18000], "trial": 0, "serialpos": 9, "trial_type": "single-audio", "trial_index": 30, "time_elapsed": 165275, "internal_node_id": "0.0-21.0"}}, {"uniqueid": "MTK1060:3TK8OJTYM2SNXMQCTG2JWPB34XSPVV", "current_trial": 72, "dateTime": 1513022923702, "trialdata": {"rt": -1000, "stimulus": "/static/audio/wordpool/SURVEY.wav", "key_press": -1, "type": "PRES_AUD", "word": "survey", "wordID": 1413, "conditions": [18, 1200, "a", 18000], "trial": 0, "serialpos": 10, "trial_type": "single-audio", "trial_index": 31, "time_elapsed": 167603, "internal_node_id": "0.0-22.0"}}, {"uniqueid": "MTK1060:3TK8OJTYM2SNXMQCTG2JWPB34XSPVV", "current_trial": 73, "dateTime": 1513022925897, "trialdata": {"rt": -1000, "stimulus": "/static/audio/wordpool/DRAWING.wav", "key_press": -1, "type": "PRES_AUD", "word": "drawing", "wordID": 493, "conditions": [18, 1200, "a", 18000], "trial": 0, "serialpos": 11, "trial_type": "single-audio", "trial_index": 32, "time_elapsed": 169797, "internal_node_id": "0.0-23.0"}}, {"uniqueid": "MTK1060:3TK8OJTYM2SNXMQCTG2JWPB34XSPVV", "current_trial": 74, "dateTime": 1513022928154, "trialdata": {"rt": -1000, "stimulus": "/static/audio/wordpool/PLATE.wav", "key_press": -1, "type": "PRES_AUD", "word": "plate", "wordID": 1085, "conditions": [18, 1200, "a", 18000], "trial": 0, "serialpos": 12, "trial_type": "single-audio", "trial_index": 33, "time_elapsed": 172054, "internal_node_id": "0.0-24.0"}}, {"uniqueid": "MTK1060:3TK8OJTYM2SNXMQCTG2JWPB34XSPVV", "current_trial": 75, "dateTime": 1513022930481, "trialdata": {"rt": -1000, "stimulus": "/static/audio/wordpool/DAISY.wav", "key_press": -1, "type": "PRES_AUD", "word": "daisy", "wordID": 434, "conditions": [18, 1200, "a", 18000], "trial": 0, "serialpos": 13, "trial_type": "single-audio", "trial_index": 34, "time_elapsed": 174381, "internal_node_id": "0.0-25.0"}}, {"uniqueid": "MTK1060:3TK8OJTYM2SNXMQCTG2JWPB34XSPVV", "current_trial": 76, "dateTime": 1513022932720, "trialdata": {"rt": -1000, "stimulus": "/static/audio/wordpool/SIBLING.wav", "key_press": -1, "type": "PRES_AUD", "word": "sibling", "wordID": 1300, "conditions": [18, 1200, "a", 18000], "trial": 0, "serialpos": 14, "trial_type": "single-audio", "trial_index": 35, "time_elapsed": 176621, "internal_node_id": "0.0-26.0"}}, {"uniqueid": "MTK1060:3TK8OJTYM2SNXMQCTG2JWPB34XSPVV", "current_trial": 77, "dateTime": 1513022934797, "trialdata": {"rt": -1000, "stimulus": "/static/audio/wordpool/TEACHER.wav", "key_press": -1, "type": "PRES_AUD", "word": "teacher", "wordID": 1439, "conditions": [18, 1200, "a", 18000], "trial": 0, "serialpos": 15, "trial_type": "single-audio", "trial_index": 36, "time_elapsed": 178698, "internal_node_id": "0.0-27.0"}}, {"uniqueid": "MTK1060:3TK8OJTYM2SNXMQCTG2JWPB34XSPVV", "current_trial": 78, "dateTime": 1513022936993, "trialdata": {"rt": -1000, "stimulus": "/static/audio/wordpool/SLUG.wav", "key_press": -1, "type": "PRES_AUD", "word": "slug", "wordID": 1328, "conditions": [18, 1200, "a", 18000], "trial": 0, "serialpos": 16, "trial_type": "single-audio", "trial_index": 37, "time_elapsed": 180894, "internal_node_id": "0.0-28.0"}}, {"uniqueid": "MTK1060:3TK8OJTYM2SNXMQCTG2JWPB34XSPVV", "current_trial": 79, "dateTime": 1513022939145, "trialdata": {"rt": -1000, "stimulus": "/static/audio/wordpool/LIVER.wav", "key_press": -1, "type": "PRES_AUD", "word": "liver", "wordID": 832, "conditions": [18, 1200, "a", 18000], "trial": 0, "serialpos": 17, "trial_type": "single-audio", "trial_index": 38, "time_elapsed": 183046, "internal_node_id": "0.0-29.0"}}, {"uniqueid": "MTK1060:3TK8OJTYM2SNXMQCTG2JWPB34XSPVV", "current_trial": 80, "dateTime": 1513022940563, "trialdata": {"rt": -1, "stimulus": "", "key_press": -1, "type": "PRE_RECALL_DELAY", "trial_type": "single-stim", "trial_index": 39, "time_elapsed": 184463, "internal_node_id": "0.0-30.0-0.0"}}, {"uniqueid": "MTK1060:3TK8OJTYM2SNXMQCTG2JWPB34XSPVV", "current_trial": 81, "dateTime": 1513022941068, "trialdata": {"rt": -1000, "stimulus": "/static/audio/400Hz.wav", "key_press": -1, "type": "PRE_RECALL_ALERT", "trial_type": "single-audio", "trial_index": 40, "time_elapsed": 184968, "internal_node_id": "0.0-31.0"}}, {"uniqueid": "MTK1060:3TK8OJTYM2SNXMQCTG2JWPB34XSPVV", "current_trial": 82, "dateTime": 1513023001086, "trialdata": {"rt": [8807, 14350, 16423, 18248, 20785, 23216, 26696, 29743, 32279, 37031, 40183, 43463, 50415, 57127, 59952], "recwords": ["viking", "liver", "silver", "drawing", "nurse", "coffee", "watree", "raft", "baking", "drawing", "plate", "human", "thurst", "dinner", "draft"], "type": "FREE_RECALL", "conditions": [18, 1200, "a", 18000], "trial": 0, "trial_type": "free-recall", "trial_index": 41, "time_elapsed": 244979, "internal_node_id": "0.0-32.0-0.0"}}, {"uniqueid": "MTK1060:3TK8OJTYM2SNXMQCTG2JWPB34XSPVV", "current_trial": 83, "dateTime": 1513023007646, "trialdata": {"rt": 4557, "key_press": 13, "type": "INSTRUCTIONS", "trial_type": "text", "trial_index": 42, "time_elapsed": 251547, "internal_node_id": "0.0-33.0"}}, {"uniqueid": "MTK1060:3TK8OJTYM2SNXMQCTG2JWPB34XSPVV", "current_trial": 84, "dateTime": 1513023027668, "trialdata": {"rt": [3556, 8460, 13540], "responses": ["8", "20", "19"], "num1": [4, 8, 2, 6], "num2": [1, 7, 8, 2], "num3": [3, 5, 9, 5], "type": "DISTRACTOR", "conditions": [18, 1200, "v", 18000], "trial": 1, "trial_type": "math-distractor", "trial_index": 43, "time_elapsed": 271569, "internal_node_id": "0.0-34.0"}}, {"uniqueid": "MTK1060:3TK8OJTYM2SNXMQCTG2JWPB34XSPVV", "current_trial": 85, "dateTime": 1513023030672, "trialdata": {"rt": -1, "stimulus": "<p id=\"stim\">10</p>", "key_press": -1, "trial_type": "single-stim", "trial_index": 44, "time_elapsed": 274573, "internal_node_id": "0.0-35.0-0.0"}}, {"uniqueid": "MTK1060:3TK8OJTYM2SNXMQCTG2JWPB34XSPVV", "current_trial": 86, "dateTime": 1513023031675, "trialdata": {"rt": -1, "stimulus": "<p id=\"stim\">9</p>", "key_press": -1, "trial_type": "single-stim", "trial_index": 45, "time_elapsed": 275575, "internal_node_id": "0.0-35.0-1.0"}}, {"uniqueid": "MTK1060:3TK8OJTYM2SNXMQCTG2JWPB34XSPVV", "current_trial": 87, "dateTime": 1513023032679, "trialdata": {"rt": -1, "stimulus": "<p id=\"stim\">8</p>", "key_press": -1, "trial_type": "single-stim", "trial_index": 46, "time_elapsed": 276580, "internal_node_id": "0.0-35.0-2.0"}}, {"uniqueid": "MTK1060:3TK8OJTYM2SNXMQCTG2JWPB34XSPVV", "current_trial": 88, "dateTime": 1513023033683, "trialdata": {"rt": -1, "stimulus": "<p id=\"stim\">7</p>", "key_press": -1, "trial_type": "single-stim", "trial_index": 47, "time_elapsed": 277584, "internal_node_id": "0.0-35.0-3.0"}}, {"uniqueid": "MTK1060:3TK8OJTYM2SNXMQCTG2JWPB34XSPVV", "current_trial": 89, "dateTime": 1513023034701, "trialdata": {"rt": -1, "stimulus": "<p id=\"stim\">6</p>", "key_press": -1, "trial_type": "single-stim", "trial_index": 48, "time_elapsed": 278602, "internal_node_id": "0.0-35.0-4.0"}}, {"uniqueid": "MTK1060:3TK8OJTYM2SNXMQCTG2JWPB34XSPVV", "current_trial": 90, "dateTime": 1513023035713, "trialdata": {"rt": -1, "stimulus": "<p id=\"stim\">5</p>", "key_press": -1, "trial_type": "single-stim", "trial_index": 49, "time_elapsed": 279609, "internal_node_id": "0.0-35.0-5.0"}}, {"uniqueid": "MTK1060:3TK8OJTYM2SNXMQCTG2JWPB34XSPVV", "current_trial": 91, "dateTime": 1513023036717, "trialdata": {"rt": -1, "stimulus": "<p id=\"stim\">4</p>", "key_press": -1, "trial_type": "single-stim", "trial_index": 50, "time_elapsed": 280618, "internal_node_id": "0.0-35.0-6.0"}}, {"uniqueid": "MTK1060:3TK8OJTYM2SNXMQCTG2JWPB34XSPVV", "current_trial": 92, "dateTime": 1513023037722, "trialdata": {"rt": -1, "stimulus": "<p id=\"stim\">3</p>", "key_press": -1, "trial_type": "single-stim", "trial_index": 51, "time_elapsed": 281623, "internal_node_id": "0.0-35.0-7.0"}}, {"uniqueid": "MTK1060:3TK8OJTYM2SNXMQCTG2JWPB34XSPVV", "current_trial": 93, "dateTime": 1513023038736, "trialdata": {"rt": -1, "stimulus": "<p id=\"stim\">2</p>", "key_press": -1, "trial_type": "single-stim", "trial_index": 52, "time_elapsed": 282636, "internal_node_id": "0.0-35.0-8.0"}}, {"uniqueid": "MTK1060:3TK8OJTYM2SNXMQCTG2JWPB34XSPVV", "current_trial": 94, "dateTime": 1513023039741, "trialdata": {"rt": -1, "stimulus": "<p id=\"stim\">1</p>", "key_press": -1, "trial_type": "single-stim", "trial_index": 53, "time_elapsed": 283642, "internal_node_id": "0.0-35.0-9.0"}}, {"uniqueid": "MTK1060:3TK8OJTYM2SNXMQCTG2JWPB34XSPVV", "current_trial": 95, "dateTime": 1513023041258, "trialdata": {"rt": -1, "stimulus": "<p id=\"stim\">+</p>", "key_press": -1, "type": "FIXATION", "trial_type": "single-stim", "trial_index": 54, "time_elapsed": 285152, "internal_node_id": "0.0-36.0-0.0"}}, {"uniqueid": "MTK1060:3TK8OJTYM2SNXMQCTG2JWPB34XSPVV", "current_trial": 96, "dateTime": 1513023042464, "trialdata": {"rt": -1, "stimulus": "<p id=\"stim\">TROMBONE</p>", "key_press": -1, "type": "PRES_VIS", "word": "trombone", "wordID": 1507, "conditions": [18, 1200, "v", 18000], "trial": 1, "serialpos": 0, "trial_type": "single-stim", "trial_index": 55, "time_elapsed": 286365, "internal_node_id": "0.0-37.0"}}, {"uniqueid": "MTK1060:3TK8OJTYM2SNXMQCTG2JWPB34XSPVV", "current_trial": 97, "dateTime": 1513023044630, "trialdata": {"rt": -1, "stimulus": "<p id=\"stim\">PUDDING</p>", "key_press": -1, "type": "PRES_VIS", "word": "pudding", "wordID": 1138, "conditions": [18, 1200, "v", 18000], "trial": 1, "serialpos": 1, "trial_type": "single-stim", "trial_index": 56, "time_elapsed": 288530, "internal_node_id": "0.0-38.0"}}, {"uniqueid": "MTK1060:3TK8OJTYM2SNXMQCTG2JWPB34XSPVV", "current_trial": 98, "dateTime": 1513023046815, "trialdata": {"rt": -1, "stimulus": "<p id=\"stim\">SNAKE</p>", "key_press": -1, "type": "PRES_VIS", "word": "snake", "wordID": 1332, "conditions": [18, 1200, "v", 18000], "trial": 1, "serialpos": 2, "trial_type": "single-stim", "trial_index": 57, "time_elapsed": 290716, "internal_node_id": "0.0-39.0"}}, {"uniqueid": "MTK1060:3TK8OJTYM2SNXMQCTG2JWPB34XSPVV", "current_trial": 99, "dateTime": 1513023049105, "trialdata": {"rt": -1, "stimulus": "<p id=\"stim\">BEAKER</p>", "key_press": -1, "type": "PRES_VIS", "word": "beaker", "wordID": 103, "conditions": [18, 1200, "v", 18000], "trial": 1, "serialpos": 3, "trial_type": "single-stim", "trial_index": 58, "time_elapsed": 293005, "internal_node_id": "0.0-40.0"}}, {"uniqueid": "MTK1060:3TK8OJTYM2SNXMQCTG2JWPB34XSPVV", "current_trial": 100, "dateTime": 1513023051312, "trialdata": {"rt": -1, "stimulus": "<p id=\"stim\">CYCLONE</p>", "key_press": -1, "type": "PRES_VIS", "word": "cyclone", "wordID": 430, "conditions": [18, 1200, "v", 18000], "trial": 1, "serialpos": 4, "trial_type": "single-stim", "trial_index": 59, "time_elapsed": 295213, "internal_node_id": "0.0-41.0"}}, {"uniqueid": "MTK1060:3TK8OJTYM2SNXMQCTG2JWPB34XSPVV", "current_trial": 101, "dateTime": 1513023053437, "trialdata": {"rt": -1, "stimulus": "<p id=\"stim\">ICEBERG</p>", "key_press": -1, "type": "PRES_VIS", "word": "iceberg", "wordID": 730, "conditions": [18, 1200, "v", 18000], "trial": 1, "serialpos": 5, "trial_type": "single-stim", "trial_index": 60, "time_elapsed": 297338, "internal_node_id": "0.0-42.0"}}, {"uniqueid": "MTK1060:3TK8OJTYM2SNXMQCTG2JWPB34XSPVV", "current_trial": 102, "dateTime": 1513023055659, "trialdata": {"rt": -1, "stimulus": "<p id=\"stim\">MARSH</p>", "key_press": -1, "type": "PRES_VIS", "word": "marsh", "wordID": 873, "conditions": [18, 1200, "v", 18000], "trial": 1, "serialpos": 6, "trial_type": "single-stim", "trial_index": 61, "time_elapsed": 299560, "internal_node_id": "0.0-43.0"}}, {"uniqueid": "MTK1060:3TK8OJTYM2SNXMQCTG2JWPB34XSPVV", "current_trial": 103, "dateTime": 1513023057830, "trialdata": {"rt": -1, "stimulus": "<p id=\"stim\">NIGHTGOWN</p>", "key_press": -1, "type": "PRES_VIS", "word": "nightgown", "wordID": 952, "conditions": [18, 1200, "v", 18000], "trial": 1, "serialpos": 7, "trial_type": "single-stim", "trial_index": 62, "time_elapsed": 301731, "internal_node_id": "0.0-44.0"}}, {"uniqueid": "MTK1060:3TK8OJTYM2SNXMQCTG2JWPB34XSPVV", "current_trial": 104, "dateTime": 1513023060017, "trialdata": {"rt": -1, "stimulus": "<p id=\"stim\">SAUSAGE</p>", "key_press": -1, "type": "PRES_VIS", "word": "sausage", "wordID": 1237, "conditions": [18, 1200, "v", 18000], "trial": 1, "serialpos": 8, "trial_type": "single-stim", "trial_index": 63, "time_elapsed": 303918, "internal_node_id": "0.0-45.0"}}, {"uniqueid": "MTK1060:3TK8OJTYM2SNXMQCTG2JWPB34XSPVV", "current_trial": 105, "dateTime": 1513023062108, "trialdata": {"rt": -1, "stimulus": "<p id=\"stim\">COTTAGE</p>", "key_press": -1, "type": "PRES_VIS", "word": "cottage", "wordID": 383, "conditions": [18, 1200, "v", 18000], "trial": 1, "serialpos": 9, "trial_type": "single-stim", "trial_index": 64, "time_elapsed": 306009, "internal_node_id": "0.0-46.0"}}, {"uniqueid": "MTK1060:3TK8OJTYM2SNXMQCTG2JWPB34XSPVV", "current_trial": 106, "dateTime": 1513023064172, "trialdata": {"rt": -1, "stimulus": "<p id=\"stim\">PILOT</p>", "key_press": -1, "type": "PRES_VIS", "word": "pilot", "wordID": 1069, "conditions": [18, 1200, "v", 18000], "trial": 1, "serialpos": 10, "trial_type": "single-stim", "trial_index": 65, "time_elapsed": 308073, "internal_node_id": "0.0-47.0"}}, {"uniqueid": "MTK1060:3TK8OJTYM2SNXMQCTG2JWPB34XSPVV", "current_trial": 107, "dateTime": 1513023066535, "trialdata": {"rt": -1, "stimulus": "<p id=\"stim\">BANQUET</p>", "key_press": -1, "type": "PRES_VIS", "word": "banquet", "wordID": 85, "conditions": [18, 1200, "v", 18000], "trial": 1, "serialpos": 11, "trial_type": "single-stim", "trial_index": 66, "time_elapsed": 310436, "internal_node_id": "0.0-48.0"}}, {"uniqueid": "MTK1060:3TK8OJTYM2SNXMQCTG2JWPB34XSPVV", "current_trial": 108, "dateTime": 1513023068793, "trialdata": {"rt": -1, "stimulus": "<p id=\"stim\">TWIG</p>", "key_press": -1, "type": "PRES_VIS", "word": "twig", "wordID": 1526, "conditions": [18, 1200, "v", 18000], "trial": 1, "serialpos": 12, "trial_type": "single-stim", "trial_index": 67, "time_elapsed": 312694, "internal_node_id": "0.0-49.0"}}, {"uniqueid": "MTK1060:3TK8OJTYM2SNXMQCTG2JWPB34XSPVV", "current_trial": 109, "dateTime": 1513023071162, "trialdata": {"rt": -1, "stimulus": "<p id=\"stim\">PATIENT</p>", "key_press": -1, "type": "PRES_VIS", "word": "patient", "wordID": 1023, "conditions": [18, 1200, "v", 18000], "trial": 1, "serialpos": 13, "trial_type": "single-stim", "trial_index": 68, "time_elapsed": 315008, "internal_node_id": "0.0-50.0"}}, {"uniqueid": "MTK1060:3TK8OJTYM2SNXMQCTG2JWPB34XSPVV", "current_trial": 110, "dateTime": 1513023073335, "trialdata": {"rt": -1, "stimulus": "<p id=\"stim\">NAPKIN</p>", "key_press": -1, "type": "PRES_VIS", "word": "napkin", "wordID": 936, "conditions": [18, 1200, "v", 18000], "trial": 1, "serialpos": 14, "trial_type": "single-stim", "trial_index": 69, "time_elapsed": 317235, "internal_node_id": "0.0-51.0"}}, {"uniqueid": "MTK1060:3TK8OJTYM2SNXMQCTG2JWPB34XSPVV", "current_trial": 111, "dateTime": 1513023075394, "trialdata": {"rt": -1, "stimulus": "<p id=\"stim\">TYPIST</p>", "key_press": -1, "type": "PRES_VIS", "word": "typist", "wordID": 1531, "conditions": [18, 1200, "v", 18000], "trial": 1, "serialpos": 15, "trial_type": "single-stim", "trial_index": 70, "time_elapsed": 319294, "internal_node_id": "0.0-52.0"}}, {"uniqueid": "MTK1060:3TK8OJTYM2SNXMQCTG2JWPB34XSPVV", "current_trial": 112, "dateTime": 1513023077559, "trialdata": {"rt": -1, "stimulus": "<p id=\"stim\">STREAM</p>", "key_press": -1, "type": "PRES_VIS", "word": "stream", "wordID": 1391, "conditions": [18, 1200, "v", 18000], "trial": 1, "serialpos": 16, "trial_type": "single-stim", "trial_index": 71, "time_elapsed": 321460, "internal_node_id": "0.0-53.0"}}, {"uniqueid": "MTK1060:3TK8OJTYM2SNXMQCTG2JWPB34XSPVV", "current_trial": 113, "dateTime": 1513023079902, "trialdata": {"rt": -1, "stimulus": "<p id=\"stim\">BOX</p>", "key_press": -1, "type": "PRES_VIS", "word": "box", "wordID": 158, "conditions": [18, 1200, "v", 18000], "trial": 1, "serialpos": 17, "trial_type": "single-stim", "trial_index": 72, "time_elapsed": 323803, "internal_node_id": "0.0-54.0"}}, {"uniqueid": "MTK1060:3TK8OJTYM2SNXMQCTG2JWPB34XSPVV", "current_trial": 114, "dateTime": 1513023082198, "trialdata": {"rt": -1, "stimulus": "", "key_press": -1, "type": "PRE_RECALL_DELAY", "trial_type": "single-stim", "trial_index": 73, "time_elapsed": 326099, "internal_node_id": "0.0-55.0-0.0"}}, {"uniqueid": "MTK1060:3TK8OJTYM2SNXMQCTG2JWPB34XSPVV", "current_trial": 115, "dateTime": 1513023082710, "trialdata": {"rt": -1000, "stimulus": "/static/audio/400Hz.wav", "key_press": -1, "type": "PRE_RECALL_ALERT", "trial_type": "single-audio", "trial_index": 74, "time_elapsed": 326610, "internal_node_id": "0.0-56.0"}}, {"uniqueid": "MTK1060:3TK8OJTYM2SNXMQCTG2JWPB34XSPVV", "current_trial": 116, "dateTime": 1513023142748, "trialdata": {"rt": [3180, 10252, 13484, 16476, 22844, 26180, 31181, 34829, 39125, 44165, 49933, 54797, 57438], "recwords": ["box", "cyclone", "iceberg", "cottage", "piolet", "box", "nightgown", "mash", "cyclone", "patient", "snake", "twist", "banquet"], "type": "FREE_RECALL", "conditions": [18, 1200, "v", 18000], "trial": 1, "trial_type": "free-recall", "trial_index": 75, "time_elapsed": 386621, "internal_node_id": "0.0-57.0-0.0"}}, {"uniqueid": "MTK1060:3TK8OJTYM2SNXMQCTG2JWPB34XSPVV", "current_trial": 117, "dateTime": 1513023222632, "trialdata": {"rt": 77868, "key_press": 13, "type": "INSTRUCTIONS", "trial_type": "text", "trial_index": 76, "time_elapsed": 466519, "internal_node_id": "0.0-58.0"}}, {"uniqueid": "MTK1060:3TK8OJTYM2SNXMQCTG2JWPB34XSPVV", "current_trial": 118, "dateTime": 1513023235642, "trialdata": {"rt": [4067, 8243, 11050], "responses": ["14", "10", "8"], "num1": [6, 1, 3, 8], "num2": [5, 3, 3, 4], "num3": [3, 6, 2, 8], "type": "DISTRACTOR", "conditions": [12, 800, "a", 12000], "trial": 2, "trial_type": "math-distractor", "trial_index": 77, "time_elapsed": 479542, "internal_node_id": "0.0-59.0"}}, {"uniqueid": "MTK1060:3TK8OJTYM2SNXMQCTG2JWPB34XSPVV", "current_trial": 119, "dateTime": 1513023238645, "trialdata": {"rt": -1, "stimulus": "<p id=\"stim\">10</p>", "key_press": -1, "trial_type": "single-stim", "trial_index": 78, "time_elapsed": 482546, "internal_node_id": "0.0-60.0-0.0"}}, {"uniqueid": "MTK1060:3TK8OJTYM2SNXMQCTG2JWPB34XSPVV", "current_trial": 120, "dateTime": 1513023239649, "trialdata": {"rt": -1, "stimulus": "<p id=\"stim\">9</p>", "key_press": -1, "trial_type": "single-stim", "trial_index": 79, "time_elapsed": 483549, "internal_node_id": "0.0-60.0-1.0"}}, {"uniqueid": "MTK1060:3TK8OJTYM2SNXMQCTG2JWPB34XSPVV", "current_trial": 121, "dateTime": 1513023240654, "trialdata": {"rt": -1, "stimulus": "<p id=\"stim\">8</p>", "key_press": -1, "trial_type": "single-stim", "trial_index": 80, "time_elapsed": 484554, "internal_node_id": "0.0-60.0-2.0"}}, {"uniqueid": "MTK1060:3TK8OJTYM2SNXMQCTG2JWPB34XSPVV", "current_trial": 122, "dateTime": 1513023241656, "trialdata": {"rt": -1, "stimulus": "<p id=\"stim\">7</p>", "key_press": -1, "trial_type": "single-stim", "trial_index": 81, "time_elapsed": 485557, "internal_node_id": "0.0-60.0-3.0"}}, {"uniqueid": "MTK1060:3TK8OJTYM2SNXMQCTG2JWPB34XSPVV", "current_trial": 123, "dateTime": 1513023242660, "trialdata": {"rt": -1, "stimulus": "<p id=\"stim\">6</p>", "key_press": -1, "trial_type": "single-stim", "trial_index": 82, "time_elapsed": 486561, "internal_node_id": "0.0-60.0-4.0"}}, {"uniqueid": "MTK1060:3TK8OJTYM2SNXMQCTG2JWPB34XSPVV", "current_trial": 124, "dateTime": 1513023243662, "trialdata": {"rt": -1, "stimulus": "<p id=\"stim\">5</p>", "key_press": -1, "trial_type": "single-stim", "trial_index": 83, "time_elapsed": 487562, "internal_node_id": "0.0-60.0-5.0"}}, {"uniqueid": "MTK1060:3TK8OJTYM2SNXMQCTG2JWPB34XSPVV", "current_trial": 125, "dateTime": 1513023244665, "trialdata": {"rt": -1, "stimulus": "<p id=\"stim\">4</p>", "key_press": -1, "trial_type": "single-stim", "trial_index": 84, "time_elapsed": 488565, "internal_node_id": "0.0-60.0-6.0"}}, {"uniqueid": "MTK1060:3TK8OJTYM2SNXMQCTG2JWPB34XSPVV", "current_trial": 126, "dateTime": 1513023245667, "trialdata": {"rt": -1, "stimulus": "<p id=\"stim\">3</p>", "key_press": -1, "trial_type": "single-stim", "trial_index": 85, "time_elapsed": 489567, "internal_node_id": "0.0-60.0-7.0"}}, {"uniqueid": "MTK1060:3TK8OJTYM2SNXMQCTG2JWPB34XSPVV", "current_trial": 127, "dateTime": 1513023246670, "trialdata": {"rt": -1, "stimulus": "<p id=\"stim\">2</p>", "key_press": -1, "trial_type": "single-stim", "trial_index": 86, "time_elapsed": 490571, "internal_node_id": "0.0-60.0-8.0"}}, {"uniqueid": "MTK1060:3TK8OJTYM2SNXMQCTG2JWPB34XSPVV", "current_trial": 128, "dateTime": 1513023247675, "trialdata": {"rt": -1, "stimulus": "<p id=\"stim\">1</p>", "key_press": -1, "trial_type": "single-stim", "trial_index": 87, "time_elapsed": 491576, "internal_node_id": "0.0-60.0-9.0"}}, {"uniqueid": "MTK1060:3TK8OJTYM2SNXMQCTG2JWPB34XSPVV", "current_trial": 129, "dateTime": 1513023249181, "trialdata": {"rt": -1, "stimulus": "<p id=\"stim\">+</p>", "key_press": -1, "type": "FIXATION", "trial_type": "single-stim", "trial_index": 88, "time_elapsed": 493081, "internal_node_id": "0.0-61.0-0.0"}}, {"uniqueid": "MTK1060:3TK8OJTYM2SNXMQCTG2JWPB34XSPVV", "current_trial": 130, "dateTime": 1513023250849, "trialdata": {"rt": -1000, "stimulus": "/static/audio/wordpool/SHELTER.wav", "key_press": -1, "type": "PRES_AUD", "word": "shelter", "wordID": 1281, "conditions": [12, 800, "a", 12000], "trial": 2, "serialpos": 0, "trial_type": "single-audio", "trial_index": 89, "time_elapsed": 494749, "internal_node_id": "0.0-62.0"}}, {"uniqueid": "MTK1060:3TK8OJTYM2SNXMQCTG2JWPB34XSPVV", "current_trial": 131, "dateTime": 1513023252504, "trialdata": {"rt": -1000, "stimulus": "/static/audio/wordpool/SIDEWALK.wav", "key_press": -1, "type": "PRES_AUD", "word": "sidewalk", "wordID": 1302, "conditions": [12, 800, "a", 12000], "trial": 2, "serialpos": 1, "trial_type": "single-audio", "trial_index": 90, "time_elapsed": 496404, "internal_node_id": "0.0-63.0"}}, {"uniqueid": "MTK1060:3TK8OJTYM2SNXMQCTG2JWPB34XSPVV", "current_trial": 132, "dateTime": 1513023254410, "trialdata": {"rt": -1000, "stimulus": "/static/audio/wordpool/HEADBAND.wav", "key_press": -1, "type": "PRES_AUD", "word": "headband", "wordID": 695, "conditions": [12, 800, "a", 12000], "trial": 2, "serialpos": 2, "trial_type": "single-audio", "trial_index": 91, "time_elapsed": 498311, "internal_node_id": "0.0-64.0"}}, {"uniqueid": "MTK1060:3TK8OJTYM2SNXMQCTG2JWPB34XSPVV", "current_trial": 133, "dateTime": 1513023256021, "trialdata": {"rt": -1000, "stimulus": "/static/audio/wordpool/SKIRT.wav", "key_press": -1, "type": "PRES_AUD", "word": "skirt", "wordID": 1318, "conditions": [12, 800, "a", 12000], "trial": 2, "serialpos": 3, "trial_type": "single-audio", "trial_index": 92, "time_elapsed": 499922, "internal_node_id": "0.0-65.0"}}, {"uniqueid": "MTK1060:3TK8OJTYM2SNXMQCTG2JWPB34XSPVV", "current_trial": 134, "dateTime": 1513023257667, "trialdata": {"rt": -1000, "stimulus": "/static/audio/wordpool/ORCHID.wav", "key_press": -1, "type": "PRES_AUD", "word": "orchid", "wordID": 981, "conditions": [12, 800, "a", 12000], "trial": 2, "serialpos": 4, "trial_type": "single-audio", "trial_index": 93, "time_elapsed": 501567, "internal_node_id": "0.0-66.0"}}, {"uniqueid": "MTK1060:3TK8OJTYM2SNXMQCTG2JWPB34XSPVV", "current_trial": 135, "dateTime": 1513023259421, "trialdata": {"rt": -1000, "stimulus": "/static/audio/wordpool/GARDEN.wav", "key_press": -1, "type": "PRES_AUD", "word": "garden", "wordID": 622, "conditions": [12, 800, "a", 12000], "trial": 2, "serialpos": 5, "trial_type": "single-audio", "trial_index": 94, "time_elapsed": 503322, "internal_node_id": "0.0-67.0"}}, {"uniqueid": "MTK1060:3TK8OJTYM2SNXMQCTG2JWPB34XSPVV", "current_trial": 136, "dateTime": 1513023261146, "trialdata": {"rt": -1000, "stimulus": "/static/audio/wordpool/CHAPEL.wav", "key_press": -1, "type": "PRES_AUD", "word": "chapel", "wordID": 279, "conditions": [12, 800, "a", 12000], "trial": 2, "serialpos": 6, "trial_type": "single-audio", "trial_index": 95, "time_elapsed": 505047, "internal_node_id": "0.0-68.0"}}, {"uniqueid": "MTK1060:3TK8OJTYM2SNXMQCTG2JWPB34XSPVV", "current_trial": 137, "dateTime": 1513023262832, "trialdata": {"rt": -1000, "stimulus": "/static/audio/wordpool/BLOUSE.wav", "key_press": -1, "type": "PRES_AUD", "word": "blouse", "wordID": 138, "conditions": [12, 800, "a", 12000], "trial": 2, "serialpos": 7, "trial_type": "single-audio", "trial_index": 96, "time_elapsed": 506732, "internal_node_id": "0.0-69.0"}}, {"uniqueid": "MTK1060:3TK8OJTYM2SNXMQCTG2JWPB34XSPVV", "current_trial": 138, "dateTime": 1513023264704, "trialdata": {"rt": -1000, "stimulus": "/static/audio/wordpool/FOOTBALL.wav", "key_press": -1, "type": "PRES_AUD", "word": "football", "wordID": 590, "conditions": [12, 800, "a", 12000], "trial": 2, "serialpos": 8, "trial_type": "single-audio", "trial_index": 97, "time_elapsed": 508605, "internal_node_id": "0.0-70.0"}}, {"uniqueid": "MTK1060:3TK8OJTYM2SNXMQCTG2JWPB34XSPVV", "current_trial": 139, "dateTime": 1513023266400, "trialdata": {"rt": -1000, "stimulus": "/static/audio/wordpool/PLAYGROUND.wav", "key_press": -1, "type": "PRES_AUD", "word": "playground", "wordID": 1086, "conditions": [12, 800, "a", 12000], "trial": 2, "serialpos": 9, "trial_type": "single-audio", "trial_index": 98, "time_elapsed": 510300, "internal_node_id": "0.0-71.0"}}, {"uniqueid": "MTK1060:3TK8OJTYM2SNXMQCTG2JWPB34XSPVV", "current_trial": 140, "dateTime": 1513023268154, "trialdata": {"rt": -1000, "stimulus": "/static/audio/wordpool/CLOTHES.wav", "key_press": -1, "type": "PRES_AUD", "word": "clothes", "wordID": 326, "conditions": [12, 800, "a", 12000], "trial": 2, "serialpos": 10, "trial_type": "single-audio", "trial_index": 99, "time_elapsed": 512055, "internal_node_id": "0.0-72.0"}}, {"uniqueid": "MTK1060:3TK8OJTYM2SNXMQCTG2JWPB34XSPVV", "current_trial": 141, "dateTime": 1513023269980, "trialdata": {"rt": -1000, "stimulus": "/static/audio/wordpool/FLASHLIGHT.wav", "key_press": -1, "type": "PRES_AUD", "word": "flashlight", "wordID": 574, "conditions": [12, 800, "a", 12000], "trial": 2, "serialpos": 11, "trial_type": "single-audio", "trial_index": 100, "time_elapsed": 513880, "internal_node_id": "0.0-73.0"}}, {"uniqueid": "MTK1060:3TK8OJTYM2SNXMQCTG2JWPB34XSPVV", "current_trial": 142, "dateTime": 1513023271200, "trialdata": {"rt": -1, "stimulus": "", "key_press": -1, "type": "PRE_RECALL_DELAY", "trial_type": "single-stim", "trial_index": 101, "time_elapsed": 515101, "internal_node_id": "0.0-74.0-0.0"}}, {"uniqueid": "MTK1060:3TK8OJTYM2SNXMQCTG2JWPB34XSPVV", "current_trial": 143, "dateTime": 1513023271702, "trialdata": {"rt": -1000, "stimulus": "/static/audio/400Hz.wav", "key_press": -1, "type": "PRE_RECALL_ALERT", "trial_type": "single-audio", "trial_index": 102, "time_elapsed": 515602, "internal_node_id": "0.0-75.0"}}, {"uniqueid": "MTK1060:3TK8OJTYM2SNXMQCTG2JWPB34XSPVV", "current_trial": 144, "dateTime": 1513023331715, "trialdata": {"rt": [5241, 7105, 10210, 11881, 13953, 17186, 20666, 27562, 31562, 34834, 37890, 40162, 42514, 48474, 51147, 53018, 58659], "recwords": ["flashlight", "clothes", "football", "shelter", "sidewalk", "orchid", "blouse", "skirt", "headband", "shelter", "shirt", "gender", "garden", "flashlight", "skirt", "gown", "clothes"], "type": "FREE_RECALL", "conditions": [12, 800, "a", 12000], "trial": 2, "trial_type": "free-recall", "trial_index": 103, "time_elapsed": 575609, "internal_node_id": "0.0-76.0-0.0"}}, {"uniqueid": "MTK1060:3TK8OJTYM2SNXMQCTG2JWPB34XSPVV", "current_trial": 145, "dateTime": 1513023374537, "trialdata": {"rt": 40820, "key_press": 13, "type": "INSTRUCTIONS", "trial_type": "text", "trial_index": 104, "time_elapsed": 618437, "internal_node_id": "0.0-77.0"}}, {"uniqueid": "MTK1060:3TK8OJTYM2SNXMQCTG2JWPB34XSPVV", "current_trial": 146, "dateTime": 1513023388545, "trialdata": {"rt": [7871], "responses": ["21"], "num1": [7, 3], "num2": [8, 8], "num3": [6, 9], "type": "DISTRACTOR", "conditions": [24, 800, "v", 12000], "trial": 3, "trial_type": "math-distractor", "trial_index": 105, "time_elapsed": 632446, "internal_node_id": "0.0-78.0"}}, {"uniqueid": "MTK1060:3TK8OJTYM2SNXMQCTG2JWPB34XSPVV", "current_trial": 147, "dateTime": 1513023391549, "trialdata": {"rt": -1, "stimulus": "<p id=\"stim\">10</p>", "key_press": -1, "trial_type": "single-stim", "trial_index": 106, "time_elapsed": 635449, "internal_node_id": "0.0-79.0-0.0"}}, {"uniqueid": "MTK1060:3TK8OJTYM2SNXMQCTG2JWPB34XSPVV", "current_trial": 148, "dateTime": 1513023392553, "trialdata": {"rt": -1, "stimulus": "<p id=\"stim\">9</p>", "key_press": -1, "trial_type": "single-stim", "trial_index": 107, "time_elapsed": 636454, "internal_node_id": "0.0-79.0-1.0"}}, {"uniqueid": "MTK1060:3TK8OJTYM2SNXMQCTG2JWPB34XSPVV", "current_trial": 149, "dateTime": 1513023393555, "trialdata": {"rt": -1, "stimulus": "<p id=\"stim\">8</p>", "key_press": -1, "trial_type": "single-stim", "trial_index": 108, "time_elapsed": 637455, "internal_node_id": "0.0-79.0-2.0"}}, {"uniqueid": "MTK1060:3TK8OJTYM2SNXMQCTG2JWPB34XSPVV", "current_trial": 150, "dateTime": 1513023394559, "trialdata": {"rt": -1, "stimulus": "<p id=\"stim\">7</p>", "key_press": -1, "trial_type": "single-stim", "trial_index": 109, "time_elapsed": 638460, "internal_node_id": "0.0-79.0-3.0"}}, {"uniqueid": "MTK1060:3TK8OJTYM2SNXMQCTG2JWPB34XSPVV", "current_trial": 151, "dateTime": 1513023395562, "trialdata": {"rt": -1, "stimulus": "<p id=\"stim\">6</p>", "key_press": -1, "trial_type": "single-stim", "trial_index": 110, "time_elapsed": 639462, "internal_node_id": "0.0-79.0-4.0"}}, {"uniqueid": "MTK1060:3TK8OJTYM2SNXMQCTG2JWPB34XSPVV", "current_trial": 152, "dateTime": 1513023396564, "trialdata": {"rt": -1, "stimulus": "<p id=\"stim\">5</p>", "key_press": -1, "trial_type": "single-stim", "trial_index": 111, "time_elapsed": 640464, "internal_node_id": "0.0-79.0-5.0"}}, {"uniqueid": "MTK1060:3TK8OJTYM2SNXMQCTG2JWPB34XSPVV", "current_trial": 153, "dateTime": 1513023397567, "trialdata": {"rt": -1, "stimulus": "<p id=\"stim\">4</p>", "key_press": -1, "trial_type": "single-stim", "trial_index": 112, "time_elapsed": 641467, "internal_node_id": "0.0-79.0-6.0"}}, {"uniqueid": "MTK1060:3TK8OJTYM2SNXMQCTG2JWPB34XSPVV", "current_trial": 154, "dateTime": 1513023398569, "trialdata": {"rt": -1, "stimulus": "<p id=\"stim\">3</p>", "key_press": -1, "trial_type": "single-stim", "trial_index": 113, "time_elapsed": 642470, "internal_node_id": "0.0-79.0-7.0"}}, {"uniqueid": "MTK1060:3TK8OJTYM2SNXMQCTG2JWPB34XSPVV", "current_trial": 155, "dateTime": 1513023399583, "trialdata": {"rt": -1, "stimulus": "<p id=\"stim\">2</p>", "key_press": -1, "trial_type": "single-stim", "trial_index": 114, "time_elapsed": 643482, "internal_node_id": "0.0-79.0-8.0"}}, {"uniqueid": "MTK1060:3TK8OJTYM2SNXMQCTG2JWPB34XSPVV", "current_trial": 156, "dateTime": 1513023400589, "trialdata": {"rt": -1, "stimulus": "<p id=\"stim\">1</p>", "key_press": -1, "trial_type": "single-stim", "trial_index": 115, "time_elapsed": 644490, "internal_node_id": "0.0-79.0-9.0"}}, {"uniqueid": "MTK1060:3TK8OJTYM2SNXMQCTG2JWPB34XSPVV", "current_trial": 157, "dateTime": 1513023402092, "trialdata": {"rt": -1, "stimulus": "<p id=\"stim\">+</p>", "key_press": -1, "type": "FIXATION", "trial_type": "single-stim", "trial_index": 116, "time_elapsed": 645992, "internal_node_id": "0.0-80.0-0.0"}}, {"uniqueid": "MTK1060:3TK8OJTYM2SNXMQCTG2JWPB34XSPVV", "current_trial": 158, "dateTime": 1513023402895, "trialdata": {"rt": -1, "stimulus": "<p id=\"stim\">COLLEGE</p>", "key_press": -1, "type": "PRES_VIS", "word": "college", "wordID": 345, "conditions": [24, 800, "v", 12000], "trial": 3, "serialpos": 0, "trial_type": "single-stim", "trial_index": 117, "time_elapsed": 646796, "internal_node_id": "0.0-81.0"}}, {"uniqueid": "MTK1060:3TK8OJTYM2SNXMQCTG2JWPB34XSPVV", "current_trial": 159, "dateTime": 1513023404769, "trialdata": {"rt": -1, "stimulus": "<p id=\"stim\">ROOSTER</p>", "key_press": -1, "type": "PRES_VIS", "word": "rooster", "wordID": 1208, "conditions": [24, 800, "v", 12000], "trial": 3, "serialpos": 1, "trial_type": "single-stim", "trial_index": 118, "time_elapsed": 648670, "internal_node_id": "0.0-82.0"}}, {"uniqueid": "MTK1060:3TK8OJTYM2SNXMQCTG2JWPB34XSPVV", "current_trial": 160, "dateTime": 1513023406578, "trialdata": {"rt": -1, "stimulus": "<p id=\"stim\">BROOK</p>", "key_press": -1, "type": "PRES_VIS", "word": "brook", "wordID": 176, "conditions": [24, 800, "v", 12000], "trial": 3, "serialpos": 2, "trial_type": "single-stim", "trial_index": 119, "time_elapsed": 650479, "internal_node_id": "0.0-83.0"}}, {"uniqueid": "MTK1060:3TK8OJTYM2SNXMQCTG2JWPB34XSPVV", "current_trial": 161, "dateTime": 1513023408382, "trialdata": {"rt": -1, "stimulus": "<p id=\"stim\">LODGE</p>", "key_press": -1, "type": "PRES_VIS", "word": "lodge", "wordID": 838, "conditions": [24, 800, "v", 12000], "trial": 3, "serialpos": 3, "trial_type": "single-stim", "trial_index": 120, "time_elapsed": 652282, "internal_node_id": "0.0-84.0"}}, {"uniqueid": "MTK1060:3TK8OJTYM2SNXMQCTG2JWPB34XSPVV", "current_trial": 162, "dateTime": 1513023410375, "trialdata": {"rt": -1, "stimulus": "<p id=\"stim\">PANTHER</p>", "key_press": -1, "type": "PRES_VIS", "word": "panther", "wordID": 1008, "conditions": [24, 800, "v", 12000], "trial": 3, "serialpos": 4, "trial_type": "single-stim", "trial_index": 121, "time_elapsed": 654275, "internal_node_id": "0.0-85.0"}}, {"uniqueid": "MTK1060:3TK8OJTYM2SNXMQCTG2JWPB34XSPVV", "current_trial": 163, "dateTime": 1513023412258, "trialdata": {"rt": -1, "stimulus": "<p id=\"stim\">TURTLE</p>", "key_press": -1, "type": "PRES_VIS", "word": "turtle", "wordID": 1521, "conditions": [24, 800, "v", 12000], "trial": 3, "serialpos": 5, "trial_type": "single-stim", "trial_index": 122, "time_elapsed": 656159, "internal_node_id": "0.0-86.0"}}, {"uniqueid": "MTK1060:3TK8OJTYM2SNXMQCTG2JWPB34XSPVV", "current_trial": 164, "dateTime": 1513023413973, "trialdata": {"rt": -1, "stimulus": "<p id=\"stim\">LAKE</p>", "key_press": -1, "type": "PRES_VIS", "word": "lake", "wordID": 795, "conditions": [24, 800, "v", 12000], "trial": 3, "serialpos": 6, "trial_type": "single-stim", "trial_index": 123, "time_elapsed": 657873, "internal_node_id": "0.0-87.0"}}, {"uniqueid": "MTK1060:3TK8OJTYM2SNXMQCTG2JWPB34XSPVV", "current_trial": 165, "dateTime": 1513023415664, "trialdata": {"rt": -1, "stimulus": "<p id=\"stim\">NOTEBOOK</p>", "key_press": -1, "type": "PRES_VIS", "word": "notebook", "wordID": 958, "conditions": [24, 800, "v", 12000], "trial": 3, "serialpos": 7, "trial_type": "single-stim", "trial_index": 124, "time_elapsed": 659565, "internal_node_id": "0.0-88.0"}}, {"uniqueid": "MTK1060:3TK8OJTYM2SNXMQCTG2JWPB34XSPVV", "current_trial": 166, "dateTime": 1513023417640, "trialdata": {"rt": -1, "stimulus": "<p id=\"stim\">SALMON</p>", "key_press": -1, "type": "PRES_VIS", "word": "salmon", "wordID": 1226, "conditions": [24, 800, "v", 12000], "trial": 3, "serialpos": 8, "trial_type": "single-stim", "trial_index": 125, "time_elapsed": 661540, "internal_node_id": "0.0-89.0"}}, {"uniqueid": "MTK1060:3TK8OJTYM2SNXMQCTG2JWPB34XSPVV", "current_trial": 167, "dateTime": 1513023419373, "trialdata": {"rt": -1, "stimulus": "<p id=\"stim\">COIN</p>", "key_press": -1, "type": "PRES_VIS", "word": "coin", "wordID": 342, "conditions": [24, 800, "v", 12000], "trial": 3, "serialpos": 9, "trial_type": "single-stim", "trial_index": 126, "time_elapsed": 663274, "internal_node_id": "0.0-90.0"}}, {"uniqueid": "MTK1060:3TK8OJTYM2SNXMQCTG2JWPB34XSPVV", "current_trial": 168, "dateTime": 1513023421028, "trialdata": {"rt": -1, "stimulus": "<p id=\"stim\">RIVER</p>", "key_press": -1, "type": "PRES_VIS", "word": "river", "wordID": 1193, "conditions": [24, 800, "v", 12000], "trial": 3, "serialpos": 10, "trial_type": "single-stim", "trial_index": 127, "time_elapsed": 664929, "internal_node_id": "0.0-91.0"}}, {"uniqueid": "MTK1060:3TK8OJTYM2SNXMQCTG2JWPB34XSPVV", "current_trial": 169, "dateTime": 1513023422986, "trialdata": {"rt": -1, "stimulus": "<p id=\"stim\">CHILD</p>", "key_press": -1, "type": "PRES_VIS", "word": "child", "wordID": 298, "conditions": [24, 800, "v", 12000], "trial": 3, "serialpos": 11, "trial_type": "single-stim", "trial_index": 128, "time_elapsed": 666887, "internal_node_id": "0.0-92.0"}}, {"uniqueid": "MTK1060:3TK8OJTYM2SNXMQCTG2JWPB34XSPVV", "current_trial": 170, "dateTime": 1513023424880, "trialdata": {"rt": -1, "stimulus": "<p id=\"stim\">LONDON</p>", "key_press": -1, "type": "PRES_VIS", "word": "london", "wordID": 842, "conditions": [24, 800, "v", 12000], "trial": 3, "serialpos": 12, "trial_type": "single-stim", "trial_index": 129, "time_elapsed": 668781, "internal_node_id": "0.0-93.0"}}, {"uniqueid": "MTK1060:3TK8OJTYM2SNXMQCTG2JWPB34XSPVV", "current_trial": 171, "dateTime": 1513023426851, "trialdata": {"rt": -1, "stimulus": "<p id=\"stim\">PUPPY</p>", "key_press": -1, "type": "PRES_VIS", "word": "puppy", "wordID": 1143, "conditions": [24, 800, "v", 12000], "trial": 3, "serialpos": 13, "trial_type": "single-stim", "trial_index": 130, "time_elapsed": 670752, "internal_node_id": "0.0-94.0"}}, {"uniqueid": "MTK1060:3TK8OJTYM2SNXMQCTG2JWPB34XSPVV", "current_trial": 172, "dateTime": 1513023428506, "trialdata": {"rt": -1, "stimulus": "<p id=\"stim\">DENTIST</p>", "key_press": -1, "type": "PRES_VIS", "word": "dentist", "wordID": 446, "conditions": [24, 800, "v", 12000], "trial": 3, "serialpos": 14, "trial_type": "single-stim", "trial_index": 131, "time_elapsed": 672406, "internal_node_id": "0.0-95.0"}}, {"uniqueid": "MTK1060:3TK8OJTYM2SNXMQCTG2JWPB34XSPVV", "current_trial": 173, "dateTime": 1513023430436, "trialdata": {"rt": -1, "stimulus": "<p id=\"stim\">ANTLER</p>", "key_press": -1, "type": "PRES_VIS", "word": "antler", "wordID": 28, "conditions": [24, 800, "v", 12000], "trial": 3, "serialpos": 15, "trial_type": "single-stim", "trial_index": 132, "time_elapsed": 674337, "internal_node_id": "0.0-96.0"}}, {"uniqueid": "MTK1060:3TK8OJTYM2SNXMQCTG2JWPB34XSPVV", "current_trial": 174, "dateTime": 1513023432264, "trialdata": {"rt": -1, "stimulus": "<p id=\"stim\">STICKER</p>", "key_press": -1, "type": "PRES_VIS", "word": "sticker", "wordID": 1381, "conditions": [24, 800, "v", 12000], "trial": 3, "serialpos": 16, "trial_type": "single-stim", "trial_index": 133, "time_elapsed": 676164, "internal_node_id": "0.0-97.0"}}, {"uniqueid": "MTK1060:3TK8OJTYM2SNXMQCTG2JWPB34XSPVV", "current_trial": 175, "dateTime": 1513023434022, "trialdata": {"rt": -1, "stimulus": "<p id=\"stim\">TURKEY</p>", "key_press": -1, "type": "PRES_VIS", "word": "turkey", "wordID": 1519, "conditions": [24, 800, "v", 12000], "trial": 3, "serialpos": 17, "trial_type": "single-stim", "trial_index": 134, "time_elapsed": 677922, "internal_node_id": "0.0-98.0"}}, {"uniqueid": "MTK1060:3TK8OJTYM2SNXMQCTG2JWPB34XSPVV", "current_trial": 176, "dateTime": 1513023435723, "trialdata": {"rt": -1, "stimulus": "<p id=\"stim\">LIPSTICK</p>", "key_press": -1, "type": "PRES_VIS", "word": "lipstick", "wordID": 828, "conditions": [24, 800, "v", 12000], "trial": 3, "serialpos": 18, "trial_type": "single-stim", "trial_index": 135, "time_elapsed": 679624, "internal_node_id": "0.0-99.0"}}, {"uniqueid": "MTK1060:3TK8OJTYM2SNXMQCTG2JWPB34XSPVV", "current_trial": 177, "dateTime": 1513023437352, "trialdata": {"rt": -1, "stimulus": "<p id=\"stim\">FIDDLE</p>", "key_press": -1, "type": "PRES_VIS", "word": "fiddle", "wordID": 560, "conditions": [24, 800, "v", 12000], "trial": 3, "serialpos": 19, "trial_type": "single-stim", "trial_index": 136, "time_elapsed": 681253, "internal_node_id": "0.0-100.0"}}, {"uniqueid": "MTK1060:3TK8OJTYM2SNXMQCTG2JWPB34XSPVV", "current_trial": 178, "dateTime": 1513023439321, "trialdata": {"rt": -1, "stimulus": "<p id=\"stim\">MILK</p>", "key_press": -1, "type": "PRES_VIS", "word": "milk", "wordID": 894, "conditions": [24, 800, "v", 12000], "trial": 3, "serialpos": 20, "trial_type": "single-stim", "trial_index": 137, "time_elapsed": 683222, "internal_node_id": "0.0-101.0"}}, {"uniqueid": "MTK1060:3TK8OJTYM2SNXMQCTG2JWPB34XSPVV", "current_trial": 179, "dateTime": 1513023441243, "trialdata": {"rt": -1, "stimulus": "<p id=\"stim\">HONEY</p>", "key_press": -1, "type": "PRES_VIS", "word": "honey", "wordID": 712, "conditions": [24, 800, "v", 12000], "trial": 3, "serialpos": 21, "trial_type": "single-stim", "trial_index": 138, "time_elapsed": 685144, "internal_node_id": "0.0-102.0"}}, {"uniqueid": "MTK1060:3TK8OJTYM2SNXMQCTG2JWPB34XSPVV", "current_trial": 180, "dateTime": 1513023443049, "trialdata": {"rt": -1, "stimulus": "<p id=\"stim\">FRANCE</p>", "key_press": -1, "type": "PRES_VIS", "word": "france", "wordID": 600, "conditions": [24, 800, "v", 12000], "trial": 3, "serialpos": 22, "trial_type": "single-stim", "trial_index": 139, "time_elapsed": 686950, "internal_node_id": "0.0-103.0"}}, {"uniqueid": "MTK1060:3TK8OJTYM2SNXMQCTG2JWPB34XSPVV", "current_trial": 181, "dateTime": 1513023445023, "trialdata": {"rt": -1, "stimulus": "<p id=\"stim\">BALLOON</p>", "key_press": -1, "type": "PRES_VIS", "word": "balloon", "wordID": 74, "conditions": [24, 800, "v", 12000], "trial": 3, "serialpos": 23, "trial_type": "single-stim", "trial_index": 140, "time_elapsed": 688924, "internal_node_id": "0.0-104.0"}}, {"uniqueid": "MTK1060:3TK8OJTYM2SNXMQCTG2JWPB34XSPVV", "current_trial": 182, "dateTime": 1513023447444, "trialdata": {"rt": -1, "stimulus": "", "key_press": -1, "type": "PRE_RECALL_DELAY", "trial_type": "single-stim", "trial_index": 141, "time_elapsed": 691345, "internal_node_id": "0.0-105.0-0.0"}}, {"uniqueid": "MTK1060:3TK8OJTYM2SNXMQCTG2JWPB34XSPVV", "current_trial": 183, "dateTime": 1513023447947, "trialdata": {"rt": -1000, "stimulus": "/static/audio/400Hz.wav", "key_press": -1, "type": "PRE_RECALL_ALERT", "trial_type": "single-audio", "trial_index": 142, "time_elapsed": 691848, "internal_node_id": "0.0-106.0"}}, {"uniqueid": "MTK1060:3TK8OJTYM2SNXMQCTG2JWPB34XSPVV", "current_trial": 184, "dateTime": 1513023508016, "trialdata": {"rt": [6354, 9090, 10338, 12002, 13584, 14937, 16913, 19049, 20721, 23049, 24817, 27409, 31729, 33906, 37162, 38770, 40530, 44538, 48834], "recwords": ["dentist", "london", "coin", "brook", "milk", "honey", "france", "fiddle", "sticker", "river", "child", "lipstick", "turkey", "anthler", "dentist", "coin", "milk", "hone", "notebook"], "type": "FREE_RECALL", "conditions": [24, 800, "v", 12000], "trial": 3, "trial_type": "free-recall", "trial_index": 143, "time_elapsed": 751904, "internal_node_id": "0.0-107.0-0.0"}}, {"uniqueid": "MTK1060:3TK8OJTYM2SNXMQCTG2JWPB34XSPVV", "current_trial": 185, "dateTime": 1513023627124, "trialdata": {"rt": 117103, "key_press": 13, "type": "INSTRUCTIONS", "trial_type": "text", "trial_index": 144, "time_elapsed": 871025, "internal_node_id": "0.0-108.0"}}, {"uniqueid": "MTK1060:3TK8OJTYM2SNXMQCTG2JWPB34XSPVV", "current_trial": 186, "dateTime": 1513023653135, "trialdata": {"rt": [6552, 10096, 13344, 15481, 17825, 23162], "responses": ["12", "17", "12", "16", "14", "21"], "num1": [8, 7, 7, 1, 1, 9, 2], "num2": [3, 5, 4, 9, 9, 5, 5], "num3": [1, 4, 1, 6, 4, 7, 6], "type": "DISTRACTOR", "conditions": [12, 1600, "a", 24000], "trial": 4, "trial_type": "math-distractor", "trial_index": 145, "time_elapsed": 897036, "internal_node_id": "0.0-109.0"}}, {"uniqueid": "MTK1060:3TK8OJTYM2SNXMQCTG2JWPB34XSPVV", "current_trial": 187, "dateTime": 1513023656143, "trialdata": {"rt": -1, "stimulus": "<p id=\"stim\">10</p>", "key_press": -1, "trial_type": "single-stim", "trial_index": 146, "time_elapsed": 900044, "internal_node_id": "0.0-110.0-0.0"}}, {"uniqueid": "MTK1060:3TK8OJTYM2SNXMQCTG2JWPB34XSPVV", "current_trial": 188, "dateTime": 1513023657147, "trialdata": {"rt": -1, "stimulus": "<p id=\"stim\">9</p>", "key_press": -1, "trial_type": "single-stim", "trial_index": 147, "time_elapsed": 901047, "internal_node_id": "0.0-110.0-1.0"}}, {"uniqueid": "MTK1060:3TK8OJTYM2SNXMQCTG2JWPB34XSPVV", "current_trial": 189, "dateTime": 1513023658149, "trialdata": {"rt": -1, "stimulus": "<p id=\"stim\">8</p>", "key_press": -1, "trial_type": "single-stim", "trial_index": 148, "time_elapsed": 902050, "internal_node_id": "0.0-110.0-2.0"}}, {"uniqueid": "MTK1060:3TK8OJTYM2SNXMQCTG2JWPB34XSPVV", "current_trial": 190, "dateTime": 1513023659152, "trialdata": {"rt": -1, "stimulus": "<p id=\"stim\">7</p>", "key_press": -1, "trial_type": "single-stim", "trial_index": 149, "time_elapsed": 903053, "internal_node_id": "0.0-110.0-3.0"}}, {"uniqueid": "MTK1060:3TK8OJTYM2SNXMQCTG2JWPB34XSPVV", "current_trial": 191, "dateTime": 1513023660155, "trialdata": {"rt": -1, "stimulus": "<p id=\"stim\">6</p>", "key_press": -1, "trial_type": "single-stim", "trial_index": 150, "time_elapsed": 904055, "internal_node_id": "0.0-110.0-4.0"}}, {"uniqueid": "MTK1060:3TK8OJTYM2SNXMQCTG2JWPB34XSPVV", "current_trial": 192, "dateTime": 1513023661159, "trialdata": {"rt": -1, "stimulus": "<p id=\"stim\">5</p>", "key_press": -1, "trial_type": "single-stim", "trial_index": 151, "time_elapsed": 905059, "internal_node_id": "0.0-110.0-5.0"}}, {"uniqueid": "MTK1060:3TK8OJTYM2SNXMQCTG2JWPB34XSPVV", "current_trial": 193, "dateTime": 1513023662161, "trialdata": {"rt": -1, "stimulus": "<p id=\"stim\">4</p>", "key_press": -1, "trial_type": "single-stim", "trial_index": 152, "time_elapsed": 906062, "internal_node_id": "0.0-110.0-6.0"}}, {"uniqueid": "MTK1060:3TK8OJTYM2SNXMQCTG2JWPB34XSPVV", "current_trial": 194, "dateTime": 1513023663164, "trialdata": {"rt": -1, "stimulus": "<p id=\"stim\">3</p>", "key_press": -1, "trial_type": "single-stim", "trial_index": 153, "time_elapsed": 907065, "internal_node_id": "0.0-110.0-7.0"}}, {"uniqueid": "MTK1060:3TK8OJTYM2SNXMQCTG2JWPB34XSPVV", "current_trial": 195, "dateTime": 1513023664169, "trialdata": {"rt": -1, "stimulus": "<p id=\"stim\">2</p>", "key_press": -1, "trial_type": "single-stim", "trial_index": 154, "time_elapsed": 908070, "internal_node_id": "0.0-110.0-8.0"}}, {"uniqueid": "MTK1060:3TK8OJTYM2SNXMQCTG2JWPB34XSPVV", "current_trial": 196, "dateTime": 1513023665174, "trialdata": {"rt": -1, "stimulus": "<p id=\"stim\">1</p>", "key_press": -1, "trial_type": "single-stim", "trial_index": 155, "time_elapsed": 909074, "internal_node_id": "0.0-110.0-9.0"}}, {"uniqueid": "MTK1060:3TK8OJTYM2SNXMQCTG2JWPB34XSPVV", "current_trial": 197, "dateTime": 1513023666678, "trialdata": {"rt": -1, "stimulus": "<p id=\"stim\">+</p>", "key_press": -1, "type": "FIXATION", "trial_type": "single-stim", "trial_index": 156, "time_elapsed": 910579, "internal_node_id": "0.0-111.0-0.0"}}, {"uniqueid": "MTK1060:3TK8OJTYM2SNXMQCTG2JWPB34XSPVV", "current_trial": 198, "dateTime": 1513023669122, "trialdata": {"rt": -1000, "stimulus": "/static/audio/wordpool/SPONGE.wav", "key_press": -1, "type": "PRES_AUD", "word": "sponge", "wordID": 1354, "conditions": [12, 1600, "a", 24000], "trial": 4, "serialpos": 0, "trial_type": "single-audio", "trial_index": 157, "time_elapsed": 913022, "internal_node_id": "0.0-112.0"}}, {"uniqueid": "MTK1060:3TK8OJTYM2SNXMQCTG2JWPB34XSPVV", "current_trial": 199, "dateTime": 1513023671817, "trialdata": {"rt": -1000, "stimulus": "/static/audio/wordpool/ANKLE.wav", "key_press": -1, "type": "PRES_AUD", "word": "ankle", "wordID": 23, "conditions": [12, 1600, "a", 24000], "trial": 4, "serialpos": 1, "trial_type": "single-audio", "trial_index": 158, "time_elapsed": 915718, "internal_node_id": "0.0-113.0"}}, {"uniqueid": "MTK1060:3TK8OJTYM2SNXMQCTG2JWPB34XSPVV", "current_trial": 200, "dateTime": 1513023674547, "trialdata": {"rt": -1000, "stimulus": "/static/audio/wordpool/EXPERT.wav", "key_press": -1, "type": "PRES_AUD", "word": "expert", "wordID": 542, "conditions": [12, 1600, "a", 24000], "trial": 4, "serialpos": 2, "trial_type": "single-audio", "trial_index": 159, "time_elapsed": 918447, "internal_node_id": "0.0-114.0"}}, {"uniqueid": "MTK1060:3TK8OJTYM2SNXMQCTG2JWPB34XSPVV", "current_trial": 201, "dateTime": 1513023677170, "trialdata": {"rt": -1000, "stimulus": "/static/audio/wordpool/APRON.wav", "key_press": -1, "type": "PRES_AUD", "word": "apron", "wordID": 34, "conditions": [12, 1600, "a", 24000], "trial": 4, "serialpos": 3, "trial_type": "single-audio", "trial_index": 160, "time_elapsed": 921071, "internal_node_id": "0.0-115.0"}}, {"uniqueid": "MTK1060:3TK8OJTYM2SNXMQCTG2JWPB34XSPVV", "current_trial": 202, "dateTime": 1513023679726, "trialdata": {"rt": -1000, "stimulus": "/static/audio/wordpool/MAMMAL.wav", "key_press": -1, "type": "PRES_AUD", "word": "mammal", "wordID": 860, "conditions": [12, 1600, "a", 24000], "trial": 4, "serialpos": 4, "trial_type": "single-audio", "trial_index": 161, "time_elapsed": 923627, "internal_node_id": "0.0-116.0"}}, {"uniqueid": "MTK1060:3TK8OJTYM2SNXMQCTG2JWPB34XSPVV", "current_trial": 203, "dateTime": 1513023682450, "trialdata": {"rt": -1000, "stimulus": "/static/audio/wordpool/SUSPECT.wav", "key_press": -1, "type": "PRES_AUD", "word": "suspect", "wordID": 1414, "conditions": [12, 1600, "a", 24000], "trial": 4, "serialpos": 5, "trial_type": "single-audio", "trial_index": 162, "time_elapsed": 926351, "internal_node_id": "0.0-117.0"}}, {"uniqueid": "MTK1060:3TK8OJTYM2SNXMQCTG2JWPB34XSPVV", "current_trial": 204, "dateTime": 1513023684889, "trialdata": {"rt": -1000, "stimulus": "/static/audio/wordpool/ROBBER.wav", "key_press": -1, "type": "PRES_AUD", "word": "robber", "wordID": 1196, "conditions": [12, 1600, "a", 24000], "trial": 4, "serialpos": 6, "trial_type": "single-audio", "trial_index": 163, "time_elapsed": 928790, "internal_node_id": "0.0-118.0"}}, {"uniqueid": "MTK1060:3TK8OJTYM2SNXMQCTG2JWPB34XSPVV", "current_trial": 205, "dateTime": 1513023687607, "trialdata": {"rt": -1000, "stimulus": "/static/audio/wordpool/PECAN.wav", "key_press": -1, "type": "PRES_AUD", "word": "pecan", "wordID": 1035, "conditions": [12, 1600, "a", 24000], "trial": 4, "serialpos": 7, "trial_type": "single-audio", "trial_index": 164, "time_elapsed": 931508, "internal_node_id": "0.0-119.0"}}, {"uniqueid": "MTK1060:3TK8OJTYM2SNXMQCTG2JWPB34XSPVV", "current_trial": 206, "dateTime": 1513023690281, "trialdata": {"rt": -1000, "stimulus": "/static/audio/wordpool/CRATER.wav", "key_press": -1, "type": "PRES_AUD", "word": "crater", "wordID": 399, "conditions": [12, 1600, "a", 24000], "trial": 4, "serialpos": 8, "trial_type": "single-audio", "trial_index": 165, "time_elapsed": 934181, "internal_node_id": "0.0-120.0"}}, {"uniqueid": "MTK1060:3TK8OJTYM2SNXMQCTG2JWPB34XSPVV", "current_trial": 207, "dateTime": 1513023692717, "trialdata": {"rt": -1000, "stimulus": "/static/audio/wordpool/SHELF.wav", "key_press": -1, "type": "PRES_AUD", "word": "shelf", "wordID": 1279, "conditions": [12, 1600, "a", 24000], "trial": 4, "serialpos": 9, "trial_type": "single-audio", "trial_index": 166, "time_elapsed": 936618, "internal_node_id": "0.0-121.0"}}, {"uniqueid": "MTK1060:3TK8OJTYM2SNXMQCTG2JWPB34XSPVV", "current_trial": 208, "dateTime": 1513023695346, "trialdata": {"rt": -1000, "stimulus": "/static/audio/wordpool/KITCHEN.wav", "key_press": -1, "type": "PRES_AUD", "word": "kitchen", "wordID": 777, "conditions": [12, 1600, "a", 24000], "trial": 4, "serialpos": 10, "trial_type": "single-audio", "trial_index": 167, "time_elapsed": 939246, "internal_node_id": "0.0-122.0"}}, {"uniqueid": "MTK1060:3TK8OJTYM2SNXMQCTG2JWPB34XSPVV", "current_trial": 209, "dateTime": 1513023698008, "trialdata": {"rt": -1000, "stimulus": "/static/audio/wordpool/PEANUT.wav", "key_press": -1, "type": "PRES_AUD", "word": "peanut", "wordID": 1031, "conditions": [12, 1600, "a", 24000], "trial": 4, "serialpos": 11, "trial_type": "single-audio", "trial_index": 168, "time_elapsed": 941908, "internal_node_id": "0.0-123.0"}}, {"uniqueid": "MTK1060:3TK8OJTYM2SNXMQCTG2JWPB34XSPVV", "current_trial": 210, "dateTime": 1513023699230, "trialdata": {"rt": -1, "stimulus": "", "key_press": -1, "type": "PRE_RECALL_DELAY", "trial_type": "single-stim", "trial_index": 169, "time_elapsed": 943131, "internal_node_id": "0.0-124.0-0.0"}}, {"uniqueid": "MTK1060:3TK8OJTYM2SNXMQCTG2JWPB34XSPVV", "current_trial": 211, "dateTime": 1513023699733, "trialdata": {"rt": -1000, "stimulus": "/static/audio/400Hz.wav", "key_press": -1, "type": "PRE_RECALL_ALERT", "trial_type": "single-audio", "trial_index": 170, "time_elapsed": 943634, "internal_node_id": "0.0-125.0"}}, {"uniqueid": "MTK1060:3TK8OJTYM2SNXMQCTG2JWPB34XSPVV", "current_trial": 212, "dateTime": 1513023759751, "trialdata": {"rt": [6139, 8211, 10060, 12125, 14363, 16468, 18716, 20940, 22412, 23876, 26644, 28228, 30532, 34484, 35868], "recwords": ["peanut", "kitchen", "robber", "apron", "shelf", "suspect", "decon", "permit", "crater", "robber", "expert", "uncle", "sponge", "kitchen", "shelf"], "type": "FREE_RECALL", "conditions": [12, 1600, "a", 24000], "trial": 4, "trial_type": "free-recall", "trial_index": 171, "time_elapsed": 1003641, "internal_node_id": "0.0-126.0-0.0"}}, {"uniqueid": "MTK1060:3TK8OJTYM2SNXMQCTG2JWPB34XSPVV", "current_trial": 213, "dateTime": 1513023784201, "trialdata": {"rt": 22446, "key_press": 13, "type": "INSTRUCTIONS", "trial_type": "text", "trial_index": 172, "time_elapsed": 1028101, "internal_node_id": "0.0-127.0"}}, {"uniqueid": "MTK1060:3TK8OJTYM2SNXMQCTG2JWPB34XSPVV", "current_trial": 214, "dateTime": 1513023798207, "trialdata": {"rt": [7988], "responses": ["12"], "num1": [7, 5], "num2": [2, 7], "num3": [3, 4], "type": "DISTRACTOR", "conditions": [24, 1600, "a", 12000], "trial": 5, "trial_type": "math-distractor", "trial_index": 173, "time_elapsed": 1042108, "internal_node_id": "0.0-128.0"}}, {"uniqueid": "MTK1060:3TK8OJTYM2SNXMQCTG2JWPB34XSPVV", "current_trial": 215, "dateTime": 1513023801221, "trialdata": {"rt": -1, "stimulus": "<p id=\"stim\">10</p>", "key_press": -1, "trial_type": "single-stim", "trial_index": 174, "time_elapsed": 1045121, "internal_node_id": "0.0-129.0-0.0"}}, {"uniqueid": "MTK1060:3TK8OJTYM2SNXMQCTG2JWPB34XSPVV", "current_trial": 216, "dateTime": 1513023802223, "trialdata": {"rt": -1, "stimulus": "<p id=\"stim\">9</p>", "key_press": -1, "trial_type": "single-stim", "trial_index": 175, "time_elapsed": 1046124, "internal_node_id": "0.0-129.0-1.0"}}, {"uniqueid": "MTK1060:3TK8OJTYM2SNXMQCTG2JWPB34XSPVV", "current_trial": 217, "dateTime": 1513023803226, "trialdata": {"rt": -1, "stimulus": "<p id=\"stim\">8</p>", "key_press": -1, "trial_type": "single-stim", "trial_index": 176, "time_elapsed": 1047127, "internal_node_id": "0.0-129.0-2.0"}}, {"uniqueid": "MTK1060:3TK8OJTYM2SNXMQCTG2JWPB34XSPVV", "current_trial": 218, "dateTime": 1513023804229, "trialdata": {"rt": -1, "stimulus": "<p id=\"stim\">7</p>", "key_press": -1, "trial_type": "single-stim", "trial_index": 177, "time_elapsed": 1048130, "internal_node_id": "0.0-129.0-3.0"}}, {"uniqueid": "MTK1060:3TK8OJTYM2SNXMQCTG2JWPB34XSPVV", "current_trial": 219, "dateTime": 1513023805233, "trialdata": {"rt": -1, "stimulus": "<p id=\"stim\">6</p>", "key_press": -1, "trial_type": "single-stim", "trial_index": 178, "time_elapsed": 1049134, "internal_node_id": "0.0-129.0-4.0"}}, {"uniqueid": "MTK1060:3TK8OJTYM2SNXMQCTG2JWPB34XSPVV", "current_trial": 220, "dateTime": 1513023806252, "trialdata": {"rt": -1, "stimulus": "<p id=\"stim\">5</p>", "key_press": -1, "trial_type": "single-stim", "trial_index": 179, "time_elapsed": 1050152, "internal_node_id": "0.0-129.0-5.0"}}, {"uniqueid": "MTK1060:3TK8OJTYM2SNXMQCTG2JWPB34XSPVV", "current_trial": 221, "dateTime": 1513023807259, "trialdata": {"rt": -1, "stimulus": "<p id=\"stim\">4</p>", "key_press": -1, "trial_type": "single-stim", "trial_index": 180, "time_elapsed": 1051160, "internal_node_id": "0.0-129.0-6.0"}}, {"uniqueid": "MTK1060:3TK8OJTYM2SNXMQCTG2JWPB34XSPVV", "current_trial": 222, "dateTime": 1513023808262, "trialdata": {"rt": -1, "stimulus": "<p id=\"stim\">3</p>", "key_press": -1, "trial_type": "single-stim", "trial_index": 181, "time_elapsed": 1052163, "internal_node_id": "0.0-129.0-7.0"}}, {"uniqueid": "MTK1060:3TK8OJTYM2SNXMQCTG2JWPB34XSPVV", "current_trial": 223, "dateTime": 1513023809265, "trialdata": {"rt": -1, "stimulus": "<p id=\"stim\">2</p>", "key_press": -1, "trial_type": "single-stim", "trial_index": 182, "time_elapsed": 1053166, "internal_node_id": "0.0-129.0-8.0"}}, {"uniqueid": "MTK1060:3TK8OJTYM2SNXMQCTG2JWPB34XSPVV", "current_trial": 224, "dateTime": 1513023810267, "trialdata": {"rt": -1, "stimulus": "<p id=\"stim\">1</p>", "key_press": -1, "trial_type": "single-stim", "trial_index": 183, "time_elapsed": 1054168, "internal_node_id": "0.0-129.0-9.0"}}, {"uniqueid": "MTK1060:3TK8OJTYM2SNXMQCTG2JWPB34XSPVV", "current_trial": 225, "dateTime": 1513023811770, "trialdata": {"rt": -1, "stimulus": "<p id=\"stim\">+</p>", "key_press": -1, "type": "FIXATION", "trial_type": "single-stim", "trial_index": 184, "time_elapsed": 1055670, "internal_node_id": "0.0-130.0-0.0"}}, {"uniqueid": "MTK1060:3TK8OJTYM2SNXMQCTG2JWPB34XSPVV", "current_trial": 226, "dateTime": 1513023814258, "trialdata": {"rt": -1000, "stimulus": "/static/audio/wordpool/FRAME.wav", "key_press": -1, "type": "PRES_AUD", "word": "frame", "wordID": 599, "conditions": [24, 1600, "a", 12000], "trial": 5, "serialpos": 0, "trial_type": "single-audio", "trial_index": 185, "time_elapsed": 1058158, "internal_node_id": "0.0-131.0"}}, {"uniqueid": "MTK1060:3TK8OJTYM2SNXMQCTG2JWPB34XSPVV", "current_trial": 227, "dateTime": 1513023816973, "trialdata": {"rt": -1000, "stimulus": "/static/audio/wordpool/TRIBE.wav", "key_press": -1, "type": "PRES_AUD", "word": "tribe", "wordID": 1504, "conditions": [24, 1600, "a", 12000], "trial": 5, "serialpos": 1, "trial_type": "single-audio", "trial_index": 186, "time_elapsed": 1060874, "internal_node_id": "0.0-132.0"}}, {"uniqueid": "MTK1060:3TK8OJTYM2SNXMQCTG2JWPB34XSPVV", "current_trial": 228, "dateTime": 1513023819634, "trialdata": {"rt": -1000, "stimulus": "/static/audio/wordpool/PICNIC.wav", "key_press": -1, "type": "PRES_AUD", "word": "picnic", "wordID": 1059, "conditions": [24, 1600, "a", 12000], "trial": 5, "serialpos": 2, "trial_type": "single-audio", "trial_index": 187, "time_elapsed": 1063535, "internal_node_id": "0.0-133.0"}}, {"uniqueid": "MTK1060:3TK8OJTYM2SNXMQCTG2JWPB34XSPVV", "current_trial": 229, "dateTime": 1513023822435, "trialdata": {"rt": -1000, "stimulus": "/static/audio/wordpool/PICTURE.wav", "key_press": -1, "type": "PRES_AUD", "word": "picture", "wordID": 1060, "conditions": [24, 1600, "a", 12000], "trial": 5, "serialpos": 3, "trial_type": "single-audio", "trial_index": 188, "time_elapsed": 1066335, "internal_node_id": "0.0-134.0"}}, {"uniqueid": "MTK1060:3TK8OJTYM2SNXMQCTG2JWPB34XSPVV", "current_trial": 230, "dateTime": 1513023825157, "trialdata": {"rt": -1000, "stimulus": "/static/audio/wordpool/ISLAND.wav", "key_press": -1, "type": "PRES_AUD", "word": "island", "wordID": 744, "conditions": [24, 1600, "a", 12000], "trial": 5, "serialpos": 4, "trial_type": "single-audio", "trial_index": 189, "time_elapsed": 1069058, "internal_node_id": "0.0-135.0"}}, {"uniqueid": "MTK1060:3TK8OJTYM2SNXMQCTG2JWPB34XSPVV", "current_trial": 231, "dateTime": 1513023827904, "trialdata": {"rt": -1000, "stimulus": "/static/audio/wordpool/BUREAU.wav", "key_press": -1, "type": "PRES_AUD", "word": "bureau", "wordID": 198, "conditions": [24, 1600, "a", 12000], "trial": 5, "serialpos": 5, "trial_type": "single-audio", "trial_index": 190, "time_elapsed": 1071804, "internal_node_id": "0.0-136.0"}}, {"uniqueid": "MTK1060:3TK8OJTYM2SNXMQCTG2JWPB34XSPVV", "current_trial": 232, "dateTime": 1513023830375, "trialdata": {"rt": -1000, "stimulus": "/static/audio/wordpool/OFFICE.wav", "key_press": -1, "type": "PRES_AUD", "word": "office", "wordID": 971, "conditions": [24, 1600, "a", 12000], "trial": 5, "serialpos": 6, "trial_type": "single-audio", "trial_index": 191, "time_elapsed": 1074276, "internal_node_id": "0.0-137.0"}}, {"uniqueid": "MTK1060:3TK8OJTYM2SNXMQCTG2JWPB34XSPVV", "current_trial": 233, "dateTime": 1513023832957, "trialdata": {"rt": -1000, "stimulus": "/static/audio/wordpool/TABLE.wav", "key_press": -1, "type": "PRES_AUD", "word": "table", "wordID": 1425, "conditions": [24, 1600, "a", 12000], "trial": 5, "serialpos": 7, "trial_type": "single-audio", "trial_index": 192, "time_elapsed": 1076857, "internal_node_id": "0.0-138.0"}}, {"uniqueid": "MTK1060:3TK8OJTYM2SNXMQCTG2JWPB34XSPVV", "current_trial": 234, "dateTime": 1513023835615, "trialdata": {"rt": -1000, "stimulus": "/static/audio/wordpool/PORTRAIT.wav", "key_press": -1, "type": "PRES_AUD", "word": "portrait", "wordID": 1110, "conditions": [24, 1600, "a", 12000], "trial": 5, "serialpos": 8, "trial_type": "single-audio", "trial_index": 193, "time_elapsed": 1079516, "internal_node_id": "0.0-139.0"}}, {"uniqueid": "MTK1060:3TK8OJTYM2SNXMQCTG2JWPB34XSPVV", "current_trial": 235, "dateTime": 1513023838166, "trialdata": {"rt": -1000, "stimulus": "/static/audio/wordpool/FLUTE.wav", "key_press": -1, "type": "PRES_AUD", "word": "flute", "wordID": 584, "conditions": [24, 1600, "a", 12000], "trial": 5, "serialpos": 9, "trial_type": "single-audio", "trial_index": 194, "time_elapsed": 1082066, "internal_node_id": "0.0-140.0"}}, {"uniqueid": "MTK1060:3TK8OJTYM2SNXMQCTG2JWPB34XSPVV", "current_trial": 236, "dateTime": 1513023840707, "trialdata": {"rt": -1000, "stimulus": "/static/audio/wordpool/TUBA.wav", "key_press": -1, "type": "PRES_AUD", "word": "tuba", "wordID": 1514, "conditions": [24, 1600, "a", 12000], "trial": 5, "serialpos": 10, "trial_type": "single-audio", "trial_index": 195, "time_elapsed": 1084607, "internal_node_id": "0.0-141.0"}}, {"uniqueid": "MTK1060:3TK8OJTYM2SNXMQCTG2JWPB34XSPVV", "current_trial": 237, "dateTime": 1513023843147, "trialdata": {"rt": -1000, "stimulus": "/static/audio/wordpool/PUDDLE.wav", "key_press": -1, "type": "PRES_AUD", "word": "puddle", "wordID": 1139, "conditions": [24, 1600, "a", 12000], "trial": 5, "serialpos": 11, "trial_type": "single-audio", "trial_index": 196, "time_elapsed": 1087047, "internal_node_id": "0.0-142.0"}}, {"uniqueid": "MTK1060:3TK8OJTYM2SNXMQCTG2JWPB34XSPVV", "current_trial": 238, "dateTime": 1513023845929, "trialdata": {"rt": -1000, "stimulus": "/static/audio/wordpool/BUGGY.wav", "key_press": -1, "type": "PRES_AUD", "word": "buggy", "wordID": 187, "conditions": [24, 1600, "a", 12000], "trial": 5, "serialpos": 12, "trial_type": "single-audio", "trial_index": 197, "time_elapsed": 1089830, "internal_node_id": "0.0-143.0"}}, {"uniqueid": "MTK1060:3TK8OJTYM2SNXMQCTG2JWPB34XSPVV", "current_trial": 239, "dateTime": 1513023848626, "trialdata": {"rt": -1000, "stimulus": "/static/audio/wordpool/SODA.wav", "key_press": -1, "type": "PRES_AUD", "word": "soda", "wordID": 1340, "conditions": [24, 1600, "a", 12000], "trial": 5, "serialpos": 13, "trial_type": "single-audio", "trial_index": 198, "time_elapsed": 1092527, "internal_node_id": "0.0-144.0"}}, {"uniqueid": "MTK1060:3TK8OJTYM2SNXMQCTG2JWPB34XSPVV", "current_trial": 240, "dateTime": 1513023851186, "trialdata": {"rt": -1000, "stimulus": "/static/audio/wordpool/AIRPLANE.wav", "key_press": -1, "type": "PRES_AUD", "word": "airplane", "wordID": 11, "conditions": [24, 1600, "a", 12000], "trial": 5, "serialpos": 14, "trial_type": "single-audio", "trial_index": 199, "time_elapsed": 1095087, "internal_node_id": "0.0-145.0"}}, {"uniqueid": "MTK1060:3TK8OJTYM2SNXMQCTG2JWPB34XSPVV", "current_trial": 241, "dateTime": 1513023853715, "trialdata": {"rt": -1000, "stimulus": "/static/audio/wordpool/SCOTCH.wav", "key_press": -1, "type": "PRES_AUD", "word": "scotch", "wordID": 1250, "conditions": [24, 1600, "a", 12000], "trial": 5, "serialpos": 15, "trial_type": "single-audio", "trial_index": 200, "time_elapsed": 1097615, "internal_node_id": "0.0-146.0"}}, {"uniqueid": "MTK1060:3TK8OJTYM2SNXMQCTG2JWPB34XSPVV", "current_trial": 242, "dateTime": 1513023856151, "trialdata": {"rt": -1000, "stimulus": "/static/audio/wordpool/FUNGUS.wav", "key_press": -1, "type": "PRES_AUD", "word": "fungus", "wordID": 613, "conditions": [24, 1600, "a", 12000], "trial": 5, "serialpos": 16, "trial_type": "single-audio", "trial_index": 201, "time_elapsed": 1100052, "internal_node_id": "0.0-147.0"}}, {"uniqueid": "MTK1060:3TK8OJTYM2SNXMQCTG2JWPB34XSPVV", "current_trial": 243, "dateTime": 1513023858630, "trialdata": {"rt": -1000, "stimulus": "/static/audio/wordpool/LACE.wav", "key_press": -1, "type": "PRES_AUD", "word": "lace", "wordID": 791, "conditions": [24, 1600, "a", 12000], "trial": 5, "serialpos": 17, "trial_type": "single-audio", "trial_index": 202, "time_elapsed": 1102530, "internal_node_id": "0.0-148.0"}}, {"uniqueid": "MTK1060:3TK8OJTYM2SNXMQCTG2JWPB34XSPVV", "current_trial": 244, "dateTime": 1513023861286, "trialdata": {"rt": -1000, "stimulus": "/static/audio/wordpool/DRESS.wav", "key_press": -1, "type": "PRES_AUD", "word": "dress", "wordID": 494, "conditions": [24, 1600, "a", 12000], "trial": 5, "serialpos": 18, "trial_type": "single-audio", "trial_index": 203, "time_elapsed": 1105187, "internal_node_id": "0.0-149.0"}}, {"uniqueid": "MTK1060:3TK8OJTYM2SNXMQCTG2JWPB34XSPVV", "current_trial": 245, "dateTime": 1513023863837, "trialdata": {"rt": -1000, "stimulus": "/static/audio/wordpool/WASP.wav", "key_press": -1, "type": "PRES_AUD", "word": "wasp", "wordID": 1592, "conditions": [24, 1600, "a", 12000], "trial": 5, "serialpos": 19, "trial_type": "single-audio", "trial_index": 204, "time_elapsed": 1107738, "internal_node_id": "0.0-150.0"}}, {"uniqueid": "MTK1060:3TK8OJTYM2SNXMQCTG2JWPB34XSPVV", "current_trial": 246, "dateTime": 1513023866282, "trialdata": {"rt": -1000, "stimulus": "/static/audio/wordpool/GALLON.wav", "key_press": -1, "type": "PRES_AUD", "word": "gallon", "wordID": 617, "conditions": [24, 1600, "a", 12000], "trial": 5, "serialpos": 20, "trial_type": "single-audio", "trial_index": 205, "time_elapsed": 1110182, "internal_node_id": "0.0-151.0"}}, {"uniqueid": "MTK1060:3TK8OJTYM2SNXMQCTG2JWPB34XSPVV", "current_trial": 247, "dateTime": 1513023868838, "trialdata": {"rt": -1000, "stimulus": "/static/audio/wordpool/GOBLIN.wav", "key_press": -1, "type": "PRES_AUD", "word": "goblin", "wordID": 644, "conditions": [24, 1600, "a", 12000], "trial": 5, "serialpos": 21, "trial_type": "single-audio", "trial_index": 206, "time_elapsed": 1112739, "internal_node_id": "0.0-152.0"}}, {"uniqueid": "MTK1060:3TK8OJTYM2SNXMQCTG2JWPB34XSPVV", "current_trial": 248, "dateTime": 1513023871480, "trialdata": {"rt": -1000, "stimulus": "/static/audio/wordpool/MATTRESS.wav", "key_press": -1, "type": "PRES_AUD", "word": "mattress", "wordID": 878, "conditions": [24, 1600, "a", 12000], "trial": 5, "serialpos": 22, "trial_type": "single-audio", "trial_index": 207, "time_elapsed": 1115380, "internal_node_id": "0.0-153.0"}}, {"uniqueid": "MTK1060:3TK8OJTYM2SNXMQCTG2JWPB34XSPVV", "current_trial": 249, "dateTime": 1513023874079, "trialdata": {"rt": -1000, "stimulus": "/static/audio/wordpool/BLENDER.wav", "key_press": -1, "type": "PRES_AUD", "word": "blender", "wordID": 135, "conditions": [24, 1600, "a", 12000], "trial": 5, "serialpos": 23, "trial_type": "single-audio", "trial_index": 208, "time_elapsed": 1117979, "internal_node_id": "0.0-154.0"}}, {"uniqueid": "MTK1060:3TK8OJTYM2SNXMQCTG2JWPB34XSPVV", "current_trial": 250, "dateTime": 1513023875470, "trialdata": {"rt": -1, "stimulus": "", "key_press": -1, "type": "PRE_RECALL_DELAY", "trial_type": "single-stim", "trial_index": 209, "time_elapsed": 1119370, "internal_node_id": "0.0-155.0-0.0"}}, {"uniqueid": "MTK1060:3TK8OJTYM2SNXMQCTG2JWPB34XSPVV", "current_trial": 251, "dateTime": 1513023875974, "trialdata": {"rt": -1000, "stimulus": "/static/audio/400Hz.wav", "key_press": -1, "type": "PRE_RECALL_ALERT", "trial_type": "single-audio", "trial_index": 210, "time_elapsed": 1119875, "internal_node_id": "0.0-156.0"}}, {"uniqueid": "MTK1060:3TK8OJTYM2SNXMQCTG2JWPB34XSPVV", "current_trial": 252, "dateTime": 1513023936057, "trialdata": {"rt": [3519, 6176, 11655, 14048, 19080, 21936, 24688, 28200, 36496], "recwords": ["blender", "matress", "airplane", "frame", "picnic", "picture", "island", "frame", "blender"], "type": "FREE_RECALL", "conditions": [24, 1600, "a", 12000], "trial": 5, "trial_type": "free-recall", "trial_index": 211, "time_elapsed": 1179917, "internal_node_id": "0.0-157.0-0.0"}}, {"uniqueid": "MTK1060:3TK8OJTYM2SNXMQCTG2JWPB34XSPVV", "current_trial": 253, "dateTime": 1513023984524, "trialdata": {"rt": 46461, "key_press": 68, "type": "INSTRUCTIONS", "trial_type": "text", "trial_index": 212, "time_elapsed": 1228425, "internal_node_id": "0.0-158.0"}}, {"uniqueid": "MTK1060:3TK8OJTYM2SNXMQCTG2JWPB34XSPVV", "current_trial": 254, "dateTime": 1513024010539, "trialdata": {"rt": [10867, 13139, 15483, 18076, 21396, 23644], "responses": ["13", "10", "17", "13", "13", "13"], "num1": [7, 3, 6, 3, 2, 6, 4], "num2": [3, 3, 4, 8, 4, 4, 5], "num3": [3, 4, 7, 2, 7, 3, 9], "type": "DISTRACTOR", "conditions": [12, 1600, "v", 24000], "trial": 6, "trial_type": "math-distractor", "trial_index": 213, "time_elapsed": 1254439, "internal_node_id": "0.0-159.0"}}, {"uniqueid": "MTK1060:3TK8OJTYM2SNXMQCTG2JWPB34XSPVV", "current_trial": 255, "dateTime": 1513024013580, "trialdata": {"rt": -1, "stimulus": "<p id=\"stim\">10</p>", "key_press": -1, "trial_type": "single-stim", "trial_index": 214, "time_elapsed": 1257481, "internal_node_id": "0.0-160.0-0.0"}}, {"uniqueid": "MTK1060:3TK8OJTYM2SNXMQCTG2JWPB34XSPVV", "current_trial": 256, "dateTime": 1513024014586, "trialdata": {"rt": -1, "stimulus": "<p id=\"stim\">9</p>", "key_press": -1, "trial_type": "single-stim", "trial_index": 215, "time_elapsed": 1258487, "internal_node_id": "0.0-160.0-1.0"}}, {"uniqueid": "MTK1060:3TK8OJTYM2SNXMQCTG2JWPB34XSPVV", "current_trial": 257, "dateTime": 1513024015589, "trialdata": {"rt": -1, "stimulus": "<p id=\"stim\">8</p>", "key_press": -1, "trial_type": "single-stim", "trial_index": 216, "time_elapsed": 1259490, "internal_node_id": "0.0-160.0-2.0"}}, {"uniqueid": "MTK1060:3TK8OJTYM2SNXMQCTG2JWPB34XSPVV", "current_trial": 258, "dateTime": 1513024016632, "trialdata": {"rt": -1, "stimulus": "<p id=\"stim\">7</p>", "key_press": -1, "trial_type": "single-stim", "trial_index": 217, "time_elapsed": 1260532, "internal_node_id": "0.0-160.0-3.0"}}, {"uniqueid": "MTK1060:3TK8OJTYM2SNXMQCTG2JWPB34XSPVV", "current_trial": 259, "dateTime": 1513024017635, "trialdata": {"rt": -1, "stimulus": "<p id=\"stim\">6</p>", "key_press": -1, "trial_type": "single-stim", "trial_index": 218, "time_elapsed": 1261535, "internal_node_id": "0.0-160.0-4.0"}}, {"uniqueid": "MTK1060:3TK8OJTYM2SNXMQCTG2JWPB34XSPVV", "current_trial": 260, "dateTime": 1513024018637, "trialdata": {"rt": -1, "stimulus": "<p id=\"stim\">5</p>", "key_press": -1, "trial_type": "single-stim", "trial_index": 219, "time_elapsed": 1262538, "internal_node_id": "0.0-160.0-5.0"}}, {"uniqueid": "MTK1060:3TK8OJTYM2SNXMQCTG2JWPB34XSPVV", "current_trial": 261, "dateTime": 1513024019640, "trialdata": {"rt": -1, "stimulus": "<p id=\"stim\">4</p>", "key_press": -1, "trial_type": "single-stim", "trial_index": 220, "time_elapsed": 1263541, "internal_node_id": "0.0-160.0-6.0"}}, {"uniqueid": "MTK1060:3TK8OJTYM2SNXMQCTG2JWPB34XSPVV", "current_trial": 262, "dateTime": 1513024020642, "trialdata": {"rt": -1, "stimulus": "<p id=\"stim\">3</p>", "key_press": -1, "trial_type": "single-stim", "trial_index": 221, "time_elapsed": 1264543, "internal_node_id": "0.0-160.0-7.0"}}, {"uniqueid": "MTK1060:3TK8OJTYM2SNXMQCTG2JWPB34XSPVV", "current_trial": 263, "dateTime": 1513024021644, "trialdata": {"rt": -1, "stimulus": "<p id=\"stim\">2</p>", "key_press": -1, "trial_type": "single-stim", "trial_index": 222, "time_elapsed": 1265544, "internal_node_id": "0.0-160.0-8.0"}}, {"uniqueid": "MTK1060:3TK8OJTYM2SNXMQCTG2JWPB34XSPVV", "current_trial": 264, "dateTime": 1513024022648, "trialdata": {"rt": -1, "stimulus": "<p id=\"stim\">1</p>", "key_press": -1, "trial_type": "single-stim", "trial_index": 223, "time_elapsed": 1266547, "internal_node_id": "0.0-160.0-9.0"}}, {"uniqueid": "MTK1060:3TK8OJTYM2SNXMQCTG2JWPB34XSPVV", "current_trial": 265, "dateTime": 1513024024161, "trialdata": {"rt": -1, "stimulus": "<p id=\"stim\">+</p>", "key_press": -1, "type": "FIXATION", "trial_type": "single-stim", "trial_index": 224, "time_elapsed": 1268062, "internal_node_id": "0.0-161.0-0.0"}}, {"uniqueid": "MTK1060:3TK8OJTYM2SNXMQCTG2JWPB34XSPVV", "current_trial": 266, "dateTime": 1513024025767, "trialdata": {"rt": -1, "stimulus": "<p id=\"stim\">POSTAGE</p>", "key_press": -1, "type": "PRES_VIS", "word": "postage", "wordID": 1112, "conditions": [12, 1600, "v", 24000], "trial": 6, "serialpos": 0, "trial_type": "single-stim", "trial_index": 225, "time_elapsed": 1269668, "internal_node_id": "0.0-162.0"}}, {"uniqueid": "MTK1060:3TK8OJTYM2SNXMQCTG2JWPB34XSPVV", "current_trial": 267, "dateTime": 1513024028505, "trialdata": {"rt": -1, "stimulus": "<p id=\"stim\">WIFE</p>", "key_press": -1, "type": "PRES_VIS", "word": "wife", "wordID": 1608, "conditions": [12, 1600, "v", 24000], "trial": 6, "serialpos": 1, "trial_type": "single-stim", "trial_index": 226, "time_elapsed": 1272405, "internal_node_id": "0.0-163.0"}}, {"uniqueid": "MTK1060:3TK8OJTYM2SNXMQCTG2JWPB34XSPVV", "current_trial": 268, "dateTime": 1513024030942, "trialdata": {"rt": -1, "stimulus": "<p id=\"stim\">MUSTARD</p>", "key_press": -1, "type": "PRES_VIS", "word": "mustard", "wordID": 934, "conditions": [12, 1600, "v", 24000], "trial": 6, "serialpos": 2, "trial_type": "single-stim", "trial_index": 227, "time_elapsed": 1274843, "internal_node_id": "0.0-164.0"}}, {"uniqueid": "MTK1060:3TK8OJTYM2SNXMQCTG2JWPB34XSPVV", "current_trial": 269, "dateTime": 1513024033543, "trialdata": {"rt": -1, "stimulus": "<p id=\"stim\">GUARD</p>", "key_press": -1, "type": "PRES_VIS", "word": "guard", "wordID": 666, "conditions": [12, 1600, "v", 24000], "trial": 6, "serialpos": 3, "trial_type": "single-stim", "trial_index": 228, "time_elapsed": 1277444, "internal_node_id": "0.0-165.0"}}, {"uniqueid": "MTK1060:3TK8OJTYM2SNXMQCTG2JWPB34XSPVV", "current_trial": 270, "dateTime": 1513024035982, "trialdata": {"rt": -1, "stimulus": "<p id=\"stim\">FOX</p>", "key_press": -1, "type": "PRES_VIS", "word": "fox", "wordID": 597, "conditions": [12, 1600, "v", 24000], "trial": 6, "serialpos": 4, "trial_type": "single-stim", "trial_index": 229, "time_elapsed": 1279883, "internal_node_id": "0.0-166.0"}}, {"uniqueid": "MTK1060:3TK8OJTYM2SNXMQCTG2JWPB34XSPVV", "current_trial": 271, "dateTime": 1513024038760, "trialdata": {"rt": -1, "stimulus": "<p id=\"stim\">COOK</p>", "key_press": -1, "type": "PRES_VIS", "word": "cook", "wordID": 371, "conditions": [12, 1600, "v", 24000], "trial": 6, "serialpos": 5, "trial_type": "single-stim", "trial_index": 230, "time_elapsed": 1282661, "internal_node_id": "0.0-167.0"}}, {"uniqueid": "MTK1060:3TK8OJTYM2SNXMQCTG2JWPB34XSPVV", "current_trial": 272, "dateTime": 1513024041359, "trialdata": {"rt": -1, "stimulus": "<p id=\"stim\">RADISH</p>", "key_press": -1, "type": "PRES_VIS", "word": "radish", "wordID": 1157, "conditions": [12, 1600, "v", 24000], "trial": 6, "serialpos": 6, "trial_type": "single-stim", "trial_index": 231, "time_elapsed": 1285260, "internal_node_id": "0.0-168.0"}}, {"uniqueid": "MTK1060:3TK8OJTYM2SNXMQCTG2JWPB34XSPVV", "current_trial": 273, "dateTime": 1513024043862, "trialdata": {"rt": -1, "stimulus": "<p id=\"stim\">WRIST</p>", "key_press": -1, "type": "PRES_VIS", "word": "wrist", "wordID": 1625, "conditions": [12, 1600, "v", 24000], "trial": 6, "serialpos": 7, "trial_type": "single-stim", "trial_index"