{"assignmentId": "3EKVH9QMEZB5BYPK0XRDUQX3YECD2E", "workerId": "MTK2339", "questiondata": {"avail_screen_height": 860, "color_depth": 24, "screen_width": 1600, "pixel_depth": 24, "avail_screen_width": 1600, "screen_height": 900}, "bonus": 0, "hitId": "3M67TQBQQHVGQR9DBUAOPS1R0L99AY", "counterbalance": 1872, "useragent": "Mozilla/5.0 (Windows NT 6.3; Win64; x64) AppleWebKit/537.36 (KHTML, like Gecko) Chrome/63.0.3239.132 Safari/537.36", "eventdata": [{"eventtype": "initialized", "interval": 0, "value": null, "timestamp": 1516989767127}, {"eventtype": "window_resize", "interval": 0, "value": [1588, 837], "timestamp": 1516989767127}, {"eventtype": "focus", "interval": 1286337, "value": "off", "timestamp": 1516991053464}, {"eventtype": "focus", "interval": 44504, "value": "on", "timestamp": 1516991097968}, {"eventtype": "focus", "interval": 83924, "value": "off", "timestamp": 1516991181892}, {"eventtype": "focus", "interval": 6683, "value": "on", "timestamp": 1516991188575}, {"eventtype": "focus", "interval": 316668, "value": "off", "timestamp": 1516991505243}, {"eventtype": "focus", "interval": 88, "value": "on", "timestamp": 1516991505331}, {"eventtype": "focus", "interval": 667509, "value": "off", "timestamp": 1516992172840}, {"eventtype": "focus", "interval": 18867, "value": "on", "timestamp": 1516992191707}, {"eventtype": "focus", "interval": 94482, "value": "off", "timestamp": 1516992286189}, {"eventtype": "focus", "interval": 9956, "value": "on", "timestamp": 1516992296145}, {"eventtype": "focus", "interval": 4303, "value": "off", "timestamp": 1516992300448}, {"eventtype": "focus", "interval": 8, "value": "on", "timestamp": 1516992300456}], "data": [{"current_trial": 0, "trialdata": {"rt": 2701, "trial_type": "text", "internal_node_id": "0.0-0.0", "time_elapsed": 2705, "key_press": 32, "type": "INSTRUCTIONS", "trial_index": 0}, "uniqueid": "MTK2339:3EKVH9QMEZB5BYPK0XRDUQX3YECD2E", "dateTime": 1516989820525}, {"current_trial": 1, "trialdata": {"rt": 5721, "trial_type": "text", "internal_node_id": "0.0-1.0", "time_elapsed": 8434, "key_press": 173, "type": "INSTRUCTIONS", "trial_index": 1}, "uniqueid": "MTK2339:3EKVH9QMEZB5BYPK0XRDUQX3YECD2E", "dateTime": 1516989826250}, {"current_trial": 2, "trialdata": {"rt": [8601], "trial_type": "audio-test", "responses": ["ocean"], "internal_node_id": "0.0-2.0", "time_elapsed": 17091, "type": "AUDIO_TEST", "trial_index": 2}, "uniqueid": "MTK2339:3EKVH9QMEZB5BYPK0XRDUQX3YECD2E", "dateTime": 1516989834907}, {"current_trial": 3, "trialdata": {"rt": [6548], "trial_type": "audio-test", "responses": ["crystal"], "internal_node_id": "0.0-3.0", "time_elapsed": 23652, "type": "AUDIO_TEST", "trial_index": 3}, "uniqueid": "MTK2339:3EKVH9QMEZB5BYPK0XRDUQX3YECD2E", "dateTime": 1516989841468}, {"current_trial": 4, "trialdata": {"rt": [5342], "trial_type": "audio-test", "responses": ["spice"], "internal_node_id": "0.0-4.0", "time_elapsed": 28998, "type": "AUDIO_TEST", "trial_index": 4}, "uniqueid": "MTK2339:3EKVH9QMEZB5BYPK0XRDUQX3YECD2E", "dateTime": 1516989846814}, {"current_trial": 5, "trialdata": {"rt": 23229, "trial_type": "survey-text", "responses": "{\"Q0\":\"9:00 pm \",\"Q1\":\"10:00 pm\",\"Q2\":\"5\"}", "internal_node_id": "0.0-5.0", "time_elapsed": 52987, "type": "SLEEP_SURVEY", "trial_index": 5}, "uniqueid": "MTK2339:3EKVH9QMEZB5BYPK0XRDUQX3YECD2E", "dateTime": 1516989870803}, {"current_trial": 6, "trialdata": {"rt": 25432, "trial_type": "text", "internal_node_id": "0.0-6.0", "time_elapsed": 79423, "key_press": 32, "type": "INSTRUCTIONS", "trial_index": 6}, "uniqueid": "MTK2339:3EKVH9QMEZB5BYPK0XRDUQX3YECD2E", "dateTime": 1516989897239}, {"current_trial": 7, "trialdata": {"rt": 17429, "trial_type": "text", "internal_node_id": "0.0-7.0", "time_elapsed": 97355, "key_press": 32, "type": "INSTRUCTIONS", "trial_index": 7}, "uniqueid": "MTK2339:3EKVH9QMEZB5BYPK0XRDUQX3YECD2E", "dateTime": 1516989915171}, {"current_trial": 8, "trialdata": {"rt": 9093, "trial_type": "text", "internal_node_id": "0.0-8.0", "time_elapsed": 106955, "key_press": 32, "type": "INSTRUCTIONS", "trial_index": 8}, "uniqueid": "MTK2339:3EKVH9QMEZB5BYPK0XRDUQX3YECD2E", "dateTime": 1516989924771}, {"current_trial": 9, "trialdata": {"rt": [6204, 10718, 13617], "trial_type": "math-distractor", "key_times": [5555, 5670, 6204, 8650, 8859, 8863, 9594, 9760, 10440, 10718, 12881, 12963, 13617, 17574, 17766], "responses": ["12", "18", "20"], "num2": [1, 7, 9, 1], "num3": [8, 7, 4, 6], "conditions": [18, 1200, "a", 18000], "internal_node_id": "0.0-9.0", "key_presses": [97, 98, 13, 97, 101, 104, 8, 8, 104, 13, 98, 96, 13, 97, 100], "trial": 0, "time_elapsed": 125975, "type": "DISTRACTOR", "trial_index": 9, "num1": [3, 4, 7, 7]}, "uniqueid": "MTK2339:3EKVH9QMEZB5BYPK0XRDUQX3YECD2E", "dateTime": 1516989943791}, {"current_trial": 10, "trialdata": {"rt": -1, "trial_type": "single-stim", "stimulus": "<p id=\"stim\">10</p>", "internal_node_id": "0.0-10.0-0.0", "time_elapsed": 128975, "key_press": -1, "trial_index": 10}, "uniqueid": "MTK2339:3EKVH9QMEZB5BYPK0XRDUQX3YECD2E", "dateTime": 1516989946791}, {"current_trial": 11, "trialdata": {"rt": -1, "trial_type": "single-stim", "stimulus": "<p id=\"stim\">9</p>", "internal_node_id": "0.0-10.0-1.0", "time_elapsed": 129982, "key_press": -1, "trial_index": 11}, "uniqueid": "MTK2339:3EKVH9QMEZB5BYPK0XRDUQX3YECD2E", "dateTime": 1516989947798}, {"current_trial": 12, "trialdata": {"rt": -1, "trial_type": "single-stim", "stimulus": "<p id=\"stim\">8</p>", "internal_node_id": "0.0-10.0-2.0", "time_elapsed": 130985, "key_press": -1, "trial_index": 12}, "uniqueid": "MTK2339:3EKVH9QMEZB5BYPK0XRDUQX3YECD2E", "dateTime": 1516989948801}, {"current_trial": 13, "trialdata": {"rt": -1, "trial_type": "single-stim", "stimulus": "<p id=\"stim\">7</p>", "internal_node_id": "0.0-10.0-3.0", "time_elapsed": 131985, "key_press": -1, "trial_index": 13}, "uniqueid": "MTK2339:3EKVH9QMEZB5BYPK0XRDUQX3YECD2E", "dateTime": 1516989949801}, {"current_trial": 14, "trialdata": {"rt": -1, "trial_type": "single-stim", "stimulus": "<p id=\"stim\">6</p>", "internal_node_id": "0.0-10.0-4.0", "time_elapsed": 132985, "key_press": -1, "trial_index": 14}, "uniqueid": "MTK2339:3EKVH9QMEZB5BYPK0XRDUQX3YECD2E", "dateTime": 1516989950801}, {"current_trial": 15, "trialdata": {"rt": -1, "trial_type": "single-stim", "stimulus": "<p id=\"stim\">5</p>", "internal_node_id": "0.0-10.0-5.0", "time_elapsed": 133985, "key_press": -1, "trial_index": 15}, "uniqueid": "MTK2339:3EKVH9QMEZB5BYPK0XRDUQX3YECD2E", "dateTime": 1516989951801}, {"current_trial": 16, "trialdata": {"rt": -1, "trial_type": "single-stim", "stimulus": "<p id=\"stim\">4</p>", "internal_node_id": "0.0-10.0-6.0", "time_elapsed": 134991, "key_press": -1, "trial_index": 16}, "uniqueid": "MTK2339:3EKVH9QMEZB5BYPK0XRDUQX3YECD2E", "dateTime": 1516989952807}, {"current_trial": 17, "trialdata": {"rt": -1, "trial_type": "single-stim", "stimulus": "<p id=\"stim\">3</p>", "internal_node_id": "0.0-10.0-7.0", "time_elapsed": 136011, "key_press": -1, "trial_index": 17}, "uniqueid": "MTK2339:3EKVH9QMEZB5BYPK0XRDUQX3YECD2E", "dateTime": 1516989953827}, {"current_trial": 18, "trialdata": {"rt": -1, "trial_type": "single-stim", "stimulus": "<p id=\"stim\">2</p>", "internal_node_id": "0.0-10.0-8.0", "time_elapsed": 137018, "key_press": -1, "trial_index": 18}, "uniqueid": "MTK2339:3EKVH9QMEZB5BYPK0XRDUQX3YECD2E", "dateTime": 1516989954834}, {"current_trial": 19, "trialdata": {"rt": -1, "trial_type": "single-stim", "stimulus": "<p id=\"stim\">1</p>", "internal_node_id": "0.0-10.0-9.0", "time_elapsed": 138021, "key_press": -1, "trial_index": 19}, "uniqueid": "MTK2339:3EKVH9QMEZB5BYPK0XRDUQX3YECD2E", "dateTime": 1516989955837}, {"current_trial": 20, "trialdata": {"rt": -1, "trial_type": "single-stim", "stimulus": "<p id=\"stim\">+</p>", "internal_node_id": "0.0-11.0-0.0", "time_elapsed": 139522, "key_press": -1, "type": "FIXATION", "trial_index": 20}, "uniqueid": "MTK2339:3EKVH9QMEZB5BYPK0XRDUQX3YECD2E", "dateTime": 1516989957338}, {"current_trial": 21, "trialdata": {"rt": -1000, "trial_type": "single-audio", "word": "farmer", "stimulus": "/static/audio/wordpool/FARMER.wav", "conditions": [18, 1200, "a", 18000], "internal_node_id": "0.0-12.0", "trial": 0, "time_elapsed": 141844, "serialpos": 0, "key_press": -1, "wordID": 552, "type": "PRES_AUD", "trial_index": 21}, "uniqueid": "MTK2339:3EKVH9QMEZB5BYPK0XRDUQX3YECD2E", "dateTime": 1516989959660}, {"current_trial": 22, "trialdata": {"rt": -1000, "trial_type": "single-audio", "word": "tractor", "stimulus": "/static/audio/wordpool/TRACTOR.wav", "conditions": [18, 1200, "a", 18000], "internal_node_id": "0.0-13.0", "trial": 0, "time_elapsed": 144248, "serialpos": 1, "key_press": -1, "wordID": 1492, "type": "PRES_AUD", "trial_index": 22}, "uniqueid": "MTK2339:3EKVH9QMEZB5BYPK0XRDUQX3YECD2E", "dateTime": 1516989962064}, {"current_trial": 23, "trialdata": {"rt": -1000, "trial_type": "single-audio", "word": "parrot", "stimulus": "/static/audio/wordpool/PARROT.wav", "conditions": [18, 1200, "a", 18000], "internal_node_id": "0.0-14.0", "trial": 0, "time_elapsed": 146415, "serialpos": 2, "key_press": -1, "wordID": 1014, "type": "PRES_AUD", "trial_index": 23}, "uniqueid": "MTK2339:3EKVH9QMEZB5BYPK0XRDUQX3YECD2E", "dateTime": 1516989964231}, {"current_trial": 24, "trialdata": {"rt": -1000, "trial_type": "single-audio", "word": "jelly", "stimulus": "/static/audio/wordpool/JELLY.wav", "conditions": [18, 1200, "a", 18000], "internal_node_id": "0.0-15.0", "trial": 0, "time_elapsed": 148440, "serialpos": 3, "key_press": -1, "wordID": 754, "type": "PRES_AUD", "trial_index": 24}, "uniqueid": "MTK2339:3EKVH9QMEZB5BYPK0XRDUQX3YECD2E", "dateTime": 1516989966256}, {"current_trial": 25, "trialdata": {"rt": -1000, "trial_type": "single-audio", "word": "gift", "stimulus": "/static/audio/wordpool/GIFT.wav", "conditions": [18, 1200, "a", 18000], "internal_node_id": "0.0-16.0", "trial": 0, "time_elapsed": 150559, "serialpos": 4, "key_press": -1, "wordID": 634, "type": "PRES_AUD", "trial_index": 25}, "uniqueid": "MTK2339:3EKVH9QMEZB5BYPK0XRDUQX3YECD2E", "dateTime": 1516989968375}, {"current_trial": 26, "trialdata": {"rt": -1000, "trial_type": "single-audio", "word": "suspect", "stimulus": "/static/audio/wordpool/SUSPECT.wav", "conditions": [18, 1200, "a", 18000], "internal_node_id": "0.0-17.0", "trial": 0, "time_elapsed": 152649, "serialpos": 5, "key_press": -1, "wordID": 1414, "type": "PRES_AUD", "trial_index": 26}, "uniqueid": "MTK2339:3EKVH9QMEZB5BYPK0XRDUQX3YECD2E", "dateTime": 1516989970465}, {"current_trial": 27, "trialdata": {"rt": -1000, "trial_type": "single-audio", "word": "brick", "stimulus": "/static/audio/wordpool/BRICK.wav", "conditions": [18, 1200, "a", 18000], "internal_node_id": "0.0-18.0", "trial": 0, "time_elapsed": 155020, "serialpos": 6, "key_press": -1, "wordID": 171, "type": "PRES_AUD", "trial_index": 27}, "uniqueid": "MTK2339:3EKVH9QMEZB5BYPK0XRDUQX3YECD2E", "dateTime": 1516989972836}, {"current_trial": 28, "trialdata": {"rt": -1000, "trial_type": "single-audio", "word": "spool", "stimulus": "/static/audio/wordpool/SPOOL.wav", "conditions": [18, 1200, "a", 18000], "internal_node_id": "0.0-19.0", "trial": 0, "time_elapsed": 157366, "serialpos": 7, "key_press": -1, "wordID": 1355, "type": "PRES_AUD", "trial_index": 28}, "uniqueid": "MTK2339:3EKVH9QMEZB5BYPK0XRDUQX3YECD2E", "dateTime": 1516989975182}, {"current_trial": 29, "trialdata": {"rt": -1000, "trial_type": "single-audio", "word": "driver", "stimulus": "/static/audio/wordpool/DRIVER.wav", "conditions": [18, 1200, "a", 18000], "internal_node_id": "0.0-20.0", "trial": 0, "time_elapsed": 159484, "serialpos": 8, "key_press": -1, "wordID": 498, "type": "PRES_AUD", "trial_index": 29}, "uniqueid": "MTK2339:3EKVH9QMEZB5BYPK0XRDUQX3YECD2E", "dateTime": 1516989977300}, {"current_trial": 30, "trialdata": {"rt": -1000, "trial_type": "single-audio", "word": "daisy", "stimulus": "/static/audio/wordpool/DAISY.wav", "conditions": [18, 1200, "a", 18000], "internal_node_id": "0.0-21.0", "trial": 0, "time_elapsed": 161747, "serialpos": 9, "key_press": -1, "wordID": 434, "type": "PRES_AUD", "trial_index": 30}, "uniqueid": "MTK2339:3EKVH9QMEZB5BYPK0XRDUQX3YECD2E", "dateTime": 1516989979563}, {"current_trial": 31, "trialdata": {"rt": -1000, "trial_type": "single-audio", "word": "skirt", "stimulus": "/static/audio/wordpool/SKIRT.wav", "conditions": [18, 1200, "a", 18000], "internal_node_id": "0.0-22.0", "trial": 0, "time_elapsed": 164036, "serialpos": 10, "key_press": -1, "wordID": 1318, "type": "PRES_AUD", "trial_index": 31}, "uniqueid": "MTK2339:3EKVH9QMEZB5BYPK0XRDUQX3YECD2E", "dateTime": 1516989981852}, {"current_trial": 32, "trialdata": {"rt": -1000, "trial_type": "single-audio", "word": "window", "stimulus": "/static/audio/wordpool/WINDOW.wav", "conditions": [18, 1200, "a", 18000], "internal_node_id": "0.0-23.0", "trial": 0, "time_elapsed": 166239, "serialpos": 11, "key_press": -1, "wordID": 1610, "type": "PRES_AUD", "trial_index": 32}, "uniqueid": "MTK2339:3EKVH9QMEZB5BYPK0XRDUQX3YECD2E", "dateTime": 1516989984055}, {"current_trial": 33, "trialdata": {"rt": -1000, "trial_type": "single-audio", "word": "chapel", "stimulus": "/static/audio/wordpool/CHAPEL.wav", "conditions": [18, 1200, "a", 18000], "internal_node_id": "0.0-24.0", "trial": 0, "time_elapsed": 168605, "serialpos": 12, "key_press": -1, "wordID": 279, "type": "PRES_AUD", "trial_index": 33}, "uniqueid": "MTK2339:3EKVH9QMEZB5BYPK0XRDUQX3YECD2E", "dateTime": 1516989986421}, {"current_trial": 34, "trialdata": {"rt": -1000, "trial_type": "single-audio", "word": "shark", "stimulus": "/static/audio/wordpool/SHARK.wav", "conditions": [18, 1200, "a", 18000], "internal_node_id": "0.0-25.0", "trial": 0, "time_elapsed": 170670, "serialpos": 13, "key_press": -1, "wordID": 1274, "type": "PRES_AUD", "trial_index": 34}, "uniqueid": "MTK2339:3EKVH9QMEZB5BYPK0XRDUQX3YECD2E", "dateTime": 1516989988486}, {"current_trial": 35, "trialdata": {"rt": -1000, "trial_type": "single-audio", "word": "mattress", "stimulus": "/static/audio/wordpool/MATTRESS.wav", "conditions": [18, 1200, "a", 18000], "internal_node_id": "0.0-26.0", "trial": 0, "time_elapsed": 172900, "serialpos": 14, "key_press": -1, "wordID": 878, "type": "PRES_AUD", "trial_index": 35}, "uniqueid": "MTK2339:3EKVH9QMEZB5BYPK0XRDUQX3YECD2E", "dateTime": 1516989990716}, {"current_trial": 36, "trialdata": {"rt": -1000, "trial_type": "single-audio", "word": "sister", "stimulus": "/static/audio/wordpool/SISTER.wav", "conditions": [18, 1200, "a", 18000], "internal_node_id": "0.0-27.0", "trial": 0, "time_elapsed": 175004, "serialpos": 15, "key_press": -1, "wordID": 1311, "type": "PRES_AUD", "trial_index": 36}, "uniqueid": "MTK2339:3EKVH9QMEZB5BYPK0XRDUQX3YECD2E", "dateTime": 1516989992820}, {"current_trial": 37, "trialdata": {"rt": -1000, "trial_type": "single-audio", "word": "grill", "stimulus": "/static/audio/wordpool/GRILL.wav", "conditions": [18, 1200, "a", 18000], "internal_node_id": "0.0-28.0", "trial": 0, "time_elapsed": 177028, "serialpos": 16, "key_press": -1, "wordID": 660, "type": "PRES_AUD", "trial_index": 37}, "uniqueid": "MTK2339:3EKVH9QMEZB5BYPK0XRDUQX3YECD2E", "dateTime": 1516989994844}, {"current_trial": 38, "trialdata": {"rt": -1000, "trial_type": "single-audio", "word": "paddle", "stimulus": "/static/audio/wordpool/PADDLE.wav", "conditions": [18, 1200, "a", 18000], "internal_node_id": "0.0-29.0", "trial": 0, "time_elapsed": 179342, "serialpos": 17, "key_press": -1, "wordID": 999, "type": "PRES_AUD", "trial_index": 38}, "uniqueid": "MTK2339:3EKVH9QMEZB5BYPK0XRDUQX3YECD2E", "dateTime": 1516989997158}, {"current_trial": 39, "trialdata": {"rt": -1, "trial_type": "single-stim", "stimulus": "", "internal_node_id": "0.0-30.0-0.0", "time_elapsed": 180628, "key_press": -1, "type": "PRE_RECALL_DELAY", "trial_index": 39}, "uniqueid": "MTK2339:3EKVH9QMEZB5BYPK0XRDUQX3YECD2E", "dateTime": 1516989998444}, {"current_trial": 40, "trialdata": {"rt": -1000, "trial_type": "single-audio", "stimulus": "/static/audio/400Hz.wav", "internal_node_id": "0.0-31.0", "time_elapsed": 181143, "key_press": -1, "type": "PRE_RECALL_ALERT", "trial_index": 40}, "uniqueid": "MTK2339:3EKVH9QMEZB5BYPK0XRDUQX3YECD2E", "dateTime": 1516989998959}, {"current_trial": 41, "trialdata": {"rt": [2184, 4505, 6276, 8408, 11089, 14444, 22756, 24993, 28385, 33729, 35171], "recwords": ["farmer", "tractor", "parrot", "jelly", "gift", "suspect", "windmill", "shark", "driver", "ocean", "water"], "key_times": [1144, 1355, 1617, 1775, 1846, 2007, 2184, 2827, 3005, 3269, 3440, 4046, 4196, 4315, 4505, 5342, 5467, 5701, 5842, 5941, 6088, 6276, 7223, 7410, 7557, 7726, 7952, 8408, 9717, 9890, 10461, 10672, 11089, 11669, 11872, 12039, 12224, 12368, 12741, 13094, 13459, 13900, 14444, 21098, 21228, 21413, 21696, 22000, 22189, 22395, 22555, 22756, 24095, 24232, 24356, 24613, 24678, 24993, 27411, 27633, 27740, 27892, 27975, 28175, 28385, 31881, 32060, 32200, 32453, 32593, 33729, 34284, 34475, 34750, 34879, 35042, 35171, 50775, 51719], "trial_type": "free-recall", "conditions": [18, 1200, "a", 18000], "internal_node_id": "0.0-32.0-0.0", "key_presses": [70, 65, 82, 77, 69, 82, 13, 84, 82, 65, 67, 84, 79, 82, 13, 80, 65, 82, 82, 79, 84, 13, 74, 69, 76, 76, 89, 13, 71, 73, 70, 84, 13, 83, 85, 83, 80, 69, 67, 84, 222, 8, 13, 87, 73, 78, 68, 77, 73, 76, 76, 13, 83, 72, 65, 82, 75, 13, 68, 82, 73, 86, 69, 82, 13, 79, 67, 69, 65, 78, 13, 87, 65, 84, 69, 82, 13, 84, 8], "trial": 0, "time_elapsed": 241152, "type": "FREE_RECALL", "trial_index": 41}, "uniqueid": "MTK2339:3EKVH9QMEZB5BYPK0XRDUQX3YECD2E", "dateTime": 1516990058980}, {"current_trial": 42, "trialdata": {"rt": 1554, "trial_type": "text", "internal_node_id": "0.0-33.0", "time_elapsed": 244718, "key_press": 32, "type": "INSTRUCTIONS", "trial_index": 42}, "uniqueid": "MTK2339:3EKVH9QMEZB5BYPK0XRDUQX3YECD2E", "dateTime": 1516990062538}, {"current_trial": 43, "trialdata": {"rt": [4140, 6592, 9216, 13369], "trial_type": "math-distractor", "key_times": [3132, 3608, 4140, 5970, 6108, 6592, 8829, 8976, 9216, 12899, 13102, 13369], "responses": ["16", "13", "11", "14"], "num2": [8, 4, 3, 9, 6], "num3": [4, 1, 3, 1, 9], "conditions": [18, 1200, "a", 18000], "internal_node_id": "0.0-34.0", "key_presses": [97, 102, 13, 97, 99, 13, 97, 97, 13, 97, 100, 13], "trial": 1, "time_elapsed": 264733, "type": "DISTRACTOR", "trial_index": 43, "num1": [4, 8, 5, 4, 8]}, "uniqueid": "MTK2339:3EKVH9QMEZB5BYPK0XRDUQX3YECD2E", "dateTime": 1516990082549}, {"current_trial": 44, "trialdata": {"rt": -1, "trial_type": "single-stim", "stimulus": "<p id=\"stim\">10</p>", "internal_node_id": "0.0-35.0-0.0", "time_elapsed": 267739, "key_press": -1, "trial_index": 44}, "uniqueid": "MTK2339:3EKVH9QMEZB5BYPK0XRDUQX3YECD2E", "dateTime": 1516990085555}, {"current_trial": 45, "trialdata": {"rt": -1, "trial_type": "single-stim", "stimulus": "<p id=\"stim\">9</p>", "internal_node_id": "0.0-35.0-1.0", "time_elapsed": 268740, "key_press": -1, "trial_index": 45}, "uniqueid": "MTK2339:3EKVH9QMEZB5BYPK0XRDUQX3YECD2E", "dateTime": 1516990086556}, {"current_trial": 46, "trialdata": {"rt": -1, "trial_type": "single-stim", "stimulus": "<p id=\"stim\">8</p>", "internal_node_id": "0.0-35.0-2.0", "time_elapsed": 269740, "key_press": -1, "trial_index": 46}, "uniqueid": "MTK2339:3EKVH9QMEZB5BYPK0XRDUQX3YECD2E", "dateTime": 1516990087556}, {"current_trial": 47, "trialdata": {"rt": -1, "trial_type": "single-stim", "stimulus": "<p id=\"stim\">7</p>", "internal_node_id": "0.0-35.0-3.0", "time_elapsed": 270742, "key_press": -1, "trial_index": 47}, "uniqueid": "MTK2339:3EKVH9QMEZB5BYPK0XRDUQX3YECD2E", "dateTime": 1516990088558}, {"current_trial": 48, "trialdata": {"rt": -1, "trial_type": "single-stim", "stimulus": "<p id=\"stim\">6</p>", "internal_node_id": "0.0-35.0-4.0", "time_elapsed": 271745, "key_press": -1, "trial_index": 48}, "uniqueid": "MTK2339:3EKVH9QMEZB5BYPK0XRDUQX3YECD2E", "dateTime": 1516990089561}, {"current_trial": 49, "trialdata": {"rt": -1, "trial_type": "single-stim", "stimulus": "<p id=\"stim\">5</p>", "internal_node_id": "0.0-35.0-5.0", "time_elapsed": 272745, "key_press": -1, "trial_index": 49}, "uniqueid": "MTK2339:3EKVH9QMEZB5BYPK0XRDUQX3YECD2E", "dateTime": 1516990090561}, {"current_trial": 50, "trialdata": {"rt": -1, "trial_type": "single-stim", "stimulus": "<p id=\"stim\">4</p>", "internal_node_id": "0.0-35.0-6.0", "time_elapsed": 273749, "key_press": -1, "trial_index": 50}, "uniqueid": "MTK2339:3EKVH9QMEZB5BYPK0XRDUQX3YECD2E", "dateTime": 1516990091565}, {"current_trial": 51, "trialdata": {"rt": -1, "trial_type": "single-stim", "stimulus": "<p id=\"stim\">3</p>", "internal_node_id": "0.0-35.0-7.0", "time_elapsed": 274750, "key_press": -1, "trial_index": 51}, "uniqueid": "MTK2339:3EKVH9QMEZB5BYPK0XRDUQX3YECD2E", "dateTime": 1516990092566}, {"current_trial": 52, "trialdata": {"rt": -1, "trial_type": "single-stim", "stimulus": "<p id=\"stim\">2</p>", "internal_node_id": "0.0-35.0-8.0", "time_elapsed": 275751, "key_press": -1, "trial_index": 52}, "uniqueid": "MTK2339:3EKVH9QMEZB5BYPK0XRDUQX3YECD2E", "dateTime": 1516990093567}, {"current_trial": 53, "trialdata": {"rt": -1, "trial_type": "single-stim", "stimulus": "<p id=\"stim\">1</p>", "internal_node_id": "0.0-35.0-9.0", "time_elapsed": 276754, "key_press": -1, "trial_index": 53}, "uniqueid": "MTK2339:3EKVH9QMEZB5BYPK0XRDUQX3YECD2E", "dateTime": 1516990094570}, {"current_trial": 54, "trialdata": {"rt": -1, "trial_type": "single-stim", "stimulus": "<p id=\"stim\">+</p>", "internal_node_id": "0.0-36.0-0.0", "time_elapsed": 278254, "key_press": -1, "type": "FIXATION", "trial_index": 54}, "uniqueid": "MTK2339:3EKVH9QMEZB5BYPK0XRDUQX3YECD2E", "dateTime": 1516990096070}, {"current_trial": 55, "trialdata": {"rt": -1000, "trial_type": "single-audio", "word": "flower", "stimulus": "/static/audio/wordpool/FLOWER.wav", "conditions": [18, 1200, "a", 18000], "internal_node_id": "0.0-37.0", "trial": 1, "time_elapsed": 280622, "serialpos": 0, "key_press": -1, "wordID": 583, "type": "PRES_AUD", "trial_index": 55}, "uniqueid": "MTK2339:3EKVH9QMEZB5BYPK0XRDUQX3YECD2E", "dateTime": 1516990098438}, {"current_trial": 56, "trialdata": {"rt": -1000, "trial_type": "single-audio", "word": "zebra", "stimulus": "/static/audio/wordpool/ZEBRA.wav", "conditions": [18, 1200, "a", 18000], "internal_node_id": "0.0-38.0", "trial": 1, "time_elapsed": 282788, "serialpos": 1, "key_press": -1, "wordID": 1634, "type": "PRES_AUD", "trial_index": 56}, "uniqueid": "MTK2339:3EKVH9QMEZB5BYPK0XRDUQX3YECD2E", "dateTime": 1516990100604}, {"current_trial": 57, "trialdata": {"rt": -1000, "trial_type": "single-audio", "word": "pluto", "stimulus": "/static/audio/wordpool/PLUTO.wav", "conditions": [18, 1200, "a", 18000], "internal_node_id": "0.0-39.0", "trial": 1, "time_elapsed": 284865, "serialpos": 2, "key_press": -1, "wordID": 1091, "type": "PRES_AUD", "trial_index": 57}, "uniqueid": "MTK2339:3EKVH9QMEZB5BYPK0XRDUQX3YECD2E", "dateTime": 1516990102681}, {"current_trial": 58, "trialdata": {"rt": -1000, "trial_type": "single-audio", "word": "branch", "stimulus": "/static/audio/wordpool/BRANCH.wav", "conditions": [18, 1200, "a", 18000], "internal_node_id": "0.0-40.0", "trial": 1, "time_elapsed": 287258, "serialpos": 3, "key_press": -1, "wordID": 167, "type": "PRES_AUD", "trial_index": 58}, "uniqueid": "MTK2339:3EKVH9QMEZB5BYPK0XRDUQX3YECD2E", "dateTime": 1516990105074}, {"current_trial": 59, "trialdata": {"rt": -1000, "trial_type": "single-audio", "word": "robber", "stimulus": "/static/audio/wordpool/ROBBER.wav", "conditions": [18, 1200, "a", 18000], "internal_node_id": "0.0-41.0", "trial": 1, "time_elapsed": 289315, "serialpos": 4, "key_press": -1, "wordID": 1196, "type": "PRES_AUD", "trial_index": 59}, "uniqueid": "MTK2339:3EKVH9QMEZB5BYPK0XRDUQX3YECD2E", "dateTime": 1516990107131}, {"current_trial": 60, "trialdata": {"rt": -1000, "trial_type": "single-audio", "word": "tourist", "stimulus": "/static/audio/wordpool/TOURIST.wav", "conditions": [18, 1200, "a", 18000], "internal_node_id": "0.0-42.0", "trial": 1, "time_elapsed": 291587, "serialpos": 5, "key_press": -1, "wordID": 1487, "type": "PRES_AUD", "trial_index": 60}, "uniqueid": "MTK2339:3EKVH9QMEZB5BYPK0XRDUQX3YECD2E", "dateTime": 1516990109403}, {"current_trial": 61, "trialdata": {"rt": -1000, "trial_type": "single-audio", "word": "blueprint", "stimulus": "/static/audio/wordpool/BLUEPRINT.wav", "conditions": [18, 1200, "a", 18000], "internal_node_id": "0.0-43.0", "trial": 1, "time_elapsed": 293884, "serialpos": 6, "key_press": -1, "wordID": 141, "type": "PRES_AUD", "trial_index": 61}, "uniqueid": "MTK2339:3EKVH9QMEZB5BYPK0XRDUQX3YECD2E", "dateTime": 1516990111700}, {"current_trial": 62, "trialdata": {"rt": -1000, "trial_type": "single-audio", "word": "servant", "stimulus": "/static/audio/wordpool/SERVANT.wav", "conditions": [18, 1200, "a", 18000], "internal_node_id": "0.0-44.0", "trial": 1, "time_elapsed": 296114, "serialpos": 7, "key_press": -1, "wordID": 1270, "type": "PRES_AUD", "trial_index": 62}, "uniqueid": "MTK2339:3EKVH9QMEZB5BYPK0XRDUQX3YECD2E", "dateTime": 1516990113930}, {"current_trial": 63, "trialdata": {"rt": -1000, "trial_type": "single-audio", "word": "husband", "stimulus": "/static/audio/wordpool/HUSBAND.wav", "conditions": [18, 1200, "a", 18000], "internal_node_id": "0.0-45.0", "trial": 1, "time_elapsed": 298211, "serialpos": 8, "key_press": -1, "wordID": 727, "type": "PRES_AUD", "trial_index": 63}, "uniqueid": "MTK2339:3EKVH9QMEZB5BYPK0XRDUQX3YECD2E", "dateTime": 1516990116027}, {"current_trial": 64, "trialdata": {"rt": -1000, "trial_type": "single-audio", "word": "lumber", "stimulus": "/static/audio/wordpool/LUMBER.wav", "conditions": [18, 1200, "a", 18000], "internal_node_id": "0.0-46.0", "trial": 1, "time_elapsed": 300571, "serialpos": 9, "key_press": -1, "wordID": 847, "type": "PRES_AUD", "trial_index": 64}, "uniqueid": "MTK2339:3EKVH9QMEZB5BYPK0XRDUQX3YECD2E", "dateTime": 1516990118387}, {"current_trial": 65, "trialdata": {"rt": -1000, "trial_type": "single-audio", "word": "package", "stimulus": "/static/audio/wordpool/PACKAGE.wav", "conditions": [18, 1200, "a", 18000], "internal_node_id": "0.0-47.0", "trial": 1, "time_elapsed": 302927, "serialpos": 10, "key_press": -1, "wordID": 996, "type": "PRES_AUD", "trial_index": 65}, "uniqueid": "MTK2339:3EKVH9QMEZB5BYPK0XRDUQX3YECD2E", "dateTime": 1516990120743}, {"current_trial": 66, "trialdata": {"rt": -1000, "trial_type": "single-audio", "word": "woman", "stimulus": "/static/audio/wordpool/WOMAN.wav", "conditions": [18, 1200, "a", 18000], "internal_node_id": "0.0-48.0", "trial": 1, "time_elapsed": 305199, "serialpos": 11, "key_press": -1, "wordID": 1619, "type": "PRES_AUD", "trial_index": 66}, "uniqueid": "MTK2339:3EKVH9QMEZB5BYPK0XRDUQX3YECD2E", "dateTime": 1516990123015}, {"current_trial": 67, "trialdata": {"rt": -1000, "trial_type": "single-audio", "word": "typist", "stimulus": "/static/audio/wordpool/TYPIST.wav", "conditions": [18, 1200, "a", 18000], "internal_node_id": "0.0-49.0", "trial": 1, "time_elapsed": 307371, "serialpos": 12, "key_press": -1, "wordID": 1531, "type": "PRES_AUD", "trial_index": 67}, "uniqueid": "MTK2339:3EKVH9QMEZB5BYPK0XRDUQX3YECD2E", "dateTime": 1516990125187}, {"current_trial": 68, "trialdata": {"rt": -1000, "trial_type": "single-audio", "word": "tortoise", "stimulus": "/static/audio/wordpool/TORTOISE.wav", "conditions": [18, 1200, "a", 18000], "internal_node_id": "0.0-50.0", "trial": 1, "time_elapsed": 309695, "serialpos": 13, "key_press": -1, "wordID": 1485, "type": "PRES_AUD", "trial_index": 68}, "uniqueid": "MTK2339:3EKVH9QMEZB5BYPK0XRDUQX3YECD2E", "dateTime": 1516990127589}, {"current_trial": 69, "trialdata": {"rt": -1000, "trial_type": "single-audio", "word": "onion", "stimulus": "/static/audio/wordpool/ONION.wav", "conditions": [18, 1200, "a", 18000], "internal_node_id": "0.0-51.0", "trial": 1, "time_elapsed": 311868, "serialpos": 14, "key_press": -1, "wordID": 976, "type": "PRES_AUD", "trial_index": 69}, "uniqueid": "MTK2339:3EKVH9QMEZB5BYPK0XRDUQX3YECD2E", "dateTime": 1516990129684}, {"current_trial": 70, "trialdata": {"rt": -1000, "trial_type": "single-audio", "word": "glove", "stimulus": "/static/audio/wordpool/GLOVE.wav", "conditions": [18, 1200, "a", 18000], "internal_node_id": "0.0-52.0", "trial": 1, "time_elapsed": 314162, "serialpos": 15, "key_press": -1, "wordID": 641, "type": "PRES_AUD", "trial_index": 70}, "uniqueid": "MTK2339:3EKVH9QMEZB5BYPK0XRDUQX3YECD2E", "dateTime": 1516990131978}, {"current_trial": 71, "trialdata": {"rt": -1000, "trial_type": "single-audio", "word": "country", "stimulus": "/static/audio/wordpool/COUNTRY.wav", "conditions": [18, 1200, "a", 18000], "internal_node_id": "0.0-53.0", "trial": 1, "time_elapsed": 316451, "serialpos": 16, "key_press": -1, "wordID": 387, "type": "PRES_AUD", "trial_index": 71}, "uniqueid": "MTK2339:3EKVH9QMEZB5BYPK0XRDUQX3YECD2E", "dateTime": 1516990134267}, {"current_trial": 72, "trialdata": {"rt": -1000, "trial_type": "single-audio", "word": "witness", "stimulus": "/static/audio/wordpool/WITNESS.wav", "conditions": [18, 1200, "a", 18000], "internal_node_id": "0.0-54.0", "trial": 1, "time_elapsed": 318686, "serialpos": 17, "key_press": -1, "wordID": 1617, "type": "PRES_AUD", "trial_index": 72}, "uniqueid": "MTK2339:3EKVH9QMEZB5BYPK0XRDUQX3YECD2E", "dateTime": 1516990136502}, {"current_trial": 73, "trialdata": {"rt": -1, "trial_type": "single-stim", "stimulus": "", "internal_node_id": "0.0-55.0-0.0", "time_elapsed": 319959, "key_press": -1, "type": "PRE_RECALL_DELAY", "trial_index": 73}, "uniqueid": "MTK2339:3EKVH9QMEZB5BYPK0XRDUQX3YECD2E", "dateTime": 1516990137775}, {"current_trial": 74, "trialdata": {"rt": -1000, "trial_type": "single-audio", "stimulus": "/static/audio/400Hz.wav", "internal_node_id": "0.0-56.0", "time_elapsed": 320461, "key_press": -1, "type": "PRE_RECALL_ALERT", "trial_index": 74}, "uniqueid": "MTK2339:3EKVH9QMEZB5BYPK0XRDUQX3YECD2E", "dateTime": 1516990138277}, {"current_trial": 75, "trialdata": {"rt": [5013, 7137, 9016, 10590, 12594, 14620, 18297, 37984], "recwords": ["husband", "client", "package", "woman", "glove", "country", "tortoise", "glove"], "key_times": [2945, 3074, 3421, 3627, 4403, 4582, 4701, 5013, 6343, 6453, 6629, 6721, 6821, 6961, 7137, 7737, 7870, 8043, 8183, 8287, 8590, 8781, 9016, 9516, 9641, 9817, 9910, 10031, 10590, 11836, 11956, 12152, 12266, 12355, 12594, 13376, 13515, 13725, 13910, 13998, 14102, 14312, 14620, 17062, 17233, 17409, 17582, 17702, 17847, 17943, 18146, 18297, 37236, 37380, 37566, 37662, 37765, 37984], "trial_type": "free-recall", "conditions": [18, 1200, "a", 18000], "internal_node_id": "0.0-57.0-0.0", "key_presses": [72, 85, 83, 66, 65, 78, 68, 13, 67, 76, 73, 69, 78, 84, 13, 80, 65, 67, 75, 65, 71, 69, 13, 87, 79, 77, 65, 78, 13, 71, 76, 79, 86, 69, 13, 67, 79, 85, 78, 84, 82, 89, 13, 84, 79, 82, 84, 79, 73, 83, 69, 13, 71, 76, 79, 86, 69, 13], "trial": 1, "time_elapsed": 380467, "type": "FREE_RECALL", "trial_index": 75}, "uniqueid": "MTK2339:3EKVH9QMEZB5BYPK0XRDUQX3YECD2E", "dateTime": 1516990198290}, {"current_trial": 76, "trialdata": {"rt": 11549, "trial_type": "text", "internal_node_id": "0.0-58.0", "time_elapsed": 394031, "key_press": 32, "type": "INSTRUCTIONS", "trial_index": 76}, "uniqueid": "MTK2339:3EKVH9QMEZB5BYPK0XRDUQX3YECD2E", "dateTime": 1516990211847}, {"current_trial": 77, "trialdata": {"rt": [3740, 6576, 9095], "trial_type": "math-distractor", "key_times": [3224, 3336, 3740, 6200, 6344, 6576, 8745, 9095], "responses": ["15", "11", "9"], "num2": [1, 6, 1, 9], "num3": [8, 2, 6, 9], "conditions": [24, 1600, "a", 12000], "internal_node_id": "0.0-59.0", "key_presses": [97, 101, 13, 97, 97, 13, 105, 13], "trial": 2, "time_elapsed": 407038, "type": "DISTRACTOR", "trial_index": 77, "num1": [6, 3, 2, 7]}, "uniqueid": "MTK2339:3EKVH9QMEZB5BYPK0XRDUQX3YECD2E", "dateTime": 1516990224854}, {"current_trial": 78, "trialdata": {"rt": -1, "trial_type": "single-stim", "stimulus": "<p id=\"stim\">10</p>", "internal_node_id": "0.0-60.0-0.0", "time_elapsed": 410044, "key_press": -1, "trial_index": 78}, "uniqueid": "MTK2339:3EKVH9QMEZB5BYPK0XRDUQX3YECD2E", "dateTime": 1516990227860}, {"current_trial": 79, "trialdata": {"rt": -1, "trial_type": "single-stim", "stimulus": "<p id=\"stim\">9</p>", "internal_node_id": "0.0-60.0-1.0", "time_elapsed": 411047, "key_press": -1, "trial_index": 79}, "uniqueid": "MTK2339:3EKVH9QMEZB5BYPK0XRDUQX3YECD2E", "dateTime": 1516990228863}, {"current_trial": 80, "trialdata": {"rt": -1, "trial_type": "single-stim", "stimulus": "<p id=\"stim\">8</p>", "internal_node_id": "0.0-60.0-2.0", "time_elapsed": 412047, "key_press": -1, "trial_index": 80}, "uniqueid": "MTK2339:3EKVH9QMEZB5BYPK0XRDUQX3YECD2E", "dateTime": 1516990229863}, {"current_trial": 81, "trialdata": {"rt": -1, "trial_type": "single-stim", "stimulus": "<p id=\"stim\">7</p>", "internal_node_id": "0.0-60.0-3.0", "time_elapsed": 413047, "key_press": -1, "trial_index": 81}, "uniqueid": "MTK2339:3EKVH9QMEZB5BYPK0XRDUQX3YECD2E", "dateTime": 1516990230863}, {"current_trial": 82, "trialdata": {"rt": -1, "trial_type": "single-stim", "stimulus": "<p id=\"stim\">6</p>", "internal_node_id": "0.0-60.0-4.0", "time_elapsed": 414047, "key_press": -1, "trial_index": 82}, "uniqueid": "MTK2339:3EKVH9QMEZB5BYPK0XRDUQX3YECD2E", "dateTime": 1516990231863}, {"current_trial": 83, "trialdata": {"rt": -1, "trial_type": "single-stim", "stimulus": "<p id=\"stim\">5</p>", "internal_node_id": "0.0-60.0-5.0", "time_elapsed": 415055, "key_press": -1, "trial_index": 83}, "uniqueid": "MTK2339:3EKVH9QMEZB5BYPK0XRDUQX3YECD2E", "dateTime": 1516990232871}, {"current_trial": 84, "trialdata": {"rt": -1, "trial_type": "single-stim", "stimulus": "<p id=\"stim\">4</p>", "internal_node_id": "0.0-60.0-6.0", "time_elapsed": 416058, "key_press": -1, "trial_index": 84}, "uniqueid": "MTK2339:3EKVH9QMEZB5BYPK0XRDUQX3YECD2E", "dateTime": 1516990233874}, {"current_trial": 85, "trialdata": {"rt": -1, "trial_type": "single-stim", "stimulus": "<p id=\"stim\">3</p>", "internal_node_id": "0.0-60.0-7.0", "time_elapsed": 417059, "key_press": -1, "trial_index": 85}, "uniqueid": "MTK2339:3EKVH9QMEZB5BYPK0XRDUQX3YECD2E", "dateTime": 1516990234875}, {"current_trial": 86, "trialdata": {"rt": -1, "trial_type": "single-stim", "stimulus": "<p id=\"stim\">2</p>", "internal_node_id": "0.0-60.0-8.0", "time_elapsed": 418061, "key_press": -1, "trial_index": 86}, "uniqueid": "MTK2339:3EKVH9QMEZB5BYPK0XRDUQX3YECD2E", "dateTime": 1516990235877}, {"current_trial": 87, "trialdata": {"rt": -1, "trial_type": "single-stim", "stimulus": "<p id=\"stim\">1</p>", "internal_node_id": "0.0-60.0-9.0", "time_elapsed": 419062, "key_press": -1, "trial_index": 87}, "uniqueid": "MTK2339:3EKVH9QMEZB5BYPK0XRDUQX3YECD2E", "dateTime": 1516990236878}, {"current_trial": 88, "trialdata": {"rt": -1, "trial_type": "single-stim", "stimulus": "<p id=\"stim\">+</p>", "internal_node_id": "0.0-61.0-0.0", "time_elapsed": 420563, "key_press": -1, "type": "FIXATION", "trial_index": 88}, "uniqueid": "MTK2339:3EKVH9QMEZB5BYPK0XRDUQX3YECD2E", "dateTime": 1516990238379}, {"current_trial": 89, "trialdata": {"rt": -1000, "trial_type": "single-audio", "word": "pocket", "stimulus": "/static/audio/wordpool/POCKET.wav", "conditions": [24, 1600, "a", 12000], "internal_node_id": "0.0-62.0", "trial": 2, "time_elapsed": 423354, "serialpos": 0, "key_press": -1, "wordID": 1092, "type": "PRES_AUD", "trial_index": 89}, "uniqueid": "MTK2339:3EKVH9QMEZB5BYPK0XRDUQX3YECD2E", "dateTime": 1516990241170}, {"current_trial": 90, "trialdata": {"rt": -1000, "trial_type": "single-audio", "word": "foot", "stimulus": "/static/audio/wordpool/FOOT.wav", "conditions": [24, 1600, "a", 12000], "internal_node_id": "0.0-63.0", "trial": 2, "time_elapsed": 425844, "serialpos": 1, "key_press": -1, "wordID": 589, "type": "PRES_AUD", "trial_index": 90}, "uniqueid": "MTK2339:3EKVH9QMEZB5BYPK0XRDUQX3YECD2E", "dateTime": 1516990243660}, {"current_trial": 91, "trialdata": {"rt": -1000, "trial_type": "single-audio", "word": "perfume", "stimulus": "/static/audio/wordpool/PERFUME.wav", "conditions": [24, 1600, "a", 12000], "internal_node_id": "0.0-64.0", "trial": 2, "time_elapsed": 428361, "serialpos": 2, "key_press": -1, "wordID": 1048, "type": "PRES_AUD", "trial_index": 91}, "uniqueid": "MTK2339:3EKVH9QMEZB5BYPK0XRDUQX3YECD2E", "dateTime": 1516990246177}, {"current_trial": 92, "trialdata": {"rt": -1000, "trial_type": "single-audio", "word": "bacon", "stimulus": "/static/audio/wordpool/BACON.wav", "conditions": [24, 1600, "a", 12000], "internal_node_id": "0.0-65.0", "trial": 2, "time_elapsed": 431114, "serialpos": 3, "key_press": -1, "wordID": 66, "type": "PRES_AUD", "trial_index": 92}, "uniqueid": "MTK2339:3EKVH9QMEZB5BYPK0XRDUQX3YECD2E", "dateTime": 1516990248930}, {"current_trial": 93, "trialdata": {"rt": -1000, "trial_type": "single-audio", "word": "turkey", "stimulus": "/static/audio/wordpool/TURKEY.wav", "conditions": [24, 1600, "a", 12000], "internal_node_id": "0.0-66.0", "trial": 2, "time_elapsed": 433906, "serialpos": 4, "key_press": -1, "wordID": 1519, "type": "PRES_AUD", "trial_index": 93}, "uniqueid": "MTK2339:3EKVH9QMEZB5BYPK0XRDUQX3YECD2E", "dateTime": 1516990251722}, {"current_trial": 94, "trialdata": {"rt": -1000, "trial_type": "single-audio", "word": "infant", "stimulus": "/static/audio/wordpool/INFANT.wav", "conditions": [24, 1600, "a", 12000], "internal_node_id": "0.0-67.0", "trial": 2, "time_elapsed": 436463, "serialpos": 5, "key_press": -1, "wordID": 736, "type": "PRES_AUD", "trial_index": 94}, "uniqueid": "MTK2339:3EKVH9QMEZB5BYPK0XRDUQX3YECD2E", "dateTime": 1516990254279}, {"current_trial": 95, "trialdata": {"rt": -1000, "trial_type": "single-audio", "word": "cyclone", "stimulus": "/static/audio/wordpool/CYCLONE.wav", "conditions": [24, 1600, "a", 12000], "internal_node_id": "0.0-68.0", "trial": 2, "time_elapsed": 438979, "serialpos": 6, "key_press": -1, "wordID": 430, "type": "PRES_AUD", "trial_index": 95}, "uniqueid": "MTK2339:3EKVH9QMEZB5BYPK0XRDUQX3YECD2E", "dateTime": 1516990256795}, {"current_trial": 96, "trialdata": {"rt": -1000, "trial_type": "single-audio", "word": "fox", "stimulus": "/static/audio/wordpool/FOX.wav", "conditions": [24, 1600, "a", 12000], "internal_node_id": "0.0-69.0", "trial": 2, "time_elapsed": 441578, "serialpos": 7, "key_press": -1, "wordID": 597, "type": "PRES_AUD", "trial_index": 96}, "uniqueid": "MTK2339:3EKVH9QMEZB5BYPK0XRDUQX3YECD2E", "dateTime": 1516990259394}, {"current_trial": 97, "trialdata": {"rt": -1000, "trial_type": "single-audio", "word": "hedge", "stimulus": "/static/audio/wordpool/HEDGE.wav", "conditions": [24, 1600, "a", 12000], "internal_node_id": "0.0-70.0", "trial": 2, "time_elapsed": 444064, "serialpos": 8, "key_press": -1, "wordID": 698, "type": "PRES_AUD", "trial_index": 97}, "uniqueid": "MTK2339:3EKVH9QMEZB5BYPK0XRDUQX3YECD2E", "dateTime": 1516990261880}, {"current_trial": 98, "trialdata": {"rt": -1000, "trial_type": "single-audio", "word": "briefcase", "stimulus": "/static/audio/wordpool/BRIEFCASE.wav", "conditions": [24, 1600, "a", 12000], "internal_node_id": "0.0-71.0", "trial": 2, "time_elapsed": 446499, "serialpos": 9, "key_press": -1, "wordID": 174, "type": "PRES_AUD", "trial_index": 98}, "uniqueid": "MTK2339:3EKVH9QMEZB5BYPK0XRDUQX3YECD2E", "dateTime": 1516990264315}, {"current_trial": 99, "trialdata": {"rt": -1000, "trial_type": "single-audio", "word": "forehead", "stimulus": "/static/audio/wordpool/FOREHEAD.wav", "conditions": [24, 1600, "a", 12000], "internal_node_id": "0.0-72.0", "trial": 2, "time_elapsed": 449301, "serialpos": 10, "key_press": -1, "wordID": 591, "type": "PRES_AUD", "trial_index": 99}, "uniqueid": "MTK2339:3EKVH9QMEZB5BYPK0XRDUQX3YECD2E", "dateTime": 1516990267117}, {"current_trial": 100, "trialdata": {"rt": -1000, "trial_type": "single-audio", "word": "table", "stimulus": "/static/audio/wordpool/TABLE.wav", "conditions": [24, 1600, "a", 12000], "internal_node_id": "0.0-73.0", "trial": 2, "time_elapsed": 451954, "serialpos": 11, "key_press": -1, "wordID": 1425, "type": "PRES_AUD", "trial_index": 100}, "uniqueid": "MTK2339:3EKVH9QMEZB5BYPK0XRDUQX3YECD2E", "dateTime": 1516990269770}, {"current_trial": 101, "trialdata": {"rt": -1000, "trial_type": "single-audio", "word": "actor", "stimulus": "/static/audio/wordpool/ACTOR.wav", "conditions": [24, 1600, "a", 12000], "internal_node_id": "0.0-74.0", "trial": 2, "time_elapsed": 454379, "serialpos": 12, "key_press": -1, "wordID": 4, "type": "PRES_AUD", "trial_index": 101}, "uniqueid": "MTK2339:3EKVH9QMEZB5BYPK0XRDUQX3YECD2E", "dateTime": 1516990272195}, {"current_trial": 102, "trialdata": {"rt": -1000, "trial_type": "single-audio", "word": "crevice", "stimulus": "/static/audio/wordpool/CREVICE.wav", "conditions": [24, 1600, "a", 12000], "internal_node_id": "0.0-75.0", "trial": 2, "time_elapsed": 457004, "serialpos": 13, "key_press": -1, "wordID": 404, "type": "PRES_AUD", "trial_index": 102}, "uniqueid": "MTK2339:3EKVH9QMEZB5BYPK0XRDUQX3YECD2E", "dateTime": 1516990274820}, {"current_trial": 103, "trialdata": {"rt": -1000, "trial_type": "single-audio", "word": "brook", "stimulus": "/static/audio/wordpool/BROOK.wav", "conditions": [24, 1600, "a", 12000], "internal_node_id": "0.0-76.0", "trial": 2, "time_elapsed": 459458, "serialpos": 14, "key_press": -1, "wordID": 176, "type": "PRES_AUD", "trial_index": 103}, "uniqueid": "MTK2339:3EKVH9QMEZB5BYPK0XRDUQX3YECD2E", "dateTime": 1516990277274}, {"current_trial": 104, "trialdata": {"rt": -1000, "trial_type": "single-audio", "word": "citrus", "stimulus": "/static/audio/wordpool/CITRUS.wav", "conditions": [24, 1600, "a", 12000], "internal_node_id": "0.0-77.0", "trial": 2, "time_elapsed": 462131, "serialpos": 15, "key_press": -1, "wordID": 312, "type": "PRES_AUD", "trial_index": 104}, "uniqueid": "MTK2339:3EKVH9QMEZB5BYPK0XRDUQX3YECD2E", "dateTime": 1516990279947}, {"current_trial": 105, "trialdata": {"rt": -1000, "trial_type": "single-audio", "word": "tile", "stimulus": "/static/audio/wordpool/TILE.wav", "conditions": [24, 1600, "a", 12000], "internal_node_id": "0.0-78.0", "trial": 2, "time_elapsed": 464579, "serialpos": 16, "key_press": -1, "wordID": 1467, "type": "PRES_AUD", "trial_index": 105}, "uniqueid": "MTK2339:3EKVH9QMEZB5BYPK0XRDUQX3YECD2E", "dateTime": 1516990282395}, {"current_trial": 106, "trialdata": {"rt": -1000, "trial_type": "single-audio", "word": "apple", "stimulus": "/static/audio/wordpool/APPLE.wav", "conditions": [24, 1600, "a", 12000], "internal_node_id": "0.0-79.0", "trial": 2, "time_elapsed": 467329, "serialpos": 17, "key_press": -1, "wordID": 32, "type": "PRES_AUD", "trial_index": 106}, "uniqueid": "MTK2339:3EKVH9QMEZB5BYPK0XRDUQX3YECD2E", "dateTime": 1516990285145}, {"current_trial": 107, "trialdata": {"rt": -1000, "trial_type": "single-audio", "word": "film", "stimulus": "/static/audio/wordpool/FILM.wav", "conditions": [24, 1600, "a", 12000], "internal_node_id": "0.0-80.0", "trial": 2, "time_elapsed": 469757, "serialpos": 18, "key_press": -1, "wordID": 564, "type": "PRES_AUD", "trial_index": 107}, "uniqueid": "MTK2339:3EKVH9QMEZB5BYPK0XRDUQX3YECD2E", "dateTime": 1516990287573}, {"current_trial": 108, "trialdata": {"rt": -1000, "trial_type": "single-audio", "word": "judge", "stimulus": "/static/audio/wordpool/JUDGE.wav", "conditions": [24, 1600, "a", 12000], "internal_node_id": "0.0-81.0", "trial": 2, "time_elapsed": 472404, "serialpos": 19, "key_press": -1, "wordID": 760, "type": "PRES_AUD", "trial_index": 108}, "uniqueid": "MTK2339:3EKVH9QMEZB5BYPK0XRDUQX3YECD2E", "dateTime": 1516990290220}, {"current_trial": 109, "trialdata": {"rt": -1000, "trial_type": "single-audio", "word": "fireplace", "stimulus": "/static/audio/wordpool/FIREPLACE.wav", "conditions": [24, 1600, "a", 12000], "internal_node_id": "0.0-82.0", "trial": 2, "time_elapsed": 474962, "serialpos": 20, "key_press": -1, "wordID": 569, "type": "PRES_AUD", "trial_index": 109}, "uniqueid": "MTK2339:3EKVH9QMEZB5BYPK0XRDUQX3YECD2E", "dateTime": 1516990292778}, {"current_trial": 110, "trialdata": {"rt": -1000, "trial_type": "single-audio", "word": "playground", "stimulus": "/static/audio/wordpool/PLAYGROUND.wav", "conditions": [24, 1600, "a", 12000], "internal_node_id": "0.0-83.0", "trial": 2, "time_elapsed": 477461, "serialpos": 21, "key_press": -1, "wordID": 1086, "type": "PRES_AUD", "trial_index": 110}, "uniqueid": "MTK2339:3EKVH9QMEZB5BYPK0XRDUQX3YECD2E", "dateTime": 1516990295277}, {"current_trial": 111, "trialdata": {"rt": -1000, "trial_type": "single-audio", "word": "waitress", "stimulus": "/static/audio/wordpool/WAITRESS.wav", "conditions": [24, 1600, "a", 12000], "internal_node_id": "0.0-84.0", "trial": 2, "time_elapsed": 480006, "serialpos": 22, "key_press": -1, "wordID": 1580, "type": "PRES_AUD", "trial_index": 111}, "uniqueid": "MTK2339:3EKVH9QMEZB5BYPK0XRDUQX3YECD2E", "dateTime": 1516990297822}, {"current_trial": 112, "trialdata": {"rt": -1000, "trial_type": "single-audio", "word": "waiter", "stimulus": "/static/audio/wordpool/WAITER.wav", "conditions": [24, 1600, "a", 12000], "internal_node_id": "0.0-85.0", "trial": 2, "time_elapsed": 482737, "serialpos": 23, "key_press": -1, "wordID": 1579, "type": "PRES_AUD", "trial_index": 112}, "uniqueid": "MTK2339:3EKVH9QMEZB5BYPK0XRDUQX3YECD2E", "dateTime": 1516990300553}, {"current_trial": 113, "trialdata": {"rt": -1, "trial_type": "single-stim", "stimulus": "", "internal_node_id": "0.0-86.0-0.0", "time_elapsed": 484105, "key_press": -1, "type": "PRE_RECALL_DELAY", "trial_index": 113}, "uniqueid": "MTK2339:3EKVH9QMEZB5BYPK0XRDUQX3YECD2E", "dateTime": 1516990301921}, {"current_trial": 114, "trialdata": {"rt": -1000, "trial_type": "single-audio", "stimulus": "/static/audio/400Hz.wav", "internal_node_id": "0.0-87.0", "time_elapsed": 484605, "key_press": -1, "type": "PRE_RECALL_ALERT", "trial_index": 114}, "uniqueid": "MTK2339:3EKVH9QMEZB5BYPK0XRDUQX3YECD2E", "dateTime": 1516990302423}, {"current_trial": 115, "trialdata": {"rt": [3852, 6018, 11069, 13316, 15939, 19269, 22714, 26266, 29416, 32461, 34483, 36222, 39845, 43405, 46801, 54087, 57918], "recwords": ["foor", "foot", "perfume", "bacon", "turkey", "infant", "cyclone", "judge", "citrus", "waitress", "waitor", "waiter", "fireplace", "playground", "fox", "apple", "orange"], "key_times": [3382, 3486, 3618, 3737, 3852, 5318, 5473, 5626, 5751, 6018, 7579, 7712, 7841, 8092, 8205, 8387, 8407, 8487, 8895, 9668, 9810, 9939, 10069, 10805, 10942, 11069, 12546, 12658, 12846, 12954, 13118, 13316, 14983, 15136, 15222, 15369, 15486, 15779, 15939, 17542, 17747, 17986, 18335, 18503, 18799, 19006, 19152, 19269, 21285, 21516, 21651, 21828, 22007, 22256, 22524, 22714, 25359, 25564, 25770, 26035, 26107, 26266, 28455, 28635, 28854, 28994, 29121, 29254, 29416, 31141, 31335, 31459, 31614, 31796, 31937, 32157, 32341, 32461, 32978, 33167, 33321, 33466, 33553, 33765, 34483, 35317, 35514, 35666, 35826, 35926, 36034, 36222, 38562, 38687, 38833, 38935, 39106, 39256, 39373, 39536, 39669, 39845, 41659, 41835, 41954, 42217, 42511, 42655, 42754, 42937, 43144, 43263, 43405, 46281, 46417, 46623, 46801, 53295, 53435, 53581, 53754, 53930, 54087, 54663, 55792, 56047, 56224, 56429, 56640, 56777, 56876, 57027, 57478, 57918], "trial_type": "free-recall", "conditions": [24, 1600, "a", 12000], "internal_node_id": "0.0-88.0-0.0", "key_presses": [70, 79, 79, 82, 13, 70, 79, 79, 84, 13, 80, 69, 82, 70, 85, 74, 77, 69, 220, 8, 8, 8, 8, 77, 69, 13, 66, 65, 67, 79, 78, 13, 84, 85, 82, 75, 69, 89, 13, 73, 78, 71, 8, 70, 65, 78, 84, 13, 67, 89, 67, 76, 79, 78, 69, 13, 74, 85, 68, 71, 69, 13, 67, 73, 84, 82, 85, 83, 13, 87, 65, 73, 84, 82, 69, 83, 83, 13, 87, 65, 73, 84, 79, 82, 13, 87, 65, 73, 84, 69, 82, 13, 70, 73, 82, 69, 80, 76, 65, 67, 69, 13, 80, 76, 65, 89, 71, 82, 79, 85, 78, 68, 13, 70, 79, 88, 13, 65, 80, 80, 76, 69, 13, 80, 8, 79, 82, 65, 78, 71, 69, 221, 8, 13], "trial": 2, "time_elapsed": 544610, "type": "FREE_RECALL", "trial_index": 115}, "uniqueid": "MTK2339:3EKVH9QMEZB5BYPK0XRDUQX3YECD2E", "dateTime": 1516990362434}, {"current_trial": 116, "trialdata": {"rt": 1591, "trial_type": "text", "internal_node_id": "0.0-89.0", "time_elapsed": 548210, "key_press": 32, "type": "INSTRUCTIONS", "trial_index": 116}, "uniqueid": "MTK2339:3EKVH9QMEZB5BYPK0XRDUQX3YECD2E", "dateTime": 1516990366026}, {"current_trial": 117, "trialdata": {"rt": [3956, 11268, 14652, 16478, 20131, 23831], "trial_type": "math-distractor", "key_times": [3072, 3477, 3956, 10550, 10778, 11268, 14055, 14279, 14652, 16120, 16276, 16478, 19440, 19666, 20131, 23362, 23535, 23831], "responses": ["19", "13", "19", "11", "13", "11"], "num2": [9, 5, 6, 9, 3, 3, 4], "num3": [5, 3, 9, 9, 1, 3, 3], "conditions": [12, 800, "a", 24000], "internal_node_id": "0.0-90.0", "key_presses": [97, 105, 13, 97, 99, 13, 97, 105, 13, 97, 97, 13, 97, 99, 13, 97, 97, 13], "trial": 3, "time_elapsed": 574222, "type": "DISTRACTOR", "trial_index": 117, "num1": [5, 6, 4, 1, 9, 5, 6]}, "uniqueid": "MTK2339:3EKVH9QMEZB5BYPK0XRDUQX3YECD2E", "dateTime": 1516990392038}, {"current_trial": 118, "trialdata": {"rt": -1, "trial_type": "single-stim", "stimulus": "<p id=\"stim\">10</p>", "internal_node_id": "0.0-91.0-0.0", "time_elapsed": 577225, "key_press": -1, "trial_index": 118}, "uniqueid": "MTK2339:3EKVH9QMEZB5BYPK0XRDUQX3YECD2E", "dateTime": 1516990395041}, {"current_trial": 119, "trialdata": {"rt": -1, "trial_type": "single-stim", "stimulus": "<p id=\"stim\">9</p>", "internal_node_id": "0.0-91.0-1.0", "time_elapsed": 578225, "key_press": -1, "trial_index": 119}, "uniqueid": "MTK2339:3EKVH9QMEZB5BYPK0XRDUQX3YECD2E", "dateTime": 1516990396041}, {"current_trial": 120, "trialdata": {"rt": -1, "trial_type": "single-stim", "stimulus": "<p id=\"stim\">8</p>", "internal_node_id": "0.0-91.0-2.0", "time_elapsed": 579226, "key_press": -1, "trial_index": 120}, "uniqueid": "MTK2339:3EKVH9QMEZB5BYPK0XRDUQX3YECD2E", "dateTime": 1516990397042}, {"current_trial": 121, "trialdata": {"rt": -1, "trial_type": "single-stim", "stimulus": "<p id=\"stim\">7</p>", "internal_node_id": "0.0-91.0-3.0", "time_elapsed": 580226, "key_press": -1, "trial_index": 121}, "uniqueid": "MTK2339:3EKVH9QMEZB5BYPK0XRDUQX3YECD2E", "dateTime": 1516990398042}, {"current_trial": 122, "trialdata": {"rt": -1, "trial_type": "single-stim", "stimulus": "<p id=\"stim\">6</p>", "internal_node_id": "0.0-91.0-4.0", "time_elapsed": 581226, "key_press": -1, "trial_index": 122}, "uniqueid": "MTK2339:3EKVH9QMEZB5BYPK0XRDUQX3YECD2E", "dateTime": 1516990399042}, {"current_trial": 123, "trialdata": {"rt": -1, "trial_type": "single-stim", "stimulus": "<p id=\"stim\">5</p>", "internal_node_id": "0.0-91.0-5.0", "time_elapsed": 582233, "key_press": -1, "trial_index": 123}, "uniqueid": "MTK2339:3EKVH9QMEZB5BYPK0XRDUQX3YECD2E", "dateTime": 1516990400049}, {"current_trial": 124, "trialdata": {"rt": -1, "trial_type": "single-stim", "stimulus": "<p id=\"stim\">4</p>", "internal_node_id": "0.0-91.0-6.0", "time_elapsed": 583241, "key_press": -1, "trial_index": 124}, "uniqueid": "MTK2339:3EKVH9QMEZB5BYPK0XRDUQX3YECD2E", "dateTime": 1516990401057}, {"current_trial": 125, "trialdata": {"rt": -1, "trial_type": "single-stim", "stimulus": "<p id=\"stim\">3</p>", "internal_node_id": "0.0-91.0-7.0", "time_elapsed": 584242, "key_press": -1, "trial_index": 125}, "uniqueid": "MTK2339:3EKVH9QMEZB5BYPK0XRDUQX3YECD2E", "dateTime": 1516990402058}, {"current_trial": 126, "trialdata": {"rt": -1, "trial_type": "single-stim", "stimulus": "<p id=\"stim\">2</p>", "internal_node_id": "0.0-91.0-8.0", "time_elapsed": 585250, "key_press": -1, "trial_index": 126}, "uniqueid": "MTK2339:3EKVH9QMEZB5BYPK0XRDUQX3YECD2E", "dateTime": 1516990403066}, {"current_trial": 127, "trialdata": {"rt": -1, "trial_type": "single-stim", "stimulus": "<p id=\"stim\">1</p>", "internal_node_id": "0.0-91.0-9.0", "time_elapsed": 586252, "key_press": -1, "trial_index": 127}, "uniqueid": "MTK2339:3EKVH9QMEZB5BYPK0XRDUQX3YECD2E", "dateTime": 1516990404068}, {"current_trial": 128, "trialdata": {"rt": -1, "trial_type": "single-stim", "stimulus": "<p id=\"stim\">+</p>", "internal_node_id": "0.0-92.0-0.0", "time_elapsed": 587754, "key_press": -1, "type": "FIXATION", "trial_index": 128}, "uniqueid": "MTK2339:3EKVH9QMEZB5BYPK0XRDUQX3YECD2E", "dateTime": 1516990405570}, {"current_trial": 129, "trialdata": {"rt": -1000, "trial_type": "single-audio", "word": "critic", "stimulus": "/static/audio/wordpool/CRITIC.wav", "conditions": [12, 800, "a", 24000], "internal_node_id": "0.0-93.0", "trial": 3, "time_elapsed": 589625, "serialpos": 0, "key_press": -1, "wordID": 409, "type": "PRES_AUD", "trial_index": 129}, "uniqueid": "MTK2339:3EKVH9QMEZB5BYPK0XRDUQX3YECD2E", "dateTime": 1516990407441}, {"current_trial": 130, "trialdata": {"rt": -1000, "trial_type": "single-audio", "word": "dancer", "stimulus": "/static/audio/wordpool/DANCER.wav", "conditions": [12, 800, "a", 24000], "internal_node_id": "0.0-94.0", "trial": 3, "time_elapsed": 591488, "serialpos": 1, "key_press": -1, "wordID": 436, "type": "PRES_AUD", "trial_index": 130}, "uniqueid": "MTK2339:3EKVH9QMEZB5BYPK0XRDUQX3YECD2E", "dateTime": 1516990409304}, {"current_trial": 131, "trialdata": {"rt": -1000, "trial_type": "single-audio", "word": "scarf", "stimulus": "/static/audio/wordpool/SCARF.wav", "conditions": [12, 800, "a", 24000], "internal_node_id": "0.0-95.0", "trial": 3, "time_elapsed": 593174, "serialpos": 2, "key_press": -1, "wordID": 1245, "type": "PRES_AUD", "trial_index": 131}, "uniqueid": "MTK2339:3EKVH9QMEZB5BYPK0XRDUQX3YECD2E", "dateTime": 1516990410990}, {"current_trial": 132, "trialdata": {"rt": -1000, "trial_type": "single-audio", "word": "picture", "stimulus": "/static/audio/wordpool/PICTURE.wav", "conditions": [12, 800, "a", 24000], "internal_node_id": "0.0-96.0", "trial": 3, "time_elapsed": 594868, "serialpos": 3, "key_press": -1, "wordID": 1060, "type": "PRES_AUD", "trial_index": 132}, "uniqueid": "MTK2339:3EKVH9QMEZB5BYPK0XRDUQX3YECD2E", "dateTime": 1516990412684}, {"current_trial": 133, "trialdata": {"rt": -1000, "trial_type": "single-audio", "word": "soda", "stimulus": "/static/audio/wordpool/SODA.wav", "conditions": [12, 800, "a", 24000], "internal_node_id": "0.0-97.0", "trial": 3, "time_elapsed": 596490, "serialpos": 4, "key_press": -1, "wordID": 1340, "type": "PRES_AUD", "trial_index": 133}, "uniqueid": "MTK2339:3EKVH9QMEZB5BYPK0XRDUQX3YECD2E", "dateTime": 1516990414306}, {"current_trial": 134, "trialdata": {"rt": -1000, "trial_type": "single-audio", "word": "dandruff", "stimulus": "/static/audio/wordpool/DANDRUFF.wav", "conditions": [12, 800, "a", 24000], "internal_node_id": "0.0-98.0", "trial": 3, "time_elapsed": 598348, "serialpos": 5, "key_press": -1, "wordID": 438, "type": "PRES_AUD", "trial_index": 134}, "uniqueid": "MTK2339:3EKVH9QMEZB5BYPK0XRDUQX3YECD2E", "dateTime": 1516990416164}, {"current_trial": 135, "trialdata": {"rt": -1000, "trial_type": "single-audio", "word": "shirt", "stimulus": "/static/audio/wordpool/SHIRT.wav", "conditions": [12, 800, "a", 24000], "internal_node_id": "0.0-99.0", "trial": 3, "time_elapsed": 600310, "serialpos": 6, "key_press": -1, "wordID": 1286, "type": "PRES_AUD", "trial_index": 135}, "uniqueid": "MTK2339:3EKVH9QMEZB5BYPK0XRDUQX3YECD2E", "dateTime": 1516990418126}, {"current_trial": 136, "trialdata": {"rt": -1000, "trial_type": "single-audio", "word": "partner", "stimulus": "/static/audio/wordpool/PARTNER.wav", "conditions": [12, 800, "a", 24000], "internal_node_id": "0.0-100.0", "trial": 3, "time_elapsed": 602024, "serialpos": 7, "key_press": -1, "wordID": 1016, "type": "PRES_AUD", "trial_index": 136}, "uniqueid": "MTK2339:3EKVH9QMEZB5BYPK0XRDUQX3YECD2E", "dateTime": 1516990419840}, {"current_trial": 137, "trialdata": {"rt": -1000, "trial_type": "single-audio", "word": "portrait", "stimulus": "/static/audio/wordpool/PORTRAIT.wav", "conditions": [12, 800, "a", 24000], "internal_node_id": "0.0-101.0", "trial": 3, "time_elapsed": 603794, "serialpos": 8, "key_press": -1, "wordID": 1110, "type": "PRES_AUD", "trial_index": 137}, "uniqueid": "MTK2339:3EKVH9QMEZB5BYPK0XRDUQX3YECD2E", "dateTime": 1516990421610}, {"current_trial": 138, "trialdata": {"rt": -1000, "trial_type": "single-audio", "word": "cabbage", "stimulus": "/static/audio/wordpool/CABBAGE.wav", "conditions": [12, 800, "a", 24000], "internal_node_id": "0.0-102.0", "trial": 3, "time_elapsed": 605670, "serialpos": 9, "key_press": -1, "wordID": 209, "type": "PRES_AUD", "trial_index": 138}, "uniqueid": "MTK2339:3EKVH9QMEZB5BYPK0XRDUQX3YECD2E", "dateTime": 1516990423486}, {"current_trial": 139, "trialdata": {"rt": -1000, "trial_type": "single-audio", "word": "turnip", "stimulus": "/static/audio/wordpool/TURNIP.wav", "conditions": [12, 800, "a", 24000], "internal_node_id": "0.0-103.0", "trial": 3, "time_elapsed": 607303, "serialpos": 10, "key_press": -1, "wordID": 1520, "type": "PRES_AUD", "trial_index": 139}, "uniqueid": "MTK2339:3EKVH9QMEZB5BYPK0XRDUQX3YECD2E", "dateTime": 1516990425119}, {"current_trial": 140, "trialdata": {"rt": -1000, "trial_type": "single-audio", "word": "stomach", "stimulus": "/static/audio/wordpool/STOMACH.wav", "conditions": [12, 800, "a", 24000], "internal_node_id": "0.0-104.0", "trial": 3, "time_elapsed": 609027, "serialpos": 11, "key_press": -1, "wordID": 1383, "type": "PRES_AUD", "trial_index": 140}, "uniqueid": "MTK2339:3EKVH9QMEZB5BYPK0XRDUQX3YECD2E", "dateTime": 1516990426843}, {"current_trial": 141, "trialdata": {"rt": -1, "trial_type": "single-stim", "stimulus": "", "internal_node_id": "0.0-105.0-0.0", "time_elapsed": 610302, "key_press": -1, "type": "PRE_RECALL_DELAY", "trial_index": 141}, "uniqueid": "MTK2339:3EKVH9QMEZB5BYPK0XRDUQX3YECD2E", "dateTime": 1516990428118}, {"current_trial": 142, "trialdata": {"rt": -1000, "trial_type": "single-audio", "stimulus": "/static/audio/400Hz.wav", "internal_node_id": "0.0-106.0", "time_elapsed": 610808, "key_press": -1, "type": "PRE_RECALL_ALERT", "trial_index": 142}, "uniqueid": "MTK2339:3EKVH9QMEZB5BYPK0XRDUQX3YECD2E", "dateTime": 1516990428624}, {"current_trial": 143, "trialdata": {"rt": [4089, 6262, 8801, 11719, 13376, 16179, 19051, 21993, 25098, 27058, 29115, 33504, 38965], "recwords": ["critic", "dancer", "scarf", "picture", "soda", "dandruff", "shirt", "portrait", "cabbacge", "cabbage", "turnip", "citrus", "ice"], "key_times": [2967, 3269, 3413, 3496, 3604, 3749, 4089, 5481, 5579, 5731, 5829, 5929, 6139, 6262, 7875, 8088, 8287, 8537, 8709, 8801, 10445, 10707, 10873, 11167, 11278, 11424, 11536, 11719, 12892, 13043, 13160, 13245, 13376, 14848, 14962, 15156, 15293, 15648, 15835, 15961, 16101, 16179, 17614, 17792, 18382, 18542, 18779, 19051, 20508, 20800, 20976, 21172, 21373, 21597, 21747, 21862, 21993, 23730, 23859, 24241, 24392, 24523, 24666, 24832, 24993, 25098, 25998, 26189, 26339, 26477, 26581, 26781, 26865, 27058, 27888, 27993, 28150, 28229, 28359, 28773, 29115, 32524, 32686, 32927, 33090, 33234, 33349, 33504, 38436, 38640, 38764, 38965], "trial_type": "free-recall", "conditions": [12, 800, "a", 24000], "internal_node_id": "0.0-107.0-0.0", "key_presses": [67, 82, 73, 84, 73, 67, 13, 68, 65, 78, 67, 69, 82, 13, 83, 67, 65, 82, 70, 13, 80, 73, 67, 84, 85, 82, 69, 13, 83, 79, 68, 65, 13, 68, 65, 78, 68, 82, 85, 70, 70, 13, 83, 72, 73, 82, 84, 13, 80, 79, 82, 84, 82, 65, 73, 84, 13, 67, 65, 66, 66, 65, 67, 71, 69, 32, 67, 65, 66, 66, 65, 71, 69, 13, 84, 85, 82, 78, 73, 80, 13, 67, 73, 84, 82, 85, 83, 13, 73, 67, 69, 13], "trial": 3, "time_elapsed": 670814, "type": "FREE_RECALL", "trial_index": 143}, "uniqueid": "MTK2339:3EKVH9QMEZB5BYPK0XRDUQX3YECD2E", "dateTime": 1516990488642}, {"current_trial": 144, "trialdata": {"rt": 1619, "trial_type": "text", "internal_node_id": "0.0-108.0", "time_elapsed": 674452, "key_press": 32, "type": "INSTRUCTIONS", "trial_index": 144}, "uniqueid": "MTK2339:3EKVH9QMEZB5BYPK0XRDUQX3YECD2E", "dateTime": 1516990492268}, {"current_trial": 145, "trialdata": {"rt": [6290, 10953], "trial_type": "math-distractor", "key_times": [5600, 5822, 6290, 9782, 10707, 10953], "responses": ["19", "17"], "num2": [6, 8, 5], "num3": [5, 2, 1], "conditions": [12, 800, "a", 12000], "internal_node_id": "0.0-109.0", "key_presses": [97, 105, 13, 97, 103, 13], "trial": 4, "time_elapsed": 688454, "type": "DISTRACTOR", "trial_index": 145, "num1": [8, 7, 1]}, "uniqueid": "MTK2339:3EKVH9QMEZB5BYPK0XRDUQX3YECD2E", "dateTime": 1516990506270}, {"current_trial": 146, "trialdata": {"rt": -1, "trial_type": "single-stim", "stimulus": "<p id=\"stim\">10</p>", "internal_node_id": "0.0-110.0-0.0", "time_elapsed": 691454, "key_press": -1, "trial_index": 146}, "uniqueid": "MTK2339:3EKVH9QMEZB5BYPK0XRDUQX3YECD2E", "dateTime": 1516990509270}, {"current_trial": 147, "trialdata": {"rt": -1, "trial_type": "single-stim", "stimulus": "<p id=\"stim\">9</p>", "internal_node_id": "0.0-110.0-1.0", "time_elapsed": 692455, "key_press": -1, "trial_index": 147}, "uniqueid": "MTK2339:3EKVH9QMEZB5BYPK0XRDUQX3YECD2E", "dateTime": 1516990510271}, {"current_trial": 148, "trialdata": {"rt": -1, "trial_type": "single-stim", "stimulus": "<p id=\"stim\">8</p>", "internal_node_id": "0.0-110.0-2.0", "time_elapsed": 693455, "key_press": -1, "trial_index": 148}, "uniqueid": "MTK2339:3EKVH9QMEZB5BYPK0XRDUQX3YECD2E", "dateTime": 1516990511271}, {"current_trial": 149, "trialdata": {"rt": -1, "trial_type": "single-stim", "stimulus": "<p id=\"stim\">7</p>", "internal_node_id": "0.0-110.0-3.0", "time_elapsed": 694455, "key_press": -1, "trial_index": 149}, "uniqueid": "MTK2339:3EKVH9QMEZB5BYPK0XRDUQX3YECD2E", "dateTime": 1516990512271}, {"current_trial": 150, "trialdata": {"rt": -1, "trial_type": "single-stim", "stimulus": "<p id=\"stim\">6</p>", "internal_node_id": "0.0-110.0-4.0", "time_elapsed": 695455, "key_press": -1, "trial_index": 150}, "uniqueid": "MTK2339:3EKVH9QMEZB5BYPK0XRDUQX3YECD2E", "dateTime": 1516990513271}, {"current_trial": 151, "trialdata": {"rt": -1, "trial_type": "single-stim", "stimulus": "<p id=\"stim\">5</p>", "internal_node_id": "0.0-110.0-5.0", "time_elapsed": 696460, "key_press": -1, "trial_index": 151}, "uniqueid": "MTK2339:3EKVH9QMEZB5BYPK0XRDUQX3YECD2E", "dateTime": 1516990514276}, {"current_trial": 152, "trialdata": {"rt": -1, "trial_type": "single-stim", "stimulus": "<p id=\"stim\">4</p>", "internal_node_id": "0.0-110.0-6.0", "time_elapsed": 697461, "key_press": -1, "trial_index": 152}, "uniqueid": "MTK2339:3EKVH9QMEZB5BYPK0XRDUQX3YECD2E", "dateTime": 1516990515277}, {"current_trial": 153, "trialdata": {"rt": -1, "trial_type": "single-stim", "stimulus": "<p id=\"stim\">3</p>", "internal_node_id": "0.0-110.0-7.0", "time_elapsed": 698464, "key_press": -1, "trial_index": 153}, "uniqueid": "MTK2339:3EKVH9QMEZB5BYPK0XRDUQX3YECD2E", "dateTime": 1516990516280}, {"current_trial": 154, "trialdata": {"rt": -1, "trial_type": "single-stim", "stimulus": "<p id=\"stim\">2</p>", "internal_node_id": "0.0-110.0-8.0", "time_elapsed": 699467, "key_press": -1, "trial_index": 154}, "uniqueid": "MTK2339:3EKVH9QMEZB5BYPK0XRDUQX3YECD2E", "dateTime": 1516990517283}, {"current_trial": 155, "trialdata": {"rt": -1, "trial_type": "single-stim", "stimulus": "<p id=\"stim\">1</p>", "internal_node_id": "0.0-110.0-9.0", "time_elapsed": 700469, "key_press": -1, "trial_index": 155}, "uniqueid": "MTK2339:3EKVH9QMEZB5BYPK0XRDUQX3YECD2E", "dateTime": 1516990518285}, {"current_trial": 156, "trialdata": {"rt": -1, "trial_type": "single-stim", "stimulus": "<p id=\"stim\">+</p>", "internal_node_id": "0.0-111.0-0.0", "time_elapsed": 701970, "key_press": -1, "type": "FIXATION", "trial_index": 156}, "uniqueid": "MTK2339:3EKVH9QMEZB5BYPK0XRDUQX3YECD2E", "dateTime": 1516990519786}, {"current_trial": 157, "trialdata": {"rt": -1000, "trial_type": "single-audio", "word": "arm", "stimulus": "/static/audio/wordpool/ARM.wav", "conditions": [12, 800, "a", 12000], "internal_node_id": "0.0-112.0", "trial": 4, "time_elapsed": 703696, "serialpos": 0, "key_press": -1, "wordID": 37, "type": "PRES_AUD", "trial_index": 157}, "uniqueid": "MTK2339:3EKVH9QMEZB5BYPK0XRDUQX3YECD2E", "dateTime": 1516990521512}, {"current_trial": 158, "trialdata": {"rt": -1000, "trial_type": "single-audio", "word": "patrol", "stimulus": "/static/audio/wordpool/PATROL.wav", "conditions": [12, 800, "a", 12000], "internal_node_id": "0.0-113.0", "trial": 4, "time_elapsed": 705557, "serialpos": 1, "key_press": -1, "wordID": 1026, "type": "PRES_AUD", "trial_index": 158}, "uniqueid": "MTK2339:3EKVH9QMEZB5BYPK0XRDUQX3YECD2E", "dateTime": 1516990523373}, {"current_trial": 159, "trialdata": {"rt": -1000, "trial_type": "single-audio", "word": "laser", "stimulus": "/static/audio/wordpool/LASER.wav", "conditions": [12, 800, "a", 12000], "internal_node_id": "0.0-114.0", "trial": 4, "time_elapsed": 707219, "serialpos": 2, "key_press": -1, "wordID": 800, "type": "PRES_AUD", "trial_index": 159}, "uniqueid": "MTK2339:3EKVH9QMEZB5BYPK0XRDUQX3YECD2E", "dateTime": 1516990525035}, {"current_trial": 160, "trialdata": {"rt": -1000, "trial_type": "single-audio", "word": "temple", "stimulus": "/static/audio/wordpool/TEMPLE.wav", "conditions": [12, 800, "a", 12000], "internal_node_id": "0.0-115.0", "trial": 4, "time_elapsed": 709163, "serialpos": 3, "key_press": -1, "wordID": 1447, "type": "PRES_AUD", "trial_index": 160}, "uniqueid": "MTK2339:3EKVH9QMEZB5BYPK0XRDUQX3YECD2E", "dateTime": 1516990526979}, {"current_trial": 161, "trialdata": {"rt": -1000, "trial_type": "single-audio", "word": "star", "stimulus": "/static/audio/wordpool/STAR.wav", "conditions": [12, 800, "a", 12000], "internal_node_id": "0.0-116.0", "trial": 4, "time_elapsed": 710804, "serialpos": 4, "key_press": -1, "wordID": 1372, "type": "PRES_AUD", "trial_index": 161}, "uniqueid": "MTK2339:3EKVH9QMEZB5BYPK0XRDUQX3YECD2E", "dateTime": 1516990528620}, {"current_trial": 162, "trialdata": {"rt": -1000, "trial_type": "single-audio", "word": "police", "stimulus": "/static/audio/wordpool/POLICE.wav", "conditions": [12, 800, "a", 12000], "internal_node_id": "0.0-117.0", "trial": 4, "time_elapsed": 712418, "serialpos": 5, "key_press": -1, "wordID": 1097, "type": "PRES_AUD", "trial_index": 162}, "uniqueid": "MTK2339:3EKVH9QMEZB5BYPK0XRDUQX3YECD2E", "dateTime": 1516990530234}, {"current_trial": 163, "trialdata": {"rt": -1000, "trial_type": "single-audio", "word": "mailman", "stimulus": "/static/audio/wordpool/MAILMAN.wav", "conditions": [12, 800, "a", 12000], "internal_node_id": "0.0-118.0", "trial": 4, "time_elapsed": 714144, "serialpos": 6, "key_press": -1, "wordID": 857, "type": "PRES_AUD", "trial_index": 163}, "uniqueid": "MTK2339:3EKVH9QMEZB5BYPK0XRDUQX3YECD2E", "dateTime": 1516990531960}, {"current_trial": 164, "trialdata": {"rt": -1000, "trial_type": "single-audio", "word": "luggage", "stimulus": "/static/audio/wordpool/LUGGAGE.wav", "conditions": [12, 800, "a", 12000], "internal_node_id": "0.0-119.0", "trial": 4, "time_elapsed": 716060, "serialpos": 7, "key_press": -1, "wordID": 846, "type": "PRES_AUD", "trial_index": 164}, "uniqueid": "MTK2339:3EKVH9QMEZB5BYPK0XRDUQX3YECD2E", "dateTime": 1516990533876}, {"current_trial": 165, "trialdata": {"rt": -1000, "trial_type": "single-audio", "word": "casket", "stimulus": "/static/audio/wordpool/CASKET.wav", "conditions": [12, 800, "a", 12000], "internal_node_id": "0.0-120.0", "trial": 4, "time_elapsed": 717937, "serialpos": 8, "key_press": -1, "wordID": 254, "type": "PRES_AUD", "trial_index": 165}, "uniqueid": "MTK2339:3EKVH9QMEZB5BYPK0XRDUQX3YECD2E", "dateTime": 1516990535753}, {"current_trial": 166, "trialdata": {"rt": -1000, "trial_type": "single-audio", "word": "missile", "stimulus": "/static/audio/wordpool/MISSILE.wav", "conditions": [12, 800, "a", 12000], "internal_node_id": "0.0-121.0", "trial": 4, "time_elapsed": 719609, "serialpos": 9, "key_press": -1, "wordID": 899, "type": "PRES_AUD", "trial_index": 166}, "uniqueid": "MTK2339:3EKVH9QMEZB5BYPK0XRDUQX3YECD2E", "dateTime": 1516990537425}, {"current_trial": 167, "trialdata": {"rt": -1000, "trial_type": "single-audio", "word": "barrel", "stimulus": "/static/audio/wordpool/BARREL.wav", "conditions": [12, 800, "a", 12000], "internal_node_id": "0.0-122.0", "trial": 4, "time_elapsed": 721515, "serialpos": 10, "key_press": -1, "wordID": 90, "type": "PRES_AUD", "trial_index": 167}, "uniqueid": "MTK2339:3EKVH9QMEZB5BYPK0XRDUQX3YECD2E", "dateTime": 1516990539331}, {"current_trial": 168, "trialdata": {"rt": -1000, "trial_type": "single-audio", "word": "gallon", "stimulus": "/static/audio/wordpool/GALLON.wav", "conditions": [12, 800, "a", 12000], "internal_node_id": "0.0-123.0", "trial": 4, "time_elapsed": 723473, "serialpos": 11, "key_press": -1, "wordID": 617, "type": "PRES_AUD", "trial_index": 168}, "uniqueid": "MTK2339:3EKVH9QMEZB5BYPK0XRDUQX3YECD2E", "dateTime": 1516990541289}, {"current_trial": 169, "trialdata": {"rt": -1, "trial_type": "single-stim", "stimulus": "", "internal_node_id": "0.0-124.0-0.0", "time_elapsed": 724798, "key_press": -1, "type": "PRE_RECALL_DELAY", "trial_index": 169}, "uniqueid": "MTK2339:3EKVH9QMEZB5BYPK0XRDUQX3YECD2E", "dateTime": 1516990542614}, {"current_trial": 170, "trialdata": {"rt": -1000, "trial_type": "single-audio", "stimulus": "/static/audio/400Hz.wav", "internal_node_id": "0.0-125.0", "time_elapsed": 725298, "key_press": -1, "type": "PRE_RECALL_ALERT", "trial_index": 170}, "uniqueid": "MTK2339:3EKVH9QMEZB5BYPK0XRDUQX3YECD2E", "dateTime": 1516990543114}, {"current_trial": 171, "trialdata": {"rt": [3127, 6296, 9154, 11262, 13411, 15573, 18022, 20246, 22954, 24786, 26338, 29713, 31737, 39995], "recwords": ["arm", "payroll", "laser", "pistol", "temple", "star", "police", "mailman", "luggage", "casket", "missile", "basi", "basil", "juggle"], "key_times": [2540, 2836, 2994, 3127, 5034, 5284, 5457, 5642, 5763, 5941, 6080, 6296, 7846, 8039, 8275, 8503, 8691, 9154, 9721, 10425, 10563, 10787, 10881, 11056, 11262, 12582, 12727, 12876, 13065, 13173, 13308, 13411, 14673, 14981, 15211, 15423, 15573, 16087, 16332, 16520, 16723, 17736, 17846, 18022, 18595, 18774, 18846, 19039, 19213, 19315, 20024, 20246, 21441, 21673, 21888, 22012, 22184, 22385, 22480, 22954, 23878, 23979, 24223, 24358, 24478, 24639, 24786, 25287, 25473, 25611, 25743, 25846, 26040, 26181, 26338, 28997, 29191, 29312, 29466, 29713, 30801, 31005, 31123, 31300, 31489, 31737, 37499, 37694, 37888, 38039, 38298, 39206, 39651, 39849, 39995], "trial_type": "free-recall", "conditions": [12, 800, "a", 12000], "internal_node_id": "0.0-126.0-0.0", "key_presses": [65, 82, 77, 32, 80, 65, 89, 82, 79, 76, 76, 13, 76, 65, 83, 69, 82, 13, 80, 73, 83, 84, 79, 76, 13, 84, 69, 77, 80, 76, 69, 13, 83, 84, 65, 82, 13, 80, 79, 76, 73, 67, 69, 13, 77, 65, 73, 76, 77, 65, 78, 13, 76, 85, 71, 71, 65, 71, 69, 13, 67, 65, 83, 75, 69, 84, 13, 77, 73, 83, 83, 73, 76, 69, 13, 66, 65, 83, 73, 186, 66, 65, 83, 73, 76, 13, 74, 85, 71, 71, 76, 87, 8, 69, 13], "trial": 4, "time_elapsed": 785308, "type": "FREE_RECALL", "trial_index": 171}, "uniqueid": "MTK2339:3EKVH9QMEZB5BYPK0XRDUQX3YECD2E", "dateTime": 1516990603136}, {"current_trial": 172, "trialdata": {"rt": 1353, "trial_type": "text", "internal_node_id": "0.0-127.0", "time_elapsed": 788681, "key_press": 32, "type": "INSTRUCTIONS", "trial_index": 172}, "uniqueid": "MTK2339:3EKVH9QMEZB5BYPK0XRDUQX3YECD2E", "dateTime": 1516990606497}, {"current_trial": 173, "trialdata": {"rt": [4758, 8521], "trial_type": "math-distractor", "key_times": [4221, 4420, 4758, 7904, 8182, 8521], "responses": ["12", "13"], "num2": [1, 1, 7], "num3": [5, 7, 7], "conditions": [24, 800, "a", 12000], "internal_node_id": "0.0-128.0", "key_presses": [97, 98, 13, 97, 99, 13], "trial": 5, "time_elapsed": 802689, "type": "DISTRACTOR", "trial_index": 173, "num1": [6, 5, 8]}, "uniqueid": "MTK2339:3EKVH9QMEZB5BYPK0XRDUQX3YECD2E", "dateTime": 1516990620505}, {"current_trial": 174, "trialdata": {"rt": -1, "trial_type": "single-stim", "stimulus": "<p id=\"stim\">10</p>", "internal_node_id": "0.0-129.0-0.0", "time_elapsed": 805691, "key_press": -1, "trial_index": 174}, "uniqueid": "MTK2339:3EKVH9QMEZB5BYPK0XRDUQX3YECD2E", "dateTime": 1516990623507}, {"current_trial": 175, "trialdata": {"rt": -1, "trial_type": "single-stim", "stimulus": "<p id=\"stim\">9</p>", "internal_node_id": "0.0-129.0-1.0", "time_elapsed": 806692, "key_press": -1, "trial_index": 175}, "uniqueid": "MTK2339:3EKVH9QMEZB5BYPK0XRDUQX3YECD2E", "dateTime": 1516990624508}, {"current_trial": 176, "trialdata": {"rt": -1, "trial_type": "single-stim", "stimulus": "<p id=\"stim\">8</p>", "internal_node_id": "0.0-129.0-2.0", "time_elapsed": 807692, "key_press": -1, "trial_index": 176}, "uniqueid": "MTK2339:3EKVH9QMEZB5BYPK0XRDUQX3YECD2E", "dateTime": 1516990625508}, {"current_trial": 177, "trialdata": {"rt": -1, "trial_type": "single-stim", "stimulus": "<p id=\"stim\">7</p>", "internal_node_id": "0.0-129.0-3.0", "time_elapsed": 808692, "key_press": -1, "trial_index": 177}, "uniqueid": "MTK2339:3EKVH9QMEZB5BYPK0XRDUQX3YECD2E", "dateTime": 1516990626508}, {"current_trial": 178, "trialdata": {"rt": -1, "trial_type": "single-stim", "stimulus": "<p id=\"stim\">6</p>", "internal_node_id": "0.0-129.0-4.0", "time_elapsed": 809693, "key_press": -1, "trial_index": 178}, "uniqueid": "MTK2339:3EKVH9QMEZB5BYPK0XRDUQX3YECD2E", "dateTime": 1516990627509}, {"current_trial": 179, "trialdata": {"rt": -1, "trial_type": "single-stim", "stimulus": "<p id=\"stim\">5</p>", "internal_node_id": "0.0-129.0-5.0", "time_elapsed": 810693, "key_press": -1, "trial_index": 179}, "uniqueid": "MTK2339:3EKVH9QMEZB5BYPK0XRDUQX3YECD2E", "dateTime": 1516990628509}, {"current_trial": 180, "trialdata": {"rt": -1, "trial_type": "single-stim", "stimulus": "<p id=\"stim\">4</p>", "internal_node_id": "0.0-129.0-6.0", "time_elapsed": 811693, "key_press": -1, "trial_index": 180}, "uniqueid": "MTK2339:3EKVH9QMEZB5BYPK0XRDUQX3YECD2E", "dateTime": 1516990629509}, {"current_trial": 181, "trialdata": {"rt": -1, "trial_type": "single-stim", "stimulus": "<p id=\"stim\">3</p>", "internal_node_id": "0.0-129.0-7.0", "time_elapsed": 812694, "key_press": -1, "trial_index": 181}, "uniqueid": "MTK2339:3EKVH9QMEZB5BYPK0XRDUQX3YECD2E", "dateTime": 1516990630510}, {"current_trial": 182, "trialdata": {"rt": -1, "trial_type": "single-stim", "stimulus": "<p id=\"stim\">2</p>", "internal_node_id": "0.0-129.0-8.0", "time_elapsed": 813694, "key_press": -1, "trial_index": 182}, "uniqueid": "MTK2339:3EKVH9QMEZB5BYPK0XRDUQX3YECD2E", "dateTime": 1516990631510}, {"current_trial": 183, "trialdata": {"rt": -1, "trial_type": "single-stim", "stimulus": "<p id=\"stim\">1</p>", "internal_node_id": "0.0-129.0-9.0", "time_elapsed": 814694, "key_press": -1, "trial_index": 183}, "uniqueid": "MTK2339:3EKVH9QMEZB5BYPK0XRDUQX3YECD2E", "dateTime": 1516990632510}, {"current_trial": 184, "trialdata": {"rt": -1, "trial_type": "single-stim", "stimulus": "<p id=\"stim\">+</p>", "internal_node_id": "0.0-130.0-0.0", "time_elapsed": 816194, "key_press": -1, "type": "FIXATION", "trial_index": 184}, "uniqueid": "MTK2339:3EKVH9QMEZB5BYPK0XRDUQX3YECD2E", "dateTime": 1516990634010}, {"current_trial": 185, "trialdata": {"rt": -1000, "trial_type": "single-audio", "word": "rifle", "stimulus": "/static/audio/wordpool/RIFLE.wav", "conditions": [24, 800, "a", 12000], "internal_node_id": "0.0-131.0", "trial": 5, "time_elapsed": 818186, "serialpos": 0, "key_press": -1, "wordID": 1191, "type": "PRES_AUD", "trial_index": 185}, "uniqueid": "MTK2339:3EKVH9QMEZB5BYPK0XRDUQX3YECD2E", "dateTime": 1516990636002}, {"current_trial": 186, "trialdata": {"rt": -1000, "trial_type": "single-audio", "word": "cattle", "stimulus": "/static/audio/wordpool/CATTLE.wav", "conditions": [24, 800, "a", 12000], "internal_node_id": "0.0-132.0", "trial": 5, "time_elapsed": 820046, "serialpos": 1, "key_press": -1, "wordID": 260, "type": "PRES_AUD", "trial_index": 186}, "uniqueid": "MTK2339:3EKVH9QMEZB5BYPK0XRDUQX3YECD2E", "dateTime": 1516990637862}, {"current_trial": 187, "trialdata": {"rt": -1000, "trial_type": "single-audio", "word": "asia", "stimulus": "/static/audio/wordpool/ASIA.wav", "conditions": [24, 800, "a", 12000], "internal_node_id": "0.0-133.0", "trial": 5, "time_elapsed": 821709, "serialpos": 2, "key_press": -1, "wordID": 45, "type": "PRES_AUD", "trial_index": 187}, "uniqueid": "MTK2339:3EKVH9QMEZB5BYPK0XRDUQX3YECD2E", "dateTime": 1516990639525}, {"current_trial": 188, "trialdata": {"rt": -1000, "trial_type": "single-audio", "word": "hand", "stimulus": "/static/audio/wordpool/HAND.wav", "conditions": [24, 800, "a", 12000], "internal_node_id": "0.0-134.0", "trial": 5, "time_elapsed": 823580, "serialpos": 3, "key_press": -1, "wordID": 682, "type": "PRES_AUD", "trial_index": 188}, "uniqueid": "MTK2339:3EKVH9QMEZB5BYPK0XRDUQX3YECD2E", "dateTime": 1516990641396}, {"current_trial": 189, "trialdata": {"rt": -1000, "trial_type": "single-audio", "word": "ox", "stimulus": "/static/audio/wordpool/OX.wav", "conditions": [24, 800, "a", 12000], "internal_node_id": "0.0-135.0", "trial": 5, "time_elapsed": 825548, "serialpos": 4, "key_press": -1, "wordID": 993, "type": "PRES_AUD", "trial_index": 189}, "uniqueid": "MTK2339:3EKVH9QMEZB5BYPK0XRDUQX3YECD2E", "dateTime": 1516990643364}, {"current_trial": 190, "trialdata": {"rt": -1000, "trial_type": "single-audio", "word": "coffee", "stimulus": "/static/audio/wordpool/COFFEE.wav", "conditions": [24, 800, "a", 12000], "internal_node_id": "0.0-136.0", "trial": 5, "time_elapsed": 827359, "serialpos": 5, "key_press": -1, "wordID": 340, "type": "PRES_AUD", "trial_index": 190}, "uniqueid": "MTK2339:3EKVH9QMEZB5BYPK0XRDUQX3YECD2E", "dateTime": 1516990645175}, {"current_trial": 191, "trialdata": {"rt": -1000, "trial_type": "single-audio", "word": "drill", "stimulus": "/static/audio/wordpool/DRILL.wav", "conditions": [24, 800, "a", 12000], "internal_node_id": "0.0-137.0", "trial": 5, "time_elapsed": 829142, "serialpos": 6, "key_press": -1, "wordID": 496, "type": "PRES_AUD", "trial_index": 191}, "uniqueid": "MTK2339:3EKVH9QMEZB5BYPK0XRDUQX3YECD2E", "dateTime": 1516990646958}, {"current_trial": 192, "trialdata": {"rt": -1000, "trial_type": "single-audio", "word": "japan", "stimulus": "/static/audio/wordpool/JAPAN.wav", "conditions": [24, 800, "a", 12000], "internal_node_id": "0.0-138.0", "trial": 5, "time_elapsed": 831096, "serialpos": 7, "key_press": -1, "wordID": 748, "type": "PRES_AUD", "trial_index": 192}, "uniqueid": "MTK2339:3EKVH9QMEZB5BYPK0XRDUQX3YECD2E", "dateTime": 1516990648912}, {"current_trial": 193, "trialdata": {"rt": -1000, "trial_type": "single-audio", "word": "passage", "stimulus": "/static/audio/wordpool/PASSAGE.wav", "conditions": [24, 800, "a", 12000], "internal_node_id": "0.0-139.0", "trial": 5, "time_elapsed": 833073, "serialpos": 8, "key_press": -1, "wordID": 1018, "type": "PRES_AUD", "trial_index": 193}, "uniqueid": "MTK2339:3EKVH9QMEZB5BYPK0XRDUQX3YECD2E", "dateTime": 1516990650889}, {"current_trial": 194, "trialdata": {"rt": -1000, "trial_type": "single-audio", "word": "lily", "stimulus": "/static/audio/wordpool/LILY.wav", "conditions": [24, 800, "a", 12000], "internal_node_id": "0.0-140.0", "trial": 5, "time_elapsed": 834739, "serialpos": 9, "key_press": -1, "wordID": 820, "type": "PRES_AUD", "trial_index": 194}, "uniqueid": "MTK2339:3EKVH9QMEZB5BYPK0XRDUQX3YECD2E", "dateTime": 1516990652555}, {"current_trial": 195, "trialdata": {"rt": -1000, "trial_type": "single-audio", "word": "orchid", "stimulus": "/static/audio/wordpool/ORCHID.wav", "conditions": [24, 800, "a", 12000], "internal_node_id": "0.0-141.0", "trial": 5, "time_elapsed": 836418, "serialpos": 10, "key_press": -1, "wordID": 981, "type": "PRES_AUD", "trial_index": 195}, "uniqueid": "MTK2339:3EKVH9QMEZB5BYPK0XRDUQX3YECD2E", "dateTime": 1516990654234}, {"current_trial": 196, "trialdata": {"rt": -1000, "trial_type": "single-audio", "word": "sunset", "stimulus": "/static/audio/wordpool/SUNSET.wav", "conditions": [24, 800, "a", 12000], "internal_node_id": "0.0-142.0", "trial": 5, "time_elapsed": 838323, "serialpos": 11, "key_press": -1, "wordID": 1407, "type": "PRES_AUD", "trial_index": 196}, "uniqueid": "MTK2339:3EKVH9QMEZB5BYPK0XRDUQX3YECD2E", "dateTime": 1516990656139}, {"current_trial": 197, "trialdata": {"rt": -1000, "trial_type": "single-audio", "word": "beaker", "stimulus": "/static/audio/wordpool/BEAKER.wav", "conditions": [24, 800, "a", 12000], "internal_node_id": "0.0-143.0", "trial": 5, "time_elapsed": 840248, "serialpos": 12, "key_press": -1, "wordID": 103, "type": "PRES_AUD", "trial_index": 197}, "uniqueid": "MTK2339:3EKVH9QMEZB5BYPK0XRDUQX3YECD2E", "dateTime": 1516990658064}, {"current_trial": 198, "trialdata": {"rt": -1000, "trial_type": "single-audio", "word": "flask", "stimulus": "/static/audio/wordpool/FLASK.wav", "conditions": [24, 800, "a", 12000], "internal_node_id": "0.0-144.0", "trial": 5, "time_elapsed": 842003, "serialpos": 13, "key_press": -1, "wordID": 575, "type": "PRES_AUD", "trial_index": 198}, "uniqueid": "MTK2339:3EKVH9QMEZB5BYPK0XRDUQX3YECD2E", "dateTime": 1516990659819}, {"current_trial": 199, "trialdata": {"rt": -1000, "trial_type": "single-audio", "word": "zipper", "stimulus": "/static/audio/wordpool/ZIPPER.wav", "conditions": [24, 800, "a", 12000], "internal_node_id": "0.0-145.0", "trial": 5, "time_elapsed": 843755, "serialpos": 14, "key_press": -1, "wordID": 1635, "type": "PRES_AUD", "trial_index": 199}, "uniqueid": "MTK2339:3EKVH9QMEZB5BYPK0XRDUQX3YECD2E", "dateTime": 1516990661571}, {"current_trial": 200, "trialdata": {"rt": -1000, "trial_type": "single-audio", "word": "picnic", "stimulus": "/static/audio/wordpool/PICNIC.wav", "conditions": [24, 800, "a", 12000], "internal_node_id": "0.0-146.0", "trial": 5, "time_elapsed": 845384, "serialpos": 15, "key_press": -1, "wordID": 1059, "type": "PRES_AUD", "trial_index": 200}, "uniqueid": "MTK2339:3EKVH9QMEZB5BYPK0XRDUQX3YECD2E", "dateTime": 1516990663200}, {"current_trial": 201, "trialdata": {"rt": -1000, "trial_type": "single-audio", "word": "subway", "stimulus": "/static/audio/wordpool/SUBWAY.wav", "conditions": [24, 800, "a", 12000], "internal_node_id": "0.0-147.0", "trial": 5, "time_elapsed": 847284, "serialpos": 16, "key_press": -1, "wordID": 1399, "type": "PRES_AUD", "trial_index": 201}, "uniqueid": "MTK2339:3EKVH9QMEZB5BYPK0XRDUQX3YECD2E", "dateTime": 1516990665100}, {"current_trial": 202, "trialdata": {"rt": -1000, "trial_type": "single-audio", "word": "glass", "stimulus": "/static/audio/wordpool/GLASS.wav", "conditions": [24, 800, "a", 12000], "internal_node_id": "0.0-148.0", "trial": 5, "time_elapsed": 848927, "serialpos": 17, "key_press": -1, "wordID": 638, "type": "PRES_AUD", "trial_index": 202}, "uniqueid": "MTK2339:3EKVH9QMEZB5BYPK0XRDUQX3YECD2E", "dateTime": 1516990666743}, {"current_trial": 203, "trialdata": {"rt": -1000, "trial_type": "single-audio", "word": "pigment", "stimulus": "/static/audio/wordpool/PIGMENT.wav", "conditions": [24, 800, "a", 12000], "internal_node_id": "0.0-149.0", "trial": 5, "time_elapsed": 850900, "serialpos": 18, "key_press": -1, "wordID": 1065, "type": "PRES_AUD", "trial_index": 203}, "uniqueid": "MTK2339:3EKVH9QMEZB5BYPK0XRDUQX3YECD2E", "dateTime": 1516990668716}, {"current_trial": 204, "trialdata": {"rt": -1000, "trial_type": "single-audio", "word": "sibling", "stimulus": "/static/audio/wordpool/SIBLING.wav", "conditions": [24, 800, "a", 12000], "internal_node_id": "0.0-150.0", "trial": 5, "time_elapsed": 852549, "serialpos": 19, "key_press": -1, "wordID": 1300, "type": "PRES_AUD", "trial_index": 204}, "uniqueid": "MTK2339:3EKVH9QMEZB5BYPK0XRDUQX3YECD2E", "dateTime": 1516990670365}, {"current_trial": 205, "trialdata": {"rt": -1000, "trial_type": "single-audio", "word": "antler", "stimulus": "/static/audio/wordpool/ANTLER.wav", "conditions": [24, 800, "a", 12000], "internal_node_id": "0.0-151.0", "trial": 5, "time_elapsed": 854267, "serialpos": 20, "key_press": -1, "wordID": 28, "type": "PRES_AUD", "trial_index": 205}, "uniqueid": "MTK2339:3EKVH9QMEZB5BYPK0XRDUQX3YECD2E", "dateTime": 1516990672083}, {"current_trial": 206, "trialdata": {"rt": -1000, "trial_type": "single-audio", "word": "carrot", "stimulus": "/static/audio/wordpool/CARROT.wav", "conditions": [24, 800, "a", 12000], "internal_node_id": "0.0-152.0", "trial": 5, "time_elapsed": 856112, "serialpos": 21, "key_press": -1, "wordID": 248, "type": "PRES_AUD", "trial_index": 206}, "uniqueid": "MTK2339:3EKVH9QMEZB5BYPK0XRDUQX3YECD2E", "dateTime": 1516990673928}, {"current_trial": 207, "trialdata": {"rt": -1000, "trial_type": "single-audio", "word": "clam", "stimulus": "/static/audio/wordpool/CLAM.wav", "conditions": [24, 800, "a", 12000], "internal_node_id": "0.0-153.0", "trial": 5, "time_elapsed": 857882, "serialpos": 22, "key_press": -1, "wordID": 314, "type": "PRES_AUD", "trial_index": 207}, "uniqueid": "MTK2339:3EKVH9QMEZB5BYPK0XRDUQX3YECD2E", "dateTime": 1516990675698}, {"current_trial": 208, "trialdata": {"rt": -1000, "trial_type": "single-audio", "word": "supper", "stimulus": "/static/audio/wordpool/SUPPER.wav", "conditions": [24, 800, "a", 12000], "internal_node_id": "0.0-154.0", "trial": 5, "time_elapsed": 859612, "serialpos": 23, "key_press": -1, "wordID": 1410, "type": "PRES_AUD", "trial_index": 208}, "uniqueid": "MTK2339:3EKVH9QMEZB5BYPK0XRDUQX3YECD2E", "dateTime": 1516990677428}, {"current_trial": 209, "trialdata": {"rt": -1, "trial_type": "single-stim", "stimulus": "", "internal_node_id": "0.0-155.0-0.0", "time_elapsed": 860892, "key_press": -1, "type": "PRE_RECALL_DELAY", "trial_index": 209}, "uniqueid": "MTK2339:3EKVH9QMEZB5BYPK0XRDUQX3YECD2E", "dateTime": 1516990678708}, {"current_trial": 210, "trialdata": {"rt": -1000, "trial_type": "single-audio", "stimulus": "/static/audio/400Hz.wav", "internal_node_id": "0.0-156.0", "time_elapsed": 861394, "key_press": -1, "type": "PRE_RECALL_ALERT", "trial_index": 210}, "uniqueid": "MTK2339:3EKVH9QMEZB5BYPK0XRDUQX3YECD2E", "dateTime": 1516990679210}, {"current_trial": 211, "trialdata": {"rt": [4741, 7072, 9410, 11519, 13010, 16462, 18405, 19559, 22870, 24423, 27648, 29071, 32715, 37229, 40139, 41679, 44403, 47641, 51309, 54049, 57308, 59005], "recwords": ["rifle", "cattle", "asia", "hand", "ox", "coffee", "drill", "japan", "passage", "subway", "lily", "orchid", "sunset", "zipper", "antler", "sibling", "carrot", "supper", "glad", "subway", "flask", "beaker"], "key_times": [3569, 4058, 4227, 4347, 4430, 4741, 6231, 6307, 6609, 6761, 6865, 6974, 7072, 8716, 8971, 9141, 9246, 9410, 11040, 11164, 11266, 11381, 11519, 12480, 12770, 13010, 14712, 14896, 15180, 15326, 15619, 15809, 16462, 17585, 17774, 17876, 18060, 18198, 18405, 18874, 19054, 19132, 19263, 19365, 19559, 21624, 21809, 22034, 22150, 22309, 22572, 22649, 22870, 23444, 23592, 23764, 23912, 24094, 24181, 24423, 26549, 26759, 26960, 27305, 27648, 28147, 28350, 28558, 28665, 28762, 28899, 29071, 31218, 31320, 31515, 31628, 31821, 32021, 32715, 35919, 36023, 36257, 36649, 36936, 37096, 37229, 39353, 39506, 39690, 39815, 39920, 40032, 40139, 40654, 40783, 40988, 41074, 41283, 41443, 41540, 41679, 43508, 43669, 43939, 44063, 44175, 44283, 44403, 46676, 46776, 46999, 47155, 47319, 47433, 47641, 50743, 50899, 51040, 51161, 51309, 52135, 52333, 52529, 52754, 52921, 53221, 53689, 53874, 54049, 56536, 56742, 56888, 57000, 57128, 57308, 57979, 58289, 58508, 58658, 58741, 58859, 59005], "trial_type": "free-recall", "conditions": [24, 800, "a", 12000], "internal_node_id": "0.0-157.0-0.0", "key_presses": [82, 73, 70, 76, 69, 13, 67, 65, 84, 84, 76, 69, 32, 65, 83, 73, 65, 13, 72, 65, 78, 68, 13, 79, 88, 13, 67, 79, 70, 70, 69, 69, 13, 68, 82, 73, 76, 76, 13, 74, 65, 80, 65, 78, 13, 80, 65, 83, 83, 65, 71, 69, 13, 83, 85, 66, 87, 65, 89, 13, 76, 73, 76, 89, 13, 79, 82, 67, 72, 73, 68, 13, 83, 85, 78, 83, 69, 84, 13, 90, 73, 80, 80, 69, 82, 13, 65, 78, 84, 76, 69, 82, 13, 83, 73, 66, 76, 73, 78, 71, 13, 67, 65, 82, 82, 79, 84, 13, 83, 85, 80, 80, 69, 82, 13, 71, 76, 65, 68, 13, 83, 85, 66, 87, 65, 84, 8, 89, 13, 70, 76, 65, 83, 75, 13, 66, 69, 65, 75, 69, 82, 13], "trial": 5, "time_elapsed": 921399, "type": "FREE_RECALL", "trial_index": 211}, "uniqueid": "MTK2339:3EKVH9QMEZB5BYPK0XRDUQX3YECD2E", "dateTime": 1516990739219}, {"current_trial": 212, "trialdata": {"rt": 1132, "trial_type": "text", "internal_node_id": "0.0-158.0", "time_elapsed": 924541, "key_press": 32, "type": "INSTRUCTIONS", "trial_index": 212}, "uniqueid": "MTK2339:3EKVH9QMEZB5BYPK0XRDUQX3YECD2E", "dateTime": 1516990742357}, {"current_trial": 213, "trialdata": {"rt": [5106, 7606, 9672], "trial_type": "math-distractor", "key_times": [4274, 4783, 5106, 7246, 7377, 7606, 9301, 9457, 9672], "responses": ["15", "11", "15"], "num2": [3, 8, 8, 7], "num3": [4, 1, 6, 4], "conditions": [12, 1600, "a", 12000], "internal_node_id": "0.0-159.0", "key_presses": [97, 101, 13, 97, 97, 13, 97, 101, 13], "trial": 6, "time_elapsed": 938546, "type": "DISTRACTOR", "trial_index": 213, "num1": [8, 2, 1, 2]}, "uniqueid": "MTK2339:3EKVH9QMEZB5BYPK0XRDUQX3YECD2E", "dateTime": 1516990756362}, {"current_trial": 214, "trialdata": {"rt": -1, "trial_type": "single-stim", "stimulus": "<p id=\"stim\">10</p>", "internal_node_id": "0.0-160.0-0.0", "time_elapsed": 941548, "key_press": -1, "trial_index": 214}, "uniqueid": "MTK2339:3EKVH9QMEZB5BYPK0XRDUQX3YECD2E", "dateTime": 1516990759364}, {"current_trial": 215, "trialdata": {"rt": -1, "trial_type": "single-stim", "stimulus": "<p id=\"stim\">9</p>", "internal_node_id": "0.0-160.0-1.0", "time_elapsed": 942551, "key_press": -1, "trial_index": 215}, "uniqueid": "MTK2339:3EKVH9QMEZB5BYPK0XRDUQX3YECD2E", "dateTime": 1516990760367}, {"current_trial": 216, "trialdata": {"rt": -1, "trial_type": "single-stim", "stimulus": "<p id=\"stim\">8</p>", "internal_node_id": "0.0-160.0-2.0", "time_elapsed": 943551, "key_press": -1, "trial_index": 216}, "uniqueid": "MTK2339:3EKVH9QMEZB5BYPK0XRDUQX3YECD2E", "dateTime": 1516990761367}, {"current_trial": 217, "trialdata": {"rt": -1, "trial_type": "single-stim", "stimulus": "<p id=\"stim\">7</p>", "internal_node_id": "0.0-160.0-3.0", "time_elapsed": 944554, "key_press": -1, "trial_index": 217}, "uniqueid": "MTK2339:3EKVH9QMEZB5BYPK0XRDUQX3YECD2E", "dateTime": 1516990762370}, {"current_trial": 218, "trialdata": {"rt": -1, "trial_type": "single-stim", "stimulus": "<p id=\"stim\">6</p>", "internal_node_id": "0.0-160.0-4.0", "time_elapsed": 945557, "key_press": -1, "trial_index": 218}, "uniqueid": "MTK2339:3EKVH9QMEZB5BYPK0XRDUQX3YECD2E", "dateTime": 1516990763373}, {"current_trial": 219, "trialdata": {"rt": -1, "trial_type": "single-stim", "stimulus": "<p id=\"stim\">5</p>", "internal_node_id": "0.0-160.0-5.0", "time_elapsed": 946559, "key_press": -1, "trial_index": 219}, "uniqueid": "MTK2339:3EKVH9QMEZB5BYPK0XRDUQX3YECD2E", "dateTime": 1516990764375}, {"current_trial": 220, "trialdata": {"rt": -1, "trial_type": "single-stim", "stimulus": "<p id=\"stim\">4</p>", "internal_node_id": "0.0-160.0-6.0", "time_elapsed": 947560, "key_press": -1, "trial_index": 220}, "uniqueid": "MTK2339:3EKVH9QMEZB5BYPK0XRDUQX3YECD2E", "dateTime": 1516990765376}, {"current_trial": 221, "trialdata": {"rt": -1, "trial_type": "single-stim", "stimulus": "<p id=\"stim\">3</p>", "internal_node_id": "0.0-160.0-7.0", "time_elapsed": 948561, "key_press": -1, "trial_index": 221}, "uniqueid": "MTK2339:3EKVH9QMEZB5BYPK0XRDUQX3YECD2E", "dateTime": 1516990766377}, {"current_trial": 222, "trialdata": {"rt": -1, "trial_type": "single-stim", "stimulus": "<p id=\"stim\">2</p>", "internal_node_id": "0.0-160.0-8.0", "time_elapsed": 949562, "key_press": -1, "trial_index": 222}, "uniqueid": "MTK2339:3EKVH9QMEZB5BYPK0XRDUQX3YECD2E", "dateTime": 1516990767382}, {"current_trial": 223, "trialdata": {"rt": -1, "trial_type": "single-stim", "stimulus": "<p id=\"stim\">1</p>", "internal_node_id": "0.0-160.0-9.0", "time_elapsed": 950566, "key_press": -1, "trial_index": 223}, "uniqueid": "MTK2339:3EKVH9QMEZB5BYPK0XRDUQX3YECD2E", "dateTime": 1516990768382}, {"current_trial": 224, "trialdata": {"rt": -1, "trial_type": "single-stim", "stimulus": "<p id=\"stim\">+</p>", "internal_node_id": "0.0-161.0-0.0", "time_elapsed": 952066, "key_press": -1, "type": "FIXATION", "trial_index": 224}, "uniqueid": "MTK2339:3EKVH9QMEZB5BYPK0XRDUQX3YECD2E", "dateTime": 1516990769882}, {"current_trial": 225, "trialdata": {"rt": -1000, "trial_type": "single-audio", "word": "cafe", "stimulus": "/static/audio/wordpool/CAFE.wav", "conditions": [12, 1600, "a", 12000], "internal_node_id": "0.0-162.0", "trial": 6, "time_elapsed": 954708, "serialpos": 0, "key_press": -1, "wordID": 215, "type": "PRES_AUD", "trial_index": 225}, "uniqueid": "MTK2339:3EKVH9QMEZB5BYPK0XRDUQX3YECD2E", "dateTime": 1516990772524}, {"current_trial": 226, "trialdata": {"rt": -1000, "trial_type": "single-audio", "word": "primate", "stimulus": "/static/audio/wordpool/PRIMATE.wav", "conditions": [12, 1600, "a", 12000], "internal_node_id": "0.0-163.0", "trial": 6, "time_elapsed": 957389, "serialpos": 1, "key_press": -1, "wordID": 1122, "type": "PRES_AUD", "trial_index": 226}, "uniqueid": "MTK2339:3EKVH9QMEZB5BYPK0XRDUQX3YECD2E", "dateTime": 1516990775205}, {"current_trial": 227, "trialdata": {"rt": -1000, "trial_type": "single-audio", "word": "author", "stimulus": "/static/audio/wordpool/AUTHOR.wav", "conditions": [12, 1600, "a", 12000], "internal_node_id": "0.0-164.0", "trial": 6, "time_elapsed": 960138, "serialpos": 2, "key_press": -1, "wordID": 60, "type": "PRES_AUD", "trial_index": 227}, "uniqueid": "MTK2339:3EKVH9QMEZB5BYPK0XRDUQX3YECD2E", "dateTime": 1516990777954}, {"current_trial": 228, "trialdata": {"rt": -1000, "trial_type": "single-audio", "word": "cookbook", "stimulus": "/static/audio/wordpool/COOKBOOK.wav", "conditions": [12, 1600, "a", 12000], "internal_node_id": "0.0-165.0", "trial": 6, "time_elapsed": 962637, "serialpos": 3, "key_press": -1, "wordID": 372, "type": "PRES_AUD", "trial_index": 228}, "uniqueid": "MTK2339:3EKVH9QMEZB5BYPK0XRDUQX3YECD2E", "dateTime": 1516990780453}, {"current_trial": 229, "trialdata": {"rt": -1000, "trial_type": "single-audio", "word": "mammal", "stimulus": "/static/audio/wordpool/MAMMAL.wav", "conditions": [12, 1600, "a", 12000], "internal_node_id": "0.0-166.0", "trial": 6, "time_elapsed": 965234, "serialpos": 4, "key_press": -1, "wordID": 860, "type": "PRES_AUD", "trial_index": 229}, "uniqueid": "MTK2339:3EKVH9QMEZB5BYPK0XRDUQX3YECD2E", "dateTime": 1516990783050}, {"current_trial": 230, "trialdata": {"rt": -1000, "trial_type": "single-audio", "word": "spider", "stimulus": "/static/audio/wordpool/SPIDER.wav", "conditions": [12, 1600, "a", 12000], "internal_node_id": "0.0-167.0", "trial": 6, "time_elapsed": 967913, "serialpos": 5, "key_press": -1, "wordID": 1350, "type": "PRES_AUD", "trial_index": 230}, "uniqueid": "MTK2339:3EKVH9QMEZB5BYPK0XRDUQX3YECD2E", "dateTime": 1516990785729}, {"current_trial": 231, "trialdata": {"rt": -1000, "trial_type": "single-audio", "word": "sunrise", "stimulus": "/static/audio/wordpool/SUNRISE.wav", "conditions": [12, 1600, "a", 12000], "internal_node_id": "0.0-168.0", "trial": 6, "time_elapsed": 970333, "serialpos": 6, "key_press": -1, "wordID": 1406, "type": "PRES_AUD", "trial_index": 231}, "uniqueid": "MTK2339:3EKVH9QMEZB5BYPK0XRDUQX3YECD2E", "dateTime": 1516990788149}, {"current_trial": 232, "trialdata": {"rt": -1000, "trial_type": "single-audio", "word": "blouse", "stimulus": "/static/audio/wordpool/BLOUSE.wav", "conditions": [12, 1600, "a", 12000], "internal_node_id": "0.0-169.0", "trial": 6, "time_elapsed": 973121, "serialpos": 7, "key_press": -1, "wordID": 138, "type": "PRES_AUD", "trial_index": 232}, "uniqueid": "MTK2339:3EKVH9QMEZB5BYPK0XRDUQX3YECD2E", "dateTime": 1516990790937}, {"current_trial": 233, "trialdata": {"rt": -1000, "trial_type": "single-audio", "word": "boyfriend", "stimulus": "/static/audio/wordpool/BOYFRIEND.wav", "conditions": [12, 1600, "a", 12000], "internal_node_id": "0.0-170.0", "trial": 6, "time_elapsed": 975606, "serialpos": 8, "key_press": -1, "wordID": 161, "type": "PRES_AUD", "trial_index": 233}, "uniqueid": "MTK2339:3EKVH9QMEZB5BYPK0XRDUQX3YECD2E", "dateTime": 1516990793422}, {"current_trial": 234, "trialdata": {"rt": -1000, "trial_type": "single-audio", "word": "friend", "stimulus": "/static/audio/wordpool/FRIEND.wav", "conditions": [12, 1600, "a", 12000], "internal_node_id": "0.0-171.0", "trial": 6, "time_elapsed": 978319, "serialpos": 9, "key_press": -1, "wordID": 605, "type": "PRES_AUD", "trial_index": 234}, "uniqueid": "MTK2339:3EKVH9QMEZB5BYPK0XRDUQX3YECD2E", "dateTime": 1516990796135}, {"current_trial": 235, "trialdata": {"rt": -1000, "trial_type": "single-audio", "word": "jungle", "stimulus": "/static/audio/wordpool/JUNGLE.wav", "conditions": [12, 1600, "a", 12000], "internal_node_id": "0.0-172.0", "trial": 6, "time_elapsed": 980826, "serialpos": 10, "key_press": -1, "wordID": 763, "type": "PRES_AUD", "trial_index": 235}, "uniqueid": "MTK2339:3EKVH9QMEZB5BYPK0XRDUQX3YECD2E", "dateTime": 1516990798642}, {"current_trial": 236, "trialdata": {"rt": -1000, "trial_type": "single-audio", "word": "camel", "stimulus": "/static/audio/wordpool/CAMEL.wav", "conditions": [12, 1600, "a", 12000], "internal_node_id": "0.0-173.0", "trial": 6, "time_elapsed": 983575, "serialpos": 11, "key_press": -1, "wordID": 222, "type": "PRES_AUD", "trial_index": 236}, "uniqueid": "MTK2339:3EKVH9QMEZB5BYPK0XRDUQX3YECD2E", "dateTime": 1516990801391}, {"current_trial": 237, "trialdata": {"rt": -1, "trial_type": "single-stim", "stimulus": "", "internal_node_id": "0.0-174.0-0.0", "time_elapsed": 984854, "key_press": -1, "type": "PRE_RECALL_DELAY", "trial_index": 237}, "uniqueid": "MTK2339:3EKVH9QMEZB5BYPK0XRDUQX3YECD2E", "dateTime": 1516990802670}, {"current_trial": 238, "trialdata": {"rt": -1000, "trial_type": "single-audio", "stimulus": "/static/audio/400Hz.wav", "internal_node_id": "0.0-175.0", "time_elapsed": 985356, "key_press": -1, "type": "PRE_RECALL_ALERT", "trial_index": 238}, "uniqueid": "MTK2339:3EKVH9QMEZB5BYPK0XRDUQX3YECD2E", "dateTime": 1516990803172}, {"current_trial": 239, "trialdata": {"rt": [2378, 7139, 8220, 10660, 11829, 13762, 17677, 17876, 22473, 25477, 28422, 31035, 34309, 35750, 39383, 40637, 51203], "recwords": ["cafe", "primate", "ape", "author", "book", "cookbook", "mamma", "", "mammal", "spider", "friend", "boyfriend", "sunrise", "sunset", "camel", "water", "desert"], "key_times": [1631, 1655, 1955, 2101, 2378, 5989, 6155, 6262, 6443, 6563, 6787, 6899, 7139, 7859, 7964, 8102, 8220, 9797, 9983, 10131, 10167, 10359, 10496, 10660, 11243, 11365, 11481, 11626, 11829, 12375, 12529, 12692, 12875, 13077, 13214, 13393, 13575, 13762, 15480, 15895, 16531, 16696, 16831, 17002, 17526, 17677, 17876, 18668, 18829, 19027, 19615, 20102, 20290, 20818, 21371, 21525, 21946, 22084, 22214, 22473, 24483, 24660, 24874, 25035, 25144, 25315, 25477, 27665, 27796, 27944, 28047, 28149, 28232, 28422, 28983, 29210, 29380, 29822, 29854, 30359, 30588, 30750, 30889, 31035, 33017, 33168, 33392, 33724, 33841, 33962, 34128, 34309, 34772, 34962, 35131, 35224, 35411, 35611, 35750, 37810, 37931, 38131, 38380, 38766, 39383, 39834, 40054, 40315, 40395, 40511, 40637, 49078, 49187, 49426, 49634, 50019, 50781, 50935, 51053, 51203], "trial_type": "free-recall", "conditions": [12, 1600, "a", 12000], "internal_node_id": "0.0-176.0-0.0", "key_presses": [67, 65, 70, 69, 13, 80, 82, 73, 77, 65, 84, 69, 13, 65, 80, 69, 13, 65, 85, 84, 72, 79, 82, 13, 66, 79, 79, 75, 13, 67, 79, 79, 75, 66, 79, 79, 75, 13, 77, 83, 8, 65, 77, 77, 65, 186, 13, 77, 65, 65, 8, 77, 65, 76, 8, 8, 77, 65, 76, 13, 83, 80, 73, 68, 69, 82, 13, 70, 82, 73, 69, 78, 68, 13, 66, 79, 89, 70, 82, 73, 69, 78, 68, 13, 83, 85, 78, 82, 73, 83, 69, 13, 83, 85, 78, 83, 69, 84, 13, 67, 65, 77, 69, 76, 13, 87, 65, 84, 69, 82, 13, 68, 69, 83, 69, 84, 8, 82, 84, 13], "trial": 6, "time_elapsed": 1045363, "type": "FREE_RECALL", "trial_index": 239}, "uniqueid": "MTK2339:3EKVH9QMEZB5BYPK0XRDUQX3YECD2E", "dateTime": 1516990863191}, {"current_trial": 240, "trialdata": {"rt": 1184, "trial_type": "text", "internal_node_id": "0.0-177.0", "time_elapsed": 1048562, "key_press": 32, "type": "INSTRUCTIONS", "trial_index": 240}, "uniqueid": "MTK2339:3EKVH9QMEZB5BYPK0XRDUQX3YECD2E", "dateTime": 1516990866378}, {"current_trial": 241, "trialdata": {"rt": [5069, 9638], "trial_type": "math-distractor", "key_times": [4673, 4833, 5069, 9235, 9435, 9438, 9638], 