{"condition": 0, "counterbalance": 1672, "assignmentId": "3HL8HNGX468D92OFCC1ISD82BY2F9G", "workerId": "MTK0957", "hitId": "30OITAWPBQAV0EHRH0KG6EOVB54H9Y", "currenttrial": 626, "bonus": 0, "data": [{"uniqueid": "MTK0957:3HL8HNGX468D92OFCC1ISD82BY2F9G", "current_trial": 0, "dateTime": 1512938074203, "trialdata": {"rt": 24516, "key_press": 32, "type": "INSTRUCTIONS", "trial_type": "text", "trial_index": 0, "time_elapsed": 24519, "internal_node_id": "0.0-0.0"}}, {"uniqueid": "MTK0957:3HL8HNGX468D92OFCC1ISD82BY2F9G", "current_trial": 1, "dateTime": 1512938091849, "trialdata": {"rt": 17644, "key_press": 175, "type": "INSTRUCTIONS", "trial_type": "text", "trial_index": 1, "time_elapsed": 42166, "internal_node_id": "0.0-1.0"}}, {"uniqueid": "MTK0957:3HL8HNGX468D92OFCC1ISD82BY2F9G", "current_trial": 2, "dateTime": 1512938104116, "trialdata": {"rt": [12259], "responses": ["ocean"], "type": "AUDIO_TEST", "trial_type": "audio-test", "trial_index": 2, "time_elapsed": 54434, "internal_node_id": "0.0-2.0"}}, {"uniqueid": "MTK0957:3HL8HNGX468D92OFCC1ISD82BY2F9G", "current_trial": 3, "dateTime": 1512938112730, "trialdata": {"rt": [8610], "responses": ["crystal"], "type": "AUDIO_TEST", "trial_type": "audio-test", "trial_index": 3, "time_elapsed": 63048, "internal_node_id": "0.0-3.0"}}, {"uniqueid": "MTK0957:3HL8HNGX468D92OFCC1ISD82BY2F9G", "current_trial": 4, "dateTime": 1512938119916, "trialdata": {"rt": [7177], "responses": ["spice"], "type": "AUDIO_TEST", "trial_type": "audio-test", "trial_index": 4, "time_elapsed": 70233, "internal_node_id": "0.0-4.0"}}, {"uniqueid": "MTK0957:3HL8HNGX468D92OFCC1ISD82BY2F9G", "current_trial": 5, "dateTime": 1512938143787, "trialdata": {"rt": 23117, "responses": "{\"Q0\":\"02:30\",\"Q1\":\"07:00\",\"Q2\":\"4\"}", "type": "SLEEP_SURVEY", "trial_type": "survey-text", "trial_index": 5, "time_elapsed": 94105, "internal_node_id": "0.0-5.0"}}, {"uniqueid": "MTK0957:3HL8HNGX468D92OFCC1ISD82BY2F9G", "current_trial": 6, "dateTime": 1512938181089, "trialdata": {"rt": 36300, "key_press": 32, "type": "INSTRUCTIONS", "trial_type": "text", "trial_index": 6, "time_elapsed": 131406, "internal_node_id": "0.0-6.0"}}, {"uniqueid": "MTK0957:3HL8HNGX468D92OFCC1ISD82BY2F9G", "current_trial": 7, "dateTime": 1512938225240, "trialdata": {"rt": 43649, "key_press": 32, "type": "INSTRUCTIONS", "trial_type": "text", "trial_index": 7, "time_elapsed": 175558, "internal_node_id": "0.0-7.0"}}, {"uniqueid": "MTK0957:3HL8HNGX468D92OFCC1ISD82BY2F9G", "current_trial": 8, "dateTime": 1512938234638, "trialdata": {"rt": 8896, "key_press": 32, "type": "INSTRUCTIONS", "trial_type": "text", "trial_index": 8, "time_elapsed": 184956, "internal_node_id": "0.0-8.0"}}, {"uniqueid": "MTK0957:3HL8HNGX468D92OFCC1ISD82BY2F9G", "current_trial": 9, "dateTime": 1512938253645, "trialdata": {"rt": [6521], "responses": ["21"], "num1": [9, 9], "num2": [3, 2], "num3": [9, 4], "type": "DISTRACTOR", "conditions": [18, 1200, "v", 18000], "trial": 0, "trial_type": "math-distractor", "trial_index": 9, "time_elapsed": 203963, "internal_node_id": "0.0-9.0"}}, {"uniqueid": "MTK0957:3HL8HNGX468D92OFCC1ISD82BY2F9G", "current_trial": 10, "dateTime": 1512938256648, "trialdata": {"rt": -1, "stimulus": "<p id=\"stim\">10</p>", "key_press": -1, "trial_type": "single-stim", "trial_index": 10, "time_elapsed": 206966, "internal_node_id": "0.0-10.0-0.0"}}, {"uniqueid": "MTK0957:3HL8HNGX468D92OFCC1ISD82BY2F9G", "current_trial": 11, "dateTime": 1512938257649, "trialdata": {"rt": -1, "stimulus": "<p id=\"stim\">9</p>", "key_press": -1, "trial_type": "single-stim", "trial_index": 11, "time_elapsed": 207967, "internal_node_id": "0.0-10.0-1.0"}}, {"uniqueid": "MTK0957:3HL8HNGX468D92OFCC1ISD82BY2F9G", "current_trial": 12, "dateTime": 1512938258650, "trialdata": {"rt": -1, "stimulus": "<p id=\"stim\">8</p>", "key_press": -1, "trial_type": "single-stim", "trial_index": 12, "time_elapsed": 208968, "internal_node_id": "0.0-10.0-2.0"}}, {"uniqueid": "MTK0957:3HL8HNGX468D92OFCC1ISD82BY2F9G", "current_trial": 13, "dateTime": 1512938259652, "trialdata": {"rt": -1, "stimulus": "<p id=\"stim\">7</p>", "key_press": -1, "trial_type": "single-stim", "trial_index": 13, "time_elapsed": 209970, "internal_node_id": "0.0-10.0-3.0"}}, {"uniqueid": "MTK0957:3HL8HNGX468D92OFCC1ISD82BY2F9G", "current_trial": 14, "dateTime": 1512938260655, "trialdata": {"rt": -1, "stimulus": "<p id=\"stim\">6</p>", "key_press": -1, "trial_type": "single-stim", "trial_index": 14, "time_elapsed": 210973, "internal_node_id": "0.0-10.0-4.0"}}, {"uniqueid": "MTK0957:3HL8HNGX468D92OFCC1ISD82BY2F9G", "current_trial": 15, "dateTime": 1512938261658, "trialdata": {"rt": -1, "stimulus": "<p id=\"stim\">5</p>", "key_press": -1, "trial_type": "single-stim", "trial_index": 15, "time_elapsed": 211975, "internal_node_id": "0.0-10.0-5.0"}}, {"uniqueid": "MTK0957:3HL8HNGX468D92OFCC1ISD82BY2F9G", "current_trial": 16, "dateTime": 1512938262659, "trialdata": {"rt": -1, "stimulus": "<p id=\"stim\">4</p>", "key_press": -1, "trial_type": "single-stim", "trial_index": 16, "time_elapsed": 212977, "internal_node_id": "0.0-10.0-6.0"}}, {"uniqueid": "MTK0957:3HL8HNGX468D92OFCC1ISD82BY2F9G", "current_trial": 17, "dateTime": 1512938263661, "trialdata": {"rt": -1, "stimulus": "<p id=\"stim\">3</p>", "key_press": -1, "trial_type": "single-stim", "trial_index": 17, "time_elapsed": 213979, "internal_node_id": "0.0-10.0-7.0"}}, {"uniqueid": "MTK0957:3HL8HNGX468D92OFCC1ISD82BY2F9G", "current_trial": 18, "dateTime": 1512938264662, "trialdata": {"rt": -1, "stimulus": "<p id=\"stim\">2</p>", "key_press": -1, "trial_type": "single-stim", "trial_index": 18, "time_elapsed": 214980, "internal_node_id": "0.0-10.0-8.0"}}, {"uniqueid": "MTK0957:3HL8HNGX468D92OFCC1ISD82BY2F9G", "current_trial": 19, "dateTime": 1512938265664, "trialdata": {"rt": -1, "stimulus": "<p id=\"stim\">1</p>", "key_press": -1, "trial_type": "single-stim", "trial_index": 19, "time_elapsed": 215982, "internal_node_id": "0.0-10.0-9.0"}}, {"uniqueid": "MTK0957:3HL8HNGX468D92OFCC1ISD82BY2F9G", "current_trial": 20, "dateTime": 1512938267166, "trialdata": {"rt": -1, "stimulus": "<p id=\"stim\">+</p>", "key_press": -1, "type": "FIXATION", "trial_type": "single-stim", "trial_index": 20, "time_elapsed": 217483, "internal_node_id": "0.0-11.0-0.0"}}, {"uniqueid": "MTK0957:3HL8HNGX468D92OFCC1ISD82BY2F9G", "current_trial": 21, "dateTime": 1512938268367, "trialdata": {"rt": -1, "stimulus": "<p id=\"stim\">NURSE</p>", "key_press": -1, "type": "PRES_VIS", "word": "nurse", "wordID": 962, "conditions": [18, 1200, "v", 18000], "trial": 0, "serialpos": 0, "trial_type": "single-stim", "trial_index": 21, "time_elapsed": 218685, "internal_node_id": "0.0-12.0"}}, {"uniqueid": "MTK0957:3HL8HNGX468D92OFCC1ISD82BY2F9G", "current_trial": 22, "dateTime": 1512938270597, "trialdata": {"rt": -1, "stimulus": "<p id=\"stim\">BEAVER</p>", "key_press": -1, "type": "PRES_VIS", "word": "beaver", "wordID": 108, "conditions": [18, 1200, "v", 18000], "trial": 0, "serialpos": 1, "trial_type": "single-stim", "trial_index": 22, "time_elapsed": 220915, "internal_node_id": "0.0-13.0"}}, {"uniqueid": "MTK0957:3HL8HNGX468D92OFCC1ISD82BY2F9G", "current_trial": 23, "dateTime": 1512938272778, "trialdata": {"rt": -1, "stimulus": "<p id=\"stim\">NIGHTGOWN</p>", "key_press": -1, "type": "PRES_VIS", "word": "nightgown", "wordID": 952, "conditions": [18, 1200, "v", 18000], "trial": 0, "serialpos": 2, "trial_type": "single-stim", "trial_index": 23, "time_elapsed": 223096, "internal_node_id": "0.0-14.0"}}, {"uniqueid": "MTK0957:3HL8HNGX468D92OFCC1ISD82BY2F9G", "current_trial": 24, "dateTime": 1512938275105, "trialdata": {"rt": -1, "stimulus": "<p id=\"stim\">FRAME</p>", "key_press": -1, "type": "PRES_VIS", "word": "frame", "wordID": 599, "conditions": [18, 1200, "v", 18000], "trial": 0, "serialpos": 3, "trial_type": "single-stim", "trial_index": 24, "time_elapsed": 225423, "internal_node_id": "0.0-15.0"}}, {"uniqueid": "MTK0957:3HL8HNGX468D92OFCC1ISD82BY2F9G", "current_trial": 25, "dateTime": 1512938277425, "trialdata": {"rt": -1, "stimulus": "<p id=\"stim\">TUNNEL</p>", "key_press": -1, "type": "PRES_VIS", "word": "tunnel", "wordID": 1518, "conditions": [18, 1200, "v", 18000], "trial": 0, "serialpos": 4, "trial_type": "single-stim", "trial_index": 25, "time_elapsed": 227743, "internal_node_id": "0.0-16.0"}}, {"uniqueid": "MTK0957:3HL8HNGX468D92OFCC1ISD82BY2F9G", "current_trial": 26, "dateTime": 1512938279741, "trialdata": {"rt": -1, "stimulus": "<p id=\"stim\">HUMAN</p>", "key_press": -1, "type": "PRES_VIS", "word": "human", "wordID": 725, "conditions": [18, 1200, "v", 18000], "trial": 0, "serialpos": 5, "trial_type": "single-stim", "trial_index": 26, "time_elapsed": 230059, "internal_node_id": "0.0-17.0"}}, {"uniqueid": "MTK0957:3HL8HNGX468D92OFCC1ISD82BY2F9G", "current_trial": 27, "dateTime": 1512938281835, "trialdata": {"rt": -1, "stimulus": "<p id=\"stim\">COUSIN</p>", "key_press": -1, "type": "PRES_VIS", "word": "cousin", "wordID": 391, "conditions": [18, 1200, "v", 18000], "trial": 0, "serialpos": 6, "trial_type": "single-stim", "trial_index": 27, "time_elapsed": 232153, "internal_node_id": "0.0-18.0"}}, {"uniqueid": "MTK0957:3HL8HNGX468D92OFCC1ISD82BY2F9G", "current_trial": 28, "dateTime": 1512938284066, "trialdata": {"rt": -1, "stimulus": "<p id=\"stim\">LAGOON</p>", "key_press": -1, "type": "PRES_VIS", "word": "lagoon", "wordID": 794, "conditions": [18, 1200, "v", 18000], "trial": 0, "serialpos": 7, "trial_type": "single-stim", "trial_index": 28, "time_elapsed": 234384, "internal_node_id": "0.0-19.0"}}, {"uniqueid": "MTK0957:3HL8HNGX468D92OFCC1ISD82BY2F9G", "current_trial": 29, "dateTime": 1512938286265, "trialdata": {"rt": -1, "stimulus": "<p id=\"stim\">CHAPEL</p>", "key_press": -1, "type": "PRES_VIS", "word": "chapel", "wordID": 279, "conditions": [18, 1200, "v", 18000], "trial": 0, "serialpos": 8, "trial_type": "single-stim", "trial_index": 29, "time_elapsed": 236583, "internal_node_id": "0.0-20.0"}}, {"uniqueid": "MTK0957:3HL8HNGX468D92OFCC1ISD82BY2F9G", "current_trial": 30, "dateTime": 1512938288369, "trialdata": {"rt": -1, "stimulus": "<p id=\"stim\">OUTDOORS</p>", "key_press": -1, "type": "PRES_VIS", "word": "outdoors", "wordID": 986, "conditions": [18, 1200, "v", 18000], "trial": 0, "serialpos": 9, "trial_type": "single-stim", "trial_index": 30, "time_elapsed": 238686, "internal_node_id": "0.0-21.0"}}, {"uniqueid": "MTK0957:3HL8HNGX468D92OFCC1ISD82BY2F9G", "current_trial": 31, "dateTime": 1512938290474, "trialdata": {"rt": -1, "stimulus": "<p id=\"stim\">RADISH</p>", "key_press": -1, "type": "PRES_VIS", "word": "radish", "wordID": 1157, "conditions": [18, 1200, "v", 18000], "trial": 0, "serialpos": 10, "trial_type": "single-stim", "trial_index": 31, "time_elapsed": 240791, "internal_node_id": "0.0-22.0"}}, {"uniqueid": "MTK0957:3HL8HNGX468D92OFCC1ISD82BY2F9G", "current_trial": 32, "dateTime": 1512938292625, "trialdata": {"rt": -1, "stimulus": "<p id=\"stim\">BABY</p>", "key_press": -1, "type": "PRES_VIS", "word": "baby", "wordID": 63, "conditions": [18, 1200, "v", 18000], "trial": 0, "serialpos": 11, "trial_type": "single-stim", "trial_index": 32, "time_elapsed": 242942, "internal_node_id": "0.0-23.0"}}, {"uniqueid": "MTK0957:3HL8HNGX468D92OFCC1ISD82BY2F9G", "current_trial": 33, "dateTime": 1512938294778, "trialdata": {"rt": -1, "stimulus": "<p id=\"stim\">ROCKET</p>", "key_press": -1, "type": "PRES_VIS", "word": "rocket", "wordID": 1201, "conditions": [18, 1200, "v", 18000], "trial": 0, "serialpos": 12, "trial_type": "single-stim", "trial_index": 33, "time_elapsed": 245096, "internal_node_id": "0.0-24.0"}}, {"uniqueid": "MTK0957:3HL8HNGX468D92OFCC1ISD82BY2F9G", "current_trial": 34, "dateTime": 1512938296791, "trialdata": {"rt": -1, "stimulus": "<p id=\"stim\">HOOD</p>", "key_press": -1, "type": "PRES_VIS", "word": "hood", "wordID": 713, "conditions": [18, 1200, "v", 18000], "trial": 0, "serialpos": 13, "trial_type": "single-stim", "trial_index": 34, "time_elapsed": 247109, "internal_node_id": "0.0-25.0"}}, {"uniqueid": "MTK0957:3HL8HNGX468D92OFCC1ISD82BY2F9G", "current_trial": 35, "dateTime": 1512938298954, "trialdata": {"rt": -1, "stimulus": "<p id=\"stim\">LEOPARD</p>", "key_press": -1, "type": "PRES_VIS", "word": "leopard", "wordID": 811, "conditions": [18, 1200, "v", 18000], "trial": 0, "serialpos": 14, "trial_type": "single-stim", "trial_index": 35, "time_elapsed": 249272, "internal_node_id": "0.0-26.0"}}, {"uniqueid": "MTK0957:3HL8HNGX468D92OFCC1ISD82BY2F9G", "current_trial": 36, "dateTime": 1512938301132, "trialdata": {"rt": -1, "stimulus": "<p id=\"stim\">BUGGY</p>", "key_press": -1, "type": "PRES_VIS", "word": "buggy", "wordID": 187, "conditions": [18, 1200, "v", 18000], "trial": 0, "serialpos": 15, "trial_type": "single-stim", "trial_index": 36, "time_elapsed": 251450, "internal_node_id": "0.0-27.0"}}, {"uniqueid": "MTK0957:3HL8HNGX468D92OFCC1ISD82BY2F9G", "current_trial": 37, "dateTime": 1512938303381, "trialdata": {"rt": -1, "stimulus": "<p id=\"stim\">PARTNER</p>", "key_press": -1, "type": "PRES_VIS", "word": "partner", "wordID": 1016, "conditions": [18, 1200, "v", 18000], "trial": 0, "serialpos": 16, "trial_type": "single-stim", "trial_index": 37, "time_elapsed": 253699, "internal_node_id": "0.0-28.0"}}, {"uniqueid": "MTK0957:3HL8HNGX468D92OFCC1ISD82BY2F9G", "current_trial": 38, "dateTime": 1512938305626, "trialdata": {"rt": -1, "stimulus": "<p id=\"stim\">PICTURE</p>", "key_press": -1, "type": "PRES_VIS", "word": "picture", "wordID": 1060, "conditions": [18, 1200, "v", 18000], "trial": 0, "serialpos": 17, "trial_type": "single-stim", "trial_index": 38, "time_elapsed": 255943, "internal_node_id": "0.0-29.0"}}, {"uniqueid": "MTK0957:3HL8HNGX468D92OFCC1ISD82BY2F9G", "current_trial": 39, "dateTime": 1512938307764, "trialdata": {"rt": -1, "stimulus": "", "key_press": -1, "type": "PRE_RECALL_DELAY", "trial_type": "single-stim", "trial_index": 39, "time_elapsed": 258081, "internal_node_id": "0.0-30.0-0.0"}}, {"uniqueid": "MTK0957:3HL8HNGX468D92OFCC1ISD82BY2F9G", "current_trial": 40, "dateTime": 1512938308265, "trialdata": {"rt": -1000, "stimulus": "/static/audio/400Hz.wav", "key_press": -1, "type": "PRE_RECALL_ALERT", "trial_type": "single-audio", "trial_index": 40, "time_elapsed": 258583, "internal_node_id": "0.0-31.0"}}, {"uniqueid": "MTK0957:3HL8HNGX468D92OFCC1ISD82BY2F9G", "current_trial": 41, "dateTime": 1512938368287, "trialdata": {"rt": [4851, 6475, 11115, 12618, 16998, 52324], "recwords": ["nurse", "beaver", "baby", "beaver", "lagoon", "rocket"], "type": "FREE_RECALL", "conditions": [18, 1200, "v", 18000], "trial": 0, "trial_type": "free-recall", "trial_index": 41, "time_elapsed": 318600, "internal_node_id": "0.0-32.0-0.0"}}, {"uniqueid": "MTK0957:3HL8HNGX468D92OFCC1ISD82BY2F9G", "current_trial": 42, "dateTime": 1512938371819, "trialdata": {"rt": 1530, "key_press": 32, "type": "INSTRUCTIONS", "trial_type": "text", "trial_index": 42, "time_elapsed": 322136, "internal_node_id": "0.0-33.0"}}, {"uniqueid": "MTK0957:3HL8HNGX468D92OFCC1ISD82BY2F9G", "current_trial": 43, "dateTime": 1512938391823, "trialdata": {"rt": [4325, 9692, 12929, 16197], "responses": ["12", "18", "10", "14"], "num1": [2, 5, 2, 5, 4], "num2": [1, 6, 1, 7, 2], "num3": [9, 7, 7, 2, 2], "type": "DISTRACTOR", "conditions": [18, 1200, "a", 18000], "trial": 1, "trial_type": "math-distractor", "trial_index": 43, "time_elapsed": 342141, "internal_node_id": "0.0-34.0"}}, {"uniqueid": "MTK0957:3HL8HNGX468D92OFCC1ISD82BY2F9G", "current_trial": 44, "dateTime": 1512938394825, "trialdata": {"rt": -1, "stimulus": "<p id=\"stim\">10</p>", "key_press": -1, "trial_type": "single-stim", "trial_index": 44, "time_elapsed": 345143, "internal_node_id": "0.0-35.0-0.0"}}, {"uniqueid": "MTK0957:3HL8HNGX468D92OFCC1ISD82BY2F9G", "current_trial": 45, "dateTime": 1512938395826, "trialdata": {"rt": -1, "stimulus": "<p id=\"stim\">9</p>", "key_press": -1, "trial_type": "single-stim", "trial_index": 45, "time_elapsed": 346144, "internal_node_id": "0.0-35.0-1.0"}}, {"uniqueid": "MTK0957:3HL8HNGX468D92OFCC1ISD82BY2F9G", "current_trial": 46, "dateTime": 1512938396829, "trialdata": {"rt": -1, "stimulus": "<p id=\"stim\">8</p>", "key_press": -1, "trial_type": "single-stim", "trial_index": 46, "time_elapsed": 347147, "internal_node_id": "0.0-35.0-2.0"}}, {"uniqueid": "MTK0957:3HL8HNGX468D92OFCC1ISD82BY2F9G", "current_trial": 47, "dateTime": 1512938397832, "trialdata": {"rt": -1, "stimulus": "<p id=\"stim\">7</p>", "key_press": -1, "trial_type": "single-stim", "trial_index": 47, "time_elapsed": 348149, "internal_node_id": "0.0-35.0-3.0"}}, {"uniqueid": "MTK0957:3HL8HNGX468D92OFCC1ISD82BY2F9G", "current_trial": 48, "dateTime": 1512938398833, "trialdata": {"rt": -1, "stimulus": "<p id=\"stim\">6</p>", "key_press": -1, "trial_type": "single-stim", "trial_index": 48, "time_elapsed": 349151, "internal_node_id": "0.0-35.0-4.0"}}, {"uniqueid": "MTK0957:3HL8HNGX468D92OFCC1ISD82BY2F9G", "current_trial": 49, "dateTime": 1512938399835, "trialdata": {"rt": -1, "stimulus": "<p id=\"stim\">5</p>", "key_press": -1, "trial_type": "single-stim", "trial_index": 49, "time_elapsed": 350152, "internal_node_id": "0.0-35.0-5.0"}}, {"uniqueid": "MTK0957:3HL8HNGX468D92OFCC1ISD82BY2F9G", "current_trial": 50, "dateTime": 1512938400836, "trialdata": {"rt": -1, "stimulus": "<p id=\"stim\">4</p>", "key_press": -1, "trial_type": "single-stim", "trial_index": 50, "time_elapsed": 351154, "internal_node_id": "0.0-35.0-6.0"}}, {"uniqueid": "MTK0957:3HL8HNGX468D92OFCC1ISD82BY2F9G", "current_trial": 51, "dateTime": 1512938401838, "trialdata": {"rt": -1, "stimulus": "<p id=\"stim\">3</p>", "key_press": -1, "trial_type": "single-stim", "trial_index": 51, "time_elapsed": 352156, "internal_node_id": "0.0-35.0-7.0"}}, {"uniqueid": "MTK0957:3HL8HNGX468D92OFCC1ISD82BY2F9G", "current_trial": 52, "dateTime": 1512938402839, "trialdata": {"rt": -1, "stimulus": "<p id=\"stim\">2</p>", "key_press": -1, "trial_type": "single-stim", "trial_index": 52, "time_elapsed": 353157, "internal_node_id": "0.0-35.0-8.0"}}, {"uniqueid": "MTK0957:3HL8HNGX468D92OFCC1ISD82BY2F9G", "current_trial": 53, "dateTime": 1512938403841, "trialdata": {"rt": -1, "stimulus": "<p id=\"stim\">1</p>", "key_press": -1, "trial_type": "single-stim", "trial_index": 53, "time_elapsed": 354159, "internal_node_id": "0.0-35.0-9.0"}}, {"uniqueid": "MTK0957:3HL8HNGX468D92OFCC1ISD82BY2F9G", "current_trial": 54, "dateTime": 1512938405343, "trialdata": {"rt": -1, "stimulus": "<p id=\"stim\">+</p>", "key_press": -1, "type": "FIXATION", "trial_type": "single-stim", "trial_index": 54, "time_elapsed": 355661, "internal_node_id": "0.0-36.0-0.0"}}, {"uniqueid": "MTK0957:3HL8HNGX468D92OFCC1ISD82BY2F9G", "current_trial": 55, "dateTime": 1512938407747, "trialdata": {"rt": -1000, "stimulus": "/static/audio/wordpool/OINTMENT.wav", "key_press": -1, "type": "PRES_AUD", "word": "ointment", "wordID": 973, "conditions": [18, 1200, "a", 18000], "trial": 1, "serialpos": 0, "trial_type": "single-audio", "trial_index": 55, "time_elapsed": 358065, "internal_node_id": "0.0-37.0"}}, {"uniqueid": "MTK0957:3HL8HNGX468D92OFCC1ISD82BY2F9G", "current_trial": 56, "dateTime": 1512938409994, "trialdata": {"rt": -1000, "stimulus": "/static/audio/wordpool/RIVER.wav", "key_press": -1, "type": "PRES_AUD", "word": "river", "wordID": 1193, "conditions": [18, 1200, "a", 18000], "trial": 1, "serialpos": 1, "trial_type": "single-audio", "trial_index": 56, "time_elapsed": 360312, "internal_node_id": "0.0-38.0"}}, {"uniqueid": "MTK0957:3HL8HNGX468D92OFCC1ISD82BY2F9G", "current_trial": 57, "dateTime": 1512938412135, "trialdata": {"rt": -1000, "stimulus": "/static/audio/wordpool/SISTER.wav", "key_press": -1, "type": "PRES_AUD", "word": "sister", "wordID": 1311, "conditions": [18, 1200, "a", 18000], "trial": 1, "serialpos": 2, "trial_type": "single-audio", "trial_index": 57, "time_elapsed": 362453, "internal_node_id": "0.0-39.0"}}, {"uniqueid": "MTK0957:3HL8HNGX468D92OFCC1ISD82BY2F9G", "current_trial": 58, "dateTime": 1512938414188, "trialdata": {"rt": -1000, "stimulus": "/static/audio/wordpool/KIDNEY.wav", "key_press": -1, "type": "PRES_AUD", "word": "kidney", "wordID": 775, "conditions": [18, 1200, "a", 18000], "trial": 1, "serialpos": 3, "trial_type": "single-audio", "trial_index": 58, "time_elapsed": 364506, "internal_node_id": "0.0-40.0"}}, {"uniqueid": "MTK0957:3HL8HNGX468D92OFCC1ISD82BY2F9G", "current_trial": 59, "dateTime": 1512938416257, "trialdata": {"rt": -1000, "stimulus": "/static/audio/wordpool/BIKE.wav", "key_press": -1, "type": "PRES_AUD", "word": "bike", "wordID": 124, "conditions": [18, 1200, "a", 18000], "trial": 1, "serialpos": 4, "trial_type": "single-audio", "trial_index": 59, "time_elapsed": 366575, "internal_node_id": "0.0-41.0"}}, {"uniqueid": "MTK0957:3HL8HNGX468D92OFCC1ISD82BY2F9G", "current_trial": 60, "dateTime": 1512938418518, "trialdata": {"rt": -1000, "stimulus": "/static/audio/wordpool/SCOTCH.wav", "key_press": -1, "type": "PRES_AUD", "word": "scotch", "wordID": 1250, "conditions": [18, 1200, "a", 18000], "trial": 1, "serialpos": 5, "trial_type": "single-audio", "trial_index": 60, "time_elapsed": 368836, "internal_node_id": "0.0-42.0"}}, {"uniqueid": "MTK0957:3HL8HNGX468D92OFCC1ISD82BY2F9G", "current_trial": 61, "dateTime": 1512938420676, "trialdata": {"rt": -1000, "stimulus": "/static/audio/wordpool/MARROW.wav", "key_press": -1, "type": "PRES_AUD", "word": "marrow", "wordID": 871, "conditions": [18, 1200, "a", 18000], "trial": 1, "serialpos": 6, "trial_type": "single-audio", "trial_index": 61, "time_elapsed": 370994, "internal_node_id": "0.0-43.0"}}, {"uniqueid": "MTK0957:3HL8HNGX468D92OFCC1ISD82BY2F9G", "current_trial": 62, "dateTime": 1512938422815, "trialdata": {"rt": -1000, "stimulus": "/static/audio/wordpool/SHIRT.wav", "key_press": -1, "type": "PRES_AUD", "word": "shirt", "wordID": 1286, "conditions": [18, 1200, "a", 18000], "trial": 1, "serialpos": 7, "trial_type": "single-audio", "trial_index": 62, "time_elapsed": 373133, "internal_node_id": "0.0-44.0"}}, {"uniqueid": "MTK0957:3HL8HNGX468D92OFCC1ISD82BY2F9G", "current_trial": 63, "dateTime": 1512938424976, "trialdata": {"rt": -1000, "stimulus": "/static/audio/wordpool/HAWK.wav", "key_press": -1, "type": "PRES_AUD", "word": "hawk", "wordID": 691, "conditions": [18, 1200, "a", 18000], "trial": 1, "serialpos": 8, "trial_type": "single-audio", "trial_index": 63, "time_elapsed": 375294, "internal_node_id": "0.0-45.0"}}, {"uniqueid": "MTK0957:3HL8HNGX468D92OFCC1ISD82BY2F9G", "current_trial": 64, "dateTime": 1512938427111, "trialdata": {"rt": -1000, "stimulus": "/static/audio/wordpool/RELISH.wav", "key_press": -1, "type": "PRES_AUD", "word": "relish", "wordID": 1182, "conditions": [18, 1200, "a", 18000], "trial": 1, "serialpos": 9, "trial_type": "single-audio", "trial_index": 64, "time_elapsed": 377429, "internal_node_id": "0.0-46.0"}}, {"uniqueid": "MTK0957:3HL8HNGX468D92OFCC1ISD82BY2F9G", "current_trial": 65, "dateTime": 1512938429396, "trialdata": {"rt": -1000, "stimulus": "/static/audio/wordpool/BUNNY.wav", "key_press": -1, "type": "PRES_AUD", "word": "bunny", "wordID": 197, "conditions": [18, 1200, "a", 18000], "trial": 1, "serialpos": 10, "trial_type": "single-audio", "trial_index": 65, "time_elapsed": 379714, "internal_node_id": "0.0-47.0"}}, {"uniqueid": "MTK0957:3HL8HNGX468D92OFCC1ISD82BY2F9G", "current_trial": 66, "dateTime": 1512938431680, "trialdata": {"rt": -1000, "stimulus": "/static/audio/wordpool/TEMPLE.wav", "key_press": -1, "type": "PRES_AUD", "word": "temple", "wordID": 1447, "conditions": [18, 1200, "a", 18000], "trial": 1, "serialpos": 11, "trial_type": "single-audio", "trial_index": 66, "time_elapsed": 381998, "internal_node_id": "0.0-48.0"}}, {"uniqueid": "MTK0957:3HL8HNGX468D92OFCC1ISD82BY2F9G", "current_trial": 67, "dateTime": 1512938433925, "trialdata": {"rt": -1000, "stimulus": "/static/audio/wordpool/SIBLING.wav", "key_press": -1, "type": "PRES_AUD", "word": "sibling", "wordID": 1300, "conditions": [18, 1200, "a", 18000], "trial": 1, "serialpos": 12, "trial_type": "single-audio", "trial_index": 67, "time_elapsed": 384243, "internal_node_id": "0.0-49.0"}}, {"uniqueid": "MTK0957:3HL8HNGX468D92OFCC1ISD82BY2F9G", "current_trial": 68, "dateTime": 1512938436251, "trialdata": {"rt": -1000, "stimulus": "/static/audio/wordpool/SAUSAGE.wav", "key_press": -1, "type": "PRES_AUD", "word": "sausage", "wordID": 1237, "conditions": [18, 1200, "a", 18000], "trial": 1, "serialpos": 13, "trial_type": "single-audio", "trial_index": 68, "time_elapsed": 386569, "internal_node_id": "0.0-50.0"}}, {"uniqueid": "MTK0957:3HL8HNGX468D92OFCC1ISD82BY2F9G", "current_trial": 69, "dateTime": 1512938438276, "trialdata": {"rt": -1000, "stimulus": "/static/audio/wordpool/RUG.wav", "key_press": -1, "type": "PRES_AUD", "word": "rug", "wordID": 1214, "conditions": [18, 1200, "a", 18000], "trial": 1, "serialpos": 14, "trial_type": "single-audio", "trial_index": 69, "time_elapsed": 388594, "internal_node_id": "0.0-51.0"}}, {"uniqueid": "MTK0957:3HL8HNGX468D92OFCC1ISD82BY2F9G", "current_trial": 70, "dateTime": 1512938440450, "trialdata": {"rt": -1000, "stimulus": "/static/audio/wordpool/CABIN.wav", "key_press": -1, "type": "PRES_AUD", "word": "cabin", "wordID": 210, "conditions": [18, 1200, "a", 18000], "trial": 1, "serialpos": 15, "trial_type": "single-audio", "trial_index": 70, "time_elapsed": 390768, "internal_node_id": "0.0-52.0"}}, {"uniqueid": "MTK0957:3HL8HNGX468D92OFCC1ISD82BY2F9G", "current_trial": 71, "dateTime": 1512938442835, "trialdata": {"rt": -1000, "stimulus": "/static/audio/wordpool/WHISTLE.wav", "key_press": -1, "type": "PRES_AUD", "word": "whistle", "wordID": 1605, "conditions": [18, 1200, "a", 18000], "trial": 1, "serialpos": 16, "trial_type": "single-audio", "trial_index": 71, "time_elapsed": 393153, "internal_node_id": "0.0-53.0"}}, {"uniqueid": "MTK0957:3HL8HNGX468D92OFCC1ISD82BY2F9G", "current_trial": 72, "dateTime": 1512938445080, "trialdata": {"rt": -1000, "stimulus": "/static/audio/wordpool/DAUGHTER.wav", "key_press": -1, "type": "PRES_AUD", "word": "daughter", "wordID": 441, "conditions": [18, 1200, "a", 18000], "trial": 1, "serialpos": 17, "trial_type": "single-audio", "trial_index": 72, "time_elapsed": 395398, "internal_node_id": "0.0-54.0"}}, {"uniqueid": "MTK0957:3HL8HNGX468D92OFCC1ISD82BY2F9G", "current_trial": 73, "dateTime": 1512938446323, "trialdata": {"rt": -1, "stimulus": "", "key_press": -1, "type": "PRE_RECALL_DELAY", "trial_type": "single-stim", "trial_index": 73, "time_elapsed": 396641, "internal_node_id": "0.0-55.0-0.0"}}, {"uniqueid": "MTK0957:3HL8HNGX468D92OFCC1ISD82BY2F9G", "current_trial": 74, "dateTime": 1512938446822, "trialdata": {"rt": -1000, "stimulus": "/static/audio/400Hz.wav", "key_press": -1, "type": "PRE_RECALL_ALERT", "trial_type": "single-audio", "trial_index": 74, "time_elapsed": 397140, "internal_node_id": "0.0-56.0"}}, {"uniqueid": "MTK0957:3HL8HNGX468D92OFCC1ISD82BY2F9G", "current_trial": 75, "dateTime": 1512938506836, "trialdata": {"rt": [2280, 5465, 7848, 10605, 13492, 17397, 19692, 24767, 49288], "recwords": ["sister", "sibling", "daughter", "temple", "whistle", "sausage", "bunny", "block", "scotch"], "type": "FREE_RECALL", "conditions": [18, 1200, "a", 18000], "trial": 1, "trial_type": "free-recall", "trial_index": 75, "time_elapsed": 457151, "internal_node_id": "0.0-57.0-0.0"}}, {"uniqueid": "MTK0957:3HL8HNGX468D92OFCC1ISD82BY2F9G", "current_trial": 76, "dateTime": 1512938510544, "trialdata": {"rt": 1701, "key_press": 32, "type": "INSTRUCTIONS", "trial_type": "text", "trial_index": 76, "time_elapsed": 460856, "internal_node_id": "0.0-58.0"}}, {"uniqueid": "MTK0957:3HL8HNGX468D92OFCC1ISD82BY2F9G", "current_trial": 77, "dateTime": 1512938535549, "trialdata": {"rt": [2917, 4588, 6766, 8511, 10284, 12718, 14794, 18889, 22841], "responses": ["19", "16", "18", "9", "18", "13", "19", "23", "17"], "num1": [9, 5, 8, 1, 5, 1, 7, 8, 6, 2], "num2": [4, 6, 4, 7, 8, 4, 3, 7, 8, 6], "num3": [6, 5, 6, 1, 5, 8, 9, 8, 3, 2], "type": "DISTRACTOR", "conditions": [24, 1600, "v", 24000], "trial": 2, "trial_type": "math-distractor", "trial_index": 77, "time_elapsed": 485867, "internal_node_id": "0.0-59.0"}}, {"uniqueid": "MTK0957:3HL8HNGX468D92OFCC1ISD82BY2F9G", "current_trial": 78, "dateTime": 1512938538551, "trialdata": {"rt": -1, "stimulus": "<p id=\"stim\">10</p>", "key_press": -1, "trial_type": "single-stim", "trial_index": 78, "time_elapsed": 488869, "internal_node_id": "0.0-60.0-0.0"}}, {"uniqueid": "MTK0957:3HL8HNGX468D92OFCC1ISD82BY2F9G", "current_trial": 79, "dateTime": 1512938539553, "trialdata": {"rt": -1, "stimulus": "<p id=\"stim\">9</p>", "key_press": -1, "trial_type": "single-stim", "trial_index": 79, "time_elapsed": 489871, "internal_node_id": "0.0-60.0-1.0"}}, {"uniqueid": "MTK0957:3HL8HNGX468D92OFCC1ISD82BY2F9G", "current_trial": 80, "dateTime": 1512938540554, "trialdata": {"rt": -1, "stimulus": "<p id=\"stim\">8</p>", "key_press": -1, "trial_type": "single-stim", "trial_index": 80, "time_elapsed": 490872, "internal_node_id": "0.0-60.0-2.0"}}, {"uniqueid": "MTK0957:3HL8HNGX468D92OFCC1ISD82BY2F9G", "current_trial": 81, "dateTime": 1512938541557, "trialdata": {"rt": -1, "stimulus": "<p id=\"stim\">7</p>", "key_press": -1, "trial_type": "single-stim", "trial_index": 81, "time_elapsed": 491874, "internal_node_id": "0.0-60.0-3.0"}}, {"uniqueid": "MTK0957:3HL8HNGX468D92OFCC1ISD82BY2F9G", "current_trial": 82, "dateTime": 1512938542558, "trialdata": {"rt": -1, "stimulus": "<p id=\"stim\">6</p>", "key_press": -1, "trial_type": "single-stim", "trial_index": 82, "time_elapsed": 492876, "internal_node_id": "0.0-60.0-4.0"}}, {"uniqueid": "MTK0957:3HL8HNGX468D92OFCC1ISD82BY2F9G", "current_trial": 83, "dateTime": 1512938543560, "trialdata": {"rt": -1, "stimulus": "<p id=\"stim\">5</p>", "key_press": -1, "trial_type": "single-stim", "trial_index": 83, "time_elapsed": 493878, "internal_node_id": "0.0-60.0-5.0"}}, {"uniqueid": "MTK0957:3HL8HNGX468D92OFCC1ISD82BY2F9G", "current_trial": 84, "dateTime": 1512938544561, "trialdata": {"rt": -1, "stimulus": "<p id=\"stim\">4</p>", "key_press": -1, "trial_type": "single-stim", "trial_index": 84, "time_elapsed": 494879, "internal_node_id": "0.0-60.0-6.0"}}, {"uniqueid": "MTK0957:3HL8HNGX468D92OFCC1ISD82BY2F9G", "current_trial": 85, "dateTime": 1512938545564, "trialdata": {"rt": -1, "stimulus": "<p id=\"stim\">3</p>", "key_press": -1, "trial_type": "single-stim", "trial_index": 85, "time_elapsed": 495882, "internal_node_id": "0.0-60.0-7.0"}}, {"uniqueid": "MTK0957:3HL8HNGX468D92OFCC1ISD82BY2F9G", "current_trial": 86, "dateTime": 1512938546566, "trialdata": {"rt": -1, "stimulus": "<p id=\"stim\">2</p>", "key_press": -1, "trial_type": "single-stim", "trial_index": 86, "time_elapsed": 496884, "internal_node_id": "0.0-60.0-8.0"}}, {"uniqueid": "MTK0957:3HL8HNGX468D92OFCC1ISD82BY2F9G", "current_trial": 87, "dateTime": 1512938547570, "trialdata": {"rt": -1, "stimulus": "<p id=\"stim\">1</p>", "key_press": -1, "trial_type": "single-stim", "trial_index": 87, "time_elapsed": 497885, "internal_node_id": "0.0-60.0-9.0"}}, {"uniqueid": "MTK0957:3HL8HNGX468D92OFCC1ISD82BY2F9G", "current_trial": 88, "dateTime": 1512938549071, "trialdata": {"rt": -1, "stimulus": "<p id=\"stim\">+</p>", "key_press": -1, "type": "FIXATION", "trial_type": "single-stim", "trial_index": 88, "time_elapsed": 499389, "internal_node_id": "0.0-61.0-0.0"}}, {"uniqueid": "MTK0957:3HL8HNGX468D92OFCC1ISD82BY2F9G", "current_trial": 89, "dateTime": 1512938550673, "trialdata": {"rt": -1, "stimulus": "<p id=\"stim\">NOTEBOOK</p>", "key_press": -1, "type": "PRES_VIS", "word": "notebook", "wordID": 958, "conditions": [24, 1600, "v", 24000], "trial": 2, "serialpos": 0, "trial_type": "single-stim", "trial_index": 89, "time_elapsed": 500991, "internal_node_id": "0.0-62.0"}}, {"uniqueid": "MTK0957:3HL8HNGX468D92OFCC1ISD82BY2F9G", "current_trial": 90, "dateTime": 1512938553440, "trialdata": {"rt": -1, "stimulus": "<p id=\"stim\">REPORT</p>", "key_press": -1, "type": "PRES_VIS", "word": "report", "wordID": 1183, "conditions": [24, 1600, "v", 24000], "trial": 2, "serialpos": 1, "trial_type": "single-stim", "trial_index": 90, "time_elapsed": 503758, "internal_node_id": "0.0-63.0"}}, {"uniqueid": "MTK0957:3HL8HNGX468D92OFCC1ISD82BY2F9G", "current_trial": 91, "dateTime": 1512938556050, "trialdata": {"rt": -1, "stimulus": "<p id=\"stim\">BODY</p>", "key_press": -1, "type": "PRES_VIS", "word": "body", "wordID": 144, "conditions": [24, 1600, "v", 24000], "trial": 2, "serialpos": 2, "trial_type": "single-stim", "trial_index": 91, "time_elapsed": 506368, "internal_node_id": "0.0-64.0"}}, {"uniqueid": "MTK0957:3HL8HNGX468D92OFCC1ISD82BY2F9G", "current_trial": 92, "dateTime": 1512938558823, "trialdata": {"rt": -1, "stimulus": "<p id=\"stim\">CLAM</p>", "key_press": -1, "type": "PRES_VIS", "word": "clam", "wordID": 314, "conditions": [24, 1600, "v", 24000], "trial": 2, "serialpos": 3, "trial_type": "single-stim", "trial_index": 92, "time_elapsed": 509141, "internal_node_id": "0.0-65.0"}}, {"uniqueid": "MTK0957:3HL8HNGX468D92OFCC1ISD82BY2F9G", "current_trial": 93, "dateTime": 1512938561608, "trialdata": {"rt": -1, "stimulus": "<p id=\"stim\">DINER</p>", "key_press": -1, "type": "PRES_VIS", "word": "diner", "wordID": 466, "conditions": [24, 1600, "v", 24000], "trial": 2, "serialpos": 4, "trial_type": "single-stim", "trial_index": 93, "time_elapsed": 511926, "internal_node_id": "0.0-66.0"}}, {"uniqueid": "MTK0957:3HL8HNGX468D92OFCC1ISD82BY2F9G", "current_trial": 94, "dateTime": 1512938564040, "trialdata": {"rt": -1, "stimulus": "<p id=\"stim\">SMOG</p>", "key_press": -1, "type": "PRES_VIS", "word": "smog", "wordID": 1329, "conditions": [24, 1600, "v", 24000], "trial": 2, "serialpos": 5, "trial_type": "single-stim", "trial_index": 94, "time_elapsed": 514358, "internal_node_id": "0.0-67.0"}}, {"uniqueid": "MTK0957:3HL8HNGX468D92OFCC1ISD82BY2F9G", "current_trial": 95, "dateTime": 1512938566783, "trialdata": {"rt": -1, "stimulus": "<p id=\"stim\">JURY</p>", "key_press": -1, "type": "PRES_VIS", "word": "jury", "wordID": 765, "conditions": [24, 1600, "v", 24000], "trial": 2, "serialpos": 6, "trial_type": "single-stim", "trial_index": 95, "time_elapsed": 517101, "internal_node_id": "0.0-68.0"}}, {"uniqueid": "MTK0957:3HL8HNGX468D92OFCC1ISD82BY2F9G", "current_trial": 96, "dateTime": 1512938569235, "trialdata": {"rt": -1, "stimulus": "<p id=\"stim\">FREEZER</p>", "key_press": -1, "type": "PRES_VIS", "word": "freezer", "wordID": 603, "conditions": [24, 1600, "v", 24000], "trial": 2, "serialpos": 7, "trial_type": "single-stim", "trial_index": 96, "time_elapsed": 519553, "internal_node_id": "0.0-69.0"}}, {"uniqueid": "MTK0957:3HL8HNGX468D92OFCC1ISD82BY2F9G", "current_trial": 97, "dateTime": 1512938571959, "trialdata": {"rt": -1, "stimulus": "<p id=\"stim\">POPCORN</p>", "key_press": -1, "type": "PRES_VIS", "word": "popcorn", "wordID": 1103, "conditions": [24, 1600, "v", 24000], "trial": 2, "serialpos": 8, "trial_type": "single-stim", "trial_index": 97, "time_elapsed": 522277, "internal_node_id": "0.0-70.0"}}, {"uniqueid": "MTK0957:3HL8HNGX468D92OFCC1ISD82BY2F9G", "current_trial": 98, "dateTime": 1512938574470, "trialdata": {"rt": -1, "stimulus": "<p id=\"stim\">SODA</p>", "key_press": -1, "type": "PRES_VIS", "word": "soda", "wordID": 1340, "conditions": [24, 1600, "v", 24000], "trial": 2, "serialpos": 9, "trial_type": "single-stim", "trial_index": 98, "time_elapsed": 524788, "internal_node_id": "0.0-71.0"}}, {"uniqueid": "MTK0957:3HL8HNGX468D92OFCC1ISD82BY2F9G", "current_trial": 99, "dateTime": 1512938577010, "trialdata": {"rt": -1, "stimulus": "<p id=\"stim\">SURVEY</p>", "key_press": -1, "type": "PRES_VIS", "word": "survey", "wordID": 1413, "conditions": [24, 1600, "v", 24000], "trial": 2, "serialpos": 10, "trial_type": "single-stim", "trial_index": 99, "time_elapsed": 527328, "internal_node_id": "0.0-72.0"}}, {"uniqueid": "MTK0957:3HL8HNGX468D92OFCC1ISD82BY2F9G", "current_trial": 100, "dateTime": 1512938579548, "trialdata": {"rt": -1, "stimulus": "<p id=\"stim\">ACTRESS</p>", "key_press": -1, "type": "PRES_VIS", "word": "actress", "wordID": 5, "conditions": [24, 1600, "v", 24000], "trial": 2, "serialpos": 11, "trial_type": "single-stim", "trial_index": 100, "time_elapsed": 529866, "internal_node_id": "0.0-73.0"}}, {"uniqueid": "MTK0957:3HL8HNGX468D92OFCC1ISD82BY2F9G", "current_trial": 101, "dateTime": 1512938582178, "trialdata": {"rt": -1, "stimulus": "<p id=\"stim\">MISTER</p>", "key_press": -1, "type": "PRES_VIS", "word": "mister", "wordID": 900, "conditions": [24, 1600, "v", 24000], "trial": 2, "serialpos": 12, "trial_type": "single-stim", "trial_index": 101, "time_elapsed": 532495, "internal_node_id": "0.0-74.0"}}, {"uniqueid": "MTK0957:3HL8HNGX468D92OFCC1ISD82BY2F9G", "current_trial": 102, "dateTime": 1512938584642, "trialdata": {"rt": -1, "stimulus": "<p id=\"stim\">PAPER</p>", "key_press": -1, "type": "PRES_VIS", "word": "paper", "wordID": 1010, "conditions": [24, 1600, "v", 24000], "trial": 2, "serialpos": 13, "trial_type": "single-stim", "trial_index": 102, "time_elapsed": 534960, "internal_node_id": "0.0-75.0"}}, {"uniqueid": "MTK0957:3HL8HNGX468D92OFCC1ISD82BY2F9G", "current_trial": 103, "dateTime": 1512938587163, "trialdata": {"rt": -1, "stimulus": "<p id=\"stim\">FRAGRANCE</p>", "key_press": -1, "type": "PRES_VIS", "word": "fragrance", "wordID": 598, "conditions": [24, 1600, "v", 24000], "trial": 2, "serialpos": 14, "trial_type": "single-stim", "trial_index": 103, "time_elapsed": 537481, "internal_node_id": "0.0-76.0"}}, {"uniqueid": "MTK0957:3HL8HNGX468D92OFCC1ISD82BY2F9G", "current_trial": 104, "dateTime": 1512938589918, "trialdata": {"rt": -1, "stimulus": "<p id=\"stim\">PEPPER</p>", "key_press": -1, "type": "PRES_VIS", "word": "pepper", "wordID": 1046, "conditions": [24, 1600, "v", 24000], "trial": 2, "serialpos": 15, "trial_type": "single-stim", "trial_index": 104, "time_elapsed": 540236, "internal_node_id": "0.0-77.0"}}, {"uniqueid": "MTK0957:3HL8HNGX468D92OFCC1ISD82BY2F9G", "current_trial": 105, "dateTime": 1512938592330, "trialdata": {"rt": -1, "stimulus": "<p id=\"stim\">ONION</p>", "key_press": -1, "type": "PRES_VIS", "word": "onion", "wordID": 976, "conditions": [24, 1600, "v", 24000], "trial": 2, "serialpos": 16, "trial_type": "single-stim", "trial_index": 105, "time_elapsed": 542648, "internal_node_id": "0.0-78.0"}}, {"uniqueid": "MTK0957:3HL8HNGX468D92OFCC1ISD82BY2F9G", "current_trial": 106, "dateTime": 1512938594732, "trialdata": {"rt": -1, "stimulus": "<p id=\"stim\">TILE</p>", "key_press": -1, "type": "PRES_VIS", "word": "tile", "wordID": 1467, "conditions": [24, 1600, "v", 24000], "trial": 2, "serialpos": 17, "trial_type": "single-stim", "trial_index": 106, "time_elapsed": 545050, "internal_node_id": "0.0-79.0"}}, {"uniqueid": "MTK0957:3HL8HNGX468D92OFCC1ISD82BY2F9G", "current_trial": 107, "dateTime": 1512938597299, "trialdata": {"rt": -1, "stimulus": "<p id=\"stim\">BADGE</p>", "key_press": -1, "type": "PRES_VIS", "word": "badge", "wordID": 67, "conditions": [24, 1600, "v", 24000], "trial": 2, "serialpos": 18, "trial_type": "single-stim", "trial_index": 107, "time_elapsed": 547617, "internal_node_id": "0.0-80.0"}}, {"uniqueid": "MTK0957:3HL8HNGX468D92OFCC1ISD82BY2F9G", "current_trial": 108, "dateTime": 1512938599763, "trialdata": {"rt": -1, "stimulus": "<p id=\"stim\">DRINK</p>", "key_press": -1, "type": "PRES_VIS", "word": "drink", "wordID": 497, "conditions": [24, 1600, "v", 24000], "trial": 2, "serialpos": 19, "trial_type": "single-stim", "trial_index": 108, "time_elapsed": 550081, "internal_node_id": "0.0-81.0"}}, {"uniqueid": "MTK0957:3HL8HNGX468D92OFCC1ISD82BY2F9G", "current_trial": 109, "dateTime": 1512938602440, "trialdata": {"rt": -1, "stimulus": "<p id=\"stim\">BRICK</p>", "key_press": -1, "type": "PRES_VIS", "word": "brick", "wordID": 171, "conditions": [24, 1600, "v", 24000], "trial": 2, "serialpos": 20, "trial_type": "single-stim", "trial_index": 109, "time_elapsed": 552758, "internal_node_id": "0.0-82.0"}}, {"uniqueid": "MTK0957:3HL8HNGX468D92OFCC1ISD82BY2F9G", "current_trial": 110, "dateTime": 1512938605069, "trialdata": {"rt": -1, "stimulus": "<p id=\"stim\">SCRIBBLE</p>", "key_press": -1, "type": "PRES_VIS", "word": "scribble", "wordID": 1255, "conditions": [24, 1600, "v", 24000], "trial": 2, "serialpos": 21, "trial_type": "single-stim", "trial_index": 110, "time_elapsed": 555387, "internal_node_id": "0.0-83.0"}}, {"uniqueid": "MTK0957:3HL8HNGX468D92OFCC1ISD82BY2F9G", "current_trial": 111, "dateTime": 1512938607817, "trialdata": {"rt": -1, "stimulus": "<p id=\"stim\">OUTLAW</p>", "key_press": -1, "type": "PRES_VIS", "word": "outlaw", "wordID": 988, "conditions": [24, 1600, "v", 24000], "trial": 2, "serialpos": 22, "trial_type": "single-stim", "trial_index": 111, "time_elapsed": 558135, "internal_node_id": "0.0-84.0"}}, {"uniqueid": "MTK0957:3HL8HNGX468D92OFCC1ISD82BY2F9G", "current_trial": 112, "dateTime": 1512938610393, "trialdata": {"rt": -1, "stimulus": "<p id=\"stim\">PERMIT</p>", "key_press": -1, "type": "PRES_VIS", "word": "permit", "wordID": 1050, "conditions": [24, 1600, "v", 24000], "trial": 2, "serialpos": 23, "trial_type": "single-stim", "trial_index": 112, "time_elapsed": 560711, "internal_node_id": "0.0-85.0"}}, {"uniqueid": "MTK0957:3HL8HNGX468D92OFCC1ISD82BY2F9G", "current_trial": 113, "dateTime": 1512938612690, "trialdata": {"rt": -1, "stimulus": "", "key_press": -1, "type": "PRE_RECALL_DELAY", "trial_type": "single-stim", "trial_index": 113, "time_elapsed": 563008, "internal_node_id": "0.0-86.0-0.0"}}, {"uniqueid": "MTK0957:3HL8HNGX468D92OFCC1ISD82BY2F9G", "current_trial": 114, "dateTime": 1512938613188, "trialdata": {"rt": -1000, "stimulus": "/static/audio/400Hz.wav", "key_press": -1, "type": "PRE_RECALL_ALERT", "trial_type": "single-audio", "trial_index": 114, "time_elapsed": 563506, "internal_node_id": "0.0-87.0"}}, {"uniqueid": "MTK0957:3HL8HNGX468D92OFCC1ISD82BY2F9G", "current_trial": 115, "dateTime": 1512938673201, "trialdata": {"rt": [4895, 6489, 8312, 9696, 12047, 13975, 20119, 55703], "recwords": ["smog", "clam", "notepad", "book", "scrible", "badge", "jury", "journal"], "type": "FREE_RECALL", "conditions": [24, 1600, "v", 24000], "trial": 2, "trial_type": "free-recall", "trial_index": 115, "time_elapsed": 623517, "internal_node_id": "0.0-88.0-0.0"}}, {"uniqueid": "MTK0957:3HL8HNGX468D92OFCC1ISD82BY2F9G", "current_trial": 116, "dateTime": 1512938676993, "trialdata": {"rt": 1790, "key_press": 32, "type": "INSTRUCTIONS", "trial_type": "text", "trial_index": 116, "time_elapsed": 627311, "internal_node_id": "0.0-89.0"}}, {"uniqueid": "MTK0957:3HL8HNGX468D92OFCC1ISD82BY2F9G", "current_trial": 117, "dateTime": 1512938702999, "trialdata": {"rt": [2908, 5723, 7973, 9556, 13310, 15617, 17701, 19936, 23101], "responses": ["21", "13", "20", "11", "18", "14", "21", "12", "15"], "num1": [5, 1, 7, 8, 3, 4, 7, 5, 9, 6], "num2": [8, 8, 7, 2, 8, 8, 7, 6, 4, 8], "num3": [8, 4, 6, 1, 7, 2, 7, 1, 4, 1], "type": "DISTRACTOR", "conditions": [12, 800, "v", 24000], "trial": 3, "trial_type": "math-distractor", "trial_index": 117, "time_elapsed": 653317, "internal_node_id": "0.0-90.0"}}, {"uniqueid": "MTK0957:3HL8HNGX468D92OFCC1ISD82BY2F9G", "current_trial": 118, "dateTime": 1512938706001, "trialdata": {"rt": -1, "stimulus": "<p id=\"stim\">10</p>", "key_press": -1, "trial_type": "single-stim", "trial_index": 118, "time_elapsed": 656319, "internal_node_id": "0.0-91.0-0.0"}}, {"uniqueid": "MTK0957:3HL8HNGX468D92OFCC1ISD82BY2F9G", "current_trial": 119, "dateTime": 1512938707003, "trialdata": {"rt": -1, "stimulus": "<p id=\"stim\">9</p>", "key_press": -1, "trial_type": "single-stim", "trial_index": 119, "time_elapsed": 657321, "internal_node_id": "0.0-91.0-1.0"}}, {"uniqueid": "MTK0957:3HL8HNGX468D92OFCC1ISD82BY2F9G", "current_trial": 120, "dateTime": 1512938708004, "trialdata": {"rt": -1, "stimulus": "<p id=\"stim\">8</p>", "key_press": -1, "trial_type": "single-stim", "trial_index": 120, "time_elapsed": 658322, "internal_node_id": "0.0-91.0-2.0"}}, {"uniqueid": "MTK0957:3HL8HNGX468D92OFCC1ISD82BY2F9G", "current_trial": 121, "dateTime": 1512938709009, "trialdata": {"rt": -1, "stimulus": "<p id=\"stim\">7</p>", "key_press": -1, "trial_type": "single-stim", "trial_index": 121, "time_elapsed": 659325, "internal_node_id": "0.0-91.0-3.0"}}, {"uniqueid": "MTK0957:3HL8HNGX468D92OFCC1ISD82BY2F9G", "current_trial": 122, "dateTime": 1512938710011, "trialdata": {"rt": -1, "stimulus": "<p id=\"stim\">6</p>", "key_press": -1, "trial_type": "single-stim", "trial_index": 122, "time_elapsed": 660328, "internal_node_id": "0.0-91.0-4.0"}}, {"uniqueid": "MTK0957:3HL8HNGX468D92OFCC1ISD82BY2F9G", "current_trial": 123, "dateTime": 1512938711012, "trialdata": {"rt": -1, "stimulus": "<p id=\"stim\">5</p>", "key_press": -1, "trial_type": "single-stim", "trial_index": 123, "time_elapsed": 661330, "internal_node_id": "0.0-91.0-5.0"}}, {"uniqueid": "MTK0957:3HL8HNGX468D92OFCC1ISD82BY2F9G", "current_trial": 124, "dateTime": 1512938712013, "trialdata": {"rt": -1, "stimulus": "<p id=\"stim\">4</p>", "key_press": -1, "trial_type": "single-stim", "trial_index": 124, "time_elapsed": 662331, "internal_node_id": "0.0-91.0-6.0"}}, {"uniqueid": "MTK0957:3HL8HNGX468D92OFCC1ISD82BY2F9G", "current_trial": 125, "dateTime": 1512938713015, "trialdata": {"rt": -1, "stimulus": "<p id=\"stim\">3</p>", "key_press": -1, "trial_type": "single-stim", "trial_index": 125, "time_elapsed": 663333, "internal_node_id": "0.0-91.0-7.0"}}, {"uniqueid": "MTK0957:3HL8HNGX468D92OFCC1ISD82BY2F9G", "current_trial": 126, "dateTime": 1512938714017, "trialdata": {"rt": -1, "stimulus": "<p id=\"stim\">2</p>", "key_press": -1, "trial_type": "single-stim", "trial_index": 126, "time_elapsed": 664335, "internal_node_id": "0.0-91.0-8.0"}}, {"uniqueid": "MTK0957:3HL8HNGX468D92OFCC1ISD82BY2F9G", "current_trial": 127, "dateTime": 1512938715018, "trialdata": {"rt": -1, "stimulus": "<p id=\"stim\">1</p>", "key_press": -1, "trial_type": "single-stim", "trial_index": 127, "time_elapsed": 665336, "internal_node_id": "0.0-91.0-9.0"}}, {"uniqueid": "MTK0957:3HL8HNGX468D92OFCC1ISD82BY2F9G", "current_trial": 128, "dateTime": 1512938716520, "trialdata": {"rt": -1, "stimulus": "<p id=\"stim\">+</p>", "key_press": -1, "type": "FIXATION", "trial_type": "single-stim", "trial_index": 128, "time_elapsed": 666838, "internal_node_id": "0.0-92.0-0.0"}}, {"uniqueid": "MTK0957:3HL8HNGX468D92OFCC1ISD82BY2F9G", "current_trial": 129, "dateTime": 1512938717321, "trialdata": {"rt": -1, "stimulus": "<p id=\"stim\">STAR</p>", "key_press": -1, "type": "PRES_VIS", "word": "star", "wordID": 1372, "conditions": [12, 800, "v", 24000], "trial": 3, "serialpos": 0, "trial_type": "single-stim", "trial_index": 129, "time_elapsed": 667639, "internal_node_id": "0.0-93.0"}}, {"uniqueid": "MTK0957:3HL8HNGX468D92OFCC1ISD82BY2F9G", "current_trial": 130, "dateTime": 1512938719033, "trialdata": {"rt": -1, "stimulus": "<p id=\"stim\">PROTON</p>", "key_press": -1, "type": "PRES_VIS", "word": "proton", "wordID": 1131, "conditions": [12, 800, "v", 24000], "trial": 3, "serialpos": 1, "trial_type": "single-stim", "trial_index": 130, "time_elapsed": 669351, "internal_node_id": "0.0-94.0"}}, {"uniqueid": "MTK0957:3HL8HNGX468D92OFCC1ISD82BY2F9G", "current_trial": 131, "dateTime": 1512938720842, "trialdata": {"rt": -1, "stimulus": "<p id=\"stim\">GRILL</p>", "key_press": -1, "type": "PRES_VIS", "word": "grill", "wordID": 660, "conditions": [12, 800, "v", 24000], "trial": 3, "serialpos": 2, "trial_type": "single-stim", "trial_index": 131, "time_elapsed": 671160, "internal_node_id": "0.0-95.0"}}, {"uniqueid": "MTK0957:3HL8HNGX468D92OFCC1ISD82BY2F9G", "current_trial": 132, "dateTime": 1512938722785, "trialdata": {"rt": -1, "stimulus": "<p id=\"stim\">NOMAD</p>", "key_press": -1, "type": "PRES_VIS", "word": "nomad", "wordID": 954, "conditions": [12, 800, "v", 24000], "trial": 3, "serialpos": 3, "trial_type": "single-stim", "trial_index": 132, "time_elapsed": 673103, "internal_node_id": "0.0-96.0"}}, {"uniqueid": "MTK0957:3HL8HNGX468D92OFCC1ISD82BY2F9G", "current_trial": 133, "dateTime": 1512938724772, "trialdata": {"rt": -1, "stimulus": "<p id=\"stim\">BOYFRIEND</p>", "key_press": -1, "type": "PRES_VIS", "word": "boyfriend", "wordID": 161, "conditions": [12, 800, "v", 24000], "trial": 3, "serialpos": 4, "trial_type": "single-stim", "trial_index": 133, "time_elapsed": 675089, "internal_node_id": "0.0-97.0"}}, {"uniqueid": "MTK0957:3HL8HNGX468D92OFCC1ISD82BY2F9G", "current_trial": 134, "dateTime": 1512938726514, "trialdata": {"rt": -1, "stimulus": "<p id=\"stim\">SWIMMER</p>", "key_press": -1, "type": "PRES_VIS", "word": "swimmer", "wordID": 1419, "conditions": [12, 800, "v", 24000], "trial": 3, "serialpos": 5, "trial_type": "single-stim", "trial_index": 134, "time_elapsed": 676832, "internal_node_id": "0.0-98.0"}}, {"uniqueid": "MTK0957:3HL8HNGX468D92OFCC1ISD82BY2F9G", "current_trial": 135, "dateTime": 1512938728186, "trialdata": {"rt": -1, "stimulus": "<p id=\"stim\">FRIEND</p>", "key_press": -1, "type": "PRES_VIS", "word": "friend", "wordID": 605, "conditions": [12, 800, "v", 24000], "trial": 3, "serialpos": 6, "trial_type": "single-stim", "trial_index": 135, "time_elapsed": 678504, "internal_node_id": "0.0-99.0"}}, {"uniqueid": "MTK0957:3HL8HNGX468D92OFCC1ISD82BY2F9G", "current_trial": 136, "dateTime": 1512938730083, "trialdata": {"rt": -1, "stimulus": "<p id=\"stim\">HEDGE</p>", "key_press": -1, "type": "PRES_VIS", "word": "hedge", "wordID": 698, "conditions": [12, 800, "v", 24000], "trial": 3, "serialpos": 7, "trial_type": "single-stim", "trial_index": 136, "time_elapsed": 680401, "internal_node_id": "0.0-100.0"}}, {"uniqueid": "MTK0957:3HL8HNGX468D92OFCC1ISD82BY2F9G", "current_trial": 137, "dateTime": 1512938732075, "trialdata": {"rt": -1, "stimulus": "<p id=\"stim\">TUBA</p>", "key_press": -1, "type": "PRES_VIS", "word": "tuba", "wordID": 1514, "conditions": [12, 800, "v", 24000], "trial": 3, "serialpos": 8, "trial_type": "single-stim", "trial_index": 137, "time_elapsed": 682393, "internal_node_id": "0.0-101.0"}}, {"uniqueid": "MTK0957:3HL8HNGX468D92OFCC1ISD82BY2F9G", "current_trial": 138, "dateTime": 1512938733982, "trialdata": {"rt": -1, "stimulus": "<p id=\"stim\">FLUTE</p>", "key_press": -1, "type": "PRES_VIS", "word": "flute", "wordID": 584, "conditions": [12, 800, "v", 24000], "trial": 3, "serialpos": 9, "trial_type": "single-stim", "trial_index": 138, "time_elapsed": 684300, "internal_node_id": "0.0-102.0"}}, {"uniqueid": "MTK0957:3HL8HNGX468D92OFCC1ISD82BY2F9G", "current_trial": 139, "dateTime": 1512938735817, "trialdata": {"rt": -1, "stimulus": "<p id=\"stim\">SERVANT</p>", "key_press": -1, "type": "PRES_VIS", "word": "servant", "wordID": 1270, "conditions": [12, 800, "v", 24000], "trial": 3, "serialpos": 10, "trial_type": "single-stim", "trial_index": 139, "time_elapsed": 686135, "internal_node_id": "0.0-103.0"}}, {"uniqueid": "MTK0957:3HL8HNGX468D92OFCC1ISD82BY2F9G", "current_trial": 140, "dateTime": 1512938737445, "trialdata": {"rt": -1, "stimulus": "<p id=\"stim\">SKILLET</p>", "key_press": -1, "type": "PRES_VIS", "word": "skillet", "wordID": 1316, "conditions": [12, 800, "v", 24000], "trial": 3, "serialpos": 11, "trial_type": "single-stim", "trial_index": 140, "time_elapsed": 687763, "internal_node_id": "0.0-104.0"}}, {"uniqueid": "MTK0957:3HL8HNGX468D92OFCC1ISD82BY2F9G", "current_trial": 141, "dateTime": 1512938739763, "trialdata": {"rt": -1, "stimulus": "", "key_press": -1, "type": "PRE_RECALL_DELAY", "trial_type": "single-stim", "trial_index": 141, "time_elapsed": 690080, "internal_node_id": "0.0-105.0-0.0"}}, {"uniqueid": "MTK0957:3HL8HNGX468D92OFCC1ISD82BY2F9G", "current_trial": 142, "dateTime": 1512938740273, "trialdata": {"rt": -1000, "stimulus": "/static/audio/400Hz.wav", "key_press": -1, "type": "PRE_RECALL_ALERT", "trial_type": "single-audio", "trial_index": 142, "time_elapsed": 690591, "internal_node_id": "0.0-106.0"}}, {"uniqueid": "MTK0957:3HL8HNGX468D92OFCC1ISD82BY2F9G", "current_trial": 143, "dateTime": 1512938800284, "trialdata": {"rt": [3450, 4714, 7120, 9357, 10876, 13223, 14625, 16869, 37688, 42950], "recwords": ["skillet", "nomad", "grill", "flute", "swimmer", "proton", "star", "tuba", "body", "boyfriend"], "type": "FREE_RECALL", "conditions": [12, 800, "v", 24000], "trial": 3, "trial_type": "free-recall", "trial_index": 143, "time_elapsed": 750598, "internal_node_id": "0.0-107.0-0.0"}}, {"uniqueid": "MTK0957:3HL8HNGX468D92OFCC1ISD82BY2F9G", "current_trial": 144, "dateTime": 1512938804328, "trialdata": {"rt": 2041, "key_press": 32, "type": "INSTRUCTIONS", "trial_type": "text", "trial_index": 144, "time_elapsed": 754646, "internal_node_id": "0.0-108.0"}}, {"uniqueid": "MTK0957:3HL8HNGX468D92OFCC1ISD82BY2F9G", "current_trial": 145, "dateTime": 1512938818333, "trialdata": {"rt": [1822, 3390, 5061, 7603, 9798], "responses": ["16", "16", "13", "12", "10"], "num1": [1, 8, 3, 7, 5, 2], "num2": [9, 6, 5, 1, 2, 9], "num3": [6, 2, 5, 4, 3, 4], "type": "DISTRACTOR", "conditions": [12, 1600, "v", 12000], "trial": 4, "trial_type": "math-distractor", "trial_index": 145, "time_elapsed": 768651, "internal_node_id": "0.0-109.0"}}, {"uniqueid": "MTK0957:3HL8HNGX468D92OFCC1ISD82BY2F9G", "current_trial": 146, "dateTime": 1512938821336, "trialdata": {"rt": -1, "stimulus": "<p id=\"stim\">10</p>", "key_press": -1, "trial_type": "single-stim", "trial_index": 146, "time_elapsed": 771654, "internal_node_id": "0.0-110.0-0.0"}}, {"uniqueid": "MTK0957:3HL8HNGX468D92OFCC1ISD82BY2F9G", "current_trial": 147, "dateTime": 1512938822337, "trialdata": {"rt": -1, "stimulus": "<p id=\"stim\">9</p>", "key_press": -1, "trial_type": "single-stim", "trial_index": 147, "time_elapsed": 772655, "internal_node_id": "0.0-110.0-1.0"}}, {"uniqueid": "MTK0957:3HL8HNGX468D92OFCC1ISD82BY2F9G", "current_trial": 148, "dateTime": 1512938823338, "trialdata": {"rt": -1, "stimulus": "<p id=\"stim\">8</p>", "key_press": -1, "trial_type": "single-stim", "trial_index": 148, "time_elapsed": 773656, "internal_node_id": "0.0-110.0-2.0"}}, {"uniqueid": "MTK0957:3HL8HNGX468D92OFCC1ISD82BY2F9G", "current_trial": 149, "dateTime": 1512938824339, "trialdata": {"rt": -1, "stimulus": "<p id=\"stim\">7</p>", "key_press": -1, "trial_type": "single-stim", "trial_index": 149, "time_elapsed": 774657, "internal_node_id": "0.0-110.0-3.0"}}, {"uniqueid": "MTK0957:3HL8HNGX468D92OFCC1ISD82BY2F9G", "current_trial": 150, "dateTime": 1512938825342, "trialdata": {"rt": -1, "stimulus": "<p id=\"stim\">6</p>", "key_press": -1, "trial_type": "single-stim", "trial_index": 150, "time_elapsed": 775660, "internal_node_id": "0.0-110.0-4.0"}}, {"uniqueid": "MTK0957:3HL8HNGX468D92OFCC1ISD82BY2F9G", "current_trial": 151, "dateTime": 1512938826345, "trialdata": {"rt": -1, "stimulus": "<p id=\"stim\">5</p>", "key_press": -1, "trial_type": "single-stim", "trial_index": 151, "time_elapsed": 776663, "internal_node_id": "0.0-110.0-5.0"}}, {"uniqueid": "MTK0957:3HL8HNGX468D92OFCC1ISD82BY2F9G", "current_trial": 152, "dateTime": 1512938827348, "trialdata": {"rt": -1, "stimulus": "<p id=\"stim\">4</p>", "key_press": -1, "trial_type": "single-stim", "trial_index": 152, "time_elapsed": 777666, "internal_node_id": "0.0-110.0-6.0"}}, {"uniqueid": "MTK0957:3HL8HNGX468D92OFCC1ISD82BY2F9G", "current_trial": 153, "dateTime": 1512938828349, "trialdata": {"rt": -1, "stimulus": "<p id=\"stim\">3</p>", "key_press": -1, "trial_type": "single-stim", "trial_index": 153, "time_elapsed": 778667, "internal_node_id": "0.0-110.0-7.0"}}, {"uniqueid": "MTK0957:3HL8HNGX468D92OFCC1ISD82BY2F9G", "current_trial": 154, "dateTime": 1512938829351, "trialdata": {"rt": -1, "stimulus": "<p id=\"stim\">2</p>", "key_press": -1, "trial_type": "single-stim", "trial_index": 154, "time_elapsed": 779669, "internal_node_id": "0.0-110.0-8.0"}}, {"uniqueid": "MTK0957:3HL8HNGX468D92OFCC1ISD82BY2F9G", "current_trial": 155, "dateTime": 1512938830352, "trialdata": {"rt": -1, "stimulus": "<p id=\"stim\">1</p>", "key_press": -1, "trial_type": "single-stim", "trial_index": 155, "time_elapsed": 780670, "internal_node_id": "0.0-110.0-9.0"}}, {"uniqueid": "MTK0957:3HL8HNGX468D92OFCC1ISD82BY2F9G", "current_trial": 156, "dateTime": 1512938831854, "trialdata": {"rt": -1, "stimulus": "<p id=\"stim\">+</p>", "key_press": -1, "type": "FIXATION", "trial_type": "single-stim", "trial_index": 156, "time_elapsed": 782172, "internal_node_id": "0.0-111.0-0.0"}}, {"uniqueid": "MTK0957:3HL8HNGX468D92OFCC1ISD82BY2F9G", "current_trial": 157, "dateTime": 1512938833455, "trialdata": {"rt": -1, "stimulus": "<p id=\"stim\">BANJO</p>", "key_press": -1, "type": "PRES_VIS", "word": "banjo", "wordID": 81, "conditions": [12, 1600, "v", 12000], "trial": 4, "serialpos": 0, "trial_type": "single-stim", "trial_index": 157, "time_elapsed": 783773, "internal_node_id": "0.0-112.0"}}, {"uniqueid": "MTK0957:3HL8HNGX468D92OFCC1ISD82BY2F9G", "current_trial": 158, "dateTime": 1512938836173, "trialdata": {"rt": -1, "stimulus": "<p id=\"stim\">TROMBONE</p>", "key_press": -1, "type": "PRES_VIS", "word": "trombone", "wordID": 1507, "conditions": [12, 1600, "v", 12000], "trial": 4, "serialpos": 1, "trial_type": "single-stim", "trial_index": 158, "time_elapsed": 786491, "internal_node_id": "0.0-113.0"}}, {"uniqueid": "MTK0957:3HL8HNGX468D92OFCC1ISD82BY2F9G", "current_trial": 159, "dateTime": 1512938838938, "trialdata": {"rt": -1, "stimulus": "<p id=\"stim\">LIVER</p>", "key_press": -1, "type": "PRES_VIS", "word": "liver", "wordID": 832, "conditions": [12, 1600, "v", 12000], "trial": 4, "serialpos": 2, "trial_type": "single-stim", "trial_index": 159, "time_elapsed": 789256, "internal_node_id": "0.0-114.0"}}, {"uniqueid": "MTK0957:3HL8HNGX468D92OFCC1ISD82BY2F9G", "current_trial": 160, "dateTime": 1512938841726, "trialdata": {"rt": -1, "stimulus": "<p id=\"stim\">ZEBRA</p>", "key_press": -1, "type": "PRES_VIS", "word": "zebra", "wordID": 1634, "conditions": [12, 1600, "v", 12000], "trial": 4, "serialpos": 3, "trial_type": "single-stim", "trial_index": 160, "time_elapsed": 792043, "internal_node_id": "0.0-115.0"}}, {"uniqueid": "MTK0957:3HL8HNGX468D92OFCC1ISD82BY2F9G", "current_trial": 161, "dateTime": 1512938844231, "trialdata": {"rt": -1, "stimulus": "<p id=\"stim\">TREAT</p>", "key_press": -1, "type": "PRES_VIS", "word": "treat", "wordID": 1500, "conditions": [12, 1600, "v", 12000], "trial": 4, "serialpos": 4, "trial_type": "single-stim", "trial_index": 161, "time_elapsed": 794549, "internal_node_id": "0.0-116.0"}}, {"uniqueid": "MTK0957:3HL8HNGX468D92OFCC1ISD82BY2F9G", "current_trial": 162, "dateTime": 1512938846661, "trialdata": {"rt": -1, "stimulus": "<p id=\"stim\">BANKER</p>", "key_press": -1, "type": "PRES_VIS", "word": "banker", "wordID": 83, "conditions": [12, 1600, "v", 12000], "trial": 4, "serialpos": 5, "trial_type": "single-stim", "trial_index": 162, "time_elapsed": 796979, "internal_node_id": "0.0-117.0"}}, {"uniqueid": "MTK0957:3HL8HNGX468D92OFCC1ISD82BY2F9G", "current_trial": 163, "dateTime": 1512938849389, "trialdata": {"rt": -1, "stimulus": "<p id=\"stim\">TRIBE</p>", "key_press": -1, "type": "PRES_VIS", "word": "tribe", "wordID": 1504, "conditions": [12, 1600, "v", 12000], "trial": 4, "serialpos": 6, "trial_type": "single-stim", "trial_index": 163, "time_elapsed": 799706, "internal_node_id": "0.0-118.0"}}, {"uniqueid": "MTK0957:3HL8HNGX468D92OFCC1ISD82BY2F9G", "current_trial": 164, "dateTime": 1512938851931, "trialdata": {"rt": -1, "stimulus": "<p id=\"stim\">DONKEY</p>", "key_press": -1, "type": "PRES_VIS", "word": "donkey", "wordID": 483, "conditions": [12, 1600, "v", 12000], "trial": 4, "serialpos": 7, "trial_type": "single-stim", "trial_index": 164, "time_elapsed": 802249, "internal_node_id": "0.0-119.0"}}, {"uniqueid": "MTK0957:3HL8HNGX468D92OFCC1ISD82BY2F9G", "current_trial": 165, "dateTime": 1512938854702, "trialdata": {"rt": -1, "stimulus": "<p id=\"stim\">SADDLE</p>", "key_press": -1, "type": "PRES_VIS", "word": "saddle", "wordID": 1220, "conditions": [12, 1600, "v", 12000], "trial": 4, "serialpos": 8, "trial_type": "single-stim", "trial_index": 165, "time_elapsed": 805020, "internal_node_id": "0.0-120.0"}}, {"uniqueid": "MTK0957:3HL8HNGX468D92OFCC1ISD82BY2F9G", "current_trial": 166, "dateTime": 1512938857483, "trialdata": {"rt": -1, "stimulus": "<p id=\"stim\">PANTHER</p>", "key_press": -1, "type": "PRES_VIS", "word": "panther", "wordID": 1008, "conditions": [12, 1600, "v", 12000], "trial": 4, "serialpos": 9, "trial_type": "single-stim", "trial_index": 166, "time_elapsed": 807801, "internal_node_id": "0.0-121.0"}}, {"uniqueid": "MTK0957:3HL8HNGX468D92OFCC1ISD82BY2F9G", "current_trial": 167, "dateTime": 1512938860138, "trialdata": {"rt": -1, "stimulus": "<p id=\"stim\">JELLY</p>", "key_press": -1, "type": "PRES_VIS", "word": "jelly", "wordID": 754, "conditions": [12, 1600, "v", 12000], "trial": 4, "serialpos": 10, "trial_type": "single-stim", "trial_index": 167, "time_elapsed": 810456, "internal_node_id": "0.0-122.0"}}, {"uniqueid": "MTK0957:3HL8HNGX468D92OFCC1ISD82BY2F9G", "current_trial": 168, "dateTime": 1512938862764, "trialdata": {"rt": -1, "stimulus": "<p id=\"stim\">MOTOR</p>", "key_press": -1, "type": "PRES_VIS", "word": "motor", "wordID": 921, "conditions": [12, 1600, "v", 12000], "trial": 4, "serialpos": 11, "trial_type": "single-stim", "trial_index": 168, "time_elapsed": 813082, "internal_node_id": "0.0-123.0"}}, {"uniqueid": "MTK0957:3HL8HNGX468D92OFCC1ISD82BY2F9G", "current_trial": 169, "dateTime": 1512938865221, "trialdata": {"rt": -1, "stimulus": "", "key_press": -1, "type": "PRE_RECALL_DELAY", "trial_type": "single-stim", "trial_index": 169, "time_elapsed": 815538, "internal_node_id": "0.0-124.0-0.0"}}, {"uniqueid": "MTK0957:3HL8HNGX468D92OFCC1ISD82BY2F9G", "current_trial": 170, "dateTime": 1512938865722, "trialdata": {"rt": -1000, "stimulus": "/static/audio/400Hz.wav", "key_press": -1, "type": "PRE_RECALL_ALERT", "trial_type": "single-audio", "trial_index": 170, "time_elapsed": 816040, "internal_node_id": "0.0-125.0"}}, {"uniqueid": "MTK0957:3HL8HNGX468D92OFCC1ISD82BY2F9G", "current_trial": 171, "dateTime": 1512938925730, "trialdata": {"rt": [2151, 5577, 7955, 10404, 19655, 26994], "recwords": ["banjo", "banker", "donkey", "saddle", "trombone", "zebra"], "type": "FREE_RECALL", "conditions": [12, 1600, "v", 12000], "trial": 4, "trial_type": "free-recall", "trial_index": 171, "time_elapsed": 876046, "internal_node_id": "0.0-126.0-0.0"}}, {"uniqueid": "MTK0957:3HL8HNGX468D92OFCC1ISD82BY2F9G", "current_trial": 172, "dateTime": 1512938930171, "trialdata": {"rt": 2439, "key_press": 32, "type": "INSTRUCTIONS", "trial_type": "text", "trial_index": 172, "time_elapsed": 880489, "internal_node_id": "0.0-127.0"}}, {"uniqueid": "MTK0957:3HL8HNGX468D92OFCC1ISD82BY2F9G", "current_trial": 173, "dateTime": 1512938956177, "trialdata": {"rt": [2471, 4062, 9154, 11947, 18659, 20775, 22629], "responses": ["10", "12", "12", "19", "21", "10", "20"], "num1": [2, 8, 2, 5, 9, 5, 2, 6], "num2": [5, 2, 2, 7, 7, 3, 9, 7], "num3": [3, 2, 7, 7, 5, 2, 9, 4], "type": "DISTRACTOR", "conditions": [24, 800, "a", 24000], "trial": 5, "trial_type": "math-distractor", "trial_index": 173, "time_elapsed": 906495, "internal_node_id": "0.0-128.0"}}, {"uniqueid": "MTK0957:3HL8HNGX468D92OFCC1ISD82BY2F9G", "current_trial": 174, "dateTime": 1512938959179, "trialdata": {"rt": -1, "stimulus": "<p id=\"stim\">10</p>", "key_press": -1, "trial_type": "single-stim", "trial_index": 174, "time_elapsed": 909497, "internal_node_id": "0.0-129.0-0.0"}}, {"uniqueid": "MTK0957:3HL8HNGX468D92OFCC1ISD82BY2F9G", "current_trial": 175, "dateTime": 1512938960181, "trialdata": {"rt": -1, "stimulus": "<p id=\"stim\">9</p>", "key_press": -1, "trial_type": "single-stim", "trial_index": 175, "time_elapsed": 910499, "internal_node_id": "0.0-129.0-1.0"}}, {"uniqueid": "MTK0957:3HL8HNGX468D92OFCC1ISD82BY2F9G", "current_trial": 176, "dateTime": 1512938961182, "trialdata": {"rt": -1, "stimulus": "<p id=\"stim\">8</p>", "key_press": -1, "trial_type": "single-stim", "trial_index": 176, "time_elapsed": 911500, "internal_node_id": "0.0-129.0-2.0"}}, {"uniqueid": "MTK0957:3HL8HNGX468D92OFCC1ISD82BY2F9G", "current_trial": 177, "dateTime": 1512938962184, "trialdata": {"rt": -1, "stimulus": "<p id=\"stim\">7</p>", "key_press": -1, "trial_type": "single-stim", "trial_index": 177, "time_elapsed": 912502, "internal_node_id": "0.0-129.0-3.0"}}, {"uniqueid": "MTK0957:3HL8HNGX468D92OFCC1ISD82BY2F9G", "current_trial": 178, "dateTime": 1512938963187, "trialdata": {"rt": -1, "stimulus": "<p id=\"stim\">6</p>", "key_press": -1, "trial_type": "single-stim", "trial_index": 178, "time_elapsed": 913504, "internal_node_id": "0.0-129.0-4.0"}}, {"uniqueid": "MTK0957:3HL8HNGX468D92OFCC1ISD82BY2F9G", "current_trial": 179, "dateTime": 1512938964189, "trialdata": {"rt": -1, "stimulus": "<p id=\"stim\">5</p>", "key_press": -1, "trial_type": "single-stim", "trial_index": 179, "time_elapsed": 914507, "internal_node_id": "0.0-129.0-5.0"}}, {"uniqueid": "MTK0957:3HL8HNGX468D92OFCC1ISD82BY2F9G", "current_trial": 180, "dateTime": 1512938965192, "trialdata": {"rt": -1, "stimulus": "<p id=\"stim\">4</p>", "key_press": -1, "trial_type": "single-stim", "trial_index": 180, "time_elapsed": 915509, "internal_node_id": "0.0-129.0-6.0"}}, {"uniqueid": "MTK0957:3HL8HNGX468D92OFCC1ISD82BY2F9G", "current_trial": 181, "dateTime": 1512938966194, "trialdata": {"rt": -1, "stimulus": "<p id=\"stim\">3</p>", "key_press": -1, "trial_type": "single-stim", "trial_index": 181, "time_elapsed": 916512, "internal_node_id": "0.0-129.0-7.0"}}, {"uniqueid": "MTK0957:3HL8HNGX468D92OFCC1ISD82BY2F9G", "current_trial": 182, "dateTime": 1512938967195, "trialdata": {"rt": -1, "stimulus": "<p id=\"stim\">2</p>", "key_press": -1, "trial_type": "single-stim", "trial_index": 182, "time_elapsed": 917513, "internal_node_id": "0.0-129.0-8.0"}}, {"uniqueid": "MTK0957:3HL8HNGX468D92OFCC1ISD82BY2F9G", "current_trial": 183, "dateTime": 1512938968196, "trialdata": {"rt": -1, "stimulus": "<p id=\"stim\">1</p>", "key_press": -1, "trial_type": "single-stim", "trial_index": 183, "time_elapsed": 918514, "internal_node_id": "0.0-129.0-9.0"}}, {"uniqueid": "MTK0957:3HL8HNGX468D92OFCC1ISD82BY2F9G", "current_trial": 184, "dateTime": 1512938969698, "trialdata": {"rt": -1, "stimulus": "<p id=\"stim\">+</p>", "key_press": -1, "type": "FIXATION", "trial_type": "single-stim", "trial_index": 184, "time_elapsed": 920016, "internal_node_id": "0.0-130.0-0.0"}}, {"uniqueid": "MTK0957:3HL8HNGX468D92OFCC1ISD82BY2F9G", "current_trial": 185, "dateTime": 1512938971485, "trialdata": {"rt": -1000, "stimulus": "/static/audio/wordpool/CHEST.wav", "key_press": -1, "type": "PRES_AUD", "word": "chest", "wordID": 294, "conditions": [24, 800, "a", 24000], "trial": 5, "serialpos": 0, "trial_type": "single-audio", "trial_index": 185, "time_elapsed": 921803, "internal_node_id": "0.0-131.0"}}, {"uniqueid": "MTK0957:3HL8HNGX468D92OFCC1ISD82BY2F9G", "current_trial": 186, "dateTime": 1512938973200, "trialdata": {"rt": -1000, "stimulus": "/static/audio/wordpool/PARSLEY.wav", "key_press": -1, "type": "PRES_AUD", "word": "parsley", "wordID": 1015, "conditions": [24, 800, "a", 24000], "trial": 5, "serialpos": 1, "trial_type": "single-audio", "trial_index": 186, "time_elapsed": 923518, "internal_node_id": "0.0-132.0"}}, {"uniqueid": "MTK0957:3HL8HNGX468D92OFCC1ISD82BY2F9G", "current_trial": 187, "dateTime": 1512938975054, "trialdata": {"rt": -1000, "stimulus": "/static/audio/wordpool/PASTA.wav", "key_press": -1, "type": "PRES_AUD", "word": "pasta", "wordID": 1020, "conditions": [24, 800, "a", 24000], "trial": 5, "serialpos": 2, "trial_type": "single-audio", "trial_index": 187, "time_elapsed": 925372, "internal_node_id": "0.0-133.0"}}, {"uniqueid": "MTK0957:3HL8HNGX468D92OFCC1ISD82BY2F9G", "current_trial": 188, "dateTime": 1512938976884, "trialdata": {"rt": -1000, "stimulus": "/static/audio/wordpool/PECAN.wav", "key_press": -1, "type": "PRES_AUD", "word": "pecan", "wordID": 1035, "conditions": [24, 800, "a", 24000], "trial": 5, "serialpos": 3, "trial_type": "single-audio", "trial_index": 188, "time_elapsed": 927202, "internal_node_id": "0.0-134.0"}}, {"uniqueid": "MTK0957:3HL8HNGX468D92OFCC1ISD82BY2F9G", "current_trial": 189, "dateTime": 1512938978558, "trialdata": {"rt": -1000, "stimulus": "/static/audio/wordpool/TWISTER.wav", "key_press": -1, "type": "PRES_AUD", "word": "twister", "wordID": 1529, "conditions": [24, 800, "a", 24000], "trial": 5, "serialpos": 4, "trial_type": "single-audio", "trial_index": 189, "time_elapsed": 928876, "internal_node_id": "0.0-135.0"}}, {"uniqueid": "MTK0957:3HL8HNGX468D92OFCC1ISD82BY2F9G", "current_trial": 190, "dateTime": 1512938980235, "trialdata": {"rt": -1000, "stimulus": "/static/audio/wordpool/WRIST.wav", "key_press": -1, "type": "PRES_AUD", "word": "wrist", "wordID": 1625, "conditions": [24, 800, "a", 24000], "trial": 5, "serialpos": 5, "trial_type": "single-audio", "trial_index": 190, "time_elapsed": 930553, "internal_node_id": "0.0-136.0"}}, {"uniqueid": "MTK0957:3HL8HNGX468D92OFCC1ISD82BY2F9G", "current_trial": 191, "dateTime": 1512938982207, "trialdata": {"rt": -1000, "stimulus": "/static/audio/wordpool/WAITRESS.wav", "key_press": -1, "type": "PRES_AUD", "word": "waitress", "wordID": 1580, "conditions": [24, 800, "a", 24000], "trial": 5, "serialpos": 6, "trial_type": "single-audio", "trial_index": 191, "time_elapsed": 932525, "internal_node_id": "0.0-137.0"}}, {"uniqueid": "MTK0957:3HL8HNGX468D92OFCC1ISD82BY2F9G", "current_trial": 192, "dateTime": 1512938983992, "trialdata": {"rt": -1000, "stimulus": "/static/audio/wordpool/FOREHEAD.wav", "key_press": -1, "type": "PRES_AUD", "word": "forehead", "wordID": 591, "conditions": [24, 800, "a", 24000], "trial": 5, "serialpos": 7, "trial_type": "single-audio", "trial_index": 192, "time_elapsed": 934310, "internal_node_id": "0.0-138.0"}}, {"uniqueid": "MTK0957:3HL8HNGX468D92OFCC1ISD82BY2F9G", "current_trial": 193, "dateTime": 1512938985868, "trialdata": {"rt": -1000, "stimulus": "/static/audio/wordpool/LABEL.wav", "key_press": -1, "type": "PRES_AUD", "word": "label", "wordID": 789, "conditions": [24, 800, "a", 24000], "trial": 5, "serialpos": 8, "trial_type": "single-audio", "trial_index": 193, "time_elapsed": 936186, "internal_node_id": "0.0-139.0"}}, {"uniqueid": "MTK0957:3HL8HNGX468D92OFCC1ISD82BY2F9G", "current_trial": 194, "dateTime": 1512938987697, "trialdata": {"rt": -1000, "stimulus": "/static/audio/wordpool/HOOK.wav", "key_press": -1, "type": "PRES_AUD", "word": "hook", "wordID": 714, "conditions": [24, 800, "a", 24000], "trial": 5, "serialpos": 9, "trial_type": "single-audio", "trial_index": 194, "time_elapsed": 938015, "internal_node_id": "0.0-140.0"}}, {"uniqueid": "MTK0957:3HL8HNGX468D92OFCC1ISD82BY2F9G", "current_trial": 195, "dateTime": 1512938989495, "trialdata": {"rt": -1000, "stimulus": "/static/audio/wordpool/GUITAR.wav", "key_press": -1, "type": "PRES_AUD", "word": "guitar", "wordID": 669, "conditions": [24, 800, "a", 24000], "trial": 5, "serialpos": 10, "trial_type": "single-audio", "trial_index": 195, "time_elapsed": 939813, "internal_node_id": "0.0-141.0"}}, {"uniqueid": "MTK0957:3HL8HNGX468D92OFCC1ISD82BY2F9G", "current_trial": 196, "dateTime": 1512938991456, "trialdata": {"rt": -1000, "stimulus": "/static/audio/wordpool/HAND.wav", "key_press": -1, "type": "PRES_AUD", "word": "hand", "wordID": 682, "conditions": [24, 800, "a", 24000], "trial": 5, "serialpos": 11, "trial_type": "single-audio", "trial_index": 196, "time_elapsed": 941774, "internal_node_id": "0.0-142.0"}}, {"uniqueid": "MTK0957:3HL8HNGX468D92OFCC1ISD82BY2F9G", "current_trial": 197, "dateTime": 1512938993145, "trialdata": {"rt": -1000, "stimulus": "/static/audio/wordpool/SEAFOOD.wav", "key_press": -1, "type": "PRES_AUD", "word": "seafood", "wordID": 1259, "conditions": [24, 800, "a", 24000], "trial": 5, "serialpos": 12, "trial_type": "single-audio", "trial_index": 197, "time_elapsed": 943463, "internal_node_id": "0.0-143.0"}}, {"uniqueid": "MTK0957:3HL8HNGX468D92OFCC1ISD82BY2F9G", "current_trial": 198, "dateTime": 1512938994956, "trialdata": {"rt": -1000, "stimulus": "/static/audio/wordpool/GLOBE.wav", "key_press": -1, "type": "PRES_AUD", "word": "globe", "wordID": 640, "conditions": [24, 800, "a", 24000], "trial": 5, "serialpos": 13, "trial_type": "single-audio", "trial_index": 198, "time_elapsed": 945274, "internal_node_id": "0.0-144.0"}}, {"uniqueid": "MTK0957:3HL8HNGX468D92OFCC1ISD82BY2F9G", "current_trial": 199, "dateTime": 1512938996623, "trialdata": {"rt": -1000, "stimulus": "/static/audio/wordpool/WORLD.wav", "key_press": -1, "type": "PRES_AUD", "word": "world", "wordID": 1621, "conditions": [24, 800, "a", 24000], "trial": 5, "serialpos": 14, "trial_type": "single-audio", "trial_index": 199, "time_elapsed": 946941, "internal_node_id": "0.0-145.0"}}, {"uniqueid": "MTK0957:3HL8HNGX468D92OFCC1ISD82BY2F9G", "current_trial": 200, "dateTime": 1512938998605, "trialdata": {"rt": -1000, "stimulus": "/static/audio/wordpool/AIRPLANE.wav", "key_press": -1, "type": "PRES_AUD", "word": "airplane", "wordID": 11, "conditions": [24, 800, "a", 24000], "trial": 5, "serialpos": 15, "trial_type": "single-audio", "trial_index": 200, "time_elapsed": 948923, "internal_node_id": "0.0-146.0"}}, {"uniqueid": "MTK0957:3HL8HNGX468D92OFCC1ISD82BY2F9G", "current_trial": 201, "dateTime": 1512939000439, "trialdata": {"rt": -1000, "stimulus": "/static/audio/wordpool/CHILD.wav", "key_press": -1, "type": "PRES_AUD", "word": "child", "wordID": 298, "conditions": [24, 800, "a", 24000], "trial": 5, "serialpos": 16, "trial_type": "single-audio", "trial_index": 201, "time_elapsed": 950757, "internal_node_id": "0.0-147.0"}}, {"uniqueid": "MTK0957:3HL8HNGX468D92OFCC1ISD82BY2F9G", "current_trial": 202, "dateTime": 1512939002234, "trialdata": {"rt": -1000, "stimulus": "/static/audio/wordpool/COOK.wav", "key_press": -1, "type": "PRES_AUD", "word": "cook", "wordID": 371, "conditions": [24, 800, "a", 24000], "trial": 5, "serialpos": 17, "trial_type": "single-audio", "trial_index": 202, "time_elapsed": 952552, "internal_node_id": "0.0-148.0"}}, {"uniqueid": "MTK0957:3HL8HNGX468D92OFCC1ISD82BY2F9G", "current_trial": 203, "dateTime": 1512939004130, "trialdata": {"rt": -1000, "stimulus": "/static/audio/wordpool/BALLOON.wav", "key_press": -1, "type": "PRES_AUD", "word": "balloon", "wordID": 74, "conditions": [24, 800, "a", 24000], "trial": 5, "serialpos": 18, "trial_type": "single-audio", "trial_index": 203, "time_elapsed": 954448, "internal_node_id": "0.0-149.0"}}, {"uniqueid": "MTK0957:3HL8HNGX468D92OFCC1ISD82BY2F9G", "current_trial": 204, "dateTime": 1512939006129, "trialdata": {"rt": -1000, "stimulus": "/static/audio/wordpool/INFANT.wav", "key_press": -1, "type": "PRES_AUD", "word": "infant", "wordID": 736, "conditions": [24, 800, "a", 24000], "trial": 5, "serialpos": 19, "trial_type": "single-audio", "trial_index": 204, "time_elapsed": 956447, "internal_node_id": "0.0-150.0"}}, {"uniqueid": "MTK0957:3HL8HNGX468D92OFCC1ISD82BY2F9G", "current_trial": 205, "dateTime": 1512939007765, "trialdata": {"rt": -1000, "stimulus": "/static/audio/wordpool/MISSILE.wav", "key_press": -1, "type": "PRES_AUD", "word": "missile", "wordID": 899, "conditions": [24, 800, "a", 24000], "trial": 5, "serialpos": 20, "trial_type": "single-audio", "trial_index": 205, "time_elapsed": 958083, "internal_node_id": "0.0-151.0"}}, {"uniqueid": "MTK0957:3HL8HNGX468D92OFCC1ISD82BY2F9G", "current_trial": 206, "dateTime": 1512939009549, "trialdata": {"rt": -1000, "stimulus": "/static/audio/wordpool/SUITCASE.wav", "key_press": -1, "type": "PRES_AUD", "word": "suitcase", "wordID": 1402, "conditions": [24, 800, "a", 24000], "trial": 5, "serialpos": 21, "trial_type": "single-audio", "trial_index": 206, "time_elapsed": 959867, "internal_node_id": "0.0-152.0"}}, {"uniqueid": "MTK0957:3HL8HNGX468D92OFCC1ISD82BY2F9G", "current_trial": 207, "dateTime": 1512939011169, "trialdata": {"rt": -1000, "stimulus": "/static/audio/wordpool/CARRIAGE.wav", "key_press": -1, "type": "PRES_AUD", "word": "carriage", "wordID": 247, "conditions": [24, 800, "a", 24000], "trial": 5, "serialpos": 22, "trial_type": "single-audio", "trial_index": 207, "time_elapsed": 961487, "internal_node_id": "0.0-153.0"}}, {"uniqueid": "MTK0957:3HL8HNGX468D92OFCC1ISD82BY2F9G", "current_trial": 208, "dateTime": 1512939012884, "trialdata": {"rt": -1000, "stimulus": "/static/audio/wordpool/LUGGAGE.wav", "key_press": -1, "type": "PRES_AUD", "word": "luggage", "wordID": 846, "conditions": [24, 800, "a", 24000], "trial": 5, "serialpos": 23, "trial_type": "single-audio", "trial_index": 208, "time_elapsed": 963202, "internal_node_id": "0.0-154.0"}}, {"uniqueid": "MTK0957:3HL8HNGX468D92OFCC1ISD82BY2F9G", "current_trial": 209, "dateTime": 1512939014130, "trialdata": {"rt": -1, "stimulus": "", "key_press": -1, "type": "PRE_RECALL_DELAY", "trial_type": "single-stim", "trial_index": 209, "time_elapsed": 964448, "internal_node_id": "0.0-155.0-0.0"}}, {"uniqueid": "MTK0957:3HL8HNGX468D92OFCC1ISD82BY2F9G", "current_trial": 210, "dateTime": 1512939014640, "trialdata": {"rt": -1000, "stimulus": "/static/audio/400Hz.wav", "key_press": -1, "type": "PRE_RECALL_ALERT", "trial_type": "single-audio", "trial_index": 210, "time_elapsed": 964958, "internal_node_id": "0.0-156.0"}}, {"uniqueid": "MTK0957:3HL8HNGX468D92OFCC1ISD82BY2F9G", "current_trial": 211, "dateTime": 1512939074648, "trialdata": {"rt": [2186, 4191, 5903, 9058, 10711, 13133, 18126, 20716, 23511, 27007, 29359, 33794, 39401], "recwords": ["luggage", "suitcase", "wrist", "forehead", "wrist", "hand", "labels", "label", "waitress", "child", "missle", "pasta", "parsely"], "type": "FREE_RECALL", "conditions": [24, 800, "a", 24000], "trial": 5, "trial_type": "free-recall", "trial_index": 211, "time_elapsed": 1024963, "internal_node_id": "0.0-157.0-0.0"}}, {"uniqueid": "MTK0957:3HL8HNGX468D92OFCC1ISD82BY2F9G", "current_trial": 212, "dateTime": 1512939100730, "trialdata": {"rt": 24081, "key_press": 32, "type": "INSTRUCTIONS", "trial_type": "text", "trial_index": 212, "time_elapsed": 1051048, "internal_node_id": "0.0-158.0"}}, {"uniqueid": "MTK0957:3HL8HNGX468D92OFCC1ISD82BY2F9G", "current_trial": 213, "dateTime": 1512939114733, "trialdata": {"rt": [2435, 5645, 7069], "responses": ["13", "7", "13"], "num1": [8, 2, 5, 9], "num2": [3, 3, 5, 9], "num3": [2, 2, 3, 8], "type": "DISTRACTOR", "conditions": [24, 800, "a", 12000], "trial": 6, "trial_type": "math-distractor", "trial_index": 213, "time_elapsed": 1065051, "internal_node_id": "0.0-159.0"}}, {"uniqueid": "MTK0957:3HL8HNGX468D92OFCC1ISD82BY2F9G", "current_trial": 214, "dateTime": 1512939117737, "trialdata": {"rt": -1, "stimulus": "<p id=\"stim\">10</p>", "key_press": -1, "trial_type": "single-stim", "trial_index": 214, "time_elapsed": 1068054, "internal_node_id": "0.0-160.0-0.0"}}, {"uniqueid": "MTK0957:3HL8HNGX468D92OFCC1ISD82BY2F9G", "current_trial": 215, "dateTime": 1512939118738, "trialdata": {"rt": -1, "stimulus": "<p id=\"stim\">9</p>", "key_press": -1, "trial_type": "single-stim", "trial_index": 215, "time_elapsed": 1069056, "internal_node_id": "0.0-160.0-1.0"}}, {"uniqueid": "MTK0957:3HL8HNGX468D92OFCC1ISD82BY2F9G", "current_trial": 216, "dateTime": 1512939119740, "trialdata": {"rt": -1, "stimulus": "<p id=\"stim\">8</p>", "key_press": -1, "trial_type": "single-stim", "trial_index": 216, "time_elapsed": 1070058, "internal_node_id": "0.0-160.0-2.0"}}, {"uniqueid": "MTK0957:3HL8HNGX468D92OFCC1ISD82BY2F9G", "current_trial": 217, "dateTime": 1512939120741, "trialdata": {"rt": -1, "stimulus": "<p id=\"stim\">7</p>", "key_press": -1, "trial_type": "single-stim", "trial_index": 217, "time_elapsed": 1071059, "internal_node_id": "0.0-160.0-3.0"}}, {"uniqueid": "MTK0957:3HL8HNGX468D92OFCC1ISD82BY2F9G", "current_trial": 218, "dateTime": 1512939121744, "trialdata": {"rt": -1, "stimulus": "<p id=\"stim\">6</p>", "key_press": -1, "trial_type": "single-stim", "trial_index": 218, "time_elapsed": 1072061, "internal_node_id": "0.0-160.0-4.0"}}, {"uniqueid": "MTK0957:3HL8HNGX468D92OFCC1ISD82BY2F9G", "current_trial": 219, "dateTime": 1512939122745, "trialdata": {"rt": -1, "stimulus": "<p id=\"stim\">5</p>", "key_press": -1, "trial_type": "single-stim", "trial_index": 219, "time_elapsed": 1073063, "internal_node_id": "0.0-160.0-5.0"}}, {"uniqueid": "MTK0957:3HL8HNGX468D92OFCC1ISD82BY2F9G", "current_trial": 220, "dateTime": 1512939123747, "trialdata": {"rt": -1, "stimulus": "<p id=\"stim\">4</p>", "key_press": -1, "trial_type": "single-stim", "trial_index": 220, "time_elapsed": 1074065, "internal_node_id": "0.0-160.0-6.0"}}, {"uniqueid": "MTK0957:3HL8HNGX468D92OFCC1ISD82BY2F9G", "current_trial": 221, "dateTime": 1512939124749, "trialdata": {"rt": -1, "stimulus": "<p id=\"stim\">3</p>", "key_press": -1, "trial_type": "single-stim", "trial_index": 221, "time_elapsed": 1075066, "internal_node_id": "0.0-160.0-7.0"}}, {"uniqueid": "MTK0957:3HL8HNGX468D92OFCC1ISD82BY2F9G", "current_trial": 222, "dateTime": 1512939125750, "trialdata": {"rt": -1, "stimulus": "<p id=\"stim\">2</p>", "key_press": -1, "trial_type": "single-stim", "trial_index": 222, "time_elapsed": 1076068, "internal_node_id": "0.0-160.0-8.0"}}, {"uniqueid": "MTK0957:3HL8HNGX468D92OFCC1ISD82BY2F9G", "current_trial": 223, "dateTime": 1512939126752, "trialdata": {"rt": -1, "stimulus": "<p id=\"stim\">1</p>", "key_press": -1, "trial_type": "single-stim", "trial_index": 223, "time_elapsed": 1077070, "internal_node_id": "0.0-160.0-9.0"}}, {"uniqueid": "MTK0957:3HL8HNGX468D92OFCC1ISD82BY2F9G", "current_trial": 224, "dateTime": 1512939128253, "trialdata": {"rt": -1, "stimulus": "<p id=\"stim\">+</p>", "key_press": -1, "type": "FIXATION", "trial_type": "single-stim", "trial_index": 224, "time_elapsed": 1078571, "internal_node_id": "0.0-161.0-0.0"}}, {"uniqueid": "MTK0957:3HL8HNGX468D92OFCC1ISD82BY2F9G", "current_trial": 225, "dateTime": 1512939130223, "trialdata": {"rt": -1000, "stimulus": "/static/audio/wordpool/WITNESS.wav", "key_press": -1, "type": "PRES_AUD", "word": "witness", "wordID": 1617, "conditions": [24, 800, "a", 12000], "trial": 6, "serialpos": 0, "trial_type": "single-audio", "trial_index": 225, "time_elapsed": 1080541, "internal_node_id": "0.0-162.0"}}, {"uniqueid": "MTK0957:3HL8HNGX468D92OFCC1ISD82BY2F9G", "current_trial": 226, "dateTime": 1512939132031, "trialdata": {"rt": -1000, "stimulus": "/static/audio/wordpool/FOX.wav", "key_press": -1, "type": "PRES_AUD", "word": "fox", "wordID": 597, "conditions": [24, 800, "a", 12000], "trial": 6, "serialpos": 1, "trial_type": "single-audio", "trial_index": 226, "time_elapsed": 1082349, "internal_node_id": "0.0-163.0"}}, {"uniqueid": "MTK0957:3HL8HNGX468D92OFCC1ISD82BY2F9G", "current_trial": 227, "dateTime": 1512939133972, "trialdata": {"rt": -1000, "stimulus": "/static/audio/wordpool/SNAKE.wav", "key_press": -1, "type": "PRES_AUD", "word": "snake", "wordID": 1332, "conditions": [24, 800, "a", 12000], "trial": 6, "serialpos": 2, "trial_type": "single-audio", "trial_index": 227, "time_elapsed": 1084290, "internal_node_id": "0.0-164.0"}}, {"uniqueid": "MTK0957:3HL8HNGX468D92OFCC1ISD82BY2F9G", "current_trial": 228, "dateTime": 1512939135590, "trialdata": {"rt": -1000, "stimulus": "/static/audio/wordpool/ROBOT.wav", "key_press": -1, "type": "PRES_AUD", "word": "robot", "wordID": 1199, "conditions": [24, 800, "a", 12000], "trial": 6, "serialpos": 3, "trial_type": "single-audio", "trial_index": 228, "time_elapsed": 1085908, "internal_node_id": "0.0-165.0"}}, {"uniqueid": "MTK0957:3HL8HNGX468D92OFCC1ISD82BY2F9G", "current_trial": 229, "dateTime": 1512939137362, "trialdata": {"rt": -1000, "stimulus": "/static/audio/wordpool/SCALPEL.wav", "key_press": -1, "type": "PRES_AUD", "word": "scalpel", "wordID": 1242, "conditions": [24, 800, "a", 12000], "trial": 6, "serialpos": 4, "trial_type": "single-audio", "trial_index": 229, "time_elapsed": 1087680, "internal_node_id": "0.0-166.0"}}, {"uniqueid": "MTK0957:3HL8HNGX468D92OFCC1ISD82BY2F9G", "current_trial": 230, "dateTime": 1512939139353, "trialdata": {"rt": -1000, "stimulus": "/static/audio/wordpool/TURNIP.wav", "key_press": -1, "type": "PRES_AUD", "word": "turnip", "wordID": 1520, "conditions": [24, 800, "a", 12000], "trial": 6, "serialpos": 5, "trial_type": "single-audio", "trial_index": 230, "time_elapsed": 1089671, "internal_node_id": "0.0-167.0"}}, {"uniqueid": "MTK0957:3HL8HNGX468D92OFCC1ISD82BY2F9G", "current_trial": 231, "dateTime": 1512939141191, "trialdata": {"rt": -1000, "stimulus": "/static/audio/wordpool/WOMAN.wav", "key_press": -1, "type": "PRES_AUD", "word": "woman", "wordID": 1619, "conditions": [24, 800, "a", 12000], "trial": 6, "serialpos": 6, "trial_type": "single-audio", "trial_index": 231, "time_elapsed": 1091509, "internal_node_id": "0.0-168.0"}}, {"uniqueid": "MTK0957:3HL8HNGX468D92OFCC1ISD82BY2F9G", "current_trial": 232, "dateTime": 1512939143012, "trialdata": {"rt": -1000, "stimulus": "/static/audio/wordpool/DOLPHIN.wav", "key_press": -1, "type": "PRES_AUD", "word": "dolphin", "wordID": 482, "conditions": [24, 800, "a", 12000], "trial": 6, "serialpos": 7, "trial_type": "single-audio", "trial_index": 232, "time_elapsed": 1093330, "internal_node_id": "0.0-169.0"}}, {"uniqueid": "MTK0957:3HL8HNGX468D92OFCC1ISD82BY2F9G", "current_trial": 233, "dateTime": 1512939144886, "trialdata": {"rt": -1000, "stimulus": "/static/audio/wordpool/AWARD.wav", "key_press": -1, "type": "PRES_AUD", "word": "award", "wordID": 62, "conditions": [24, 800, "a", 12000], "trial": 6, "serialpos": 8, "trial_type": "single-audio", "trial_index": 233, "time_elapsed": 1095204, "internal_node_id": "0.0-170.0"}}, {"uniqueid": "MTK0957:3HL8HNGX468D92OFCC1ISD82BY2F9G", "current_trial": 234, "dateTime": 1512939146594, "trialdata": {"rt": -1000, "stimulus": "/static/audio/wordpool/CASHEW.wav", "key_press": -1, "type": "PRES_AUD", "word": "cashew", "wordID": 252, "conditions": [24, 800, "a", 12000], "trial": 6, "serialpos": 9, "trial_type": "single-audio", "trial_index": 234, "time_elapsed": 1096912, "internal_node_id": "0.0-171.0"}}, {"uniqueid": "MTK0957:3HL8HNGX468D92OFCC1ISD82BY2F9G", "current_trial": 235, "dateTime": 1512939148527, "trialdata": {"rt": -1000, "stimulus": "/static/audio/wordpool/CABBAGE.wav", "key_press": -1, "type": "PRES_AUD", "word": "cabbage", "wordID": 209, "conditions": [24, 800, "a", 12000], "trial": 6, "serialpos": 10, "trial_type": "single-audio", "trial_index": 235, "time_elapsed": 1098845, "internal_node_id": "0.0-172.0"}}, {"uniqueid": "MTK0957:3HL8HNGX468D92OFCC1ISD82BY2F9G", "current_trial": 236, "dateTime": 1512939150188, "trialdata": {"rt": -1000, "stimulus": "/static/audio/wordpool/LIGHTNING.wav", "key_press": -1, "type": "PRES_AUD", "word": "lightning", "wordID": 819, "conditions": [24, 800, "a", 12000], "trial": 6, "serialpos": 11, "trial_type": "single-audio", "trial_index": 236, "time_elapsed": 1100506, "internal_node_id": "0.0-173.0"}}, {"uniqueid": "MTK0957:3HL8HNGX468D92OFCC1ISD82BY2F9G", "current_trial": 237, "dateTime": 1512939152035, "trialdata": {"rt": -1000, "stimulus": "/static/audio/wordpool/MACHINE.wav", "key_press": -1, "type": "PRES_AUD", "word": "machine", "wordID": 851, "conditions": [24, 800, "a", 12000], "trial": 6, "serialpos": 12, "trial_type": "single-audio", "trial_index": 237, "time_elapsed": 1102353, "internal_node_id": "0.0-174.0"}}, {"uniqueid": "MTK0957:3HL8HNGX468D92OFCC1ISD82BY2F9G", "current_trial": 238, "dateTime": 1512939153696, "trialdata": {"rt": -1000, "stimulus": "/static/audio/wordpool/LAKE.wav", "key_press": -1, "type": "PRES_AUD", "word": "lake", "wordID": 795, "conditions": [24, 800, "a", 12000], "trial": 6, "serialpos": 13, "trial_type": "single-audio", "trial_index": 238, "time_elapsed": 1104014, "internal_node_id": "0.0-175.0"}}, {"uniqueid": "MTK0957:3HL8HNGX468D92OFCC1ISD82BY2F9G", "current_trial": 239, "dateTime": 1512939155447, "trialdata": {"rt": -1000, "stimulus": "/static/audio/wordpool/PLASTER.wav", "key_press": -1, "type": "PRES_AUD", "word": "plaster", "wordID": 1084, "conditions": [24, 800, "a", 12000], "trial": 6, "serialpos": 14, "trial_type": "single-audio", "trial_index": 239, "time_elapsed": 1105765, "internal_node_id": "0.0-176.0"}}, {"uniqueid": "MTK0957:3HL8HNGX468D92OFCC1ISD82BY2F9G", "current_trial": 240, "dateTime": 1512939157113, "trialdata": {"rt": -1000, "stimulus": "/static/audio/wordpool/SHORTS.wav", "key_press": -1, "type": "PRES_AUD", "word": "shorts", "wordID": 1292, "conditions": [24, 800, "a", 12000], "trial": 6, "serialpos": 15, "trial_type": "single-audio", "trial_index": 240, "time_elapsed": 1107431, "internal_node_id": "0.0-177.0"}}, {"uniqueid": "MTK0957:3HL8HNGX468D92OFCC1ISD82BY2F9G", "current_trial": 241, "dateTime": 1512939158739, "trialdata": {"rt": -1000, "stimulus": "/static/audio/wordpool/CANAL.wav", "key_press": -1, "type": "PRES_AUD", "word": "canal", "wordID": 225, "conditions": [24, 800, "a", 12000], "trial": 6, "serialpos": 16, "trial_type": "single-audio", "trial_index": 241, "time_elapsed": 1109057, "internal_node_id": "0.0-178.0"}}, {"uniqueid": "MTK0957:3HL8HNGX468D92OFCC1ISD82BY2F9G", "current_trial": 242, "dateTime": 1512939160429, "trialdata": {"rt": -1000, "stimulus": "/static/audio/wordpool/CANYON.wav", "key_press": -1, "type": "PRES_AUD", "word": "canyon", "wordID": 234, "conditions": [24, 800, "a", 12000], "trial": 6, "serialpos": 17, "trial_type": "single-audio", "trial_index": 242, "time_elapsed": 1110747, "internal_node_id": "0.0-179.0"}}, {"uniqueid": "MTK0957:3HL8HNGX468D92OFCC1ISD82BY2F9G", "current_trial": 243, "dateTime": 1512939162355, "trialdata": {"rt": -1000, "stimulus": "/static/audio/wordpool/FLASHLIGHT.wav", "key_press": -1, "type": "PRES_AUD", "word": "flashlight", "wordID": 574, "conditions": [24, 800, "a", 12000], "trial": 6, "serialpos": 18, "trial_type": "single-audio", "trial_index": 243, "time_elapsed": 1112673, "internal_node_id": "0.0-180.0"}}, {"uniqueid": "MTK0957:3HL8HNGX468D92OFCC1ISD82BY2F9G", "current_trial": 244, "dateTime": 1512939163968, "trialdata": {"rt": -1000, "stimulus": "/static/audio/wordpool/ICING.wav", "key_press": -1, "type": "PRES_AUD", "word": "icing", "wordID": 731, "conditions": [24, 800, "a", 12000], "trial": 6, "serialpos": 19, "trial_type": "single-audio", "trial_index": 244, "time_elapsed": 1114286, "internal_node_id": "0.0-181.0"}}, {"uniqueid": "MTK0957:3HL8HNGX468D92OFCC1ISD82BY2F9G", "current_trial": 245, "dateTime": 1512939165672, "trialdata": {"rt": -1000, "stimulus": "/static/audio/wordpool/TWEEZERS.wav", "key_press": -1, "type": "PRES_AUD", "word": "tweezers", "wordID": 1525, "conditions": [24, 800, "a", 12000], "trial": 6, "serialpos": 20, "trial_type": "single-audio", "trial_index": 245, "time_elapsed": 1115990, "internal_node_id": "0.0-182.0"}}, {"uniqueid": "MTK0957:3HL8HNGX468D92OFCC1ISD82BY2F9G", "current_trial": 246, "dateTime": 1512939167551, "trialdata": {"rt": -1000, "stimulus": "/static/audio/wordpool/SCISSORS.wav", "key_press": -1, "type": "PRES_AUD", "word": "scissors", "wordID": 1249, "conditions": [24, 800, "a", 12000], "trial": 6, "serialpos": 21, "trial_type": "single-audio", "trial_index": 246, "time_elapsed": 1117869, "internal_node_id": "0.0-183.0"}}, {"uniqueid": "MTK0957:3HL8HNGX468D92OFCC1ISD82BY2F9G", "current_trial": 247, "dateTime": 1512939169540, "trialdata": {"rt": -1000, "stimulus": "/static/audio/wordpool/WRENCH.wav", "key_press": -1, "type": "PRES_AUD", "word": "wrench", "wordID": 1624, "conditions": [24, 800, "a", 12000], "trial": 6, "serialpos": 22, "trial_type": "single-audio", "trial_index": 247, "time_elapsed": 1119858, "internal_node_id": "0.0-184.0"}}, {"uniqueid": "MTK0957:3HL8HNGX468D92OFCC1ISD82BY2F9G", "current_trial": 248, "dateTime": 1512939171203, "trialdata": {"rt": -1000, "stimulus": "/static/audio/wordpool/DIME.wav", "key_press": -1, "type": "PRES_AUD", "word": "dime", "wordID": 465, "conditions": [24, 800, "a", 12000], "trial": 6, "serialpos": 23, "trial_type": "single-audio", "trial_index": 248, "time_elapsed": 1121521, "internal_node_id": "0.0-185.0"}}, {"uniqueid": "MTK0957:3HL8HNGX468D92OFCC1ISD82BY2F9G", "current_trial": 249, "dateTime": 1512939172421, "trialdata": {"rt": -1, "stimulus": "", "key_press": -1, "type": "PRE_RECALL_DELAY", "trial_type": "single-stim", "trial_index": 249, "time_elapsed": 1122739, "internal_node_id": "0.0-186.0-0.0"}}, {"uniqueid": "MTK0957:3HL8HNGX468D92OFCC1ISD82BY2F9G", "current_trial": 250, "dateTime": 1512939172920, "trialdata": {"rt": -1000, "stimulus": "/static/audio/400Hz.wav", "key_press": -1, "type": "PRE_RECALL_ALERT", "trial_type": "single-audio", "trial_index": 250, "time_elapsed": 1123238, "internal_node_id": "0.0-187.0"}}, {"uniqueid": "MTK0957:3HL8HNGX468D92OFCC1ISD82BY2F9G", "current_trial": 251, "dateTime": 1512939232931, "trialdata": {"rt": [1476, 3257, 7273, 8699, 15127, 17448, 18753], "recwords": ["dime", "scissors", "wrench", "woman", "cashew", "fox", "snake"], "type": "FREE_RECALL", "conditions": [24, 800, "a", 12000], "trial": 6, "trial_type": "free-recall", "trial_index": 251, "time_elapsed": 1183247, "internal_node_id": "0.0-188.0-0.0"}}, {"uniqueid": "MTK0957:3HL8HNGX468D92OFCC1ISD82BY2F9G", "current_trial": 252, "dateTime": 1512939236393, "trialdata": {"rt": 1459, "key_press": 32, "type": "INSTRUCTIONS", "trial_type": "text", "trial_index": 252, "time_elapsed": 1186711, "internal_node_id": "0.0-189.0"}}, {"uniqueid": "MTK0957:3HL8HNGX468D92OFCC1ISD82BY2F9G", "current_trial": 253, "dateTime": 1512939262397, "trialdata": {"rt": [1631, 3565, 6764, 8936, 10808, 15047, 21305, 23995], "responses": ["11", "10", "7", "11", "7", "17", "17", "8"], "num1": [5, 5, 4, 6, 3, 6, 9, 2, 3], "num2": [9, 2, 1, 2, 1, 9, 5, 4, 1], "num3": [1, 3, 2, 3, 3, 2, 3, 2, 3], "type": "DISTRACTOR", "conditions": [12, 800, "a", 24000], "trial": 7, "trial_type": "math-distractor", "trial_index": 253, "time_elapsed": 1212715, "internal_node_id": "0.0-190.0"}}, {"uniqueid": "MTK0957:3HL8HNGX468D92OFCC1ISD82BY2F9G", "current_trial": 254, "dateTime": 1512939265399, "trialdata": {"rt": -1, "stimulus": "<p id=\"stim\">10</p>", "key_press": -1, "trial_type": "single-stim", "trial_index": 254, "time_elapsed": 1215717, "internal_node_id": "0.0-191.0-0.0"}}, {"uniqueid": "MTK0957:3HL8HNGX468D92OFCC1ISD82BY2F9G", "current_trial": 255, "dateTime": 1512939266401, "trialdata": {"rt": -1, "stimulus": "<p id=\"stim\">9</p>", "key_press": -1, "trial_type": "single-stim", "trial_index": 255, "time_elapsed": 1216719, "internal_node_id": "0.0-191.0-1.0"}}, {"uniqueid": "MTK0957:3HL8HNGX468D92OFCC1ISD82BY2F9G", "current_trial": 256, "dateTime": 1512939267402, "trialdata": {"rt": -1, "stimulus": "<p id=\"stim\">8</p>", "key_press": -1, "trial_type": "single-stim", "trial_index": 256, "time_elapsed": 1217720, "internal_node_id": "0.0-191.0-2.0"}}, {"uniqueid": "MTK0957:3HL8HNGX468D92OFCC1ISD82BY2F9G", "current_trial": 257, "dateTime": 1512939268404, "trialdata": {"rt": -1, "stimulus": "<p id=\"stim\">7</p>", "key_press": -1, "trial_type": "single-stim", "trial_index": 257, "time_elapsed": 1218722, "internal_node_id": "0.0-191.0-3.0"}}, {"uniqueid": "MTK0957:3HL8HNGX468D92OFCC1ISD82BY2F9G", "current_trial": 258, "dateTime": 1512939269406, "trialdata": {"rt": -1, "stimulus": "<p id=\"stim\">6</p>", "key_press": -1, "trial_type": "single-stim", "trial_index": 258, "time_elapsed": 1219724, "internal_node_id": "0.0-191.0-4.0"}}, {"uniqueid": "MTK0957:3HL8HNGX468D92OFCC1ISD82BY2F9G", "current_trial": 259, "dateTime": 1512939270409, "trialdata": {"rt": -1, "stimulus": "<p id=\"stim\">5</p>", "key_press": -1, "trial_type": "single-stim", "trial_index": 259, "time_elapsed": 1220727, "internal_node_id": "0.0-191.0-5.0"}}, {"uniqueid": "MTK0957:3HL8HNGX468D92OFCC1ISD82BY2F9G", "current_trial": 260, "dateTime": 1512939271411, "trialdata": {"rt": -1, "stimulus": "<p id=\"stim\">4</p>", "key_press": -1, "trial_type": "single-stim", "trial_index": 260, "time_elapsed": 1221729, "internal_node_id": "0.0-191.0-6.0"}}, {"uniqueid": "MTK0957:3HL8HNGX468D92OFCC1ISD82BY2F9G", "current_trial": 261, "dateTime": 1512939272413, "trialdata": {"rt": -1, "stimulus": "<p id=\"stim\">3</p>", "key_press": -1, "trial_type": "single-stim", "trial_index": 261, "time_elapsed": 1222731, "internal_node_id": "0.0-191.0-7.0"}}, {"uniqueid": "MTK0957:3HL8HNGX468D92OFCC1ISD82BY2F9G", "current_trial": 262, "dateTime": 1512939273414, "trialdata": {"rt": -1, "stimulus": "<p id=\"stim\">2</p>", "key_press": -1, "trial_type": "single-stim", "trial_index": 262, "time_elapsed": 1223732, "internal_node_id": "0.0-191.0-8.0"}}, {"uniqueid": "MTK0957:3HL8HNGX468D92OFCC1ISD82BY2F9G", "current_trial": 263, "dateTime": 1512939274417, "trialdata": {"rt": -1, "stimulus": "<p id=\"stim\">1</p>", "key_press": -1, "trial_type": "single-stim", "trial_index": 263, "time_elapsed": 1224735, "internal_node_id": "0.0-191.0-9.0"}}, {"uniqueid": "MTK0957:3HL8HNGX468D92OFCC1ISD82BY2F9G", "current_trial": 264, "dateTime": 1512939275918, "trialdata": {"rt": -1, "stimulus": "<p id=\"stim\">+</p>", "key_press": -1, "type": "FIXATION", "trial_type": "single-stim", "trial_index": 264, "time_elapsed": 1226236, "internal_node_id": "0.0-192.0-0.0"}}, {"uniqueid": "MTK0957:3HL8HNGX468D92OFCC1ISD82BY2F9G", "current_trial": 265, "dateTime": 1512939277847, "trialdata": {"rt": -1000, "stimulus": "/static/audio/wordpool/TURKEY.wav", "key_press": -1, "type": "PRES_AUD", "word": "turkey", "wordID": 1519, "conditions": [12, 800, "a", 24000], "trial": 7, "serialpos": 0, "trial_type": "single-audio", "trial_index": 265, "time_elapsed": 1228165, "internal_node_id": "0.0-193.0"}}, {"uniqueid": "MTK0957:3HL8HNGX468D92OFCC1ISD82BY2F9G", "current_trial": 266, "dateTime": 1512939279753, "trialdata": {"rt": -1000, "stimulus": "/static/audio/wordpool/TART.wav", "key_press": -1, "type": "PRES_AUD", "word": "tart", "wordID": 1435, "conditions": [12, 800, "a", 24000], "trial": 7, "serialpos": 1, "trial_type": "single-audio", "trial_index": 266, "time_elapsed": 1230071, "internal_node_id": "0.0-194.0"}}, {"uniqueid": "MTK0957:3HL8HNGX468D92OFCC1ISD82BY2F9G", "current_trial": 267, "dateTime": 1512939281687, "trialdata": {"rt": -1000, "stimulus": "/static/audio/wordpool/FRUIT.wav", "key_press": -1, "type": "PRES_AUD", "word": "fruit", "wordID": 609, "conditions": [12, 800, "a", 24000], "trial": 7, "serialpos": 2, "trial_type": "single-audio", "trial_index": 267, "time_elapsed": 1232005, "internal_node_id": "0.0-195.0"}}, {"uniqueid": "MTK0957:3HL8HNGX468D92OFCC1ISD82BY2F9G", "current_trial": 268, "dateTime": 1512939283600, "trialdata": {"rt": -1000, "stimulus": "/static/audio/wordpool/BACON.wav", "key_press": -1, "type": "PRES_AUD", "word": "bacon", "wordID": 66, "conditions": [12, 800, "a", 24000], "trial": 7, "serialpos": 3, "trial_type": "single-audio", "trial_index": 268, "time_elapsed": 1233918, "internal_node_id": "0.0-196.0"}}, {"uniqueid": "MTK0957:3HL8HNGX468D92OFCC1ISD82BY2F9G", "current_trial": 269, "dateTime": 1512939285318, "trialdata": {"rt": -1000, "stimulus": "/static/audio/wordpool/BEEF.wav", "key_press": -1, "type": "PRES_AUD", "word": "beef", "wordID": 112, "conditions": [12, 800, "a", 24000], "trial": 7, "serialpos": 4, "trial_type": "single-audio", "trial_index": 269, "time_elapsed": 1235636, "internal_node_id": "0.0-197.0"}}, {"uniqueid": "MTK0957:3HL8HNGX468D92OFCC1ISD82BY2F9G", "current_trial": 270, "dateTime": 1512939286931, "trialdata": {"rt": -1000, "stimulus": "/static/audio/wordpool/FLOWER.wav", "key_press": -1, "type": "PRES_AUD", "word": "flower", "wordID": 583, "conditions": [12, 800, "a", 24000], "trial": 7, "serialpos": 5, "trial_type": "single-audio", "trial_index": 270, "time_elapsed": 1237249, "internal_node_id": "0.0-198.0"}}, {"uniqueid": "MTK0957:3HL8HNGX468D92OFCC1ISD82BY2F9G", "current_trial": 271, "dateTime": 1512939288665, "trialdata": {"rt": -1000, "stimulus": "/static/audio/wordpool/UMPIRE.wav", "key_press": -1, "type": "PRES_AUD", "word": "umpire", "wordID": 1534, "conditions": [12, 800, "a", 24000], "trial": 7, "serialpos": 6, "trial_type": "single