{"condition": 0, "counterbalance": 2730, "assignmentId": "3MHW492WW1KHCJTZ10ARFLH8YIIMVC", "workerId": "MTK0653", "hitId": "30QQTY5GMKRWRHZI22TVBXMFAK47UT", "currenttrial": 626, "bonus": 0, "data": [{"uniqueid": "MTK0653:3MHW492WW1KHCJTZ10ARFLH8YIIMVC", "current_trial": 0, "dateTime": 1512582631855, "trialdata": {"rt": 2305, "key_press": 175, "type": "INSTRUCTIONS", "trial_type": "text", "trial_index": 0, "time_elapsed": 2308, "internal_node_id": "0.0-0.0"}}, {"uniqueid": "MTK0653:3MHW492WW1KHCJTZ10ARFLH8YIIMVC", "current_trial": 1, "dateTime": 1512582647531, "trialdata": {"rt": 15673, "key_press": 32, "type": "INSTRUCTIONS", "trial_type": "text", "trial_index": 1, "time_elapsed": 17986, "internal_node_id": "0.0-1.0"}}, {"uniqueid": "MTK0653:3MHW492WW1KHCJTZ10ARFLH8YIIMVC", "current_trial": 2, "dateTime": 1512582700695, "trialdata": {"rt": [53143], "responses": ["ocean"], "type": "AUDIO_TEST", "trial_type": "audio-test", "trial_index": 2, "time_elapsed": 71149, "internal_node_id": "0.0-2.0"}}, {"uniqueid": "MTK0653:3MHW492WW1KHCJTZ10ARFLH8YIIMVC", "current_trial": 3, "dateTime": 1512582708599, "trialdata": {"rt": [7890], "responses": ["crystal"], "type": "AUDIO_TEST", "trial_type": "audio-test", "trial_index": 3, "time_elapsed": 79053, "internal_node_id": "0.0-3.0"}}, {"uniqueid": "MTK0653:3MHW492WW1KHCJTZ10ARFLH8YIIMVC", "current_trial": 4, "dateTime": 1512582721847, "trialdata": {"rt": [13242], "responses": ["spice"], "type": "AUDIO_TEST", "trial_type": "audio-test", "trial_index": 4, "time_elapsed": 92302, "internal_node_id": "0.0-4.0"}}, {"uniqueid": "MTK0653:3MHW492WW1KHCJTZ10ARFLH8YIIMVC", "current_trial": 5, "dateTime": 1512582743638, "trialdata": {"rt": 21038, "responses": "{\"Q0\":\"10:30\",\"Q1\":\"7:15\",\"Q2\":\"5\"}", "type": "SLEEP_SURVEY", "trial_type": "survey-text", "trial_index": 5, "time_elapsed": 114093, "internal_node_id": "0.0-5.0"}}, {"uniqueid": "MTK0653:3MHW492WW1KHCJTZ10ARFLH8YIIMVC", "current_trial": 6, "dateTime": 1512582780069, "trialdata": {"rt": 35428, "key_press": 32, "type": "INSTRUCTIONS", "trial_type": "text", "trial_index": 6, "time_elapsed": 150524, "internal_node_id": "0.0-6.0"}}, {"uniqueid": "MTK0653:3MHW492WW1KHCJTZ10ARFLH8YIIMVC", "current_trial": 7, "dateTime": 1512582797054, "trialdata": {"rt": 16484, "key_press": 32, "type": "INSTRUCTIONS", "trial_type": "text", "trial_index": 7, "time_elapsed": 167508, "internal_node_id": "0.0-7.0"}}, {"uniqueid": "MTK0653:3MHW492WW1KHCJTZ10ARFLH8YIIMVC", "current_trial": 8, "dateTime": 1512582807235, "trialdata": {"rt": 9680, "key_press": 32, "type": "INSTRUCTIONS", "trial_type": "text", "trial_index": 8, "time_elapsed": 177690, "internal_node_id": "0.0-8.0"}}, {"uniqueid": "MTK0653:3MHW492WW1KHCJTZ10ARFLH8YIIMVC", "current_trial": 9, "dateTime": 1512582826240, "trialdata": {"rt": [4838, 8832, 15997], "responses": ["9", "9", "24"], "num1": [1, 3, 9, 6], "num2": [2, 1, 8, 1], "num3": [6, 5, 7, 6], "type": "DISTRACTOR", "conditions": [18, 1200, "v", 18000], "trial": 0, "trial_type": "math-distractor", "trial_index": 9, "time_elapsed": 196695, "internal_node_id": "0.0-9.0"}}, {"uniqueid": "MTK0653:3MHW492WW1KHCJTZ10ARFLH8YIIMVC", "current_trial": 10, "dateTime": 1512582829242, "trialdata": {"rt": -1, "stimulus": "<p id=\"stim\">10</p>", "key_press": -1, "trial_type": "single-stim", "trial_index": 10, "time_elapsed": 199697, "internal_node_id": "0.0-10.0-0.0"}}, {"uniqueid": "MTK0653:3MHW492WW1KHCJTZ10ARFLH8YIIMVC", "current_trial": 11, "dateTime": 1512582830244, "trialdata": {"rt": -1, "stimulus": "<p id=\"stim\">9</p>", "key_press": -1, "trial_type": "single-stim", "trial_index": 11, "time_elapsed": 200698, "internal_node_id": "0.0-10.0-1.0"}}, {"uniqueid": "MTK0653:3MHW492WW1KHCJTZ10ARFLH8YIIMVC", "current_trial": 12, "dateTime": 1512582831244, "trialdata": {"rt": -1, "stimulus": "<p id=\"stim\">8</p>", "key_press": -1, "trial_type": "single-stim", "trial_index": 12, "time_elapsed": 201699, "internal_node_id": "0.0-10.0-2.0"}}, {"uniqueid": "MTK0653:3MHW492WW1KHCJTZ10ARFLH8YIIMVC", "current_trial": 13, "dateTime": 1512582832245, "trialdata": {"rt": -1, "stimulus": "<p id=\"stim\">7</p>", "key_press": -1, "trial_type": "single-stim", "trial_index": 13, "time_elapsed": 202700, "internal_node_id": "0.0-10.0-3.0"}}, {"uniqueid": "MTK0653:3MHW492WW1KHCJTZ10ARFLH8YIIMVC", "current_trial": 14, "dateTime": 1512582833246, "trialdata": {"rt": -1, "stimulus": "<p id=\"stim\">6</p>", "key_press": -1, "trial_type": "single-stim", "trial_index": 14, "time_elapsed": 203701, "internal_node_id": "0.0-10.0-4.0"}}, {"uniqueid": "MTK0653:3MHW492WW1KHCJTZ10ARFLH8YIIMVC", "current_trial": 15, "dateTime": 1512582834247, "trialdata": {"rt": -1, "stimulus": "<p id=\"stim\">5</p>", "key_press": -1, "trial_type": "single-stim", "trial_index": 15, "time_elapsed": 204702, "internal_node_id": "0.0-10.0-5.0"}}, {"uniqueid": "MTK0653:3MHW492WW1KHCJTZ10ARFLH8YIIMVC", "current_trial": 16, "dateTime": 1512582835248, "trialdata": {"rt": -1, "stimulus": "<p id=\"stim\">4</p>", "key_press": -1, "trial_type": "single-stim", "trial_index": 16, "time_elapsed": 205703, "internal_node_id": "0.0-10.0-6.0"}}, {"uniqueid": "MTK0653:3MHW492WW1KHCJTZ10ARFLH8YIIMVC", "current_trial": 17, "dateTime": 1512582836249, "trialdata": {"rt": -1, "stimulus": "<p id=\"stim\">3</p>", "key_press": -1, "trial_type": "single-stim", "trial_index": 17, "time_elapsed": 206704, "internal_node_id": "0.0-10.0-7.0"}}, {"uniqueid": "MTK0653:3MHW492WW1KHCJTZ10ARFLH8YIIMVC", "current_trial": 18, "dateTime": 1512582837251, "trialdata": {"rt": -1, "stimulus": "<p id=\"stim\">2</p>", "key_press": -1, "trial_type": "single-stim", "trial_index": 18, "time_elapsed": 207706, "internal_node_id": "0.0-10.0-8.0"}}, {"uniqueid": "MTK0653:3MHW492WW1KHCJTZ10ARFLH8YIIMVC", "current_trial": 19, "dateTime": 1512582838252, "trialdata": {"rt": -1, "stimulus": "<p id=\"stim\">1</p>", "key_press": -1, "trial_type": "single-stim", "trial_index": 19, "time_elapsed": 208707, "internal_node_id": "0.0-10.0-9.0"}}, {"uniqueid": "MTK0653:3MHW492WW1KHCJTZ10ARFLH8YIIMVC", "current_trial": 20, "dateTime": 1512582839754, "trialdata": {"rt": -1, "stimulus": "<p id=\"stim\">+</p>", "key_press": -1, "type": "FIXATION", "trial_type": "single-stim", "trial_index": 20, "time_elapsed": 210208, "internal_node_id": "0.0-11.0-0.0"}}, {"uniqueid": "MTK0653:3MHW492WW1KHCJTZ10ARFLH8YIIMVC", "current_trial": 21, "dateTime": 1512582840954, "trialdata": {"rt": -1, "stimulus": "<p id=\"stim\">GAVEL</p>", "key_press": -1, "type": "PRES_VIS", "word": "gavel", "wordID": 626, "conditions": [18, 1200, "v", 18000], "trial": 0, "serialpos": 0, "trial_type": "single-stim", "trial_index": 21, "time_elapsed": 211409, "internal_node_id": "0.0-12.0"}}, {"uniqueid": "MTK0653:3MHW492WW1KHCJTZ10ARFLH8YIIMVC", "current_trial": 22, "dateTime": 1512582842969, "trialdata": {"rt": -1, "stimulus": "<p id=\"stim\">EYELASH</p>", "key_press": -1, "type": "PRES_VIS", "word": "eyelash", "wordID": 545, "conditions": [18, 1200, "v", 18000], "trial": 0, "serialpos": 1, "trial_type": "single-stim", "trial_index": 22, "time_elapsed": 213424, "internal_node_id": "0.0-13.0"}}, {"uniqueid": "MTK0653:3MHW492WW1KHCJTZ10ARFLH8YIIMVC", "current_trial": 23, "dateTime": 1512582845268, "trialdata": {"rt": -1, "stimulus": "<p id=\"stim\">CUSTARD</p>", "key_press": -1, "type": "PRES_VIS", "word": "custard", "wordID": 428, "conditions": [18, 1200, "v", 18000], "trial": 0, "serialpos": 2, "trial_type": "single-stim", "trial_index": 23, "time_elapsed": 215723, "internal_node_id": "0.0-14.0"}}, {"uniqueid": "MTK0653:3MHW492WW1KHCJTZ10ARFLH8YIIMVC", "current_trial": 24, "dateTime": 1512582847301, "trialdata": {"rt": -1, "stimulus": "<p id=\"stim\">JURY</p>", "key_press": -1, "type": "PRES_VIS", "word": "jury", "wordID": 765, "conditions": [18, 1200, "v", 18000], "trial": 0, "serialpos": 3, "trial_type": "single-stim", "trial_index": 24, "time_elapsed": 217755, "internal_node_id": "0.0-15.0"}}, {"uniqueid": "MTK0653:3MHW492WW1KHCJTZ10ARFLH8YIIMVC", "current_trial": 25, "dateTime": 1512582849353, "trialdata": {"rt": -1, "stimulus": "<p id=\"stim\">FLEET</p>", "key_press": -1, "type": "PRES_VIS", "word": "fleet", "wordID": 577, "conditions": [18, 1200, "v", 18000], "trial": 0, "serialpos": 4, "trial_type": "single-stim", "trial_index": 25, "time_elapsed": 219808, "internal_node_id": "0.0-16.0"}}, {"uniqueid": "MTK0653:3MHW492WW1KHCJTZ10ARFLH8YIIMVC", "current_trial": 26, "dateTime": 1512582851562, "trialdata": {"rt": -1, "stimulus": "<p id=\"stim\">KEEPER</p>", "key_press": -1, "type": "PRES_VIS", "word": "keeper", "wordID": 768, "conditions": [18, 1200, "v", 18000], "trial": 0, "serialpos": 5, "trial_type": "single-stim", "trial_index": 26, "time_elapsed": 222017, "internal_node_id": "0.0-17.0"}}, {"uniqueid": "MTK0653:3MHW492WW1KHCJTZ10ARFLH8YIIMVC", "current_trial": 27, "dateTime": 1512582853860, "trialdata": {"rt": -1, "stimulus": "<p id=\"stim\">CARRIAGE</p>", "key_press": -1, "type": "PRES_VIS", "word": "carriage", "wordID": 247, "conditions": [18, 1200, "v", 18000], "trial": 0, "serialpos": 6, "trial_type": "single-stim", "trial_index": 27, "time_elapsed": 224315, "internal_node_id": "0.0-18.0"}}, {"uniqueid": "MTK0653:3MHW492WW1KHCJTZ10ARFLH8YIIMVC", "current_trial": 28, "dateTime": 1512582855877, "trialdata": {"rt": -1, "stimulus": "<p id=\"stim\">HOUND</p>", "key_press": -1, "type": "PRES_VIS", "word": "hound", "wordID": 723, "conditions": [18, 1200, "v", 18000], "trial": 0, "serialpos": 7, "trial_type": "single-stim", "trial_index": 28, "time_elapsed": 226332, "internal_node_id": "0.0-19.0"}}, {"uniqueid": "MTK0653:3MHW492WW1KHCJTZ10ARFLH8YIIMVC", "current_trial": 29, "dateTime": 1512582858152, "trialdata": {"rt": -1, "stimulus": "<p id=\"stim\">DINER</p>", "key_press": -1, "type": "PRES_VIS", "word": "diner", "wordID": 466, "conditions": [18, 1200, "v", 18000], "trial": 0, "serialpos": 8, "trial_type": "single-stim", "trial_index": 29, "time_elapsed": 228607, "internal_node_id": "0.0-20.0"}}, {"uniqueid": "MTK0653:3MHW492WW1KHCJTZ10ARFLH8YIIMVC", "current_trial": 30, "dateTime": 1512582860158, "trialdata": {"rt": -1, "stimulus": "<p id=\"stim\">SKIRT</p>", "key_press": -1, "type": "PRES_VIS", "word": "skirt", "wordID": 1318, "conditions": [18, 1200, "v", 18000], "trial": 0, "serialpos": 9, "trial_type": "single-stim", "trial_index": 30, "time_elapsed": 230613, "internal_node_id": "0.0-21.0"}}, {"uniqueid": "MTK0653:3MHW492WW1KHCJTZ10ARFLH8YIIMVC", "current_trial": 31, "dateTime": 1512582862352, "trialdata": {"rt": -1, "stimulus": "<p id=\"stim\">PASTRY</p>", "key_press": -1, "type": "PRES_VIS", "word": "pastry", "wordID": 1021, "conditions": [18, 1200, "v", 18000], "trial": 0, "serialpos": 10, "trial_type": "single-stim", "trial_index": 31, "time_elapsed": 232806, "internal_node_id": "0.0-22.0"}}, {"uniqueid": "MTK0653:3MHW492WW1KHCJTZ10ARFLH8YIIMVC", "current_trial": 32, "dateTime": 1512582864653, "trialdata": {"rt": -1, "stimulus": "<p id=\"stim\">WIFE</p>", "key_press": -1, "type": "PRES_VIS", "word": "wife", "wordID": 1608, "conditions": [18, 1200, "v", 18000], "trial": 0, "serialpos": 11, "trial_type": "single-stim", "trial_index": 32, "time_elapsed": 235108, "internal_node_id": "0.0-23.0"}}, {"uniqueid": "MTK0653:3MHW492WW1KHCJTZ10ARFLH8YIIMVC", "current_trial": 33, "dateTime": 1512582867023, "trialdata": {"rt": -1, "stimulus": "<p id=\"stim\">HAWK</p>", "key_press": -1, "type": "PRES_VIS", "word": "hawk", "wordID": 691, "conditions": [18, 1200, "v", 18000], "trial": 0, "serialpos": 12, "trial_type": "single-stim", "trial_index": 33, "time_elapsed": 237478, "internal_node_id": "0.0-24.0"}}, {"uniqueid": "MTK0653:3MHW492WW1KHCJTZ10ARFLH8YIIMVC", "current_trial": 34, "dateTime": 1512582869224, "trialdata": {"rt": -1, "stimulus": "<p id=\"stim\">WARDROBE</p>", "key_press": -1, "type": "PRES_VIS", "word": "wardrobe", "wordID": 1586, "conditions": [18, 1200, "v", 18000], "trial": 0, "serialpos": 13, "trial_type": "single-stim", "trial_index": 34, "time_elapsed": 239679, "internal_node_id": "0.0-25.0"}}, {"uniqueid": "MTK0653:3MHW492WW1KHCJTZ10ARFLH8YIIMVC", "current_trial": 35, "dateTime": 1512582871540, "trialdata": {"rt": -1, "stimulus": "<p id=\"stim\">FREEZER</p>", "key_press": -1, "type": "PRES_VIS", "word": "freezer", "wordID": 603, "conditions": [18, 1200, "v", 18000], "trial": 0, "serialpos": 14, "trial_type": "single-stim", "trial_index": 35, "time_elapsed": 241995, "internal_node_id": "0.0-26.0"}}, {"uniqueid": "MTK0653:3MHW492WW1KHCJTZ10ARFLH8YIIMVC", "current_trial": 36, "dateTime": 1512582873719, "trialdata": {"rt": -1, "stimulus": "<p id=\"stim\">PATIENT</p>", "key_press": -1, "type": "PRES_VIS", "word": "patient", "wordID": 1023, "conditions": [18, 1200, "v", 18000], "trial": 0, "serialpos": 15, "trial_type": "single-stim", "trial_index": 36, "time_elapsed": 244174, "internal_node_id": "0.0-27.0"}}, {"uniqueid": "MTK0653:3MHW492WW1KHCJTZ10ARFLH8YIIMVC", "current_trial": 37, "dateTime": 1512582875782, "trialdata": {"rt": -1, "stimulus": "<p id=\"stim\">TUTU</p>", "key_press": -1, "type": "PRES_VIS", "word": "tutu", "wordID": 1523, "conditions": [18, 1200, "v", 18000], "trial": 0, "serialpos": 16, "trial_type": "single-stim", "trial_index": 37, "time_elapsed": 246237, "internal_node_id": "0.0-28.0"}}, {"uniqueid": "MTK0653:3MHW492WW1KHCJTZ10ARFLH8YIIMVC", "current_trial": 38, "dateTime": 1512582878182, "trialdata": {"rt": -1, "stimulus": "<p id=\"stim\">CROWN</p>", "key_press": -1, "type": "PRES_VIS", "word": "crown", "wordID": 414, "conditions": [18, 1200, "v", 18000], "trial": 0, "serialpos": 17, "trial_type": "single-stim", "trial_index": 38, "time_elapsed": 248637, "internal_node_id": "0.0-29.0"}}, {"uniqueid": "MTK0653:3MHW492WW1KHCJTZ10ARFLH8YIIMVC", "current_trial": 39, "dateTime": 1512582880498, "trialdata": {"rt": -1, "stimulus": "", "key_press": -1, "type": "PRE_RECALL_DELAY", "trial_type": "single-stim", "trial_index": 39, "time_elapsed": 250953, "internal_node_id": "0.0-30.0-0.0"}}, {"uniqueid": "MTK0653:3MHW492WW1KHCJTZ10ARFLH8YIIMVC", "current_trial": 40, "dateTime": 1512582881001, "trialdata": {"rt": -1000, "stimulus": "/static/audio/400Hz.wav", "key_press": -1, "type": "PRE_RECALL_ALERT", "trial_type": "single-audio", "trial_index": 40, "time_elapsed": 251456, "internal_node_id": "0.0-31.0"}}, {"uniqueid": "MTK0653:3MHW492WW1KHCJTZ10ARFLH8YIIMVC", "current_trial": 41, "dateTime": 1512582941012, "trialdata": {"rt": [3416, 8509, 13393, 15576, 19823, 22690, 29360], "recwords": ["gavel", "custard", "wardrobe", "wife", "skirt", "tutu", "diner"], "type": "FREE_RECALL", "conditions": [18, 1200, "v", 18000], "trial": 0, "trial_type": "free-recall", "trial_index": 41, "time_elapsed": 311456, "internal_node_id": "0.0-32.0-0.0"}}, {"uniqueid": "MTK0653:3MHW492WW1KHCJTZ10ARFLH8YIIMVC", "current_trial": 42, "dateTime": 1512582943994, "trialdata": {"rt": 982, "key_press": 32, "type": "INSTRUCTIONS", "trial_type": "text", "trial_index": 42, "time_elapsed": 314449, "internal_node_id": "0.0-33.0"}}, {"uniqueid": "MTK0653:3MHW492WW1KHCJTZ10ARFLH8YIIMVC", "current_trial": 43, "dateTime": 1512582963998, "trialdata": {"rt": [4765, 6751, 9097, 11331, 15406], "responses": ["18", "11", "14", "11", "17"], "num1": [3, 2, 5, 2, 4, 6], "num2": [8, 7, 4, 5, 4, 7], "num3": [7, 2, 5, 4, 9, 7], "type": "DISTRACTOR", "conditions": [18, 1200, "a", 18000], "trial": 1, "trial_type": "math-distractor", "trial_index": 43, "time_elapsed": 334453, "internal_node_id": "0.0-34.0"}}, {"uniqueid": "MTK0653:3MHW492WW1KHCJTZ10ARFLH8YIIMVC", "current_trial": 44, "dateTime": 1512582966998, "trialdata": {"rt": -1, "stimulus": "<p id=\"stim\">10</p>", "key_press": -1, "trial_type": "single-stim", "trial_index": 44, "time_elapsed": 337453, "internal_node_id": "0.0-35.0-0.0"}}, {"uniqueid": "MTK0653:3MHW492WW1KHCJTZ10ARFLH8YIIMVC", "current_trial": 45, "dateTime": 1512582967999, "trialdata": {"rt": -1, "stimulus": "<p id=\"stim\">9</p>", "key_press": -1, "trial_type": "single-stim", "trial_index": 45, "time_elapsed": 338454, "internal_node_id": "0.0-35.0-1.0"}}, {"uniqueid": "MTK0653:3MHW492WW1KHCJTZ10ARFLH8YIIMVC", "current_trial": 46, "dateTime": 1512582969000, "trialdata": {"rt": -1, "stimulus": "<p id=\"stim\">8</p>", "key_press": -1, "trial_type": "single-stim", "trial_index": 46, "time_elapsed": 339455, "internal_node_id": "0.0-35.0-2.0"}}, {"uniqueid": "MTK0653:3MHW492WW1KHCJTZ10ARFLH8YIIMVC", "current_trial": 47, "dateTime": 1512582970002, "trialdata": {"rt": -1, "stimulus": "<p id=\"stim\">7</p>", "key_press": -1, "trial_type": "single-stim", "trial_index": 47, "time_elapsed": 340456, "internal_node_id": "0.0-35.0-3.0"}}, {"uniqueid": "MTK0653:3MHW492WW1KHCJTZ10ARFLH8YIIMVC", "current_trial": 48, "dateTime": 1512582971004, "trialdata": {"rt": -1, "stimulus": "<p id=\"stim\">6</p>", "key_press": -1, "trial_type": "single-stim", "trial_index": 48, "time_elapsed": 341457, "internal_node_id": "0.0-35.0-4.0"}}, {"uniqueid": "MTK0653:3MHW492WW1KHCJTZ10ARFLH8YIIMVC", "current_trial": 49, "dateTime": 1512582972004, "trialdata": {"rt": -1, "stimulus": "<p id=\"stim\">5</p>", "key_press": -1, "trial_type": "single-stim", "trial_index": 49, "time_elapsed": 342459, "internal_node_id": "0.0-35.0-5.0"}}, {"uniqueid": "MTK0653:3MHW492WW1KHCJTZ10ARFLH8YIIMVC", "current_trial": 50, "dateTime": 1512582973005, "trialdata": {"rt": -1, "stimulus": "<p id=\"stim\">4</p>", "key_press": -1, "trial_type": "single-stim", "trial_index": 50, "time_elapsed": 343460, "internal_node_id": "0.0-35.0-6.0"}}, {"uniqueid": "MTK0653:3MHW492WW1KHCJTZ10ARFLH8YIIMVC", "current_trial": 51, "dateTime": 1512582974006, "trialdata": {"rt": -1, "stimulus": "<p id=\"stim\">3</p>", "key_press": -1, "trial_type": "single-stim", "trial_index": 51, "time_elapsed": 344461, "internal_node_id": "0.0-35.0-7.0"}}, {"uniqueid": "MTK0653:3MHW492WW1KHCJTZ10ARFLH8YIIMVC", "current_trial": 52, "dateTime": 1512582975007, "trialdata": {"rt": -1, "stimulus": "<p id=\"stim\">2</p>", "key_press": -1, "trial_type": "single-stim", "trial_index": 52, "time_elapsed": 345462, "internal_node_id": "0.0-35.0-8.0"}}, {"uniqueid": "MTK0653:3MHW492WW1KHCJTZ10ARFLH8YIIMVC", "current_trial": 53, "dateTime": 1512582976008, "trialdata": {"rt": -1, "stimulus": "<p id=\"stim\">1</p>", "key_press": -1, "trial_type": "single-stim", "trial_index": 53, "time_elapsed": 346463, "internal_node_id": "0.0-35.0-9.0"}}, {"uniqueid": "MTK0653:3MHW492WW1KHCJTZ10ARFLH8YIIMVC", "current_trial": 54, "dateTime": 1512582977510, "trialdata": {"rt": -1, "stimulus": "<p id=\"stim\">+</p>", "key_press": -1, "type": "FIXATION", "trial_type": "single-stim", "trial_index": 54, "time_elapsed": 347964, "internal_node_id": "0.0-36.0-0.0"}}, {"uniqueid": "MTK0653:3MHW492WW1KHCJTZ10ARFLH8YIIMVC", "current_trial": 55, "dateTime": 1512582979688, "trialdata": {"rt": -1000, "stimulus": "/static/audio/wordpool/LIZARD.wav", "key_press": -1, "type": "PRES_AUD", "word": "lizard", "wordID": 833, "conditions": [18, 1200, "a", 18000], "trial": 1, "serialpos": 0, "trial_type": "single-audio", "trial_index": 55, "time_elapsed": 350143, "internal_node_id": "0.0-37.0"}}, {"uniqueid": "MTK0653:3MHW492WW1KHCJTZ10ARFLH8YIIMVC", "current_trial": 56, "dateTime": 1512582982010, "trialdata": {"rt": -1000, "stimulus": "/static/audio/wordpool/SIDEWALK.wav", "key_press": -1, "type": "PRES_AUD", "word": "sidewalk", "wordID": 1302, "conditions": [18, 1200, "a", 18000], "trial": 1, "serialpos": 1, "trial_type": "single-audio", "trial_index": 56, "time_elapsed": 352465, "internal_node_id": "0.0-38.0"}}, {"uniqueid": "MTK0653:3MHW492WW1KHCJTZ10ARFLH8YIIMVC", "current_trial": 57, "dateTime": 1512582984287, "trialdata": {"rt": -1000, "stimulus": "/static/audio/wordpool/LACE.wav", "key_press": -1, "type": "PRES_AUD", "word": "lace", "wordID": 791, "conditions": [18, 1200, "a", 18000], "trial": 1, "serialpos": 2, "trial_type": "single-audio", "trial_index": 57, "time_elapsed": 354742, "internal_node_id": "0.0-39.0"}}, {"uniqueid": "MTK0653:3MHW492WW1KHCJTZ10ARFLH8YIIMVC", "current_trial": 58, "dateTime": 1512582986361, "trialdata": {"rt": -1000, "stimulus": "/static/audio/wordpool/OZONE.wav", "key_press": -1, "type": "PRES_AUD", "word": "ozone", "wordID": 995, "conditions": [18, 1200, "a", 18000], "trial": 1, "serialpos": 3, "trial_type": "single-audio", "trial_index": 58, "time_elapsed": 356816, "internal_node_id": "0.0-40.0"}}, {"uniqueid": "MTK0653:3MHW492WW1KHCJTZ10ARFLH8YIIMVC", "current_trial": 59, "dateTime": 1512582988431, "trialdata": {"rt": -1000, "stimulus": "/static/audio/wordpool/VIKING.wav", "key_press": -1, "type": "PRES_AUD", "word": "viking", "wordID": 1564, "conditions": [18, 1200, "a", 18000], "trial": 1, "serialpos": 4, "trial_type": "single-audio", "trial_index": 59, "time_elapsed": 358886, "internal_node_id": "0.0-41.0"}}, {"uniqueid": "MTK0653:3MHW492WW1KHCJTZ10ARFLH8YIIMVC", "current_trial": 60, "dateTime": 1512582990691, "trialdata": {"rt": -1000, "stimulus": "/static/audio/wordpool/SHOVEL.wav", "key_press": -1, "type": "PRES_AUD", "word": "shovel", "wordID": 1294, "conditions": [18, 1200, "a", 18000], "trial": 1, "serialpos": 5, "trial_type": "single-audio", "trial_index": 60, "time_elapsed": 361146, "internal_node_id": "0.0-42.0"}}, {"uniqueid": "MTK0653:3MHW492WW1KHCJTZ10ARFLH8YIIMVC", "current_trial": 61, "dateTime": 1512582992845, "trialdata": {"rt": -1000, "stimulus": "/static/audio/wordpool/SWAMP.wav", "key_press": -1, "type": "PRES_AUD", "word": "swamp", "wordID": 1415, "conditions": [18, 1200, "a", 18000], "trial": 1, "serialpos": 6, "trial_type": "single-audio", "trial_index": 61, "time_elapsed": 363300, "internal_node_id": "0.0-43.0"}}, {"uniqueid": "MTK0653:3MHW492WW1KHCJTZ10ARFLH8YIIMVC", "current_trial": 62, "dateTime": 1512582995109, "trialdata": {"rt": -1000, "stimulus": "/static/audio/wordpool/UMPIRE.wav", "key_press": -1, "type": "PRES_AUD", "word": "umpire", "wordID": 1534, "conditions": [18, 1200, "a", 18000], "trial": 1, "serialpos": 7, "trial_type": "single-audio", "trial_index": 62, "time_elapsed": 365564, "internal_node_id": "0.0-44.0"}}, {"uniqueid": "MTK0653:3MHW492WW1KHCJTZ10ARFLH8YIIMVC", "current_trial": 63, "dateTime": 1512582997305, "trialdata": {"rt": -1000, "stimulus": "/static/audio/wordpool/HERO.wav", "key_press": -1, "type": "PRES_AUD", "word": "hero", "wordID": 705, "conditions": [18, 1200, "a", 18000], "trial": 1, "serialpos": 8, "trial_type": "single-audio", "trial_index": 63, "time_elapsed": 367760, "internal_node_id": "0.0-45.0"}}, {"uniqueid": "MTK0653:3MHW492WW1KHCJTZ10ARFLH8YIIMVC", "current_trial": 64, "dateTime": 1512582999396, "trialdata": {"rt": -1000, "stimulus": "/static/audio/wordpool/SCALLOP.wav", "key_press": -1, "type": "PRES_AUD", "word": "scallop", "wordID": 1241, "conditions": [18, 1200, "a", 18000], "trial": 1, "serialpos": 9, "trial_type": "single-audio", "trial_index": 64, "time_elapsed": 369851, "internal_node_id": "0.0-46.0"}}, {"uniqueid": "MTK0653:3MHW492WW1KHCJTZ10ARFLH8YIIMVC", "current_trial": 65, "dateTime": 1512583001708, "trialdata": {"rt": -1000, "stimulus": "/static/audio/wordpool/BRICK.wav", "key_press": -1, "type": "PRES_AUD", "word": "brick", "wordID": 171, "conditions": [18, 1200, "a", 18000], "trial": 1, "serialpos": 10, "trial_type": "single-audio", "trial_index": 65, "time_elapsed": 372163, "internal_node_id": "0.0-47.0"}}, {"uniqueid": "MTK0653:3MHW492WW1KHCJTZ10ARFLH8YIIMVC", "current_trial": 66, "dateTime": 1512583003833, "trialdata": {"rt": -1000, "stimulus": "/static/audio/wordpool/STOMACH.wav", "key_press": -1, "type": "PRES_AUD", "word": "stomach", "wordID": 1383, "conditions": [18, 1200, "a", 18000], "trial": 1, "serialpos": 11, "trial_type": "single-audio", "trial_index": 66, "time_elapsed": 374288, "internal_node_id": "0.0-48.0"}}, {"uniqueid": "MTK0653:3MHW492WW1KHCJTZ10ARFLH8YIIMVC", "current_trial": 67, "dateTime": 1512583005875, "trialdata": {"rt": -1000, "stimulus": "/static/audio/wordpool/ELBOW.wav", "key_press": -1, "type": "PRES_AUD", "word": "elbow", "wordID": 519, "conditions": [18, 1200, "a", 18000], "trial": 1, "serialpos": 12, "trial_type": "single-audio", "trial_index": 67, "time_elapsed": 376330, "internal_node_id": "0.0-49.0"}}, {"uniqueid": "MTK0653:3MHW492WW1KHCJTZ10ARFLH8YIIMVC", "current_trial": 68, "dateTime": 1512583007901, "trialdata": {"rt": -1000, "stimulus": "/static/audio/wordpool/PRINCESS.wav", "key_press": -1, "type": "PRES_AUD", "word": "princess", "wordID": 1124, "conditions": [18, 1200, "a", 18000], "trial": 1, "serialpos": 13, "trial_type": "single-audio", "trial_index": 68, "time_elapsed": 378356, "internal_node_id": "0.0-50.0"}}, {"uniqueid": "MTK0653:3MHW492WW1KHCJTZ10ARFLH8YIIMVC", "current_trial": 69, "dateTime": 1512583010163, "trialdata": {"rt": -1000, "stimulus": "/static/audio/wordpool/LUNCH.wav", "key_press": -1, "type": "PRES_AUD", "word": "lunch", "wordID": 848, "conditions": [18, 1200, "a", 18000], "trial": 1, "serialpos": 14, "trial_type": "single-audio", "trial_index": 69, "time_elapsed": 380618, "internal_node_id": "0.0-51.0"}}, {"uniqueid": "MTK0653:3MHW492WW1KHCJTZ10ARFLH8YIIMVC", "current_trial": 70, "dateTime": 1512583012421, "trialdata": {"rt": -1000, "stimulus": "/static/audio/wordpool/SPOON.wav", "key_press": -1, "type": "PRES_AUD", "word": "spoon", "wordID": 1356, "conditions": [18, 1200, "a", 18000], "trial": 1, "serialpos": 15, "trial_type": "single-audio", "trial_index": 70, "time_elapsed": 382876, "internal_node_id": "0.0-52.0"}}, {"uniqueid": "MTK0653:3MHW492WW1KHCJTZ10ARFLH8YIIMVC", "current_trial": 71, "dateTime": 1512583014567, "trialdata": {"rt": -1000, "stimulus": "/static/audio/wordpool/CLAMP.wav", "key_press": -1, "type": "PRES_AUD", "word": "clamp", "wordID": 315, "conditions": [18, 1200, "a", 18000], "trial": 1, "serialpos": 16, "trial_type": "single-audio", "trial_index": 71, "time_elapsed": 385022, "internal_node_id": "0.0-53.0"}}, {"uniqueid": "MTK0653:3MHW492WW1KHCJTZ10ARFLH8YIIMVC", "current_trial": 72, "dateTime": 1512583016704, "trialdata": {"rt": -1000, "stimulus": "/static/audio/wordpool/ANKLE.wav", "key_press": -1, "type": "PRES_AUD", "word": "ankle", "wordID": 23, "conditions": [18, 1200, "a", 18000], "trial": 1, "serialpos": 17, "trial_type": "single-audio", "trial_index": 72, "time_elapsed": 387159, "internal_node_id": "0.0-54.0"}}, {"uniqueid": "MTK0653:3MHW492WW1KHCJTZ10ARFLH8YIIMVC", "current_trial": 73, "dateTime": 1512583018001, "trialdata": {"rt": -1, "stimulus": "", "key_press": -1, "type": "PRE_RECALL_DELAY", "trial_type": "single-stim", "trial_index": 73, "time_elapsed": 388456, "internal_node_id": "0.0-55.0-0.0"}}, {"uniqueid": "MTK0653:3MHW492WW1KHCJTZ10ARFLH8YIIMVC", "current_trial": 74, "dateTime": 1512583018502, "trialdata": {"rt": -1000, "stimulus": "/static/audio/400Hz.wav", "key_press": -1, "type": "PRE_RECALL_ALERT", "trial_type": "single-audio", "trial_index": 74, "time_elapsed": 388957, "internal_node_id": "0.0-56.0"}}, {"uniqueid": "MTK0653:3MHW492WW1KHCJTZ10ARFLH8YIIMVC", "current_trial": 75, "dateTime": 1512583078507, "trialdata": {"rt": [3012, 4913, 7034, 8024, 19226, 23168, 28035, 37016], "recwords": ["brick", "ankel", "scallop", "clam", "lunch", "empire", "princess", "hero"], "type": "FREE_RECALL", "conditions": [18, 1200, "a", 18000], "trial": 1, "trial_type": "free-recall", "trial_index": 75, "time_elapsed": 448958, "internal_node_id": "0.0-57.0-0.0"}}, {"uniqueid": "MTK0653:3MHW492WW1KHCJTZ10ARFLH8YIIMVC", "current_trial": 76, "dateTime": 1512583083468, "trialdata": {"rt": 2952, "key_press": 32, "type": "INSTRUCTIONS", "trial_type": "text", "trial_index": 76, "time_elapsed": 453915, "internal_node_id": "0.0-58.0"}}, {"uniqueid": "MTK0653:3MHW492WW1KHCJTZ10ARFLH8YIIMVC", "current_trial": 77, "dateTime": 1512583096470, "trialdata": {"rt": [5086, 7859], "responses": ["23", "18\\"], "num1": [9, 4, 8], "num2": [8, 7, 6], "num3": [6, 7, 9], "type": "DISTRACTOR", "conditions": [12, 1600, "v", 12000], "trial": 2, "trial_type": "math-distractor", "trial_index": 77, "time_elapsed": 466925, "internal_node_id": "0.0-59.0"}}, {"uniqueid": "MTK0653:3MHW492WW1KHCJTZ10ARFLH8YIIMVC", "current_trial": 78, "dateTime": 1512583099470, "trialdata": {"rt": -1, "stimulus": "<p id=\"stim\">10</p>", "key_press": -1, "trial_type": "single-stim", "trial_index": 78, "time_elapsed": 469925, "internal_node_id": "0.0-60.0-0.0"}}, {"uniqueid": "MTK0653:3MHW492WW1KHCJTZ10ARFLH8YIIMVC", "current_trial": 79, "dateTime": 1512583100471, "trialdata": {"rt": -1, "stimulus": "<p id=\"stim\">9</p>", "key_press": -1, "trial_type": "single-stim", "trial_index": 79, "time_elapsed": 470926, "internal_node_id": "0.0-60.0-1.0"}}, {"uniqueid": "MTK0653:3MHW492WW1KHCJTZ10ARFLH8YIIMVC", "current_trial": 80, "dateTime": 1512583101473, "trialdata": {"rt": 391, "stimulus": "<p id=\"stim\">8</p>", "key_press": 175, "trial_type": "single-stim", "trial_index": 80, "time_elapsed": 471927, "internal_node_id": "0.0-60.0-2.0"}}, {"uniqueid": "MTK0653:3MHW492WW1KHCJTZ10ARFLH8YIIMVC", "current_trial": 81, "dateTime": 1512583102473, "trialdata": {"rt": -1, "stimulus": "<p id=\"stim\">7</p>", "key_press": -1, "trial_type": "single-stim", "trial_index": 81, "time_elapsed": 472928, "internal_node_id": "0.0-60.0-3.0"}}, {"uniqueid": "MTK0653:3MHW492WW1KHCJTZ10ARFLH8YIIMVC", "current_trial": 82, "dateTime": 1512583103474, "trialdata": {"rt": -1, "stimulus": "<p id=\"stim\">6</p>", "key_press": -1, "trial_type": "single-stim", "trial_index": 82, "time_elapsed": 473929, "internal_node_id": "0.0-60.0-4.0"}}, {"uniqueid": "MTK0653:3MHW492WW1KHCJTZ10ARFLH8YIIMVC", "current_trial": 83, "dateTime": 1512583104475, "trialdata": {"rt": -1, "stimulus": "<p id=\"stim\">5</p>", "key_press": -1, "trial_type": "single-stim", "trial_index": 83, "time_elapsed": 474930, "internal_node_id": "0.0-60.0-5.0"}}, {"uniqueid": "MTK0653:3MHW492WW1KHCJTZ10ARFLH8YIIMVC", "current_trial": 84, "dateTime": 1512583105476, "trialdata": {"rt": -1, "stimulus": "<p id=\"stim\">4</p>", "key_press": -1, "trial_type": "single-stim", "trial_index": 84, "time_elapsed": 475931, "internal_node_id": "0.0-60.0-6.0"}}, {"uniqueid": "MTK0653:3MHW492WW1KHCJTZ10ARFLH8YIIMVC", "current_trial": 85, "dateTime": 1512583106477, "trialdata": {"rt": -1, "stimulus": "<p id=\"stim\">3</p>", "key_press": -1, "trial_type": "single-stim", "trial_index": 85, "time_elapsed": 476932, "internal_node_id": "0.0-60.0-7.0"}}, {"uniqueid": "MTK0653:3MHW492WW1KHCJTZ10ARFLH8YIIMVC", "current_trial": 86, "dateTime": 1512583107478, "trialdata": {"rt": -1, "stimulus": "<p id=\"stim\">2</p>", "key_press": -1, "trial_type": "single-stim", "trial_index": 86, "time_elapsed": 477933, "internal_node_id": "0.0-60.0-8.0"}}, {"uniqueid": "MTK0653:3MHW492WW1KHCJTZ10ARFLH8YIIMVC", "current_trial": 87, "dateTime": 1512583108479, "trialdata": {"rt": -1, "stimulus": "<p id=\"stim\">1</p>", "key_press": -1, "trial_type": "single-stim", "trial_index": 87, "time_elapsed": 478934, "internal_node_id": "0.0-60.0-9.0"}}, {"uniqueid": "MTK0653:3MHW492WW1KHCJTZ10ARFLH8YIIMVC", "current_trial": 88, "dateTime": 1512583109982, "trialdata": {"rt": -1, "stimulus": "<p id=\"stim\">+</p>", "key_press": -1, "type": "FIXATION", "trial_type": "single-stim", "trial_index": 88, "time_elapsed": 480436, "internal_node_id": "0.0-61.0-0.0"}}, {"uniqueid": "MTK0653:3MHW492WW1KHCJTZ10ARFLH8YIIMVC", "current_trial": 89, "dateTime": 1512583111582, "trialdata": {"rt": -1, "stimulus": "<p id=\"stim\">PICNIC</p>", "key_press": -1, "type": "PRES_VIS", "word": "picnic", "wordID": 1059, "conditions": [12, 1600, "v", 12000], "trial": 2, "serialpos": 0, "trial_type": "single-stim", "trial_index": 89, "time_elapsed": 482037, "internal_node_id": "0.0-62.0"}}, {"uniqueid": "MTK0653:3MHW492WW1KHCJTZ10ARFLH8YIIMVC", "current_trial": 90, "dateTime": 1512583113996, "trialdata": {"rt": -1, "stimulus": "<p id=\"stim\">WASP</p>", "key_press": -1, "type": "PRES_VIS", "word": "wasp", "wordID": 1592, "conditions": [12, 1600, "v", 12000], "trial": 2, "serialpos": 1, "trial_type": "single-stim", "trial_index": 90, "time_elapsed": 484451, "internal_node_id": "0.0-63.0"}}, {"uniqueid": "MTK0653:3MHW492WW1KHCJTZ10ARFLH8YIIMVC", "current_trial": 91, "dateTime": 1512583116415, "trialdata": {"rt": -1, "stimulus": "<p id=\"stim\">HORNET</p>", "key_press": -1, "type": "PRES_VIS", "word": "hornet", "wordID": 717, "conditions": [12, 1600, "v", 12000], "trial": 2, "serialpos": 2, "trial_type": "single-stim", "trial_index": 91, "time_elapsed": 486870, "internal_node_id": "0.0-64.0"}}, {"uniqueid": "MTK0653:3MHW492WW1KHCJTZ10ARFLH8YIIMVC", "current_trial": 92, "dateTime": 1512583118892, "trialdata": {"rt": -1, "stimulus": "<p id=\"stim\">SUPPER</p>", "key_press": -1, "type": "PRES_VIS", "word": "supper", "wordID": 1410, "conditions": [12, 1600, "v", 12000], "trial": 2, "serialpos": 3, "trial_type": "single-stim", "trial_index": 92, "time_elapsed": 489347, "internal_node_id": "0.0-65.0"}}, {"uniqueid": "MTK0653:3MHW492WW1KHCJTZ10ARFLH8YIIMVC", "current_trial": 93, "dateTime": 1512583121305, "trialdata": {"rt": -1, "stimulus": "<p id=\"stim\">RACKET</p>", "key_press": -1, "type": "PRES_VIS", "word": "racket", "wordID": 1154, "conditions": [12, 1600, "v", 12000], "trial": 2, "serialpos": 4, "trial_type": "single-stim", "trial_index": 93, "time_elapsed": 491758, "internal_node_id": "0.0-66.0"}}, {"uniqueid": "MTK0653:3MHW492WW1KHCJTZ10ARFLH8YIIMVC", "current_trial": 94, "dateTime": 1512583124026, "trialdata": {"rt": -1, "stimulus": "<p id=\"stim\">HIKER</p>", "key_press": -1, "type": "PRES_VIS", "word": "hiker", "wordID": 707, "conditions": [12, 1600, "v", 12000], "trial": 2, "serialpos": 5, "trial_type": "single-stim", "trial_index": 94, "time_elapsed": 494481, "internal_node_id": "0.0-67.0"}}, {"uniqueid": "MTK0653:3MHW492WW1KHCJTZ10ARFLH8YIIMVC", "current_trial": 95, "dateTime": 1512583126579, "trialdata": {"rt": -1, "stimulus": "<p id=\"stim\">TURTLE</p>", "key_press": -1, "type": "PRES_VIS", "word": "turtle", "wordID": 1521, "conditions": [12, 1600, "v", 12000], "trial": 2, "serialpos": 6, "trial_type": "single-stim", "trial_index": 95, "time_elapsed": 497034, "internal_node_id": "0.0-68.0"}}, {"uniqueid": "MTK0653:3MHW492WW1KHCJTZ10ARFLH8YIIMVC", "current_trial": 96, "dateTime": 1512583129155, "trialdata": {"rt": -1, "stimulus": "<p id=\"stim\">SPARROW</p>", "key_press": -1, "type": "PRES_VIS", "word": "sparrow", "wordID": 1346, "conditions": [12, 1600, "v", 12000], "trial": 2, "serialpos": 7, "trial_type": "single-stim", "trial_index": 96, "time_elapsed": 499609, "internal_node_id": "0.0-69.0"}}, {"uniqueid": "MTK0653:3MHW492WW1KHCJTZ10ARFLH8YIIMVC", "current_trial": 97, "dateTime": 1512583131668, "trialdata": {"rt": -1, "stimulus": "<p id=\"stim\">PATROL</p>", "key_press": -1, "type": "PRES_VIS", "word": "patrol", "wordID": 1026, "conditions": [12, 1600, "v", 12000], "trial": 2, "serialpos": 8, "trial_type": "single-stim", "trial_index": 97, "time_elapsed": 502123, "internal_node_id": "0.0-70.0"}}, {"uniqueid": "MTK0653:3MHW492WW1KHCJTZ10ARFLH8YIIMVC", "current_trial": 98, "dateTime": 1512583134234, "trialdata": {"rt": -1, "stimulus": "<p id=\"stim\">SANDWICH</p>", "key_press": -1, "type": "PRES_VIS", "word": "sandwich", "wordID": 1231, "conditions": [12, 1600, "v", 12000], "trial": 2, "serialpos": 9, "trial_type": "single-stim", "trial_index": 98, "time_elapsed": 504689, "internal_node_id": "0.0-71.0"}}, {"uniqueid": "MTK0653:3MHW492WW1KHCJTZ10ARFLH8YIIMVC", "current_trial": 99, "dateTime": 1512583136948, "trialdata": {"rt": -1, "stimulus": "<p id=\"stim\">QUAIL</p>", "key_press": -1, "type": "PRES_VIS", "word": "quail", "wordID": 1146, "conditions": [12, 1600, "v", 12000], "trial": 2, "serialpos": 10, "trial_type": "single-stim", "trial_index": 99, "time_elapsed": 507403, "internal_node_id": "0.0-72.0"}}, {"uniqueid": "MTK0653:3MHW492WW1KHCJTZ10ARFLH8YIIMVC", "current_trial": 100, "dateTime": 1512583139591, "trialdata": {"rt": -1, "stimulus": "<p id=\"stim\">FOREHEAD</p>", "key_press": -1, "type": "PRES_VIS", "word": "forehead", "wordID": 591, "conditions": [12, 1600, "v", 12000], "trial": 2, "serialpos": 11, "trial_type": "single-stim", "trial_index": 100, "time_elapsed": 510046, "internal_node_id": "0.0-73.0"}}, {"uniqueid": "MTK0653:3MHW492WW1KHCJTZ10ARFLH8YIIMVC", "current_trial": 101, "dateTime": 1512583141980, "trialdata": {"rt": -1, "stimulus": "", "key_press": -1, "type": "PRE_RECALL_DELAY", "trial_type": "single-stim", "trial_index": 101, "time_elapsed": 512435, "internal_node_id": "0.0-74.0-0.0"}}, {"uniqueid": "MTK0653:3MHW492WW1KHCJTZ10ARFLH8YIIMVC", "current_trial": 102, "dateTime": 1512583142482, "trialdata": {"rt": -1000, "stimulus": "/static/audio/400Hz.wav", "key_press": -1, "type": "PRE_RECALL_ALERT", "trial_type": "single-audio", "trial_index": 102, "time_elapsed": 512936, "internal_node_id": "0.0-75.0"}}, {"uniqueid": "MTK0653:3MHW492WW1KHCJTZ10ARFLH8YIIMVC", "current_trial": 103, "dateTime": 1512583202486, "trialdata": {"rt": [4555, 7410, 10285, 13471, 15415, 21638, 27185], "recwords": ["forehead", "quail", "picnic", "hornet", "wasp", "hiker", "parrow"], "type": "FREE_RECALL", "conditions": [12, 1600, "v", 12000], "trial": 2, "trial_type": "free-recall", "trial_index": 103, "time_elapsed": 572936, "internal_node_id": "0.0-76.0-0.0"}}, {"uniqueid": "MTK0653:3MHW492WW1KHCJTZ10ARFLH8YIIMVC", "current_trial": 104, "dateTime": 1512583205810, "trialdata": {"rt": 1323, "key_press": 32, "type": "INSTRUCTIONS", "trial_type": "text", "trial_index": 104, "time_elapsed": 576265, "internal_node_id": "0.0-77.0"}}, {"uniqueid": "MTK0653:3MHW492WW1KHCJTZ10ARFLH8YIIMVC", "current_trial": 105, "dateTime": 1512583231812, "trialdata": {"rt": [5280, 8358, 11966, 16375, 18881, 21468], "responses": ["21", "11", "13", "22", "12", "11"], "num1": [8, 3, 5, 8, 3, 4, 7], "num2": [4, 2, 2, 6, 4, 5, 8], "num3": [9, 6, 6, 8, 5, 2, 4], "type": "DISTRACTOR", "conditions": [12, 800, "v", 24000], "trial": 3, "trial_type": "math-distractor", "trial_index": 105, "time_elapsed": 602267, "internal_node_id": "0.0-78.0"}}, {"uniqueid": "MTK0653:3MHW492WW1KHCJTZ10ARFLH8YIIMVC", "current_trial": 106, "dateTime": 1512583234812, "trialdata": {"rt": -1, "stimulus": "<p id=\"stim\">10</p>", "key_press": -1, "trial_type": "single-stim", "trial_index": 106, "time_elapsed": 605267, "internal_node_id": "0.0-79.0-0.0"}}, {"uniqueid": "MTK0653:3MHW492WW1KHCJTZ10ARFLH8YIIMVC", "current_trial": 107, "dateTime": 1512583235813, "trialdata": {"rt": -1, "stimulus": "<p id=\"stim\">9</p>", "key_press": -1, "trial_type": "single-stim", "trial_index": 107, "time_elapsed": 606268, "internal_node_id": "0.0-79.0-1.0"}}, {"uniqueid": "MTK0653:3MHW492WW1KHCJTZ10ARFLH8YIIMVC", "current_trial": 108, "dateTime": 1512583236810, "trialdata": {"rt": -1, "stimulus": "<p id=\"stim\">8</p>", "key_press": -1, "trial_type": "single-stim", "trial_index": 108, "time_elapsed": 607265, "internal_node_id": "0.0-79.0-2.0"}}, {"uniqueid": "MTK0653:3MHW492WW1KHCJTZ10ARFLH8YIIMVC", "current_trial": 109, "dateTime": 1512583237811, "trialdata": {"rt": -1, "stimulus": "<p id=\"stim\">7</p>", "key_press": -1, "trial_type": "single-stim", "trial_index": 109, "time_elapsed": 608266, "internal_node_id": "0.0-79.0-3.0"}}, {"uniqueid": "MTK0653:3MHW492WW1KHCJTZ10ARFLH8YIIMVC", "current_trial": 110, "dateTime": 1512583238813, "trialdata": {"rt": -1, "stimulus": "<p id=\"stim\">6</p>", "key_press": -1, "trial_type": "single-stim", "trial_index": 110, "time_elapsed": 609267, "internal_node_id": "0.0-79.0-4.0"}}, {"uniqueid": "MTK0653:3MHW492WW1KHCJTZ10ARFLH8YIIMVC", "current_trial": 111, "dateTime": 1512583239814, "trialdata": {"rt": -1, "stimulus": "<p id=\"stim\">5</p>", "key_press": -1, "trial_type": "single-stim", "trial_index": 111, "time_elapsed": 610268, "internal_node_id": "0.0-79.0-5.0"}}, {"uniqueid": "MTK0653:3MHW492WW1KHCJTZ10ARFLH8YIIMVC", "current_trial": 112, "dateTime": 1512583240814, "trialdata": {"rt": -1, "stimulus": "<p id=\"stim\">4</p>", "key_press": -1, "trial_type": "single-stim", "trial_index": 112, "time_elapsed": 611269, "internal_node_id": "0.0-79.0-6.0"}}, {"uniqueid": "MTK0653:3MHW492WW1KHCJTZ10ARFLH8YIIMVC", "current_trial": 113, "dateTime": 1512583241816, "trialdata": {"rt": -1, "stimulus": "<p id=\"stim\">3</p>", "key_press": -1, "trial_type": "single-stim", "trial_index": 113, "time_elapsed": 612271, "internal_node_id": "0.0-79.0-7.0"}}, {"uniqueid": "MTK0653:3MHW492WW1KHCJTZ10ARFLH8YIIMVC", "current_trial": 114, "dateTime": 1512583242816, "trialdata": {"rt": -1, "stimulus": "<p id=\"stim\">2</p>", "key_press": -1, "trial_type": "single-stim", "trial_index": 114, "time_elapsed": 613271, "internal_node_id": "0.0-79.0-8.0"}}, {"uniqueid": "MTK0653:3MHW492WW1KHCJTZ10ARFLH8YIIMVC", "current_trial": 115, "dateTime": 1512583243817, "trialdata": {"rt": -1, "stimulus": "<p id=\"stim\">1</p>", "key_press": -1, "trial_type": "single-stim", "trial_index": 115, "time_elapsed": 614272, "internal_node_id": "0.0-79.0-9.0"}}, {"uniqueid": "MTK0653:3MHW492WW1KHCJTZ10ARFLH8YIIMVC", "current_trial": 116, "dateTime": 1512583245319, "trialdata": {"rt": -1, "stimulus": "<p id=\"stim\">+</p>", "key_press": -1, "type": "FIXATION", "trial_type": "single-stim", "trial_index": 116, "time_elapsed": 615773, "internal_node_id": "0.0-80.0-0.0"}}, {"uniqueid": "MTK0653:3MHW492WW1KHCJTZ10ARFLH8YIIMVC", "current_trial": 117, "dateTime": 1512583246120, "trialdata": {"rt": -1, "stimulus": "<p id=\"stim\">ACTOR</p>", "key_press": -1, "type": "PRES_VIS", "word": "actor", "wordID": 4, "conditions": [12, 800, "v", 24000], "trial": 3, "serialpos": 0, "trial_type": "single-stim", "trial_index": 117, "time_elapsed": 616574, "internal_node_id": "0.0-81.0"}}, {"uniqueid": "MTK0653:3MHW492WW1KHCJTZ10ARFLH8YIIMVC", "current_trial": 118, "dateTime": 1512583247739, "trialdata": {"rt": -1, "stimulus": "<p id=\"stim\">SHARK</p>", "key_press": -1, "type": "PRES_VIS", "word": "shark", "wordID": 1274, "conditions": [12, 800, "v", 24000], "trial": 3, "serialpos": 1, "trial_type": "single-stim", "trial_index": 118, "time_elapsed": 618194, "internal_node_id": "0.0-82.0"}}, {"uniqueid": "MTK0653:3MHW492WW1KHCJTZ10ARFLH8YIIMVC", "current_trial": 119, "dateTime": 1512583249638, "trialdata": {"rt": -1, "stimulus": "<p id=\"stim\">BASEMENT</p>", "key_press": -1, "type": "PRES_VIS", "word": "basement", "wordID": 93, "conditions": [12, 800, "v", 24000], "trial": 3, "serialpos": 2, "trial_type": "single-stim", "trial_index": 119, "time_elapsed": 620093, "internal_node_id": "0.0-83.0"}}, {"uniqueid": "MTK0653:3MHW492WW1KHCJTZ10ARFLH8YIIMVC", "current_trial": 120, "dateTime": 1512583251565, "trialdata": {"rt": -1, "stimulus": "<p id=\"stim\">ZEBRA</p>", "key_press": -1, "type": "PRES_VIS", "word": "zebra", "wordID": 1634, "conditions": [12, 800, "v", 24000], "trial": 3, "serialpos": 3, "trial_type": "single-stim", "trial_index": 120, "time_elapsed": 622020, "internal_node_id": "0.0-84.0"}}, {"uniqueid": "MTK0653:3MHW492WW1KHCJTZ10ARFLH8YIIMVC", "current_trial": 121, "dateTime": 1512583253513, "trialdata": {"rt": -1, "stimulus": "<p id=\"stim\">COSTUME</p>", "key_press": -1, "type": "PRES_VIS", "word": "costume", "wordID": 382, "conditions": [12, 800, "v", 24000], "trial": 3, "serialpos": 4, "trial_type": "single-stim", "trial_index": 121, "time_elapsed": 623968, "internal_node_id": "0.0-85.0"}}, {"uniqueid": "MTK0653:3MHW492WW1KHCJTZ10ARFLH8YIIMVC", "current_trial": 122, "dateTime": 1512583255344, "trialdata": {"rt": -1, "stimulus": "<p id=\"stim\">TUBA</p>", "key_press": -1, "type": "PRES_VIS", "word": "tuba", "wordID": 1514, "conditions": [12, 800, "v", 24000], "trial": 3, "serialpos": 5, "trial_type": "single-stim", "trial_index": 122, "time_elapsed": 625799, "internal_node_id": "0.0-86.0"}}, {"uniqueid": "MTK0653:3MHW492WW1KHCJTZ10ARFLH8YIIMVC", "current_trial": 123, "dateTime": 1512583257152, "trialdata": {"rt": -1, "stimulus": "<p id=\"stim\">VELVET</p>", "key_press": -1, "type": "PRES_VIS", "word": "velvet", "wordID": 1554, "conditions": [12, 800, "v", 24000], "trial": 3, "serialpos": 6, "trial_type": "single-stim", "trial_index": 123, "time_elapsed": 627607, "internal_node_id": "0.0-87.0"}}, {"uniqueid": "MTK0653:3MHW492WW1KHCJTZ10ARFLH8YIIMVC", "current_trial": 124, "dateTime": 1512583258830, "trialdata": {"rt": -1, "stimulus": "<p id=\"stim\">PLAID</p>", "key_press": -1, "type": "PRES_VIS", "word": "plaid", "wordID": 1079, "conditions": [12, 800, "v", 24000], "trial": 3, "serialpos": 7, "trial_type": "single-stim", "trial_index": 124, "time_elapsed": 629284, "internal_node_id": "0.0-88.0"}}, {"uniqueid": "MTK0653:3MHW492WW1KHCJTZ10ARFLH8YIIMVC", "current_trial": 125, "dateTime": 1512583260458, "trialdata": {"rt": -1, "stimulus": "<p id=\"stim\">CHAPEL</p>", "key_press": -1, "type": "PRES_VIS", "word": "chapel", "wordID": 279, "conditions": [12, 800, "v", 24000], "trial": 3, "serialpos": 8, "trial_type": "single-stim", "trial_index": 125, "time_elapsed": 630913, "internal_node_id": "0.0-89.0"}}, {"uniqueid": "MTK0653:3MHW492WW1KHCJTZ10ARFLH8YIIMVC", "current_trial": 126, "dateTime": 1512583262378, "trialdata": {"rt": -1, "stimulus": "<p id=\"stim\">NAPKIN</p>", "key_press": -1, "type": "PRES_VIS", "word": "napkin", "wordID": 936, "conditions": [12, 800, "v", 24000], "trial": 3, "serialpos": 9, "trial_type": "single-stim", "trial_index": 126, "time_elapsed": 632832, "internal_node_id": "0.0-90.0"}}, {"uniqueid": "MTK0653:3MHW492WW1KHCJTZ10ARFLH8YIIMVC", "current_trial": 127, "dateTime": 1512583264198, "trialdata": {"rt": -1, "stimulus": "<p id=\"stim\">KITCHEN</p>", "key_press": -1, "type": "PRES_VIS", "word": "kitchen", "wordID": 777, "conditions": [12, 800, "v", 24000], "trial": 3, "serialpos": 10, "trial_type": "single-stim", "trial_index": 127, "time_elapsed": 634653, "internal_node_id": "0.0-91.0"}}, {"uniqueid": "MTK0653:3MHW492WW1KHCJTZ10ARFLH8YIIMVC", "current_trial": 128, "dateTime": 1512583265893, "trialdata": {"rt": -1, "stimulus": "<p id=\"stim\">TILE</p>", "key_press": -1, "type": "PRES_VIS", "word": "tile", "wordID": 1467, "conditions": [12, 800, "v", 24000], "trial": 3, "serialpos": 11, "trial_type": "single-stim", "trial_index": 128, "time_elapsed": 636347, "internal_node_id": "0.0-92.0"}}, {"uniqueid": "MTK0653:3MHW492WW1KHCJTZ10ARFLH8YIIMVC", "current_trial": 129, "dateTime": 1512583268452, "trialdata": {"rt": -1, "stimulus": "", "key_press": -1, "type": "PRE_RECALL_DELAY", "trial_type": "single-stim", "trial_index": 129, "time_elapsed": 638907, "internal_node_id": "0.0-93.0-0.0"}}, {"uniqueid": "MTK0653:3MHW492WW1KHCJTZ10ARFLH8YIIMVC", "current_trial": 130, "dateTime": 1512583268954, "trialdata": {"rt": -1000, "stimulus": "/static/audio/400Hz.wav", "key_press": -1, "type": "PRE_RECALL_ALERT", "trial_type": "single-audio", "trial_index": 130, "time_elapsed": 639409, "internal_node_id": "0.0-94.0"}}, {"uniqueid": "MTK0653:3MHW492WW1KHCJTZ10ARFLH8YIIMVC", "current_trial": 131, "dateTime": 1512583328959, "trialdata": {"rt": [5563, 7938, 9772, 24036, 38290], "recwords": ["napkin", "kitchen", "tile", "costume", "chapel"], "type": "FREE_RECALL", "conditions": [12, 800, "v", 24000], "trial": 3, "trial_type": "free-recall", "trial_index": 131, "time_elapsed": 699410, "internal_node_id": "0.0-95.0-0.0"}}, {"uniqueid": "MTK0653:3MHW492WW1KHCJTZ10ARFLH8YIIMVC", "current_trial": 132, "dateTime": 1512583331960, "trialdata": {"rt": 998, "key_press": 32, "type": "INSTRUCTIONS", "trial_type": "text", "trial_index": 132, "time_elapsed": 702415, "internal_node_id": "0.0-96.0"}}, {"uniqueid": "MTK0653:3MHW492WW1KHCJTZ10ARFLH8YIIMVC", "current_trial": 133, "dateTime": 1512583357960, "trialdata": {"rt": [2981, 5083, 9985, 13192, 17274, 21834, 23908], "responses": ["16", "12", "17", "21", "15", "18", "9"], "num1": [1, 2, 4, 9, 7, 8, 2, 6], "num2": [9, 8, 8, 8, 4, 3, 6, 1], "num3": [6, 2, 5, 4, 4, 7, 1, 8], "type": "DISTRACTOR", "conditions": [12, 1600, "v", 24000], "trial": 4, "trial_type": "math-distractor", "trial_index": 133, "time_elapsed": 728414, "internal_node_id": "0.0-97.0"}}, {"uniqueid": "MTK0653:3MHW492WW1KHCJTZ10ARFLH8YIIMVC", "current_trial": 134, "dateTime": 1512583360961, "trialdata": {"rt": -1, "stimulus": "<p id=\"stim\">10</p>", "key_press": -1, "trial_type": "single-stim", "trial_index": 134, "time_elapsed": 731416, "internal_node_id": "0.0-98.0-0.0"}}, {"uniqueid": "MTK0653:3MHW492WW1KHCJTZ10ARFLH8YIIMVC", "current_trial": 135, "dateTime": 1512583361962, "trialdata": {"rt": -1, "stimulus": "<p id=\"stim\">9</p>", "key_press": -1, "trial_type": "single-stim", "trial_index": 135, "time_elapsed": 732416, "internal_node_id": "0.0-98.0-1.0"}}, {"uniqueid": "MTK0653:3MHW492WW1KHCJTZ10ARFLH8YIIMVC", "current_trial": 136, "dateTime": 1512583362963, "trialdata": {"rt": -1, "stimulus": "<p id=\"stim\">8</p>", "key_press": -1, "trial_type": "single-stim", "trial_index": 136, "time_elapsed": 733418, "internal_node_id": "0.0-98.0-2.0"}}, {"uniqueid": "MTK0653:3MHW492WW1KHCJTZ10ARFLH8YIIMVC", "current_trial": 137, "dateTime": 1512583363964, "trialdata": {"rt": -1, "stimulus": "<p id=\"stim\">7</p>", "key_press": -1, "trial_type": "single-stim", "trial_index": 137, "time_elapsed": 734419, "internal_node_id": "0.0-98.0-3.0"}}, {"uniqueid": "MTK0653:3MHW492WW1KHCJTZ10ARFLH8YIIMVC", "current_trial": 138, "dateTime": 1512583364966, "trialdata": {"rt": -1, "stimulus": "<p id=\"stim\">6</p>", "key_press": -1, "trial_type": "single-stim", "trial_index": 138, "time_elapsed": 735420, "internal_node_id": "0.0-98.0-4.0"}}, {"uniqueid": "MTK0653:3MHW492WW1KHCJTZ10ARFLH8YIIMVC", "current_trial": 139, "dateTime": 1512583365966, "trialdata": {"rt": -1, "stimulus": "<p id=\"stim\">5</p>", "key_press": -1, "trial_type": "single-stim", "trial_index": 139, "time_elapsed": 736421, "internal_node_id": "0.0-98.0-5.0"}}, {"uniqueid": "MTK0653:3MHW492WW1KHCJTZ10ARFLH8YIIMVC", "current_trial": 140, "dateTime": 1512583366968, "trialdata": {"rt": -1, "stimulus": "<p id=\"stim\">4</p>", "key_press": -1, "trial_type": "single-stim", "trial_index": 140, "time_elapsed": 737422, "internal_node_id": "0.0-98.0-6.0"}}, {"uniqueid": "MTK0653:3MHW492WW1KHCJTZ10ARFLH8YIIMVC", "current_trial": 141, "dateTime": 1512583367968, "trialdata": {"rt": -1, "stimulus": "<p id=\"stim\">3</p>", "key_press": -1, "trial_type": "single-stim", "trial_index": 141, "time_elapsed": 738423, "internal_node_id": "0.0-98.0-7.0"}}, {"uniqueid": "MTK0653:3MHW492WW1KHCJTZ10ARFLH8YIIMVC", "current_trial": 142, "dateTime": 1512583368969, "trialdata": {"rt": -1, "stimulus": "<p id=\"stim\">2</p>", "key_press": -1, "trial_type": "single-stim", "trial_index": 142, "time_elapsed": 739424, "internal_node_id": "0.0-98.0-8.0"}}, {"uniqueid": "MTK0653:3MHW492WW1KHCJTZ10ARFLH8YIIMVC", "current_trial": 143, "dateTime": 1512583369970, "trialdata": {"rt": -1, "stimulus": "<p id=\"stim\">1</p>", "key_press": -1, "trial_type": "single-stim", "trial_index": 143, "time_elapsed": 740425, "internal_node_id": "0.0-98.0-9.0"}}, {"uniqueid": "MTK0653:3MHW492WW1KHCJTZ10ARFLH8YIIMVC", "current_trial": 144, "dateTime": 1512583371471, "trialdata": {"rt": -1, "stimulus": "<p id=\"stim\">+</p>", "key_press": -1, "type": "FIXATION", "trial_type": "single-stim", "trial_index": 144, "time_elapsed": 741926, "internal_node_id": "0.0-99.0-0.0"}}, {"uniqueid": "MTK0653:3MHW492WW1KHCJTZ10ARFLH8YIIMVC", "current_trial": 145, "dateTime": 1512583373073, "trialdata": {"rt": -1, "stimulus": "<p id=\"stim\">WINDOW</p>", "key_press": -1, "type": "PRES_VIS", "word": "window", "wordID": 1610, "conditions": [12, 1600, "v", 24000], "trial": 4, "serialpos": 0, "trial_type": "single-stim", "trial_index": 145, "time_elapsed": 743528, "internal_node_id": "0.0-100.0"}}, {"uniqueid": "MTK0653:3MHW492WW1KHCJTZ10ARFLH8YIIMVC", "current_trial": 146, "dateTime": 1512583375693, "trialdata": {"rt": -1, "stimulus": "<p id=\"stim\">RIVER</p>", "key_press": -1, "type": "PRES_VIS", "word": "river", "wordID": 1193, "conditions": [12, 1600, "v", 24000], "trial": 4, "serialpos": 1, "trial_type": "single-stim", "trial_index": 146, "time_elapsed": 746147, "internal_node_id": "0.0-101.0"}}, {"uniqueid": "MTK0653:3MHW492WW1KHCJTZ10ARFLH8YIIMVC", "current_trial": 147, "dateTime": 1512583378288, "trialdata": {"rt": -1, "stimulus": "<p id=\"stim\">SPONGE</p>", "key_press": -1, "type": "PRES_VIS", "word": "sponge", "wordID": 1354, "conditions": [12, 1600, "v", 24000], "trial": 4, "serialpos": 2, "trial_type": "single-stim", "trial_index": 147, "time_elapsed": 748743, "internal_node_id": "0.0-102.0"}}, {"uniqueid": "MTK0653:3MHW492WW1KHCJTZ10ARFLH8YIIMVC", "current_trial": 148, "dateTime": 1512583380930, "trialdata": {"rt": -1, "stimulus": "<p id=\"stim\">DUSTPAN</p>", "key_press": -1, "type": "PRES_VIS", "word": "dustpan", "wordID": 508, "conditions": [12, 1600, "v", 24000], "trial": 4, "serialpos": 3, "trial_type": "single-stim", "trial_index": 148, "time_elapsed": 751385, "internal_node_id": "0.0-103.0"}}, {"uniqueid": "MTK0653:3MHW492WW1KHCJTZ10ARFLH8YIIMVC", "current_trial": 149, "dateTime": 1512583383679, "trialdata": {"rt": -1, "stimulus": "<p id=\"stim\">CRUTCH</p>", "key_press": -1, "type": "PRES_VIS", "word": "crutch", "wordID": 416, "conditions": [12, 1600, "v", 24000], "trial": 4, "serialpos": 4, "trial_type": "single-stim", "trial_index": 149, "time_elapsed": 754134, "internal_node_id": "0.0-104.0"}}, {"uniqueid": "MTK0653:3MHW492WW1KHCJTZ10ARFLH8YIIMVC", "current_trial": 150, "dateTime": 1512583386400, "trialdata": {"rt": -1, "stimulus": "<p id=\"stim\">BEEF</p>", "key_press": -1, "type": "PRES_VIS", "word": "beef", "wordID": 112, "conditions": [12, 1600, "v", 24000], "trial": 4, "serialpos": 5, "trial_type": "single-stim", "trial_index": 150, "time_elapsed": 756854, "internal_node_id": "0.0-105.0"}}, {"uniqueid": "MTK0653:3MHW492WW1KHCJTZ10ARFLH8YIIMVC", "current_trial": 151, "dateTime": 1512583388865, "trialdata": {"rt": -1, "stimulus": "<p id=\"stim\">PORK</p>", "key_press": -1, "type": "PRES_VIS", "word": "pork", "wordID": 1107, "conditions": [12, 1600, "v", 24000], "trial": 4, "serialpos": 6, "trial_type": "single-stim", "trial_index": 151, "time_elapsed": 759320, "internal_node_id": "0.0-106.0"}}, {"uniqueid": "MTK0653:3MHW492WW1KHCJTZ10ARFLH8YIIMVC", "current_trial": 152, "dateTime": 1512583391421, "trialdata": {"rt": -1, "stimulus": "<p id=\"stim\">SEAFOOD</p>", "key_press": -1, "type": "PRES_VIS", "word": "seafood", "wordID": 1259, "conditions": [12, 1600, "v", 24000], "trial": 4, "serialpos": 7, "trial_type": "single-stim", "trial_index": 152, "time_elapsed": 761876, "internal_node_id": "0.0-107.0"}}, {"uniqueid": "MTK0653:3MHW492WW1KHCJTZ10ARFLH8YIIMVC", "current_trial": 153, "dateTime": 1512583393882, "trialdata": {"rt": -1, "stimulus": "<p id=\"stim\">MAMMAL</p>", "key_press": -1, "type": "PRES_VIS", "word": "mammal", "wordID": 860, "conditions": [12, 1600, "v", 24000], "trial": 4, "serialpos": 8, "trial_type": "single-stim", "trial_index": 153, "time_elapsed": 764337, "internal_node_id": "0.0-108.0"}}, {"uniqueid": "MTK0653:3MHW492WW1KHCJTZ10ARFLH8YIIMVC", "current_trial": 154, "dateTime": 1512583396346, "trialdata": {"rt": -1, "stimulus": "<p id=\"stim\">CRICKET</p>", "key_press": -1, "type": "PRES_VIS", "word": "cricket", "wordID": 407, "conditions": [12, 1600, "v", 24000], "trial": 4, "serialpos": 9, "trial_type": "single-stim", "trial_index": 154, "time_elapsed": 766801, "internal_node_id": "0.0-109.0"}}, {"uniqueid": "MTK0653:3MHW492WW1KHCJTZ10ARFLH8YIIMVC", "current_trial": 155, "dateTime": 1512583398943, "trialdata": {"rt": -1, "stimulus": "<p id=\"stim\">SEAL</p>", "key_press": -1, "type": "PRES_VIS", "word": "seal", "wordID": 1261, "conditions": [12, 1600, "v", 24000], "trial": 4, "serialpos": 10, "trial_type": "single-stim", "trial_index": 155, "time_elapsed": 769398, "internal_node_id": "0.0-110.0"}}, {"uniqueid": "MTK0653:3MHW492WW1KHCJTZ10ARFLH8YIIMVC", "current_trial": 156, "dateTime": 1512583401449, "trialdata": {"rt": -1, "stimulus": "<p id=\"stim\">PRIMATE</p>", "key_press": -1, "type": "PRES_VIS", "word": "primate", "wordID": 1122, "conditions": [12, 1600, "v", 24000], "trial": 4, "serialpos": 11, "trial_type": "single-stim", "trial_index": 156, "time_elapsed": 771904, "internal_node_id": "0.0-111.0"}}, {"uniqueid": "MTK0653:3MHW492WW1KHCJTZ10ARFLH8YIIMVC", "current_trial": 157, "dateTime": 1512583403761, "trialdata": {"rt": -1, "stimulus": "", "key_press": -1, "type": "PRE_RECALL_DELAY", "trial_type": "single-stim", "trial_index": 157, "time_elapsed": 774216, "internal_node_id": "0.0-112.0-0.0"}}, {"uniqueid": "MTK0653:3MHW492WW1KHCJTZ10ARFLH8YIIMVC", "current_trial": 158, "dateTime": 1512583404263, "trialdata": {"rt": -1000, "stimulus": "/static/audio/400Hz.wav", "key_press": -1, "type": "PRE_RECALL_ALERT", "trial_type": "single-audio", "trial_index": 158, "time_elapsed": 774717, "internal_node_id": "0.0-113.0"}}, {"uniqueid": "MTK0653:3MHW492WW1KHCJTZ10ARFLH8YIIMVC", "current_trial": 159, "dateTime": 1512583464270, "trialdata": {"rt": [2762, 6542, 9784, 11853, 15318, 18212, 26544], "recwords": ["primate", "dustpan", "seafood", "beef", "pork", "window", "seal"], "type": "FREE_RECALL", "conditions": [12, 1600, "v", 24000], "trial": 4, "trial_type": "free-recall", "trial_index": 159, "time_elapsed": 834717, "internal_node_id": "0.0-114.0-0.0"}}, {"uniqueid": "MTK0653:3MHW492WW1KHCJTZ10ARFLH8YIIMVC", "current_trial": 160, "dateTime": 1512583467204, "trialdata": {"rt": 933, "key_press": 32, "type": "INSTRUCTIONS", "trial_type": "text", "trial_index": 160, "time_elapsed": 837659, "internal_node_id": "0.0-115.0"}}, {"uniqueid": "MTK0653:3MHW492WW1KHCJTZ10ARFLH8YIIMVC", "current_trial": 161, "dateTime": 1512583481203, "trialdata": {"rt": [4818, 6559, 9531], "responses": ["25", "8", "20"], "num1": [7, 1, 3, 8], "num2": [9, 6, 8, 8], "num3": [9, 1, 9, 5], "type": "DISTRACTOR", "conditions": [24, 800, "a", 12000], "trial": 5, "trial_type": "math-distractor", "trial_index": 161, "time_elapsed": 851658, "internal_node_id": "0.0-116.0"}}, {"uniqueid": "MTK0653:3MHW492WW1KHCJTZ10ARFLH8YIIMVC", "current_trial": 162, "dateTime": 1512583484204, "trialdata": {"rt": -1, "stimulus": "<p id=\"stim\">10</p>", "key_press": -1, "trial_type": "single-stim", "trial_index": 162, "time_elapsed": 854659, "internal_node_id": "0.0-117.0-0.0"}}, {"uniqueid": "MTK0653:3MHW492WW1KHCJTZ10ARFLH8YIIMVC", "current_trial": 163, "dateTime": 1512583485205, "trialdata": {"rt": -1, "stimulus": "<p id=\"stim\">9</p>", "key_press": -1, "trial_type": "single-stim", "trial_index": 163, "time_elapsed": 855660, "internal_node_id": "0.0-117.0-1.0"}}, {"uniqueid": "MTK0653:3MHW492WW1KHCJTZ10ARFLH8YIIMVC", "current_trial": 164, "dateTime": 1512583486206, "trialdata": {"rt": -1, "stimulus": "<p id=\"stim\">8</p>", "key_press": -1, "trial_type": "single-stim", "trial_index": 164, "time_elapsed": 856661, "internal_node_id": "0.0-117.0-2.0"}}, {"uniqueid": "MTK0653:3MHW492WW1KHCJTZ10ARFLH8YIIMVC", "current_trial": 165, "dateTime": 1512583487208, "trialdata": {"rt": -1, "stimulus": "<p id=\"stim\">7</p>", "key_press": -1, "trial_type": "single-stim", "trial_index": 165, "time_elapsed": 857662, "internal_node_id": "0.0-117.0-3.0"}}, {"uniqueid": "MTK0653:3MHW492WW1KHCJTZ10ARFLH8YIIMVC", "current_trial": 166, "dateTime": 1512583488208, "trialdata": {"rt": -1, "stimulus": "<p id=\"stim\">6</p>", "key_press": -1, "trial_type": "single-stim", "trial_index": 166, "time_elapsed": 858663, "internal_node_id": "0.0-117.0-4.0"}}, {"uniqueid": "MTK0653:3MHW492WW1KHCJTZ10ARFLH8YIIMVC", "current_trial": 167, "dateTime": 1512583489209, "trialdata": {"rt": -1, "stimulus": "<p id=\"stim\">5</p>", "key_press": -1, "trial_type": "single-stim", "trial_index": 167, "time_elapsed": 859664, "internal_node_id": "0.0-117.0-5.0"}}, {"uniqueid": "MTK0653:3MHW492WW1KHCJTZ10ARFLH8YIIMVC", "current_trial": 168, "dateTime": 1512583490210, "trialdata": {"rt": -1, "stimulus": "<p id=\"stim\">4</p>", "key_press": -1, "trial_type": "single-stim", "trial_index": 168, "time_elapsed": 860665, "internal_node_id": "0.0-117.0-6.0"}}, {"uniqueid": "MTK0653:3MHW492WW1KHCJTZ10ARFLH8YIIMVC", "current_trial": 169, "dateTime": 1512583491211, "trialdata": {"rt": -1, "stimulus": "<p id=\"stim\">3</p>", "key_press": -1, "trial_type": "single-stim", "trial_index": 169, "time_elapsed": 861666, "internal_node_id": "0.0-117.0-7.0"}}, {"uniqueid": "MTK0653:3MHW492WW1KHCJTZ10ARFLH8YIIMVC", "current_trial": 170, "dateTime": 1512583492212, "trialdata": {"rt": -1, "stimulus": "<p id=\"stim\">2</p>", "key_press": -1, "trial_type": "single-stim", "trial_index": 170, "time_elapsed": 862667, "internal_node_id": "0.0-117.0-8.0"}}, {"uniqueid": "MTK0653:3MHW492WW1KHCJTZ10ARFLH8YIIMVC", "current_trial": 171, "dateTime": 1512583493213, "trialdata": {"rt": -1, "stimulus": "<p id=\"stim\">1</p>", "key_press": -1, "trial_type": "single-stim", "trial_index": 171, "time_elapsed": 863668, "internal_node_id": "0.0-117.0-9.0"}}, {"uniqueid": "MTK0653:3MHW492WW1KHCJTZ10ARFLH8YIIMVC", "current_trial": 172, "dateTime": 1512583494715, "trialdata": {"rt": -1, "stimulus": "<p id=\"stim\">+</p>", "key_press": -1, "type": "FIXATION", "trial_type": "single-stim", "trial_index": 172, "time_elapsed": 865170, "internal_node_id": "0.0-118.0-0.0"}}, {"uniqueid": "MTK0653:3MHW492WW1KHCJTZ10ARFLH8YIIMVC", "current_trial": 173, "dateTime": 1512583496327, "trialdata": {"rt": -1000, "stimulus": "/static/audio/wordpool/ROBBER.wav", "key_press": -1, "type": "PRES_AUD", "word": "robber", "wordID": 1196, "conditions": [24, 800, "a", 12000], "trial": 5, "serialpos": 0, "trial_type": "single-audio", "trial_index": 173, "time_elapsed": 866782, "internal_node_id": "0.0-119.0"}}, {"uniqueid": "MTK0653:3MHW492WW1KHCJTZ10ARFLH8YIIMVC", "current_trial": 174, "dateTime": 1512583498191, "trialdata": {"rt": -1000, "stimulus": "/static/audio/wordpool/HONEY.wav", "key_press": -1, "type": "PRES_AUD", "word": "honey", "wordID": 712, "conditions": [24, 800, "a", 12000], "trial": 5, "serialpos": 1, "trial_type": "single-audio", "trial_index": 174, "time_elapsed": 868646, "internal_node_id": "0.0-120.0"}}, {"uniqueid": "MTK0653:3MHW492WW1KHCJTZ10ARFLH8YIIMVC", "current_trial": 175, "dateTime": 1512583499807, "trialdata": {"rt": -1000, "stimulus": "/static/audio/wordpool/MILK.wav", "key_press": -1, "type": "PRES_AUD", "word": "milk", "wordID": 894, "conditions": [24, 800, "a", 12000], "trial": 5, "serialpos": 2, "trial_type": "single-audio", "trial_index": 175, "time_elapsed": 870262, "internal_node_id": "0.0-121.0"}}, {"uniqueid": "MTK0653:3MHW492WW1KHCJTZ10ARFLH8YIIMVC", "current_trial": 176, "dateTime": 1512583501718, "trialdata": {"rt": -1000, "stimulus": "/static/audio/wordpool/WRIST.wav", "key_press": -1, "type": "PRES_AUD", "word": "wrist", "wordID": 1625, "conditions": [24, 800, "a", 12000], "trial": 5, "serialpos": 3, "trial_type": "single-audio", "trial_index": 176, "time_elapsed": 872173, "internal_node_id": "0.0-122.0"}}, {"uniqueid": "MTK0653:3MHW492WW1KHCJTZ10ARFLH8YIIMVC", "current_trial": 177, "dateTime": 1512583503525, "trialdata": {"rt": -1000, "stimulus": "/static/audio/wordpool/COLLEGE.wav", "key_press": -1, "type": "PRES_AUD", "word": "college", "wordID": 345, "conditions": [24, 800, "a", 12000], "trial": 5, "serialpos": 4, "trial_type": "single-audio", "trial_index": 177, "time_elapsed": 873980, "internal_node_id": "0.0-123.0"}}, {"uniqueid": "MTK0653:3MHW492WW1KHCJTZ10ARFLH8YIIMVC", "current_trial": 178, "dateTime": 1512583505340, "trialdata": {"rt": -1000, "stimulus": "/static/audio/wordpool/WAGON.wav", "key_press": -1, "type": "PRES_AUD", "word": "wagon", "wordID": 1577, "conditions": [24, 800, "a", 12000], "trial": 5, "serialpos": 5, "trial_type": "single-audio", "trial_index": 178, "time_elapsed": 875795, "internal_node_id": "0.0-124.0"}}, {"uniqueid": "MTK0653:3MHW492WW1KHCJTZ10ARFLH8YIIMVC", "current_trial": 179, "dateTime": 1512583507018, "trialdata": {"rt": -1000, "stimulus": "/static/audio/wordpool/GHETTO.wav", "key_press": -1, "type": "PRES_AUD", "word": "ghetto", "wordID": 632, "conditions": [24, 800, "a", 12000], "trial": 5, "serialpos": 6, "trial_type": "single-audio", "trial_index": 179, "time_elapsed": 877473, "internal_node_id": "0.0-125.0"}}, {"uniqueid": "MTK0653:3MHW492WW1KHCJTZ10ARFLH8YIIMVC", "current_trial": 180, "dateTime": 1512583509009, "trialdata": {"rt": -1000, "stimulus": "/static/audio/wordpool/CASHIER.wav", "key_press": -1, "type": "PRES_AUD", "word": "cashier", "wordID": 253, "conditions": [24, 800, "a", 12000], "trial": 5, "serialpos": 7, "trial_type": "single-audio", "trial_index": 180, "time_elapsed": 879464, "internal_node_id": "0.0-126.0"}}, {"uniqueid": "MTK0653:3MHW492WW1KHCJTZ10ARFLH8YIIMVC", "current_trial": 181, "dateTime": 1512583510658, "trialdata": {"rt": -1000, "stimulus": "/static/audio/wordpool/FRIEND.wav", "key_press": -1, "type": "PRES_AUD", "word": "friend", "wordID": 605, "conditions": [24, 800, "a", 12000], "trial": 5, "serialpos": 8, "trial_type": "single-audio", "trial_index": 181, "time_elapsed": 881113, "internal_node_id": "0.0-127.0"}}, {"uniqueid": "MTK0653:3MHW492WW1KHCJTZ10ARFLH8YIIMVC", "current_trial": 182, "dateTime": 1512583512503, "trialdata": {"rt": -1000, "stimulus": "/static/audio/wordpool/DRESSER.wav", "key_press": -1, "type": "PRES_AUD", "word": "dresser", "wordID": 495, "conditions": [24, 800, "a", 12000], "trial": 5, "serialpos": 9, "trial_type": "single-audio", "trial_index": 182, "time_elapsed": 882958, "internal_node_id": "0.0-128.0"}}, {"uniqueid": "MTK0653:3MHW492WW1KHCJTZ10ARFLH8YIIMVC", "current_trial": 183, "dateTime": 1512583514367, "trialdata": {"rt": -1000, "stimulus": "/static/audio/wordpool/SWORD.wav", "key_press": -1, "type": "PRES_AUD", "word": "sword", "wordID": 1422, "conditions": [24, 800, "a", 12000], "trial": 5, "serialpos": 10, "trial_type": "single-audio", "trial_index": 183, "time_elapsed": 884822, "internal_node_id": "0.0-129.0"}}, {"uniqueid": "MTK0653:3MHW492WW1KHCJTZ10ARFLH8YIIMVC", "current_trial": 184, "dateTime": 1512583516237, "trialdata": {"rt": -1000, "stimulus": "/static/audio/wordpool/PIMPLE.wav", "key_press": -1, "type": "PRES_AUD", "word": "pimple", "wordID": 1070, "conditions": [24, 800, "a", 12000], "trial": 5, "serialpos": 11, "trial_type": "single-audio", "trial_index": 184, "time_elapsed": 886692, "internal_node_id": "0.0-130.0"}}, {"uniqueid": "MTK0653:3MHW492WW1KHCJTZ10ARFLH8YIIMVC", "current_trial": 185, "dateTime": 1512583518218, "trialdata": {"rt": -1000, "stimulus": "/static/audio/wordpool/SWIMMER.wav", "key_press": -1, "type": "PRES_AUD", "word": "swimmer", "wordID": 1419, "conditions": [24, 800, "a", 12000], "trial": 5, "serialpos": 12, "trial_type": "single-audio", "trial_index": 185, "time_elapsed": 888673, "internal_node_id": "0.0-131.0"}}, {"uniqueid": "MTK0653:3MHW492WW1KHCJTZ10ARFLH8YIIMVC", "current_trial": 186, "dateTime": 1512583520051, "trialdata": {"rt": -1000, "stimulus": "/static/audio/wordpool/APPLE.wav", "key_press": -1, "type": "PRES_AUD", "word": "apple", "wordID": 32, "conditions": [24, 800, "a", 12000], "trial": 5, "serialpos": 13, "trial_type": "single-audio", "trial_index": 186, "time_elapsed": 890506, "internal_node_id": "0.0-132.0"}}, {"uniqueid": "MTK0653:3MHW492WW1KHCJTZ10ARFLH8YIIMVC", "current_trial": 187, "dateTime": 1512583521984, "trialdata": {"rt": -1000, "stimulus": "/static/audio/wordpool/GRAPE.wav", "key_press": -1, "type": "PRES_AUD", "word": "grape", "wordID": 653, "conditions": [24, 800, "a", 12000], "trial": 5, "serialpos": 14, "trial_type": "single-audio", "trial_index": 187, "time_elapsed": 892439, "internal_node_id": "0.0-133.0"}}, {"uniqueid": "MTK0653:3MHW492WW1KHCJTZ10ARFLH8YIIMVC", "current_trial": 188, "dateTime": 1512583523696, "trialdata": {"rt": -1000, "stimulus": "/static/audio/wordpool/SLIME.wav", "key_press": -1, "type": "PRES_AUD", "word": "slime", "wordID": 1326, "conditions": [24, 800, "a", 12000], "trial": 5, "serialpos": 15, "trial_type": "single-audio", "trial_index": 188, "time_elapsed": 894151, "internal_node_id": "0.0-134.0"}}, {"uniqueid": "MTK0653:3MHW492WW1KHCJTZ10ARFLH8YIIMVC", "current_trial": 189, "dateTime": 1512583525345, "trialdata": {"rt": -1000, "stimulus": "/static/audio/wordpool/ROBIN.wav", "key_press": -1, "type": "PRES_AUD", "word": "robin", "wordID": 1198, "conditions": [24, 800, "a", 12000], "trial": 5, "serialpos": 16, "trial_type": "single-audio", "trial_index": 189, "time_elapsed": 895800, "internal_node_id": "0.0-135.0"}}, {"uniqueid": "MTK0653:3MHW492WW1KHCJTZ10ARFLH8YIIMVC", "current_trial": 190, "dateTime": 1512583527068, "trialdata": {"rt": -1000, "stimulus": "/static/audio/wordpool/PARENT.wav", "key_press": -1, "type": "PRES_AUD", "word": "parent", "wordID": 1012, "conditions": [24, 800, "a", 12000], "trial": 5, "serialpos": 17, "trial_type": "single-audio", "trial_index": 190, "time_elapsed": 897523, "internal_node_id": "0.0-136.0"}}, {"uniqueid": "MTK0653:3MHW492WW1KHCJTZ10ARFLH8YIIMVC", "current_trial": 191, "dateTime": 1512583528784, "trialdata": {"rt": -1000, "stimulus": "/static/audio/wordpool/TRENCH.wav", "key_press": -1, "type": "PRES_AUD", "word": "trench", "wordID": 1502, "conditions": [24, 800, "a", 12000], "trial": 5, "serialpos": 18, "trial_type": "single-audio", "trial_index": 191, "time_elapsed": 899239, "internal_node_id": "0.0-137.0"}}, {"uniqueid": "MTK0653:3MHW492WW1KHCJTZ10ARFLH8YIIMVC", "current_trial": 192, "dateTime": 1512583530558, "trialdata": {"rt": -1000, "stimulus": "/static/audio/wordpool/ARMY.wav", "key_press": -1, "type": "PRES_AUD", "word": "army", "wordID": 38, "conditions": [24, 800, "a", 12000], "trial": 5, "serialpos": 19, "trial_type": "single-audio", "trial_index": 192, "time_elapsed": 901013, "internal_node_id": "0.0-138.0"}}, {"uniqueid": "MTK0653:3MHW492WW1KHCJTZ10ARFLH8YIIMVC", "current_trial": 193, "dateTime": 1512583532498, "trialdata": {"rt": -1000, "stimulus": "/static/audio/wordpool/COWBOY.wav", "key_press": -1, "type": "PRES_AUD", "word": "cowboy", "wordID": 394, "conditions": [24, 800, "a", 12000], "trial": 5, "serialpos": 20, "trial_type": "single-audio", "trial_index": 193, "time_elapsed": 902953, "internal_node_id": "0.0-139.0"}}, {"uniqueid": "MTK0653:3MHW492WW1KHCJTZ10ARFLH8YIIMVC", "current_trial": 194, "dateTime": 1512583534103, "trialdata": {"rt": -1000, "stimulus": "/static/audio/wordpool/FRECKLE.wav", "key_press": -1, "type": "PRES_AUD", "word": "freckle", "wordID": 601, "conditions": [24, 800, "a", 12000], "trial": 5, "serialpos": 21, "trial_type": "single-audio", "trial_index": 194, "time_elapsed": 904558, "internal_node_id": "0.0-140.0"}}, {"uniqueid": "MTK0653:3MHW492WW1KHCJTZ10ARFLH8YIIMVC", "current_trial": 195, "dateTime": 1512583536060, "trialdata": {"rt": -1000, "stimulus": "/static/audio/wordpool/DIVER.wav", "key_press": -1, "type": "PRES_AUD", "word": "diver", "wordID": 475, "conditions": [24, 800, "a", 12000], "trial": 5, "serialpos": 22, "trial_type": "single-audio", "trial_index": 195, "time_elapsed": 906515, "internal_node_id": "0.0-141.0"}}, {"uniqueid": "MTK0653:3MHW492WW1KHCJTZ10ARFLH8YIIMVC", "current_trial": 196, "dateTime": 1512583537712, "trialdata": {"rt": -1000, "stimulus": "/static/audio/wordpool/PISTOL.wav", "key_press": -1, "type": "PRES_AUD", "word": "pistol", "wordID": 1074, "conditions": [24, 800, "a", 12000], "trial": 5, "serialpos": 23, "trial_type": "single-audio", "trial_index": 196, "time_elapsed": 908167, "internal_node_id": "0.0-142.0"}}, {"uniqueid": "MTK0653:3MHW492WW1KHCJTZ10ARFLH8YIIMVC", "current_trial": 197, "dateTime": 1512583538960, "trialdata": {"rt": -1, "stimulus": "", "key_press": -1, "type": "PRE_RECALL_DELAY", "trial_type": "single-stim", "trial_index": 197, "time_elapsed": 909414, "internal_node_id": "0.0-143.0-0.0"}}, {"uniqueid": "MTK0653:3MHW492WW1KHCJTZ10ARFLH8YIIMVC", "current_trial": 198, "dateTime": 1512583539461, "trialdata": {"rt": -1000, "stimulus": "/static/audio/400Hz.wav", "key_press": -1, "type": "PRE_RECALL_ALERT", "trial_type": "single-audio", "trial_index": 198, "time_elapsed": 909915, "internal_node_id": "0.0-144.0"}}, {"uniqueid": "MTK0653:3MHW492WW1KHCJTZ10ARFLH8YIIMVC", "current_trial": 199, "dateTime": 1512583599468, "trialdata": {"rt": [3476, 5516, 8586, 10974, 13038, 18632, 25460, 49116, 53312], "recwords": ["diver", "swimmer", "trench", "army", "college", "crystal", "ghetto", "pimple", "wrist"], "type": "FREE_RECALL", "conditions": [24, 800, "a", 12000], "trial": 5, "trial_type": "free-recall", "trial_index": 199, "time_elapsed": 969916, "internal_node_id": "0.0-145.0-0.0"}}, {"uniqueid": "MTK0653:3MHW492WW1KHCJTZ10ARFLH8YIIMVC", "current_trial": 200, "dateTime": 1512583601807, "trialdata": {"rt": 338, "key_press": 32, "type": "INSTRUCTIONS", "trial_type": "text", "trial_index": 200, "time_elapsed": 972262, "internal_node_id": "0.0-146.0"}}, {"uniqueid": "MTK0653:3MHW492WW1KHCJTZ10ARFLH8YIIMVC", "current_trial": 201, "dateTime": 1512583615809, "trialdata": {"rt": [2789, 7823, 10399, 11974], "responses": ["10", "21", "5", "8"], "num1": [1, 5, 1, 1, 2], "num2": [2, 7, 2, 1, 9], "num3": [7, 9, 2, 6, 7], "type": "DISTRACTOR", "conditions": [24, 1600, "a", 12000], "trial": 6, "trial_type": "math-distractor", "trial_index": 201, "time_elapsed": 986263, "internal_node_id": "0.0-147.0"}}, {"uniqueid": "MTK0653:3MHW492WW1KHCJTZ10ARFLH8YIIMVC", "current_trial": 202, "dateTime": 1512583618810, "trialdata": {"rt": -1, "stimulus": "<p id=\"stim\">10</p>", "key_press": -1, "trial_type": "single-stim", "trial_index": 202, "time_elapsed": 989264, "internal_node_id": "0.0-148.0-0.0"}}, {"uniqueid": "MTK0653:3MHW492WW1KHCJTZ10ARFLH8YIIMVC", "current_trial": 203, "dateTime": 1512583619811, "trialdata": {"rt": -1, "stimulus": "<p id=\"stim\">9</p>", "key_press": -1, "trial_type": "single-stim", "trial_index": 203, "time_elapsed": 990265, "internal_node_id": "0.0-148.0-1.0"}}, {"uniqueid": "MTK0653:3MHW492WW1KHCJTZ10ARFLH8YIIMVC", "current_trial": 204, "dateTime": 1512583620811, "trialdata": {"rt": -1, "stimulus": "<p id=\"stim\">8</p>", "key_press": -1, "trial_type": "single-stim", "trial_index": 204, "time_elapsed": 991266, "internal_node_id": "0.0-148.0-2.0"}}, {"uniqueid": "MTK0653:3MHW492WW1KHCJTZ10ARFLH8YIIMVC", "current_trial": 205, "dateTime": 1512583621813, "trialdata": {"rt": -1, "stimulus": "<p id=\"stim\">7</p>", "key_press": -1, "trial_type": "single-stim", "trial_index": 205, "time_elapsed": 992267, "internal_node_id": "0.0-148.0-3.0"}}, {"uniqueid": "MTK0653:3MHW492WW1KHCJTZ10ARFLH8YIIMVC", "current_trial": 206, "dateTime": 1512583622813, "trialdata": {"rt": -1, "stimulus": "<p id=\"stim\">6</p>", "key_press": -1, "trial_type": "single-stim", "trial_index": 206, "time_elapsed": 993268, "internal_node_id": "0.0-148.0-4.0"}}, {"uniqueid": "MTK0653:3MHW492WW1KHCJTZ10ARFLH8YIIMVC", "current_trial": 207, "dateTime": 1512583623814, "trialdata": {"rt": -1, "stimulus": "<p id=\"stim\">5</p>", "key_press": -1, "trial_type": "single-stim", "trial_index": 207, "time_elapsed": 994269, "internal_node_id": "0.0-148.0-5.0"}}, {"uniqueid": "MTK0653:3MHW492WW1KHCJTZ10ARFLH8YIIMVC", "current_trial": 208, "dateTime": 1512583624815, "trialdata": {"rt": -1, "stimulus": "<p id=\"stim\">4</p>", "key_press": -1, "trial_type": "single-stim", "trial_index": 208, "time_elapsed": 995270, "internal_node_id": "0.0-148.0-6.0"}}, {"uniqueid": "MTK0653:3MHW492WW1KHCJTZ10ARFLH8YIIMVC", "current_trial": 209, "dateTime": 1512583625816, "trialdata": {"rt": -1, "stimulus": "<p id=\"stim\">3</p>", "key_press": -1, "trial_type": "single-stim", "trial_index": 209, "time_elapsed": 996271, "internal_node_id": "0.0-148.0-7.0"}}, {"uniqueid": "MTK0653:3MHW492WW1KHCJTZ10ARFLH8YIIMVC", "current_trial": 210, "dateTime": 1512583626818, "trialdata": {"rt": -1, "stimulus": "<p id=\"stim\">2</p>", "key_press": -1, "trial_type": "single-stim", "trial_index": 210, "time_elapsed": 997272, "internal_node_id": "0.0-148.0-8.0"}}, {"uniqueid": "MTK0653:3MHW492WW1KHCJTZ10ARFLH8YIIMVC", "current_trial": 211, "dateTime": 1512583627819, "trialdata": {"rt": -1, "stimulus": "<p id=\"stim\">1</p>", "key_press": -1, "trial_type": "single-stim", "trial_index": 211, "time_elapsed": 998273, "internal_node_id": "0.0-148.0-9.0"}}, {"uniqueid": "MTK0653:3MHW492WW1KHCJTZ10ARFLH8YIIMVC", "current_trial": 212, "dateTime": 1512583629320, "trialdata": {"rt": -1, "stimulus": "<p id=\"stim\">+</p>", "key_press": -1, "type": "FIXATION", "trial_type": "single-stim", "trial_index": 212, "time_elapsed": 999774, "internal_node_id": "0.0-149.0-0.0"}}, {"uniqueid": "MTK0653:3MHW492WW1KHCJTZ10ARFLH8YIIMVC", "current_trial": 213, "dateTime": 1512583632115, "trialdata": {"rt": -1000, "stimulus": "/static/audio/wordpool/CROSS.wav", "key_press": -1, "type": "PRES_AUD", "word": "cross", "wordID": 412, "conditions": [24, 1600, "a", 12000], "trial": 6, "serialpos": 0, "trial_type": "single-audio", "trial_index": 213, "time_elapsed": 1002570, "internal_node_id": "0.0-150.0"}}, {"uniqueid": "MTK0653:3MHW492WW1KHCJTZ10ARFLH8YIIMVC", "current_trial": 214, "dateTime": 1512583634644, "trialdata": {"rt": -1000, "stimulus": "/static/audio/wordpool/GUITAR.wav", "key_press": -1, "type": "PRES_AUD", "word": "guitar", "wordID": 669, "conditions": [24, 1600, "a", 12000], "trial": 6, "serialpos": 1, "trial_type": "single-audio", "trial_index": 214, "time_elapsed": 1005099, "internal_node_id": "0.0-151.0"}}, {"uniqueid": "MTK0653:3MHW492WW1KHCJTZ10ARFLH8YIIMVC", "current_trial": 215, "dateTime": 1512583637398, "trialdata": {"rt": -1000, "stimulus": "/static/audio/wordpool/ONION.wav", "key_press": -1, "type": "PRES_AUD", "word": "onion", "wordID": 976, "conditions": [24, 1600, "a", 12000], "trial": 6, "serialpos": 2, "trial_type": "single-audio", "trial_index": 215, "time_elapsed": 1007853, "internal_node_id": "0.0-152.0"}}, {"uniqueid": "MTK0653:3MHW492WW1KHCJTZ10ARFLH8YIIMVC", "current_trial": 216, "dateTime": 1512583639839, "trialdata": {"rt": -1000, "stimulus": "/static/audio/wordpool/ROOSTER.wav", "key_press": -1, "type": "PRES_AUD", "word": "rooster", "wordID": 1208, "conditions": [24, 1600, "a", 12000], "trial": 6, "serialpos": 3, "trial_type": "single-audio", "trial_index": 216, "time_elapsed": 1010294, "internal_node_id": "0.0-153.0"}}, {"uniqueid": "MTK0653:3MHW492WW1KHCJTZ10ARFLH8YIIMVC", "current_trial": 217, "dateTime": 1512583642339, "trialdata": {"rt": -1000, "stimulus": "/static/audio/wordpool/TROMBONE.wav", "key_press": -1, "type": "PRES_AUD", "word": "trombone", "wordID": 1507, "conditions": [24, 1600, "a", 12000], "trial": 6, "serialpos": 4, "trial_type": "single-audio", "trial_index": 217, "time_elapsed": 1012794, "internal_node_id": "0.0-154.0"}}, {"uniqueid": "MTK0653:3MHW492WW1KHCJTZ10ARFLH8YIIMVC", "current_trial": 218, "dateTime": 1512583644857, "trialdata": {"rt": -1000, "stimulus": "/static/audio/wordpool/ATLAS.wav", "key_press": -1, "type": "PRES_AUD", "word": "atlas", "wordID": 52, "conditions": [24, 1600, "a", 12000], "trial": 6, "serialpos": 5, "trial_type": "single-audio", "trial_index": 218, "time_elapsed": 1015310, "internal_node_id": "0.0-155.0"}}, {"uniqueid": "MTK0653:3MHW492WW1KHCJTZ10ARFLH8YIIMVC", "current_trial": 219, "dateTime": 1512583647613, "trialdata": {"rt": -1000, "stimulus": "/static/audio/wordpool/FLASHLIGHT.wav", "key_press": -1, "type": "PRES_AUD", "word": "flashlight", "wordID": 574, "conditions": [24, 1600, "a", 12000], "trial": 6, "serialpos": 6, "trial_type": "single-audio", "trial_index": 219, "time_elapsed": 1018068, "internal_node_id": "0.0-156.0"}}, {"uniqueid": "MTK0653:3MHW492WW1KHCJTZ10ARFLH8YIIMVC", "current_trial": 220, "dateTime": 1512583650313, "trialdata": {"rt": -1000, "stimulus": "/static/audio/wordpool/HOOD.wav", "key_press": -1, "type": "PRES_AUD", "word": "hood", "wordID": 713, "conditions": [24, 1600, "a", 12000], "trial": 6, "serialpos": 7, "trial_type": "single-audio", "trial_index": 220, "time_elapsed": 1020768, "internal_node_id": "0.0-157.0"}}, {"uniqueid": "MTK0653:3MHW492WW1KHCJTZ10ARFLH8YIIMVC", "current_trial": 221, "dateTime": 1512583652919, "trialdata": {"rt": -1000, "stimulus": "/static/audio/wordpool/NURSE.wav", "key_press": -1, "type": "PRES_AUD", "word": "nurse", "wordID": 962, "conditions": [24, 1600, "a", 12000], "trial": 6, "serialpos": 8, "trial_type": "single-audio", "trial_index": 221, "time_elapsed": 1023374, "internal_node_id": "0.0-158.0"}}, {"uniqueid": "MTK0653:3MHW492WW1KHCJTZ10ARFLH8YIIMVC", "current_trial": 222, "dateTime": 1512583655368, "trialdata": {"rt": -1000, "stimulus": "/static/audio/wordpool/FLUTE.wav", "key_press": -1, "type": "PRES_AUD", "word": "flute", "wordID": 584, "conditions": [24, 1600, "a", 12000], "trial": 6, "serialpos": 9, "trial_type": "single-audio", "trial_index": 222, "time_elapsed": 1025823, "internal_node_id": "0.0-159.0"}}, {"uniqueid": "MTK0653:3MHW492WW1KHCJTZ10ARFLH8YIIMVC", "current_trial": 223, "dateTime": 1512583658113, "trialdata": {"rt": -1000, "stimulus": "/static/audio/wordpool/BANJO.wav", "key_press": -1, "type": "PRES_AUD", "word": "banjo", "wordID": 81, "conditions": [24, 1600, "a", 12000], "trial": 6, "serialpos": 10, "trial_type": "single-audio", "trial_index": 223, "time_elapsed": 1028568, "internal_node_id": "0.0-160.0"}}, {"uniqueid": "MTK0653:3MHW492WW1KHCJTZ10ARFLH8YIIMVC", "current_trial": 224, "dateTime": 1512583660689, "trialdata": {"rt": -1000, "stimulus": "/static/audio/wordpool/SHIRT.wav", "key_press": -1, "type": "PRES_AUD", "word": "shirt", "wordID": 1286, "conditions": [24, 1600, "a", 12000], "trial": 6, "serialpos": 11, "trial_type": "single-audio", "trial_index": 224, "time_elapsed": 1031144, "internal_node_id": "0.0-161.0"}}, {"uniqueid": "MTK0653:3MHW492WW1KHCJTZ10ARFLH8YIIMVC", "current_trial": 225, "dateTime": 1512583663353, "trialdata": {"rt": -1000, "stimulus": "/static/audio/wordpool/PASTA.wav", "key_press": -1, "type": "PRES_AUD", "word": "pasta", "wordID": 1020, "conditions": [24, 1600, "a", 12000], "trial": 6, "serialpos": 12, "trial_type": "single-audio", "trial_index": 225, "time_elapsed": 1033807, "internal_node_id": "0.0-162.0"}}, {"uniqueid": "MTK0653:3MHW492WW1KHCJTZ10ARFLH8YIIMVC", "current_trial": 226, "dateTime": 1512583665847, "trialdata": {"rt": -1000, "stimulus": "/static/audio/wordpool/MARINE.wav", "key_press": -1, "type": "PRES_AUD", "word": "marine", "wordID": 868, "conditions": [24, 1600, "a", 12000], "trial": 6, "serialpos": 13, "trial_type": "single-audio", "trial_index": 226, "time_elapsed": 1036302, "internal_node_id": "0.0-163.0"}}, {"uniqueid": "MTK0653:3MHW492WW1KHCJTZ10ARFLH8YIIMVC", "current_trial": 227, "dateTime": 1512583668467, "trialdata": {"rt": -1000, "stimulus": "/static/audio/wordpool/BUGGY.wav", "key_press": -1, "type": "PRES_AUD", "word": "buggy", "wordID": 187, "conditions": [24, 1600, "a", 12000], "trial": 6, "serialpos": 14, "trial_type": "single-audio", "trial_index": 227, "time_elapsed": 1038922, "internal_node_id": "0.0-164.0"}}, {"uniqueid": "MTK0653:3MHW492WW1KHCJTZ10ARFLH8YIIMVC", "current_trial": 228, "dateTime": 1512583670896, "trialdata": {"rt": -1000, "stimulus": "/static/audio/wordpool/COUCH.wav", "key_press": -1, "type": "PRES_AUD", "word": "couch", "wordID": 385, "conditions": [24, 1600, "a", 12000], "trial": 6, "serialpos": 15, "trial_type": "single-audio", "trial_index": 228, "time_elapsed": 1041351, "internal_node_id": "0.0-165.0"}}, {"uniqueid": "MTK0653:3MHW492WW1KHCJTZ10ARFLH8YIIMVC", "current_trial": 229, "dateTime": 1512583673666, "trialdata": {"rt": -1000, "stimulus": "/static/audio/wordpool/TREAT.wav", "key_press": -1, "type": "PRES_AUD", "word": "treat", "wordID": 1500, "conditions": [24, 1600, "a", 12000], "trial": 6, "serialpos": 16, "trial_type": "single-audio", "trial_index": 229, "time_elapsed": 1044121, "internal_node_id": "0.0-166.0"}}, {"uniqueid": "MTK0653:3MHW492WW1KHCJTZ10ARFLH8YIIMVC", "current_trial": 230, "dateTime": 1512583676270, "trialdata": {"rt": -1000, "stimulus": "/static/audio/wordpool/JUDGE.wav", "key_press": -1, "type": "PRES_AUD", "word": "judge", "wordID": 760, "conditions": [24, 1600, "a", 12000], "trial": 6, "serialpos": 17, "trial_type": "single-audio", "trial_index": 230, "time_elapsed": 1046725, "internal_node_id": "0.0-167.0"}}, {"uniqueid": "MTK0653:3MHW492WW1KHCJTZ10ARFLH8YIIMVC", "current_trial": 231, "dateTime": 1512583679062, "trialdata": {"rt": -1000, "stimulus": "/static/audio/wordpool/BISON.wav", "key_press": -1, "type": "PRES_AUD", "word": "bison", "wordID": 130, "conditions": [24, 1600, "a", 12000], "trial": 6, "serialpos": 18, "trial_type": "single-audio", "trial_index": 231, "time_elapsed": 1049517, "internal_node_id": "0.0-168.0"}}, {"uniqueid": "MTK0653:3MHW492WW1KHCJTZ10ARFLH8YIIMVC", "current_trial": 232, "dateTime": 1512583681638, "trialdata": {"rt": -1000, "stimulus": "/static/audio/wordpool/KIDNEY.wav", "key_press": -1, "type": "PRES_AUD", "word": "kidney", "wordID": 775, "conditions": [24, 1600, "a", 12000], "trial": 6, "serialpos": 19, "trial_type": "single-audio", "trial_index": 232, "time_elapsed": 1052093, "internal_node_id": "0.0-169.0"}}, {"uniqueid": "MTK0653:3MHW492WW1KHCJTZ10ARFLH8YIIMVC", "current_trial": 233, "dateTime": 1512583684137, "trialdata": {"rt": -1000, "stimulus": "/static/audio/wordpool/GYMNAST.wav", "key_press": -1, "type": "PRES_AUD", "word": "gymnast", "wordID": 674, "conditions": [24, 1600, "a", 12000], "trial": 6, "serialpos": 20, "trial_type": "single-audio", "trial_index": 233, "time_elapsed": 1054592, "internal_node_id": "0.0-170.0"}}, {"uniqueid": "MTK0653:3MHW492WW1KHCJTZ10ARFLH8YIIMVC", "current_trial": 234, "dateTime": 1512583686768, "trialdata": {"rt": -1000, "stimulus": "/static/audio/wordpool/DANCER.wav", "key_press": -1, "type": "PRES_AUD", "word": "dancer", "wordID": 436, "conditions": [24, 1600, "a", 12000], "trial": 6, "serialpos": 21, "trial_type": "single-audio", "trial_index": 234, "time_elapsed": 1057223, "internal_node_id": "0.0-171.0"}}, {"uniqueid": "MTK0653:3MHW492WW1KHCJTZ10ARFLH8YIIMVC", "current_trial": 235, "dateTime": 1512583689341, "trialdata": {"rt": -1000, "stimulus": "/static/audio/wordpool/PARSLEY.wav", "key_press": -1, "type": "PRES_AUD", "word": "parsley", "wordID": 1015, "conditions": [24, 1600, "a", 12000], "trial": 6, "serialpos": 22, "trial_type": "single-audio", "trial_index": 235, "time_elapsed": 1059796, "internal_node_id": "0.0-172.0"}}, {"uniqueid": "MTK0653:3MHW492WW1KHCJTZ10ARFLH8YIIMVC", "current_trial": 236, "dateTime": 1512583691768, "trialdata": {"rt": -1000, "stimulus": "/static/audio/wordpool/TWEEZERS.wav", "key_press": -1, "type": "PRES_AUD", "word": "tweezers", "wordID": 1525, "conditions": [24, 1600, "a", 12000], "trial": 6, "serialpos": 23, "trial_type": "single-audio", "trial_index": 236, "time_elapsed": 1062223, "internal_node_id": "0.0-173.0"}}, {"uniqueid": "MTK0653:3MHW492WW1KHCJTZ10ARFLH8YIIMVC", "current_trial": 237, "dateTime": 1512583693124, "trialdata": {"rt": -1, "stimulus": "", "key_press": -1, "type": "PRE_RECALL_DELAY", "trial_type": "single-stim", "trial_index": 237, "time_elapsed": 1063578, "internal_node_id": "0.0-174.0-0.0"}}, {"uniqueid": "MTK0653:3MHW492WW1KHCJTZ10ARFLH8YIIMVC", "current_trial": 238, "dateTime": 1512583693624, "trialdata": {"rt": -1000, "stimulus": "/static/audio/400Hz.wav", "key_press": -1, "type": "PRE_RECALL_ALERT", "trial_type": "single-audio", "trial_index": 238, "time_elapsed": 1064079, "internal_node_id": "0.0-175.0"}}, {"uniqueid": "MTK0653:3MHW492WW1KHCJTZ10ARFLH8YIIMVC", "current_trial": 239, "dateTime": 1512583753632, "trialdata": {"rt": [3781, 6408, 9560, 24998, 28467], "recwords": ["tweesers", "pasta", "buggy", "trombone", "flute"], "type": "FREE_RECALL", "conditions": [24, 1600, "a", 12000], "trial": 6, "trial_type": "free-recall", "trial_index": 239, "time_elapsed": 1124080, "internal_node_id": "0.0-176.0-0.0"}}, {"uniqueid": "MTK0653:3MHW492WW1KHCJTZ10ARFLH8YIIMVC", "current_trial": 240, "dateTime": 1512583756625, "trialdata": {"rt": 992, "key_press": 32, "type": "INSTRUCTIONS", "trial_type": "text", "trial_index": 240, "time_elapsed": 1127080, "internal_node_id": "0.0-177.0"}}, {"uniqueid": "MTK0653:3MHW492WW1KHCJTZ10ARFLH8YIIMVC", "current_trial": 241, "dateTime": 1512583770627, "trialdata": {"rt": [3228, 5087, 10729], "responses": ["17", "12", "22"], "num1": [5, 4, 5, 1], "num2": [7, 6, 8, 7], "num3": [5, 2, 9, 6], "type": "DISTRACTOR", "conditions": [12, 800, "a", 12000], "trial": 7, "trial_type": "math-distractor", "trial_index": 241, "time_elapsed": 1141082, "internal_node_id": "0.0-178.0"}}, {"uniqueid": "MTK0653:3MHW492WW1KHCJTZ10ARFLH8YIIMVC", "current_trial": 242, "dateTime": 1512583773628, "trialdata": {"rt": -1, "stimulus": "<p id=\"stim\">10</p>", "key_press": -1, "trial_type": "single-stim", "trial_index": 242, "time_elapsed": 1144082, "internal_node_id": "0.0-179.0-0.0"}}, {"uniqueid": "MTK0653:3MHW492WW1KHCJTZ10ARFLH8YIIMVC", "current_trial": 243, "dateTime": 1512583774629, "trialdata": {"rt": -1, "stimulus": "<p id=\"stim\">9</p>", "key_press": -1, "trial_type": "single-stim", "trial_index": 243, "time_elapsed": 1145083, "internal_node_id": "0.0-179.0-1.0"}}, {"uniqueid": "MTK0653:3MHW492WW1KHCJTZ10ARFLH8YIIMVC", "current_trial": 244, "dateTime": 1512583775630, "trialdata": {"rt": -1, "stimulus": "<p id=\"stim\">8</p>", "key_press": -1, "trial_type": "single-stim", "trial_index": 244, "time_elapsed": 1146084, "internal_node_id": "0.0-179.0-2.0"}}, {"uniqueid": "MTK0653:3MHW492WW1KHCJTZ10ARFLH8YIIMVC", "current_trial": 245, "dateTime": 1512583776631, "trialdata": {"rt": -1, "stimulus": "<p id=\"stim\">7</p>", "key_press": -1, "trial_type": "single-stim", "trial_index": 245, "time_elapsed": 1147085, "internal_node_id": "0.0-179.0-3.0"}}, {"uniqueid": "MTK0653:3MHW492WW1KHCJTZ10ARFLH8YIIMVC", "current_trial": 246, "dateTime": 1512583777628, "trialdata": {"rt": -1, "stimulus": "<p id=\"stim\">6</p>", "key_press": -1, "trial_type": "single-stim", "trial_index": 246, "time_elapsed": 1148082, "internal_node_id": "0.0-179.0-4.0"}}, {"uniqueid": "MTK0653:3MHW492WW1KHCJTZ10ARFLH8YIIMVC", "current_trial": 247, "dateTime": 1512583778629, "trialdata": {"rt": -1, "stimulus": "<p id=\"stim\">5</p>", "key_press": -1, "trial_type": "single-stim", "trial_index": 247, "time_elapsed": 1149083, "internal_node_id": "0.0-179.0-5.0"}}, {"uniqueid": "MTK0653:3MHW492WW1KHCJTZ10ARFLH8YIIMVC", "current_trial": 248, "dateTime": 1512583779630, "trialdata": {"rt": -1, "stimulus": "<p id=\"stim\">4</p>", "key_press": -1, "trial_type": "single-stim", "trial_index": 248, "time_elapsed": 1150084, "internal_node_id": "0.0-179.0-6.0"}}, {"uniqueid": "MTK0653:3MHW492WW1KHCJTZ10ARFLH8YIIMVC", "current_trial": 249, "dateTime": 1512583780631, "trialdata": {"rt": -1, "stimulus": "<p id=\"stim\">3</p>", "key_press": -1, "trial_type": "single-stim", "trial_index": 249, "time_elapsed": 1151085, "internal_node_id": "0.0-179.0-7.0"}}, {"uniqueid": "MTK0653:3MHW492WW1KHCJTZ10ARFLH8YIIMVC", "current_trial": 250, "dateTime": 1512583781632, "trialdata": {"rt": -1, "stimulus": "<p id=\"stim\">2</p>", "key_press": -1, "trial_type": "single-stim", "trial_index": 250, "time_elapsed": 1152086, "internal_node_id": "0.0-179.0-8.0"}}, {"uniqueid": "MTK0653:3MHW492WW1KHCJTZ10ARFLH8YIIMVC", "current_trial": 251, "dateTime": 1512583782633, "trialdata": {"rt": -1, "stimulus": "<p id=\"stim\">1</p>", "key_press": -1, "trial_type": "single-stim", "trial_index": 251, "time_elapsed": 1153087, "internal_node_id": "0.0-179.0-9.0"}}, {"uniqueid": "MTK0653:3MHW492WW1KHCJTZ10ARFLH8YIIMVC", "current_trial": 252, "dateTime": 1512583784134, "trialdata": {"rt": -1, "stimulus": "<p id=\"stim\">+</p>", "key_press": -1, "type": "FIXATION", "trial_type": "single-stim", "trial_index": 252, "time_elapsed": 1154588, "internal_node_id": "0.0-180.0-0.0"}}, {"uniqueid": "MTK0653:3MHW492WW1KHCJTZ10ARFLH8YIIMVC", "current_trial": 253, "dateTime": 1512583785992, "trialdata": {"rt": -1000, "stimulus": "/static/audio/wordpool/GUARD.wav", "key_press": -1, "type": "PRES_AUD", "word": "guard", "wordID": 666, "conditions": [12, 800, "a", 12000], "trial": 7, "serialpos": 0, "trial_type": "single-audio", "trial_index": 253, "time_elapsed": 1156447, "internal_node_id": "0.0-181.0"}}, {"uniqueid": "MTK0653:3MHW492WW1KHCJTZ10ARFLH8YIIMVC", "current_trial": 254, "dateTime": 1512583787685, "trialdata": {"rt": -1000, "stimulus": "/static/audio/wordpool/SALT.wav", "key_press": -1, "type": "PRES_AUD", "word": "salt", "wordID": 1228, "conditions": [12, 800, "a", 12000], "trial": 7, "serialpos": 1, "trial_type": "single-audio", "trial_index": 254, "time_elapsed": 1158140, "internal_node_id": "0.0-182.0"}}, {"uniqueid": "MTK0653:3MHW492WW1KHCJTZ10ARFLH8YIIMVC", "current_trial": 255, "dateTime": 1512583789385, "trialdata": {"rt": -1000, "stimulus": "/static/audio/wordpool/BLOUSE.wav", "key_press": -1, "type": "PRES_AUD", "word": "blouse", "wordID": 138, "conditions": [12, 800, "a", 12000], "trial": 7, "serialpos": 2, "trial_type": "single-audio", "trial_index": 255, "time_elapsed": 1159840, "internal_node_id": "0.0-183.0"}}, {"uniqueid": "MTK0653:3MHW492WW1KHCJTZ10ARFLH8YIIMVC", "current_trial": 256, "dateTime": 1512583791065, "trialdata": {"rt": -1000, "stimulus": "/static/audio/wordpool/CHILD.wav", "key_press": -1, "type": "PRES_AUD", "word": "child", "wordID": 298, "conditions": [12, 800, "a", 12000], "trial": 7, "serialpos": 3, "trial_type": "single-audio", "trial_index": 256, "time_elapsed": 1161519, "internal_node_id": "0.0-184.0"}}, {"uniqueid": "MTK0653:3MHW492WW1KHCJTZ10ARFLH8YIIMVC", "current_trial": 257, "dateTime": 1512583793015, "trialdata": {"rt": -1000, "stimulus": "/static/audio/wordpool/WORKER.wav", "key_press": -1, "type": "PRES_AUD", "word": "worker", "wordID": 1620, "conditions": [12, 800, "a", 12000], "trial": 7, "serialpos": 4, "trial_type": "single-audio", "trial_index": 257, "time_elapsed": 1163470, "internal_node_id": "0.0-185.0"}}, {"uniqueid": "MTK0653:3MHW492WW1KHCJTZ10ARFLH8YIIMVC", "current_trial": 258, "dateTime": 1512583794995, "trialdata": {"rt": -1000, "stimulus": "/static/audio/wordpool/RIFLE.wav", "key_press": -1, "type": "PRES_AUD", "word": "rifle", "wordID": 1191, "conditions": [12, 800, "a", 12000], "trial": 7, "serialpos": 5, "trial_type": "single-audio", "trial_index": 258, "time_elapsed": 1165450, "internal_node_id": "0.0-186.0"}}, {"uniqueid": "MTK0653:3MHW492WW1KHCJTZ10ARFLH8YIIMVC", "current_trial": 259, "dateTime": 1512583796825, "trialdata": {"rt": -1000, "stimulus": "/static/audio/wordpool/BRIEFCASE.wav", "key_press": -1, "type": "PRES_AUD", "word": "briefcase", "wordID": 174, "conditions": [12, 800, "a", 12000], "trial": 7, "serialpos": 6, "trial_type": "single-audio", "trial_index": 259, "time_elapsed": 1167280, "internal_node_id": "0.0-187.0"}}, {"uniqueid": "MTK0653:3MHW492WW1KHCJTZ10ARFLH8YIIMVC", "current_trial": 260, "dateTime": 1512583798781, "trialdata": {"rt": -1000, "stimulus": "/static/audio/wordpool/SUITCASE.wav", "key_press": -1, "type": "PRES_AUD", "word": "suitcase", "wordID": 1402, "conditions": [12, 800, "a", 12000], "trial": 7, "serialpos": 7, "trial_type": "single-audio", "trial_index": 260, "time_elapsed": 1169235, "internal_node_id": "0.0-188.0"}}, {"uniqueid": "MTK0653:3MHW492WW1KHCJTZ10ARFLH8YIIMVC", "current_trial": 261, "dateTime": 1512583800395, "trialdata": {"rt": -1000, "stimulus": "/static/audio/wordpool/DRESS.wav", "key_press": -1, "type": "PRES_AUD", "word": "dress", "wordID": 494, "conditions": [12, 800, "a", 12000], "trial": 7, "serialpos": 8, "trial_type": "single-audio", "trial_index": 261, "time_elapsed": 1170850, "internal_node_id": "0.0-189.0"}}, {"uniqueid": "MTK0653:3MHW492WW1KHCJTZ10ARFLH8YIIMVC", "current_trial": 262, "dateTime": 1512583802334, "trialdata": {"rt": -1000, "stimulus": "/static/audio/wordpool/GARBAGE.wav", "key_press": -1, "type": "PRES_AUD", "word": "garbage", "wordID": 621, "conditions": [12, 800, "a", 12000], "trial": 7, "serialpos": 9, "trial_type": "single-audio", "trial_index": 262, "time_elapsed": 1172788, "internal_node_id": "0.0-190.0"}}, {"uniqueid": "MTK0653:3MHW492WW1KHCJTZ10ARFLH8YIIMVC", "current_trial": 263, "dateTime": 1512583803992, "trialdata": {"rt": -1000, "stimulus": "/static/audio/wordpool/MAILBOX.wav", "key_press": -1, "type": "PRES_AUD", "word": "mailbox", "wordID": 856, "conditions": [12, 800, "a", 12000], "trial": 7, "serialpos": 10, "trial_type": "single-audio", "trial_index": 263, "time_elapsed": 1174446, "internal_node_id": "0.0-191.0"}}, {"uniqueid": "MTK0653:3MHW492WW1KHCJTZ10ARFLH8YIIMVC", "current_trial": 264, "dateTime": 1512583805785, "trialdata": {"rt": -1000, "stimulus": "/static/audio/wordpool/CLAM.wav", "key_press": -1, "type": "PRES_AUD", "word": "clam", "wordID": 314, "conditions": [12, 800, "a", 12000], "trial": 7, "serialpos": 11, "trial_type": "single-audio", "trial_index": 264, "time_elapsed": 1176240, "internal_node_id": "0.0-192.0"}}, {"uniqueid": "MTK0653:3MHW492WW1KHCJTZ10ARFLH8YIIMVC", "current_trial": 265, "dateTime": 1512583807126, "trialdata": {"rt": -1, "stimulus": "", "key_press": -1, "type": "PRE_RECALL_DELAY", "trial_type": "single-stim", "trial_index": 265, "time_elapsed": 1177580, "internal_node_id": "0.0-193.0-0.0"}}, {"uniqueid": "MTK0653:3MHW492WW1KHCJTZ10ARFLH8YIIMVC", "current_trial": 266, "dateTime": 1512583807628, "trialdata": {"rt": -1000, "stimulus": "/static/audio/400Hz.wav", "key_press": -1, "type": "PRE_RECALL_ALERT", "trial_type": "single-audio", "trial_index": 266, "time_elapsed": 1178083, "internal_node_id": "0.0-194.0"}}, {"uniqueid": "MTK0653:3MHW492WW1KHCJTZ10ARFLH8YIIMVC", "current_trial": 267, "dateTime": 1512583867637, "trialdata": {"rt": [4875, 6248, 10854, 13331, 17698, 34156, 37122, 44251], "recwords": ["mailbox", "child", "salt", "worker", "clam", "briefcase", "suitcase", "shirt"], "type": "FREE_RECALL", "conditions": [12, 800, "a", 12000], "trial": 7, "trial_type": "free-recall", "trial_index": 267, "time_elapsed": 1238083, "internal_node_id": "0.0-195.0-0.0"}}, {"uniqueid": "MTK0653:3MHW492WW1KHCJTZ10ARFLH8YIIMVC", "current_trial": 268, "dateTime": 1512583870440, "trialdata": {"rt": 802, "key_press": 32, "type": "INSTRUCTIONS", "trial_type": "text", "trial_index": 268, "time_elapsed": 1240894, "internal_node_id": "0.0-196.0"}}, {"uniqueid": "MTK0653:3MHW492WW1KHCJTZ10ARFLH8YIIMVC", "current_trial": 269, "dateTime": 1512583896442, "trialdata": {"rt": [3708, 7652, 13827, 16005, 19926, 21341, 23452], "responses": ["15", "15", "17", "10", "16", "11", "11"], "num1": [4, 1, 6, 2, 3, 1, 9, 4], "num2": [2, 6, 5, 7, 5, 5, 1, 9], "num3": [9, 8, 6, 1, 8, 5, 1, 8], "type": "DISTRACTOR", "conditions": [12, 1600, "a", 24000], "trial": 8, "trial_type": "math-distractor", "trial_index": 269, "time_elapsed": 1266897, "internal_node_id": "0.0-197.0"}}, {"uniqueid": "MTK0653:3MHW492WW1KHCJTZ10ARFLH8YIIMVC", "current_trial": 270, "dateTime": 1512583899439, "trialdata": {"rt": -1, "stimulus": "<p id=\"stim\">10</p>", "key_press": -1, "trial_type": "single-stim", "trial_index": 270, "time_elapsed": 1269893, "internal_node_id": "0.0-198.0-0.0"}}, {"uniqueid": "MTK0653:3MHW492WW1KHCJTZ10ARFLH8YIIMVC", "current_trial": 271, "dateTime": 1512583900440, "trialdata": {"rt": -1, "stimulus": "<p id=\"stim\">9</p>", "key_press": -1, "trial_type": "single-stim", "trial_index": 271, "time_elapsed": 1270894, "internal_node_id": "0.0-198.0-1.0"}}, {"uniqueid": "MTK0653:3MHW492WW1KHCJTZ10ARFLH8YIIMVC", "current_trial": 272, "dateTime": 1512583901441, "trialdata": {"rt": -1, "stimulus": "<p id=\"stim\">8</p>", "key_press": -1, "trial_type": "single-stim", "trial_index": 272, "time_elapsed": 1271895, "internal_node_id": "0.0-198.0-2.0"}}, {"uniqueid": "MTK0653:3MHW492WW1KHCJTZ10ARFLH8YIIMVC", "current_trial": 273, "dateTime": 1512583902442, "trialdata": {"rt": -1, "stimulus": "<p id=\"stim\">7</p>", "key_press": -1, "trial_type": "single-stim", "trial_index": 273, "time_elapsed": 1272896, "internal_node_id": "0.0-198.0-3.0"}}, {"uniqueid": "MTK0653:3MHW492WW1KHCJTZ10ARFLH8YIIMVC", "current_trial": 274, "dateTime": 1512583903443, "trialdata": {"rt": -1, "stimulus": "<p id=\"stim\">6</p>", "key_press": -1, "trial