{"condition": 0, "counterbalance": 477, "assignmentId": "3YHH42UU5CMHD0AYYRLNUFCT16H0L9", "workerId": "MTK0192", "hitId": "3QD8LUVX4X59LHFUJEPLXK7NCYW5XD", "currenttrial": 625, "bonus": 0, "data": [{"uniqueid": "MTK0192:3YHH42UU5CMHD0AYYRLNUFCT16H0L9", "current_trial": 0, "dateTime": 1509481011724, "trialdata": {"rt": 2221, "key_press": 32, "type": "INSTRUCTIONS", "trial_type": "text", "trial_index": 0, "time_elapsed": 2226, "internal_node_id": "0.0-0.0"}}, {"uniqueid": "MTK0192:3YHH42UU5CMHD0AYYRLNUFCT16H0L9", "current_trial": 1, "dateTime": 1509481022312, "trialdata": {"rt": 10586, "key_press": 32, "type": "INSTRUCTIONS", "trial_type": "text", "trial_index": 1, "time_elapsed": 12815, "internal_node_id": "0.0-1.0"}}, {"uniqueid": "MTK0192:3YHH42UU5CMHD0AYYRLNUFCT16H0L9", "current_trial": 2, "dateTime": 1509481028200, "trialdata": {"rt": [5877], "responses": ["ocean"], "type": "AUDIO_TEST", "trial_type": "audio-test", "trial_index": 2, "time_elapsed": 18703, "internal_node_id": "0.0-2.0"}}, {"uniqueid": "MTK0192:3YHH42UU5CMHD0AYYRLNUFCT16H0L9", "current_trial": 3, "dateTime": 1509481036433, "trialdata": {"rt": [8231], "responses": ["crystal"], "type": "AUDIO_TEST", "trial_type": "audio-test", "trial_index": 3, "time_elapsed": 26936, "internal_node_id": "0.0-3.0"}}, {"uniqueid": "MTK0192:3YHH42UU5CMHD0AYYRLNUFCT16H0L9", "current_trial": 4, "dateTime": 1509481041192, "trialdata": {"rt": [4758], "responses": ["spice"], "type": "AUDIO_TEST", "trial_type": "audio-test", "trial_index": 4, "time_elapsed": 31695, "internal_node_id": "0.0-4.0"}}, {"uniqueid": "MTK0192:3YHH42UU5CMHD0AYYRLNUFCT16H0L9", "current_trial": 5, "dateTime": 1509481044226, "trialdata": {"rt": 2264, "key_press": 32, "type": "INSTRUCTIONS", "trial_type": "text", "trial_index": 5, "time_elapsed": 34729, "internal_node_id": "0.0-5.0"}}, {"uniqueid": "MTK0192:3YHH42UU5CMHD0AYYRLNUFCT16H0L9", "current_trial": 6, "dateTime": 1509481065610, "trialdata": {"rt": 21384, "key_press": 32, "type": "INSTRUCTIONS", "trial_type": "text", "trial_index": 6, "time_elapsed": 56113, "internal_node_id": "0.0-6.0"}}, {"uniqueid": "MTK0192:3YHH42UU5CMHD0AYYRLNUFCT16H0L9", "current_trial": 7, "dateTime": 1509481074849, "trialdata": {"rt": 9238, "key_press": 32, "type": "INSTRUCTIONS", "trial_type": "text", "trial_index": 7, "time_elapsed": 65352, "internal_node_id": "0.0-7.0"}}, {"uniqueid": "MTK0192:3YHH42UU5CMHD0AYYRLNUFCT16H0L9", "current_trial": 8, "dateTime": 1509481081250, "trialdata": {"rt": 6400, "key_press": 32, "type": "INSTRUCTIONS", "trial_type": "text", "trial_index": 8, "time_elapsed": 71753, "internal_node_id": "0.0-8.0"}}, {"uniqueid": "MTK0192:3YHH42UU5CMHD0AYYRLNUFCT16H0L9", "current_trial": 9, "dateTime": 1509481100259, "trialdata": {"rt": [1773, 4253, 6541, 8932, 11532, 14100, 15484, 17476], "responses": ["8", "19", "19", "10", "18", "9", "11", "16"], "num1": [2, 9, 7, 1, 7, 3, 4, 8, 8], "num2": [1, 9, 8, 3, 9, 5, 6, 1, 6], "num3": [5, 1, 4, 6, 2, 1, 1, 7, 7], "type": "DISTRACTOR", "conditions": [18, 1200, "v", 18000], "trial": 0, "trial_type": "math-distractor", "trial_index": 9, "time_elapsed": 90762, "internal_node_id": "0.0-9.0"}}, {"uniqueid": "MTK0192:3YHH42UU5CMHD0AYYRLNUFCT16H0L9", "current_trial": 10, "dateTime": 1509481103263, "trialdata": {"rt": -1, "stimulus": "<p id=\"stim\">10</p>", "key_press": -1, "trial_type": "single-stim", "trial_index": 10, "time_elapsed": 93766, "internal_node_id": "0.0-10.0-0.0"}}, {"uniqueid": "MTK0192:3YHH42UU5CMHD0AYYRLNUFCT16H0L9", "current_trial": 11, "dateTime": 1509481104264, "trialdata": {"rt": -1, "stimulus": "<p id=\"stim\">9</p>", "key_press": -1, "trial_type": "single-stim", "trial_index": 11, "time_elapsed": 94767, "internal_node_id": "0.0-10.0-1.0"}}, {"uniqueid": "MTK0192:3YHH42UU5CMHD0AYYRLNUFCT16H0L9", "current_trial": 12, "dateTime": 1509481105266, "trialdata": {"rt": -1, "stimulus": "<p id=\"stim\">8</p>", "key_press": -1, "trial_type": "single-stim", "trial_index": 12, "time_elapsed": 95769, "internal_node_id": "0.0-10.0-2.0"}}, {"uniqueid": "MTK0192:3YHH42UU5CMHD0AYYRLNUFCT16H0L9", "current_trial": 13, "dateTime": 1509481106268, "trialdata": {"rt": -1, "stimulus": "<p id=\"stim\">7</p>", "key_press": -1, "trial_type": "single-stim", "trial_index": 13, "time_elapsed": 96771, "internal_node_id": "0.0-10.0-3.0"}}, {"uniqueid": "MTK0192:3YHH42UU5CMHD0AYYRLNUFCT16H0L9", "current_trial": 14, "dateTime": 1509481107270, "trialdata": {"rt": -1, "stimulus": "<p id=\"stim\">6</p>", "key_press": -1, "trial_type": "single-stim", "trial_index": 14, "time_elapsed": 97773, "internal_node_id": "0.0-10.0-4.0"}}, {"uniqueid": "MTK0192:3YHH42UU5CMHD0AYYRLNUFCT16H0L9", "current_trial": 15, "dateTime": 1509481108273, "trialdata": {"rt": -1, "stimulus": "<p id=\"stim\">5</p>", "key_press": -1, "trial_type": "single-stim", "trial_index": 15, "time_elapsed": 98776, "internal_node_id": "0.0-10.0-5.0"}}, {"uniqueid": "MTK0192:3YHH42UU5CMHD0AYYRLNUFCT16H0L9", "current_trial": 16, "dateTime": 1509481109275, "trialdata": {"rt": -1, "stimulus": "<p id=\"stim\">4</p>", "key_press": -1, "trial_type": "single-stim", "trial_index": 16, "time_elapsed": 99778, "internal_node_id": "0.0-10.0-6.0"}}, {"uniqueid": "MTK0192:3YHH42UU5CMHD0AYYRLNUFCT16H0L9", "current_trial": 17, "dateTime": 1509481110276, "trialdata": {"rt": -1, "stimulus": "<p id=\"stim\">3</p>", "key_press": -1, "trial_type": "single-stim", "trial_index": 17, "time_elapsed": 100779, "internal_node_id": "0.0-10.0-7.0"}}, {"uniqueid": "MTK0192:3YHH42UU5CMHD0AYYRLNUFCT16H0L9", "current_trial": 18, "dateTime": 1509481111277, "trialdata": {"rt": -1, "stimulus": "<p id=\"stim\">2</p>", "key_press": -1, "trial_type": "single-stim", "trial_index": 18, "time_elapsed": 101780, "internal_node_id": "0.0-10.0-8.0"}}, {"uniqueid": "MTK0192:3YHH42UU5CMHD0AYYRLNUFCT16H0L9", "current_trial": 19, "dateTime": 1509481112277, "trialdata": {"rt": -1, "stimulus": "<p id=\"stim\">1</p>", "key_press": -1, "trial_type": "single-stim", "trial_index": 19, "time_elapsed": 102780, "internal_node_id": "0.0-10.0-9.0"}}, {"uniqueid": "MTK0192:3YHH42UU5CMHD0AYYRLNUFCT16H0L9", "current_trial": 20, "dateTime": 1509481113779, "trialdata": {"rt": -1, "stimulus": "<p id=\"stim\">+</p>", "key_press": -1, "type": "FIXATION", "trial_type": "single-stim", "trial_index": 20, "time_elapsed": 104282, "internal_node_id": "0.0-11.0-0.0"}}, {"uniqueid": "MTK0192:3YHH42UU5CMHD0AYYRLNUFCT16H0L9", "current_trial": 21, "dateTime": 1509481114981, "trialdata": {"rt": -1, "stimulus": "<p id=\"stim\">TRUCK</p>", "key_press": -1, "type": "PRES_VIS", "word": "truck", "wordID": 1511, "conditions": [18, 1200, "v", 18000], "trial": 0, "serialpos": 0, "trial_type": "single-stim", "trial_index": 21, "time_elapsed": 105484, "internal_node_id": "0.0-12.0"}}, {"uniqueid": "MTK0192:3YHH42UU5CMHD0AYYRLNUFCT16H0L9", "current_trial": 22, "dateTime": 1509481117185, "trialdata": {"rt": -1, "stimulus": "<p id=\"stim\">HORNET</p>", "key_press": -1, "type": "PRES_VIS", "word": "hornet", "wordID": 717, "conditions": [18, 1200, "v", 18000], "trial": 0, "serialpos": 1, "trial_type": "single-stim", "trial_index": 22, "time_elapsed": 107688, "internal_node_id": "0.0-13.0"}}, {"uniqueid": "MTK0192:3YHH42UU5CMHD0AYYRLNUFCT16H0L9", "current_trial": 23, "dateTime": 1509481119228, "trialdata": {"rt": -1, "stimulus": "<p id=\"stim\">TOASTER</p>", "key_press": -1, "type": "PRES_VIS", "word": "toaster", "wordID": 1471, "conditions": [18, 1200, "v", 18000], "trial": 0, "serialpos": 2, "trial_type": "single-stim", "trial_index": 23, "time_elapsed": 109731, "internal_node_id": "0.0-14.0"}}, {"uniqueid": "MTK0192:3YHH42UU5CMHD0AYYRLNUFCT16H0L9", "current_trial": 24, "dateTime": 1509481121588, "trialdata": {"rt": -1, "stimulus": "<p id=\"stim\">CRAYON</p>", "key_press": -1, "type": "PRES_VIS", "word": "crayon", "wordID": 400, "conditions": [18, 1200, "v", 18000], "trial": 0, "serialpos": 3, "trial_type": "single-stim", "trial_index": 24, "time_elapsed": 112091, "internal_node_id": "0.0-15.0"}}, {"uniqueid": "MTK0192:3YHH42UU5CMHD0AYYRLNUFCT16H0L9", "current_trial": 25, "dateTime": 1509481123810, "trialdata": {"rt": -1, "stimulus": "<p id=\"stim\">AUTHOR</p>", "key_press": -1, "type": "PRES_VIS", "word": "author", "wordID": 60, "conditions": [18, 1200, "v", 18000], "trial": 0, "serialpos": 4, "trial_type": "single-stim", "trial_index": 25, "time_elapsed": 114313, "internal_node_id": "0.0-16.0"}}, {"uniqueid": "MTK0192:3YHH42UU5CMHD0AYYRLNUFCT16H0L9", "current_trial": 26, "dateTime": 1509481125997, "trialdata": {"rt": -1, "stimulus": "<p id=\"stim\">ROBOT</p>", "key_press": -1, "type": "PRES_VIS", "word": "robot", "wordID": 1199, "conditions": [18, 1200, "v", 18000], "trial": 0, "serialpos": 5, "trial_type": "single-stim", "trial_index": 26, "time_elapsed": 116500, "internal_node_id": "0.0-17.0"}}, {"uniqueid": "MTK0192:3YHH42UU5CMHD0AYYRLNUFCT16H0L9", "current_trial": 27, "dateTime": 1509481128007, "trialdata": {"rt": -1, "stimulus": "<p id=\"stim\">TRANSPLANT</p>", "key_press": -1, "type": "PRES_VIS", "word": "transplant", "wordID": 1495, "conditions": [18, 1200, "v", 18000], "trial": 0, "serialpos": 6, "trial_type": "single-stim", "trial_index": 27, "time_elapsed": 118510, "internal_node_id": "0.0-18.0"}}, {"uniqueid": "MTK0192:3YHH42UU5CMHD0AYYRLNUFCT16H0L9", "current_trial": 28, "dateTime": 1509481130307, "trialdata": {"rt": -1, "stimulus": "<p id=\"stim\">SWAMP</p>", "key_press": -1, "type": "PRES_VIS", "word": "swamp", "wordID": 1415, "conditions": [18, 1200, "v", 18000], "trial": 0, "serialpos": 7, "trial_type": "single-stim", "trial_index": 28, "time_elapsed": 120810, "internal_node_id": "0.0-19.0"}}, {"uniqueid": "MTK0192:3YHH42UU5CMHD0AYYRLNUFCT16H0L9", "current_trial": 29, "dateTime": 1509481132358, "trialdata": {"rt": -1, "stimulus": "<p id=\"stim\">ANKLE</p>", "key_press": -1, "type": "PRES_VIS", "word": "ankle", "wordID": 23, "conditions": [18, 1200, "v", 18000], "trial": 0, "serialpos": 8, "trial_type": "single-stim", "trial_index": 29, "time_elapsed": 122861, "internal_node_id": "0.0-20.0"}}, {"uniqueid": "MTK0192:3YHH42UU5CMHD0AYYRLNUFCT16H0L9", "current_trial": 30, "dateTime": 1509481134417, "trialdata": {"rt": -1, "stimulus": "<p id=\"stim\">GARBAGE</p>", "key_press": -1, "type": "PRES_VIS", "word": "garbage", "wordID": 621, "conditions": [18, 1200, "v", 18000], "trial": 0, "serialpos": 9, "trial_type": "single-stim", "trial_index": 30, "time_elapsed": 124920, "internal_node_id": "0.0-21.0"}}, {"uniqueid": "MTK0192:3YHH42UU5CMHD0AYYRLNUFCT16H0L9", "current_trial": 31, "dateTime": 1509481136477, "trialdata": {"rt": -1, "stimulus": "<p id=\"stim\">STATUE</p>", "key_press": -1, "type": "PRES_VIS", "word": "statue", "wordID": 1373, "conditions": [18, 1200, "v", 18000], "trial": 0, "serialpos": 10, "trial_type": "single-stim", "trial_index": 31, "time_elapsed": 126980, "internal_node_id": "0.0-22.0"}}, {"uniqueid": "MTK0192:3YHH42UU5CMHD0AYYRLNUFCT16H0L9", "current_trial": 32, "dateTime": 1509481138718, "trialdata": {"rt": -1, "stimulus": "<p id=\"stim\">ROBBER</p>", "key_press": -1, "type": "PRES_VIS", "word": "robber", "wordID": 1196, "conditions": [18, 1200, "v", 18000], "trial": 0, "serialpos": 11, "trial_type": "single-stim", "trial_index": 32, "time_elapsed": 129221, "internal_node_id": "0.0-23.0"}}, {"uniqueid": "MTK0192:3YHH42UU5CMHD0AYYRLNUFCT16H0L9", "current_trial": 33, "dateTime": 1509481141057, "trialdata": {"rt": -1, "stimulus": "<p id=\"stim\">WAITRESS</p>", "key_press": -1, "type": "PRES_VIS", "word": "waitress", "wordID": 1580, "conditions": [18, 1200, "v", 18000], "trial": 0, "serialpos": 12, "trial_type": "single-stim", "trial_index": 33, "time_elapsed": 131560, "internal_node_id": "0.0-24.0"}}, {"uniqueid": "MTK0192:3YHH42UU5CMHD0AYYRLNUFCT16H0L9", "current_trial": 34, "dateTime": 1509481143403, "trialdata": {"rt": -1, "stimulus": "<p id=\"stim\">VELVET</p>", "key_press": -1, "type": "PRES_VIS", "word": "velvet", "wordID": 1554, "conditions": [18, 1200, "v", 18000], "trial": 0, "serialpos": 13, "trial_type": "single-stim", "trial_index": 34, "time_elapsed": 133906, "internal_node_id": "0.0-25.0"}}, {"uniqueid": "MTK0192:3YHH42UU5CMHD0AYYRLNUFCT16H0L9", "current_trial": 35, "dateTime": 1509481145649, "trialdata": {"rt": -1, "stimulus": "<p id=\"stim\">DRAGON</p>", "key_press": -1, "type": "PRES_VIS", "word": "dragon", "wordID": 491, "conditions": [18, 1200, "v", 18000], "trial": 0, "serialpos": 14, "trial_type": "single-stim", "trial_index": 35, "time_elapsed": 136152, "internal_node_id": "0.0-26.0"}}, {"uniqueid": "MTK0192:3YHH42UU5CMHD0AYYRLNUFCT16H0L9", "current_trial": 36, "dateTime": 1509481147951, "trialdata": {"rt": -1, "stimulus": "<p id=\"stim\">GLOVE</p>", "key_press": -1, "type": "PRES_VIS", "word": "glove", "wordID": 641, "conditions": [18, 1200, "v", 18000], "trial": 0, "serialpos": 15, "trial_type": "single-stim", "trial_index": 36, "time_elapsed": 138454, "internal_node_id": "0.0-27.0"}}, {"uniqueid": "MTK0192:3YHH42UU5CMHD0AYYRLNUFCT16H0L9", "current_trial": 37, "dateTime": 1509481150275, "trialdata": {"rt": -1, "stimulus": "<p id=\"stim\">DUST</p>", "key_press": -1, "type": "PRES_VIS", "word": "dust", "wordID": 507, "conditions": [18, 1200, "v", 18000], "trial": 0, "serialpos": 16, "trial_type": "single-stim", "trial_index": 37, "time_elapsed": 140778, "internal_node_id": "0.0-28.0"}}, {"uniqueid": "MTK0192:3YHH42UU5CMHD0AYYRLNUFCT16H0L9", "current_trial": 38, "dateTime": 1509481152333, "trialdata": {"rt": -1, "stimulus": "<p id=\"stim\">WORKER</p>", "key_press": -1, "type": "PRES_VIS", "word": "worker", "wordID": 1620, "conditions": [18, 1200, "v", 18000], "trial": 0, "serialpos": 17, "trial_type": "single-stim", "trial_index": 38, "time_elapsed": 142836, "internal_node_id": "0.0-29.0"}}, {"uniqueid": "MTK0192:3YHH42UU5CMHD0AYYRLNUFCT16H0L9", "current_trial": 39, "dateTime": 1509481154697, "trialdata": {"rt": -1, "stimulus": "", "key_press": -1, "type": "PRE_RECALL_DELAY", "trial_type": "single-stim", "trial_index": 39, "time_elapsed": 145200, "internal_node_id": "0.0-30.0-0.0"}}, {"uniqueid": "MTK0192:3YHH42UU5CMHD0AYYRLNUFCT16H0L9", "current_trial": 40, "dateTime": 1509481155201, "trialdata": {"rt": -1000, "stimulus": "/static/audio/400Hz.wav", "key_press": -1, "type": "PRE_RECALL_ALERT", "trial_type": "single-audio", "trial_index": 40, "time_elapsed": 145703, "internal_node_id": "0.0-31.0"}}, {"uniqueid": "MTK0192:3YHH42UU5CMHD0AYYRLNUFCT16H0L9", "current_trial": 41, "dateTime": 1509481215209, "trialdata": {"rt": [3021, 4580, 6372, 9405, 25397, 37804], "recwords": ["truck", "toaster", "glove", "waitress", "", "dust"], "type": "FREE_RECALL", "conditions": [18, 1200, "v", 18000], "trial": 0, "trial_type": "free-recall", "trial_index": 41, "time_elapsed": 205708, "internal_node_id": "0.0-32.0-0.0"}}, {"uniqueid": "MTK0192:3YHH42UU5CMHD0AYYRLNUFCT16H0L9", "current_trial": 42, "dateTime": 1509481218225, "trialdata": {"rt": 1014, "key_press": 32, "type": "INSTRUCTIONS", "trial_type": "text", "trial_index": 42, "time_elapsed": 208728, "internal_node_id": "0.0-33.0"}}, {"uniqueid": "MTK0192:3YHH42UU5CMHD0AYYRLNUFCT16H0L9", "current_trial": 43, "dateTime": 1509481238230, "trialdata": {"rt": [3148, 5675, 7579, 11398, 14819, 16371], "responses": ["11", "13", "19", "20", "16", "6"], "num1": [3, 2, 9, 5, 4, 1, 7], "num2": [1, 7, 4, 6, 5, 4, 4], "num3": [7, 4, 6, 9, 7, 1, 9], "type": "DISTRACTOR", "conditions": [18, 1200, "a", 18000], "trial": 1, "trial_type": "math-distractor", "trial_index": 43, "time_elapsed": 228732, "internal_node_id": "0.0-34.0"}}, {"uniqueid": "MTK0192:3YHH42UU5CMHD0AYYRLNUFCT16H0L9", "current_trial": 44, "dateTime": 1509481241232, "trialdata": {"rt": -1, "stimulus": "<p id=\"stim\">10</p>", "key_press": -1, "trial_type": "single-stim", "trial_index": 44, "time_elapsed": 231735, "internal_node_id": "0.0-35.0-0.0"}}, {"uniqueid": "MTK0192:3YHH42UU5CMHD0AYYRLNUFCT16H0L9", "current_trial": 45, "dateTime": 1509481242234, "trialdata": {"rt": -1, "stimulus": "<p id=\"stim\">9</p>", "key_press": -1, "trial_type": "single-stim", "trial_index": 45, "time_elapsed": 232737, "internal_node_id": "0.0-35.0-1.0"}}, {"uniqueid": "MTK0192:3YHH42UU5CMHD0AYYRLNUFCT16H0L9", "current_trial": 46, "dateTime": 1509481243235, "trialdata": {"rt": -1, "stimulus": "<p id=\"stim\">8</p>", "key_press": -1, "trial_type": "single-stim", "trial_index": 46, "time_elapsed": 233738, "internal_node_id": "0.0-35.0-2.0"}}, {"uniqueid": "MTK0192:3YHH42UU5CMHD0AYYRLNUFCT16H0L9", "current_trial": 47, "dateTime": 1509481244236, "trialdata": {"rt": -1, "stimulus": "<p id=\"stim\">7</p>", "key_press": -1, "trial_type": "single-stim", "trial_index": 47, "time_elapsed": 234739, "internal_node_id": "0.0-35.0-3.0"}}, {"uniqueid": "MTK0192:3YHH42UU5CMHD0AYYRLNUFCT16H0L9", "current_trial": 48, "dateTime": 1509481245238, "trialdata": {"rt": -1, "stimulus": "<p id=\"stim\">6</p>", "key_press": -1, "trial_type": "single-stim", "trial_index": 48, "time_elapsed": 235741, "internal_node_id": "0.0-35.0-4.0"}}, {"uniqueid": "MTK0192:3YHH42UU5CMHD0AYYRLNUFCT16H0L9", "current_trial": 49, "dateTime": 1509481246240, "trialdata": {"rt": -1, "stimulus": "<p id=\"stim\">5</p>", "key_press": -1, "trial_type": "single-stim", "trial_index": 49, "time_elapsed": 236743, "internal_node_id": "0.0-35.0-5.0"}}, {"uniqueid": "MTK0192:3YHH42UU5CMHD0AYYRLNUFCT16H0L9", "current_trial": 50, "dateTime": 1509481247241, "trialdata": {"rt": -1, "stimulus": "<p id=\"stim\">4</p>", "key_press": -1, "trial_type": "single-stim", "trial_index": 50, "time_elapsed": 237744, "internal_node_id": "0.0-35.0-6.0"}}, {"uniqueid": "MTK0192:3YHH42UU5CMHD0AYYRLNUFCT16H0L9", "current_trial": 51, "dateTime": 1509481248243, "trialdata": {"rt": -1, "stimulus": "<p id=\"stim\">3</p>", "key_press": -1, "trial_type": "single-stim", "trial_index": 51, "time_elapsed": 238746, "internal_node_id": "0.0-35.0-7.0"}}, {"uniqueid": "MTK0192:3YHH42UU5CMHD0AYYRLNUFCT16H0L9", "current_trial": 52, "dateTime": 1509481249243, "trialdata": {"rt": -1, "stimulus": "<p id=\"stim\">2</p>", "key_press": -1, "trial_type": "single-stim", "trial_index": 52, "time_elapsed": 239746, "internal_node_id": "0.0-35.0-8.0"}}, {"uniqueid": "MTK0192:3YHH42UU5CMHD0AYYRLNUFCT16H0L9", "current_trial": 53, "dateTime": 1509481250245, "trialdata": {"rt": -1, "stimulus": "<p id=\"stim\">1</p>", "key_press": -1, "trial_type": "single-stim", "trial_index": 53, "time_elapsed": 240748, "internal_node_id": "0.0-35.0-9.0"}}, {"uniqueid": "MTK0192:3YHH42UU5CMHD0AYYRLNUFCT16H0L9", "current_trial": 54, "dateTime": 1509481251747, "trialdata": {"rt": -1, "stimulus": "<p id=\"stim\">+</p>", "key_press": -1, "type": "FIXATION", "trial_type": "single-stim", "trial_index": 54, "time_elapsed": 242250, "internal_node_id": "0.0-36.0-0.0"}}, {"uniqueid": "MTK0192:3YHH42UU5CMHD0AYYRLNUFCT16H0L9", "current_trial": 55, "dateTime": 1509481254121, "trialdata": {"rt": -1000, "stimulus": "/static/audio/wordpool/SUNSET.wav", "key_press": -1, "type": "PRES_AUD", "word": "sunset", "wordID": 1407, "conditions": [18, 1200, "a", 18000], "trial": 1, "serialpos": 0, "trial_type": "single-audio", "trial_index": 55, "time_elapsed": 244623, "internal_node_id": "0.0-37.0"}}, {"uniqueid": "MTK0192:3YHH42UU5CMHD0AYYRLNUFCT16H0L9", "current_trial": 56, "dateTime": 1509481256395, "trialdata": {"rt": -1000, "stimulus": "/static/audio/wordpool/COSTUME.wav", "key_press": -1, "type": "PRES_AUD", "word": "costume", "wordID": 382, "conditions": [18, 1200, "a", 18000], "trial": 1, "serialpos": 1, "trial_type": "single-audio", "trial_index": 56, "time_elapsed": 246898, "internal_node_id": "0.0-38.0"}}, {"uniqueid": "MTK0192:3YHH42UU5CMHD0AYYRLNUFCT16H0L9", "current_trial": 57, "dateTime": 1509481258680, "trialdata": {"rt": -1000, "stimulus": "/static/audio/wordpool/ASIA.wav", "key_press": -1, "type": "PRES_AUD", "word": "asia", "wordID": 45, "conditions": [18, 1200, "a", 18000], "trial": 1, "serialpos": 2, "trial_type": "single-audio", "trial_index": 57, "time_elapsed": 249183, "internal_node_id": "0.0-39.0"}}, {"uniqueid": "MTK0192:3YHH42UU5CMHD0AYYRLNUFCT16H0L9", "current_trial": 58, "dateTime": 1509481261029, "trialdata": {"rt": -1000, "stimulus": "/static/audio/wordpool/SALMON.wav", "key_press": -1, "type": "PRES_AUD", "word": "salmon", "wordID": 1226, "conditions": [18, 1200, "a", 18000], "trial": 1, "serialpos": 3, "trial_type": "single-audio", "trial_index": 58, "time_elapsed": 251531, "internal_node_id": "0.0-40.0"}}, {"uniqueid": "MTK0192:3YHH42UU5CMHD0AYYRLNUFCT16H0L9", "current_trial": 59, "dateTime": 1509481263354, "trialdata": {"rt": -1000, "stimulus": "/static/audio/wordpool/SLUG.wav", "key_press": -1, "type": "PRES_AUD", "word": "slug", "wordID": 1328, "conditions": [18, 1200, "a", 18000], "trial": 1, "serialpos": 4, "trial_type": "single-audio", "trial_index": 59, "time_elapsed": 253857, "internal_node_id": "0.0-41.0"}}, {"uniqueid": "MTK0192:3YHH42UU5CMHD0AYYRLNUFCT16H0L9", "current_trial": 60, "dateTime": 1509481265634, "trialdata": {"rt": -1000, "stimulus": "/static/audio/wordpool/GUITAR.wav", "key_press": -1, "type": "PRES_AUD", "word": "guitar", "wordID": 669, "conditions": [18, 1200, "a", 18000], "trial": 1, "serialpos": 5, "trial_type": "single-audio", "trial_index": 60, "time_elapsed": 256137, "internal_node_id": "0.0-42.0"}}, {"uniqueid": "MTK0192:3YHH42UU5CMHD0AYYRLNUFCT16H0L9", "current_trial": 61, "dateTime": 1509481267658, "trialdata": {"rt": -1000, "stimulus": "/static/audio/wordpool/CARRIAGE.wav", "key_press": -1, "type": "PRES_AUD", "word": "carriage", "wordID": 247, "conditions": [18, 1200, "a", 18000], "trial": 1, "serialpos": 6, "trial_type": "single-audio", "trial_index": 61, "time_elapsed": 258161, "internal_node_id": "0.0-43.0"}}, {"uniqueid": "MTK0192:3YHH42UU5CMHD0AYYRLNUFCT16H0L9", "current_trial": 62, "dateTime": 1509481269999, "trialdata": {"rt": -1000, "stimulus": "/static/audio/wordpool/SCISSORS.wav", "key_press": -1, "type": "PRES_AUD", "word": "scissors", "wordID": 1249, "conditions": [18, 1200, "a", 18000], "trial": 1, "serialpos": 7, "trial_type": "single-audio", "trial_index": 62, "time_elapsed": 260502, "internal_node_id": "0.0-44.0"}}, {"uniqueid": "MTK0192:3YHH42UU5CMHD0AYYRLNUFCT16H0L9", "current_trial": 63, "dateTime": 1509481272259, "trialdata": {"rt": -1000, "stimulus": "/static/audio/wordpool/FEMALE.wav", "key_press": -1, "type": "PRES_AUD", "word": "female", "wordID": 558, "conditions": [18, 1200, "a", 18000], "trial": 1, "serialpos": 8, "trial_type": "single-audio", "trial_index": 63, "time_elapsed": 262762, "internal_node_id": "0.0-45.0"}}, {"uniqueid": "MTK0192:3YHH42UU5CMHD0AYYRLNUFCT16H0L9", "current_trial": 64, "dateTime": 1509481274346, "trialdata": {"rt": -1000, "stimulus": "/static/audio/wordpool/LOFT.wav", "key_press": -1, "type": "PRES_AUD", "word": "loft", "wordID": 839, "conditions": [18, 1200, "a", 18000], "trial": 1, "serialpos": 9, "trial_type": "single-audio", "trial_index": 64, "time_elapsed": 264849, "internal_node_id": "0.0-46.0"}}, {"uniqueid": "MTK0192:3YHH42UU5CMHD0AYYRLNUFCT16H0L9", "current_trial": 65, "dateTime": 1509481276704, "trialdata": {"rt": -1000, "stimulus": "/static/audio/wordpool/PADDLE.wav", "key_press": -1, "type": "PRES_AUD", "word": "paddle", "wordID": 999, "conditions": [18, 1200, "a", 18000], "trial": 1, "serialpos": 10, "trial_type": "single-audio", "trial_index": 65, "time_elapsed": 267206, "internal_node_id": "0.0-47.0"}}, {"uniqueid": "MTK0192:3YHH42UU5CMHD0AYYRLNUFCT16H0L9", "current_trial": 66, "dateTime": 1509481278803, "trialdata": {"rt": -1000, "stimulus": "/static/audio/wordpool/FOREHEAD.wav", "key_press": -1, "type": "PRES_AUD", "word": "forehead", "wordID": 591, "conditions": [18, 1200, "a", 18000], "trial": 1, "serialpos": 11, "trial_type": "single-audio", "trial_index": 66, "time_elapsed": 269306, "internal_node_id": "0.0-48.0"}}, {"uniqueid": "MTK0192:3YHH42UU5CMHD0AYYRLNUFCT16H0L9", "current_trial": 67, "dateTime": 1509481280942, "trialdata": {"rt": -1000, "stimulus": "/static/audio/wordpool/JURY.wav", "key_press": -1, "type": "PRES_AUD", "word": "jury", "wordID": 765, "conditions": [18, 1200, "a", 18000], "trial": 1, "serialpos": 12, "trial_type": "single-audio", "trial_index": 67, "time_elapsed": 271445, "internal_node_id": "0.0-49.0"}}, {"uniqueid": "MTK0192:3YHH42UU5CMHD0AYYRLNUFCT16H0L9", "current_trial": 68, "dateTime": 1509481283082, "trialdata": {"rt": -1000, "stimulus": "/static/audio/wordpool/POSTAGE.wav", "key_press": -1, "type": "PRES_AUD", "word": "postage", "wordID": 1112, "conditions": [18, 1200, "a", 18000], "trial": 1, "serialpos": 13, "trial_type": "single-audio", "trial_index": 68, "time_elapsed": 273584, "internal_node_id": "0.0-50.0"}}, {"uniqueid": "MTK0192:3YHH42UU5CMHD0AYYRLNUFCT16H0L9", "current_trial": 69, "dateTime": 1509481285241, "trialdata": {"rt": -1000, "stimulus": "/static/audio/wordpool/BARREL.wav", "key_press": -1, "type": "PRES_AUD", "word": "barrel", "wordID": 90, "conditions": [18, 1200, "a", 18000], "trial": 1, "serialpos": 14, "trial_type": "single-audio", "trial_index": 69, "time_elapsed": 275744, "internal_node_id": "0.0-51.0"}}, {"uniqueid": "MTK0192:3YHH42UU5CMHD0AYYRLNUFCT16H0L9", "current_trial": 70, "dateTime": 1509481287544, "trialdata": {"rt": -1000, "stimulus": "/static/audio/wordpool/COTTAGE.wav", "key_press": -1, "type": "PRES_AUD", "word": "cottage", "wordID": 383, "conditions": [18, 1200, "a", 18000], "trial": 1, "serialpos": 15, "trial_type": "single-audio", "trial_index": 70, "time_elapsed": 278047, "internal_node_id": "0.0-52.0"}}, {"uniqueid": "MTK0192:3YHH42UU5CMHD0AYYRLNUFCT16H0L9", "current_trial": 71, "dateTime": 1509481289871, "trialdata": {"rt": -1000, "stimulus": "/static/audio/wordpool/MILDEW.wav", "key_press": -1, "type": "PRES_AUD", "word": "mildew", "wordID": 892, "conditions": [18, 1200, "a", 18000], "trial": 1, "serialpos": 16, "trial_type": "single-audio", "trial_index": 71, "time_elapsed": 280373, "internal_node_id": "0.0-53.0"}}, {"uniqueid": "MTK0192:3YHH42UU5CMHD0AYYRLNUFCT16H0L9", "current_trial": 72, "dateTime": 1509481292201, "trialdata": {"rt": -1000, "stimulus": "/static/audio/wordpool/SUITCASE.wav", "key_press": -1, "type": "PRES_AUD", "word": "suitcase", "wordID": 1402, "conditions": [18, 1200, "a", 18000], "trial": 1, "serialpos": 17, "trial_type": "single-audio", "trial_index": 72, "time_elapsed": 282704, "internal_node_id": "0.0-54.0"}}, {"uniqueid": "MTK0192:3YHH42UU5CMHD0AYYRLNUFCT16H0L9", "current_trial": 73, "dateTime": 1509481293584, "trialdata": {"rt": -1, "stimulus": "", "key_press": -1, "type": "PRE_RECALL_DELAY", "trial_type": "single-stim", "trial_index": 73, "time_elapsed": 284087, "internal_node_id": "0.0-55.0-0.0"}}, {"uniqueid": "MTK0192:3YHH42UU5CMHD0AYYRLNUFCT16H0L9", "current_trial": 74, "dateTime": 1509481294085, "trialdata": {"rt": -1000, "stimulus": "/static/audio/400Hz.wav", "key_press": -1, "type": "PRE_RECALL_ALERT", "trial_type": "single-audio", "trial_index": 74, "time_elapsed": 284588, "internal_node_id": "0.0-56.0"}}, {"uniqueid": "MTK0192:3YHH42UU5CMHD0AYYRLNUFCT16H0L9", "current_trial": 75, "dateTime": 1509481354093, "trialdata": {"rt": [1839, 2935, 4272, 6719, 8759, 12783, 17135, 24065], "recwords": ["suitcase", "asia", "female", "mildew", "cottage", "postage", "guitar", "barre"], "type": "FREE_RECALL", "conditions": [18, 1200, "a", 18000], "trial": 1, "trial_type": "free-recall", "trial_index": 75, "time_elapsed": 344591, "internal_node_id": "0.0-57.0-0.0"}}, {"uniqueid": "MTK0192:3YHH42UU5CMHD0AYYRLNUFCT16H0L9", "current_trial": 76, "dateTime": 1509481368066, "trialdata": {"rt": 11972, "key_press": 32, "type": "INSTRUCTIONS", "trial_type": "text", "trial_index": 76, "time_elapsed": 358569, "internal_node_id": "0.0-58.0"}}, {"uniqueid": "MTK0192:3YHH42UU5CMHD0AYYRLNUFCT16H0L9", "current_trial": 77, "dateTime": 1509481393070, "trialdata": {"rt": [1550, 2515, 3715, 5819, 7275, 9355, 10771, 12723, 14491, 16891, 18396, 20315, 23411], "responses": ["11", "3", "13", "7", "16", "17", "15", "19", "18", "19", "15", "18", "13"], "num1": [6, 1, 3, 3, 7, 9, 5, 3, 9, 4, 3, 2, 8, 4], "num2": [1, 1, 7, 2, 7, 6, 1, 8, 8, 8, 7, 9, 4, 2], "num3": [4, 1, 3, 2, 2, 2, 9, 8, 1, 7, 5, 7, 1, 3], "type": "DISTRACTOR", "conditions": [12, 1600, "v", 24000], "trial": 2, "trial_type": "math-distractor", "trial_index": 77, "time_elapsed": 383572, "internal_node_id": "0.0-59.0"}}, {"uniqueid": "MTK0192:3YHH42UU5CMHD0AYYRLNUFCT16H0L9", "current_trial": 78, "dateTime": 1509481396072, "trialdata": {"rt": -1, "stimulus": "<p id=\"stim\">10</p>", "key_press": -1, "trial_type": "single-stim", "trial_index": 78, "time_elapsed": 386575, "internal_node_id": "0.0-60.0-0.0"}}, {"uniqueid": "MTK0192:3YHH42UU5CMHD0AYYRLNUFCT16H0L9", "current_trial": 79, "dateTime": 1509481397074, "trialdata": {"rt": -1, "stimulus": "<p id=\"stim\">9</p>", "key_press": -1, "trial_type": "single-stim", "trial_index": 79, "time_elapsed": 387577, "internal_node_id": "0.0-60.0-1.0"}}, {"uniqueid": "MTK0192:3YHH42UU5CMHD0AYYRLNUFCT16H0L9", "current_trial": 80, "dateTime": 1509481398076, "trialdata": {"rt": -1, "stimulus": "<p id=\"stim\">8</p>", "key_press": -1, "trial_type": "single-stim", "trial_index": 80, "time_elapsed": 388579, "internal_node_id": "0.0-60.0-2.0"}}, {"uniqueid": "MTK0192:3YHH42UU5CMHD0AYYRLNUFCT16H0L9", "current_trial": 81, "dateTime": 1509481399078, "trialdata": {"rt": -1, "stimulus": "<p id=\"stim\">7</p>", "key_press": -1, "trial_type": "single-stim", "trial_index": 81, "time_elapsed": 389581, "internal_node_id": "0.0-60.0-3.0"}}, {"uniqueid": "MTK0192:3YHH42UU5CMHD0AYYRLNUFCT16H0L9", "current_trial": 82, "dateTime": 1509481400080, "trialdata": {"rt": -1, "stimulus": "<p id=\"stim\">6</p>", "key_press": -1, "trial_type": "single-stim", "trial_index": 82, "time_elapsed": 390583, "internal_node_id": "0.0-60.0-4.0"}}, {"uniqueid": "MTK0192:3YHH42UU5CMHD0AYYRLNUFCT16H0L9", "current_trial": 83, "dateTime": 1509481401081, "trialdata": {"rt": -1, "stimulus": "<p id=\"stim\">5</p>", "key_press": -1, "trial_type": "single-stim", "trial_index": 83, "time_elapsed": 391584, "internal_node_id": "0.0-60.0-5.0"}}, {"uniqueid": "MTK0192:3YHH42UU5CMHD0AYYRLNUFCT16H0L9", "current_trial": 84, "dateTime": 1509481402082, "trialdata": {"rt": -1, "stimulus": "<p id=\"stim\">4</p>", "key_press": -1, "trial_type": "single-stim", "trial_index": 84, "time_elapsed": 392585, "internal_node_id": "0.0-60.0-6.0"}}, {"uniqueid": "MTK0192:3YHH42UU5CMHD0AYYRLNUFCT16H0L9", "current_trial": 85, "dateTime": 1509481403084, "trialdata": {"rt": -1, "stimulus": "<p id=\"stim\">3</p>", "key_press": -1, "trial_type": "single-stim", "trial_index": 85, "time_elapsed": 393587, "internal_node_id": "0.0-60.0-7.0"}}, {"uniqueid": "MTK0192:3YHH42UU5CMHD0AYYRLNUFCT16H0L9", "current_trial": 86, "dateTime": 1509481404086, "trialdata": {"rt": -1, "stimulus": "<p id=\"stim\">2</p>", "key_press": -1, "trial_type": "single-stim", "trial_index": 86, "time_elapsed": 394589, "internal_node_id": "0.0-60.0-8.0"}}, {"uniqueid": "MTK0192:3YHH42UU5CMHD0AYYRLNUFCT16H0L9", "current_trial": 87, "dateTime": 1509481405087, "trialdata": {"rt": -1, "stimulus": "<p id=\"stim\">1</p>", "key_press": -1, "trial_type": "single-stim", "trial_index": 87, "time_elapsed": 395590, "internal_node_id": "0.0-60.0-9.0"}}, {"uniqueid": "MTK0192:3YHH42UU5CMHD0AYYRLNUFCT16H0L9", "current_trial": 88, "dateTime": 1509481406622, "trialdata": {"rt": -1, "stimulus": "<p id=\"stim\">+</p>", "key_press": -1, "type": "FIXATION", "trial_type": "single-stim", "trial_index": 88, "time_elapsed": 397125, "internal_node_id": "0.0-61.0-0.0"}}, {"uniqueid": "MTK0192:3YHH42UU5CMHD0AYYRLNUFCT16H0L9", "current_trial": 89, "dateTime": 1509481408223, "trialdata": {"rt": -1, "stimulus": "<p id=\"stim\">GARLIC</p>", "key_press": -1, "type": "PRES_VIS", "word": "garlic", "wordID": 623, "conditions": [12, 1600, "v", 24000], "trial": 2, "serialpos": 0, "trial_type": "single-stim", "trial_index": 89, "time_elapsed": 398726, "internal_node_id": "0.0-62.0"}}, {"uniqueid": "MTK0192:3YHH42UU5CMHD0AYYRLNUFCT16H0L9", "current_trial": 90, "dateTime": 1509481410773, "trialdata": {"rt": -1, "stimulus": "<p id=\"stim\">SNACK</p>", "key_press": -1, "type": "PRES_VIS", "word": "snack", "wordID": 1330, "conditions": [12, 1600, "v", 24000], "trial": 2, "serialpos": 1, "trial_type": "single-stim", "trial_index": 90, "time_elapsed": 401276, "internal_node_id": "0.0-63.0"}}, {"uniqueid": "MTK0192:3YHH42UU5CMHD0AYYRLNUFCT16H0L9", "current_trial": 91, "dateTime": 1509481413447, "trialdata": {"rt": -1, "stimulus": "<p id=\"stim\">OX</p>", "key_press": -1, "type": "PRES_VIS", "word": "ox", "wordID": 993, "conditions": [12, 1600, "v", 24000], "trial": 2, "serialpos": 2, "trial_type": "single-stim", "trial_index": 91, "time_elapsed": 403950, "internal_node_id": "0.0-64.0"}}, {"uniqueid": "MTK0192:3YHH42UU5CMHD0AYYRLNUFCT16H0L9", "current_trial": 92, "dateTime": 1509481416062, "trialdata": {"rt": -1, "stimulus": "<p id=\"stim\">PALACE</p>", "key_press": -1, "type": "PRES_VIS", "word": "palace", "wordID": 1005, "conditions": [12, 1600, "v", 24000], "trial": 2, "serialpos": 3, "trial_type": "single-stim", "trial_index": 92, "time_elapsed": 406565, "internal_node_id": "0.0-65.0"}}, {"uniqueid": "MTK0192:3YHH42UU5CMHD0AYYRLNUFCT16H0L9", "current_trial": 93, "dateTime": 1509481418786, "trialdata": {"rt": -1, "stimulus": "<p id=\"stim\">ONION</p>", "key_press": -1, "type": "PRES_VIS", "word": "onion", "wordID": 976, "conditions": [12, 1600, "v", 24000], "trial": 2, "serialpos": 4, "trial_type": "single-stim", "trial_index": 93, "time_elapsed": 409289, "internal_node_id": "0.0-66.0"}}, {"uniqueid": "MTK0192:3YHH42UU5CMHD0AYYRLNUFCT16H0L9", "current_trial": 94, "dateTime": 1509481421358, "trialdata": {"rt": -1, "stimulus": "<p id=\"stim\">GLASS</p>", "key_press": -1, "type": "PRES_VIS", "word": "glass", "wordID": 638, "conditions": [12, 1600, "v", 24000], "trial": 2, "serialpos": 5, "trial_type": "single-stim", "trial_index": 94, "time_elapsed": 411861, "internal_node_id": "0.0-67.0"}}, {"uniqueid": "MTK0192:3YHH42UU5CMHD0AYYRLNUFCT16H0L9", "current_trial": 95, "dateTime": 1509481423815, "trialdata": {"rt": -1, "stimulus": "<p id=\"stim\">COBRA</p>", "key_press": -1, "type": "PRES_VIS", "word": "cobra", "wordID": 335, "conditions": [12, 1600, "v", 24000], "trial": 2, "serialpos": 6, "trial_type": "single-stim", "trial_index": 95, "time_elapsed": 414318, "internal_node_id": "0.0-68.0"}}, {"uniqueid": "MTK0192:3YHH42UU5CMHD0AYYRLNUFCT16H0L9", "current_trial": 96, "dateTime": 1509481426337, "trialdata": {"rt": -1, "stimulus": "<p id=\"stim\">RACKET</p>", "key_press": -1, "type": "PRES_VIS", "word": "racket", "wordID": 1154, "conditions": [12, 1600, "v", 24000], "trial": 2, "serialpos": 7, "trial_type": "single-stim", "trial_index": 96, "time_elapsed": 416840, "internal_node_id": "0.0-69.0"}}, {"uniqueid": "MTK0192:3YHH42UU5CMHD0AYYRLNUFCT16H0L9", "current_trial": 97, "dateTime": 1509481429031, "trialdata": {"rt": -1, "stimulus": "<p id=\"stim\">OYSTER</p>", "key_press": -1, "type": "PRES_VIS", "word": "oyster", "wordID": 994, "conditions": [12, 1600, "v", 24000], "trial": 2, "serialpos": 8, "trial_type": "single-stim", "trial_index": 97, "time_elapsed": 419534, "internal_node_id": "0.0-70.0"}}, {"uniqueid": "MTK0192:3YHH42UU5CMHD0AYYRLNUFCT16H0L9", "current_trial": 98, "dateTime": 1509481431715, "trialdata": {"rt": -1, "stimulus": "<p id=\"stim\">CRAB</p>", "key_press": -1, "type": "PRES_VIS", "word": "crab", "wordID": 396, "conditions": [12, 1600, "v", 24000], "trial": 2, "serialpos": 9, "trial_type": "single-stim", "trial_index": 98, "time_elapsed": 422218, "internal_node_id": "0.0-71.0"}}, {"uniqueid": "MTK0192:3YHH42UU5CMHD0AYYRLNUFCT16H0L9", "current_trial": 99, "dateTime": 1509481434500, "trialdata": {"rt": -1, "stimulus": "<p id=\"stim\">STONE</p>", "key_press": -1, "type": "PRES_VIS", "word": "stone", "wordID": 1384, "conditions": [12, 1600, "v", 24000], "trial": 2, "serialpos": 10, "trial_type": "single-stim", "trial_index": 99, "time_elapsed": 425003, "internal_node_id": "0.0-72.0"}}, {"uniqueid": "MTK0192:3YHH42UU5CMHD0AYYRLNUFCT16H0L9", "current_trial": 100, "dateTime": 1509481436905, "trialdata": {"rt": -1, "stimulus": "<p id=\"stim\">SHELTER</p>", "key_press": -1, "type": "PRES_VIS", "word": "shelter", "wordID": 1281, "conditions": [12, 1600, "v", 24000], "trial": 2, "serialpos": 11, "trial_type": "single-stim", "trial_index": 100, "time_elapsed": 427408, "internal_node_id": "0.0-73.0"}}, {"uniqueid": "MTK0192:3YHH42UU5CMHD0AYYRLNUFCT16H0L9", "current_trial": 101, "dateTime": 1509481439203, "trialdata": {"rt": -1, "stimulus": "", "key_press": -1, "type": "PRE_RECALL_DELAY", "trial_type": "single-stim", "trial_index": 101, "time_elapsed": 429706, "internal_node_id": "0.0-74.0-0.0"}}, {"uniqueid": "MTK0192:3YHH42UU5CMHD0AYYRLNUFCT16H0L9", "current_trial": 102, "dateTime": 1509481439706, "trialdata": {"rt": -1000, "stimulus": "/static/audio/400Hz.wav", "key_press": -1, "type": "PRE_RECALL_ALERT", "trial_type": "single-audio", "trial_index": 102, "time_elapsed": 430208, "internal_node_id": "0.0-75.0"}}, {"uniqueid": "MTK0192:3YHH42UU5CMHD0AYYRLNUFCT16H0L9", "current_trial": 103, "dateTime": 1509481499715, "trialdata": {"rt": [1804, 4508, 5484, 7724, 8972, 11970, 22172], "recwords": ["ox", "garlic", "she", "shelter", "onion", "snack", "crab"], "type": "FREE_RECALL", "conditions": [12, 1600, "v", 24000], "trial": 2, "trial_type": "free-recall", "trial_index": 103, "time_elapsed": 490213, "internal_node_id": "0.0-76.0-0.0"}}, {"uniqueid": "MTK0192:3YHH42UU5CMHD0AYYRLNUFCT16H0L9", "current_trial": 104, "dateTime": 1509481503171, "trialdata": {"rt": 1454, "key_press": 66, "type": "INSTRUCTIONS", "trial_type": "text", "trial_index": 104, "time_elapsed": 493674, "internal_node_id": "0.0-77.0"}}, {"uniqueid": "MTK0192:3YHH42UU5CMHD0AYYRLNUFCT16H0L9", "current_trial": 105, "dateTime": 1509481517173, "trialdata": {"rt": [2092, 4076, 5995, 8003, 9619, 11523], "responses": ["19", "24", "23", "19", "9", "19"], "num1": [9, 9, 7, 8, 1, 5, 7], "num2": [2, 6, 7, 6, 5, 7, 9], "num3": [8, 9, 9, 5, 3, 7, 2], "type": "DISTRACTOR", "conditions": [24, 1600, "a", 12000], "trial": 3, "trial_type": "math-distractor", "trial_index": 105, "time_elapsed": 507676, "internal_node_id": "0.0-78.0"}}, {"uniqueid": "MTK0192:3YHH42UU5CMHD0AYYRLNUFCT16H0L9", "current_trial": 106, "dateTime": 1509481520176, "trialdata": {"rt": -1, "stimulus": "<p id=\"stim\">10</p>", "key_press": -1, "trial_type": "single-stim", "trial_index": 106, "time_elapsed": 510679, "internal_node_id": "0.0-79.0-0.0"}}, {"uniqueid": "MTK0192:3YHH42UU5CMHD0AYYRLNUFCT16H0L9", "current_trial": 107, "dateTime": 1509481521177, "trialdata": {"rt": -1, "stimulus": "<p id=\"stim\">9</p>", "key_press": -1, "trial_type": "single-stim", "trial_index": 107, "time_elapsed": 511680, "internal_node_id": "0.0-79.0-1.0"}}, {"uniqueid": "MTK0192:3YHH42UU5CMHD0AYYRLNUFCT16H0L9", "current_trial": 108, "dateTime": 1509481522178, "trialdata": {"rt": -1, "stimulus": "<p id=\"stim\">8</p>", "key_press": -1, "trial_type": "single-stim", "trial_index": 108, "time_elapsed": 512681, "internal_node_id": "0.0-79.0-2.0"}}, {"uniqueid": "MTK0192:3YHH42UU5CMHD0AYYRLNUFCT16H0L9", "current_trial": 109, "dateTime": 1509481523179, "trialdata": {"rt": -1, "stimulus": "<p id=\"stim\">7</p>", "key_press": -1, "trial_type": "single-stim", "trial_index": 109, "time_elapsed": 513682, "internal_node_id": "0.0-79.0-3.0"}}, {"uniqueid": "MTK0192:3YHH42UU5CMHD0AYYRLNUFCT16H0L9", "current_trial": 110, "dateTime": 1509481524181, "trialdata": {"rt": -1, "stimulus": "<p id=\"stim\">6</p>", "key_press": -1, "trial_type": "single-stim", "trial_index": 110, "time_elapsed": 514684, "internal_node_id": "0.0-79.0-4.0"}}, {"uniqueid": "MTK0192:3YHH42UU5CMHD0AYYRLNUFCT16H0L9", "current_trial": 111, "dateTime": 1509481525183, "trialdata": {"rt": -1, "stimulus": "<p id=\"stim\">5</p>", "key_press": -1, "trial_type": "single-stim", "trial_index": 111, "time_elapsed": 515686, "internal_node_id": "0.0-79.0-5.0"}}, {"uniqueid": "MTK0192:3YHH42UU5CMHD0AYYRLNUFCT16H0L9", "current_trial": 112, "dateTime": 1509481526184, "trialdata": {"rt": -1, "stimulus": "<p id=\"stim\">4</p>", "key_press": -1, "trial_type": "single-stim", "trial_index": 112, "time_elapsed": 516687, "internal_node_id": "0.0-79.0-6.0"}}, {"uniqueid": "MTK0192:3YHH42UU5CMHD0AYYRLNUFCT16H0L9", "current_trial": 113, "dateTime": 1509481527185, "trialdata": {"rt": -1, "stimulus": "<p id=\"stim\">3</p>", "key_press": -1, "trial_type": "single-stim", "trial_index": 113, "time_elapsed": 517688, "internal_node_id": "0.0-79.0-7.0"}}, {"uniqueid": "MTK0192:3YHH42UU5CMHD0AYYRLNUFCT16H0L9", "current_trial": 114, "dateTime": 1509481528186, "trialdata": {"rt": -1, "stimulus": "<p id=\"stim\">2</p>", "key_press": -1, "trial_type": "single-stim", "trial_index": 114, "time_elapsed": 518689, "internal_node_id": "0.0-79.0-8.0"}}, {"uniqueid": "MTK0192:3YHH42UU5CMHD0AYYRLNUFCT16H0L9", "current_trial": 115, "dateTime": 1509481529187, "trialdata": {"rt": -1, "stimulus": "<p id=\"stim\">1</p>", "key_press": -1, "trial_type": "single-stim", "trial_index": 115, "time_elapsed": 519690, "internal_node_id": "0.0-79.0-9.0"}}, {"uniqueid": "MTK0192:3YHH42UU5CMHD0AYYRLNUFCT16H0L9", "current_trial": 116, "dateTime": 1509481530688, "trialdata": {"rt": -1, "stimulus": "<p id=\"stim\">+</p>", "key_press": -1, "type": "FIXATION", "trial_type": "single-stim", "trial_index": 116, "time_elapsed": 521191, "internal_node_id": "0.0-80.0-0.0"}}, {"uniqueid": "MTK0192:3YHH42UU5CMHD0AYYRLNUFCT16H0L9", "current_trial": 117, "dateTime": 1509481533301, "trialdata": {"rt": -1000, "stimulus": "/static/audio/wordpool/FUNGUS.wav", "key_press": -1, "type": "PRES_AUD", "word": "fungus", "wordID": 613, "conditions": [24, 1600, "a", 12000], "trial": 3, "serialpos": 0, "trial_type": "single-audio", "trial_index": 117, "time_elapsed": 523804, "internal_node_id": "0.0-81.0"}}, {"uniqueid": "MTK0192:3YHH42UU5CMHD0AYYRLNUFCT16H0L9", "current_trial": 118, "dateTime": 1509481536020, "trialdata": {"rt": -1000, "stimulus": "/static/audio/wordpool/SPOUSE.wav", "key_press": -1, "type": "PRES_AUD", "word": "spouse", "wordID": 1357, "conditions": [24, 1600, "a", 12000], "trial": 3, "serialpos": 1, "trial_type": "single-audio", "trial_index": 118, "time_elapsed": 526522, "internal_node_id": "0.0-82.0"}}, {"uniqueid": "MTK0192:3YHH42UU5CMHD0AYYRLNUFCT16H0L9", "current_trial": 119, "dateTime": 1509481538437, "trialdata": {"rt": -1000, "stimulus": "/static/audio/wordpool/HUSBAND.wav", "key_press": -1, "type": "PRES_AUD", "word": "husband", "wordID": 727, "conditions": [24, 1600, "a", 12000], "trial": 3, "serialpos": 2, "trial_type": "single-audio", "trial_index": 119, "time_elapsed": 528940, "internal_node_id": "0.0-83.0"}}, {"uniqueid": "MTK0192:3YHH42UU5CMHD0AYYRLNUFCT16H0L9", "current_trial": 120, "dateTime": 1509481540840, "trialdata": {"rt": -1000, "stimulus": "/static/audio/wordpool/LAGOON.wav", "key_press": -1, "type": "PRES_AUD", "word": "lagoon", "wordID": 794, "conditions": [24, 1600, "a", 12000], "trial": 3, "serialpos": 3, "trial_type": "single-audio", "trial_index": 120, "time_elapsed": 531342, "internal_node_id": "0.0-84.0"}}, {"uniqueid": "MTK0192:3YHH42UU5CMHD0AYYRLNUFCT16H0L9", "current_trial": 121, "dateTime": 1509481543633, "trialdata": {"rt": -1000, "stimulus": "/static/audio/wordpool/CUPBOARD.wav", "key_press": -1, "type": "PRES_AUD", "word": "cupboard", "wordID": 424, "conditions": [24, 1600, "a", 12000], "trial": 3, "serialpos": 4, "trial_type": "single-audio", "trial_index": 121, "time_elapsed": 534136, "internal_node_id": "0.0-85.0"}}, {"uniqueid": "MTK0192:3YHH42UU5CMHD0AYYRLNUFCT16H0L9", "current_trial": 122, "dateTime": 1509481546380, "trialdata": {"rt": -1000, "stimulus": "/static/audio/wordpool/JOURNAL.wav", "key_press": -1, "type": "PRES_AUD", "word": "journal", "wordID": 759, "conditions": [24, 1600, "a", 12000], "trial": 3, "serialpos": 5, "trial_type": "single-audio", "trial_index": 122, "time_elapsed": 536883, "internal_node_id": "0.0-86.0"}}, {"uniqueid": "MTK0192:3YHH42UU5CMHD0AYYRLNUFCT16H0L9", "current_trial": 123, "dateTime": 1509481548892, "trialdata": {"rt": -1000, "stimulus": "/static/audio/wordpool/BREAST.wav", "key_press": -1, "type": "PRES_AUD", "word": "breast", "wordID": 170, "conditions": [24, 1600, "a", 12000], "trial": 3, "serialpos": 6, "trial_type": "single-audio", "trial_index": 123, "time_elapsed": 539395, "internal_node_id": "0.0-87.0"}}, {"uniqueid": "MTK0192:3YHH42UU5CMHD0AYYRLNUFCT16H0L9", "current_trial": 124, "dateTime": 1509481551417, "trialdata": {"rt": -1000, "stimulus": "/static/audio/wordpool/VENUS.wav", "key_press": -1, "type": "PRES_AUD", "word": "venus", "wordID": 1556, "conditions": [24, 1600, "a", 12000], "trial": 3, "serialpos": 7, "trial_type": "single-audio", "trial_index": 124, "time_elapsed": 541919, "internal_node_id": "0.0-88.0"}}, {"uniqueid": "MTK0192:3YHH42UU5CMHD0AYYRLNUFCT16H0L9", "current_trial": 125, "dateTime": 1509481554138, "trialdata": {"rt": -1000, "stimulus": "/static/audio/wordpool/LAKE.wav", "key_press": -1, "type": "PRES_AUD", "word": "lake", "wordID": 795, "conditions": [24, 1600, "a", 12000], "trial": 3, "serialpos": 8, "trial_type": "single-audio", "trial_index": 125, "time_elapsed": 544640, "internal_node_id": "0.0-89.0"}}, {"uniqueid": "MTK0192:3YHH42UU5CMHD0AYYRLNUFCT16H0L9", "current_trial": 126, "dateTime": 1509481556744, "trialdata": {"rt": -1000, "stimulus": "/static/audio/wordpool/NOTEBOOK.wav", "key_press": -1, "type": "PRES_AUD", "word": "notebook", "wordID": 958, "conditions": [24, 1600, "a", 12000], "trial": 3, "serialpos": 9, "trial_type": "single-audio", "trial_index": 126, "time_elapsed": 547246, "internal_node_id": "0.0-90.0"}}, {"uniqueid": "MTK0192:3YHH42UU5CMHD0AYYRLNUFCT16H0L9", "current_trial": 127, "dateTime": 1509481559253, "trialdata": {"rt": -1000, "stimulus": "/static/audio/wordpool/CHAPEL.wav", "key_press": -1, "type": "PRES_AUD", "word": "chapel", "wordID": 279, "conditions": [24, 1600, "a", 12000], "trial": 3, "serialpos": 10, "trial_type": "single-audio", "trial_index": 127, "time_elapsed": 549756, "internal_node_id": "0.0-91.0"}}, {"uniqueid": "MTK0192:3YHH42UU5CMHD0AYYRLNUFCT16H0L9", "current_trial": 128, "dateTime": 1509481562019, "trialdata": {"rt": -1000, "stimulus": "/static/audio/wordpool/GIFT.wav", "key_press": -1, "type": "PRES_AUD", "word": "gift", "wordID": 634, "conditions": [24, 1600, "a", 12000], "trial": 3, "serialpos": 11, "trial_type": "single-audio", "trial_index": 128, "time_elapsed": 552522, "internal_node_id": "0.0-92.0"}}, {"uniqueid": "MTK0192:3YHH42UU5CMHD0AYYRLNUFCT16H0L9", "current_trial": 129, "dateTime": 1509481564602, "trialdata": {"rt": -1000, "stimulus": "/static/audio/wordpool/BEAVER.wav", "key_press": -1, "type": "PRES_AUD", "word": "beaver", "wordID": 108, "conditions": [24, 1600, "a", 12000], "trial": 3, "serialpos": 12, "trial_type": "single-audio", "trial_index": 129, "time_elapsed": 555105, "internal_node_id": "0.0-93.0"}}, {"uniqueid": "MTK0192:3YHH42UU5CMHD0AYYRLNUFCT16H0L9", "current_trial": 130, "dateTime": 1509481567364, "trialdata": {"rt": -1000, "stimulus": "/static/audio/wordpool/LUNCH.wav", "key_press": -1, "type": "PRES_AUD", "word": "lunch", "wordID": 848, "conditions": [24, 1600, "a", 12000], "trial": 3, "serialpos": 13, "trial_type": "single-audio", "trial_index": 130, "time_elapsed": 557867, "internal_node_id": "0.0-94.0"}}, {"uniqueid": "MTK0192:3YHH42UU5CMHD0AYYRLNUFCT16H0L9", "current_trial": 131, "dateTime": 1509481570126, "trialdata": {"rt": -1000, "stimulus": "/static/audio/wordpool/MILK.wav", "key_press": -1, "type": "PRES_AUD", "word": "milk", "wordID": 894, "conditions": [24, 1600, "a", 12000], "trial": 3, "serialpos": 14, "trial_type": "single-audio", "trial_index": 131, "time_elapsed": 560629, "internal_node_id": "0.0-95.0"}}, {"uniqueid": "MTK0192:3YHH42UU5CMHD0AYYRLNUFCT16H0L9", "current_trial": 132, "dateTime": 1509481572797, "trialdata": {"rt": -1000, "stimulus": "/static/audio/wordpool/SODA.wav", "key_press": -1, "type": "PRES_AUD", "word": "soda", "wordID": 1340, "conditions": [24, 1600, "a", 12000], "trial": 3, "serialpos": 15, "trial_type": "single-audio", "trial_index": 132, "time_elapsed": 563300, "internal_node_id": "0.0-96.0"}}, {"uniqueid": "MTK0192:3YHH42UU5CMHD0AYYRLNUFCT16H0L9", "current_trial": 133, "dateTime": 1509481575483, "trialdata": {"rt": -1000, "stimulus": "/static/audio/wordpool/CANYON.wav", "key_press": -1, "type": "PRES_AUD", "word": "canyon", "wordID": 234, "conditions": [24, 1600, "a", 12000], "trial": 3, "serialpos": 16, "trial_type": "single-audio", "trial_index": 133, "time_elapsed": 565985, "internal_node_id": "0.0-97.0"}}, {"uniqueid": "MTK0192:3YHH42UU5CMHD0AYYRLNUFCT16H0L9", "current_trial": 134, "dateTime": 1509481578059, "trialdata": {"rt": -1000, "stimulus": "/static/audio/wordpool/VALLEY.wav", "key_press": -1, "type": "PRES_AUD", "word": "valley", "wordID": 1544, "conditions": [24, 1600, "a", 12000], "trial": 3, "serialpos": 17, "trial_type": "single-audio", "trial_index": 134, "time_elapsed": 568562, "internal_node_id": "0.0-98.0"}}, {"uniqueid": "MTK0192:3YHH42UU5CMHD0AYYRLNUFCT16H0L9", "current_trial": 135, "dateTime": 1509481580719, "trialdata": {"rt": -1000, "stimulus": "/static/audio/wordpool/HOSTESS.wav", "key_press": -1, "type": "PRES_AUD", "word": "hostess", "wordID": 722, "conditions": [24, 1600, "a", 12000], "trial": 3, "serialpos": 18, "trial_type": "single-audio", "trial_index": 135, "time_elapsed": 571221, "internal_node_id": "0.0-99.0"}}, {"uniqueid": "MTK0192:3YHH42UU5CMHD0AYYRLNUFCT16H0L9", "current_trial": 136, "dateTime": 1509481583401, "trialdata": {"rt": -1000, "stimulus": "/static/audio/wordpool/DRINK.wav", "key_press": -1, "type": "PRES_AUD", "word": "drink", "wordID": 497, "conditions": [24, 1600, "a", 12000], "trial": 3, "serialpos": 19, "trial_type": "single-audio", "trial_index": 136, "time_elapsed": 573903, "internal_node_id": "0.0-100.0"}}, {"uniqueid": "MTK0192:3YHH42UU5CMHD0AYYRLNUFCT16H0L9", "current_trial": 137, "dateTime": 1509481586121, "trialdata": {"rt": -1000, "stimulus": "/static/audio/wordpool/SHARK.wav", "key_press": -1, "type": "PRES_AUD", "word": "shark", "wordID": 1274, "conditions": [24, 1600, "a", 12000], "trial": 3, "serialpos": 20, "trial_type": "single-audio", "trial_index": 137, "time_elapsed": 576623, "internal_node_id": "0.0-101.0"}}, {"uniqueid": "MTK0192:3YHH42UU5CMHD0AYYRLNUFCT16H0L9", "current_trial": 138, "dateTime": 1509481588855, "trialdata": {"rt": -1000, "stimulus": "/static/audio/wordpool/SUBWAY.wav", "key_press": -1, "type": "PRES_AUD", "word": "subway", "wordID": 1399, "conditions": [24, 1600, "a", 12000], "trial": 3, "serialpos": 21, "trial_type": "single-audio", "trial_index": 138, "time_elapsed": 579357, "internal_node_id": "0.0-102.0"}}, {"uniqueid": "MTK0192:3YHH42UU5CMHD0AYYRLNUFCT16H0L9", "current_trial": 139, "dateTime": 1509481591464, "trialdata": {"rt": -1000, "stimulus": "/static/audio/wordpool/COCKTAIL.wav", "key_press": -1, "type": "PRES_AUD", "word": "cocktail", "wordID": 337, "conditions": [24, 1600, "a", 12000], "trial": 3, "serialpos": 22, "trial_type": "single-audio", "trial_index": 139, "time_elapsed": 581967, "internal_node_id": "0.0-103.0"}}, {"uniqueid": "MTK0192:3YHH42UU5CMHD0AYYRLNUFCT16H0L9", "current_trial": 140, "dateTime": 1509481594104, "trialdata": {"rt": -1000, "stimulus": "/static/audio/wordpool/PIZZA.wav", "key_press": -1, "type": "PRES_AUD", "word": "pizza", "wordID": 1078, "conditions": [24, 1600, "a", 12000], "trial": 3, "serialpos": 23, "trial_type": "single-audio", "trial_index": 140, "time_elapsed": 584606, "internal_node_id": "0.0-104.0"}}, {"uniqueid": "MTK0192:3YHH42UU5CMHD0AYYRLNUFCT16H0L9", "current_trial": 141, "dateTime": 1509481595316, "trialdata": {"rt": -1, "stimulus": "", "key_press": -1, "type": "PRE_RECALL_DELAY", "trial_type": "single-stim", "trial_index": 141, "time_elapsed": 585819, "internal_node_id": "0.0-105.0-0.0"}}, {"uniqueid": "MTK0192:3YHH42UU5CMHD0AYYRLNUFCT16H0L9", "current_trial": 142, "dateTime": 1509481595817, "trialdata": {"rt": -1000, "stimulus": "/static/audio/400Hz.wav", "key_press": -1, "type": "PRE_RECALL_ALERT", "trial_type": "single-audio", "trial_index": 142, "time_elapsed": 586320, "internal_node_id": "0.0-106.0"}}, {"uniqueid": "MTK0192:3YHH42UU5CMHD0AYYRLNUFCT16H0L9", "current_trial": 143, "dateTime": 1509481655824, "trialdata": {"rt": [1334, 2510, 4454, 6494, 8350, 9886, 11254, 12678, 14374, 18446, 20326, 32958], "recwords": ["pizza", "lunch", "cocktail", "subway", "drink", "soda", "milk", "breast", "venus", "husband", "spouse", "hostess"], "type": "FREE_RECALL", "conditions": [24, 1600, "a", 12000], "trial": 3, "trial_type": "free-recall", "trial_index": 143, "time_elapsed": 646321, "internal_node_id": "0.0-107.0-0.0"}}, {"uniqueid": "MTK0192:3YHH42UU5CMHD0AYYRLNUFCT16H0L9", "current_trial": 144, "dateTime": 1509481658986, "trialdata": {"rt": 1159, "key_press": 32, "type": "INSTRUCTIONS", "trial_type": "text", "trial_index": 144, "time_elapsed": 649488, "internal_node_id": "0.0-108.0"}}, {"uniqueid": "MTK0192:3YHH42UU5CMHD0AYYRLNUFCT16H0L9", "current_trial": 145, "dateTime": 1509481684990, "trialdata": {"rt": [1298, 3418, 4963, 6762, 9083, 10850, 12363, 14018, 15875, 17523, 20146, 22338], "responses": ["14", "16", "8", "18", "18", "8", "9", "21", "10", "19", "9", "18"], "num1": [4, 5, 1, 8, 1, 3, 1, 9, 3, 3, 4, 9, 9], "num2": [6, 4, 4, 5, 8, 1, 6, 9, 5, 7, 2, 6, 2], "num3": [4, 7, 3, 5, 9, 4, 2, 3, 2, 9, 3, 3, 2], "type": "DISTRACTOR", "conditions": [24, 800, "v", 24000], "trial": 4, "trial_type": "math-distractor", "trial_index": 145, "time_elapsed": 675493, "internal_node_id": "0.0-109.0"}}, {"uniqueid": "MTK0192:3YHH42UU5CMHD0AYYRLNUFCT16H0L9", "current_trial": 146, "dateTime": 1509481687993, "trialdata": {"rt": -1, "stimulus": "<p id=\"stim\">10</p>", "key_press": -1, "trial_type": "single-stim", "trial_index": 146, "time_elapsed": 678496, "internal_node_id": "0.0-110.0-0.0"}}, {"uniqueid": "MTK0192:3YHH42UU5CMHD0AYYRLNUFCT16H0L9", "current_trial": 147, "dateTime": 1509481688995, "trialdata": {"rt": -1, "stimulus": "<p id=\"stim\">9</p>", "key_press": -1, "trial_type": "single-stim", "trial_index": 147, "time_elapsed": 679498, "internal_node_id": "0.0-110.0-1.0"}}, {"uniqueid": "MTK0192:3YHH42UU5CMHD0AYYRLNUFCT16H0L9", "current_trial": 148, "dateTime": 1509481689997, "trialdata": {"rt": -1, "stimulus": "<p id=\"stim\">8</p>", "key_press": -1, "trial_type": "single-stim", "trial_index": 148, "time_elapsed": 680500, "internal_node_id": "0.0-110.0-2.0"}}, {"uniqueid": "MTK0192:3YHH42UU5CMHD0AYYRLNUFCT16H0L9", "current_trial": 149, "dateTime": 1509481690999, "trialdata": {"rt": -1, "stimulus": "<p id=\"stim\">7</p>", "key_press": -1, "trial_type": "single-stim", "trial_index": 149, "time_elapsed": 681502, "internal_node_id": "0.0-110.0-3.0"}}, {"uniqueid": "MTK0192:3YHH42UU5CMHD0AYYRLNUFCT16H0L9", "current_trial": 150, "dateTime": 1509481692001, "trialdata": {"rt": -1, "stimulus": "<p id=\"stim\">6</p>", "key_press": -1, "trial_type": "single-stim", "trial_index": 150, "time_elapsed": 682504, "internal_node_id": "0.0-110.0-4.0"}}, {"uniqueid": "MTK0192:3YHH42UU5CMHD0AYYRLNUFCT16H0L9", "current_trial": 151, "dateTime": 1509481693003, "trialdata": {"rt": -1, "stimulus": "<p id=\"stim\">5</p>", "key_press": -1, "trial_type": "single-stim", "trial_index": 151, "time_elapsed": 683506, "internal_node_id": "0.0-110.0-5.0"}}, {"uniqueid": "MTK0192:3YHH42UU5CMHD0AYYRLNUFCT16H0L9", "current_trial": 152, "dateTime": 1509481694004, "trialdata": {"rt": -1, "stimulus": "<p id=\"stim\">4</p>", "key_press": -1, "trial_type": "single-stim", "trial_index": 152, "time_elapsed": 684507, "internal_node_id": "0.0-110.0-6.0"}}, {"uniqueid": "MTK0192:3YHH42UU5CMHD0AYYRLNUFCT16H0L9", "current_trial": 153, "dateTime": 1509481695005, "trialdata": {"rt": -1, "stimulus": "<p id=\"stim\">3</p>", "key_press": -1, "trial_type": "single-stim", "trial_index": 153, "time_elapsed": 685508, "internal_node_id": "0.0-110.0-7.0"}}, {"uniqueid": "MTK0192:3YHH42UU5CMHD0AYYRLNUFCT16H0L9", "current_trial": 154, "dateTime": 1509481696007, "trialdata": {"rt": -1, "stimulus": "<p id=\"stim\">2</p>", "key_press": -1, "trial_type": "single-stim", "trial_index": 154, "time_elapsed": 686510, "internal_node_id": "0.0-110.0-8.0"}}, {"uniqueid": "MTK0192:3YHH42UU5CMHD0AYYRLNUFCT16H0L9", "current_trial": 155, "dateTime": 1509481697009, "trialdata": {"rt": -1, "stimulus": "<p id=\"stim\">1</p>", "key_press": -1, "trial_type": "single-stim", "trial_index": 155, "time_elapsed": 687512, "internal_node_id": "0.0-110.0-9.0"}}, {"uniqueid": "MTK0192:3YHH42UU5CMHD0AYYRLNUFCT16H0L9", "current_trial": 156, "dateTime": 1509481698510, "trialdata": {"rt": -1, "stimulus": "<p id=\"stim\">+</p>", "key_press": -1, "type": "FIXATION", "trial_type": "single-stim", "trial_index": 156, "time_elapsed": 689013, "internal_node_id": "0.0-111.0-0.0"}}, {"uniqueid": "MTK0192:3YHH42UU5CMHD0AYYRLNUFCT16H0L9", "current_trial": 157, "dateTime": 1509481699311, "trialdata": {"rt": -1, "stimulus": "<p id=\"stim\">CABBAGE</p>", "key_press": -1, "type": "PRES_VIS", "word": "cabbage", "wordID": 209, "conditions": [24, 800, "v", 24000], "trial": 4, "serialpos": 0, "trial_type": "single-stim", "trial_index": 157, "time_elapsed": 689814, "internal_node_id": "0.0-112.0"}}, {"uniqueid": "MTK0192:3YHH42UU5CMHD0AYYRLNUFCT16H0L9", "current_trial": 158, "dateTime": 1509481701138, "trialdata": {"rt": -1, "stimulus": "<p id=\"stim\">FILM</p>", "key_press": -1, "type": "PRES_VIS", "word": "film", "wordID": 564, "conditions": [24, 800, "v", 24000], "trial": 4, "serialpos": 1, "trial_type": "single-stim", "trial_index": 158, "time_elapsed": 691641, "internal_node_id": "0.0-113.0"}}, {"uniqueid": "MTK0192:3YHH42UU5CMHD0AYYRLNUFCT16H0L9", "current_trial": 159, "dateTime": 1509481703009, "trialdata": {"rt": -1, "stimulus": "<p id=\"stim\">ACTOR</p>", "key_press": -1, "type": "PRES_VIS", "word": "actor", "wordID": 4, "conditions": [24, 800, "v", 24000], "trial": 4, "serialpos": 2, "trial_type": "single-stim", "trial_index": 159, "time_elapsed": 693512, "internal_node_id": "0.0-114.0"}}, {"uniqueid": "MTK0192:3YHH42UU5CMHD0AYYRLNUFCT16H0L9", "current_trial": 160, "dateTime": 1509481704863, "trialdata": {"rt": -1, "stimulus": "<p id=\"stim\">DOLPHIN</p>", "key_press": -1, "type": "PRES_VIS", "word": "dolphin", "wordID": 482, "conditions": [24, 800, "v", 24000], "trial": 4, "serialpos": 3, "trial_type": "single-stim", "trial_index": 160, "time_elapsed": 695366, "internal_node_id": "0.0-115.0"}}, {"uniqueid": "MTK0192:3YHH42UU5CMHD0AYYRLNUFCT16H0L9", "current_trial": 161, "dateTime": 1509481706593, "trialdata": {"rt": -1, "stimulus": "<p id=\"stim\">SMOG</p>", "key_press": -1, "type": "PRES_VIS", "word": "smog", "wordID": 1329, "conditions": [24, 800, "v", 24000], "trial": 4, "serialpos": 4, "trial_type": "single-stim", "trial_index": 161, "time_elapsed": 697096, "internal_node_id": "0.0-116.0"}}, {"uniqueid": "MTK0192:3YHH42UU5CMHD0AYYRLNUFCT16H0L9", "current_trial": 162, "dateTime": 1509481708411, "trialdata": {"rt": -1, "stimulus": "<p id=\"stim\">DASHBOARD</p>", "key_press": -1, "type": "PRES_VIS", "word": "dashboard", "wordID": 440, "conditions": [24, 800, "v", 24000], "trial": 4, "serialpos": 5, "trial_type": "single-stim", "trial_index": 162, "time_elapsed": 698914, "internal_node_id": "0.0-117.0"}}, {"uniqueid": "MTK0192:3YHH42UU5CMHD0AYYRLNUFCT16H0L9", "current_trial": 163, "dateTime": 1509481710149, "trialdata": {"rt": -1, "stimulus": "<p id=\"stim\">BULLET</p>", "key_press": -1, "type": "PRES_VIS", "word": "bullet", "wordID": 193, "conditions": [24, 800, "v", 24000], "trial": 4, "serialpos": 6, "trial_type": "single-stim", "trial_index": 163, "time_elapsed": 700652, "internal_node_id": "0.0-118.0"}}, {"uniqueid": "MTK0192:3YHH42UU5CMHD0AYYRLNUFCT16H0L9", "current_trial": 164, "dateTime": 1509481712017, "trialdata": {"rt": -1, "stimulus": "<p id=\"stim\">HANDBAG</p>", "key_press": -1, "type": "PRES_VIS", "word": "handbag", "wordID": 683, "conditions": [24, 800, "v", 24000], "trial": 4, "serialpos": 7, "trial_type": "single-stim", "trial_index": 164, "time_elapsed": 702520, "internal_node_id": "0.0-119.0"}}, {"uniqueid": "MTK0192:3YHH42UU5CMHD0AYYRLNUFCT16H0L9", "current_trial": 165, "dateTime": 1509481713667, "trialdata": {"rt": -1, "stimulus": "<p id=\"stim\">SEAGULL</p>", "key_press": -1, "type": "PRES_VIS", "word": "seagull", "wordID": 1260, "conditions": [24, 800, "v", 24000], "trial": 4, "serialpos": 8, "trial_type": "single-stim", "trial_index": 165, "time_elapsed": 704170, "internal_node_id": "0.0-120.0"}}, {"uniqueid": "MTK0192:3YHH42UU5CMHD0AYYRLNUFCT16H0L9", "current_trial": 166, "dateTime": 1509481715411, "trialdata": {"rt": -1, "stimulus": "<p id=\"stim\">FOX</p>", "key_press": -1, "type": "PRES_VIS", "word": "fox", "wordID": 597, "conditions": [24, 800, "v", 24000], "trial": 4, "serialpos": 9, "trial_type": "single-stim", "trial_index": 166, "time_elapsed": 705914, "internal_node_id": "0.0-121.0"}}, {"uniqueid": "MTK0192:3YHH42UU5CMHD0AYYRLNUFCT16H0L9", "current_trial": 167, "dateTime": 1509481717299, "trialdata": {"rt": -1, "stimulus": "<p id=\"stim\">TURNIP</p>", "key_press": -1, "type": "PRES_VIS", "word": "turnip", "wordID": 1520, "conditions": [24, 800, "v", 24000], "trial": 4, "serialpos": 10, "trial_type": "single-stim", "trial_index": 167, "time_elapsed": 707802, "internal_node_id": "0.0-122.0"}}, {"uniqueid": "MTK0192:3YHH42UU5CMHD0AYYRLNUFCT16H0L9", "current_trial": 168, "dateTime": 1509481719167, "trialdata": {"rt": -1, "stimulus": "<p id=\"stim\">COUNTY</p>", "key_press": -1, "type": "PRES_VIS", "word": "county", "wordID": 388, "conditions": [24, 800, "v", 24000], "trial": 4, "serialpos": 11, "trial_type": "single-stim", "trial_index": 168, "time_elapsed": 709670, "internal_node_id": "0.0-123.0"}}, {"uniqueid": "MTK0192:3YHH42UU5CMHD0AYYRLNUFCT16H0L9", "current_trial": 169, "dateTime": 1509481720946, "trialdata": {"rt": -1, "stimulus": "<p id=\"stim\">TEMPLE</p>", "key_press": -1, "type": "PRES_VIS", "word": "temple", "wordID": 1447, "conditions": [24, 800, "v", 24000], "trial": 4, "serialpos": 12, "trial_type": "single-stim", "trial_index": 169, "time_elapsed": 711449, "internal_node_id": "0.0-124.0"}}, {"uniqueid": "MTK0192:3YHH42UU5CMHD0AYYRLNUFCT16H0L9", "current_trial": 170, "dateTime": 1509481722734, "trialdata": {"rt": -1, "stimulus": "<p id=\"stim\">SCALLOP</p>", "key_press": -1, "type": "PRES_VIS", "word": "scallop", "wordID": 1241, "conditions": [24, 800, "v", 24000], "trial": 4, "serialpos": 13, "trial_type": "single-stim", "trial_index": 170, "time_elapsed": 713237, "internal_node_id": "0.0-125.0"}}, {"uniqueid": "MTK0192:3YHH42UU5CMHD0AYYRLNUFCT16H0L9", "current_trial": 171, "dateTime": 1509481724433, "trialdata": {"rt": -1, "stimulus": "<p id=\"stim\">PLAYGROUND</p>", "key_press": -1, "type": "PRES_VIS", "word": "playground", "wordID": 1086, "conditions": [24, 800, "v", 24000], "trial": 4, "serialpos": 14, "trial_type": "single-stim", "trial_index": 171, "time_elapsed": 714936, "internal_node_id": "0.0-126.0"}}, {"uniqueid": "MTK0192:3YHH42UU5CMHD0AYYRLNUFCT16H0L9", "current_trial": 172, "dateTime": 1509481726133, "trialdata": {"rt": -1, "stimulus": "<p id=\"stim\">YARN</p>", "key_press": -1, "type": "PRES_VIS", "word": "yarn", "wordID": 1630, "conditions": [24, 800, "v", 24000], "trial": 4, "serialpos": 15, "trial_type": "single-stim", "trial_index": 172, "time_elapsed": 716636, "internal_node_id": "0.0-127.0"}}, {"uniqueid": "MTK0192:3YHH42UU5CMHD0AYYRLNUFCT16H0L9", "current_trial": 173, "dateTime": 1509481728122, "trialdata": {"rt": -1, "stimulus": "<p id=\"stim\">HAWK</p>", "key_press": -1, "type": "PRES_VIS", "word": "hawk", "wordID": 691, "conditions": [24, 800, "v", 24000], "trial": 4, "serialpos": 16, "trial_type": "single-stim", "trial_index": 173, "time_elapsed": 718625, "internal_node_id": "0.0-128.0"}}, {"uniqueid": "MTK0192:3YHH42UU5CMHD0AYYRLNUFCT16H0L9", "current_trial": 174, "dateTime": 1509481729959, "trialdata": {"rt": -1, "stimulus": "<p id=\"stim\">BALLOON</p>", "key_press": -1, "type": "PRES_VIS", "word": "balloon", "wordID": 74, "conditions": [24, 800, "v", 24000], "trial": 4, "serialpos": 17, "trial_type": "single-stim", "trial_index": 174, "time_elapsed": 720462, "internal_node_id": "0.0-129.0"}}, {"uniqueid": "MTK0192:3YHH42UU5CMHD0AYYRLNUFCT16H0L9", "current_trial": 175, "dateTime": 1509481731896, "trialdata": {"rt": -1, "stimulus": "<p id=\"stim\">TRACTOR</p>", "key_press": -1, "type": "PRES_VIS", "word": "tractor", "wordID": 1492, "conditions": [24, 800, "v", 24000], "trial": 4, "serialpos": 18, "trial_type": "single-stim", "trial_index": 175, "time_elapsed": 722399, "internal_node_id": "0.0-130.0"}}, {"uniqueid": "MTK0192:3YHH42UU5CMHD0AYYRLNUFCT16H0L9", "current_trial": 176, "dateTime": 1509481733613, "trialdata": {"rt": -1, "stimulus": "<p id=\"stim\">CHURCH</p>", "key_press": -1, "type": "PRES_VIS", "word": "church", "wordID": 306, "conditions": [24, 800, "v", 24000], "trial": 4, "serialpos": 19, "trial_type": "single-stim", "trial_index": 176, "time_elapsed": 724116, "internal_node_id": "0.0-131.0"}}, {"uniqueid": "MTK0192:3YHH42UU5CMHD0AYYRLNUFCT16H0L9", "current_trial": 177, "dateTime": 1509481735609, "trialdata": {"rt": -1, "stimulus": "<p id=\"stim\">SURVEY</p>", "key_press": -1, "type": "PRES_VIS", "word": "survey", "wordID": 1413, "conditions": [24, 800, "v", 24000], "trial": 4, "serialpos": 20, "trial_type": "single-stim", "trial_index": 177, "time_elapsed": 726112, "internal_node_id": "0.0-132.0"}}, {"uniqueid": "MTK0192:3YHH42UU5CMHD0AYYRLNUFCT16H0L9", "current_trial": 178, "dateTime": 1509481737310, "trialdata": {"rt": -1, "stimulus": "<p id=\"stim\">REPORT</p>", "key_press": -1, "type": "PRES_VIS", "word": "report", "wordID": 1183, "conditions": [24, 800, "v", 24000], "trial": 4, "serialpos": 21, "trial_type": "single-stim", "trial_index": 178, "time_elapsed": 727813, "internal_node_id": "0.0-133.0"}}, {"uniqueid": "MTK0192:3YHH42UU5CMHD0AYYRLNUFCT16H0L9", "current_trial": 179, "dateTime": 1509481739127, "trialdata": {"rt": -1, "stimulus": "<p id=\"stim\">HOOK</p>", "key_press": -1, "type": "PRES_VIS", "word": "hook", "wordID": 714, "conditions": [24, 800, "v", 24000], "trial": 4, "serialpos": 22, "trial_type": "single-stim", "trial_index": 179, "time_elapsed": 729630, "internal_node_id": "0.0-134.0"}}, {"uniqueid": "MTK0192:3YHH42UU5CMHD0AYYRLNUFCT16H0L9", "current_trial": 180, "dateTime": 1509481741041, "trialdata": {"rt": -1, "stimulus": "<p id=\"stim\">CLAM</p>", "key_press": -1, "type": "PRES_VIS", "word": "clam", "wordID": 314, "conditions": [24, 800, "v", 24000], "trial": 4, "serialpos": 23, "trial_type": "single-stim", "trial_index": 180, "time_elapsed": 731544, "internal_node_id": "0.0-135.0"}}, {"uniqueid": "MTK0192:3YHH42UU5CMHD0AYYRLNUFCT16H0L9", "current_trial": 181, "dateTime": 1509481743345, "trialdata": {"rt": -1, "stimulus": "", "key_press": -1, "type": "PRE_RECALL_DELAY", "trial_type": "single-stim", "trial_index": 181, "time_elapsed": 733848, "internal_node_id": "0.0-136.0-0.0"}}, {"uniqueid": "MTK0192:3YHH42UU5CMHD0AYYRLNUFCT16H0L9", "current_trial": 182, "dateTime": 1509481743847, "trialdata": {"rt": -1000, "stimulus": "/static/audio/400Hz.wav", "key_press": -1, "type": "PRE_RECALL_ALERT", "trial_type": "single-audio", "trial_index": 182, "time_elapsed": 734349, "internal_node_id": "0.0-137.0"}}, {"uniqueid": "MTK0192:3YHH42UU5CMHD0AYYRLNUFCT16H0L9", "current_trial": 183, "dateTime": 1509481803856, "trialdata": {"rt": [465, 2024, 3624, 9822, 11135, 12783, 15063, 16778, 17241, 19423, 44463, 46776, 53975, 54271], "recwords": ["c", "clam", "hook", "dashboard", "film", "actor", "survey", "report", "sm", "smog", "scallop", "cabbage", "", ""], "type": "FREE_RECALL", "conditions": [24, 800, "v", 24000], "trial": 4, "trial_type": "free-recall", "trial_index": 183, "time_elapsed": 794352, "internal_node_id": "0.0-138.0-0.0"}}, {"uniqueid": "MTK0192:3YHH42UU5CMHD0AYYRLNUFCT16H0L9", "current_trial": 184, "dateTime": 1509481806329, "trialdata": {"rt": 471, "key_press": 32, "type": "INSTRUCTIONS", "trial_type": "text", "trial_index": 184, "time_elapsed": 796832, "internal_node_id": "0.0-139.0"}}, {"uniqueid": "MTK0192:3YHH42UU5CMHD0AYYRLNUFCT16H0L9", "current_trial": 185, "dateTime": 1509481820333, "trialdata": {"rt": [1397, 2685, 4485, 6021, 7381, 8725, 10469, 11892], "responses": ["15", "17", "15", "12", "10", "14", "15", "10"], "num1": [2, 6, 4, 4, 1, 3, 4, 2, 7], "num2": [5, 4, 8, 7, 2, 4, 8, 1, 5], "num3": [8, 7, 3, 1, 7, 7, 3, 7, 9], "type": "DISTRACTOR", "conditions": [12, 800, "v", 12000], "trial": 5, "trial_type": "math-distractor", "trial_index": 185, "time_elapsed": 810836, "internal_node_id": "0.0-140.0"}}, {"uniqueid": "MTK0192:3YHH42UU5CMHD0AYYRLNUFCT16H0L9", "current_trial": 186, "dateTime": 1509481823334, "trialdata": {"rt": -1, "stimulus": "<p id=\"stim\">10</p>", "key_press": -1, "trial_type": "single-stim", "trial_index": 186, "time_elapsed": 813837, "internal_node_id": "0.0-141.0-0.0"}}, {"uniqueid": "MTK0192:3YHH42UU5CMHD0AYYRLNUFCT16H0L9", "current_trial": 187, "dateTime": 1509481824335, "trialdata": {"rt": -1, "stimulus": "<p id=\"stim\">9</p>", "key_press": -1, "trial_type": "single-stim", "trial_index": 187, "time_elapsed": 814838, "internal_node_id": "0.0-141.0-1.0"}}, {"uniqueid": "MTK0192:3YHH42UU5CMHD0AYYRLNUFCT16H0L9", "current_trial": 188, "dateTime": 1509481825336, "trialdata": {"rt": -1, "stimulus": "<p id=\"stim\">8</p>", "key_press": -1, "trial_type": "single-stim", "trial_index": 188, "time_elapsed": 815839, "internal_node_id": "0.0-141.0-2.0"}}, {"uniqueid": "MTK0192:3YHH42UU5CMHD0AYYRLNUFCT16H0L9", "current_trial": 189, "dateTime": 1509481826338, "trialdata": {"rt": -1, "stimulus": "<p id=\"stim\">7</p>", "key_press": -1, "trial_type": "single-stim", "trial_index": 189, "time_elapsed": 816841, "internal_node_id": "0.0-141.0-3.0"}}, {"uniqueid": "MTK0192:3YHH42UU5CMHD0AYYRLNUFCT16H0L9", "current_trial": 190, "dateTime": 1509481827340, "trialdata": {"rt": -1, "stimulus": "<p id=\"stim\">6</p>", "key_press": -1, "trial_type": "single-stim", "trial_index": 190, "time_elapsed": 817843, "internal_node_id": "0.0-141.0-4.0"}}, {"uniqueid": "MTK0192:3YHH42UU5CMHD0AYYRLNUFCT16H0L9", "current_trial": 191, "dateTime": 1509481828341, "trialdata": {"rt": -1, "stimulus": "<p id=\"stim\">5</p>", "key_press": -1, "trial_type": "single-stim", "trial_index": 191, "time_elapsed": 818844, "internal_node_id": "0.0-141.0-5.0"}}, {"uniqueid": "MTK0192:3YHH42UU5CMHD0AYYRLNUFCT16H0L9", "current_trial": 192, "dateTime": 1509481829342, "trialdata": {"rt": -1, "stimulus": "<p id=\"stim\">4</p>", "key_press": -1, "trial_type": "single-stim", "trial_index": 192, "time_elapsed": 819845, "internal_node_id": "0.0-141.0-6.0"}}, {"uniqueid": "MTK0192:3YHH42UU5CMHD0AYYRLNUFCT16H0L9", "current_trial": 193, "dateTime": 1509481830343, "trialdata": {"rt": -1, "stimulus": "<p id=\"stim\">3</p>", "key_press": -1, "trial_type": "single-stim", "trial_index": 193, "time_elapsed": 820846, "internal_node_id": "0.0-141.0-7.0"}}, {"uniqueid": "MTK0192:3YHH42UU5CMHD0AYYRLNUFCT16H0L9", "current_trial": 194, "dateTime": 1509481831345, "trialdata": {"rt": -1, "stimulus": "<p id=\"stim\">2</p>", "key_press": -1, "trial_type": "single-stim", "trial_index": 194, "time_elapsed": 821848, "internal_node_id": "0.0-141.0-8.0"}}, {"uniqueid": "MTK0192:3YHH42UU5CMHD0AYYRLNUFCT16H0L9", "current_trial": 195, "dateTime": 1509481832347, "trialdata": {"rt": -1, "stimulus": "<p id=\"stim\">1</p>", "key_press": -1, "trial_type": "single-stim", "trial_index": 195, "time_elapsed": 822850, "internal_node_id": "0.0-141.0-9.0"}}, {"uniqueid": "MTK0192:3YHH42UU5CMHD0AYYRLNUFCT16H0L9", "current_trial": 196, "dateTime": 1509481833849, "trialdata": {"rt": -1, "stimulus": "<p id=\"stim\">+</p>", "key_press": -1, "type": "FIXATION", "trial_type": "single-stim", "trial_index": 196, "time_elapsed": 824352, "internal_node_id": "0.0-142.0-0.0"}}, {"uniqueid": "MTK0192:3YHH42UU5CMHD0AYYRLNUFCT16H0L9", "current_trial": 197, "dateTime": 1509481834650, "trialdata": {"rt": -1, "stimulus": "<p id=\"stim\">PANTHER</p>", "key_press": -1, "type": "PRES_VIS", "word": "panther", "wordID": 1008, "conditions": [12, 800, "v", 12000], "trial": 5, "serialpos": 0, "trial_type": "single-stim", "trial_index": 197, "time_elapsed": 825153, "internal_node_id": "0.0-143.0"}}, {"uniqueid": "MTK0192:3YHH42UU5CMHD0AYYRLNUFCT16H0L9", "current_trial": 198, "dateTime": 1509481836427, "trialdata": {"rt": -1, "stimulus": "<p id=\"stim\">BADGE</p>", "key_press": -1, "type": "PRES_VIS", "word": "badge", "wordID": 67, "conditions": [12, 800, "v", 12000], "trial": 5, "serialpos": 1, "trial_type": "single-stim", "trial_index": 198, "time_elapsed": 826930, "internal_node_id": "0.0-144.0"}}, {"uniqueid": "MTK0192:3YHH42UU5CMHD0AYYRLNUFCT16H0L9", "current_trial": 199, "dateTime": 1509481838389, "trialdata": {"rt": -1, "stimulus": "<p id=\"stim\">KITCHEN</p>", "key_press": -1, "type": "PRES_VIS", "word": "kitchen", "wordID": 777, "conditions": [12, 800, "v", 12000], "trial": 5, "serialpos": 2, "trial_type": "single-stim", "trial_index": 199, "time_elapsed": 828892, "internal_node_id": "0.0-145.0"}}, {"uniqueid": "MTK0192:3YHH42UU5CMHD0AYYRLNUFCT16H0L9", "current_trial": 200, "dateTime": 1509481840151, "trialdata": {"rt": -1, "stimulus": "<p id=\"stim\">COOK</p>", "key_press": -1, "type": "PRES_VIS", "word": "cook", "wordID": 371, "conditions": [12, 800, "v", 12000], "trial": 5, "serialpos": 3, "trial_type": "single-stim", "trial_index": 200, "time_elapsed": 830654, "internal_node_id": "0.0-146.0"}}, {"uniqueid": "MTK0192:3YHH42UU5CMHD0AYYRLNUFCT16H0L9", "current_trial": 201, "dateTime": 1509481841776, "trialdata": {"rt": -1, "stimulus": "<p id=\"stim\">GRILL</p>", "key_press": -1, "type": "PRES_VIS", "word": "grill", "wordID": 660, "conditions": [12, 800, "v", 12000], "trial": 5, "serialpos": 4, "trial_type": "single-stim", "trial_index": 201, "time_elapsed": 832279, "internal_node_id": "0.0-147.0"}}, {"uniqueid": "MTK0192:3YHH42UU5CMHD0AYYRLNUFCT16H0L9", "current_trial": 202, "dateTime": 1509481843561, "trialdata": {"rt": -1, "stimulus": "<p id=\"stim\">LODGE</p>", "key_press": -1, "type": "PRES_VIS", "word": "lodge", "wordID": 838, "conditions": [12, 800, "v", 12000], "trial": 5, "serialpos": 5, "trial_type": "single-stim", "trial_index": 202, "time_elapsed": 834064, "internal_node_id": "0.0-148.0"}}, {"uniqueid": "MTK0192:3YHH42UU5CMHD0AYYRLNUFCT16H0L9", "current_trial": 203, "dateTime": 1509481845442, "trialdata": {"rt": -1, "stimulus": "<p id=\"stim\">TILE</p>", "key_press": -1, "type": "PRES_VIS", "word": "tile", "wordID": 1467, "conditions": [12, 800, "v", 12000], "trial": 5, "serialpos": 6, "trial_type": "single-stim", "trial_index": 203, "time_elapsed": 835945, "internal_node_id": "0.0-149.0"}}, {"uniqueid": "MTK0192:3YHH42UU5CMHD0AYYRLNUFCT16H0L9", "current_trial": 204, "dateTime": 1509481847279, "trialdata": {"rt": -1, "stimulus": "<p id=\"stim\">PORTRAIT</p>", "key_press": -1, "type": "PRES_VIS", "word": "portrait", "wordID": 1110, "conditions": [12, 800, "v", 12000], "trial": 5, "serialpos": 7, "trial_type": "single-stim", "trial_index": 204, "time_elapsed": 837782, "internal_node_id": "0.0-150.0"}}, {"uniqueid": "MTK0192:3YHH42UU5CMHD0AYYRLNUFCT16H0L9", "current_trial": 205, "dateTime": 1509481849207, "trialdata": {"rt": -1, "stimulus": "<p id=\"stim\">PASSAGE</p>", "key_press": -1, "type": "PRES_VIS", "word": "passage", "wordID": 1018, "conditions": [12, 800, "v", 12000], "trial": 5, "serialpos": 8, "trial_type": "single-stim", "trial_index": 205, "time_elapsed": 839710, "internal_node_id": "0.0-151.0"}}, {"uniqueid": "MTK0192:3YHH42UU5CMHD0AYYRLNUFCT16H0L9", "current_trial": 206, "dateTime": 1509481850913, "trialdata": {"rt": -1, "stimulus": "<p id=\"stim\">PILOT</p>", "key_press": -1, "type": "PRES_VIS", "word": "pilot", "wordID": 1069, "conditions": [12, 800, "v", 12000], "trial": 5, "serialpos": 9, "trial_type": "single-stim", "trial_index": 206, "time_elapsed": 841416, "internal_node_id": "0.0-152.0"}}, {"uniqueid": "MTK0192:3YHH42UU5CMHD0AYYRLNUFCT16H0L9", "current_trial": 207, "dateTime": 1509481852898, "trialdata": {"rt": -1, "stimulus": "<p id=\"stim\">LEOPARD</p>", "key_press": -1, "type": "PRES_VIS", "word": "leopard", "wordID": 811, "conditions": [12, 800, "v", 12000], "trial": 5, "serialpos": 10, "trial_type": "single-stim", "trial_index": 207, "time_elapsed": 843401, "internal_node_id": "0.0-153.0"}}, {"uniqueid": "MTK0192:3YHH42UU5CMHD0AYYRLNUFCT16H0L9", "current_trial": 208, "dateTime": 1509481854779, "trialdata": {"rt": -1, "stimulus": "<p id=\"stim\">LUGGAGE</p>", "key_press": -1, "type": "PRES_VIS", "word": "luggage", "wordID": 846, "conditions": [12, 800, "v", 12000], "trial": 5, "serialpos": 11, "trial_type": "single-stim", "trial_index": 208, "time_elapsed": 845282, "internal_node_id": "0.0-154.0"}}, {"uniqueid": "MTK0192:3YHH42UU5CMHD0AYYRLNUFCT16H0L9", "current_trial": 209, "dateTime": 1509481857138, "trialdata": {"rt": -1, "stimulus": "", "key_press": -1, "type": "PRE_RECALL_DELAY", "trial_type": "single-stim", "trial_index": 209, "time_elapsed": 847641, "internal_node_id": "0.0-155.0-0.0"}}, {"uniqueid": "MTK0192:3YHH42UU5CMHD0AYYRLNUFCT16H0L9", "current_trial": 210, "dateTime": 1509481857639, "trialdata": {"rt": -1000, "stimulus": "/static/audio/400Hz.wav", "key_press": -1, "type": "PRE_RECALL_ALERT", "trial_type": "single-audio", "trial_index": 210, "time_elapsed": 848142, "internal_node_id": "0.0-156.0"}}, {"uniqueid": "MTK0192:3YHH42UU5CMHD0AYYRLNUFCT16H0L9", "current_trial": 211, "dateTime": 1509481917646, "trialdata": {"rt": [3352, 6873, 8656, 10352, 12209, 13697, 16561, 27465], "recwords": ["luggage", "leopard", "cook", "kitchen", "grill", "lodge", "luggage", "tile"], "type": "FREE_RECALL", "conditions": [12, 800, "v", 12000], "trial": 5, "trial_type": "free-recall", "trial_index": 211, "time_elapsed": 908145, "internal_node_id": "0.0-157.0-0.0"}}, {"uniqueid": "MTK0192:3YHH42UU5CMHD0AYYRLNUFCT16H0L9", "current_trial": 212, "dateTime": 1509481921169, "trialdata": {"rt": 1521, "key_press": 32, "type": "INSTRUCTIONS", "trial_type": "text", "trial_index": 212, "time_elapsed": 911672, "internal_node_id": "0.0-158.0"}}, {"uniqueid": "MTK0192:3YHH42UU5CMHD0AYYRLNUFCT16H0L9", "current_trial": 213, "dateTime": 1509481935199, "trialdata": {"rt": [1762, 2930, 4651, 6803, 8586, 10305], "responses": ["9", "14", "18", "8", "11", "15"], "num1": [6, 8, 1, 1, 2, 6, 2], "num2": [1, 2, 9, 5, 3, 7, 3], "num3": [2, 4, 8, 2, 6, 2, 2], "type": "DISTRACTOR", "conditions": [12, 1600, "a", 12000], "trial": 6, "trial_type": "math-distractor", "trial_index": 213, "time_elapsed": 925702, "internal_node_id": "0.0-159.0"}}, {"uniqueid": "MTK0192:3YHH42UU5CMHD0AYYRLNUFCT16H0L9", "current_trial": 214, "dateTime": 1509481938201, "trialdata": {"rt": -1, "stimulus": "<p id=\"stim\">10</p>", "key_press": -1, "trial_type": "single-stim", "trial_index": 214, "time_elapsed": 928704, "internal_node_id": "0.0-160.0-0.0"}}, {"uniqueid": "MTK0192:3YHH42UU5CMHD0AYYRLNUFCT16H0L9", "current_trial": 215, "dateTime": 1509481939202, "trialdata": {"rt": -1, "stimulus": "<p id=\"stim\">9</p>", "key_press": -1, "trial_type": "single-stim", "trial_index": 215, "time_elapsed": 929705, "internal_node_id": "0.0-160.0-1.0"}}, {"uniqueid": "MTK0192:3YHH42UU5CMHD0AYYRLNUFCT16H0L9", "current_trial": 216, "dateTime": 1509481940203, "trialdata": {"rt": -1, "stimulus": "<p id=\"stim\">8</p>", "key_press": -1, "trial_type": "single-stim", "trial_index": 216, "time_elapsed": 930706, "internal_node_id": "0.0-160.0-2.0"}}, {"uniqueid": "MTK0192:3YHH42UU5CMHD0AYYRLNUFCT16H0L9", "current_trial": 217, "dateTime": 1509481941204, "trialdata": {"rt": -1, "stimulus": "<p id=\"stim\">7</p>", "key_press": -1, "trial_type": "single-stim", "trial_index": 217, "time_elapsed": 931707, "internal_node_id": "0.0-160.0-3.0"}}, {"uniqueid": "MTK0192:3YHH42UU5CMHD0AYYRLNUFCT16H0L9", "current_trial": 218, "dateTime": 1509481942205, "trialdata": {"rt": -1, "stimulus": "<p id=\"stim\">6</p>", "key_press": -1, "trial_type": "single-stim", "trial_index": 218, "time_elapsed": 932708, "internal_node_id": "0.0-160.0-4.0"}}, {"uniqueid": "MTK0192:3YHH42UU5CMHD0AYYRLNUFCT16H0L9", "current_trial": 219, "dateTime": 1509481943205, "trialdata": {"rt": -1, "stimulus": "<p id=\"stim\">5</p>", "key_press": -1, "trial_type": "single-stim", "trial_index": 219, "time_elapsed": 933708, "internal_node_id": "0.0-160.0-5.0"}}, {"uniqueid": "MTK0192:3YHH42UU5CMHD0AYYRLNUFCT16H0L9", "current_trial": 220, "dateTime": 1509481944208, "trialdata": {"rt": -1, "stimulus": "<p id=\"stim\">4</p>", "key_press": -1, "trial_type": "single-stim", "trial_index": 220, "time_elapsed": 934711, "internal_node_id": "0.0-160.0-6.0"}}, {"uniqueid": "MTK0192:3YHH42UU5CMHD0AYYRLNUFCT16H0L9", "current_trial": 221, "dateTime": 1509481945209, "trialdata": {"rt": -1, "stimulus": "<p id=\"stim\">3</p>", "key_press": -1, "trial_type": "single-stim", "trial_index": 221, "time_elapsed": 935712, "internal_node_id": "0.0-160.0-7.0"}}, {"uniqueid": "MTK0192:3YHH42UU5CMHD0AYYRLNUFCT16H0L9", "current_trial": 222, "dateTime": 1509481946209, "trialdata": {"rt": -1, "stimulus": "<p id=\"stim\">2</p>", "key_press": -1, "trial_type": "single-stim", "trial_index": 222, "time_elapsed": 936712, "internal_node_id": "0.0-160.0-8.0"}}, {"uniqueid": "MTK0192:3YHH42UU5CMHD0AYYRLNUFCT16H0L9", "current_trial": 223, "dateTime": 1509481947211, "trialdata": {"rt": -1, "stimulus": "<p id=\"stim\">1</p>", "key_press": -1, "trial_type": "single-stim", "trial_index": 223, "time_elapsed": 937714, "internal_node_id": "0.0-160.0-9.0"}}, {"uniqueid": "MTK0192:3YHH42UU5CMHD0AYYRLNUFCT16H0L9", "current_trial": 224, "dateTime": 1509481948713, "trialdata": {"rt": -1, "stimulus": "<p id=\"stim\">+</p>", "key_press": -1, "type": "FIXATION", "trial_type": "single-stim", "trial_index": 224, "time_elapsed": 939216, "internal_node_id": "0.0-161.0-0.0"}}, {"uniqueid": "MTK0192:3YHH42UU5CMHD0AYYRLNUFCT16H0L9", "current_trial": 225, "dateTime": 1509481951283, "trialdata": {"rt": -1000, "stimulus": "/static/audio/wordpool/BOUQUET.wav", "key_press": -1, "type": "PRES_AUD", "word": "bouquet", "wordID": 156, "conditions": [12, 1600, "a", 12000], "trial": 6, "serialpos": 0, "trial_type": "single-audio", "trial_index": 225, "time_elapsed": 941786, "internal_node_id": "0.0-162.0"}}, {"uniqueid": "MTK0192:3YHH42UU5CMHD0AYYRLNUFCT16H0L9", "current_trial": 226, "dateTime": 1509481953873, "trialdata": {"rt": -1000, "stimulus": "/static/audio/wordpool/CHEMIST.wav", "key_press": -1, "type": "PRES_AUD", "word": "chemist", "wordID": 291, "conditions": [12, 1600, "a", 12000], "trial": 6, "serialpos": 1, "trial_type": "single-audio", "trial_index": 226, "time_elapsed": 944375, "internal_node_id": "0.0-163.0"}}, {"uniqueid": "MTK0192:3YHH42UU5CMHD0AYYRLNUFCT16H0L9", "current_trial": 227, "dateTime": 1509481956297, "trialdata": {"rt": -1000, "stimulus": "/static/audio/wordpool/SANDWICH.wav", "key_press": -1, "type": "PRES_AUD", "word": "sandwich", "wordID": 1231, "conditions": [12, 1600, "a", 12000], "trial": 6, "serialpos": 2, "trial_type": "single-audio", "trial_index": 227, "time_elapsed": 946800, "internal_node_id": "0.0-164.0"}}, {"uniqueid": "MTK0192:3YHH42UU5CMHD0AYYRLNUFCT16H0L9", "current_trial": 228, "dateTime": 1509481958715, "trialdata": {"rt": -1000, "stimulus": "/static/audio/wordpool/SPARROW.wav", "key_press": -1, "type": "PRES_AUD", "word": "sparrow", "wordID": 1346, "conditions": [12, 1600, "a", 12000], "trial": 6, "serialpos": 3, "trial_type": "single-audio", "trial_index": 228, "time_elapsed": 949217, "internal_node_id": "0.0-165.0"}}, {"uniqueid": "MTK0192:3YHH42UU5CMHD0AYYRLNUFCT16H0L9", "current_trial": 229, "dateTime": 1509481961171, "trialdata": {"rt": -1000, "stimulus": "/static/audio/wordpool/EUROPE.wav", "key_press": -1, "type": "PRES_AUD", "word": "europe", "wordID": 540, "conditions": [12, 1600, "a", 12000], "trial": 6, "serialpos": 4, "trial_type": "single-audio", "trial_index": 229, "time_elapsed": 951674, "internal_node_id": "0.0-166.0"}}, {"uniqueid": "MTK0192:3YHH42UU5CMHD0AYYRLNUFCT16H0L9", "current_trial": 230, "dateTime": 1509481963806, "trialdata": {"rt": -1000, "stimulus": "/static/audio/wordpool/BANK.wav", "key_press": -1, "type": "PRES_AUD", "word": "bank", "wordID": 82, "conditions": [12, 1600, "a", 12000], "trial": 6, "serialpos": 5, "trial_type": "single-audio", "trial_index": 230, "time_elapsed": 954309, "internal_node_id": "0.0-167.0"}}, {"uniqueid": "MTK0192:3YHH42UU5CMHD0AYYRLNUFCT16H0L9", "current_trial": 231, "dateTime": 1509481966403, "trialdata": {"rt": -1000, "stimulus": "/static/audio/wordpool/ROBIN.wav", "key_press": -1, "type": "PRES_AUD", "word": "robin", "wordID": 1198, "conditions": [12, 1600, "a", 12000], "trial": 6, "serialpos": 6, "trial_type": "single-audio", "trial_index": 231, "time_elapsed": 956905, "internal_node_id": "0.0-168.0"}}, {"uniqueid": "MTK0192:3YHH42UU5CMHD0AYYRLNUFCT16H0L9", "current_trial": 232, "dateTime": 1509481969104, "trialdata": {"rt": -1000, "stimulus": "/static/audio/wordpool/WHISTLE.wav", "key_press": -1, "type": "PRES_AUD", "word": "whistle", "wordID": 1605, "conditions": [12, 1600, "a", 12000], "trial": 6, "serialpos": 7, "trial_type": "single-audio", "trial_index": 232, "time_elapsed": 959607, "internal_node_id": "0.0-169.0"}}, {"uniqueid": "MTK0192:3YHH42UU5CMHD0AYYRLNUFCT16H0L9", "current_trial": 233, "dateTime": 1509481971798, "trialdata": {"rt": -1000, "stimulus": "/static/audio/wordpool/FIREMAN.wav", "key_press": -1, "type": "PRES_AUD", "word": "fireman", "wordID": 568, "conditions": [12, 1600, "a", 12000], "trial": 6, "serialpos": 8, "trial_type": "single-audio", "trial_index": 233, "time_elapsed": 962301, "internal_node_id": "0.0-170.0"}}, {"uniqueid": "MTK0192:3YHH42UU5CMHD0AYYRLNUFCT16H0L9", "current_trial": 234, "dateTime": 1509481974545, "trialdata": {"rt": -1000, "stimulus": "/static/audio/wordpool/SUPPER.wav", "key_press": -1, "type": "PRES_AUD", "word": "supper", "wordID": 1410, "conditions": [12, 1600, "a", 12000], "trial": 6, "serialpos": 9, "trial_type": "single-audio", "trial_index": 234, "time_elapsed": 965048, "internal_node_id": "0.0-171.0"}}, {"uniqueid": "MTK0192:3YHH42UU5CMHD0AYYRLNUFCT16H0L9", "current_trial": 235, "dateTime": 1509481977148, "trialdata": {"rt": -1000, "stimulus": "/static/audio/wordpool/BANQUET.wav", "key_press": -1, "type": "PRES_AUD", "word": "banquet", "wordID": 85, "conditions": [12, 1600, "a", 12000], "trial": 6, "serialpos": 10, "trial_type": "single-audio", "trial_index": 235, "time_elapsed": 967651, "internal_node_id": "0.0-172.0"}}, {"uniqueid": "MTK0192:3YHH42UU5CMHD0AYYRLNUFCT16H0L9", "current_trial": 236, "dateTime": 1509481979827, "trialdata": {"rt": -1000, "stimulus": "/static/audio/wordpool/ARMY.wav", "key_press": -1, "type": "PRES_AUD", "word": "army", "wordID": 38, "conditions": [12, 1600, "a", 12000], "trial": 6, "serialpos": 11, "trial_type": "single-audio", "trial_index": 236, "time_elapsed": 970330, "internal_node_id": "0.0-173.0"}}, {"uniqueid": "MTK0192:3YHH42UU5CMHD0AYYRLNUFCT16H0L9", "current_trial": 237, "dateTime": 1509481981217, "trialdata": {"rt": -1, "stimulus": "", "key_press": -1, "type": "PRE_RECALL_DELAY", "trial_type": "single-stim", "trial_index": 237, "time_elapsed": 971720, "internal_node_id": "0.0-174.0-0.0"}}, {"uniqueid": "MTK0192:3YHH42UU5CMHD0AYYRLNUFCT16H0L9", "current_trial": 238, "dateTime": 1509481981791, "trialdata": {"rt": -1000, "stimulus": "/static/audio/400Hz.wav", "key_press": -1, "type": "PRE_RECALL_ALERT", "trial_type": "single-audio", "trial_index": 238, "time_elapsed": 972294, "internal_node_id": "0.0-175.0"}}, {"uniqueid": "MTK0192:3YHH42UU5CMHD0AYYRLNUFCT16H0L9", "current_trial": 239, "dateTime": 1509482041800, "trialdata": {"rt": [1784, 3633, 5289, 8387, 10992], "recwords": ["army", "supper", "banquet", "bouquet", "europe"], "type": "FREE_RECALL", "conditions": [12, 1600, "a", 12000], "trial": 6, "trial_type": "free-recall", "trial_index": 239, "time_elapsed": 1032295, "internal_node_id": "0.0-176.0-0.0"}}, {"uniqueid": "MTK0192:3YHH42UU5CMHD0AYYRLNUFCT16H0L9", "current_trial": 240, "dateTime": 1509482045490, "trialdata": {"rt": 1688, "key_press": 32, "type": "INSTRUCTIONS", "trial_type": "text", "trial_index": 240, "time_elapsed": 1035993, "internal_node_id": "0.0-177.0"}}, {"uniqueid": "MTK0192:3YHH42UU5CMHD0AYYRLNUFCT16H0L9", "current_trial": 241, "dateTime": 1509482071533, "trialdata": {"rt": [3197, 4524, 6085, 7588, 9429, 11437, 13549, 15860, 17797, 19516, 21268, 23852], "responses": ["20", "11", "17", "19", "14", "15", "16", "19", "14", "16", "10", "16"], "num1": [6, 7, 6, 9, 3, 9, 8, 6, 8, 8, 2, 5, 6], "num2": [5, 1, 5, 5, 3, 4, 3, 7, 5, 1, 7, 9, 9], "num3": [9, 3, 6, 5, 8, 2, 5, 6, 1, 7, 1, 2, 3], "type": "DISTRACTOR", "conditions": [12, 800, "a", 24000], "trial": 7, "trial_type": "math-distractor", "trial_index": 241, "time_elapsed": 1062036, "internal_node_id": "0.0-178.0"}}, {"uniqueid": "MTK0192:3YHH42UU5CMHD0AYYRLNUFCT16H0L9", "current_trial": 242, "dateTime": 1509482074554, "trialdata": {"rt": -1, "stimulus": "<p id=\"stim\">10</p>", "key_press": -1, "trial_type": "single-stim", "trial_index": 242, "time_elapsed": 1065057, "internal_node_id": "0.0-179.0-0.0"}}, {"uniqueid": "MTK0192:3YHH42UU5CMHD0AYYRLNUFCT16H0L9", "current_trial": 243, "dateTime": 1509482075555, "trialdata": {"rt": -1, "stimulus": "<p id=\"stim\">9</p>", "key_press": -1, "trial_type": "single-stim", "trial_index": 243, "time_elapsed": 1066058, "internal_node_id": "0.0-179.0-1.0"}}, {"uniqueid": "MTK0192:3YHH42UU5CMHD0AYYRLNUFCT16H0L9", "current_trial": 244, "dateTime": 1509482076555, "trialdata": {"rt": -1, "stimulus": "<p id=\"stim\">8</p>", "key_press": -1, "trial_type": "single-stim", "trial_index": 244, "time_elapsed": 1067058, "internal_node_id": "0.0-179.0-2.0"}}, {"uniqueid": "MTK0192:3YHH42UU5CMHD0AYYRLNUFCT16H0L9", "current_trial": 245, "dateTime": 1509482077556, "trialdata": {"rt": -1, "stimulus": "<p id=\"stim\">7</p>", "key_press": -1, "trial_type": "single-stim", "trial_index": 245, "time_elapsed": 1068059, "internal_node_id": "0.0-179.0-3.0"}}, {"uniqueid": "MTK0192:3YHH42UU5CMHD0AYYRLNUFCT16H0L9", "current_trial": 246, "dateTime": 1509482078620, "trialdata": {"rt": -1, "stimulus": "<p id=\"stim\">6</p>", "key_press": -1, "trial_type": "single-stim", "trial_index": 246, "time_elapsed": 1069123, "internal_node_id": "0.0-179.0-4.0"}}, {"uniqueid": "MTK0192:3YHH42UU5CMHD0AYYRLNUFCT16H0L9", "current_trial": 247, "dateTime": 1509482079621, "trialdata": {"rt": -1, "stimulus": "<p id=\"stim\">5</p>", "key_press": -1, "trial_type": "single-stim", "trial_index": 247, "time_elapsed": 1070124, "internal_node_id": "0.0-179.0-5.0"}}, {"uniqueid": "MTK0192:3YHH42UU5CMHD0AYYRLNUFCT16H0L9", "current_trial": 248, "dateTime": 1509482080622, "trialdata": {"rt": -1, "stimulus": "<p id=\"stim\">4</p>", "key_press": -1, "trial_type": "single-stim", "trial_index": 248, "time_elapsed": 1071125, "internal_node_id": "0.0-179.0-6.0"}}, {"uniqueid": "MTK0192:3YHH42UU5CMHD0AYYRLNUFCT16H0L9", "current_trial": 249, "dateTime": 1509482081623, "trialdata": {"rt": -1, "stimulus": "<p id=\"stim\">3</p>", "key_press": -1, "trial_type": "single-stim", "trial_index": 249, "time_elapsed": 1072126, "internal_node_id": "0.0-179.0-7.0"}}, {"uniqueid": "MTK0192:3YHH42UU5CMHD0AYYRLNUFCT16H0L9", "current_trial": 250, "dateTime": 1509482082624, "trialdata": {"rt": -1, "stimulus": "<p id=\"stim\">2</p>", "key_press": -1, "trial_type": "single-stim", "trial_index": 250, "time_elapsed": 1073127, "internal_node_id": "0.0-179.0-8.0"}}, {"uniqueid": "MTK0192:3YHH42UU5CMHD0AYYRLNUFCT16H0L9", "current_trial": 251, "dateTime": 1509482083625, "trialdata": {"rt": -1, "stimulus": "<p id=\"stim\">1</p>", "key_press": -1, "trial_type": "single-stim", "trial_index": 251, "time_elapsed": 1074128, "internal_node_id": "0.0-179.0-9.0"}}, {"uniqueid": "MTK0192:3YHH42UU5CMHD0AYYRLNUFCT16H0L9", "current_trial": 252, "dateTime": 1509482085127, "trialdata": {"rt": -1, "stimulus": "<p id=\"stim\">+</p>", "key_press": -1, "type": "FIXATION", "trial_type": "single-stim", "trial_index": 252, "time_elapsed": 1075630, "internal_node_id": "0.0-180.0-0.0"}}, {"uniqueid": "MTK0192:3YHH42UU5CMHD0AYYRLNUFCT16H0L9", "current_trial": 253, "dateTime": 1509482086787, "trialdata": {"rt": -1000, "stimulus": "/static/audio/wordpool/VICTIM.wav", "key_press": -1, "type": "PRES_AUD", "word": "victim", "wordID": 1561, "conditions": [12, 800, "a", 24000], "trial": 7, "serialpos": 0, "trial_type": "single-audio", "trial_index": 253, "time_elapsed": 1077290, "internal_node_id": "0.0-181.0"}}, {"uniqueid": "MTK0192:3YHH42UU5CMHD0AYYRLNUFCT16H0L9", "current_trial": 254, "dateTime": 1509482088576, "trialdata": {"rt": -1000, "stimulus": "/static/audio/wordpool/CAPTIVE.wav", "key_press": -1, "type": "PRES_AUD", "word": "captive", "wordID": 239, "conditions": [12, 800, "a", 24000], "trial": 7, "serialpos": 1, "trial_type": "single-audio", "trial_index": 254, "time_elapsed": 1079079, "internal_node_id": "0.0-182.0"}}, {"uniqueid": "MTK0192:3YHH42UU5CMHD0AYYRLNUFCT16H0L9", "current_trial": 255, "dateTime": 1509482090286, "trialdata": {"rt": -1000, "stimulus": "/static/audio/wordpool/SNAKE.wav", "key_press": -1, "type": "PRES_AUD", "word": "snake", "wordID": 1332, "conditions": [12, 800, "a", 24000], "trial": 7, "serialpos": 2, "trial_type": "single-audio", "trial_index": 255, "time_elapsed": 1080789, "internal_node_id": "0.0-183.0"}}, {"uniqueid": "MTK0192:3YHH42UU5CMHD0AYYRLNUFCT16H0L9", "current_trial": 256, "dateTime": 1509482092093, "trialdata": {"rt": -1000, "stimulus": "/static/audio/wordpool/SUSPECT.wav", "key_press": -1, "type": "PRES_AUD", "word": "suspect", "wordID": 1414, "conditions": [12, 800, "a", 24000], "trial": 7, "serialpos": 3, "trial_type": "single-audio", "trial_index": 256, "time_elapsed": 1082596, "internal_node_id": "0.0-184.0"}}, {"uniqueid": "MTK0192:3YHH42UU5CMHD0AYYRLNUFCT16H0L9", "current_trial": 257, "dateTime": 1509482093717, "trialdata": {"rt": -1000, "stimulus": "/static/audio/wordpool/BLENDER.wav", "key_press": -1, "type": "PRES_AUD", "word": "blender", "wordID": 135, "conditions": [12, 800, "a", 24000], "trial": 7, "serialpos": 4, "trial_type": "single-audio", "trial_index": 257, "time_elapsed": 1084219, "internal_node_id": "0.0-185.0"}}, {"uniqueid": "MTK0192:3YHH42UU5CMHD0AYYRLNUFCT16H0L9", "current_trial": 258, "dateTime": 1509482095666, "trialdata": {"rt": -1000, "stimulus": "/static/audio/wordpool/SKILLET.wav", "key_press": -1, "type": "PRES_AUD", "word": "skillet", "wordID": 1316, "conditions": [12, 800, "a", 24000], "trial": 7, "serialpos": 5, "trial_type": "single-audio", "trial_index": 258, "time_elapsed": 1086169, "internal_node_id": "0.0-186.0"}}, {"uniqueid": "MTK0192:3YHH42UU5CMHD0AYYRLNUFCT16H0L9", "current_trial": 259, "dateTime": 1509482097329, "trialdata": {"rt": -1000, "stimulus": "/static/audio/wordpool/PARENT.wav", "key_press": -1, "type": "PRES_AUD", "word": "parent", "wordID": 1012, "conditions": [12, 800, "a", 24000], "trial": 7, "serialpos": 6, "trial_type": "single-audio", "trial_index": 259, "time_elapsed": 1087832, "internal_node_id": "0.0-187.0"}}, {"uniqueid": "MTK0192:3YHH42UU5CMHD0AYYRLNUFCT16H0L9", "current_trial": 260, "dateTime": 1509482099163, "trialdata": {"rt": -1000, "stimulus": "/static/audio/wordpool/RUST.wav", "key_press": -1, "type": "PRES_AUD", "word": "rust", "wordID": 1218, "conditions": [12, 800, "a", 24000], "trial": 7, "serialpos": 7, "trial_type": "single-audio", "trial_index": 260, "time_elapsed": 1089666, "internal_node_id": "0.0-188.0"}}, {"uniqueid": "MTK0192:3YHH42UU5CMHD0AYYRLNUFCT16H0L9", "current_trial": 261, "dateTime": 1509482100916, "trialdata": {"rt": -1000, "stimulus": "/static/audio/wordpool/PASTRY.wav", "key_press": -1, "type": "PRES_AUD", "word": "pastry", "wordID": 1021, "conditions": [12, 800, "a", 24000], "trial": 7, "serialpos": 8, "trial_type": "single-audio", "trial_index": 261, "time_elapsed": 1091418, "internal_node_id": "0.0-189.0"}}, {"uniqueid": "MTK0192:3YHH42UU5CMHD0AYYRLNUFCT16H0L9", "current_trial": 262, "dateTime": 1509482102572, "trialdata": {"rt": -1000, "stimulus": "/static/audio/wordpool/MOTEL.wav", "key_press": -1, "type": "PRES_AUD", "word": "motel", "wordID": 918, "conditions": [12, 800, "a", 24000], "trial": 7, "serialpos": 9, "trial_type": "single-audio", "trial_index": 262, "time_elapsed": 1093075, "internal_node_id": "0.0-190.0"}}, {"uniqueid": "MTK0192:3YHH42UU5CMHD0AYYRLNUFCT16H0L9", "current_trial": 263, "dateTime": 1509482104570, "trialdata": {"rt": -1000, "stimulus": "/static/audio/wordpool/KIDNEY.wav", "key_press": -1, "type": "PRES_AUD", "word": "kidney", "wordID": 775, "conditions": [12, 800, "a", 24000], "trial": 7, "serialpos": 10, "trial_type": "single-audio", "trial_index": 263, "time_elapsed": 1095073, "internal_node_id": "0.0-191.0"}}, {"uniqueid": "MTK0192:3YHH42UU5CMHD0AYYRLNUFCT16H0L9", "current_trial": 264, "dateTime": 1509482106491, "trialdata": {"rt": -1000, "stimulus": "/static/audio/wordpool/SLIME.wav", "key_press": -1, "type": "PRES_AUD", "word": "slime", "wordID": 1326, "conditions": [12, 800, "a", 24000], "trial": 7, "serialpos": 11, "trial_type": "single-audio", "trial_index": 264, "time_elapsed": 1096994, "internal_node_id": "0.0-192.0"}}, {"uniqueid": "MTK0192:3YHH42UU5CMHD0AYYRLNUFCT16H0L9", "current_trial": 265, "dateTime": 1509482107843, "trialdata": {"rt": -1, "stimulus": "", "key_press": -1, "type": "PRE_RECALL_DELAY", "trial_type": "single-stim", "trial_index": 265, "time_elapsed": 1098346, "internal_node_id": "0.0-193.0-0.0"}}, {"uniqueid": "MTK0192:3YHH42UU5CMHD0AYYRLNUFCT16H0L9", "current_trial": 266, "dateTime": 1509482108379, "trialdata": {"rt": -1000, "stimulus": "/static/audio/400Hz.wav", "key_press": -1, "type": "PRE_RECALL_ALERT", "trial_type": "single-audio", "trial_index": 266, "time_elapsed": 1098882, "internal_node_id": "0.0-194.0"}}, {"uniqueid": "MTK0192:3YHH42UU5CMHD0AYYRLNUFCT16H0L9", "current_trial": 267, "dateTime": 1509482168386, "trialdata": {"rt": [1148, 2581, 4462, 7222, 9621, 12862, 21021, 29009], "recwords": ["slime", "motel", "suspect", "victim", "snake", "kidney", "captive", "pastry"], "type": "FREE_RECALL", "conditions": [12, 800, "a", 24000], "trial": 7, "trial_type": "free-recall", "trial_index": 267, "time_elapsed": 1158884, "internal_node_id": "0.0-195.0-0.0"}}, {"uniqueid": "MTK0192:3YHH42UU5CMHD0AYYRLNUFCT16H0L9", "current_trial": 268, "dateTime": 1509482170900, "trialdata": {"rt": 512, "key_press": 32, "type": "INSTRUCTIONS", "trial_type": "text", "trial_index": 268, "time_elapsed": 1161402, "internal_node_id": "0.0-196.0"}}, {"uniqueid": "MTK0192:3YHH42UU5CMHD0AYYRLNUFCT16H0L9", "current_trial": 269, "dateTime": 1509482196902, "trialdata": {"rt": [2525, 4044, 5678, 9589, 13869, 17444, 20949], "responses": ["16", "14", "9", "22", "14", "23", "22"], "num1": [1, 2, 7, 7, 4, 6, 6, 8], "num2": [8, 6, 1, 8, 7, 9, 9, 6], "num3": [7, 6, 1, 6, 3, 8, 7, 1], "type": "DISTRACTOR", "conditions": [24, 800, "a", 24000], "trial": 8, "trial_type": "math-distractor", "trial_index": 269, "time_elapsed": 1187405, "internal_node_id": "0.0-197.0"}}, {"uniqueid": "MTK0192:3YHH42UU5CMHD0AYYRLNUFCT16H0L9", "current_trial": 270, "dateTime": 1509482199903, "trialdata": {"rt": -1, "stimulus": "<p id=\"stim\">10</p>", "key_press": -1, "trial_type": "single-stim", "trial_index": 270, "time_elapsed": 1190406, "internal_node_id": "0.0-198.0-0.0"}}, {"uniqueid": "MTK0192:3YHH42UU5CMHD0AYYRLNUFCT16H0L9", "current_trial": 271, "dateTime": 1509482200906, "trialdata": {"rt": -1, "stimulus": "<p id=\"stim\">9</p>", "key_press": -1, "trial_type": "single-stim", "trial_index": 271, "time_elapsed": 1191408, "internal_node_id": "0.0-198.0-1.0"}}, {"uniqueid": 