{"condition": 0, "counterbalance": 1442, "assignmentId": "37UEWGM5HUFSNNQTZUMJUW42F14R1A", "workerId": "MTK0632", "hitId": "33NKDW9FFXPUK2O9YOCTBQDX5DCCXJ", "currenttrial": 626, "bonus": 0, "data": [{"uniqueid": "MTK0632:37UEWGM5HUFSNNQTZUMJUW42F14R1A", "current_trial": 0, "dateTime": 1512573009730, "trialdata": {"rt": 2062, "key_press": 98, "type": "INSTRUCTIONS", "trial_type": "text", "trial_index": 0, "time_elapsed": 2063, "internal_node_id": "0.0-0.0"}}, {"uniqueid": "MTK0632:37UEWGM5HUFSNNQTZUMJUW42F14R1A", "current_trial": 1, "dateTime": 1512573009736, "trialdata": {"rt": 5, "key_press": 99, "type": "INSTRUCTIONS", "trial_type": "text", "trial_index": 1, "time_elapsed": 2069, "internal_node_id": "0.0-1.0"}}, {"uniqueid": "MTK0632:37UEWGM5HUFSNNQTZUMJUW42F14R1A", "current_trial": 2, "dateTime": 1512573021911, "trialdata": {"rt": [12169], "responses": ["ocean"], "type": "AUDIO_TEST", "trial_type": "audio-test", "trial_index": 2, "time_elapsed": 14244, "internal_node_id": "0.0-2.0"}}, {"uniqueid": "MTK0632:37UEWGM5HUFSNNQTZUMJUW42F14R1A", "current_trial": 3, "dateTime": 1512573029455, "trialdata": {"rt": [7543], "responses": ["crystal"], "type": "AUDIO_TEST", "trial_type": "audio-test", "trial_index": 3, "time_elapsed": 21788, "internal_node_id": "0.0-3.0"}}, {"uniqueid": "MTK0632:37UEWGM5HUFSNNQTZUMJUW42F14R1A", "current_trial": 4, "dateTime": 1512573037974, "trialdata": {"rt": [8518], "responses": ["spice"], "type": "AUDIO_TEST", "trial_type": "audio-test", "trial_index": 4, "time_elapsed": 30307, "internal_node_id": "0.0-4.0"}}, {"uniqueid": "MTK0632:37UEWGM5HUFSNNQTZUMJUW42F14R1A", "current_trial": 5, "dateTime": 1512573052806, "trialdata": {"rt": 14080, "responses": "{\"Q0\":\"10 pm\",\"Q1\":\"6:30 A<\",\"Q2\":\"3\"}", "type": "SLEEP_SURVEY", "trial_type": "survey-text", "trial_index": 5, "time_elapsed": 45139, "internal_node_id": "0.0-5.0"}}, {"uniqueid": "MTK0632:37UEWGM5HUFSNNQTZUMJUW42F14R1A", "current_trial": 6, "dateTime": 1512573170026, "trialdata": {"rt": 116219, "key_press": 98, "type": "INSTRUCTIONS", "trial_type": "text", "trial_index": 6, "time_elapsed": 162359, "internal_node_id": "0.0-6.0"}}, {"uniqueid": "MTK0632:37UEWGM5HUFSNNQTZUMJUW42F14R1A", "current_trial": 7, "dateTime": 1512574835931, "trialdata": {"rt": 1665404, "key_press": 32, "type": "INSTRUCTIONS", "trial_type": "text", "trial_index": 7, "time_elapsed": 1828264, "internal_node_id": "0.0-7.0"}}, {"uniqueid": "MTK0632:37UEWGM5HUFSNNQTZUMJUW42F14R1A", "current_trial": 8, "dateTime": 1512574848265, "trialdata": {"rt": 11833, "key_press": 32, "type": "INSTRUCTIONS", "trial_type": "text", "trial_index": 8, "time_elapsed": 1840598, "internal_node_id": "0.0-8.0"}}, {"uniqueid": "MTK0632:37UEWGM5HUFSNNQTZUMJUW42F14R1A", "current_trial": 9, "dateTime": 1512574867269, "trialdata": {"rt": [3443, 6084, 7798, 9619, 13775], "responses": ["7", "12", "11", "6", "12"], "num1": [1, 3, 2, 1, 7, 7], "num2": [2, 3, 2, 4, 1, 6], "num3": [4, 6, 7, 1, 4, 8], "type": "DISTRACTOR", "conditions": [18, 1200, "a", 18000], "trial": 0, "trial_type": "math-distractor", "trial_index": 9, "time_elapsed": 1859602, "internal_node_id": "0.0-9.0"}}, {"uniqueid": "MTK0632:37UEWGM5HUFSNNQTZUMJUW42F14R1A", "current_trial": 10, "dateTime": 1512574870270, "trialdata": {"rt": -1, "stimulus": "<p id=\"stim\">10</p>", "key_press": -1, "trial_type": "single-stim", "trial_index": 10, "time_elapsed": 1862603, "internal_node_id": "0.0-10.0-0.0"}}, {"uniqueid": "MTK0632:37UEWGM5HUFSNNQTZUMJUW42F14R1A", "current_trial": 11, "dateTime": 1512574871270, "trialdata": {"rt": -1, "stimulus": "<p id=\"stim\">9</p>", "key_press": -1, "trial_type": "single-stim", "trial_index": 11, "time_elapsed": 1863603, "internal_node_id": "0.0-10.0-1.0"}}, {"uniqueid": "MTK0632:37UEWGM5HUFSNNQTZUMJUW42F14R1A", "current_trial": 12, "dateTime": 1512574872272, "trialdata": {"rt": -1, "stimulus": "<p id=\"stim\">8</p>", "key_press": -1, "trial_type": "single-stim", "trial_index": 12, "time_elapsed": 1864605, "internal_node_id": "0.0-10.0-2.0"}}, {"uniqueid": "MTK0632:37UEWGM5HUFSNNQTZUMJUW42F14R1A", "current_trial": 13, "dateTime": 1512574873272, "trialdata": {"rt": -1, "stimulus": "<p id=\"stim\">7</p>", "key_press": -1, "trial_type": "single-stim", "trial_index": 13, "time_elapsed": 1865605, "internal_node_id": "0.0-10.0-3.0"}}, {"uniqueid": "MTK0632:37UEWGM5HUFSNNQTZUMJUW42F14R1A", "current_trial": 14, "dateTime": 1512574874273, "trialdata": {"rt": -1, "stimulus": "<p id=\"stim\">6</p>", "key_press": -1, "trial_type": "single-stim", "trial_index": 14, "time_elapsed": 1866606, "internal_node_id": "0.0-10.0-4.0"}}, {"uniqueid": "MTK0632:37UEWGM5HUFSNNQTZUMJUW42F14R1A", "current_trial": 15, "dateTime": 1512574875273, "trialdata": {"rt": -1, "stimulus": "<p id=\"stim\">5</p>", "key_press": -1, "trial_type": "single-stim", "trial_index": 15, "time_elapsed": 1867606, "internal_node_id": "0.0-10.0-5.0"}}, {"uniqueid": "MTK0632:37UEWGM5HUFSNNQTZUMJUW42F14R1A", "current_trial": 16, "dateTime": 1512574876274, "trialdata": {"rt": -1, "stimulus": "<p id=\"stim\">4</p>", "key_press": -1, "trial_type": "single-stim", "trial_index": 16, "time_elapsed": 1868607, "internal_node_id": "0.0-10.0-6.0"}}, {"uniqueid": "MTK0632:37UEWGM5HUFSNNQTZUMJUW42F14R1A", "current_trial": 17, "dateTime": 1512574877275, "trialdata": {"rt": -1, "stimulus": "<p id=\"stim\">3</p>", "key_press": -1, "trial_type": "single-stim", "trial_index": 17, "time_elapsed": 1869608, "internal_node_id": "0.0-10.0-7.0"}}, {"uniqueid": "MTK0632:37UEWGM5HUFSNNQTZUMJUW42F14R1A", "current_trial": 18, "dateTime": 1512574878276, "trialdata": {"rt": -1, "stimulus": "<p id=\"stim\">2</p>", "key_press": -1, "trial_type": "single-stim", "trial_index": 18, "time_elapsed": 1870609, "internal_node_id": "0.0-10.0-8.0"}}, {"uniqueid": "MTK0632:37UEWGM5HUFSNNQTZUMJUW42F14R1A", "current_trial": 19, "dateTime": 1512574879276, "trialdata": {"rt": -1, "stimulus": "<p id=\"stim\">1</p>", "key_press": -1, "trial_type": "single-stim", "trial_index": 19, "time_elapsed": 1871609, "internal_node_id": "0.0-10.0-9.0"}}, {"uniqueid": "MTK0632:37UEWGM5HUFSNNQTZUMJUW42F14R1A", "current_trial": 20, "dateTime": 1512574880777, "trialdata": {"rt": -1, "stimulus": "<p id=\"stim\">+</p>", "key_press": -1, "type": "FIXATION", "trial_type": "single-stim", "trial_index": 20, "time_elapsed": 1873110, "internal_node_id": "0.0-11.0-0.0"}}, {"uniqueid": "MTK0632:37UEWGM5HUFSNNQTZUMJUW42F14R1A", "current_trial": 21, "dateTime": 1512574883073, "trialdata": {"rt": -1000, "stimulus": "/static/audio/wordpool/SANDWICH.wav", "key_press": -1, "type": "PRES_AUD", "word": "sandwich", "wordID": 1231, "conditions": [18, 1200, "a", 18000], "trial": 0, "serialpos": 0, "trial_type": "single-audio", "trial_index": 21, "time_elapsed": 1875406, "internal_node_id": "0.0-12.0"}}, {"uniqueid": "MTK0632:37UEWGM5HUFSNNQTZUMJUW42F14R1A", "current_trial": 22, "dateTime": 1512574885327, "trialdata": {"rt": 2001.3333333333776, "stimulus": "/static/audio/wordpool/ORANGE.wav", "key_press": 91, "type": "PRES_AUD", "word": "orange", "wordID": 979, "conditions": [18, 1200, "a", 18000], "trial": 0, "serialpos": 1, "trial_type": "single-audio", "trial_index": 22, "time_elapsed": 1877660, "internal_node_id": "0.0-13.0"}}, {"uniqueid": "MTK0632:37UEWGM5HUFSNNQTZUMJUW42F14R1A", "current_trial": 23, "dateTime": 1512574887401, "trialdata": {"rt": -1000, "stimulus": "/static/audio/wordpool/MATTRESS.wav", "key_press": -1, "type": "PRES_AUD", "word": "mattress", "wordID": 878, "conditions": [18, 1200, "a", 18000], "trial": 0, "serialpos": 2, "trial_type": "single-audio", "trial_index": 23, "time_elapsed": 1879734, "internal_node_id": "0.0-14.0"}}, {"uniqueid": "MTK0632:37UEWGM5HUFSNNQTZUMJUW42F14R1A", "current_trial": 24, "dateTime": 1512574889789, "trialdata": {"rt": -1000, "stimulus": "/static/audio/wordpool/RATTLE.wav", "key_press": -1, "type": "PRES_AUD", "word": "rattle", "wordID": 1169, "conditions": [18, 1200, "a", 18000], "trial": 0, "serialpos": 3, "trial_type": "single-audio", "trial_index": 24, "time_elapsed": 1882122, "internal_node_id": "0.0-15.0"}}, {"uniqueid": "MTK0632:37UEWGM5HUFSNNQTZUMJUW42F14R1A", "current_trial": 25, "dateTime": 1512574892118, "trialdata": {"rt": -1000, "stimulus": "/static/audio/wordpool/COCKTAIL.wav", "key_press": -1, "type": "PRES_AUD", "word": "cocktail", "wordID": 337, "conditions": [18, 1200, "a", 18000], "trial": 0, "serialpos": 4, "trial_type": "single-audio", "trial_index": 25, "time_elapsed": 1884451, "internal_node_id": "0.0-16.0"}}, {"uniqueid": "MTK0632:37UEWGM5HUFSNNQTZUMJUW42F14R1A", "current_trial": 26, "dateTime": 1512574894471, "trialdata": {"rt": -1000, "stimulus": "/static/audio/wordpool/GAZELLE.wav", "key_press": -1, "type": "PRES_AUD", "word": "gazelle", "wordID": 627, "conditions": [18, 1200, "a", 18000], "trial": 0, "serialpos": 5, "trial_type": "single-audio", "trial_index": 26, "time_elapsed": 1886804, "internal_node_id": "0.0-17.0"}}, {"uniqueid": "MTK0632:37UEWGM5HUFSNNQTZUMJUW42F14R1A", "current_trial": 27, "dateTime": 1512574896683, "trialdata": {"rt": -1000, "stimulus": "/static/audio/wordpool/SMOG.wav", "key_press": -1, "type": "PRES_AUD", "word": "smog", "wordID": 1329, "conditions": [18, 1200, "a", 18000], "trial": 0, "serialpos": 6, "trial_type": "single-audio", "trial_index": 27, "time_elapsed": 1889016, "internal_node_id": "0.0-18.0"}}, {"uniqueid": "MTK0632:37UEWGM5HUFSNNQTZUMJUW42F14R1A", "current_trial": 28, "dateTime": 1512574898818, "trialdata": {"rt": -1000, "stimulus": "/static/audio/wordpool/PERCH.wav", "key_press": -1, "type": "PRES_AUD", "word": "perch", "wordID": 1047, "conditions": [18, 1200, "a", 18000], "trial": 0, "serialpos": 7, "trial_type": "single-audio", "trial_index": 28, "time_elapsed": 1891151, "internal_node_id": "0.0-19.0"}}, {"uniqueid": "MTK0632:37UEWGM5HUFSNNQTZUMJUW42F14R1A", "current_trial": 29, "dateTime": 1512574901178, "trialdata": {"rt": -1000, "stimulus": "/static/audio/wordpool/BALLOON.wav", "key_press": -1, "type": "PRES_AUD", "word": "balloon", "wordID": 74, "conditions": [18, 1200, "a", 18000], "trial": 0, "serialpos": 8, "trial_type": "single-audio", "trial_index": 29, "time_elapsed": 1893511, "internal_node_id": "0.0-20.0"}}, {"uniqueid": "MTK0632:37UEWGM5HUFSNNQTZUMJUW42F14R1A", "current_trial": 30, "dateTime": 1512574903324, "trialdata": {"rt": -1000, "stimulus": "/static/audio/wordpool/GARBAGE.wav", "key_press": -1, "type": "PRES_AUD", "word": "garbage", "wordID": 621, "conditions": [18, 1200, "a", 18000], "trial": 0, "serialpos": 9, "trial_type": "single-audio", "trial_index": 30, "time_elapsed": 1895657, "internal_node_id": "0.0-21.0"}}, {"uniqueid": "MTK0632:37UEWGM5HUFSNNQTZUMJUW42F14R1A", "current_trial": 31, "dateTime": 1512574905460, "trialdata": {"rt": -1000, "stimulus": "/static/audio/wordpool/OMELET.wav", "key_press": -1, "type": "PRES_AUD", "word": "omelet", "wordID": 975, "conditions": [18, 1200, "a", 18000], "trial": 0, "serialpos": 10, "trial_type": "single-audio", "trial_index": 31, "time_elapsed": 1897793, "internal_node_id": "0.0-22.0"}}, {"uniqueid": "MTK0632:37UEWGM5HUFSNNQTZUMJUW42F14R1A", "current_trial": 32, "dateTime": 1512574907778, "trialdata": {"rt": -1000, "stimulus": "/static/audio/wordpool/TRACTOR.wav", "key_press": -1, "type": "PRES_AUD", "word": "tractor", "wordID": 1492, "conditions": [18, 1200, "a", 18000], "trial": 0, "serialpos": 11, "trial_type": "single-audio", "trial_index": 32, "time_elapsed": 1900111, "internal_node_id": "0.0-23.0"}}, {"uniqueid": "MTK0632:37UEWGM5HUFSNNQTZUMJUW42F14R1A", "current_trial": 33, "dateTime": 1512574909852, "trialdata": {"rt": -1000, "stimulus": "/static/audio/wordpool/SPARROW.wav", "key_press": -1, "type": "PRES_AUD", "word": "sparrow", "wordID": 1346, "conditions": [18, 1200, "a", 18000], "trial": 0, "serialpos": 12, "trial_type": "single-audio", "trial_index": 33, "time_elapsed": 1902185, "internal_node_id": "0.0-24.0"}}, {"uniqueid": "MTK0632:37UEWGM5HUFSNNQTZUMJUW42F14R1A", "current_trial": 34, "dateTime": 1512574912058, "trialdata": {"rt": -1000, "stimulus": "/static/audio/wordpool/PRIMATE.wav", "key_press": -1, "type": "PRES_AUD", "word": "primate", "wordID": 1122, "conditions": [18, 1200, "a", 18000], "trial": 0, "serialpos": 13, "trial_type": "single-audio", "trial_index": 34, "time_elapsed": 1904391, "internal_node_id": "0.0-25.0"}}, {"uniqueid": "MTK0632:37UEWGM5HUFSNNQTZUMJUW42F14R1A", "current_trial": 35, "dateTime": 1512574914359, "trialdata": {"rt": -1000, "stimulus": "/static/audio/wordpool/SUBWAY.wav", "key_press": -1, "type": "PRES_AUD", "word": "subway", "wordID": 1399, "conditions": [18, 1200, "a", 18000], "trial": 0, "serialpos": 14, "trial_type": "single-audio", "trial_index": 35, "time_elapsed": 1906692, "internal_node_id": "0.0-26.0"}}, {"uniqueid": "MTK0632:37UEWGM5HUFSNNQTZUMJUW42F14R1A", "current_trial": 36, "dateTime": 1512574916501, "trialdata": {"rt": -1000, "stimulus": "/static/audio/wordpool/TUNNEL.wav", "key_press": -1, "type": "PRES_AUD", "word": "tunnel", "wordID": 1518, "conditions": [18, 1200, "a", 18000], "trial": 0, "serialpos": 15, "trial_type": "single-audio", "trial_index": 36, "time_elapsed": 1908834, "internal_node_id": "0.0-27.0"}}, {"uniqueid": "MTK0632:37UEWGM5HUFSNNQTZUMJUW42F14R1A", "current_trial": 37, "dateTime": 1512574918675, "trialdata": {"rt": -1000, "stimulus": "/static/audio/wordpool/REPORT.wav", "key_press": -1, "type": "PRES_AUD", "word": "report", "wordID": 1183, "conditions": [18, 1200, "a", 18000], "trial": 0, "serialpos": 16, "trial_type": "single-audio", "trial_index": 37, "time_elapsed": 1911008, "internal_node_id": "0.0-28.0"}}, {"uniqueid": "MTK0632:37UEWGM5HUFSNNQTZUMJUW42F14R1A", "current_trial": 38, "dateTime": 1512574920822, "trialdata": {"rt": -1000, "stimulus": "/static/audio/wordpool/POISON.wav", "key_press": -1, "type": "PRES_AUD", "word": "poison", "wordID": 1095, "conditions": [18, 1200, "a", 18000], "trial": 0, "serialpos": 17, "trial_type": "single-audio", "trial_index": 38, "time_elapsed": 1913155, "internal_node_id": "0.0-29.0"}}, {"uniqueid": "MTK0632:37UEWGM5HUFSNNQTZUMJUW42F14R1A", "current_trial": 39, "dateTime": 1512574922174, "trialdata": {"rt": -1, "stimulus": "", "key_press": -1, "type": "PRE_RECALL_DELAY", "trial_type": "single-stim", "trial_index": 39, "time_elapsed": 1914506, "internal_node_id": "0.0-30.0-0.0"}}, {"uniqueid": "MTK0632:37UEWGM5HUFSNNQTZUMJUW42F14R1A", "current_trial": 40, "dateTime": 1512574922674, "trialdata": {"rt": -1000, "stimulus": "/static/audio/400Hz.wav", "key_press": -1, "type": "PRE_RECALL_ALERT", "trial_type": "single-audio", "trial_index": 40, "time_elapsed": 1915007, "internal_node_id": "0.0-31.0"}}, {"uniqueid": "MTK0632:37UEWGM5HUFSNNQTZUMJUW42F14R1A", "current_trial": 41, "dateTime": 1512574982677, "trialdata": {"rt": [5606, 8199, 11389, 12815, 16004, 18588, 22244, 24316, 27897, 28868, 29625, 31344, 32497, 39655], "recwords": ["orange", "cocktail", "balloon", "garbage", "omelette", "tractor", "primate", "tunnel", "rapport", "prison", "orange", "mattress", "cocktail", "sandwich"], "type": "FREE_RECALL", "conditions": [18, 1200, "a", 18000], "trial": 0, "trial_type": "free-recall", "trial_index": 41, "time_elapsed": 1975009, "internal_node_id": "0.0-32.0-0.0"}}, {"uniqueid": "MTK0632:37UEWGM5HUFSNNQTZUMJUW42F14R1A", "current_trial": 42, "dateTime": 1512574986324, "trialdata": {"rt": 1646, "key_press": 67, "type": "INSTRUCTIONS", "trial_type": "text", "trial_index": 42, "time_elapsed": 1978657, "internal_node_id": "0.0-33.0"}}, {"uniqueid": "MTK0632:37UEWGM5HUFSNNQTZUMJUW42F14R1A", "current_trial": 43, "dateTime": 1512575006328, "trialdata": {"rt": [3256, 4908, 6154, 7680, 8849, 9931, 13471, 14847, 16309], "responses": ["17", "12", "8", "22", "12", "11", "22", "16", "18"], "num1": [8, 7, 1, 8, 9, 7, 7, 3, 7, 7], "num2": [1, 1, 2, 6, 1, 3, 9, 6, 9, 6], "num3": [8, 4, 5, 8, 2, 1, 6, 7, 2, 6], "type": "DISTRACTOR", "conditions": [18, 1200, "v", 18000], "trial": 1, "trial_type": "math-distractor", "trial_index": 43, "time_elapsed": 1998661, "internal_node_id": "0.0-34.0"}}, {"uniqueid": "MTK0632:37UEWGM5HUFSNNQTZUMJUW42F14R1A", "current_trial": 44, "dateTime": 1512575009330, "trialdata": {"rt": -1, "stimulus": "<p id=\"stim\">10</p>", "key_press": -1, "trial_type": "single-stim", "trial_index": 44, "time_elapsed": 2001663, "internal_node_id": "0.0-35.0-0.0"}}, {"uniqueid": "MTK0632:37UEWGM5HUFSNNQTZUMJUW42F14R1A", "current_trial": 45, "dateTime": 1512575010331, "trialdata": {"rt": -1, "stimulus": "<p id=\"stim\">9</p>", "key_press": -1, "trial_type": "single-stim", "trial_index": 45, "time_elapsed": 2002664, "internal_node_id": "0.0-35.0-1.0"}}, {"uniqueid": "MTK0632:37UEWGM5HUFSNNQTZUMJUW42F14R1A", "current_trial": 46, "dateTime": 1512575011332, "trialdata": {"rt": -1, "stimulus": "<p id=\"stim\">8</p>", "key_press": -1, "trial_type": "single-stim", "trial_index": 46, "time_elapsed": 2003665, "internal_node_id": "0.0-35.0-2.0"}}, {"uniqueid": "MTK0632:37UEWGM5HUFSNNQTZUMJUW42F14R1A", "current_trial": 47, "dateTime": 1512575012333, "trialdata": {"rt": -1, "stimulus": "<p id=\"stim\">7</p>", "key_press": -1, "trial_type": "single-stim", "trial_index": 47, "time_elapsed": 2004666, "internal_node_id": "0.0-35.0-3.0"}}, {"uniqueid": "MTK0632:37UEWGM5HUFSNNQTZUMJUW42F14R1A", "current_trial": 48, "dateTime": 1512575013335, "trialdata": {"rt": -1, "stimulus": "<p id=\"stim\">6</p>", "key_press": -1, "trial_type": "single-stim", "trial_index": 48, "time_elapsed": 2005668, "internal_node_id": "0.0-35.0-4.0"}}, {"uniqueid": "MTK0632:37UEWGM5HUFSNNQTZUMJUW42F14R1A", "current_trial": 49, "dateTime": 1512575014337, "trialdata": {"rt": -1, "stimulus": "<p id=\"stim\">5</p>", "key_press": -1, "trial_type": "single-stim", "trial_index": 49, "time_elapsed": 2006669, "internal_node_id": "0.0-35.0-5.0"}}, {"uniqueid": "MTK0632:37UEWGM5HUFSNNQTZUMJUW42F14R1A", "current_trial": 50, "dateTime": 1512575015337, "trialdata": {"rt": -1, "stimulus": "<p id=\"stim\">4</p>", "key_press": -1, "trial_type": "single-stim", "trial_index": 50, "time_elapsed": 2007670, "internal_node_id": "0.0-35.0-6.0"}}, {"uniqueid": "MTK0632:37UEWGM5HUFSNNQTZUMJUW42F14R1A", "current_trial": 51, "dateTime": 1512575016338, "trialdata": {"rt": -1, "stimulus": "<p id=\"stim\">3</p>", "key_press": -1, "trial_type": "single-stim", "trial_index": 51, "time_elapsed": 2008671, "internal_node_id": "0.0-35.0-7.0"}}, {"uniqueid": "MTK0632:37UEWGM5HUFSNNQTZUMJUW42F14R1A", "current_trial": 52, "dateTime": 1512575017339, "trialdata": {"rt": -1, "stimulus": "<p id=\"stim\">2</p>", "key_press": -1, "trial_type": "single-stim", "trial_index": 52, "time_elapsed": 2009672, "internal_node_id": "0.0-35.0-8.0"}}, {"uniqueid": "MTK0632:37UEWGM5HUFSNNQTZUMJUW42F14R1A", "current_trial": 53, "dateTime": 1512575018341, "trialdata": {"rt": -1, "stimulus": "<p id=\"stim\">1</p>", "key_press": -1, "trial_type": "single-stim", "trial_index": 53, "time_elapsed": 2010674, "internal_node_id": "0.0-35.0-9.0"}}, {"uniqueid": "MTK0632:37UEWGM5HUFSNNQTZUMJUW42F14R1A", "current_trial": 54, "dateTime": 1512575019842, "trialdata": {"rt": -1, "stimulus": "<p id=\"stim\">+</p>", "key_press": -1, "type": "FIXATION", "trial_type": "single-stim", "trial_index": 54, "time_elapsed": 2012175, "internal_node_id": "0.0-36.0-0.0"}}, {"uniqueid": "MTK0632:37UEWGM5HUFSNNQTZUMJUW42F14R1A", "current_trial": 55, "dateTime": 1512575021043, "trialdata": {"rt": -1, "stimulus": "<p id=\"stim\">FLASHLIGHT</p>", "key_press": -1, "type": "PRES_VIS", "word": "flashlight", "wordID": 574, "conditions": [18, 1200, "v", 18000], "trial": 1, "serialpos": 0, "trial_type": "single-stim", "trial_index": 55, "time_elapsed": 2013376, "internal_node_id": "0.0-37.0"}}, {"uniqueid": "MTK0632:37UEWGM5HUFSNNQTZUMJUW42F14R1A", "current_trial": 56, "dateTime": 1512575023151, "trialdata": {"rt": -1, "stimulus": "<p id=\"stim\">SUNRISE</p>", "key_press": -1, "type": "PRES_VIS", "word": "sunrise", "wordID": 1406, "conditions": [18, 1200, "v", 18000], "trial": 1, "serialpos": 1, "trial_type": "single-stim", "trial_index": 56, "time_elapsed": 2015484, "internal_node_id": "0.0-38.0"}}, {"uniqueid": "MTK0632:37UEWGM5HUFSNNQTZUMJUW42F14R1A", "current_trial": 57, "dateTime": 1512575025497, "trialdata": {"rt": -1, "stimulus": "<p id=\"stim\">KEEPER</p>", "key_press": -1, "type": "PRES_VIS", "word": "keeper", "wordID": 768, "conditions": [18, 1200, "v", 18000], "trial": 1, "serialpos": 2, "trial_type": "single-stim", "trial_index": 57, "time_elapsed": 2017830, "internal_node_id": "0.0-39.0"}}, {"uniqueid": "MTK0632:37UEWGM5HUFSNNQTZUMJUW42F14R1A", "current_trial": 58, "dateTime": 1512575027761, "trialdata": {"rt": -1, "stimulus": "<p id=\"stim\">DRESSER</p>", "key_press": -1, "type": "PRES_VIS", "word": "dresser", "wordID": 495, "conditions": [18, 1200, "v", 18000], "trial": 1, "serialpos": 3, "trial_type": "single-stim", "trial_index": 58, "time_elapsed": 2020094, "internal_node_id": "0.0-40.0"}}, {"uniqueid": "MTK0632:37UEWGM5HUFSNNQTZUMJUW42F14R1A", "current_trial": 59, "dateTime": 1512575030079, "trialdata": {"rt": -1, "stimulus": "<p id=\"stim\">DAISY</p>", "key_press": -1, "type": "PRES_VIS", "word": "daisy", "wordID": 434, "conditions": [18, 1200, "v", 18000], "trial": 1, "serialpos": 4, "trial_type": "single-stim", "trial_index": 59, "time_elapsed": 2022412, "internal_node_id": "0.0-41.0"}}, {"uniqueid": "MTK0632:37UEWGM5HUFSNNQTZUMJUW42F14R1A", "current_trial": 60, "dateTime": 1512575032153, "trialdata": {"rt": -1, "stimulus": "<p id=\"stim\">VIKING</p>", "key_press": -1, "type": "PRES_VIS", "word": "viking", "wordID": 1564, "conditions": [18, 1200, "v", 18000], "trial": 1, "serialpos": 5, "trial_type": "single-stim", "trial_index": 60, "time_elapsed": 2024486, "internal_node_id": "0.0-42.0"}}, {"uniqueid": "MTK0632:37UEWGM5HUFSNNQTZUMJUW42F14R1A", "current_trial": 61, "dateTime": 1512575034466, "trialdata": {"rt": -1, "stimulus": "<p id=\"stim\">TOURIST</p>", "key_press": -1, "type": "PRES_VIS", "word": "tourist", "wordID": 1487, "conditions": [18, 1200, "v", 18000], "trial": 1, "serialpos": 6, "trial_type": "single-stim", "trial_index": 61, "time_elapsed": 2026799, "internal_node_id": "0.0-43.0"}}, {"uniqueid": "MTK0632:37UEWGM5HUFSNNQTZUMJUW42F14R1A", "current_trial": 62, "dateTime": 1512575036562, "trialdata": {"rt": -1, "stimulus": "<p id=\"stim\">CONVICT</p>", "key_press": -1, "type": "PRES_VIS", "word": "convict", "wordID": 370, "conditions": [18, 1200, "v", 18000], "trial": 1, "serialpos": 7, "trial_type": "single-stim", "trial_index": 62, "time_elapsed": 2028895, "internal_node_id": "0.0-44.0"}}, {"uniqueid": "MTK0632:37UEWGM5HUFSNNQTZUMJUW42F14R1A", "current_trial": 63, "dateTime": 1512575038699, "trialdata": {"rt": -1, "stimulus": "<p id=\"stim\">NECKLACE</p>", "key_press": -1, "type": "PRES_VIS", "word": "necklace", "wordID": 939, "conditions": [18, 1200, "v", 18000], "trial": 1, "serialpos": 8, "trial_type": "single-stim", "trial_index": 63, "time_elapsed": 2031032, "internal_node_id": "0.0-45.0"}}, {"uniqueid": "MTK0632:37UEWGM5HUFSNNQTZUMJUW42F14R1A", "current_trial": 64, "dateTime": 1512575040884, "trialdata": {"rt": -1, "stimulus": "<p id=\"stim\">TART</p>", "key_press": -1, "type": "PRES_VIS", "word": "tart", "wordID": 1435, "conditions": [18, 1200, "v", 18000], "trial": 1, "serialpos": 9, "trial_type": "single-stim", "trial_index": 64, "time_elapsed": 2033217, "internal_node_id": "0.0-46.0"}}, {"uniqueid": "MTK0632:37UEWGM5HUFSNNQTZUMJUW42F14R1A", "current_trial": 65, "dateTime": 1512575043265, "trialdata": {"rt": -1, "stimulus": "<p id=\"stim\">GANGSTER</p>", "key_press": -1, "type": "PRES_VIS", "word": "gangster", "wordID": 619, "conditions": [18, 1200, "v", 18000], "trial": 1, "serialpos": 10, "trial_type": "single-stim", "trial_index": 65, "time_elapsed": 2035598, "internal_node_id": "0.0-47.0"}}, {"uniqueid": "MTK0632:37UEWGM5HUFSNNQTZUMJUW42F14R1A", "current_trial": 66, "dateTime": 1512575045329, "trialdata": {"rt": -1, "stimulus": "<p id=\"stim\">OYSTER</p>", "key_press": -1, "type": "PRES_VIS", "word": "oyster", "wordID": 994, "conditions": [18, 1200, "v", 18000], "trial": 1, "serialpos": 11, "trial_type": "single-stim", "trial_index": 66, "time_elapsed": 2037662, "internal_node_id": "0.0-48.0"}}, {"uniqueid": "MTK0632:37UEWGM5HUFSNNQTZUMJUW42F14R1A", "current_trial": 67, "dateTime": 1512575047391, "trialdata": {"rt": -1, "stimulus": "<p id=\"stim\">ROD</p>", "key_press": -1, "type": "PRES_VIS", "word": "rod", "wordID": 1202, "conditions": [18, 1200, "v", 18000], "trial": 1, "serialpos": 12, "trial_type": "single-stim", "trial_index": 67, "time_elapsed": 2039724, "internal_node_id": "0.0-49.0"}}, {"uniqueid": "MTK0632:37UEWGM5HUFSNNQTZUMJUW42F14R1A", "current_trial": 68, "dateTime": 1512575049621, "trialdata": {"rt": -1, "stimulus": "<p id=\"stim\">TOASTER</p>", "key_press": -1, "type": "PRES_VIS", "word": "toaster", "wordID": 1471, "conditions": [18, 1200, "v", 18000], "trial": 1, "serialpos": 13, "trial_type": "single-stim", "trial_index": 68, "time_elapsed": 2041953, "internal_node_id": "0.0-50.0"}}, {"uniqueid": "MTK0632:37UEWGM5HUFSNNQTZUMJUW42F14R1A", "current_trial": 69, "dateTime": 1512575051847, "trialdata": {"rt": -1, "stimulus": "<p id=\"stim\">PRINCESS</p>", "key_press": -1, "type": "PRES_VIS", "word": "princess", "wordID": 1124, "conditions": [18, 1200, "v", 18000], "trial": 1, "serialpos": 14, "trial_type": "single-stim", "trial_index": 69, "time_elapsed": 2044180, "internal_node_id": "0.0-51.0"}}, {"uniqueid": "MTK0632:37UEWGM5HUFSNNQTZUMJUW42F14R1A", "current_trial": 70, "dateTime": 1512575053881, "trialdata": {"rt": -1, "stimulus": "<p id=\"stim\">KIDNEY</p>", "key_press": -1, "type": "PRES_VIS", "word": "kidney", "wordID": 775, "conditions": [18, 1200, "v", 18000], "trial": 1, "serialpos": 15, "trial_type": "single-stim", "trial_index": 70, "time_elapsed": 2046214, "internal_node_id": "0.0-52.0"}}, {"uniqueid": "MTK0632:37UEWGM5HUFSNNQTZUMJUW42F14R1A", "current_trial": 71, "dateTime": 1512575055974, "trialdata": {"rt": -1, "stimulus": "<p id=\"stim\">PASSAGE</p>", "key_press": -1, "type": "PRES_VIS", "word": "passage", "wordID": 1018, "conditions": [18, 1200, "v", 18000], "trial": 1, "serialpos": 16, "trial_type": "single-stim", "trial_index": 71, "time_elapsed": 2048307, "internal_node_id": "0.0-53.0"}}, {"uniqueid": "MTK0632:37UEWGM5HUFSNNQTZUMJUW42F14R1A", "current_trial": 72, "dateTime": 1512575058255, "trialdata": {"rt": -1, "stimulus": "<p id=\"stim\">RABBIT</p>", "key_press": -1, "type": "PRES_VIS", "word": "rabbit", "wordID": 1151, "conditions": [18, 1200, "v", 18000], "trial": 1, "serialpos": 17, "trial_type": "single-stim", "trial_index": 72, "time_elapsed": 2050588, "internal_node_id": "0.0-54.0"}}, {"uniqueid": "MTK0632:37UEWGM5HUFSNNQTZUMJUW42F14R1A", "current_trial": 73, "dateTime": 1512575060388, "trialdata": {"rt": -1, "stimulus": "", "key_press": -1, "type": "PRE_RECALL_DELAY", "trial_type": "single-stim", "trial_index": 73, "time_elapsed": 2052721, "internal_node_id": "0.0-55.0-0.0"}}, {"uniqueid": "MTK0632:37UEWGM5HUFSNNQTZUMJUW42F14R1A", "current_trial": 74, "dateTime": 1512575060889, "trialdata": {"rt": -1000, "stimulus": "/static/audio/400Hz.wav", "key_press": -1, "type": "PRE_RECALL_ALERT", "trial_type": "single-audio", "trial_index": 74, "time_elapsed": 2053222, "internal_node_id": "0.0-56.0"}}, {"uniqueid": "MTK0632:37UEWGM5HUFSNNQTZUMJUW42F14R1A", "current_trial": 75, "dateTime": 1512575120893, "trialdata": {"rt": [5389, 6372, 7547, 8486, 9536, 10743, 12644, 15227, 17368, 19403, 25825, 27036], "recwords": ["flashlight", "sunrise", "keeper", "dresser", "daisy", "viking", "tourist", "toaster", "gangster", "kidney", "rabbit", "passage"], "type": "FREE_RECALL", "conditions": [18, 1200, "v", 18000], "trial": 1, "trial_type": "free-recall", "trial_index": 75, "time_elapsed": 2113225, "internal_node_id": "0.0-57.0-0.0"}}, {"uniqueid": "MTK0632:37UEWGM5HUFSNNQTZUMJUW42F14R1A", "current_trial": 76, "dateTime": 1512575905526, "trialdata": {"rt": 782631, "key_press": 32, "type": "INSTRUCTIONS", "trial_type": "text", "trial_index": 76, "time_elapsed": 2897857, "internal_node_id": "0.0-58.0"}}, {"uniqueid": "MTK0632:37UEWGM5HUFSNNQTZUMJUW42F14R1A", "current_trial": 77, "dateTime": 1512575918529, "trialdata": {"rt": [1961, 3224, 6315, 7986, 9200, 10573], "responses": ["13", "9", "16", "18", "13", "10"], "num1": [1, 3, 5, 8, 6, 8, 5], "num2": [4, 1, 9, 9, 5, 1, 6], "num3": [8, 5, 2, 1, 2, 1, 8], "type": "DISTRACTOR", "conditions": [12, 800, "a", 12000], "trial": 2, "trial_type": "math-distractor", "trial_index": 77, "time_elapsed": 2910862, "internal_node_id": "0.0-59.0"}}, {"uniqueid": "MTK0632:37UEWGM5HUFSNNQTZUMJUW42F14R1A", "current_trial": 78, "dateTime": 1512575921530, "trialdata": {"rt": -1, "stimulus": "<p id=\"stim\">10</p>", "key_press": -1, "trial_type": "single-stim", "trial_index": 78, "time_elapsed": 2913863, "internal_node_id": "0.0-60.0-0.0"}}, {"uniqueid": "MTK0632:37UEWGM5HUFSNNQTZUMJUW42F14R1A", "current_trial": 79, "dateTime": 1512575922532, "trialdata": {"rt": -1, "stimulus": "<p id=\"stim\">9</p>", "key_press": -1, "trial_type": "single-stim", "trial_index": 79, "time_elapsed": 2914865, "internal_node_id": "0.0-60.0-1.0"}}, {"uniqueid": "MTK0632:37UEWGM5HUFSNNQTZUMJUW42F14R1A", "current_trial": 80, "dateTime": 1512575923532, "trialdata": {"rt": -1, "stimulus": "<p id=\"stim\">8</p>", "key_press": -1, "trial_type": "single-stim", "trial_index": 80, "time_elapsed": 2915865, "internal_node_id": "0.0-60.0-2.0"}}, {"uniqueid": "MTK0632:37UEWGM5HUFSNNQTZUMJUW42F14R1A", "current_trial": 81, "dateTime": 1512575924533, "trialdata": {"rt": -1, "stimulus": "<p id=\"stim\">7</p>", "key_press": -1, "trial_type": "single-stim", "trial_index": 81, "time_elapsed": 2916866, "internal_node_id": "0.0-60.0-3.0"}}, {"uniqueid": "MTK0632:37UEWGM5HUFSNNQTZUMJUW42F14R1A", "current_trial": 82, "dateTime": 1512575925534, "trialdata": {"rt": -1, "stimulus": "<p id=\"stim\">6</p>", "key_press": -1, "trial_type": "single-stim", "trial_index": 82, "time_elapsed": 2917867, "internal_node_id": "0.0-60.0-4.0"}}, {"uniqueid": "MTK0632:37UEWGM5HUFSNNQTZUMJUW42F14R1A", "current_trial": 83, "dateTime": 1512575926536, "trialdata": {"rt": -1, "stimulus": "<p id=\"stim\">5</p>", "key_press": -1, "trial_type": "single-stim", "trial_index": 83, "time_elapsed": 2918869, "internal_node_id": "0.0-60.0-5.0"}}, {"uniqueid": "MTK0632:37UEWGM5HUFSNNQTZUMJUW42F14R1A", "current_trial": 84, "dateTime": 1512575927537, "trialdata": {"rt": -1, "stimulus": "<p id=\"stim\">4</p>", "key_press": -1, "trial_type": "single-stim", "trial_index": 84, "time_elapsed": 2919870, "internal_node_id": "0.0-60.0-6.0"}}, {"uniqueid": "MTK0632:37UEWGM5HUFSNNQTZUMJUW42F14R1A", "current_trial": 85, "dateTime": 1512575928539, "trialdata": {"rt": -1, "stimulus": "<p id=\"stim\">3</p>", "key_press": -1, "trial_type": "single-stim", "trial_index": 85, "time_elapsed": 2920872, "internal_node_id": "0.0-60.0-7.0"}}, {"uniqueid": "MTK0632:37UEWGM5HUFSNNQTZUMJUW42F14R1A", "current_trial": 86, "dateTime": 1512575929541, "trialdata": {"rt": -1, "stimulus": "<p id=\"stim\">2</p>", "key_press": -1, "trial_type": "single-stim", "trial_index": 86, "time_elapsed": 2921874, "internal_node_id": "0.0-60.0-8.0"}}, {"uniqueid": "MTK0632:37UEWGM5HUFSNNQTZUMJUW42F14R1A", "current_trial": 87, "dateTime": 1512575930542, "trialdata": {"rt": -1, "stimulus": "<p id=\"stim\">1</p>", "key_press": -1, "trial_type": "single-stim", "trial_index": 87, "time_elapsed": 2922875, "internal_node_id": "0.0-60.0-9.0"}}, {"uniqueid": "MTK0632:37UEWGM5HUFSNNQTZUMJUW42F14R1A", "current_trial": 88, "dateTime": 1512575932045, "trialdata": {"rt": -1, "stimulus": "<p id=\"stim\">+</p>", "key_press": -1, "type": "FIXATION", "trial_type": "single-stim", "trial_index": 88, "time_elapsed": 2924377, "internal_node_id": "0.0-61.0-0.0"}}, {"uniqueid": "MTK0632:37UEWGM5HUFSNNQTZUMJUW42F14R1A", "current_trial": 89, "dateTime": 1512575933823, "trialdata": {"rt": -1000, "stimulus": "/static/audio/wordpool/BEEF.wav", "key_press": -1, "type": "PRES_AUD", "word": "beef", "wordID": 112, "conditions": [12, 800, "a", 12000], "trial": 2, "serialpos": 0, "trial_type": "single-audio", "trial_index": 89, "time_elapsed": 2926156, "internal_node_id": "0.0-62.0"}}, {"uniqueid": "MTK0632:37UEWGM5HUFSNNQTZUMJUW42F14R1A", "current_trial": 90, "dateTime": 1512575935669, "trialdata": {"rt": -1000, "stimulus": "/static/audio/wordpool/XEROX.wav", "key_press": -1, "type": "PRES_AUD", "word": "xerox", "wordID": 1627, "conditions": [12, 800, "a", 12000], "trial": 2, "serialpos": 1, "trial_type": "single-audio", "trial_index": 90, "time_elapsed": 2928002, "internal_node_id": "0.0-63.0"}}, {"uniqueid": "MTK0632:37UEWGM5HUFSNNQTZUMJUW42F14R1A", "current_trial": 91, "dateTime": 1512575937369, "trialdata": {"rt": -1000, "stimulus": "/static/audio/wordpool/STATUE.wav", "key_press": -1, "type": "PRES_AUD", "word": "statue", "wordID": 1373, "conditions": [12, 800, "a", 12000], "trial": 2, "serialpos": 2, "trial_type": "single-audio", "trial_index": 91, "time_elapsed": 2929702, "internal_node_id": "0.0-64.0"}}, {"uniqueid": "MTK0632:37UEWGM5HUFSNNQTZUMJUW42F14R1A", "current_trial": 92, "dateTime": 1512575939224, "trialdata": {"rt": -1000, "stimulus": "/static/audio/wordpool/POSSUM.wav", "key_press": -1, "type": "PRES_AUD", "word": "possum", "wordID": 1111, "conditions": [12, 800, "a", 12000], "trial": 2, "serialpos": 3, "trial_type": "single-audio", "trial_index": 92, "time_elapsed": 2931557, "internal_node_id": "0.0-65.0"}}, {"uniqueid": "MTK0632:37UEWGM5HUFSNNQTZUMJUW42F14R1A", "current_trial": 93, "dateTime": 1512575941173, "trialdata": {"rt": -1000, "stimulus": "/static/audio/wordpool/SODA.wav", "key_press": -1, "type": "PRES_AUD", "word": "soda", "wordID": 1340, "conditions": [12, 800, "a", 12000], "trial": 2, "serialpos": 4, "trial_type": "single-audio", "trial_index": 93, "time_elapsed": 2933506, "internal_node_id": "0.0-66.0"}}, {"uniqueid": "MTK0632:37UEWGM5HUFSNNQTZUMJUW42F14R1A", "current_trial": 94, "dateTime": 1512575942942, "trialdata": {"rt": -1000, "stimulus": "/static/audio/wordpool/COFFEE.wav", "key_press": -1, "type": "PRES_AUD", "word": "coffee", "wordID": 340, "conditions": [12, 800, "a", 12000], "trial": 2, "serialpos": 5, "trial_type": "single-audio", "trial_index": 94, "time_elapsed": 2935275, "internal_node_id": "0.0-67.0"}}, {"uniqueid": "MTK0632:37UEWGM5HUFSNNQTZUMJUW42F14R1A", "current_trial": 95, "dateTime": 1512575944840, "trialdata": {"rt": -1000, "stimulus": "/static/audio/wordpool/SHIRT.wav", "key_press": -1, "type": "PRES_AUD", "word": "shirt", "wordID": 1286, "conditions": [12, 800, "a", 12000], "trial": 2, "serialpos": 6, "trial_type": "single-audio", "trial_index": 95, "time_elapsed": 2937173, "internal_node_id": "0.0-68.0"}}, {"uniqueid": "MTK0632:37UEWGM5HUFSNNQTZUMJUW42F14R1A", "current_trial": 96, "dateTime": 1512575946446, "trialdata": {"rt": -1000, "stimulus": "/static/audio/wordpool/FRAGRANCE.wav", "key_press": -1, "type": "PRES_AUD", "word": "fragrance", "wordID": 598, "conditions": [12, 800, "a", 12000], "trial": 2, "serialpos": 7, "trial_type": "single-audio", "trial_index": 96, "time_elapsed": 2938779, "internal_node_id": "0.0-69.0"}}, {"uniqueid": "MTK0632:37UEWGM5HUFSNNQTZUMJUW42F14R1A", "current_trial": 97, "dateTime": 1512575948306, "trialdata": {"rt": -1000, "stimulus": "/static/audio/wordpool/LIZARD.wav", "key_press": -1, "type": "PRES_AUD", "word": "lizard", "wordID": 833, "conditions": [12, 800, "a", 12000], "trial": 2, "serialpos": 8, "trial_type": "single-audio", "trial_index": 97, "time_elapsed": 2940639, "internal_node_id": "0.0-70.0"}}, {"uniqueid": "MTK0632:37UEWGM5HUFSNNQTZUMJUW42F14R1A", "current_trial": 98, "dateTime": 1512575950193, "trialdata": {"rt": -1000, "stimulus": "/static/audio/wordpool/SCULPTURE.wav", "key_press": -1, "type": "PRES_AUD", "word": "sculpture", "wordID": 1257, "conditions": [12, 800, "a", 12000], "trial": 2, "serialpos": 9, "trial_type": "single-audio", "trial_index": 98, "time_elapsed": 2942526, "internal_node_id": "0.0-71.0"}}, {"uniqueid": "MTK0632:37UEWGM5HUFSNNQTZUMJUW42F14R1A", "current_trial": 99, "dateTime": 1512575951972, "trialdata": {"rt": -1000, "stimulus": "/static/audio/wordpool/SCALPEL.wav", "key_press": -1, "type": "PRES_AUD", "word": "scalpel", "wordID": 1242, "conditions": [12, 800, "a", 12000], "trial": 2, "serialpos": 10, "trial_type": "single-audio", "trial_index": 99, "time_elapsed": 2944305, "internal_node_id": "0.0-72.0"}}, {"uniqueid": "MTK0632:37UEWGM5HUFSNNQTZUMJUW42F14R1A", "current_trial": 100, "dateTime": 1512575953576, "trialdata": {"rt": -1000, "stimulus": "/static/audio/wordpool/SPONGE.wav", "key_press": -1, "type": "PRES_AUD", "word": "sponge", "wordID": 1354, "conditions": [12, 800, "a", 12000], "trial": 2, "serialpos": 11, "trial_type": "single-audio", "trial_index": 100, "time_elapsed": 2945909, "internal_node_id": "0.0-73.0"}}, {"uniqueid": "MTK0632:37UEWGM5HUFSNNQTZUMJUW42F14R1A", "current_trial": 101, "dateTime": 1512575954870, "trialdata": {"rt": -1, "stimulus": "", "key_press": -1, "type": "PRE_RECALL_DELAY", "trial_type": "single-stim", "trial_index": 101, "time_elapsed": 2947203, "internal_node_id": "0.0-74.0-0.0"}}, {"uniqueid": "MTK0632:37UEWGM5HUFSNNQTZUMJUW42F14R1A", "current_trial": 102, "dateTime": 1512575955371, "trialdata": {"rt": -1000, "stimulus": "/static/audio/400Hz.wav", "key_press": -1, "type": "PRE_RECALL_ALERT", "trial_type": "single-audio", "trial_index": 102, "time_elapsed": 2947704, "internal_node_id": "0.0-75.0"}}, {"uniqueid": "MTK0632:37UEWGM5HUFSNNQTZUMJUW42F14R1A", "current_trial": 103, "dateTime": 1512576015374, "trialdata": {"rt": [2187, 2948, 3531, 4347, 5892, 8758, 11053, 12681, 14827, 15902], "recwords": ["beef", "xerox", "statue", "possum", "soda", "coffee", "lizard", "sculpture", "scalpel", "sponge"], "type": "FREE_RECALL", "conditions": [12, 800, "a", 12000], "trial": 2, "trial_type": "free-recall", "trial_index": 103, "time_elapsed": 3007705, "internal_node_id": "0.0-76.0-0.0"}}, {"uniqueid": "MTK0632:37UEWGM5HUFSNNQTZUMJUW42F14R1A", "current_trial": 104, "dateTime": 1512576019377, "trialdata": {"rt": 2002, "key_press": 70, "type": "INSTRUCTIONS", "trial_type": "text", "trial_index": 104, "time_elapsed": 3011710, "internal_node_id": "0.0-77.0"}}, {"uniqueid": "MTK0632:37UEWGM5HUFSNNQTZUMJUW42F14R1A", "current_trial": 105, "dateTime": 1512576033379, "trialdata": {"rt": [2061, 3803, 5564, 7103, 9873, 11017], "responses": ["12", "8", "22", "16", "12", "7"], "num1": [9, 2, 6, 2, 1, 4, 2], "num2": [2, 2, 7, 4, 6, 2, 2], "num3": [1, 4, 9, 8, 5, 1, 4], "type": "DISTRACTOR", "conditions": [24, 800, "a", 12000], "trial": 3, "trial_type": "math-distractor", "trial_index": 105, "time_elapsed": 3025712, "internal_node_id": "0.0-78.0"}}, {"uniqueid": "MTK0632:37UEWGM5HUFSNNQTZUMJUW42F14R1A", "current_trial": 106, "dateTime": 1512576036380, "trialdata": {"rt": -1, "stimulus": "<p id=\"stim\">10</p>", "key_press": -1, "trial_type": "single-stim", "trial_index": 106, "time_elapsed": 3028713, "internal_node_id": "0.0-79.0-0.0"}}, {"uniqueid": "MTK0632:37UEWGM5HUFSNNQTZUMJUW42F14R1A", "current_trial": 107, "dateTime": 1512576037382, "trialdata": {"rt": -1, "stimulus": "<p id=\"stim\">9</p>", "key_press": -1, "trial_type": "single-stim", "trial_index": 107, "time_elapsed": 3029715, "internal_node_id": "0.0-79.0-1.0"}}, {"uniqueid": "MTK0632:37UEWGM5HUFSNNQTZUMJUW42F14R1A", "current_trial": 108, "dateTime": 1512576038383, "trialdata": {"rt": -1, "stimulus": "<p id=\"stim\">8</p>", "key_press": -1, "trial_type": "single-stim", "trial_index": 108, "time_elapsed": 3030716, "internal_node_id": "0.0-79.0-2.0"}}, {"uniqueid": "MTK0632:37UEWGM5HUFSNNQTZUMJUW42F14R1A", "current_trial": 109, "dateTime": 1512576039383, "trialdata": {"rt": -1, "stimulus": "<p id=\"stim\">7</p>", "key_press": -1, "trial_type": "single-stim", "trial_index": 109, "time_elapsed": 3031716, "internal_node_id": "0.0-79.0-3.0"}}, {"uniqueid": "MTK0632:37UEWGM5HUFSNNQTZUMJUW42F14R1A", "current_trial": 110, "dateTime": 1512576040385, "trialdata": {"rt": -1, "stimulus": "<p id=\"stim\">6</p>", "key_press": -1, "trial_type": "single-stim", "trial_index": 110, "time_elapsed": 3032718, "internal_node_id": "0.0-79.0-4.0"}}, {"uniqueid": "MTK0632:37UEWGM5HUFSNNQTZUMJUW42F14R1A", "current_trial": 111, "dateTime": 1512576041386, "trialdata": {"rt": -1, "stimulus": "<p id=\"stim\">5</p>", "key_press": -1, "trial_type": "single-stim", "trial_index": 111, "time_elapsed": 3033719, "internal_node_id": "0.0-79.0-5.0"}}, {"uniqueid": "MTK0632:37UEWGM5HUFSNNQTZUMJUW42F14R1A", "current_trial": 112, "dateTime": 1512576042387, "trialdata": {"rt": -1, "stimulus": "<p id=\"stim\">4</p>", "key_press": -1, "trial_type": "single-stim", "trial_index": 112, "time_elapsed": 3034720, "internal_node_id": "0.0-79.0-6.0"}}, {"uniqueid": "MTK0632:37UEWGM5HUFSNNQTZUMJUW42F14R1A", "current_trial": 113, "dateTime": 1512576043388, "trialdata": {"rt": -1, "stimulus": "<p id=\"stim\">3</p>", "key_press": -1, "trial_type": "single-stim", "trial_index": 113, "time_elapsed": 3035721, "internal_node_id": "0.0-79.0-7.0"}}, {"uniqueid": "MTK0632:37UEWGM5HUFSNNQTZUMJUW42F14R1A", "current_trial": 114, "dateTime": 1512576044389, "trialdata": {"rt": -1, "stimulus": "<p id=\"stim\">2</p>", "key_press": -1, "trial_type": "single-stim", "trial_index": 114, "time_elapsed": 3036722, "internal_node_id": "0.0-79.0-8.0"}}, {"uniqueid": "MTK0632:37UEWGM5HUFSNNQTZUMJUW42F14R1A", "current_trial": 115, "dateTime": 1512576045390, "trialdata": {"rt": -1, "stimulus": "<p id=\"stim\">1</p>", "key_press": -1, "trial_type": "single-stim", "trial_index": 115, "time_elapsed": 3037723, "internal_node_id": "0.0-79.0-9.0"}}, {"uniqueid": "MTK0632:37UEWGM5HUFSNNQTZUMJUW42F14R1A", "current_trial": 116, "dateTime": 1512576046891, "trialdata": {"rt": -1, "stimulus": "<p id=\"stim\">+</p>", "key_press": -1, "type": "FIXATION", "trial_type": "single-stim", "trial_index": 116, "time_elapsed": 3039224, "internal_node_id": "0.0-80.0-0.0"}}, {"uniqueid": "MTK0632:37UEWGM5HUFSNNQTZUMJUW42F14R1A", "current_trial": 117, "dateTime": 1512576048752, "trialdata": {"rt": -1000, "stimulus": "/static/audio/wordpool/SHORTCAKE.wav", "key_press": -1, "type": "PRES_AUD", "word": "shortcake", "wordID": 1291, "conditions": [24, 800, "a", 12000], "trial": 3, "serialpos": 0, "trial_type": "single-audio", "trial_index": 117, "time_elapsed": 3041085, "internal_node_id": "0.0-81.0"}}, {"uniqueid": "MTK0632:37UEWGM5HUFSNNQTZUMJUW42F14R1A", "current_trial": 118, "dateTime": 1512576050628, "trialdata": {"rt": -1000, "stimulus": "/static/audio/wordpool/HARP.wav", "key_press": -1, "type": "PRES_AUD", "word": "harp", "wordID": 688, "conditions": [24, 800, "a", 12000], "trial": 3, "serialpos": 1, "trial_type": "single-audio", "trial_index": 118, "time_elapsed": 3042960, "internal_node_id": "0.0-82.0"}}, {"uniqueid": "MTK0632:37UEWGM5HUFSNNQTZUMJUW42F14R1A", "current_trial": 119, "dateTime": 1512576052547, "trialdata": {"rt": -1000, "stimulus": "/static/audio/wordpool/BARLEY.wav", "key_press": -1, "type": "PRES_AUD", "word": "barley", "wordID": 87, "conditions": [24, 800, "a", 12000], "trial": 3, "serialpos": 2, "trial_type": "single-audio", "trial_index": 119, "time_elapsed": 3044880, "internal_node_id": "0.0-83.0"}}, {"uniqueid": "MTK0632:37UEWGM5HUFSNNQTZUMJUW42F14R1A", "current_trial": 120, "dateTime": 1512576054302, "trialdata": {"rt": -1000, "stimulus": "/static/audio/wordpool/TOMBSTONE.wav", "key_press": -1, "type": "PRES_AUD", "word": "tombstone", "wordID": 1477, "conditions": [24, 800, "a", 12000], "trial": 3, "serialpos": 3, "trial_type": "single-audio", "trial_index": 120, "time_elapsed": 3046635, "internal_node_id": "0.0-84.0"}}, {"uniqueid": "MTK0632:37UEWGM5HUFSNNQTZUMJUW42F14R1A", "current_trial": 121, "dateTime": 1512576055919, "trialdata": {"rt": -1000, "stimulus": "/static/audio/wordpool/SCARF.wav", "key_press": -1, "type": "PRES_AUD", "word": "scarf", "wordID": 1245, "conditions": [24, 800, "a", 12000], "trial": 3, "serialpos": 4, "trial_type": "single-audio", "trial_index": 121, "time_elapsed": 3048252, "internal_node_id": "0.0-85.0"}}, {"uniqueid": "MTK0632:37UEWGM5HUFSNNQTZUMJUW42F14R1A", "current_trial": 122, "dateTime": 1512576057817, "trialdata": {"rt": -1000, "stimulus": "/static/audio/wordpool/WARDROBE.wav", "key_press": -1, "type": "PRES_AUD", "word": "wardrobe", "wordID": 1586, "conditions": [24, 800, "a", 12000], "trial": 3, "serialpos": 5, "trial_type": "single-audio", "trial_index": 122, "time_elapsed": 3050150, "internal_node_id": "0.0-86.0"}}, {"uniqueid": "MTK0632:37UEWGM5HUFSNNQTZUMJUW42F14R1A", "current_trial": 123, "dateTime": 1512576059539, "trialdata": {"rt": -1000, "stimulus": "/static/audio/wordpool/CASKET.wav", "key_press": -1, "type": "PRES_AUD", "word": "casket", "wordID": 254, "conditions": [24, 800, "a", 12000], "trial": 3, "serialpos": 6, "trial_type": "single-audio", "trial_index": 123, "time_elapsed": 3051872, "internal_node_id": "0.0-87.0"}}, {"uniqueid": "MTK0632:37UEWGM5HUFSNNQTZUMJUW42F14R1A", "current_trial": 124, "dateTime": 1512576061156, "trialdata": {"rt": -1000, "stimulus": "/static/audio/wordpool/WAITER.wav", "key_press": -1, "type": "PRES_AUD", "word": "waiter", "wordID": 1579, "conditions": [24, 800, "a", 12000], "trial": 3, "serialpos": 7, "trial_type": "single-audio", "trial_index": 124, "time_elapsed": 3053489, "internal_node_id": "0.0-88.0"}}, {"uniqueid": "MTK0632:37UEWGM5HUFSNNQTZUMJUW42F14R1A", "current_trial": 125, "dateTime": 1512576062780, "trialdata": {"rt": -1000, "stimulus": "/static/audio/wordpool/APPLE.wav", "key_press": -1, "type": "PRES_AUD", "word": "apple", "wordID": 32, "conditions": [24, 800, "a", 12000], "trial": 3, "serialpos": 8, "trial_type": "single-audio", "trial_index": 125, "time_elapsed": 3055113, "internal_node_id": "0.0-89.0"}}, {"uniqueid": "MTK0632:37UEWGM5HUFSNNQTZUMJUW42F14R1A", "current_trial": 126, "dateTime": 1512576064533, "trialdata": {"rt": -1000, "stimulus": "/static/audio/wordpool/WORLD.wav", "key_press": -1, "type": "PRES_AUD", "word": "world", "wordID": 1621, "conditions": [24, 800, "a", 12000], "trial": 3, "serialpos": 9, "trial_type": "single-audio", "trial_index": 126, "time_elapsed": 3056866, "internal_node_id": "0.0-90.0"}}, {"uniqueid": "MTK0632:37UEWGM5HUFSNNQTZUMJUW42F14R1A", "current_trial": 127, "dateTime": 1512576066163, "trialdata": {"rt": -1000, "stimulus": "/static/audio/wordpool/BRANDY.wav", "key_press": -1, "type": "PRES_AUD", "word": "brandy", "wordID": 168, "conditions": [24, 800, "a", 12000], "trial": 3, "serialpos": 10, "trial_type": "single-audio", "trial_index": 127, "time_elapsed": 3058496, "internal_node_id": "0.0-91.0"}}, {"uniqueid": "MTK0632:37UEWGM5HUFSNNQTZUMJUW42F14R1A", "current_trial": 128, "dateTime": 1512576068105, "trialdata": {"rt": -1000, "stimulus": "/static/audio/wordpool/SCOTCH.wav", "key_press": -1, "type": "PRES_AUD", "word": "scotch", "wordID": 1250, "conditions": [24, 800, "a", 12000], "trial": 3, "serialpos": 11, "trial_type": "single-audio", "trial_index": 128, "time_elapsed": 3060438, "internal_node_id": "0.0-92.0"}}, {"uniqueid": "MTK0632:37UEWGM5HUFSNNQTZUMJUW42F14R1A", "current_trial": 129, "dateTime": 1512576070033, "trialdata": {"rt": -1000, "stimulus": "/static/audio/wordpool/SKILLET.wav", "key_press": -1, "type": "PRES_AUD", "word": "skillet", "wordID": 1316, "conditions": [24, 800, "a", 12000], "trial": 3, "serialpos": 12, "trial_type": "single-audio", "trial_index": 129, "time_elapsed": 3062365, "internal_node_id": "0.0-93.0"}}, {"uniqueid": "MTK0632:37UEWGM5HUFSNNQTZUMJUW42F14R1A", "current_trial": 130, "dateTime": 1512576071906, "trialdata": {"rt": -1000, "stimulus": "/static/audio/wordpool/ZIPPER.wav", "key_press": -1, "type": "PRES_AUD", "word": "zipper", "wordID": 1635, "conditions": [24, 800, "a", 12000], "trial": 3, "serialpos": 13, "trial_type": "single-audio", "trial_index": 130, "time_elapsed": 3064239, "internal_node_id": "0.0-94.0"}}, {"uniqueid": "MTK0632:37UEWGM5HUFSNNQTZUMJUW42F14R1A", "current_trial": 131, "dateTime": 1512576073698, "trialdata": {"rt": -1000, "stimulus": "/static/audio/wordpool/GUITAR.wav", "key_press": -1, "type": "PRES_AUD", "word": "guitar", "wordID": 669, "conditions": [24, 800, "a", 12000], "trial": 3, "serialpos": 14, "trial_type": "single-audio", "trial_index": 131, "time_elapsed": 3066031, "internal_node_id": "0.0-95.0"}}, {"uniqueid": "MTK0632:37UEWGM5HUFSNNQTZUMJUW42F14R1A", "current_trial": 132, "dateTime": 1512576075689, "trialdata": {"rt": -1000, "stimulus": "/static/audio/wordpool/SCRIBBLE.wav", "key_press": -1, "type": "PRES_AUD", "word": "scribble", "wordID": 1255, "conditions": [24, 800, "a", 12000], "trial": 3, "serialpos": 15, "trial_type": "single-audio", "trial_index": 132, "time_elapsed": 3068022, "internal_node_id": "0.0-96.0"}}, {"uniqueid": "MTK0632:37UEWGM5HUFSNNQTZUMJUW42F14R1A", "current_trial": 133, "dateTime": 1512576077517, "trialdata": {"rt": -1000, "stimulus": "/static/audio/wordpool/JURY.wav", "key_press": -1, "type": "PRES_AUD", "word": "jury", "wordID": 765, "conditions": [24, 800, "a", 12000], "trial": 3, "serialpos": 16, "trial_type": "single-audio", "trial_index": 133, "time_elapsed": 3069850, "internal_node_id": "0.0-97.0"}}, {"uniqueid": "MTK0632:37UEWGM5HUFSNNQTZUMJUW42F14R1A", "current_trial": 134, "dateTime": 1512576079356, "trialdata": {"rt": -1000, "stimulus": "/static/audio/wordpool/ROBBER.wav", "key_press": -1, "type": "PRES_AUD", "word": "robber", "wordID": 1196, "conditions": [24, 800, "a", 12000], "trial": 3, "serialpos": 17, "trial_type": "single-audio", "trial_index": 134, "time_elapsed": 3071689, "internal_node_id": "0.0-98.0"}}, {"uniqueid": "MTK0632:37UEWGM5HUFSNNQTZUMJUW42F14R1A", "current_trial": 135, "dateTime": 1512576081103, "trialdata": {"rt": -1000, "stimulus": "/static/audio/wordpool/CASHIER.wav", "key_press": -1, "type": "PRES_AUD", "word": "cashier", "wordID": 253, "conditions": [24, 800, "a", 12000], "trial": 3, "serialpos": 18, "trial_type": "single-audio", "trial_index": 135, "time_elapsed": 3073436, "internal_node_id": "0.0-99.0"}}, {"uniqueid": "MTK0632:37UEWGM5HUFSNNQTZUMJUW42F14R1A", "current_trial": 136, "dateTime": 1512576082973, "trialdata": {"rt": -1000, "stimulus": "/static/audio/wordpool/PALACE.wav", "key_press": -1, "type": "PRES_AUD", "word": "palace", "wordID": 1005, "conditions": [24, 800, "a", 12000], "trial": 3, "serialpos": 19, "trial_type": "single-audio", "trial_index": 136, "time_elapsed": 3075306, "internal_node_id": "0.0-100.0"}}, {"uniqueid": "MTK0632:37UEWGM5HUFSNNQTZUMJUW42F14R1A", "current_trial": 137, "dateTime": 1512576084830, "trialdata": {"rt": -1000, "stimulus": "/static/audio/wordpool/LEG.wav", "key_press": -1, "type": "PRES_AUD", "word": "leg", "wordID": 808, "conditions": [24, 800, "a", 12000], "trial": 3, "serialpos": 20, "trial_type": "single-audio", "trial_index": 137, "time_elapsed": 3077163, "internal_node_id": "0.0-101.0"}}, {"uniqueid": "MTK0632:37UEWGM5HUFSNNQTZUMJUW42F14R1A", "current_trial": 138, "dateTime": 1512576086825, "trialdata": {"rt": -1000, "stimulus": "/static/audio/wordpool/BLADE.wav", "key_press": -1, "type": "PRES_AUD", "word": "blade", "wordID": 133, "conditions": [24, 800, "a", 12000], "trial": 3, "serialpos": 21, "trial_type": "single-audio", "trial_index": 138, "time_elapsed": 3079158, "internal_node_id": "0.0-102.0"}}, {"uniqueid": "MTK0632:37UEWGM5HUFSNNQTZUMJUW42F14R1A", "current_trial": 139, "dateTime": 1512576088751, "trialdata": {"rt": -1000, "stimulus": "/static/audio/wordpool/RADISH.wav", "key_press": -1, "type": "PRES_AUD", "word": "radish", "wordID": 1157, "conditions": [24, 800, "a", 12000], "trial": 3, "serialpos": 22, "trial_type": "single-audio", "trial_index": 139, "time_elapsed": 3081084, "internal_node_id": "0.0-103.0"}}, {"uniqueid": "MTK0632:37UEWGM5HUFSNNQTZUMJUW42F14R1A", "current_trial": 140, "dateTime": 1512576090744, "trialdata": {"rt": -1000, "stimulus": "/static/audio/wordpool/JUDGE.wav", "key_press": -1, "type": "PRES_AUD", "word": "judge", "wordID": 760, "conditions": [24, 800, "a", 12000], "trial": 3, "serialpos": 23, "trial_type": "single-audio", "trial_index": 140, "time_elapsed": 3083076, "internal_node_id": "0.0-104.0"}}, {"uniqueid": "MTK0632:37UEWGM5HUFSNNQTZUMJUW42F14R1A", "current_trial": 141, "dateTime": 1512576092115, "trialdata": {"rt": -1, "stimulus": "", "key_press": -1, "type": "PRE_RECALL_DELAY", "trial_type": "single-stim", "trial_index": 141, "time_elapsed": 3084448, "internal_node_id": "0.0-105.0-0.0"}}, {"uniqueid": "MTK0632:37UEWGM5HUFSNNQTZUMJUW42F14R1A", "current_trial": 142, "dateTime": 1512576092616, "trialdata": {"rt": -1000, "stimulus": "/static/audio/400Hz.wav", "key_press": -1, "type": "PRE_RECALL_ALERT", "trial_type": "single-audio", "trial_index": 142, "time_elapsed": 3084949, "internal_node_id": "0.0-106.0"}}, {"uniqueid": "MTK0632:37UEWGM5HUFSNNQTZUMJUW42F14R1A", "current_trial": 143, "dateTime": 1512576152619, "trialdata": {"rt": [5033, 7093, 8220, 9387, 10017, 11440, 12438, 13482, 14357, 15638, 17256, 18417, 20131, 20854], "recwords": ["scarf", "wardrobe", "scasket", "guitar", "jury", "cashier", "robber", "palace", "radish", "skillet", "scotch", "brandy", "world", "apple"], "type": "FREE_RECALL", "conditions": [24, 800, "a", 12000], "trial": 3, "trial_type": "free-recall", "trial_index": 143, "time_elapsed": 3144951, "internal_node_id": "0.0-107.0-0.0"}}, {"uniqueid": "MTK0632:37UEWGM5HUFSNNQTZUMJUW42F14R1A", "current_trial": 144, "dateTime": 1512576289763, "trialdata": {"rt": 135142, "key_press": 74, "type": "INSTRUCTIONS", "trial_type": "text", "trial_index": 144, "time_elapsed": 3282096, "internal_node_id": "0.0-108.0"}}, {"uniqueid": "MTK0632:37UEWGM5HUFSNNQTZUMJUW42F14R1A", "current_trial": 145, "dateTime": 1512576315765, "trialdata": {"rt": [6105, 7435, 8485, 9556, 10958, 12037, 13181, 14340, 15568, 16770, 19271, 20542, 22433], "responses": ["22", "16", "11", "13", "15", "8", "10", "11", "16", "22", "22", "13", "19"], "num1": [9, 6, 1, 3, 7, 3, 1, 1, 6, 7, 7, 7, 6, 5], "num2": [4, 2, 7, 8, 1, 3, 3, 8, 3, 8, 8, 1, 4, 6], "num3": [9, 8, 3, 2, 7, 2, 6, 2, 7, 7, 7, 5, 9, 6], "type": "DISTRACTOR", "conditions": [12, 800, "v", 24000], "trial": 4, "trial_type": "math-distractor", "trial_index": 145, "time_elapsed": 3308098, "internal_node_id": "0.0-109.0"}}, {"uniqueid": "MTK0632:37UEWGM5HUFSNNQTZUMJUW42F14R1A", "current_trial": 146, "dateTime": 1512576318766, "trialdata": {"rt": -1, "stimulus": "<p id=\"stim\">10</p>", "key_press": -1, "trial_type": "single-stim", "trial_index": 146, "time_elapsed": 3311099, "internal_node_id": "0.0-110.0-0.0"}}, {"uniqueid": "MTK0632:37UEWGM5HUFSNNQTZUMJUW42F14R1A", "current_trial": 147, "dateTime": 1512576319768, "trialdata": {"rt": -1, "stimulus": "<p id=\"stim\">9</p>", "key_press": -1, "trial_type": "single-stim", "trial_index": 147, "time_elapsed": 3312100, "internal_node_id": "0.0-110.0-1.0"}}, {"uniqueid": "MTK0632:37UEWGM5HUFSNNQTZUMJUW42F14R1A", "current_trial": 148, "dateTime": 1512576320769, "trialdata": {"rt": -1, "stimulus": "<p id=\"stim\">8</p>", "key_press": -1, "trial_type": "single-stim", "trial_index": 148, "time_elapsed": 3313102, "internal_node_id": "0.0-110.0-2.0"}}, {"uniqueid": "MTK0632:37UEWGM5HUFSNNQTZUMJUW42F14R1A", "current_trial": 149, "dateTime": 1512576321770, "trialdata": {"rt": -1, "stimulus": "<p id=\"stim\">7</p>", "key_press": -1, "trial_type": "single-stim", "trial_index": 149, "time_elapsed": 3314103, "internal_node_id": "0.0-110.0-3.0"}}, {"uniqueid": "MTK0632:37UEWGM5HUFSNNQTZUMJUW42F14R1A", "current_trial": 150, "dateTime": 1512576322770, "trialdata": {"rt": -1, "stimulus": "<p id=\"stim\">6</p>", "key_press": -1, "trial_type": "single-stim", "trial_index": 150, "time_elapsed": 3315103, "internal_node_id": "0.0-110.0-4.0"}}, {"uniqueid": "MTK0632:37UEWGM5HUFSNNQTZUMJUW42F14R1A", "current_trial": 151, "dateTime": 1512576323772, "trialdata": {"rt": -1, "stimulus": "<p id=\"stim\">5</p>", "key_press": -1, "trial_type": "single-stim", "trial_index": 151, "time_elapsed": 3316104, "internal_node_id": "0.0-110.0-5.0"}}, {"uniqueid": "MTK0632:37UEWGM5HUFSNNQTZUMJUW42F14R1A", "current_trial": 152, "dateTime": 1512576324772, "trialdata": {"rt": -1, "stimulus": "<p id=\"stim\">4</p>", "key_press": -1, "trial_type": "single-stim", "trial_index": 152, "time_elapsed": 3317105, "internal_node_id": "0.0-110.0-6.0"}}, {"uniqueid": "MTK0632:37UEWGM5HUFSNNQTZUMJUW42F14R1A", "current_trial": 153, "dateTime": 1512576325773, "trialdata": {"rt": -1, "stimulus": "<p id=\"stim\">3</p>", "key_press": -1, "trial_type": "single-stim", "trial_index": 153, "time_elapsed": 3318106, "internal_node_id": "0.0-110.0-7.0"}}, {"uniqueid": "MTK0632:37UEWGM5HUFSNNQTZUMJUW42F14R1A", "current_trial": 154, "dateTime": 1512576326774, "trialdata": {"rt": -1, "stimulus": "<p id=\"stim\">2</p>", "key_press": -1, "trial_type": "single-stim", "trial_index": 154, "time_elapsed": 3319107, "internal_node_id": "0.0-110.0-8.0"}}, {"uniqueid": "MTK0632:37UEWGM5HUFSNNQTZUMJUW42F14R1A", "current_trial": 155, "dateTime": 1512576327775, "trialdata": {"rt": -1, "stimulus": "<p id=\"stim\">1</p>", "key_press": -1, "trial_type": "single-stim", "trial_index": 155, "time_elapsed": 3320108, "internal_node_id": "0.0-110.0-9.0"}}, {"uniqueid": "MTK0632:37UEWGM5HUFSNNQTZUMJUW42F14R1A", "current_trial": 156, "dateTime": 1512576329276, "trialdata": {"rt": -1, "stimulus": "<p id=\"stim\">+</p>", "key_press": -1, "type": "FIXATION", "trial_type": "single-stim", "trial_index": 156, "time_elapsed": 3321609, "internal_node_id": "0.0-111.0-0.0"}}, {"uniqueid": "MTK0632:37UEWGM5HUFSNNQTZUMJUW42F14R1A", "current_trial": 157, "dateTime": 1512576330077, "trialdata": {"rt": -1, "stimulus": "<p id=\"stim\">SILK</p>", "key_press": -1, "type": "PRES_VIS", "word": "silk", "wordID": 1306, "conditions": [12, 800, "v", 24000], "trial": 4, "serialpos": 0, "trial_type": "single-stim", "trial_index": 157, "time_elapsed": 3322410, "internal_node_id": "0.0-112.0"}}, {"uniqueid": "MTK0632:37UEWGM5HUFSNNQTZUMJUW42F14R1A", "current_trial": 158, "dateTime": 1512576331928, "trialdata": {"rt": -1, "stimulus": "<p id=\"stim\">BRACES</p>", "key_press": -1, "type": "PRES_VIS", "word": "braces", "wordID": 163, "conditions": [12, 800, "v", 24000], "trial": 4, "serialpos": 1, "trial_type": "single-stim", "trial_index": 158, "time_elapsed": 3324261, "internal_node_id": "0.0-113.0"}}, {"uniqueid": "MTK0632:37UEWGM5HUFSNNQTZUMJUW42F14R1A", "current_trial": 159, "dateTime": 1512576333866, "trialdata": {"rt": -1, "stimulus": "<p id=\"stim\">MARS</p>", "key_press": -1, "type": "PRES_VIS", "word": "mars", "wordID": 872, "conditions": [12, 800, "v", 24000], "trial": 4, "serialpos": 2, "trial_type": "single-stim", "trial_index": 159, "time_elapsed": 3326199, "internal_node_id": "0.0-114.0"}}, {"uniqueid": "MTK0632:37UEWGM5HUFSNNQTZUMJUW42F14R1A", "current_trial": 160, "dateTime": 1512576335561, "trialdata": {"rt": -1, "stimulus": "<p id=\"stim\">SLUG</p>", "key_press": -1, "type": "PRES_VIS", "word": "slug", "wordID": 1328, "conditions": [12, 800, "v", 24000], "trial": 4, "serialpos": 3, "trial_type": "single-stim", "trial_index": 160, "time_elapsed": 3327894, "internal_node_id": "0.0-115.0"}}, {"uniqueid": "MTK0632:37UEWGM5HUFSNNQTZUMJUW42F14R1A", "current_trial": 161, "dateTime": 1512576337420, "trialdata": {"rt": -1, "stimulus": "<p id=\"stim\">KITCHEN</p>", "key_press": -1, "type": "PRES_VIS", "word": "kitchen", "wordID": 777, "conditions": [12, 800, "v", 24000], "trial": 4, "serialpos": 4, "trial_type": "single-stim", "trial_index": 161, "time_elapsed": 3329752, "internal_node_id": "0.0-116.0"}}, {"uniqueid": "MTK0632:37UEWGM5HUFSNNQTZUMJUW42F14R1A", "current_trial": 162, "dateTime": 1512576339269, "trialdata": {"rt": -1, "stimulus": "<p id=\"stim\">FIREPLACE</p>", "key_press": -1, "type": "PRES_VIS", "word": "fireplace", "wordID": 569, "conditions": [12, 800, "v", 24000], "trial": 4, "serialpos": 5, "trial_type": "single-stim", "trial_index": 162, "time_elapsed": 3331602, "internal_node_id": "0.0-117.0"}}, {"uniqueid": "MTK0632:37UEWGM5HUFSNNQTZUMJUW42F14R1A", "current_trial": 163, "dateTime": 1512576341003, "trialdata": {"rt": -1, "stimulus": "<p id=\"stim\">QUAIL</p>", "key_press": -1, "type": "PRES_VIS", "word": "quail", "wordID": 1146, "conditions": [12, 800, "v", 24000], "trial": 4, "serialpos": 6, "trial_type": "single-stim", "trial_index": 163, "time_elapsed": 3333336, "internal_node_id": "0.0-118.0"}}, {"uniqueid": "MTK0632:37UEWGM5HUFSNNQTZUMJUW42F14R1A", "current_trial": 164, "dateTime": 1512576342850, "trialdata": {"rt": -1, "stimulus": "<p id=\"stim\">VIRUS</p>", "key_press": -1, "type": "PRES_VIS", "word": "virus", "wordID": 1571, "conditions": [12, 800, "v", 24000], "trial": 4, "serialpos": 7, "trial_type": "single-stim", "trial_index": 164, "time_elapsed": 3335183, "internal_node_id": "0.0-119.0"}}, {"uniqueid": "MTK0632:37UEWGM5HUFSNNQTZUMJUW42F14R1A", "current_trial": 165, "dateTime": 1512576344483, "trialdata": {"rt": -1, "stimulus": "<p id=\"stim\">STOMACH</p>", "key_press": -1, "type": "PRES_VIS", "word": "stomach", "wordID": 1383, "conditions": [12, 800, "v", 24000], "trial": 4, "serialpos": 8, "trial_type": "single-stim", "trial_index": 165, "time_elapsed": 3336816, "internal_node_id": "0.0-120.0"}}, {"uniqueid": "MTK0632:37UEWGM5HUFSNNQTZUMJUW42F14R1A", "current_trial": 166, "dateTime": 1512576346413, "trialdata": {"rt": -1, "stimulus": "<p id=\"stim\">TYPIST</p>", "key_press": -1, "type": "PRES_VIS", "word": "typist", "wordID": 1531, "conditions": [12, 800, "v", 24000], "trial": 4, "serialpos": 9, "trial_type": "single-stim", "trial_index": 166, "time_elapsed": 3338746, "internal_node_id": "0.0-121.0"}}, {"uniqueid": "MTK0632:37UEWGM5HUFSNNQTZUMJUW42F14R1A", "current_trial": 167, "dateTime": 1512576348238, "trialdata": {"rt": -1, "stimulus": "<p id=\"stim\">LUMBER</p>", "key_press": -1, "type": "PRES_VIS", "word": "lumber", "wordID": 847, "conditions": [12, 800, "v", 24000], "trial": 4, "serialpos": 10, "trial_type": "single-stim", "trial_index": 167, "time_elapsed": 3340571, "internal_node_id": "0.0-122.0"}}, {"uniqueid": "MTK0632:37UEWGM5HUFSNNQTZUMJUW42F14R1A", "current_trial": 168, "dateTime": 1512576349903, "trialdata": {"rt": -1, "stimulus": "<p id=\"stim\">TURKEY</p>", "key_press": -1, "type": "PRES_VIS", "word": "turkey", "wordID": 1519, "conditions": [12, 800, "v", 24000], "trial": 4, "serialpos": 11, "trial_type": "single-stim", "trial_index": 168, "time_elapsed": 3342235, "internal_node_id": "0.0-123.0"}}, {"uniqueid": "MTK0632:37UEWGM5HUFSNNQTZUMJUW42F14R1A", "current_trial": 169, "dateTime": 1512576351957, "trialdata": {"rt": -1, "stimulus": "", "key_press": -1, "type": "PRE_RECALL_DELAY", "trial_type": "single-stim", "trial_index": 169, "time_elapsed": 3344290, "internal_node_id": "0.0-124.0-0.0"}}, {"uniqueid": "MTK0632:37UEWGM5HUFSNNQTZUMJUW42F14R1A", "current_trial": 170, "dateTime": 1512576352458, "trialdata": {"rt": -1000, "stimulus": "/static/audio/400Hz.wav", "key_press": -1, "type": "PRE_RECALL_ALERT", "trial_type": "single-audio", "trial_index": 170, "time_elapsed": 3344791, "internal_node_id": "0.0-125.0"}}, {"uniqueid": "MTK0632:37UEWGM5HUFSNNQTZUMJUW42F14R1A", "current_trial": 171, "dateTime": 1512576412461, "trialdata": {"rt": [3480, 4328, 5280, 7415, 8476, 9249, 10645, 12457], "recwords": ["mars", "quail", "braces", "fireplace", "virus", "stomach", "typoist", "lumber"], "type": "FREE_RECALL", "conditions": [12, 800, "v", 24000], "trial": 4, "trial_type": "free-recall", "trial_index": 171, "time_elapsed": 3404792, "internal_node_id": "0.0-126.0-0.0"}}, {"uniqueid": "MTK0632:37UEWGM5HUFSNNQTZUMJUW42F14R1A", "current_trial": 172, "dateTime": 1512576416394, "trialdata": {"rt": 1931, "key_press": 70, "type": "INSTRUCTIONS", "trial_type": "text", "trial_index": 172, "time_elapsed": 3408727, "internal_node_id": "0.0-127.0"}}, {"uniqueid": "MTK0632:37UEWGM5HUFSNNQTZUMJUW42F14R1A", "current_trial": 173, "dateTime": 1512576442397, "trialdata": {"rt": [2479, 4413, 6238, 8299, 9352, 10453, 11914, 13728, 14909, 17213, 18994, 20482, 21855, 23014], "responses": ["21", "17", "12", "17", "13", "14", "17", "17", "16", "21", "21", "20", "23", "9"], "num1": [7, 6, 5, 2, 6, 3, 6, 6, 1, 8, 6, 4, 9, 1, 1], "num2": [5, 8, 5, 8, 6, 8, 5, 2, 6, 4, 9, 9, 9, 6, 5], "num3": [9, 3, 2, 7, 1, 3, 6, 9, 9, 9, 6, 7, 5, 2, 3], "type": "DISTRACTOR", "conditions": [24, 800, "a", 24000], "trial": 5, "trial_type": "math-distractor", "trial_index": 173, "time_elapsed": 3434730, "internal_node_id": "0.0-128.0"}}, {"uniqueid": "MTK0632:37UEWGM5HUFSNNQTZUMJUW42F14R1A", "current_trial": 174, "dateTime": 1512576445399, "trialdata": {"rt": -1, "stimulus": "<p id=\"stim\">10</p>", "key_press": -1, "trial_type": "single-stim", "trial_index": 174, "time_elapsed": 3437732, "internal_node_id": "0.0-129.0-0.0"}}, {"uniqueid": "MTK0632:37UEWGM5HUFSNNQTZUMJUW42F14R1A", "current_trial": 175, "dateTime": 1512576446400, "trialdata": {"rt": -1, "stimulus": "<p id=\"stim\">9</p>", "key_press": -1, "trial_type": "single-stim", "trial_index": 175, "time_elapsed": 3438733, "internal_node_id": "0.0-129.0-1.0"}}, {"uniqueid": "MTK0632:37UEWGM5HUFSNNQTZUMJUW42F14R1A", "current_trial": 176, "dateTime": 1512576447401, "trialdata": {"rt": -1, "stimulus": "<p id=\"stim\">8</p>", "key_press": -1, "trial_type": "single-stim", "trial_index": 176, "time_elapsed": 3439734, "internal_node_id": "0.0-129.0-2.0"}}, {"uniqueid": "MTK0632:37UEWGM5HUFSNNQTZUMJUW42F14R1A", "current_trial": 177, "dateTime": 1512576448403, "trialdata": {"rt": -1, "stimulus": "<p id=\"stim\">7</p>", "key_press": -1, "trial_type": "single-stim", "trial_index": 177, "time_elapsed": 3440736, "internal_node_id": "0.0-129.0-3.0"}}, {"uniqueid": "MTK0632:37UEWGM5HUFSNNQTZUMJUW42F14R1A", "current_trial": 178, "dateTime": 1512576449404, "trialdata": {"rt": -1, "stimulus": "<p id=\"stim\">6</p>", "key_press": -1, "trial_type": "single-stim", "trial_index": 178, "time_elapsed": 3441737, "internal_node_id": "0.0-129.0-4.0"}}, {"uniqueid": "MTK0632:37UEWGM5HUFSNNQTZUMJUW42F14R1A", "current_trial": 179, "dateTime": 1512576450405, "trialdata": {"rt": -1, "stimulus": "<p id=\"stim\">5</p>", "key_press": -1, "trial_type": "single-stim", "trial_index": 179, "time_elapsed": 3442738, "internal_node_id": "0.0-129.0-5.0"}}, {"uniqueid": "MTK0632:37UEWGM5HUFSNNQTZUMJUW42F14R1A", "current_trial": 180, "dateTime": 1512576451407, "trialdata": {"rt": -1, "stimulus": "<p id=\"stim\">4</p>", "key_press": -1, "trial_type": "single-stim", "trial_index": 180, "time_elapsed": 3443739, "internal_node_id": "0.0-129.0-6.0"}}, {"uniqueid": "MTK0632:37UEWGM5HUFSNNQTZUMJUW42F14R1A", "current_trial": 181, "dateTime": 1512576452408, "trialdata": {"rt": -1, "stimulus": "<p id=\"stim\">3</p>", "key_press": -1, "trial_type": "single-stim", "trial_index": 181, "time_elapsed": 3444741, "internal_node_id": "0.0-129.0-7.0"}}, {"uniqueid": "MTK0632:37UEWGM5HUFSNNQTZUMJUW42F14R1A", "current_trial": 182, "dateTime": 1512576453409, "trialdata": {"rt": -1, "stimulus": "<p id=\"stim\">2</p>", "key_press": -1, "trial_type": "single-stim", "trial_index": 182, "time_elapsed": 3445742, "internal_node_id": "0.0-129.0-8.0"}}, {"uniqueid": "MTK0632:37UEWGM5HUFSNNQTZUMJUW42F14R1A", "current_trial": 183, "dateTime": 1512576454410, "trialdata": {"rt": -1, "stimulus": "<p id=\"stim\">1</p>", "key_press": -1, "trial_type": "single-stim", "trial_index": 183, "time_elapsed": 3446743, "internal_node_id": "0.0-129.0-9.0"}}, {"uniqueid": "MTK0632:37UEWGM5HUFSNNQTZUMJUW42F14R1A", "current_trial": 184, "dateTime": 1512576455911, "trialdata": {"rt": -1, "stimulus": "<p id=\"stim\">+</p>", "key_press": -1, "type": "FIXATION", "trial_type": "single-stim", "trial_index": 184, "time_elapsed": 3448244, "internal_node_id": "0.0-130.0-0.0"}}, {"uniqueid": "MTK0632:37UEWGM5HUFSNNQTZUMJUW42F14R1A", "current_trial": 185, "dateTime": 1512576457691, "trialdata": {"rt": -1000, "stimulus": "/static/audio/wordpool/PADDLE.wav", "key_press": -1, "type": "PRES_AUD", "word": "paddle", "wordID": 999, "conditions": [24, 800, "a", 24000], "trial": 5, "serialpos": 0, "trial_type": "single-audio", "trial_index": 185, "time_elapsed": 3450024, "internal_node_id": "0.0-131.0"}}, {"uniqueid": "MTK0632:37UEWGM5HUFSNNQTZUMJUW42F14R1A", "current_trial": 186, "dateTime": 1512576459367, "trialdata": {"rt": -1000, "stimulus": "/static/audio/wordpool/SPOON.wav", "key_press": -1, "type": "PRES_AUD", "word": "spoon", "wordID": 1356, "conditions": [24, 800, "a", 24000], "trial": 5, "serialpos": 1, "trial_type": "single-audio", "trial_index": 186, "time_elapsed": 3451700, "internal_node_id": "0.0-132.0"}}, {"uniqueid": "MTK0632:37UEWGM5HUFSNNQTZUMJUW42F14R1A", "current_trial": 187, "dateTime": 1512576460978, "trialdata": {"rt": -1000, "stimulus": "/static/audio/wordpool/SIDEWALK.wav", "key_press": -1, "type": "PRES_AUD", "word": "sidewalk", "wordID": 1302, "conditions": [24, 800, "a", 24000], "trial": 5, "serialpos": 2, "trial_type": "single-audio", "trial_index": 187, "time_elapsed": 3453311, "internal_node_id": "0.0-133.0"}}, {"uniqueid": "MTK0632:37UEWGM5HUFSNNQTZUMJUW42F14R1A", "current_trial": 188, "dateTime": 1512576462977, "trialdata": {"rt": -1000, "stimulus": "/static/audio/wordpool/HOUND.wav", "key_press": -1, "type": "PRES_AUD", "word": "hound", "wordID": 723, "conditions": [24, 800, "a", 24000], "trial": 5, "serialpos": 3, "trial_type": "single-audio", "trial_index": 188, "time_elapsed": 3455310, "internal_node_id": "0.0-134.0"}}, {"uniqueid": "MTK0632:37UEWGM5HUFSNNQTZUMJUW42F14R1A", "current_trial": 189, "dateTime": 1512576464675, "trialdata": {"rt": -1000, "stimulus": "/static/audio/wordpool/MACHINE.wav", "key_press": -1, "type": "PRES_AUD", "word": "machine", "wordID": 851, "conditions": [24, 800, "a", 24000], "trial": 5, "serialpos": 4, "trial_type": "single-audio", "trial_index": 189, "time_elapsed": 3457008, "internal_node_id": "0.0-135.0"}}, {"uniqueid": "MTK0632:37UEWGM5HUFSNNQTZUMJUW42F14R1A", "current_trial": 190, "dateTime": 1512576466603, "trialdata": {"rt": -1000, "stimulus": "/static/audio/wordpool/CRAB.wav", "key_press": -1, "type": "PRES_AUD", "word": "crab", "wordID": 396, "conditions": [24, 800, "a", 24000], "trial": 5, "serialpos": 5, "trial_type": "single-audio", "trial_index": 190, "time_elapsed": 3458936, "internal_node_id": "0.0-136.0"}}, {"uniqueid": "MTK0632:37UEWGM5HUFSNNQTZUMJUW42F14R1A", "current_trial": 191, "dateTime": 1512576468583, "trialdata": {"rt": -1000, "stimulus": "/static/audio/wordpool/CLAM.wav", "key_press": -1, "type": "PRES_AUD", "word": "clam", "wordID": 314, "conditions": [24, 800, "a", 24000], "trial": 5, "serialpos": 6, "trial_type": "single-audio", "trial_index": 191, "time_elapsed": 3460916, "internal_node_id": "0.0-137.0"}}, {"uniqueid": "MTK0632:37UEWGM5HUFSNNQTZUMJUW42F14R1A", "current_trial": 192, "dateTime": 1512576470198, "trialdata": {"rt": -1000, "stimulus": "/static/audio/wordpool/LETTUCE.wav", "key_press": -1, "type": "PRES_AUD", "word": "lettuce", "wordID": 813, "conditions": [24, 800, "a", 24000], "trial": 5, "serialpos": 7, "trial_type": "single-audio", "trial_index": 192, "time_elapsed": 3462531, "internal_node_id": "0.0-138.0"}}, {"uniqueid": "MTK0632:37UEWGM5HUFSNNQTZUMJUW42F14R1A", "current_trial": 193, "dateTime": 1512576471871, "trialdata": {"rt": -1000, "stimulus": "/static/audio/wordpool/ROBOT.wav", "key_press": -1, "type": "PRES_AUD", "word": "robot", "wordID": 1199, "conditions": [24, 800, "a", 24000], "trial": 5, "serialpos": 8, "trial_type": "single-audio", "trial_index": 193, "time_elapsed": 3464204, "internal_node_id": "0.0-139.0"}}, {"uniqueid": "MTK0632:37UEWGM5HUFSNNQTZUMJUW42F14R1A", "current_trial": 194, "dateTime": 1512576473582, "trialdata": {"rt": -1000, "stimulus": "/static/audio/wordpool/PIGEON.wav", "key_press": -1, "type": "PRES_AUD", "word": "pigeon", "wordID": 1064, "conditions": [24, 800, "a", 24000], "trial": 5, "serialpos": 9, "trial_type": "single-audio", "trial_index": 194, "time_elapsed": 3465915, "internal_node_id": "0.0-140.0"}}, {"uniqueid": "MTK0632:37UEWGM5HUFSNNQTZUMJUW42F14R1A", "current_trial": 195, "dateTime": 1512576475226, "trialdata": {"rt": -1000, "stimulus": "/static/audio/wordpool/HAWK.wav", "key_press": -1, "type": "PRES_AUD", "word": "hawk", "wordID": 691, "conditions": [24, 800, "a", 24000], "trial": 5, "serialpos": 10, "trial_type": "single-audio", "trial_index": 195, "time_elapsed": 3467559, "internal_node_id": "0.0-141.0"}}, {"uniqueid": "MTK0632:37UEWGM5HUFSNNQTZUMJUW42F14R1A", "current_trial": 196, "dateTime": 1512576477051, "trialdata": {"rt": -1000, "stimulus": "/static/audio/wordpool/PLAZA.wav", "key_press": -1, "type": "PRES_AUD", "word": "plaza", "wordID": 1087, "conditions": [24, 800, "a", 24000], "trial": 5, "serialpos": 11, "trial_type": "single-audio", "trial_index": 196, "time_elapsed": 3469384, "internal_node_id": "0.0-142.0"}}, {"uniqueid": "MTK0632:37UEWGM5HUFSNNQTZUMJUW42F14R1A", "current_trial": 197, "dateTime": 1512576478782, "trialdata": {"rt": -1000, "stimulus": "/static/audio/wordpool/PUDDING.wav", "key_press": -1, "type": "PRES_AUD", "word": "pudding", "wordID": 1138, "conditions": [24, 800, "a", 24000], "trial": 5, "serialpos": 12, "trial_type": "single-audio", "trial_index": 197, "time_elapsed": 3471115, "internal_node_id": "0.0-143.0"}}, {"uniqueid": "MTK0632:37UEWGM5HUFSNNQTZUMJUW42F14R1A", "current_trial": 198, "dateTime": 1512576480504, "trialdata": {"rt": -1000, "stimulus": "/static/audio/wordpool/CHILD.wav", "key_press": -1, "type": "PRES_AUD", "word": "child", "wordID": 298, "conditions": [24, 800, "a", 24000], "trial": 5, "serialpos": 13, "trial_type": "single-audio", "trial_index": 198, "time_elapsed": 3472837, "internal_node_id": "0.0-144.0"}}, {"uniqueid": "MTK0632:37UEWGM5HUFSNNQTZUMJUW42F14R1A", "current_trial": 199, "dateTime": 1512576482389, "trialdata": {"rt": -1000, "stimulus": "/static/audio/wordpool/BANJO.wav", "key_press": -1, "type": "PRES_AUD", "word": "banjo", "wordID": 81, "conditions": [24, 800, "a", 24000], "trial": 5, "serialpos": 14, "trial_type": "single-audio", "trial_index": 199, "time_elapsed": 3474722, "internal_node_id": "0.0-145.0"}}, {"uniqueid": "MTK0632:37UEWGM5HUFSNNQTZUMJUW42F14R1A", "current_trial": 200, "dateTime": 1512576484062, "trialdata": {"rt": -1000, "stimulus": "/static/audio/wordpool/GYMNAST.wav", "key_press": -1, "type": "PRES_AUD", "word": "gymnast", "wordID": 674, "conditions": [24, 800, "a", 24000], "trial": 5, "serialpos": 15, "trial_type": "single-audio", "trial_index": 200, "time_elapsed": 3476395, "internal_node_id": "0.0-146.0"}}, {"uniqueid": "MTK0632:37UEWGM5HUFSNNQTZUMJUW42F14R1A", "current_trial": 201, "dateTime": 1512576485703, "trialdata": {"rt": -1000, "stimulus": "/static/audio/wordpool/ELBOW.wav", "key_press": -1, "type": "PRES_AUD", "word": "elbow", "wordID": 519, "conditions": [24, 800, "a", 24000], "trial": 5, "serialpos": 16, "trial_type": "single-audio", "trial_index": 201, "time_elapsed": 3478036, "internal_node_id": "0.0-147.0"}}, {"uniqueid": "MTK0632:37UEWGM5HUFSNNQTZUMJUW42F14R1A", "current_trial": 202, "dateTime": 1512576487692, "trialdata": {"rt": -1000, "stimulus": "/static/audio/wordpool/HAND.wav", "key_press": -1, "type": "PRES_AUD", "word": "hand", "wordID": 682, "conditions": [24, 800, "a", 24000], "trial": 5, "serialpos": 17, "trial_type": "single-audio", "trial_index": 202, "time_elapsed": 3480025, "internal_node_id": "0.0-148.0"}}, {"uniqueid": "MTK0632:37UEWGM5HUFSNNQTZUMJUW42F14R1A", "current_trial": 203, "dateTime": 1512576489338, "trialdata": {"rt": -1000, "stimulus": "/static/audio/wordpool/FIREMAN.wav", "key_press": -1, "type": "PRES_AUD", "word": "fireman", "wordID": 568, "conditions": [24, 800, "a", 24000], "trial": 5, "serialpos": 18, "trial_type": "single-audio", "trial_index": 203, "time_elapsed": 3481671, "internal_node_id": "0.0-149.0"}}, {"uniqueid": "MTK0632:37UEWGM5HUFSNNQTZUMJUW42F14R1A", "current_trial": 204, "dateTime": 1512576491245, "trialdata": {"rt": -1000, "stimulus": "/static/audio/wordpool/PORTRAIT.wav", "key_press": -1, "type": "PRES_AUD", "word": "portrait", "wordID": 1110, "conditions": [24, 800, "a", 24000], "trial": 5, "serialpos": 19, "trial_type": "single-audio", "trial_index": 204, "time_elapsed": 3483578, "internal_node_id": "0.0-150.0"}}, {"uniqueid": "MTK0632:37UEWGM5HUFSNNQTZUMJUW42F14R1A", "current_trial": 205, "dateTime": 1512576492847, "trialdata": {"rt": -1000, "stimulus": "/static/audio/wordpool/PICTURE.wav", "key_press": -1, "type": "PRES_AUD", "word": "picture", "wordID": 1060, "conditions": [24, 800, "a", 24000], "trial": 5, "serialpos": 20, "trial_type": "single-audio", "trial_index": 205, "time_elapsed": 3485180, "internal_node_id": "0.0-151.0"}}, {"uniqueid": "MTK0632:37UEWGM5HUFSNNQTZUMJUW42F14R1A", "current_trial": 206, "dateTime": 1512576494580, "trialdata": {"rt": -1000, "stimulus": "/static/audio/wordpool/DOUGHNUT.wav", "key_press": -1, "type": "PRES_AUD", "word": "doughnut", "wordID": 489, "conditions": [24, 800, "a", 24000], "trial": 5, "serialpos": 21, "trial_type": "single-audio", "trial_index": 206, "time_elapsed": 3486913, "internal_node_id": "0.0-152.0"}}, {"uniqueid": "MTK0632:37UEWGM5HUFSNNQTZUMJUW42F14R1A", "current_trial": 207, "dateTime": 1512576496419, "trialdata": {"rt": -1000, "stimulus": "/static/audio/wordpool/PARENT.wav", "key_press": -1, "type": "PRES_AUD", "word": "parent", "wordID": 1012, "conditions": [24, 800, "a", 24000], "trial": 5, "serialpos": 22, "trial_type": "single-audio", "trial_index": 207, "time_elapsed": 3488752, "internal_node_id": "0.0-153.0"}}, {"uniqueid": "MTK0632:37UEWGM5HUFSNNQTZUMJUW42F14R1A", "current_trial": 208, "dateTime": 1512576498122, "trialdata": {"rt": -1000, "stimulus": "/static/audio/wordpool/DANCER.wav", "key_press": -1, "type": "PRES_AUD", "word": "dancer", "wordID": 436, "conditions": [24, 800, "a", 24000], "trial": 5, "serialpos": 23, "trial_type": "single-audio", "trial_index": 208, "time_elapsed": 3490455, "internal_node_id": "0.0-154.0"}}, {"uniqueid": "MTK0632:37UEWGM5HUFSNNQTZUMJUW42F14R1A", "current_trial": 209, "dateTime": 1512576499456, "trialdata": {"rt": -1, "stimulus": "", "key_press": -1, "type": "PRE_RECALL_DELAY", "trial_type": "single-stim", "trial_index": 209, "time_elapsed": 3491789, "internal_node_id": "0.0-155.0-0.0"}}, {"uniqueid": "MTK0632:37UEWGM5HUFSNNQTZUMJUW42F14R1A", "current_trial": 210, "dateTime": 1512576499958, "trialdata": {"rt": -1000, "stimulus": "/static/audio/400Hz.wav", "key_press": -1, "type": "PRE_RECALL_ALERT", "trial_type": "single-audio", "trial_index": 210, "time_elapsed": 3492291, "internal_node_id": "0.0-156.0"}}, {"uniqueid": "MTK0632:37UEWGM5HUFSNNQTZUMJUW42F14R1A", "current_trial": 211, "dateTime": 1512576559962, "trialdata": {"rt": [3853, 5733, 6925, 8413, 9643, 10851, 11636, 14105, 16972, 20510], "recwords": ["crab", "clam", "child", "banjo", "fireman", "donut", "parent", "hawk", "elbow", "gymnast"], "type": "FREE_RECALL", "conditions": [24, 800, "a", 24000], "trial": 5, "trial_type": "free-recall", "trial_index": 211, "time_elapsed": 3552294, "internal_node_id": "0.0-157.0-0.0"}}, {"uniqueid": "MTK0632:37UEWGM5HUFSNNQTZUMJUW42F14R1A", "current_trial": 212, "dateTime": 1512576566376, "trialdata": {"rt": 4412, "key_press": 83, "type": "INSTRUCTIONS", "trial_type": "text", "trial_index": 212, "time_elapsed": 3558709, "internal_node_id": "0.0-158.0"}}, {"uniqueid": "MTK0632:37UEWGM5HUFSNNQTZUMJUW42F14R1A", "current_trial": 213, "dateTime": 1512576580379, "trialdata": {"rt": [2608, 4084, 5881, 7177, 8380, 9537, 10894], "responses": ["16", "13", "19", "18", "19", "18", "8"], "num1": [4, 1, 6, 4, 6, 8, 5, 7], "num2": [7, 7, 9, 5, 5, 2, 2, 5], "num3": [5, 5, 4, 9, 8, 8, 1, 6], "type": "DISTRACTOR", "conditions": [24, 1600, "v", 12000], "trial": 6, "trial_type": "math-distractor", "trial_index": 213, "time_elapsed": 3572712, "internal_node_id": "0.0-159.0"}}, {"uniqueid": "MTK0632:37UEWGM5HUFSNNQTZUMJUW42F14R1A", "current_trial": 214, "dateTime": 1512576583381, "trialdata": {"rt": -1, "stimulus": "<p id=\"stim\">10</p>", "key_press": -1, "trial_type": "single-stim", "trial_index": 214, "time_elapsed": 3575714, "internal_node_id": "0.0-160.0-0.0"}}, {"uniqueid": "MTK0632:37UEWGM5HUFSNNQTZUMJUW42F14R1A", "current_trial": 215, "dateTime": 1512576584383, "trialdata": {"rt": -1, "stimulus": "<p id=\"stim\">9</p>", "key_press": -1, "trial_type": "single-stim", "trial_index": 215, "time_elapsed": 3576716, "internal_node_id": "0.0-160.0-1.0"}}, {"uniqueid": "MTK0632:37UEWGM5HUFSNNQTZUMJUW42F14R1A", "current_trial": 216, "dateTime": 1512576585383, "trialdata": {"rt": -1, "stimulus": "<p id=\"stim\">8</p>", "key_press": -1, "trial_type": "single-stim", "trial_index": 216, "time_elapsed": 3577716, "internal_node_id": "0.0-160.0-2.0"}}, {"uniqueid": "MTK0632:37UEWGM5HUFSNNQTZUMJUW42F14R1A", "current_trial": 217, "dateTime": 1512576586384, "trialdata": {"rt": -1, "stimulus": "<p id=\"stim\">7</p>", "key_press": -1, "trial_type": "single-stim", "trial_index": 217, "time_elapsed": 3578717, "internal_node_id": "0.0-160.0-3.0"}}, {"uniqueid": "MTK0632:37UEWGM5HUFSNNQTZUMJUW42F14R1A", "current_trial": 218, "dateTime": 1512576587386, "trialdata": {"rt": -1, "stimulus": "<p id=\"stim\">6</p>", "key_press": -1, "trial_type": "single-stim", "trial_index": 218, "time_elapsed": 3579719, "internal_node_id": "0.0-160.0-4.0"}}, {"uniqueid": "MTK0632:37UEWGM5HUFSNNQTZUMJUW42F14R1A", "current_trial": 219, "dateTime": 1512576588387, "trialdata": {"rt": -1, "stimulus": "<p id=\"stim\">5</p>", "key_press": -1, "trial_type": "single-stim", "trial_index": 219, "time_elapsed": 3580720, "internal_node_id": "0.0-160.0-5.0"}}, {"uniqueid": "MTK0632:37UEWGM5HUFSNNQTZUMJUW42F14R1A", "current_trial": 220, "dateTime": 1512576589388, "trialdata": {"rt": -1, "stimulus": "<p id=\"stim\">4</p>", "key_press": -1, "trial_type": "single-stim", "trial_index": 220, "time_elapsed": 3581721, "internal_node_id": "0.0-160.0-6.0"}}, {"uniqueid": "MTK0632:37UEWGM5HUFSNNQTZUMJUW42F14R1A", "current_trial": 221, "dateTime": 1512576590389, "trialdata": {"rt": -1, "stimulus": "<p id=\"stim\">3</p>", "key_press": -1, "trial_type": "single-stim", "trial_index": 221, "time_elapsed": 3582722, "internal_node_id": "0.0-160.0-7.0"}}, {"uniqueid": "MTK0632:37UEWGM5HUFSNNQTZUMJUW42F14R1A", "current_trial": 222, "dateTime": 1512576591390, "trialdata": {"rt": -1, "stimulus": "<p id=\"stim\">2</p>", "key_press": -1, "trial_type": "single-stim", "trial_index": 222, "time_elapsed": 3583723, "internal_node_id": "0.0-160.0-8.0"}}, {"uniqueid": "MTK0632:37UEWGM5HUFSNNQTZUMJUW42F14R1A", "current_trial": 223, "dateTime": 1512576592391, "trialdata": {"rt": -1, "stimulus": "<p id=\"stim\">1</p>", "key_press": -1, "trial_type": "single-stim", "trial_index": 223, "time_elapsed": 3584724, "internal_node_id": "0.0-160.0-9.0"}}, {"uniqueid": "MTK0632:37UEWGM5HUFSNNQTZUMJUW42F14R1A", "current_trial": 224, "dateTime": 1512576593892, "trialdata": {"rt": -1, "stimulus": "<p id=\"stim\">+</p>", "key_press": -1, "type": "FIXATION", "trial_type": "single-stim", "trial_index": 224, "time_elapsed": 3586225, "internal_node_id": "0.0-161.0-0.0"}}, {"uniqueid": "MTK0632:37UEWGM5HUFSNNQTZUMJUW42F14R1A", "current_trial": 225, "dateTime": 1512576595494, "trialdata": {"rt": -1, "stimulus": "<p id=\"stim\">PASTA</p>", "key_press": -1, "type": "PRES_VIS", "word": "pasta", "wordID": 1020, "conditions": [24, 1600, "v", 12000], "trial": 6, "serialpos": 0, "trial_type": "single-stim", "trial_index": 225, "time_elapsed": 3587827, "internal_node_id": "0.0-162.0"}}, {"uniqueid": "MTK0632:37UEWGM5HUFSNNQTZUMJUW42F14R1A", "current_trial": 226, "dateTime": 1512576598104, "trialdata": {"rt": -1, "stimulus": "<p id=\"stim\">HOOD</p>", "key_press": -1, "type": "PRES_VIS", "word": "hood", "wordID": 713, "conditions": [24, 1600, "v", 12000], "trial": 6, "serialpos": 1, "trial_type": "single-stim", "trial_index": 226, "time_elapsed": 3590437, "internal_node_id": "0.0-163.0"}}, {"uniqueid": "MTK0632:37UEWGM5HUFSNNQTZUMJUW42F14R1A", "current_trial": 227, "dateTime": 1512576600597, "trialdata": {"rt": -1, "stimulus": "<p id=\"stim\">PLAYGROUND</p>", "key_press": -1, "type": "PRES_VIS", "word": "playground", "wordID": 1086, "conditions": [24, 1600, "v", 12000], "trial": 6, "serialpos": 2, "trial_type": "single-stim", "trial_index": 227, "time_elapsed": 3592929, "internal_node_id": "0.0-164.0"}}, {"uniqueid": "MTK0632:37UEWGM5HUFSNNQTZUMJUW42F14R1A", "current_trial": 228, "dateTime": 1512576603020, "trialdata": {"rt": -1, "stimulus": "<p id=\"stim\">SPIDER</p>", "key_press": -1, "type": "PRES_VIS", "word": "spider", "wordID": 1350, "conditions": [24, 1600, "v", 12000], "trial": 6, "serialpos": 3, "trial_type": "single-stim", "trial_index": 228, "time_elapsed": 3595353, "internal_node_id": "0.0-165.0"}}, {"uniqueid": "MTK0632:37UEWGM5HUFSNNQTZUMJUW42F14R1A", "current_trial": 229, "dateTime": 1512576605809, "trialdata": {"rt": -1, "stimulus": "<p id=\"stim\">SKETCH</p>", "key_press": -1, "type": "PRES_VIS", "word": "sketch", "wordID": 1314, "conditions": [24, 1600, "v", 12000], "trial": 6, "serialpos": 4, "trial_type": "single-stim", "trial_index": 229, "time_elapsed": 3598142, "internal_node_id": "0.0-166.0"}}, {"uniqueid": "MTK0632:37UEWGM5HUFSNNQTZUMJUW42F14R1A", "current_trial": 230, "dateTime": 1512576608497, "trialdata": {"rt": -1, "stimulus": "<p id=\"stim\">CHIPMUNK</p>", "key_press": -1, "type": "PRES_VIS", "word": "chipmunk", "wordID": 303, "conditions": [24, 1600, "v", 12000], "trial": 6, "serialpos": 5, "trial_type": "single-stim", "trial_index": 230, "time_elapsed": 3600829, "internal_node_id": "0.0-167.0"}}, {"uniqueid": "MTK0632:37UEWGM5HUFSNNQTZUMJUW42F14R1A", "current_trial": 231, "dateTime": 1512576611040, "trialdata": {"rt": -1, "stimulus": "<p id=\"stim\">BEAVER</p>", "key_press": -1, "type": "PRES_VIS", "word": "beaver", "wordID": 108, "conditions": [24, 1600, "v", 12000], "trial": 6, "serialpos": 6, "trial_type": "single-stim", "trial_index": 231, "time_elapsed": 3603373, "internal_node_id": "0.0-168.0"}}, {"uniqueid": "MTK0632:37UEWGM5HUFSNNQTZUMJUW42F14R1A", "current_trial": 232, "dateTime": 1512576613511, "trialdata": {"rt": -1, "stimulus": "<p id=\"stim\">BRIEFCASE</p>", "key_press": -1, "type": "PRES_VIS", "word": "briefcase", "wordID": 174, "conditions": [24, 1600, "v", 12000], "trial": 6, "serialpos": 7, "trial_type": "single-stim", "trial_index": 232, "time_elapsed": 3605844, "internal_node_id": "0.0-169.0"}}, {"uniqueid": "MTK0632:37UEWGM5HUFSNNQTZUMJUW42F14R1A", "current_trial": 233, "dateTime": 1512576616024, "trialdata": {"rt": -1, "stimulus": "<p id=\"stim\">LOFT</p>", "key_press": -1, "type": "PRES_VIS", "word": "loft", "wordID": 839, "conditions": [24, 1600, "v", 12000], "trial": 6, "serialpos": 8, "trial_type": "single-stim", "trial_index": 233, "time_elapsed": 3608357, "internal_node_id": "0.0-170.0"}}, {"uniqueid": "MTK0632:37UEWGM5HUFSNNQTZUMJUW42F14R1A", "current_trial": 234, "dateTime": 1512576618537, "trialdata": {"rt": -1, "stimulus": "<p id=\"stim\">FOOTBALL</p>", "key_press": -1, "type": "PRES_VIS", "word": "football", "wordID": 590, "conditions": [24, 1600, "v", 12000], "trial": 6, "serialpos": 9, "trial_type": "single-stim", "trial_index": 234, "time_elapsed": 3610870, "internal_node_id": "0.0-171.0"}}, {"uniqueid": "MTK0632:37UEWGM5HUFSNNQTZUMJUW42F14R1A", "current_trial": 235, "dateTime": 1512576621267, "trialdata": {"rt": -1, "stimulus": "<p id=\"stim\">KNAPSACK</p>", "key_press": -1, "type": "PRES_VIS", "word": "knapsack", "wordID": 782, "conditions": [24, 1600, "v", 12000], "trial": 6, "serialpos": 10, "trial_type": "single-stim", "trial_index": 235, "time_elapsed": 3613600, "internal_node_id": "0.0-172.0"}}, {"uniqueid": "MTK0632:37UEWGM5HUFSNNQTZUMJUW42F14R1A", "current_trial": 236, "dateTime": 1512576623796, "trialdata": {"rt": -1, "stimulus": "<p id=\"stim\">BUBBLE</p>", "key_press": -1, "type": "PRES_VIS", "word": "bubble", "wordID": 182, "conditions": [24, 1600, "v", 12000], "trial": 6, "serialpos": 11, "trial_type": "single-stim", "trial_index": 236, "time_elapsed": 3616129, "internal_node_id": "0.0-173.0"}}, {"uniqueid": "MTK0632:37UEWGM5HUFSNNQTZUMJUW42F14R1A", "current_trial": 237, "dateTime": 1512576626487, "trialdata": {"rt": -1, "stimulus": "<p id=\"stim\">BANK</p>", "key_press": -1, "type": "PRES_VIS", "word": "bank", "wordID": 82, "conditions": [24, 1600, "v", 12000], "trial": 6, "serialpos": 12, "trial_type": "single-stim", "trial_index": 237, "time_elapsed": 3618820, "internal_node_id": "0.0-174.0"}}, {"uniqueid": "MTK0632:37UEWGM5HUFSNNQTZUMJUW42F14R1A", "current_trial": 238, "dateTime": 1512576629006, "trialdata": {"rt": -1, "stimulus": "<p id=\"stim\">BANKER</p>", "key_press": -1, "type": "PRES_VIS", "word": "banker", "wordID": 83, "conditions": [24, 1600, "v", 12000], "trial": 6, "serialpos": 13, "trial_type": "single-stim", "trial_index": 238, "time_elapsed": 3621339, "internal_node_id": "0.0-175.0"}}, {"uniqueid": "MTK0632:37UEWGM5HUFSNNQTZUMJUW42F14R1A", "current_trial": 239, "dateTime": 1512576631548, "trialdata": {"rt": -1, "stimulus": "<p id=\"stim\">GLASS</p>", "key_press": -1, "type": "PRES_VIS", "word": "glass", "wordID": 638, "conditions": [24, 1600, "v", 12000], "trial": 6, "serialpos": 14, "trial_type": "single-stim", "trial_index": 239, "time_elapsed": 3623881, "internal_node_id": "0.0-176.0"}}, {"uniqueid": "MTK0632:37UEWGM5HUFSNNQTZUMJUW42F14R1A", "current_trial": 240, "dateTime": 1512576634057, "trialdata": {"rt": -1, "stimulus": "<p id=\"stim\">BISON</p>", "key_press": -1, "type": "PRES_VIS", "word": "bison", "wordID": 130, "conditions": [24, 1600, "v", 12000], "trial": 6, "serialpos": 15, "trial_type": "single-stim", "trial_index": 240, "time_elapsed": 3626390, "internal_node_id": "0.0-177.0"}}, {"uniqueid": "MTK0632:37UEWGM5HUFSNNQTZUMJUW42F14R1A", "current_trial": 241, "dateTime": 1512576636715, "trialdata": {"rt": -1, "stimulus": "<p id=\"stim\">TURNIP</p>", "key_press": -1, "type": "PRES_VIS", "word": "turnip", "wordID": 1520, "conditions": [24, 1600, "v", 12000], "trial": 6, "serialpos": 16, "trial_type": "single-stim", "trial_index": 241, "time_elapsed": 3629048, "internal_node_id": "0.0-178.0"}}, {"uniqueid": "MTK0632:37UEWGM5HUFSNNQTZUMJUW42F14R1A", "current_trial": 242, "dateTime": 1512576639164, "trialdata": {"rt": -1, "stimulus": "<p id=\"stim\">HATCHET</p>", "key_press": -1, "type": "PRES_VIS", "word": "hatchet", "wordID": 690, "conditions": [24, 1600, "v", 12000], "trial": 6, "serialpos": 17, "trial_type": "single-stim", "trial_index": 242, "time_elapsed": 3631497, "internal_node_id": "0.0-179.0"}}, {"uniqueid": "MTK0632:37UEWGM5HUFSNNQTZUMJUW42F14R1A", "current_trial": 243, "dateTime": 1512576641900, "trialdata": {"rt": -1, "stimulus": "<p id=\"stim\">FLOWER</p>", "key_press": -1, "type": "PRES_VIS", "word": "flower", "wordID": 583, "conditions": [24, 1600, "v", 12000], "trial": 6, "serialpos": 18, "trial_type": "single-stim", "trial_index": 243, "time_elapsed": 3634232, "internal_node_id": "0.0-180.0"}}, {"uniqueid": "MTK0632:37UEWGM5HUFSNNQTZUMJUW42F14R1A", "current_trial": 244, "dateTime": 1512576644618, "trialdata": {"rt": -1, "stimulus": "<p id=\"stim\">TEACHER</p>", "key_press": -1, "type": "PRES_VIS", "word": "teacher", "wordID": 1439, "conditions": [24, 1600, "v", 12000], "trial": 6, "serialpos": 19, "trial_type": "single-stim", "trial_index": 244, "time_elapsed": 3636951, "internal_node_id": "0.0-181.0"}}, {"uniqueid": "MTK0632:37UEWGM5HUFSNNQTZUMJUW42F14R1A", "current_trial": 245, "dateTime": 1512576647246, "trialdata": {"rt": -1, "stimulus": "<p id=\"stim\">CATTLE</p>", "key_press": -1, "type": "PRES_VIS", "word": "cattle", "wordID": 260, "conditions": [24, 1600, "v", 12000], "trial": 6, "serialpos": 20, "trial_type": "single-stim", "trial_index": 245, "time_elapsed": 3639579, "internal_node_id": "0.0-182.0"}}, {"uniqueid": "MTK0632:37UEWGM5HUFSNNQTZUMJUW42F14R1A", "current_trial": 246, "dateTime": 1512576649826, "trialdata": {"rt": -1, "stimulus": "<p id=\"stim\">MARKET</p>", "key_press": -1, "type": "PRES_VIS", "word": "market", "wordID": 870, "conditions": [24, 1600, "v", 12000], "trial": 6, "serialpos": 21, "trial_type": "single-stim", "trial_index": 246, "time_elapsed": 3642159, "internal_node_id": "0.0-183.0"}}, {"uniqueid": "MTK0632:37UEWGM5HUFSNNQTZUMJUW42F14R1A", "current_trial": 247, "dateTime": 1512576652358, "trialdata": {"rt": -1, "stimulus": "<p id=\"stim\">COUNTRY</p>", "key_press": -1, "type": "PRES_VIS", "word": "country", "wordID": 387, "conditions": [24, 1600, "v", 12000], "trial": 6, "serialpos": 22, "trial_type": "single-stim", "trial_index": 247, "time_elapsed": 3644691, "internal_node_id": "0.0-184.0"}}, {"uniqueid": "MTK0632:37UEWGM5HUFSNNQTZUMJUW42F14R1A", "current_trial": 248, "dateTime": 1512576655032, "trialdata": {"rt": -1, "stimulus": "<p id=\"stim\">CREVICE</p>", "key_press": -1, "type": "PRES_VIS", "word": "crevice", "wordID": 404, "conditions": [24, 1600, "v", 12000], "trial": 6, "serialpos": 23, "trial_type": "single-stim", "trial_index": 248, "time_elapsed": 3647364, "internal_node_id": "0.0-185.0"}}, {"uniqueid": "MTK0632:37UEWGM5HUFSNNQTZUMJUW42F14R1A", "current_trial": 249, "dateTime": 1512576657434, "trialdata": {"rt": -1, "stimulus": "", "key_press": -1, "type": "PRE_RECALL_DELAY", "trial_type": "single-stim", "trial_index": 249, "time_elapsed": 3649767, "internal_node_id": "0.0-186.0-0.0"}}, {"uniqueid": "MTK0632:37UEWGM5HUFSNNQTZUMJUW42F14R1A", "current_trial": 250, "dateTime": 1512576657935, "trialdata": {"rt": -1000, "stimulus": "/static/audio/400Hz.wav", "key_press": -1, "type": "PRE_RECALL_ALERT", "trial_type": "single-audio", "trial_index": 250, "time_elapsed": 3650268, "internal_node_id": "0.0-187.0"}}, {"uniqueid": "MTK0632:37UEWGM5HUFSNNQTZUMJUW42F14R1A", "current_trial": 251, "dateTime": 1512576717939, "trialdata": {"rt": [3029, 4546, 7066, 8079, 9649, 10560, 11485, 18040, 19852, 21602], "recwords": ["bank", "banker", "hatcher", "flower", "teacher", "catle", "marketr", "chipmunk", "beaver", "football"], "type": "FREE_RECALL", "conditions": [24, 1600, "v", 12000], "trial": 6, "trial_type": "free-recall", "trial_index": 251, "time_elapsed": 3710271, "internal_node_id": "0.0-188.0-0.0"}}, {"uniqueid": "MTK0632:37UEWGM5HUFSNNQTZUMJUW42F14R1A", "current_trial": 252, "dateTime": 1512576766742, "trialdata": {"rt": 46802, "key_press": 32, "type": "INSTRUCTIONS", "trial_type": "text", "trial_index": 252, "time_elapsed": 3759075, "internal_node_id": "0.0-189.0"}}, {"uniqueid": "MTK0632:37UEWGM5HUFSNNQTZUMJUW42F14R1A", "current_trial": 253, "dateTime": 1512576780745, "trialdata": {"rt": [2163, 3178, 4341, 5515, 6714, 8452], "responses": ["18", "11", "15", "13", "19", "6"], "num1": [4, 7, 6, 6, 6, 2, 5], "num2": [5, 2, 5, 4, 9, 1, 3], "num3": [7, 2, 4, 3, 4, 3, 8], "type": "DISTRACTOR", "conditions": [24, 800, "v", 12000], "trial": 7, "trial_type": "math-distractor", "trial_index": 253, "time_elapsed": 3773077, "internal_node_id": "0.0-190.0"}}, {"uniqueid": "MTK0632:37UEWGM5HUFSNNQTZUMJUW42F14R1A", "current_trial": 254, "dateTime": 1512576783747, "trialdata": {"rt": -1, "stimulus": "<p id=\"stim\">10</p>", "key_press": -1, "trial_type": "single-stim", "trial_index": 254, "time_elapsed": 3776080, "internal_node_id": "0.0-191.0-0.0"}}, {"uniqueid": "MTK0632:37UEWGM5HUFSNNQTZUMJUW42F14R1A", "current_trial": 255, "dateTime": 1512576784747, "trialdata": {"rt": -1, "stimulus": "<p id=\"stim\">9</p>", "key_press": -1, "trial_type": "single-stim", "trial_index": 255, "time_elapsed": 3777080, "internal_node_id": "0.0-191.0-1.0"}}, {"uniqueid": "MTK0632:37UEWGM5HUFSNNQTZUMJUW42F14R1A", "current_trial": 256, "dateTime": 1512576785748, "trialdata": {"rt": -1, "stimulus": "<p id=\"stim\">8</p>", "key_press": -1, "trial_type": "single-stim", "trial_index": 256, "time_elapsed": 3778081, "internal_node_id": "0.0-191.0-2.0"}}, {"uniqueid": "MTK0632:37UEWGM5HUFSNNQTZUMJUW42F14R1A", "current_trial": 257, "dateTime": 1512576786749, "trialdata": {"rt": -1, "stimulus": "<p id=\"stim\">7</p>", "key_press": -1, "trial_type": "single-stim", "trial_index": 257, "time_elapsed": 3779082, "internal_node_id": "0.0-191.0-3.0"}}, {"uniqueid": "MTK0632:37UEWGM5HUFSNNQTZUMJUW42F14R1A", "current_trial": 258, "dateTime": 1512576787751, "trialdata": {"rt": -1, "stimulus": "<p id=\"stim\">6</p>", "key_press": -1, "trial_type": "single-stim", "trial_index": 258, "time_elapsed": 3780084, "internal_node_id": "0.0-191.0-4.0"}}, {"uniqueid": "MTK0632:37UEWGM5HUFSNNQTZUMJUW42F14R1A", "current_trial": 259, "dateTime": 1512576788753, "trialdata": {"rt": -1, "stimulus": "<p id=\"stim\">5</p>", "key_press": -1, "trial_type": "single-stim", "trial_index": 259, "time_elapsed": 3781086, "internal_node_id": "0.0-191.0-5.0"}}, {"uniqueid": "MTK0632:37UEWGM5HUFSNNQTZUMJUW42F14R1A", "current_trial": 260, "dateTime": 1512576789755, "trialdata": {"rt": -1, "stimulus": "<p id=\"stim\">4</p>", "key_press": -1, "trial_type": "single-stim", "trial_index": 260, "time_elapsed": 3782087, "internal_node_id": "0.0-191.0-6.0"}}, {"uniqueid": "MTK0632:37UEWGM5HUFSNNQTZUMJUW42F14R1A", "current_trial": 261, "dateTime": 1512576790755, "trialdata": {"rt": -1, "stimulus": "<p id=\"stim\">3</p>", "key_press": -1, "trial_type": "single-stim", "trial_index": 261, "time_elapsed": 3783088, "internal_node_id": "0.0-191.0-7.0"}}, {"uniqueid": "MTK0632:37UEWGM5HUFSNNQTZUMJUW42F14R1A", "current_trial": 262, "dateTime": 1512576791757, "trialdata": {"rt": -1, "stimulus": "<p id=\"stim\">2</p>", "key_press": -1, "trial_type": "single-stim", "trial_index": 262, "time_elapsed": 3784090, "internal_node_id": "0.0-191.0-8.0"}}, {"uniqueid": "MTK0632:37UEWGM5HUFSNNQTZUMJUW42F14R1A", "current_trial": 263, "dateTime": 1512576792758, "trialdata": {"rt": -1, "stimulus": "<p id=\"stim\">1</p>", "key_press": -1, "trial_type": "single-stim", "trial_index": 263, "time_elapsed": 3785091, "internal_node_id": "0.0-191.0-9.0"}}, {"uniqueid": "MTK0632:37UEWGM5HUFSNNQTZUMJUW42F14R1A", "current_trial": 264, "dateTime": 1512576794260, "trialdata": {"rt": -1, "stimulus": "<p id=\"stim\">+</p>", "key_press": -1, "type": "FIXATION", "trial_type": "single-stim", "trial_index": 264, "time_elapsed": 3786593, "internal_node_id": "0.0-192.0-0.0"}}, {"uniqueid": "MTK0632:37UEWGM5HUFSNNQTZUMJUW42F14R1A", "current_trial": 265, "dateTime": 1512576795061, "trialdata": {"rt": -1, "stimulus": "<p id=\"stim\">WORKER</p>", "key_press": -1, "type": "PRES_VIS", "word": "worker", "wordID": 1620, "conditions": [24, 800, "v", 12000], "trial": 7, "serialpos": 0, "trial_type": "single-stim", "trial_index": 265, "time_elapsed": 3787394, "internal_node_id": "0.0-193.0"}}, {"uniqueid": "MTK0632:37UEWGM5HUFSNNQTZUMJUW42F14R1A", "current_trial": 266, "dateTime": 1512576796873, "trialdata": {"rt": -1, "stimulus": "<p id=\"stim\">COD</p>", "key_press": -1, "type": "PRES_VIS", "word": "cod", "wordID": 339, "conditions": [24, 800, "v", 12000], "trial": 7, "serialpos": 1, "trial_type": "single-stim", "trial_index": 266, "time_elapsed": 3789206, "internal_node_id": "0.0-194.0"}}, {"uniqueid": "MTK0632:37UEWGM5HUFSNNQTZUMJUW42F14R1A", "current_trial": 267, "dateTime": 1512576798854, "trialdata": {"rt": -1, "stimulus": "<p id=\"stim\">GRAVEL</p>", "key_press": -1, "type": "PRES_VIS", "word": "gravel", "wordID": 658, "conditions": [24, 800, "v", 12000], "trial": 7, "serialpos": 2, "trial_type": "single-stim", "trial_index": 267, "time_elapsed": 3791187, "internal_node_id": "0.0-195.0"}}, {"uniqueid": "MTK0632:37UEWGM5HUFSNNQTZUMJUW42F14R1A", "current_trial": 268, "dateTime": 1512576800804, "trialdata": {"rt": -1, "stimulus": "<p id=\"stim\">HEADBAND</p>", "key_press": -1, "type": "PRES_VIS", "word": "headband", "wordID": 695, "conditions": [24, 800, "v", 12000], "trial": 7, "serialpos": 3, "trial_type": "single-stim", "trial_index": 268, "time_elapsed": 3793137, "internal_node_id": "0.0-196.0"}}, {"uniqueid": "MTK0632:37UEWGM5