{"condition": 0, "counterbalance": 969, "assignmentId": "3STRJBFXOXY793P7BTXWZQ1J94QKTT", "workerId": "MTK0057", "hitId": "3S1WOPCJFG08MG3YDB3NA55LEPNJE3", "currenttrial": 625, "bonus": 0, "data": [{"uniqueid": "MTK0057:3STRJBFXOXY793P7BTXWZQ1J94QKTT", "current_trial": 0, "dateTime": 1509053642470, "trialdata": {"rt": 2552, "key_press": 32, "type": "INSTRUCTIONS", "trial_type": "text", "trial_index": 0, "time_elapsed": 2556, "internal_node_id": "0.0-0.0"}}, {"uniqueid": "MTK0057:3STRJBFXOXY793P7BTXWZQ1J94QKTT", "current_trial": 1, "dateTime": 1509053679213, "trialdata": {"rt": 36741, "key_press": 32, "type": "INSTRUCTIONS", "trial_type": "text", "trial_index": 1, "time_elapsed": 39300, "internal_node_id": "0.0-1.0"}}, {"uniqueid": "MTK0057:3STRJBFXOXY793P7BTXWZQ1J94QKTT", "current_trial": 2, "dateTime": 1509053695845, "trialdata": {"rt": [16437], "responses": ["ocean"], "type": "AUDIO_TEST", "trial_type": "audio-test", "trial_index": 2, "time_elapsed": 55932, "internal_node_id": "0.0-2.0"}}, {"uniqueid": "MTK0057:3STRJBFXOXY793P7BTXWZQ1J94QKTT", "current_trial": 3, "dateTime": 1509053704155, "trialdata": {"rt": [8301], "responses": ["crystal"], "type": "AUDIO_TEST", "trial_type": "audio-test", "trial_index": 3, "time_elapsed": 64242, "internal_node_id": "0.0-3.0"}}, {"uniqueid": "MTK0057:3STRJBFXOXY793P7BTXWZQ1J94QKTT", "current_trial": 4, "dateTime": 1509053711878, "trialdata": {"rt": [7714], "responses": ["spice"], "type": "AUDIO_TEST", "trial_type": "audio-test", "trial_index": 4, "time_elapsed": 71964, "internal_node_id": "0.0-4.0"}}, {"uniqueid": "MTK0057:3STRJBFXOXY793P7BTXWZQ1J94QKTT", "current_trial": 5, "dateTime": 1509053716775, "trialdata": {"rt": 4146, "key_press": 32, "type": "INSTRUCTIONS", "trial_type": "text", "trial_index": 5, "time_elapsed": 76862, "internal_node_id": "0.0-5.0"}}, {"uniqueid": "MTK0057:3STRJBFXOXY793P7BTXWZQ1J94QKTT", "current_trial": 6, "dateTime": 1509053789830, "trialdata": {"rt": 73053, "key_press": 32, "type": "INSTRUCTIONS", "trial_type": "text", "trial_index": 6, "time_elapsed": 149917, "internal_node_id": "0.0-6.0"}}, {"uniqueid": "MTK0057:3STRJBFXOXY793P7BTXWZQ1J94QKTT", "current_trial": 7, "dateTime": 1509053810228, "trialdata": {"rt": 20396, "key_press": 32, "type": "INSTRUCTIONS", "trial_type": "text", "trial_index": 7, "time_elapsed": 170315, "internal_node_id": "0.0-7.0"}}, {"uniqueid": "MTK0057:3STRJBFXOXY793P7BTXWZQ1J94QKTT", "current_trial": 8, "dateTime": 1509053830169, "trialdata": {"rt": 19939, "key_press": 32, "type": "INSTRUCTIONS", "trial_type": "text", "trial_index": 8, "time_elapsed": 190256, "internal_node_id": "0.0-8.0"}}, {"uniqueid": "MTK0057:3STRJBFXOXY793P7BTXWZQ1J94QKTT", "current_trial": 9, "dateTime": 1509053849193, "trialdata": {"rt": [4671, 8119, 11065, 13560, 16707], "responses": ["9", "15", "8", "11", "16"], "num1": [2, 2, 1, 2, 3, 2], "num2": [3, 4, 4, 8, 9, 5], "num3": [6, 9, 3, 1, 4, 8], "type": "DISTRACTOR", "conditions": [18, 1200, "a", 18000], "trial": 0, "trial_type": "math-distractor", "trial_index": 9, "time_elapsed": 209280, "internal_node_id": "0.0-9.0"}}, {"uniqueid": "MTK0057:3STRJBFXOXY793P7BTXWZQ1J94QKTT", "current_trial": 10, "dateTime": 1509053852199, "trialdata": {"rt": -1, "stimulus": "<p id=\"stim\">10</p>", "key_press": -1, "trial_type": "single-stim", "trial_index": 10, "time_elapsed": 212286, "internal_node_id": "0.0-10.0-0.0"}}, {"uniqueid": "MTK0057:3STRJBFXOXY793P7BTXWZQ1J94QKTT", "current_trial": 11, "dateTime": 1509053853200, "trialdata": {"rt": -1, "stimulus": "<p id=\"stim\">9</p>", "key_press": -1, "trial_type": "single-stim", "trial_index": 11, "time_elapsed": 213287, "internal_node_id": "0.0-10.0-1.0"}}, {"uniqueid": "MTK0057:3STRJBFXOXY793P7BTXWZQ1J94QKTT", "current_trial": 12, "dateTime": 1509053854203, "trialdata": {"rt": -1, "stimulus": "<p id=\"stim\">8</p>", "key_press": -1, "trial_type": "single-stim", "trial_index": 12, "time_elapsed": 214290, "internal_node_id": "0.0-10.0-2.0"}}, {"uniqueid": "MTK0057:3STRJBFXOXY793P7BTXWZQ1J94QKTT", "current_trial": 13, "dateTime": 1509053855205, "trialdata": {"rt": -1, "stimulus": "<p id=\"stim\">7</p>", "key_press": -1, "trial_type": "single-stim", "trial_index": 13, "time_elapsed": 215291, "internal_node_id": "0.0-10.0-3.0"}}, {"uniqueid": "MTK0057:3STRJBFXOXY793P7BTXWZQ1J94QKTT", "current_trial": 14, "dateTime": 1509053856207, "trialdata": {"rt": -1, "stimulus": "<p id=\"stim\">6</p>", "key_press": -1, "trial_type": "single-stim", "trial_index": 14, "time_elapsed": 216293, "internal_node_id": "0.0-10.0-4.0"}}, {"uniqueid": "MTK0057:3STRJBFXOXY793P7BTXWZQ1J94QKTT", "current_trial": 15, "dateTime": 1509053857207, "trialdata": {"rt": -1, "stimulus": "<p id=\"stim\">5</p>", "key_press": -1, "trial_type": "single-stim", "trial_index": 15, "time_elapsed": 217294, "internal_node_id": "0.0-10.0-5.0"}}, {"uniqueid": "MTK0057:3STRJBFXOXY793P7BTXWZQ1J94QKTT", "current_trial": 16, "dateTime": 1509053858208, "trialdata": {"rt": -1, "stimulus": "<p id=\"stim\">4</p>", "key_press": -1, "trial_type": "single-stim", "trial_index": 16, "time_elapsed": 218295, "internal_node_id": "0.0-10.0-6.0"}}, {"uniqueid": "MTK0057:3STRJBFXOXY793P7BTXWZQ1J94QKTT", "current_trial": 17, "dateTime": 1509053859210, "trialdata": {"rt": -1, "stimulus": "<p id=\"stim\">3</p>", "key_press": -1, "trial_type": "single-stim", "trial_index": 17, "time_elapsed": 219297, "internal_node_id": "0.0-10.0-7.0"}}, {"uniqueid": "MTK0057:3STRJBFXOXY793P7BTXWZQ1J94QKTT", "current_trial": 18, "dateTime": 1509053860213, "trialdata": {"rt": -1, "stimulus": "<p id=\"stim\">2</p>", "key_press": -1, "trial_type": "single-stim", "trial_index": 18, "time_elapsed": 220299, "internal_node_id": "0.0-10.0-8.0"}}, {"uniqueid": "MTK0057:3STRJBFXOXY793P7BTXWZQ1J94QKTT", "current_trial": 19, "dateTime": 1509053861214, "trialdata": {"rt": -1, "stimulus": "<p id=\"stim\">1</p>", "key_press": -1, "trial_type": "single-stim", "trial_index": 19, "time_elapsed": 221300, "internal_node_id": "0.0-10.0-9.0"}}, {"uniqueid": "MTK0057:3STRJBFXOXY793P7BTXWZQ1J94QKTT", "current_trial": 20, "dateTime": 1509053862716, "trialdata": {"rt": -1, "stimulus": "<p id=\"stim\">+</p>", "key_press": -1, "type": "FIXATION", "trial_type": "single-stim", "trial_index": 20, "time_elapsed": 222803, "internal_node_id": "0.0-11.0-0.0"}}, {"uniqueid": "MTK0057:3STRJBFXOXY793P7BTXWZQ1J94QKTT", "current_trial": 21, "dateTime": 1509053864819, "trialdata": {"rt": -1000, "stimulus": "/static/audio/wordpool/CHILD.wav", "key_press": -1, "type": "PRES_AUD", "word": "child", "wordID": 298, "conditions": [18, 1200, "a", 18000], "trial": 0, "serialpos": 0, "trial_type": "single-audio", "trial_index": 21, "time_elapsed": 224906, "internal_node_id": "0.0-12.0"}}, {"uniqueid": "MTK0057:3STRJBFXOXY793P7BTXWZQ1J94QKTT", "current_trial": 22, "dateTime": 1509053866953, "trialdata": {"rt": -1000, "stimulus": "/static/audio/wordpool/POCKET.wav", "key_press": -1, "type": "PRES_AUD", "word": "pocket", "wordID": 1092, "conditions": [18, 1200, "a", 18000], "trial": 0, "serialpos": 1, "trial_type": "single-audio", "trial_index": 22, "time_elapsed": 227040, "internal_node_id": "0.0-13.0"}}, {"uniqueid": "MTK0057:3STRJBFXOXY793P7BTXWZQ1J94QKTT", "current_trial": 23, "dateTime": 1509053869080, "trialdata": {"rt": -1000, "stimulus": "/static/audio/wordpool/FIDDLE.wav", "key_press": -1, "type": "PRES_AUD", "word": "fiddle", "wordID": 560, "conditions": [18, 1200, "a", 18000], "trial": 0, "serialpos": 2, "trial_type": "single-audio", "trial_index": 23, "time_elapsed": 229167, "internal_node_id": "0.0-14.0"}}, {"uniqueid": "MTK0057:3STRJBFXOXY793P7BTXWZQ1J94QKTT", "current_trial": 24, "dateTime": 1509053871161, "trialdata": {"rt": -1000, "stimulus": "/static/audio/wordpool/WASP.wav", "key_press": -1, "type": "PRES_AUD", "word": "wasp", "wordID": 1592, "conditions": [18, 1200, "a", 18000], "trial": 0, "serialpos": 3, "trial_type": "single-audio", "trial_index": 24, "time_elapsed": 231247, "internal_node_id": "0.0-15.0"}}, {"uniqueid": "MTK0057:3STRJBFXOXY793P7BTXWZQ1J94QKTT", "current_trial": 25, "dateTime": 1509053873425, "trialdata": {"rt": -1000, "stimulus": "/static/audio/wordpool/SPOOL.wav", "key_press": -1, "type": "PRES_AUD", "word": "spool", "wordID": 1355, "conditions": [18, 1200, "a", 18000], "trial": 0, "serialpos": 4, "trial_type": "single-audio", "trial_index": 25, "time_elapsed": 233512, "internal_node_id": "0.0-16.0"}}, {"uniqueid": "MTK0057:3STRJBFXOXY793P7BTXWZQ1J94QKTT", "current_trial": 26, "dateTime": 1509053875753, "trialdata": {"rt": -1000, "stimulus": "/static/audio/wordpool/STAMP.wav", "key_press": -1, "type": "PRES_AUD", "word": "stamp", "wordID": 1369, "conditions": [18, 1200, "a", 18000], "trial": 0, "serialpos": 5, "trial_type": "single-audio", "trial_index": 26, "time_elapsed": 235840, "internal_node_id": "0.0-17.0"}}, {"uniqueid": "MTK0057:3STRJBFXOXY793P7BTXWZQ1J94QKTT", "current_trial": 27, "dateTime": 1509053878147, "trialdata": {"rt": -1000, "stimulus": "/static/audio/wordpool/FILM.wav", "key_press": -1, "type": "PRES_AUD", "word": "film", "wordID": 564, "conditions": [18, 1200, "a", 18000], "trial": 0, "serialpos": 6, "trial_type": "single-audio", "trial_index": 27, "time_elapsed": 238233, "internal_node_id": "0.0-18.0"}}, {"uniqueid": "MTK0057:3STRJBFXOXY793P7BTXWZQ1J94QKTT", "current_trial": 28, "dateTime": 1509053880181, "trialdata": {"rt": -1000, "stimulus": "/static/audio/wordpool/LIGHTNING.wav", "key_press": -1, "type": "PRES_AUD", "word": "lightning", "wordID": 819, "conditions": [18, 1200, "a", 18000], "trial": 0, "serialpos": 7, "trial_type": "single-audio", "trial_index": 28, "time_elapsed": 240268, "internal_node_id": "0.0-19.0"}}, {"uniqueid": "MTK0057:3STRJBFXOXY793P7BTXWZQ1J94QKTT", "current_trial": 29, "dateTime": 1509053882403, "trialdata": {"rt": -1000, "stimulus": "/static/audio/wordpool/CHEST.wav", "key_press": -1, "type": "PRES_AUD", "word": "chest", "wordID": 294, "conditions": [18, 1200, "a", 18000], "trial": 0, "serialpos": 8, "trial_type": "single-audio", "trial_index": 29, "time_elapsed": 242490, "internal_node_id": "0.0-20.0"}}, {"uniqueid": "MTK0057:3STRJBFXOXY793P7BTXWZQ1J94QKTT", "current_trial": 30, "dateTime": 1509053884660, "trialdata": {"rt": -1000, "stimulus": "/static/audio/wordpool/HATCHET.wav", "key_press": -1, "type": "PRES_AUD", "word": "hatchet", "wordID": 690, "conditions": [18, 1200, "a", 18000], "trial": 0, "serialpos": 9, "trial_type": "single-audio", "trial_index": 30, "time_elapsed": 244747, "internal_node_id": "0.0-21.0"}}, {"uniqueid": "MTK0057:3STRJBFXOXY793P7BTXWZQ1J94QKTT", "current_trial": 31, "dateTime": 1509053886964, "trialdata": {"rt": -1000, "stimulus": "/static/audio/wordpool/RATTLE.wav", "key_press": -1, "type": "PRES_AUD", "word": "rattle", "wordID": 1169, "conditions": [18, 1200, "a", 18000], "trial": 0, "serialpos": 10, "trial_type": "single-audio", "trial_index": 31, "time_elapsed": 247051, "internal_node_id": "0.0-22.0"}}, {"uniqueid": "MTK0057:3STRJBFXOXY793P7BTXWZQ1J94QKTT", "current_trial": 32, "dateTime": 1509053889165, "trialdata": {"rt": -1000, "stimulus": "/static/audio/wordpool/CARROT.wav", "key_press": -1, "type": "PRES_AUD", "word": "carrot", "wordID": 248, "conditions": [18, 1200, "a", 18000], "trial": 0, "serialpos": 11, "trial_type": "single-audio", "trial_index": 32, "time_elapsed": 249252, "internal_node_id": "0.0-23.0"}}, {"uniqueid": "MTK0057:3STRJBFXOXY793P7BTXWZQ1J94QKTT", "current_trial": 33, "dateTime": 1509053891447, "trialdata": {"rt": -1000, "stimulus": "/static/audio/wordpool/HOOD.wav", "key_press": -1, "type": "PRES_AUD", "word": "hood", "wordID": 713, "conditions": [18, 1200, "a", 18000], "trial": 0, "serialpos": 12, "trial_type": "single-audio", "trial_index": 33, "time_elapsed": 251534, "internal_node_id": "0.0-24.0"}}, {"uniqueid": "MTK0057:3STRJBFXOXY793P7BTXWZQ1J94QKTT", "current_trial": 34, "dateTime": 1509053893744, "trialdata": {"rt": -1000, "stimulus": "/static/audio/wordpool/STICKER.wav", "key_press": -1, "type": "PRES_AUD", "word": "sticker", "wordID": 1381, "conditions": [18, 1200, "a", 18000], "trial": 0, "serialpos": 13, "trial_type": "single-audio", "trial_index": 34, "time_elapsed": 253830, "internal_node_id": "0.0-25.0"}}, {"uniqueid": "MTK0057:3STRJBFXOXY793P7BTXWZQ1J94QKTT", "current_trial": 35, "dateTime": 1509053895964, "trialdata": {"rt": -1000, "stimulus": "/static/audio/wordpool/GIRL.wav", "key_press": -1, "type": "PRES_AUD", "word": "girl", "wordID": 636, "conditions": [18, 1200, "a", 18000], "trial": 0, "serialpos": 14, "trial_type": "single-audio", "trial_index": 35, "time_elapsed": 256051, "internal_node_id": "0.0-26.0"}}, {"uniqueid": "MTK0057:3STRJBFXOXY793P7BTXWZQ1J94QKTT", "current_trial": 36, "dateTime": 1509053898037, "trialdata": {"rt": -1000, "stimulus": "/static/audio/wordpool/MISSILE.wav", "key_press": -1, "type": "PRES_AUD", "word": "missile", "wordID": 899, "conditions": [18, 1200, "a", 18000], "trial": 0, "serialpos": 15, "trial_type": "single-audio", "trial_index": 36, "time_elapsed": 258124, "internal_node_id": "0.0-27.0"}}, {"uniqueid": "MTK0057:3STRJBFXOXY793P7BTXWZQ1J94QKTT", "current_trial": 37, "dateTime": 1509053900357, "trialdata": {"rt": -1000, "stimulus": "/static/audio/wordpool/SKETCH.wav", "key_press": -1, "type": "PRES_AUD", "word": "sketch", "wordID": 1314, "conditions": [18, 1200, "a", 18000], "trial": 0, "serialpos": 16, "trial_type": "single-audio", "trial_index": 37, "time_elapsed": 260444, "internal_node_id": "0.0-28.0"}}, {"uniqueid": "MTK0057:3STRJBFXOXY793P7BTXWZQ1J94QKTT", "current_trial": 38, "dateTime": 1509053902429, "trialdata": {"rt": -1000, "stimulus": "/static/audio/wordpool/CRIB.wav", "key_press": -1, "type": "PRES_AUD", "word": "crib", "wordID": 406, "conditions": [18, 1200, "a", 18000], "trial": 0, "serialpos": 17, "trial_type": "single-audio", "trial_index": 38, "time_elapsed": 262515, "internal_node_id": "0.0-29.0"}}, {"uniqueid": "MTK0057:3STRJBFXOXY793P7BTXWZQ1J94QKTT", "current_trial": 39, "dateTime": 1509053903665, "trialdata": {"rt": -1, "stimulus": "", "key_press": -1, "type": "PRE_RECALL_DELAY", "trial_type": "single-stim", "trial_index": 39, "time_elapsed": 263752, "internal_node_id": "0.0-30.0-0.0"}}, {"uniqueid": "MTK0057:3STRJBFXOXY793P7BTXWZQ1J94QKTT", "current_trial": 40, "dateTime": 1509053904167, "trialdata": {"rt": -1000, "stimulus": "/static/audio/400Hz.wav", "key_press": -1, "type": "PRE_RECALL_ALERT", "trial_type": "single-audio", "trial_index": 40, "time_elapsed": 264254, "internal_node_id": "0.0-31.0"}}, {"uniqueid": "MTK0057:3STRJBFXOXY793P7BTXWZQ1J94QKTT", "current_trial": 41, "dateTime": 1509053964172, "trialdata": {"rt": [5416, 9713, 11181, 13001, 15035, 16828, 18642, 19778, 23863, 49072], "recwords": ["child", "pocket", "film", "girl", "spool", "string", "lightning", "film", "pocket", "mountain"], "type": "FREE_RECALL", "conditions": [18, 1200, "a", 18000], "trial": 0, "trial_type": "free-recall", "trial_index": 41, "time_elapsed": 324259, "internal_node_id": "0.0-32.0-0.0"}}, {"uniqueid": "MTK0057:3STRJBFXOXY793P7BTXWZQ1J94QKTT", "current_trial": 42, "dateTime": 1509053967659, "trialdata": {"rt": 1484, "key_press": 32, "type": "INSTRUCTIONS", "trial_type": "text", "trial_index": 42, "time_elapsed": 327746, "internal_node_id": "0.0-33.0"}}, {"uniqueid": "MTK0057:3STRJBFXOXY793P7BTXWZQ1J94QKTT", "current_trial": 43, "dateTime": 1509053987663, "trialdata": {"rt": [3988, 6658, 9292, 11398, 14100, 16369], "responses": ["15", "12", "13", "15", "16", "11"], "num1": [4, 3, 6, 7, 7, 3, 8], "num2": [7, 8, 2, 7, 5, 5, 6], "num3": [4, 1, 5, 1, 4, 3, 8], "type": "DISTRACTOR", "conditions": [18, 1200, "v", 18000], "trial": 1, "trial_type": "math-distractor", "trial_index": 43, "time_elapsed": 347750, "internal_node_id": "0.0-34.0"}}, {"uniqueid": "MTK0057:3STRJBFXOXY793P7BTXWZQ1J94QKTT", "current_trial": 44, "dateTime": 1509053990664, "trialdata": {"rt": -1, "stimulus": "<p id=\"stim\">10</p>", "key_press": -1, "trial_type": "single-stim", "trial_index": 44, "time_elapsed": 350750, "internal_node_id": "0.0-35.0-0.0"}}, {"uniqueid": "MTK0057:3STRJBFXOXY793P7BTXWZQ1J94QKTT", "current_trial": 45, "dateTime": 1509053991664, "trialdata": {"rt": -1, "stimulus": "<p id=\"stim\">9</p>", "key_press": -1, "trial_type": "single-stim", "trial_index": 45, "time_elapsed": 351751, "internal_node_id": "0.0-35.0-1.0"}}, {"uniqueid": "MTK0057:3STRJBFXOXY793P7BTXWZQ1J94QKTT", "current_trial": 46, "dateTime": 1509053992665, "trialdata": {"rt": -1, "stimulus": "<p id=\"stim\">8</p>", "key_press": -1, "trial_type": "single-stim", "trial_index": 46, "time_elapsed": 352752, "internal_node_id": "0.0-35.0-2.0"}}, {"uniqueid": "MTK0057:3STRJBFXOXY793P7BTXWZQ1J94QKTT", "current_trial": 47, "dateTime": 1509053993667, "trialdata": {"rt": -1, "stimulus": "<p id=\"stim\">7</p>", "key_press": -1, "trial_type": "single-stim", "trial_index": 47, "time_elapsed": 353754, "internal_node_id": "0.0-35.0-3.0"}}, {"uniqueid": "MTK0057:3STRJBFXOXY793P7BTXWZQ1J94QKTT", "current_trial": 48, "dateTime": 1509053994669, "trialdata": {"rt": -1, "stimulus": "<p id=\"stim\">6</p>", "key_press": -1, "trial_type": "single-stim", "trial_index": 48, "time_elapsed": 354755, "internal_node_id": "0.0-35.0-4.0"}}, {"uniqueid": "MTK0057:3STRJBFXOXY793P7BTXWZQ1J94QKTT", "current_trial": 49, "dateTime": 1509053995670, "trialdata": {"rt": -1, "stimulus": "<p id=\"stim\">5</p>", "key_press": -1, "trial_type": "single-stim", "trial_index": 49, "time_elapsed": 355757, "internal_node_id": "0.0-35.0-5.0"}}, {"uniqueid": "MTK0057:3STRJBFXOXY793P7BTXWZQ1J94QKTT", "current_trial": 50, "dateTime": 1509053996671, "trialdata": {"rt": -1, "stimulus": "<p id=\"stim\">4</p>", "key_press": -1, "trial_type": "single-stim", "trial_index": 50, "time_elapsed": 356758, "internal_node_id": "0.0-35.0-6.0"}}, {"uniqueid": "MTK0057:3STRJBFXOXY793P7BTXWZQ1J94QKTT", "current_trial": 51, "dateTime": 1509053997673, "trialdata": {"rt": -1, "stimulus": "<p id=\"stim\">3</p>", "key_press": -1, "trial_type": "single-stim", "trial_index": 51, "time_elapsed": 357760, "internal_node_id": "0.0-35.0-7.0"}}, {"uniqueid": "MTK0057:3STRJBFXOXY793P7BTXWZQ1J94QKTT", "current_trial": 52, "dateTime": 1509053998675, "trialdata": {"rt": -1, "stimulus": "<p id=\"stim\">2</p>", "key_press": -1, "trial_type": "single-stim", "trial_index": 52, "time_elapsed": 358762, "internal_node_id": "0.0-35.0-8.0"}}, {"uniqueid": "MTK0057:3STRJBFXOXY793P7BTXWZQ1J94QKTT", "current_trial": 53, "dateTime": 1509053999677, "trialdata": {"rt": -1, "stimulus": "<p id=\"stim\">1</p>", "key_press": -1, "trial_type": "single-stim", "trial_index": 53, "time_elapsed": 359764, "internal_node_id": "0.0-35.0-9.0"}}, {"uniqueid": "MTK0057:3STRJBFXOXY793P7BTXWZQ1J94QKTT", "current_trial": 54, "dateTime": 1509054001179, "trialdata": {"rt": -1, "stimulus": "<p id=\"stim\">+</p>", "key_press": -1, "type": "FIXATION", "trial_type": "single-stim", "trial_index": 54, "time_elapsed": 361266, "internal_node_id": "0.0-36.0-0.0"}}, {"uniqueid": "MTK0057:3STRJBFXOXY793P7BTXWZQ1J94QKTT", "current_trial": 55, "dateTime": 1509054002381, "trialdata": {"rt": -1, "stimulus": "<p id=\"stim\">HELMET</p>", "key_press": -1, "type": "PRES_VIS", "word": "helmet", "wordID": 701, "conditions": [18, 1200, "v", 18000], "trial": 1, "serialpos": 0, "trial_type": "single-stim", "trial_index": 55, "time_elapsed": 362468, "internal_node_id": "0.0-37.0"}}, {"uniqueid": "MTK0057:3STRJBFXOXY793P7BTXWZQ1J94QKTT", "current_trial": 56, "dateTime": 1509054004543, "trialdata": {"rt": -1, "stimulus": "<p id=\"stim\">RAFT</p>", "key_press": -1, "type": "PRES_VIS", "word": "raft", "wordID": 1158, "conditions": [18, 1200, "v", 18000], "trial": 1, "serialpos": 1, "trial_type": "single-stim", "trial_index": 56, "time_elapsed": 364630, "internal_node_id": "0.0-38.0"}}, {"uniqueid": "MTK0057:3STRJBFXOXY793P7BTXWZQ1J94QKTT", "current_trial": 57, "dateTime": 1509054006686, "trialdata": {"rt": -1, "stimulus": "<p id=\"stim\">CLOUD</p>", "key_press": -1, "type": "PRES_VIS", "word": "cloud", "wordID": 327, "conditions": [18, 1200, "v", 18000], "trial": 1, "serialpos": 2, "trial_type": "single-stim", "trial_index": 57, "time_elapsed": 366773, "internal_node_id": "0.0-39.0"}}, {"uniqueid": "MTK0057:3STRJBFXOXY793P7BTXWZQ1J94QKTT", "current_trial": 58, "dateTime": 1509054009033, "trialdata": {"rt": -1, "stimulus": "<p id=\"stim\">MARROW</p>", "key_press": -1, "type": "PRES_VIS", "word": "marrow", "wordID": 871, "conditions": [18, 1200, "v", 18000], "trial": 1, "serialpos": 3, "trial_type": "single-stim", "trial_index": 58, "time_elapsed": 369120, "internal_node_id": "0.0-40.0"}}, {"uniqueid": "MTK0057:3STRJBFXOXY793P7BTXWZQ1J94QKTT", "current_trial": 59, "dateTime": 1509054011249, "trialdata": {"rt": -1, "stimulus": "<p id=\"stim\">SUSPECT</p>", "key_press": -1, "type": "PRES_VIS", "word": "suspect", "wordID": 1414, "conditions": [18, 1200, "v", 18000], "trial": 1, "serialpos": 4, "trial_type": "single-stim", "trial_index": 59, "time_elapsed": 371336, "internal_node_id": "0.0-41.0"}}, {"uniqueid": "MTK0057:3STRJBFXOXY793P7BTXWZQ1J94QKTT", "current_trial": 60, "dateTime": 1509054013268, "trialdata": {"rt": -1, "stimulus": "<p id=\"stim\">BASEMENT</p>", "key_press": -1, "type": "PRES_VIS", "word": "basement", "wordID": 93, "conditions": [18, 1200, "v", 18000], "trial": 1, "serialpos": 5, "trial_type": "single-stim", "trial_index": 60, "time_elapsed": 373355, "internal_node_id": "0.0-42.0"}}, {"uniqueid": "MTK0057:3STRJBFXOXY793P7BTXWZQ1J94QKTT", "current_trial": 61, "dateTime": 1509054015528, "trialdata": {"rt": -1, "stimulus": "<p id=\"stim\">ROBOT</p>", "key_press": -1, "type": "PRES_VIS", "word": "robot", "wordID": 1199, "conditions": [18, 1200, "v", 18000], "trial": 1, "serialpos": 6, "trial_type": "single-stim", "trial_index": 61, "time_elapsed": 375615, "internal_node_id": "0.0-43.0"}}, {"uniqueid": "MTK0057:3STRJBFXOXY793P7BTXWZQ1J94QKTT", "current_trial": 62, "dateTime": 1509054017534, "trialdata": {"rt": -1, "stimulus": "<p id=\"stim\">ROOSTER</p>", "key_press": -1, "type": "PRES_VIS", "word": "rooster", "wordID": 1208, "conditions": [18, 1200, "v", 18000], "trial": 1, "serialpos": 7, "trial_type": "single-stim", "trial_index": 62, "time_elapsed": 377621, "internal_node_id": "0.0-44.0"}}, {"uniqueid": "MTK0057:3STRJBFXOXY793P7BTXWZQ1J94QKTT", "current_trial": 63, "dateTime": 1509054019588, "trialdata": {"rt": -1, "stimulus": "<p id=\"stim\">CHAPEL</p>", "key_press": -1, "type": "PRES_VIS", "word": "chapel", "wordID": 279, "conditions": [18, 1200, "v", 18000], "trial": 1, "serialpos": 8, "trial_type": "single-stim", "trial_index": 63, "time_elapsed": 379675, "internal_node_id": "0.0-45.0"}}, {"uniqueid": "MTK0057:3STRJBFXOXY793P7BTXWZQ1J94QKTT", "current_trial": 64, "dateTime": 1509054021672, "trialdata": {"rt": -1, "stimulus": "<p id=\"stim\">SALT</p>", "key_press": -1, "type": "PRES_VIS", "word": "salt", "wordID": 1228, "conditions": [18, 1200, "v", 18000], "trial": 1, "serialpos": 9, "trial_type": "single-stim", "trial_index": 64, "time_elapsed": 381759, "internal_node_id": "0.0-46.0"}}, {"uniqueid": "MTK0057:3STRJBFXOXY793P7BTXWZQ1J94QKTT", "current_trial": 65, "dateTime": 1509054024053, "trialdata": {"rt": -1, "stimulus": "<p id=\"stim\">FLOWER</p>", "key_press": -1, "type": "PRES_VIS", "word": "flower", "wordID": 583, "conditions": [18, 1200, "v", 18000], "trial": 1, "serialpos": 10, "trial_type": "single-stim", "trial_index": 65, "time_elapsed": 384140, "internal_node_id": "0.0-47.0"}}, {"uniqueid": "MTK0057:3STRJBFXOXY793P7BTXWZQ1J94QKTT", "current_trial": 66, "dateTime": 1509054026109, "trialdata": {"rt": -1, "stimulus": "<p id=\"stim\">GLOBE</p>", "key_press": -1, "type": "PRES_VIS", "word": "globe", "wordID": 640, "conditions": [18, 1200, "v", 18000], "trial": 1, "serialpos": 11, "trial_type": "single-stim", "trial_index": 66, "time_elapsed": 386196, "internal_node_id": "0.0-48.0"}}, {"uniqueid": "MTK0057:3STRJBFXOXY793P7BTXWZQ1J94QKTT", "current_trial": 67, "dateTime": 1509054028404, "trialdata": {"rt": -1, "stimulus": "<p id=\"stim\">COCOON</p>", "key_press": -1, "type": "PRES_VIS", "word": "cocoon", "wordID": 338, "conditions": [18, 1200, "v", 18000], "trial": 1, "serialpos": 12, "trial_type": "single-stim", "trial_index": 67, "time_elapsed": 388491, "internal_node_id": "0.0-49.0"}}, {"uniqueid": "MTK0057:3STRJBFXOXY793P7BTXWZQ1J94QKTT", "current_trial": 68, "dateTime": 1509054030650, "trialdata": {"rt": -1, "stimulus": "<p id=\"stim\">PREACHER</p>", "key_press": -1, "type": "PRES_VIS", "word": "preacher", "wordID": 1118, "conditions": [18, 1200, "v", 18000], "trial": 1, "serialpos": 13, "trial_type": "single-stim", "trial_index": 68, "time_elapsed": 390734, "internal_node_id": "0.0-50.0"}}, {"uniqueid": "MTK0057:3STRJBFXOXY793P7BTXWZQ1J94QKTT", "current_trial": 69, "dateTime": 1509054032869, "trialdata": {"rt": -1, "stimulus": "<p id=\"stim\">NEUTRON</p>", "key_press": -1, "type": "PRES_VIS", "word": "neutron", "wordID": 946, "conditions": [18, 1200, "v", 18000], "trial": 1, "serialpos": 14, "trial_type": "single-stim", "trial_index": 69, "time_elapsed": 392956, "internal_node_id": "0.0-51.0"}}, {"uniqueid": "MTK0057:3STRJBFXOXY793P7BTXWZQ1J94QKTT", "current_trial": 70, "dateTime": 1509054035203, "trialdata": {"rt": -1, "stimulus": "<p id=\"stim\">WINDOW</p>", "key_press": -1, "type": "PRES_VIS", "word": "window", "wordID": 1610, "conditions": [18, 1200, "v", 18000], "trial": 1, "serialpos": 15, "trial_type": "single-stim", "trial_index": 70, "time_elapsed": 395290, "internal_node_id": "0.0-52.0"}}, {"uniqueid": "MTK0057:3STRJBFXOXY793P7BTXWZQ1J94QKTT", "current_trial": 71, "dateTime": 1509054037307, "trialdata": {"rt": -1, "stimulus": "<p id=\"stim\">BEEF</p>", "key_press": -1, "type": "PRES_VIS", "word": "beef", "wordID": 112, "conditions": [18, 1200, "v", 18000], "trial": 1, "serialpos": 16, "trial_type": "single-stim", "trial_index": 71, "time_elapsed": 397394, "internal_node_id": "0.0-53.0"}}, {"uniqueid": "MTK0057:3STRJBFXOXY793P7BTXWZQ1J94QKTT", "current_trial": 72, "dateTime": 1509054039666, "trialdata": {"rt": -1, "stimulus": "<p id=\"stim\">PUDDLE</p>", "key_press": -1, "type": "PRES_VIS", "word": "puddle", "wordID": 1139, "conditions": [18, 1200, "v", 18000], "trial": 1, "serialpos": 17, "trial_type": "single-stim", "trial_index": 72, "time_elapsed": 399753, "internal_node_id": "0.0-54.0"}}, {"uniqueid": "MTK0057:3STRJBFXOXY793P7BTXWZQ1J94QKTT", "current_trial": 73, "dateTime": 1509054041859, "trialdata": {"rt": -1, "stimulus": "", "key_press": -1, "type": "PRE_RECALL_DELAY", "trial_type": "single-stim", "trial_index": 73, "time_elapsed": 401946, "internal_node_id": "0.0-55.0-0.0"}}, {"uniqueid": "MTK0057:3STRJBFXOXY793P7BTXWZQ1J94QKTT", "current_trial": 74, "dateTime": 1509054042361, "trialdata": {"rt": -1000, "stimulus": "/static/audio/400Hz.wav", "key_press": -1, "type": "PRE_RECALL_ALERT", "trial_type": "single-audio", "trial_index": 74, "time_elapsed": 402448, "internal_node_id": "0.0-56.0"}}, {"uniqueid": "MTK0057:3STRJBFXOXY793P7BTXWZQ1J94QKTT", "current_trial": 75, "dateTime": 1509054102364, "trialdata": {"rt": [3566, 5767, 7313, 9717, 12765, 14818, 18547, 20889, 30220, 32693, 34756], "recwords": ["preacher", "neutron", "beef", "noodle", "helmet", "cloud", "canoe", "window", "roof", "rooster", "robot"], "type": "FREE_RECALL", "conditions": [18, 1200, "v", 18000], "trial": 1, "trial_type": "free-recall", "trial_index": 75, "time_elapsed": 462451, "internal_node_id": "0.0-57.0-0.0"}}, {"uniqueid": "MTK0057:3STRJBFXOXY793P7BTXWZQ1J94QKTT", "current_trial": 76, "dateTime": 1509054297700, "trialdata": {"rt": 193334, "key_press": 32, "type": "INSTRUCTIONS", "trial_type": "text", "trial_index": 76, "time_elapsed": 657787, "internal_node_id": "0.0-58.0"}}, {"uniqueid": "MTK0057:3STRJBFXOXY793P7BTXWZQ1J94QKTT", "current_trial": 77, "dateTime": 1509054322705, "trialdata": {"rt": [3871, 8042, 10643, 13261, 15898, 18020, 20872, 23978], "responses": ["6", "22", "10", "17", "13", "12", "8", "16"], "num1": [2, 4, 3, 5, 2, 4, 6, 2, 4], "num2": [1, 9, 2, 7, 2, 6, 1, 7, 7], "num3": [3, 9, 5, 5, 9, 2, 1, 7, 8], "type": "DISTRACTOR", "conditions": [12, 800, "a", 24000], "trial": 2, "trial_type": "math-distractor", "trial_index": 77, "time_elapsed": 682792, "internal_node_id": "0.0-59.0"}}, {"uniqueid": "MTK0057:3STRJBFXOXY793P7BTXWZQ1J94QKTT", "current_trial": 78, "dateTime": 1509054325707, "trialdata": {"rt": -1, "stimulus": "<p id=\"stim\">10</p>", "key_press": -1, "trial_type": "single-stim", "trial_index": 78, "time_elapsed": 685794, "internal_node_id": "0.0-60.0-0.0"}}, {"uniqueid": "MTK0057:3STRJBFXOXY793P7BTXWZQ1J94QKTT", "current_trial": 79, "dateTime": 1509054326708, "trialdata": {"rt": -1, "stimulus": "<p id=\"stim\">9</p>", "key_press": -1, "trial_type": "single-stim", "trial_index": 79, "time_elapsed": 686795, "internal_node_id": "0.0-60.0-1.0"}}, {"uniqueid": "MTK0057:3STRJBFXOXY793P7BTXWZQ1J94QKTT", "current_trial": 80, "dateTime": 1509054327710, "trialdata": {"rt": -1, "stimulus": "<p id=\"stim\">8</p>", "key_press": -1, "trial_type": "single-stim", "trial_index": 80, "time_elapsed": 687797, "internal_node_id": "0.0-60.0-2.0"}}, {"uniqueid": "MTK0057:3STRJBFXOXY793P7BTXWZQ1J94QKTT", "current_trial": 81, "dateTime": 1509054328713, "trialdata": {"rt": -1, "stimulus": "<p id=\"stim\">7</p>", "key_press": -1, "trial_type": "single-stim", "trial_index": 81, "time_elapsed": 688800, "internal_node_id": "0.0-60.0-3.0"}}, {"uniqueid": "MTK0057:3STRJBFXOXY793P7BTXWZQ1J94QKTT", "current_trial": 82, "dateTime": 1509054329713, "trialdata": {"rt": -1, "stimulus": "<p id=\"stim\">6</p>", "key_press": -1, "trial_type": "single-stim", "trial_index": 82, "time_elapsed": 689800, "internal_node_id": "0.0-60.0-4.0"}}, {"uniqueid": "MTK0057:3STRJBFXOXY793P7BTXWZQ1J94QKTT", "current_trial": 83, "dateTime": 1509054330715, "trialdata": {"rt": -1, "stimulus": "<p id=\"stim\">5</p>", "key_press": -1, "trial_type": "single-stim", "trial_index": 83, "time_elapsed": 690802, "internal_node_id": "0.0-60.0-5.0"}}, {"uniqueid": "MTK0057:3STRJBFXOXY793P7BTXWZQ1J94QKTT", "current_trial": 84, "dateTime": 1509054331717, "trialdata": {"rt": -1, "stimulus": "<p id=\"stim\">4</p>", "key_press": -1, "trial_type": "single-stim", "trial_index": 84, "time_elapsed": 691804, "internal_node_id": "0.0-60.0-6.0"}}, {"uniqueid": "MTK0057:3STRJBFXOXY793P7BTXWZQ1J94QKTT", "current_trial": 85, "dateTime": 1509054332718, "trialdata": {"rt": -1, "stimulus": "<p id=\"stim\">3</p>", "key_press": -1, "trial_type": "single-stim", "trial_index": 85, "time_elapsed": 692805, "internal_node_id": "0.0-60.0-7.0"}}, {"uniqueid": "MTK0057:3STRJBFXOXY793P7BTXWZQ1J94QKTT", "current_trial": 86, "dateTime": 1509054333720, "trialdata": {"rt": -1, "stimulus": "<p id=\"stim\">2</p>", "key_press": -1, "trial_type": "single-stim", "trial_index": 86, "time_elapsed": 693807, "internal_node_id": "0.0-60.0-8.0"}}, {"uniqueid": "MTK0057:3STRJBFXOXY793P7BTXWZQ1J94QKTT", "current_trial": 87, "dateTime": 1509054334721, "trialdata": {"rt": -1, "stimulus": "<p id=\"stim\">1</p>", "key_press": -1, "trial_type": "single-stim", "trial_index": 87, "time_elapsed": 694808, "internal_node_id": "0.0-60.0-9.0"}}, {"uniqueid": "MTK0057:3STRJBFXOXY793P7BTXWZQ1J94QKTT", "current_trial": 88, "dateTime": 1509054336224, "trialdata": {"rt": -1, "stimulus": "<p id=\"stim\">+</p>", "key_press": -1, "type": "FIXATION", "trial_type": "single-stim", "trial_index": 88, "time_elapsed": 696310, "internal_node_id": "0.0-61.0-0.0"}}, {"uniqueid": "MTK0057:3STRJBFXOXY793P7BTXWZQ1J94QKTT", "current_trial": 89, "dateTime": 1509054338084, "trialdata": {"rt": -1000, "stimulus": "/static/audio/wordpool/BLOUSE.wav", "key_press": -1, "type": "PRES_AUD", "word": "blouse", "wordID": 138, "conditions": [12, 800, "a", 24000], "trial": 2, "serialpos": 0, "trial_type": "single-audio", "trial_index": 89, "time_elapsed": 698171, "internal_node_id": "0.0-62.0"}}, {"uniqueid": "MTK0057:3STRJBFXOXY793P7BTXWZQ1J94QKTT", "current_trial": 90, "dateTime": 1509054339711, "trialdata": {"rt": -1000, "stimulus": "/static/audio/wordpool/DRUG.wav", "key_press": -1, "type": "PRES_AUD", "word": "drug", "wordID": 500, "conditions": [12, 800, "a", 24000], "trial": 2, "serialpos": 1, "trial_type": "single-audio", "trial_index": 90, "time_elapsed": 699797, "internal_node_id": "0.0-63.0"}}, {"uniqueid": "MTK0057:3STRJBFXOXY793P7BTXWZQ1J94QKTT", "current_trial": 91, "dateTime": 1509054341507, "trialdata": {"rt": -1000, "stimulus": "/static/audio/wordpool/SHORTCAKE.wav", "key_press": -1, "type": "PRES_AUD", "word": "shortcake", "wordID": 1291, "conditions": [12, 800, "a", 24000], "trial": 2, "serialpos": 2, "trial_type": "single-audio", "trial_index": 91, "time_elapsed": 701593, "internal_node_id": "0.0-64.0"}}, {"uniqueid": "MTK0057:3STRJBFXOXY793P7BTXWZQ1J94QKTT", "current_trial": 92, "dateTime": 1509054343375, "trialdata": {"rt": -1000, "stimulus": "/static/audio/wordpool/SNAIL.wav", "key_press": -1, "type": "PRES_AUD", "word": "snail", "wordID": 1331, "conditions": [12, 800, "a", 24000], "trial": 2, "serialpos": 3, "trial_type": "single-audio", "trial_index": 92, "time_elapsed": 703462, "internal_node_id": "0.0-65.0"}}, {"uniqueid": "MTK0057:3STRJBFXOXY793P7BTXWZQ1J94QKTT", "current_trial": 93, "dateTime": 1509054345220, "trialdata": {"rt": -1000, "stimulus": "/static/audio/wordpool/FLUTE.wav", "key_press": -1, "type": "PRES_AUD", "word": "flute", "wordID": 584, "conditions": [12, 800, "a", 24000], "trial": 2, "serialpos": 4, "trial_type": "single-audio", "trial_index": 93, "time_elapsed": 705307, "internal_node_id": "0.0-66.0"}}, {"uniqueid": "MTK0057:3STRJBFXOXY793P7BTXWZQ1J94QKTT", "current_trial": 94, "dateTime": 1509054346921, "trialdata": {"rt": -1000, "stimulus": "/static/audio/wordpool/WAITRESS.wav", "key_press": -1, "type": "PRES_AUD", "word": "waitress", "wordID": 1580, "conditions": [12, 800, "a", 24000], "trial": 2, "serialpos": 5, "trial_type": "single-audio", "trial_index": 94, "time_elapsed": 707008, "internal_node_id": "0.0-67.0"}}, {"uniqueid": "MTK0057:3STRJBFXOXY793P7BTXWZQ1J94QKTT", "current_trial": 95, "dateTime": 1509054348754, "trialdata": {"rt": -1000, "stimulus": "/static/audio/wordpool/HOSTESS.wav", "key_press": -1, "type": "PRES_AUD", "word": "hostess", "wordID": 722, "conditions": [12, 800, "a", 24000], "trial": 2, "serialpos": 6, "trial_type": "single-audio", "trial_index": 95, "time_elapsed": 708841, "internal_node_id": "0.0-68.0"}}, {"uniqueid": "MTK0057:3STRJBFXOXY793P7BTXWZQ1J94QKTT", "current_trial": 96, "dateTime": 1509054350439, "trialdata": {"rt": -1000, "stimulus": "/static/audio/wordpool/LIZARD.wav", "key_press": -1, "type": "PRES_AUD", "word": "lizard", "wordID": 833, "conditions": [12, 800, "a", 24000], "trial": 2, "serialpos": 7, "trial_type": "single-audio", "trial_index": 96, "time_elapsed": 710526, "internal_node_id": "0.0-69.0"}}, {"uniqueid": "MTK0057:3STRJBFXOXY793P7BTXWZQ1J94QKTT", "current_trial": 97, "dateTime": 1509054352407, "trialdata": {"rt": -1000, "stimulus": "/static/audio/wordpool/SCOTCH.wav", "key_press": -1, "type": "PRES_AUD", "word": "scotch", "wordID": 1250, "conditions": [12, 800, "a", 24000], "trial": 2, "serialpos": 8, "trial_type": "single-audio", "trial_index": 97, "time_elapsed": 712494, "internal_node_id": "0.0-70.0"}}, {"uniqueid": "MTK0057:3STRJBFXOXY793P7BTXWZQ1J94QKTT", "current_trial": 98, "dateTime": 1509054354342, "trialdata": {"rt": -1000, "stimulus": "/static/audio/wordpool/HOUND.wav", "key_press": -1, "type": "PRES_AUD", "word": "hound", "wordID": 723, "conditions": [12, 800, "a", 24000], "trial": 2, "serialpos": 9, "trial_type": "single-audio", "trial_index": 98, "time_elapsed": 714429, "internal_node_id": "0.0-71.0"}}, {"uniqueid": "MTK0057:3STRJBFXOXY793P7BTXWZQ1J94QKTT", "current_trial": 99, "dateTime": 1509054356122, "trialdata": {"rt": -1000, "stimulus": "/static/audio/wordpool/POISON.wav", "key_press": -1, "type": "PRES_AUD", "word": "poison", "wordID": 1095, "conditions": [12, 800, "a", 24000], "trial": 2, "serialpos": 10, "trial_type": "single-audio", "trial_index": 99, "time_elapsed": 716209, "internal_node_id": "0.0-72.0"}}, {"uniqueid": "MTK0057:3STRJBFXOXY793P7BTXWZQ1J94QKTT", "current_trial": 100, "dateTime": 1509054358077, "trialdata": {"rt": -1000, "stimulus": "/static/audio/wordpool/MOTEL.wav", "key_press": -1, "type": "PRES_AUD", "word": "motel", "wordID": 918, "conditions": [12, 800, "a", 24000], "trial": 2, "serialpos": 11, "trial_type": "single-audio", "trial_index": 100, "time_elapsed": 718164, "internal_node_id": "0.0-73.0"}}, {"uniqueid": "MTK0057:3STRJBFXOXY793P7BTXWZQ1J94QKTT", "current_trial": 101, "dateTime": 1509054359395, "trialdata": {"rt": -1, "stimulus": "", "key_press": -1, "type": "PRE_RECALL_DELAY", "trial_type": "single-stim", "trial_index": 101, "time_elapsed": 719482, "internal_node_id": "0.0-74.0-0.0"}}, {"uniqueid": "MTK0057:3STRJBFXOXY793P7BTXWZQ1J94QKTT", "current_trial": 102, "dateTime": 1509054359897, "trialdata": {"rt": -1000, "stimulus": "/static/audio/400Hz.wav", "key_press": -1, "type": "PRE_RECALL_ALERT", "trial_type": "single-audio", "trial_index": 102, "time_elapsed": 719984, "internal_node_id": "0.0-75.0"}}, {"uniqueid": "MTK0057:3STRJBFXOXY793P7BTXWZQ1J94QKTT", "current_trial": 103, "dateTime": 1509054419900, "trialdata": {"rt": [4047, 7806, 11329, 13449, 18280, 20645, 22830, 27662, 32688, 37790, 44011, 45917], "recwords": ["poison", "motel", "snail", "lizar", "lizard", "hostess", "waitress", "hotel", "scotch", "flute", "louse", "drug"], "type": "FREE_RECALL", "conditions": [12, 800, "a", 24000], "trial": 2, "trial_type": "free-recall", "trial_index": 103, "time_elapsed": 779987, "internal_node_id": "0.0-76.0-0.0"}}, {"uniqueid": "MTK0057:3STRJBFXOXY793P7BTXWZQ1J94QKTT", "current_trial": 104, "dateTime": 1509054429019, "trialdata": {"rt": 7116, "key_press": 32, "type": "INSTRUCTIONS", "trial_type": "text", "trial_index": 104, "time_elapsed": 789105, "internal_node_id": "0.0-77.0"}}, {"uniqueid": "MTK0057:3STRJBFXOXY793P7BTXWZQ1J94QKTT", "current_trial": 105, "dateTime": 1509054455022, "trialdata": {"rt": [2373, 4109, 6151, 8361, 10330, 11765, 14763, 17144, 19753, 21437, 23944], "responses": ["17", "18", "7", "17", "5", "3", "21", "7", "21", "16", "18"], "num1": [5, 7, 3, 5, 3, 1, 3, 1, 5, 8, 5, 9], "num2": [8, 7, 3, 8, 1, 1, 4, 3, 7, 2, 6, 6], "num3": [4, 4, 1, 4, 1, 1, 9, 3, 9, 6, 7, 3], "type": "DISTRACTOR", "conditions": [12, 800, "v", 24000], "trial": 3, "trial_type": "math-distractor", "trial_index": 105, "time_elapsed": 815109, "internal_node_id": "0.0-78.0"}}, {"uniqueid": "MTK0057:3STRJBFXOXY793P7BTXWZQ1J94QKTT", "current_trial": 106, "dateTime": 1509054458029, "trialdata": {"rt": -1, "stimulus": "<p id=\"stim\">10</p>", "key_press": -1, "trial_type": "single-stim", "trial_index": 106, "time_elapsed": 818116, "internal_node_id": "0.0-79.0-0.0"}}, {"uniqueid": "MTK0057:3STRJBFXOXY793P7BTXWZQ1J94QKTT", "current_trial": 107, "dateTime": 1509054459031, "trialdata": {"rt": -1, "stimulus": "<p id=\"stim\">9</p>", "key_press": -1, "trial_type": "single-stim", "trial_index": 107, "time_elapsed": 819118, "internal_node_id": "0.0-79.0-1.0"}}, {"uniqueid": "MTK0057:3STRJBFXOXY793P7BTXWZQ1J94QKTT", "current_trial": 108, "dateTime": 1509054460033, "trialdata": {"rt": -1, "stimulus": "<p id=\"stim\">8</p>", "key_press": -1, "trial_type": "single-stim", "trial_index": 108, "time_elapsed": 820120, "internal_node_id": "0.0-79.0-2.0"}}, {"uniqueid": "MTK0057:3STRJBFXOXY793P7BTXWZQ1J94QKTT", "current_trial": 109, "dateTime": 1509054461035, "trialdata": {"rt": -1, "stimulus": "<p id=\"stim\">7</p>", "key_press": -1, "trial_type": "single-stim", "trial_index": 109, "time_elapsed": 821121, "internal_node_id": "0.0-79.0-3.0"}}, {"uniqueid": "MTK0057:3STRJBFXOXY793P7BTXWZQ1J94QKTT", "current_trial": 110, "dateTime": 1509054462037, "trialdata": {"rt": -1, "stimulus": "<p id=\"stim\">6</p>", "key_press": -1, "trial_type": "single-stim", "trial_index": 110, "time_elapsed": 822124, "internal_node_id": "0.0-79.0-4.0"}}, {"uniqueid": "MTK0057:3STRJBFXOXY793P7BTXWZQ1J94QKTT", "current_trial": 111, "dateTime": 1509054463039, "trialdata": {"rt": -1, "stimulus": "<p id=\"stim\">5</p>", "key_press": -1, "trial_type": "single-stim", "trial_index": 111, "time_elapsed": 823125, "internal_node_id": "0.0-79.0-5.0"}}, {"uniqueid": "MTK0057:3STRJBFXOXY793P7BTXWZQ1J94QKTT", "current_trial": 112, "dateTime": 1509054464040, "trialdata": {"rt": -1, "stimulus": "<p id=\"stim\">4</p>", "key_press": -1, "trial_type": "single-stim", "trial_index": 112, "time_elapsed": 824127, "internal_node_id": "0.0-79.0-6.0"}}, {"uniqueid": "MTK0057:3STRJBFXOXY793P7BTXWZQ1J94QKTT", "current_trial": 113, "dateTime": 1509054465041, "trialdata": {"rt": -1, "stimulus": "<p id=\"stim\">3</p>", "key_press": -1, "trial_type": "single-stim", "trial_index": 113, "time_elapsed": 825128, "internal_node_id": "0.0-79.0-7.0"}}, {"uniqueid": "MTK0057:3STRJBFXOXY793P7BTXWZQ1J94QKTT", "current_trial": 114, "dateTime": 1509054466044, "trialdata": {"rt": -1, "stimulus": "<p id=\"stim\">2</p>", "key_press": -1, "trial_type": "single-stim", "trial_index": 114, "time_elapsed": 826130, "internal_node_id": "0.0-79.0-8.0"}}, {"uniqueid": "MTK0057:3STRJBFXOXY793P7BTXWZQ1J94QKTT", "current_trial": 115, "dateTime": 1509054467044, "trialdata": {"rt": -1, "stimulus": "<p id=\"stim\">1</p>", "key_press": -1, "trial_type": "single-stim", "trial_index": 115, "time_elapsed": 827131, "internal_node_id": "0.0-79.0-9.0"}}, {"uniqueid": "MTK0057:3STRJBFXOXY793P7BTXWZQ1J94QKTT", "current_trial": 116, "dateTime": 1509054468545, "trialdata": {"rt": -1, "stimulus": "<p id=\"stim\">+</p>", "key_press": -1, "type": "FIXATION", "trial_type": "single-stim", "trial_index": 116, "time_elapsed": 828632, "internal_node_id": "0.0-80.0-0.0"}}, {"uniqueid": "MTK0057:3STRJBFXOXY793P7BTXWZQ1J94QKTT", "current_trial": 117, "dateTime": 1509054469347, "trialdata": {"rt": -1, "stimulus": "<p id=\"stim\">SWITCH</p>", "key_press": -1, "type": "PRES_VIS", "word": "switch", "wordID": 1421, "conditions": [12, 800, "v", 24000], "trial": 3, "serialpos": 0, "trial_type": "single-stim", "trial_index": 117, "time_elapsed": 829434, "internal_node_id": "0.0-81.0"}}, {"uniqueid": "MTK0057:3STRJBFXOXY793P7BTXWZQ1J94QKTT", "current_trial": 118, "dateTime": 1509054471180, "trialdata": {"rt": -1, "stimulus": "<p id=\"stim\">APPLE</p>", "key_press": -1, "type": "PRES_VIS", "word": "apple", "wordID": 32, "conditions": [12, 800, "v", 24000], "trial": 3, "serialpos": 1, "trial_type": "single-stim", "trial_index": 118, "time_elapsed": 831267, "internal_node_id": "0.0-82.0"}}, {"uniqueid": "MTK0057:3STRJBFXOXY793P7BTXWZQ1J94QKTT", "current_trial": 119, "dateTime": 1509054473080, "trialdata": {"rt": -1, "stimulus": "<p id=\"stim\">CRAB</p>", "key_press": -1, "type": "PRES_VIS", "word": "crab", "wordID": 396, "conditions": [12, 800, "v", 24000], "trial": 3, "serialpos": 2, "trial_type": "single-stim", "trial_index": 119, "time_elapsed": 833166, "internal_node_id": "0.0-83.0"}}, {"uniqueid": "MTK0057:3STRJBFXOXY793P7BTXWZQ1J94QKTT", "current_trial": 120, "dateTime": 1509054474863, "trialdata": {"rt": -1, "stimulus": "<p id=\"stim\">COD</p>", "key_press": -1, "type": "PRES_VIS", "word": "cod", "wordID": 339, "conditions": [12, 800, "v", 24000], "trial": 3, "serialpos": 3, "trial_type": "single-stim", "trial_index": 120, "time_elapsed": 834950, "internal_node_id": "0.0-84.0"}}, {"uniqueid": "MTK0057:3STRJBFXOXY793P7BTXWZQ1J94QKTT", "current_trial": 121, "dateTime": 1509054476523, "trialdata": {"rt": -1, "stimulus": "<p id=\"stim\">SUNSET</p>", "key_press": -1, "type": "PRES_VIS", "word": "sunset", "wordID": 1407, "conditions": [12, 800, "v", 24000], "trial": 3, "serialpos": 4, "trial_type": "single-stim", "trial_index": 121, "time_elapsed": 836610, "internal_node_id": "0.0-85.0"}}, {"uniqueid": "MTK0057:3STRJBFXOXY793P7BTXWZQ1J94QKTT", "current_trial": 122, "dateTime": 1509054478435, "trialdata": {"rt": -1, "stimulus": "<p id=\"stim\">CANYON</p>", "key_press": -1, "type": "PRES_VIS", "word": "canyon", "wordID": 234, "conditions": [12, 800, "v", 24000], "trial": 3, "serialpos": 5, "trial_type": "single-stim", "trial_index": 122, "time_elapsed": 838522, "internal_node_id": "0.0-86.0"}}, {"uniqueid": "MTK0057:3STRJBFXOXY793P7BTXWZQ1J94QKTT", "current_trial": 123, "dateTime": 1509054480211, "trialdata": {"rt": -1, "stimulus": "<p id=\"stim\">WASHER</p>", "key_press": -1, "type": "PRES_VIS", "word": "washer", "wordID": 1591, "conditions": [12, 800, "v", 24000], "trial": 3, "serialpos": 6, "trial_type": "single-stim", "trial_index": 123, "time_elapsed": 840297, "internal_node_id": "0.0-87.0"}}, {"uniqueid": "MTK0057:3STRJBFXOXY793P7BTXWZQ1J94QKTT", "current_trial": 124, "dateTime": 1509054481921, "trialdata": {"rt": -1, "stimulus": "<p id=\"stim\">FRUIT</p>", "key_press": -1, "type": "PRES_VIS", "word": "fruit", "wordID": 609, "conditions": [12, 800, "v", 24000], "trial": 3, "serialpos": 7, "trial_type": "single-stim", "trial_index": 124, "time_elapsed": 842008, "internal_node_id": "0.0-88.0"}}, {"uniqueid": "MTK0057:3STRJBFXOXY793P7BTXWZQ1J94QKTT", "current_trial": 125, "dateTime": 1509054483639, "trialdata": {"rt": -1, "stimulus": "<p id=\"stim\">CLAMP</p>", "key_press": -1, "type": "PRES_VIS", "word": "clamp", "wordID": 315, "conditions": [12, 800, "v", 24000], "trial": 3, "serialpos": 8, "trial_type": "single-stim", "trial_index": 125, "time_elapsed": 843725, "internal_node_id": "0.0-89.0"}}, {"uniqueid": "MTK0057:3STRJBFXOXY793P7BTXWZQ1J94QKTT", "current_trial": 126, "dateTime": 1509054485636, "trialdata": {"rt": -1, "stimulus": "<p id=\"stim\">LACE</p>", "key_press": -1, "type": "PRES_VIS", "word": "lace", "wordID": 791, "conditions": [12, 800, "v", 24000], "trial": 3, "serialpos": 9, "trial_type": "single-stim", "trial_index": 126, "time_elapsed": 845723, "internal_node_id": "0.0-90.0"}}, {"uniqueid": "MTK0057:3STRJBFXOXY793P7BTXWZQ1J94QKTT", "current_trial": 127, "dateTime": 1509054487442, "trialdata": {"rt": -1, "stimulus": "<p id=\"stim\">JAPAN</p>", "key_press": -1, "type": "PRES_VIS", "word": "japan", "wordID": 748, "conditions": [12, 800, "v", 24000], "trial": 3, "serialpos": 10, "trial_type": "single-stim", "trial_index": 127, "time_elapsed": 847529, "internal_node_id": "0.0-91.0"}}, {"uniqueid": "MTK0057:3STRJBFXOXY793P7BTXWZQ1J94QKTT", "current_trial": 128, "dateTime": 1509054489185, "trialdata": {"rt": -1, "stimulus": "<p id=\"stim\">SODA</p>", "key_press": -1, "type": "PRES_VIS", "word": "soda", "wordID": 1340, "conditions": [12, 800, "v", 24000], "trial": 3, "serialpos": 11, "trial_type": "single-stim", "trial_index": 128, "time_elapsed": 849272, "internal_node_id": "0.0-92.0"}}, {"uniqueid": "MTK0057:3STRJBFXOXY793P7BTXWZQ1J94QKTT", "current_trial": 129, "dateTime": 1509054491397, "trialdata": {"rt": -1, "stimulus": "", "key_press": -1, "type": "PRE_RECALL_DELAY", "trial_type": "single-stim", "trial_index": 129, "time_elapsed": 851484, "internal_node_id": "0.0-93.0-0.0"}}, {"uniqueid": "MTK0057:3STRJBFXOXY793P7BTXWZQ1J94QKTT", "current_trial": 130, "dateTime": 1509054491899, "trialdata": {"rt": -1000, "stimulus": "/static/audio/400Hz.wav", "key_press": -1, "type": "PRE_RECALL_ALERT", "trial_type": "single-audio", "trial_index": 130, "time_elapsed": 851986, "internal_node_id": "0.0-94.0"}}, {"uniqueid": "MTK0057:3STRJBFXOXY793P7BTXWZQ1J94QKTT", "current_trial": 131, "dateTime": 1509054551902, "trialdata": {"rt": [2350, 3802, 5368, 6644, 9825, 12959, 17219, 46450], "recwords": ["camp", "lace", "japan", "soda", "sunset", "canyon", "crab", "canyon"], "type": "FREE_RECALL", "conditions": [12, 800, "v", 24000], "trial": 3, "trial_type": "free-recall", "trial_index": 131, "time_elapsed": 911989, "internal_node_id": "0.0-95.0-0.0"}}, {"uniqueid": "MTK0057:3STRJBFXOXY793P7BTXWZQ1J94QKTT", "current_trial": 132, "dateTime": 1509054554896, "trialdata": {"rt": 993, "key_press": 32, "type": "INSTRUCTIONS", "trial_type": "text", "trial_index": 132, "time_elapsed": 914983, "internal_node_id": "0.0-96.0"}}, {"uniqueid": "MTK0057:3STRJBFXOXY793P7BTXWZQ1J94QKTT", "current_trial": 133, "dateTime": 1509054580899, "trialdata": {"rt": [3764, 7176, 9673, 11503, 13153, 15466, 17839, 19828, 21958, 23865], "responses": ["14", "15", "15", "18", "15", "24", "12", "17", "13", "19"], "num1": [4, 6, 7, 6, 7, 9, 7, 7, 9, 4, 4], "num2": [2, 7, 3, 5, 3, 6, 2, 3, 4, 6, 8], "num3": [8, 2, 5, 7, 5, 9, 3, 7, 1, 9, 4], "type": "DISTRACTOR", "conditions": [24, 800, "a", 24000], "trial": 4, "trial_type": "math-distractor", "trial_index": 133, "time_elapsed": 940985, "internal_node_id": "0.0-97.0"}}, {"uniqueid": "MTK0057:3STRJBFXOXY793P7BTXWZQ1J94QKTT", "current_trial": 134, "dateTime": 1509054583900, "trialdata": {"rt": -1, "stimulus": "<p id=\"stim\">10</p>", "key_press": -1, "trial_type": "single-stim", "trial_index": 134, "time_elapsed": 943987, "internal_node_id": "0.0-98.0-0.0"}}, {"uniqueid": "MTK0057:3STRJBFXOXY793P7BTXWZQ1J94QKTT", "current_trial": 135, "dateTime": 1509054584900, "trialdata": {"rt": -1, "stimulus": "<p id=\"stim\">9</p>", "key_press": -1, "trial_type": "single-stim", "trial_index": 135, "time_elapsed": 944987, "internal_node_id": "0.0-98.0-1.0"}}, {"uniqueid": "MTK0057:3STRJBFXOXY793P7BTXWZQ1J94QKTT", "current_trial": 136, "dateTime": 1509054585903, "trialdata": {"rt": -1, "stimulus": "<p id=\"stim\">8</p>", "key_press": -1, "trial_type": "single-stim", "trial_index": 136, "time_elapsed": 945990, "internal_node_id": "0.0-98.0-2.0"}}, {"uniqueid": "MTK0057:3STRJBFXOXY793P7BTXWZQ1J94QKTT", "current_trial": 137, "dateTime": 1509054586904, "trialdata": {"rt": -1, "stimulus": "<p id=\"stim\">7</p>", "key_press": -1, "trial_type": "single-stim", "trial_index": 137, "time_elapsed": 946991, "internal_node_id": "0.0-98.0-3.0"}}, {"uniqueid": "MTK0057:3STRJBFXOXY793P7BTXWZQ1J94QKTT", "current_trial": 138, "dateTime": 1509054587907, "trialdata": {"rt": -1, "stimulus": "<p id=\"stim\">6</p>", "key_press": -1, "trial_type": "single-stim", "trial_index": 138, "time_elapsed": 947994, "internal_node_id": "0.0-98.0-4.0"}}, {"uniqueid": "MTK0057:3STRJBFXOXY793P7BTXWZQ1J94QKTT", "current_trial": 139, "dateTime": 1509054588909, "trialdata": {"rt": -1, "stimulus": "<p id=\"stim\">5</p>", "key_press": -1, "trial_type": "single-stim", "trial_index": 139, "time_elapsed": 948996, "internal_node_id": "0.0-98.0-5.0"}}, {"uniqueid": "MTK0057:3STRJBFXOXY793P7BTXWZQ1J94QKTT", "current_trial": 140, "dateTime": 1509054589911, "trialdata": {"rt": -1, "stimulus": "<p id=\"stim\">4</p>", "key_press": -1, "trial_type": "single-stim", "trial_index": 140, "time_elapsed": 949998, "internal_node_id": "0.0-98.0-6.0"}}, {"uniqueid": "MTK0057:3STRJBFXOXY793P7BTXWZQ1J94QKTT", "current_trial": 141, "dateTime": 1509054590913, "trialdata": {"rt": -1, "stimulus": "<p id=\"stim\">3</p>", "key_press": -1, "trial_type": "single-stim", "trial_index": 141, "time_elapsed": 951000, "internal_node_id": "0.0-98.0-7.0"}}, {"uniqueid": "MTK0057:3STRJBFXOXY793P7BTXWZQ1J94QKTT", "current_trial": 142, "dateTime": 1509054591914, "trialdata": {"rt": -1, "stimulus": "<p id=\"stim\">2</p>", "key_press": -1, "trial_type": "single-stim", "trial_index": 142, "time_elapsed": 952000, "internal_node_id": "0.0-98.0-8.0"}}, {"uniqueid": "MTK0057:3STRJBFXOXY793P7BTXWZQ1J94QKTT", "current_trial": 143, "dateTime": 1509054592914, "trialdata": {"rt": -1, "stimulus": "<p id=\"stim\">1</p>", "key_press": -1, "trial_type": "single-stim", "trial_index": 143, "time_elapsed": 953001, "internal_node_id": "0.0-98.0-9.0"}}, {"uniqueid": "MTK0057:3STRJBFXOXY793P7BTXWZQ1J94QKTT", "current_trial": 144, "dateTime": 1509054594416, "trialdata": {"rt": -1, "stimulus": "<p id=\"stim\">+</p>", "key_press": -1, "type": "FIXATION", "trial_type": "single-stim", "trial_index": 144, "time_elapsed": 954503, "internal_node_id": "0.0-99.0-0.0"}}, {"uniqueid": "MTK0057:3STRJBFXOXY793P7BTXWZQ1J94QKTT", "current_trial": 145, "dateTime": 1509054596376, "trialdata": {"rt": -1000, "stimulus": "/static/audio/wordpool/BLADE.wav", "key_press": -1, "type": "PRES_AUD", "word": "blade", "wordID": 133, "conditions": [24, 800, "a", 24000], "trial": 4, "serialpos": 0, "trial_type": "single-audio", "trial_index": 145, "time_elapsed": 956463, "internal_node_id": "0.0-100.0"}}, {"uniqueid": "MTK0057:3STRJBFXOXY793P7BTXWZQ1J94QKTT", "current_trial": 146, "dateTime": 1509054598225, "trialdata": {"rt": -1000, "stimulus": "/static/audio/wordpool/WARDROBE.wav", "key_press": -1, "type": "PRES_AUD", "word": "wardrobe", "wordID": 1586, "conditions": [24, 800, "a", 24000], "trial": 4, "serialpos": 1, "trial_type": "single-audio", "trial_index": 146, "time_elapsed": 958312, "internal_node_id": "0.0-101.0"}}, {"uniqueid": "MTK0057:3STRJBFXOXY793P7BTXWZQ1J94QKTT", "current_trial": 147, "dateTime": 1509054600098, "trialdata": {"rt": -1000, "stimulus": "/static/audio/wordpool/JELLO.wav", "key_press": -1, "type": "PRES_AUD", "word": "jello", "wordID": 753, "conditions": [24, 800, "a", 24000], "trial": 4, "serialpos": 2, "trial_type": "single-audio", "trial_index": 147, "time_elapsed": 960185, "internal_node_id": "0.0-102.0"}}, {"uniqueid": "MTK0057:3STRJBFXOXY793P7BTXWZQ1J94QKTT", "current_trial": 148, "dateTime": 1509054601910, "trialdata": {"rt": -1000, "stimulus": "/static/audio/wordpool/INMATE.wav", "key_press": -1, "type": "PRES_AUD", "word": "inmate", "wordID": 737, "conditions": [24, 800, "a", 24000], "trial": 4, "serialpos": 3, "trial_type": "single-audio", "trial_index": 148, "time_elapsed": 961996, "internal_node_id": "0.0-103.0"}}, {"uniqueid": "MTK0057:3STRJBFXOXY793P7BTXWZQ1J94QKTT", "current_trial": 149, "dateTime": 1509054603829, "trialdata": {"rt": -1000, "stimulus": "/static/audio/wordpool/NAPKIN.wav", "key_press": -1, "type": "PRES_AUD", "word": "napkin", "wordID": 936, "conditions": [24, 800, "a", 24000], "trial": 4, "serialpos": 4, "trial_type": "single-audio", "trial_index": 149, "time_elapsed": 963916, "internal_node_id": "0.0-104.0"}}, {"uniqueid": "MTK0057:3STRJBFXOXY793P7BTXWZQ1J94QKTT", "current_trial": 150, "dateTime": 1509054605716, "trialdata": {"rt": -1000, "stimulus": "/static/audio/wordpool/SPIDER.wav", "key_press": -1, "type": "PRES_AUD", "word": "spider", "wordID": 1350, "conditions": [24, 800, "a", 24000], "trial": 4, "serialpos": 5, "trial_type": "single-audio", "trial_index": 150, "time_elapsed": 965803, "internal_node_id": "0.0-105.0"}}, {"uniqueid": "MTK0057:3STRJBFXOXY793P7BTXWZQ1J94QKTT", "current_trial": 151, "dateTime": 1509054607677, "trialdata": {"rt": -1000, "stimulus": "/static/audio/wordpool/BLUEPRINT.wav", "key_press": -1, "type": "PRES_AUD", "word": "blueprint", "wordID": 141, "conditions": [24, 800, "a", 24000], "trial": 4, "serialpos": 6, "trial_type": "single-audio", "trial_index": 151, "time_elapsed": 967764, "internal_node_id": "0.0-106.0"}}, {"uniqueid": "MTK0057:3STRJBFXOXY793P7BTXWZQ1J94QKTT", "current_trial": 152, "dateTime": 1509054609447, "trialdata": {"rt": -1000, "stimulus": "/static/audio/wordpool/MATTRESS.wav", "key_press": -1, "type": "PRES_AUD", "word": "mattress", "wordID": 878, "conditions": [24, 800, "a", 24000], "trial": 4, "serialpos": 7, "trial_type": "single-audio", "trial_index": 152, "time_elapsed": 969534, "internal_node_id": "0.0-107.0"}}, {"uniqueid": "MTK0057:3STRJBFXOXY793P7BTXWZQ1J94QKTT", "current_trial": 153, "dateTime": 1509054611344, "trialdata": {"rt": -1000, "stimulus": "/static/audio/wordpool/MUMMY.wav", "key_press": -1, "type": "PRES_AUD", "word": "mummy", "wordID": 931, "conditions": [24, 800, "a", 24000], "trial": 4, "serialpos": 8, "trial_type": "single-audio", "trial_index": 153, "time_elapsed": 971431, "internal_node_id": "0.0-108.0"}}, {"uniqueid": "MTK0057:3STRJBFXOXY793P7BTXWZQ1J94QKTT", "current_trial": 154, "dateTime": 1509054613271, "trialdata": {"rt": -1000, "stimulus": "/static/audio/wordpool/PENGUIN.wav", "key_press": -1, "type": "PRES_AUD", "word": "penguin", "wordID": 1043, "conditions": [24, 800, "a", 24000], "trial": 4, "serialpos": 9, "trial_type": "single-audio", "trial_index": 154, "time_elapsed": 973358, "internal_node_id": "0.0-109.0"}}, {"uniqueid": "MTK0057:3STRJBFXOXY793P7BTXWZQ1J94QKTT", "current_trial": 155, "dateTime": 1509054615047, "trialdata": {"rt": -1000, "stimulus": "/static/audio/wordpool/TURTLE.wav", "key_press": -1, "type": "PRES_AUD", "word": "turtle", "wordID": 1521, "conditions": [24, 800, "a", 24000], "trial": 4, "serialpos": 10, "trial_type": "single-audio", "trial_index": 155, "time_elapsed": 975134, "internal_node_id": "0.0-110.0"}}, {"uniqueid": "MTK0057:3STRJBFXOXY793P7BTXWZQ1J94QKTT", "current_trial": 156, "dateTime": 1509054616894, "trialdata": {"rt": -1000, "stimulus": "/static/audio/wordpool/JELLY.wav", "key_press": -1, "type": "PRES_AUD", "word": "jelly", "wordID": 754, "conditions": [24, 800, "a", 24000], "trial": 4, "serialpos": 11, "trial_type": "single-audio", "trial_index": 156, "time_elapsed": 976980, "internal_node_id": "0.0-111.0"}}, {"uniqueid": "MTK0057:3STRJBFXOXY793P7BTXWZQ1J94QKTT", "current_trial": 157, "dateTime": 1509054618733, "trialdata": {"rt": -1000, "stimulus": "/static/audio/wordpool/CREATURE.wav", "key_press": -1, "type": "PRES_AUD", "word": "creature", "wordID": 402, "conditions": [24, 800, "a", 24000], "trial": 4, "serialpos": 12, "trial_type": "single-audio", "trial_index": 157, "time_elapsed": 978820, "internal_node_id": "0.0-112.0"}}, {"uniqueid": "MTK0057:3STRJBFXOXY793P7BTXWZQ1J94QKTT", "current_trial": 158, "dateTime": 1509054620587, "trialdata": {"rt": -1000, "stimulus": "/static/audio/wordpool/STOVE.wav", "key_press": -1, "type": "PRES_AUD", "word": "stove", "wordID": 1387, "conditions": [24, 800, "a", 24000], "trial": 4, "serialpos": 13, "trial_type": "single-audio", "trial_index": 158, "time_elapsed": 980674, "internal_node_id": "0.0-113.0"}}, {"uniqueid": "MTK0057:3STRJBFXOXY793P7BTXWZQ1J94QKTT", "current_trial": 159, "dateTime": 1509054622552, "trialdata": {"rt": -1000, "stimulus": "/static/audio/wordpool/BURGLAR.wav", "key_press": -1, "type": "PRES_AUD", "word": "burglar", "wordID": 199, "conditions": [24, 800, "a", 24000], "trial": 4, "serialpos": 14, "trial_type": "single-audio", "trial_index": 159, "time_elapsed": 982639, "internal_node_id": "0.0-114.0"}}, {"uniqueid": "MTK0057:3STRJBFXOXY793P7BTXWZQ1J94QKTT", "current_trial": 160, "dateTime": 1509054624433, "trialdata": {"rt": -1000, "stimulus": "/static/audio/wordpool/COWBOY.wav", "key_press": -1, "type": "PRES_AUD", "word": "cowboy", "wordID": 394, "conditions": [24, 800, "a", 24000], "trial": 4, "serialpos": 15, "trial_type": "single-audio", "trial_index": 160, "time_elapsed": 984520, "internal_node_id": "0.0-115.0"}}, {"uniqueid": "MTK0057:3STRJBFXOXY793P7BTXWZQ1J94QKTT", "current_trial": 161, "dateTime": 1509054626425, "trialdata": {"rt": -1000, "stimulus": "/static/audio/wordpool/LAGOON.wav", "key_press": -1, "type": "PRES_AUD", "word": "lagoon", "wordID": 794, "conditions": [24, 800, "a", 24000], "trial": 4, "serialpos": 16, "trial_type": "single-audio", "trial_index": 161, "time_elapsed": 986512, "internal_node_id": "0.0-116.0"}}, {"uniqueid": "MTK0057:3STRJBFXOXY793P7BTXWZQ1J94QKTT", "current_trial": 162, "dateTime": 1509054628273, "trialdata": {"rt": -1000, "stimulus": "/static/audio/wordpool/EGYPT.wav", "key_press": -1, "type": "PRES_AUD", "word": "egypt", "wordID": 518, "conditions": [24, 800, "a", 24000], "trial": 4, "serialpos": 17, "trial_type": "single-audio", "trial_index": 162, "time_elapsed": 988360, "internal_node_id": "0.0-117.0"}}, {"uniqueid": "MTK0057:3STRJBFXOXY793P7BTXWZQ1J94QKTT", "current_trial": 163, "dateTime": 1509054630101, "trialdata": {"rt": -1000, "stimulus": "/static/audio/wordpool/TURKEY.wav", "key_press": -1, "type": "PRES_AUD", "word": "turkey", "wordID": 1519, "conditions": [24, 800, "a", 24000], "trial": 4, "serialpos": 18, "trial_type": "single-audio", "trial_index": 163, "time_elapsed": 990188, "internal_node_id": "0.0-118.0"}}, {"uniqueid": "MTK0057:3STRJBFXOXY793P7BTXWZQ1J94QKTT", "current_trial": 164, "dateTime": 1509054631781, "trialdata": {"rt": -1000, "stimulus": "/static/audio/wordpool/QUAIL.wav", "key_press": -1, "type": "PRES_AUD", "word": "quail", "wordID": 1146, "conditions": [24, 800, "a", 24000], "trial": 4, "serialpos": 19, "trial_type": "single-audio", "trial_index": 164, "time_elapsed": 991867, "internal_node_id": "0.0-119.0"}}, {"uniqueid": "MTK0057:3STRJBFXOXY793P7BTXWZQ1J94QKTT", "current_trial": 165, "dateTime": 1509054633644, "trialdata": {"rt": -1000, "stimulus": "/static/audio/wordpool/SLUG.wav", "key_press": -1, "type": "PRES_AUD", "word": "slug", "wordID": 1328, "conditions": [24, 800, "a", 24000], "trial": 4, "serialpos": 20, "trial_type": "single-audio", "trial_index": 165, "time_elapsed": 993731, "internal_node_id": "0.0-120.0"}}, {"uniqueid": "MTK0057:3STRJBFXOXY793P7BTXWZQ1J94QKTT", "current_trial": 166, "dateTime": 1509054635407, "trialdata": {"rt": -1000, "stimulus": "/static/audio/wordpool/EUROPE.wav", "key_press": -1, "type": "PRES_AUD", "word": "europe", "wordID": 540, "conditions": [24, 800, "a", 24000], "trial": 4, "serialpos": 21, "trial_type": "single-audio", "trial_index": 166, "time_elapsed": 995494, "internal_node_id": "0.0-121.0"}}, {"uniqueid": "MTK0057:3STRJBFXOXY793P7BTXWZQ1J94QKTT", "current_trial": 167, "dateTime": 1509054637229, "trialdata": {"rt": -1000, "stimulus": "/static/audio/wordpool/BALLOON.wav", "key_press": -1, "type": "PRES_AUD", "word": "balloon", "wordID": 74, "conditions": [24, 800, "a", 24000], "trial": 4, "serialpos": 22, "trial_type": "single-audio", "trial_index": 167, "time_elapsed": 997315, "internal_node_id": "0.0-122.0"}}, {"uniqueid": "MTK0057:3STRJBFXOXY793P7BTXWZQ1J94QKTT", "current_trial": 168, "dateTime": 1509054639002, "trialdata": {"rt": -1000, "stimulus": "/static/audio/wordpool/DRINK.wav", "key_press": -1, "type": "PRES_AUD", "word": "drink", "wordID": 497, "conditions": [24, 800, "a", 24000], "trial": 4, "serialpos": 23, "trial_type": "single-audio", "trial_index": 168, "time_elapsed": 999089, "internal_node_id": "0.0-123.0"}}, {"uniqueid": "MTK0057:3STRJBFXOXY793P7BTXWZQ1J94QKTT", "current_trial": 169, "dateTime": 1509054640399, "trialdata": {"rt": -1, "stimulus": "", "key_press": -1, "type": "PRE_RECALL_DELAY", "trial_type": "single-stim", "trial_index": 169, "time_elapsed": 1000485, "internal_node_id": "0.0-124.0-0.0"}}, {"uniqueid": "MTK0057:3STRJBFXOXY793P7BTXWZQ1J94QKTT", "current_trial": 170, "dateTime": 1509054640900, "trialdata": {"rt": -1000, "stimulus": "/static/audio/400Hz.wav", "key_press": -1, "type": "PRE_RECALL_ALERT", "trial_type": "single-audio", "trial_index": 170, "time_elapsed": 1000987, "internal_node_id": "0.0-125.0"}}, {"uniqueid": "MTK0057:3STRJBFXOXY793P7BTXWZQ1J94QKTT", "current_trial": 171, "dateTime": 1509054700905, "trialdata": {"rt": [2045, 4655, 7042, 9411, 11506, 16477, 22203, 37042, 40816, 54025, 57557], "recwords": ["drink", "lagoon", "europe", "turkey", "quail", "balloon", "slug", "switch", "apple", "inmate", "blade"], "type": "FREE_RECALL", "conditions": [24, 800, "a", 24000], "trial": 4, "trial_type": "free-recall", "trial_index": 171, "time_elapsed": 1060992, "internal_node_id": "0.0-126.0-0.0"}}, {"uniqueid": "MTK0057:3STRJBFXOXY793P7BTXWZQ1J94QKTT", "current_trial": 172, "dateTime": 1509054704089, "trialdata": {"rt": 1183, "key_press": 32, "type": "INSTRUCTIONS", "trial_type": "text", "trial_index": 172, "time_elapsed": 1064176, "internal_node_id": "0.0-127.0"}}, {"uniqueid": "MTK0057:3STRJBFXOXY793P7BTXWZQ1J94QKTT", "current_trial": 173, "dateTime": 1509054718092, "trialdata": {"rt": [3188, 4919, 6513, 8509, 10231], "responses": ["14", "14", "18", "13", "8"], "num1": [4, 2, 6, 4, 1, 7], "num2": [3, 7, 4, 5, 2, 6], "num3": [7, 5, 8, 4, 5, 1], "type": "DISTRACTOR", "conditions": [12, 800, "a", 12000], "trial": 5, "trial_type": "math-distractor", "trial_index": 173, "time_elapsed": 1078179, "internal_node_id": "0.0-128.0"}}, {"uniqueid": "MTK0057:3STRJBFXOXY793P7BTXWZQ1J94QKTT", "current_trial": 174, "dateTime": 1509054721093, "trialdata": {"rt": -1, "stimulus": "<p id=\"stim\">10</p>", "key_press": -1, "trial_type": "single-stim", "trial_index": 174, "time_elapsed": 1081179, "internal_node_id": "0.0-129.0-0.0"}}, {"uniqueid": "MTK0057:3STRJBFXOXY793P7BTXWZQ1J94QKTT", "current_trial": 175, "dateTime": 1509054722094, "trialdata": {"rt": -1, "stimulus": "<p id=\"stim\">9</p>", "key_press": -1, "trial_type": "single-stim", "trial_index": 175, "time_elapsed": 1082181, "internal_node_id": "0.0-129.0-1.0"}}, {"uniqueid": "MTK0057:3STRJBFXOXY793P7BTXWZQ1J94QKTT", "current_trial": 176, "dateTime": 1509054723096, "trialdata": {"rt": -1, "stimulus": "<p id=\"stim\">8</p>", "key_press": -1, "trial_type": "single-stim", "trial_index": 176, "time_elapsed": 1083183, "internal_node_id": "0.0-129.0-2.0"}}, {"uniqueid": "MTK0057:3STRJBFXOXY793P7BTXWZQ1J94QKTT", "current_trial": 177, "dateTime": 1509054724098, "trialdata": {"rt": -1, "stimulus": "<p id=\"stim\">7</p>", "key_press": -1, "trial_type": "single-stim", "trial_index": 177, "time_elapsed": 1084185, "internal_node_id": "0.0-129.0-3.0"}}, {"uniqueid": "MTK0057:3STRJBFXOXY793P7BTXWZQ1J94QKTT", "current_trial": 178, "dateTime": 1509054725100, "trialdata": {"rt": -1, "stimulus": "<p id=\"stim\">6</p>", "key_press": -1, "trial_type": "single-stim", "trial_index": 178, "time_elapsed": 1085186, "internal_node_id": "0.0-129.0-4.0"}}, {"uniqueid": "MTK0057:3STRJBFXOXY793P7BTXWZQ1J94QKTT", "current_trial": 179, "dateTime": 1509054726103, "trialdata": {"rt": -1, "stimulus": "<p id=\"stim\">5</p>", "key_press": -1, "trial_type": "single-stim", "trial_index": 179, "time_elapsed": 1086190, "internal_node_id": "0.0-129.0-5.0"}}, {"uniqueid": "MTK0057:3STRJBFXOXY793P7BTXWZQ1J94QKTT", "current_trial": 180, "dateTime": 1509054727105, "trialdata": {"rt": -1, "stimulus": "<p id=\"stim\">4</p>", "key_press": -1, "trial_type": "single-stim", "trial_index": 180, "time_elapsed": 1087191, "internal_node_id": "0.0-129.0-6.0"}}, {"uniqueid": "MTK0057:3STRJBFXOXY793P7BTXWZQ1J94QKTT", "current_trial": 181, "dateTime": 1509054728106, "trialdata": {"rt": -1, "stimulus": "<p id=\"stim\">3</p>", "key_press": -1, "trial_type": "single-stim", "trial_index": 181, "time_elapsed": 1088193, "internal_node_id": "0.0-129.0-7.0"}}, {"uniqueid": "MTK0057:3STRJBFXOXY793P7BTXWZQ1J94QKTT", "current_trial": 182, "dateTime": 1509054729109, "trialdata": {"rt": -1, "stimulus": "<p id=\"stim\">2</p>", "key_press": -1, "trial_type": "single-stim", "trial_index": 182, "time_elapsed": 1089196, "internal_node_id": "0.0-129.0-8.0"}}, {"uniqueid": "MTK0057:3STRJBFXOXY793P7BTXWZQ1J94QKTT", "current_trial": 183, "dateTime": 1509054730110, "trialdata": {"rt": -1, "stimulus": "<p id=\"stim\">1</p>", "key_press": -1, "trial_type": "single-stim", "trial_index": 183, "time_elapsed": 1090197, "internal_node_id": "0.0-129.0-9.0"}}, {"uniqueid": "MTK0057:3STRJBFXOXY793P7BTXWZQ1J94QKTT", "current_trial": 184, "dateTime": 1509054731614, "trialdata": {"rt": -1, "stimulus": "<p id=\"stim\">+</p>", "key_press": -1, "type": "FIXATION", "trial_type": "single-stim", "trial_index": 184, "time_elapsed": 1091700, "internal_node_id": "0.0-130.0-0.0"}}, {"uniqueid": "MTK0057:3STRJBFXOXY793P7BTXWZQ1J94QKTT", "current_trial": 185, "dateTime": 1509054733322, "trialdata": {"rt": -1000, "stimulus": "/static/audio/wordpool/PATROL.wav", "key_press": -1, "type": "PRES_AUD", "word": "patrol", "wordID": 1026, "conditions": [12, 800, "a", 12000], "trial": 5, "serialpos": 0, "trial_type": "single-audio", "trial_index": 185, "time_elapsed": 1093409, "internal_node_id": "0.0-131.0"}}, {"uniqueid": "MTK0057:3STRJBFXOXY793P7BTXWZQ1J94QKTT", "current_trial": 186, "dateTime": 1509054735303, "trialdata": {"rt": -1000, "stimulus": "/static/audio/wordpool/POLICE.wav", "key_press": -1, "type": "PRES_AUD", "word": "police", "wordID": 1097, "conditions": [12, 800, "a", 12000], "trial": 5, "serialpos": 1, "trial_type": "single-audio", "trial_index": 186, "time_elapsed": 1095390, "internal_node_id": "0.0-132.0"}}, {"uniqueid": "MTK0057:3STRJBFXOXY793P7BTXWZQ1J94QKTT", "current_trial": 187, "dateTime": 1509054737079, "trialdata": {"rt": -1000, "stimulus": "/static/audio/wordpool/VALVE.wav", "key_press": -1, "type": "PRES_AUD", "word": "valve", "wordID": 1545, "conditions": [12, 800, "a", 12000], "trial": 5, "serialpos": 2, "trial_type": "single-audio", "trial_index": 187, "time_elapsed": 1097165, "internal_node_id": "0.0-133.0"}}, {"uniqueid": "MTK0057:3STRJBFXOXY793P7BTXWZQ1J94QKTT", "current_trial": 188, "dateTime": 1509054738896, "trialdata": {"rt": -1000, "stimulus": "/static/audio/wordpool/BRICK.wav", "key_press": -1, "type": "PRES_AUD", "word": "brick", "wordID": 171, "conditions": [12, 800, "a", 12000], "trial": 5, "serialpos": 3, "trial_type": "single-audio", "trial_index": 188, "time_elapsed": 1098983, "internal_node_id": "0.0-134.0"}}, {"uniqueid": "MTK0057:3STRJBFXOXY793P7BTXWZQ1J94QKTT", "current_trial": 189, "dateTime": 1509054740665, "trialdata": {"rt": -1000, "stimulus": "/static/audio/wordpool/PARENT.wav", "key_press": -1, "type": "PRES_AUD", "word": "parent", "wordID": 1012, "conditions": [12, 800, "a", 12000], "trial": 5, "serialpos": 4, "trial_type": "single-audio", "trial_index": 189, "time_elapsed": 1100752, "internal_node_id": "0.0-135.0"}}, {"uniqueid": "MTK0057:3STRJBFXOXY793P7BTXWZQ1J94QKTT", "current_trial": 190, "dateTime": 1509054742524, "trialdata": {"rt": -1000, "stimulus": "/static/audio/wordpool/SANDWICH.wav", "key_press": -1, "type": "PRES_AUD", "word": "sandwich", "wordID": 1231, "conditions": [12, 800, "a", 12000], "trial": 5, "serialpos": 5, "trial_type": "single-audio", "trial_index": 190, "time_elapsed": 1102611, "internal_node_id": "0.0-136.0"}}, {"uniqueid": "MTK0057:3STRJBFXOXY793P7BTXWZQ1J94QKTT", "current_trial": 191, "dateTime": 1509054744388, "trialdata": {"rt": -1000, "stimulus": "/static/audio/wordpool/SCISSORS.wav", "key_press": -1, "type": "PRES_AUD", "word": "scissors", "wordID": 1249, "conditions": [12, 800, "a", 12000], "trial": 5, "serialpos": 6, "trial_type": "single-audio", "trial_index": 191, "time_elapsed": 1104475, "internal_node_id": "0.0-137.0"}}, {"uniqueid": "MTK0057:3STRJBFXOXY793P7BTXWZQ1J94QKTT", "current_trial": 192, "dateTime": 1509054746282, "trialdata": {"rt": -1000, "stimulus": "/static/audio/wordpool/CRITIC.wav", "key_press": -1, "type": "PRES_AUD", "word": "critic", "wordID": 409, "conditions": [12, 800, "a", 12000], "trial": 5, "serialpos": 7, "trial_type": "single-audio", "trial_index": 192, "time_elapsed": 1106368, "internal_node_id": "0.0-138.0"}}, {"uniqueid": "MTK0057:3STRJBFXOXY793P7BTXWZQ1J94QKTT", "current_trial": 193, "dateTime": 1509054748197, "trialdata": {"rt": -1000, "stimulus": "/static/audio/wordpool/FRIEND.wav", "key_press": -1, "type": "PRES_AUD", "word": "friend", "wordID": 605, "conditions": [12, 800, "a", 12000], "trial": 5, "serialpos": 8, "trial_type": "single-audio", "trial_index": 193, "time_elapsed": 1108284, "internal_node_id": "0.0-139.0"}}, {"uniqueid": "MTK0057:3STRJBFXOXY793P7BTXWZQ1J94QKTT", "current_trial": 194, "dateTime": 1509054750025, "trialdata": {"rt": -1000, "stimulus": "/static/audio/wordpool/SNACK.wav", "key_press": -1, "type": "PRES_AUD", "word": "snack", "wordID": 1330, "conditions": [12, 800, "a", 12000], "trial": 5, "serialpos": 9, "trial_type": "single-audio", "trial_index": 194, "time_elapsed": 1110112, "internal_node_id": "0.0-140.0"}}, {"uniqueid": "MTK0057:3STRJBFXOXY793P7BTXWZQ1J94QKTT", "current_trial": 195, "dateTime": 1509054751827, "trialdata": {"rt": -1000, "stimulus": "/static/audio/wordpool/ARM.wav", "key_press": -1, "type": "PRES_AUD", "word": "arm", "wordID": 37, "conditions": [12, 800, "a", 12000], "trial": 5, "serialpos": 10, "trial_type": "single-audio", "trial_index": 195, "time_elapsed": 1111914, "internal_node_id": "0.0-141.0"}}, {"uniqueid": "MTK0057:3STRJBFXOXY793P7BTXWZQ1J94QKTT", "current_trial": 196, "dateTime": 1509054753603, "trialdata": {"rt": -1000, "stimulus": "/static/audio/wordpool/PERFUME.wav", "key_press": -1, "type": "PRES_AUD", "word": "perfume", "wordID": 1048, "conditions": [12, 800, "a", 12000], "trial": 5, "serialpos": 11, "trial_type": "single-audio", "trial_index": 196, "time_elapsed": 1113689, "internal_node_id": "0.0-142.0"}}, {"uniqueid": "MTK0057:3STRJBFXOXY793P7BTXWZQ1J94QKTT", "current_trial": 197, "dateTime": 1509054754818, "trialdata": {"rt": -1, "stimulus": "", "key_press": -1, "type": "PRE_RECALL_DELAY", "trial_type": "single-stim", "trial_index": 197, "time_elapsed": 1114904, "internal_node_id": "0.0-143.0-0.0"}}, {"uniqueid": "MTK0057:3STRJBFXOXY793P7BTXWZQ1J94QKTT", "current_trial": 198, "dateTime": 1509054755321, "trialdata": {"rt": -1000, "stimulus": "/static/audio/400Hz.wav", "key_press": -1, "type": "PRE_RECALL_ALERT", "trial_type": "single-audio", "trial_index": 198, "time_elapsed": 1115408, "internal_node_id": "0.0-144.0"}}, {"uniqueid": "MTK0057:3STRJBFXOXY793P7BTXWZQ1J94QKTT", "current_trial": 199, "dateTime": 1509054815326, "trialdata": {"rt": [2601, 3672, 5406, 7527, 11890, 14211, 16126, 17693, 24012, 32281], "recwords": ["snack", "arm", "perfum", "police", "patrol", "scissors", "critic", "friend", "brick", "parent"], "type": "FREE_RECALL", "conditions": [12, 800, "a", 12000], "trial": 5, "trial_type": "free-recall", "trial_index": 199, "time_elapsed": 1175413, "internal_node_id": "0.0-145.0-0.0"}}, {"uniqueid": "MTK0057:3STRJBFXOXY793P7BTXWZQ1J94QKTT", "current_trial": 200, "dateTime": 1509054818483, "trialdata": {"rt": 1157, "key_press": 32, "type": "INSTRUCTIONS", "trial_type": "text", "trial_index": 200, "time_elapsed": 1178570, "internal_node_id": "0.0-146.0"}}, {"uniqueid": "MTK0057:3STRJBFXOXY793P7BTXWZQ1J94QKTT", "current_trial": 201, "dateTime": 1509054844486, "trialdata": {"rt": [2920, 4972, 6797, 9781, 12706, 14511, 16533, 19752, 21665, 23598], "responses": ["21", "11", "15", "6", "21", "11", "24", "26", "11", "24"], "num1": [4, 4, 6, 1, 5, 1, 9, 9, 1, 9, 3], "num2": [9, 3, 2, 1, 8, 8, 6, 9, 4, 6, 4], "num3": [9, 4, 7, 4, 8, 2, 9, 8, 6, 9, 5], "type": "DISTRACTOR", "conditions": [12, 1600, "v", 24000], "trial": 6, "trial_type": "math-distractor", "trial_index": 201, "time_elapsed": 1204573, "internal_node_id": "0.0-147.0"}}, {"uniqueid": "MTK0057:3STRJBFXOXY793P7BTXWZQ1J94QKTT", "current_trial": 202, "dateTime": 1509054847488, "trialdata": {"rt": -1, "stimulus": "<p id=\"stim\">10</p>", "key_press": -1, "trial_type": "single-stim", "trial_index": 202, "time_elapsed": 1207575, "internal_node_id": "0.0-148.0-0.0"}}, {"uniqueid": "MTK0057:3STRJBFXOXY793P7BTXWZQ1J94QKTT", "current_trial": 203, "dateTime": 1509054848489, "trialdata": {"rt": -1, "stimulus": "<p id=\"stim\">9</p>", "key_press": -1, "trial_type": "single-stim", "trial_index": 203, "time_elapsed": 1208576, "internal_node_id": "0.0-148.0-1.0"}}, {"uniqueid": "MTK0057:3STRJBFXOXY793P7BTXWZQ1J94QKTT", "current_trial": 204, "dateTime": 1509054849491, "trialdata": {"rt": -1, "stimulus": "<p id=\"stim\">8</p>", "key_press": -1, "trial_type": "single-stim", "trial_index": 204, "time_elapsed": 1209578, "internal_node_id": "0.0-148.0-2.0"}}, {"uniqueid": "MTK0057:3STRJBFXOXY793P7BTXWZQ1J94QKTT", "current_trial": 205, "dateTime": 1509054850493, "trialdata": {"rt": -1, "stimulus": "<p id=\"stim\">7</p>", "key_press": -1, "trial_type": "single-stim", "trial_index": 205, "time_elapsed": 1210580, "internal_node_id": "0.0-148.0-3.0"}}, {"uniqueid": "MTK0057:3STRJBFXOXY793P7BTXWZQ1J94QKTT", "current_trial": 206, "dateTime": 1509054851495, "trialdata": {"rt": -1, "stimulus": "<p id=\"stim\">6</p>", "key_press": -1, "trial_type": "single-stim", "trial_index": 206, "time_elapsed": 1211582, "internal_node_id": "0.0-148.0-4.0"}}, {"uniqueid": "MTK0057:3STRJBFXOXY793P7BTXWZQ1J94QKTT", "current_trial": 207, "dateTime": 1509054852497, "trialdata": {"rt": -1, "stimulus": "<p id=\"stim\">5</p>", "key_press": -1, "trial_type": "single-stim", "trial_index": 207, "time_elapsed": 1212584, "internal_node_id": "0.0-148.0-5.0"}}, {"uniqueid": "MTK0057:3STRJBFXOXY793P7BTXWZQ1J94QKTT", "current_trial": 208, "dateTime": 1509054853498, "trialdata": {"rt": -1, "stimulus": "<p id=\"stim\">4</p>", "key_press": -1, "trial_type": "single-stim", "trial_index": 208, "time_elapsed": 1213585, "internal_node_id": "0.0-148.0-6.0"}}, {"uniqueid": "MTK0057:3STRJBFXOXY793P7BTXWZQ1J94QKTT", "current_trial": 209, "dateTime": 1509054854501, "trialdata": {"rt": -1, "stimulus": "<p id=\"stim\">3</p>", "key_press": -1, "trial_type": "single-stim", "trial_index": 209, "time_elapsed": 1214587, "internal_node_id": "0.0-148.0-7.0"}}, {"uniqueid": "MTK0057:3STRJBFXOXY793P7BTXWZQ1J94QKTT", "current_trial": 210, "dateTime": 1509054855502, "trialdata": {"rt": -1, "stimulus": "<p id=\"stim\">2</p>", "key_press": -1, "trial_type": "single-stim", "trial_index": 210, "time_elapsed": 1215589, "internal_node_id": "0.0-148.0-8.0"}}, {"uniqueid": "MTK0057:3STRJBFXOXY793P7BTXWZQ1J94QKTT", "current_trial": 211, "dateTime": 1509054856504, "trialdata": {"rt": -1, "stimulus": "<p id=\"stim\">1</p>", "key_press": -1, "trial_type": "single-stim", "trial_index": 211, "time_elapsed": 1216591, "internal_node_id": "0.0-148.0-9.0"}}, {"uniqueid": "MTK0057:3STRJBFXOXY793P7BTXWZQ1J94QKTT", "current_trial": 212, "dateTime": 1509054858004, "trialdata": {"rt": -1, "stimulus": "<p id=\"stim\">+</p>", "key_press": -1, "type": "FIXATION", "trial_type": "single-stim", "trial_index": 212, "time_elapsed": 1218091, "internal_node_id": "0.0-149.0-0.0"}}, {"uniqueid": "MTK0057:3STRJBFXOXY793P7BTXWZQ1J94QKTT", "current_trial": 213, "dateTime": 1509054859607, "trialdata": {"rt": -1, "stimulus": "<p id=\"stim\">LAKE</p>", "key_press": -1, "type": "PRES_VIS", "word": "lake", "wordID": 795, "conditions": [12, 1600, "v", 24000], "trial": 6, "serialpos": 0, "trial_type": "single-stim", "trial_index": 213, "time_elapsed": 1219694, "internal_node_id": "0.0-150.0"}}, {"uniqueid": "MTK0057:3STRJBFXOXY793P7BTXWZQ1J94QKTT", "current_trial": 214, "dateTime": 1509054862169, "trialdata": {"rt": -1, "stimulus": "<p id=\"stim\">GOBLIN</p>", "key_press": -1, "type": "PRES_VIS", "word": "goblin", "wordID": 644, "conditions": [12, 1600, "v", 24000], "trial": 6, "serialpos": 1, "trial_type": "single-stim", "trial_index": 214, "time_elapsed": 1222255, "internal_node_id": "0.0-151.0"}}, {"uniqueid": "MTK0057:3STRJBFXOXY793P7BTXWZQ1J94QKTT", "current_trial": 215, "dateTime": 1509054864579, "trialdata": {"rt": -1, "stimulus": "<p id=\"stim\">SLIDE</p>", "key_press": -1, "type": "PRES_VIS", "word": "slide", "wordID": 1325, "conditions": [12, 1600, "v", 24000], "trial": 6, "serialpos": 2, "trial_type": "single-stim", "trial_index": 215, "time_elapsed": 1224666, "internal_node_id": "0.0-152.0"}}, {"uniqueid": "MTK0057:3STRJBFXOXY793P7BTXWZQ1J94QKTT", "current_trial": 216, "dateTime": 1509054866980, "trialdata": {"rt": -1, "stimulus": "<p id=\"stim\">LAPEL</p>", "key_press": -1, "type": "PRES_VIS", "word": "lapel", "wordID": 799, "conditions": [12, 1600, "v", 24000], "trial": 6, "serialpos": 3, "trial_type": "single-stim", "trial_index": 216, "time_elapsed": 1227067, "internal_node_id": "0.0-153.0"}}, {"uniqueid": "MTK0057:3STRJBFXOXY793P7BTXWZQ1J94QKTT", "current_trial": 217, "dateTime": 1509054869685, "trialdata": {"rt": -1, "stimulus": "<p id=\"stim\">WRENCH</p>", "key_press": -1, "type": "PRES_VIS", "word": "wrench", "wordID": 1624, "conditions": [12, 1600, "v", 24000], "trial": 6, "serialpos": 4, "trial_type": "single-stim", "trial_index": 217, "time_elapsed": 1229772, "internal_node_id": "0.0-154.0"}}, {"uniqueid": "MTK0057:3STRJBFXOXY793P7BTXWZQ1J94QKTT", "current_trial": 218, "dateTime": 1509054872181, "trialdata": {"rt": -1, "stimulus": "<p id=\"stim\">MARSH</p>", "key_press": -1, "type": "PRES_VIS", "word": "marsh", "wordID": 873, "conditions": [12, 1600, "v", 24000], "trial": 6, "serialpos": 5, "trial_type": "single-stim", "trial_index": 218, "time_elapsed": 1232268, "internal_node_id": "0.0-155.0"}}, {"uniqueid": "MTK0057:3STRJBFXOXY793P7BTXWZQ1J94QKTT", "current_trial": 219, "dateTime": 1509054874712, "trialdata": {"rt": -1, "stimulus": "<p id=\"stim\">WIFE</p>", "key_press": -1, "type": "PRES_VIS", "word": "wife", "wordID": 1608, "conditions": [12, 1600, "v", 24000], "trial": 6, "serialpos": 6, "trial_type": "single-stim", "trial_index": 219, "time_elapsed": 1234799, "internal_node_id": "0.0-156.0"}}, {"uniqueid": "MTK0057:3STRJBFXOXY793P7BTXWZQ1J94QKTT", "current_trial": 220, "dateTime": 1509054877384, "trialdata": {"rt": -1, "stimulus": "<p id=\"stim\">UNCLE</p>", "key_press": -1, "type": "PRES_VIS", "word": "uncle", "wordID": 1535, "conditions": [12, 1600, "v", 24000], "trial": 6, "serialpos": 7, "trial_type": "single-stim", "trial_index": 220, "time_elapsed": 1237471, "internal_node_id": "0.0-157.0"}}, {"uniqueid": "MTK0057:3STRJBFXOXY793P7BTXWZQ1J94QKTT", "current_trial": 221, "dateTime": 1509054880023, "trialdata": {"rt": -1, "stimulus": "<p id=\"stim\">BROTHER</p>", "key_press": -1, "type": "PRES_VIS", "word": "brother", "wordID": 178, "conditions": [12, 1600, "v", 24000], "trial": 6, "serialpos": 8, "trial_type": "single-stim", "trial_index": 221, "time_elapsed": 1240110, "internal_node_id": "0.0-158.0"}}, {"uniqueid": "MTK0057:3STRJBFXOXY793P7BTXWZQ1J94QKTT", "current_trial": 222, "dateTime": 1509054882816, "trialdata": {"rt": -1, "stimulus": "<p id=\"stim\">AGENT</p>", "key_press": -1, "type": "PRES_VIS", "word": "agent", "wordID": 9, "conditions": [12, 1600, "v", 24000], "trial": 6, "serialpos": 9, "trial_type": "single-stim", "trial_index": 222, "time_elapsed": 1242903, "internal_node_id": "0.0-159.0"}}, {"uniqueid": "MTK0057:3STRJBFXOXY793P7BTXWZQ1J94QKTT", "current_trial": 223, "dateTime": 1509054885560, "trialdata": {"rt": -1, "stimulus": "<p id=\"stim\">CASHEW</p>", "key_press": -1, "type": "PRES_VIS", "word": "cashew", "wordID": 252, "conditions": [12, 1600, "v", 24000], "trial": 6, "serialpos": 10, "trial_type": "single-stim", "trial_index": 223, "time_elapsed": 1245647, "internal_node_id": "0.0-160.0"}}, {"uniqueid": "MTK0057:3STRJBFXOXY793P7BTXWZQ1J94QKTT", "current_trial": 224, "dateTime": 1509054888082, "trialdata": {"rt": -1, "stimulus": "<p id=\"stim\">DRIVER</p>", "key_press": -1, "type": "PRES_VIS", "word": "driver", "wordID": 498, "conditions": [12, 1600, "v", 24000], "trial": 6, "serialpos": 11, "trial_type": "single-stim", "trial_index": 224, "time_elapsed": 1248169, "internal_node_id": "0.0-161.0"}}, {"uniqueid": "MTK0057:3STRJBFXOXY793P7BTXWZQ1J94QKTT", "current_trial": 225, "dateTime": 1509054890275, "trialdata": {"rt": -1, "stimulus": "", "key_press": -1, "type": "PRE_RECALL_DELAY", "trial_type": "single-stim", "trial_index": 225, "time_elapsed": 1250362, "internal_node_id": "0.0-162.0-0.0"}}, {"uniqueid": "MTK0057:3STRJBFXOXY793P7BTXWZQ1J94QKTT", "current_trial": 226, "dateTime": 1509054890776, "trialdata": {"rt": -1000, "stimulus": "/static/audio/400Hz.wav", "key_press": -1, "type": "PRE_RECALL_ALERT", "trial_type": "single-audio", "trial_index": 226, "time_elapsed": 1250863, "internal_node_id": "0.0-163.0"}}, {"uniqueid": "MTK0057:3STRJBFXOXY793P7BTXWZQ1J94QKTT", "current_trial": 227, "dateTime": 1509054950780, "trialdata": {"rt": [2820, 5315, 6416, 7831, 9380, 10981, 12316, 14010, 19707, 24462, 26992, 28165, 33977], "recwords": ["driver", "cashew", "lak", "lake", "uncle", "brother", "wife", "agent", "marsh", "lapel", "goblin", "slide", "wrench"], "type": "FREE_RECALL", "conditions": [12, 1600, "v", 24000], "trial": 6, "trial_type": "free-recall", "trial_index": 227, "time_elapsed": 1310866, "internal_node_id": "0.0-164.0-0.0"}}, {"uniqueid": "MTK0057:3STRJBFXOXY793P7BTXWZQ1J94QKTT", "current_trial": 228, "dateTime": 1509054953770, "trialdata": {"rt": 988, "key_press": 32, "type": "INSTRUCTIONS", "trial_type": "text", "trial_index": 228, "time_elapsed": 1313857, "internal_node_id": "0.0-165.0"}}, {"uniqueid": "MTK0057:3STRJBFXOXY793P7BTXWZQ1J94QKTT", "current_trial": 229, "dateTime": 1509054967774, "trialdata": {"rt": [2292, 4004, 5840, 7771, 9491], "responses": ["17", "14", "14", "13", "8"], "num1": [4, 5, 9, 4, 4, 3], "num2": [9, 8, 3, 4, 2, 2], "num3": [4, 1, 2, 5, 2, 9], "type": "DISTRACTOR", "conditions": [12, 1600, "v", 12000], "trial": 7, "trial_type": "math-distractor", "trial_index": 229, "time_elapsed": 1327861, "internal_node_id": "0.0-166.0"}}, {"uniqueid": "MTK0057:3STRJBFXOXY793P7BTXWZQ1J94QKTT", "current_trial": 230, "dateTime": 1509054970777, "trialdata": {"rt": -1, "stimulus": "<p id=\"stim\">10</p>", "key_press": -1, "trial_type": "single-stim", "trial_index": 230, "time_elapsed": 1330864, "internal_node_id": "0.0-167.0-0.0"}}, {"uniqueid": "MTK0057:3STRJBFXOXY793P7BTXWZQ1J94QKTT", "current_trial": 231, "dateTime": 1509054971780, "trialdata": {"rt": -1, "stimulus": "<p id=\"stim\">9</p>", "key_press": -1, "trial_type": "single-stim", "trial_index": 231, "time_elapsed": 1331867, "internal_node_id": "0.0-167.0-1.0"}}, {"uniqueid": "MTK0057:3STRJBFXOXY793P7BTXWZQ1J94QKTT", "current_trial": 232, "dateTime": 1509054972781, "trialdata": {"rt": -1, "stimulus": "<p id=\"stim\">8</p>", "key_press": -1, "trial_type": "single-stim", "trial_index": 232, "time_elapsed": 1332868, "internal_node_id": "0.0-167.0-2.0"}}, {"uniqueid": "MTK0057:3STRJBFXOXY793P7BTXWZQ1J94QKTT", "current_trial": 233, "dateTime": 1509054973783, "trialdata": {"rt": -1, "stimulus": "<p id=\"stim\">7</p>", "key_press": -1, "trial_type": "single-stim", "trial_index": 233, "time_elapsed": 1333870, "internal_node_id": "0.0-167.0-3.0"}}, {"uniqueid": "MTK0057:3STRJBFXOXY793P7BTXWZQ1J94QKTT", "current_trial": 234, "dateTime": 1509054974785, "trialdata": {"rt": -1, "stimulus": "<p id=\"stim\">6</p>", "key_press": -1, "trial_type": "single-stim", "trial_index": 234, "time_elapsed": 1334872, "internal_node_id": "0.0-167.0-4.0"}}, {"uniqueid": "MTK0057:3STRJBFXOXY793P7BTXWZQ1J94QKTT", "current_trial": 235, "dateTime": 1509054975787, "trialdata": {"rt": -1, "stimulus": "<p id=\"stim\">5</p>", "key_press": -1, "trial_type": "single-stim", "trial_index": 235, "time_elapsed": 1335874, "internal_node_id": "0.0-167.0-5.0"}}, {"uniqueid": "MTK0057:3STRJBFXOXY793P7BTXWZQ1J94QKTT", "current_trial": 236, "dateTime": 1509054976789, "trialdata": {"rt": -1, "stimulus": "<p id=\"stim\">4</p>", "key_press": -1, "trial_type": "single-stim", "trial_index": 236, "time_elapsed": 1336876, "internal_node_id": "0.0-167.0-6.0"}}, {"uniqueid": "MTK0057:3STRJBFXOXY793P7BTXWZQ1J94QKTT", "current_trial": 237, "dateTime": 1509054977790, "trialdata": {"rt": -1, "stimulus": "<p id=\"stim\">3</p>", "key_press": -1, "trial_type": "single-stim", "trial_index": 237, "time_elapsed": 1337877, "internal_node_id": "0.0-167.0-7.0"}}, {"uniqueid": "MTK0057:3STRJBFXOXY793P7BTXWZQ1J94QKTT", "current_trial": 238, "dateTime": 1509054978793, "trialdata": {"rt": -1, "stimulus": "<p id=\"stim\">2</p>", "key_press": -1, "trial_type": "single-stim", "trial_index": 238, "time_elapsed": 1338880, "internal_node_id": "0.0-167.0-8.0"}}, {"uniqueid": "MTK0057:3STRJBFXOXY793P7BTXWZQ1J94QKTT", "current_trial": 239, "dateTime": 1509054979796, "trialdata": {"rt": -1, "stimulus": "<p id=\"stim\">1</p>", "key_press": -1, "trial_type": "single-stim", "trial_index": 239, "time_elapsed": 1339882, "internal_node_id": "0.0-167.0-9.0"}}, {"uniqueid": "MTK0057:3STRJBFXOXY793P7BTXWZQ1J94QKTT", "current_trial": 240, "dateTime": 1509054981298, "trialdata": {"rt": -1, "stimulus": "<p id=\"stim\">+</p>", "key_press": -1, "type": "FIXATION", "trial_type": "single-stim", "trial_index": 240, "time_elapsed": 1341384, "internal_node_id": "0.0-168.0-0.0"}}, {"uniqueid": "MTK0057:3STRJBFXOXY793P7BTXWZQ1J94QKTT", "current_trial": 241, "dateTime": 1509054982899, "trialdata": {"rt": -1, "stimulus": "<p id=\"stim\">DORM</p>", "key_press": -1, "type": "PRES_VIS", "word": "dorm", "wordID": 487, "conditions": [12, 1600, "v", 12000], "trial": 7, "serialpos": 0, "trial_type": "single-stim", "trial_index": 241, "time_elapsed": 1342986, "internal_node_id": "0.0-169.0"}}, {"uniqueid": "MTK0057:3STRJBFXOXY793P7BTXWZQ1J94QKTT", "current_trial": 242, "dateTime": 1509054985688, "trialdata": {"rt": -1, "stimulus": "<p id=\"stim\">LOVER</p>", "key_press": -1, "type": "PRES_VIS", "word": "lover", "wordID": 845, "conditions": [12, 1600, "v", 12000], "trial": 7, "serialpos": 1, "trial_type": "single-stim", "trial_index": 242, "time_elapsed": 1345775, "internal_node_id": "0.0-170.0"}}, {"uniqueid": "MTK0057:3STRJBFXOXY793P7BTXWZQ1J94QKTT", "current_trial": 243, "dateTime": 1509054988148, "trialdata": {"rt": -1, "stimulus": "<p id=\"stim\">SCALLOP</p>", "key_press": -1, "type": "PRES_VIS", "word": "scallop", "wordID": 1241, "conditions": [12, 1600, "v", 12000], "trial": 7, "serialpos": 2, "trial_type": "single-stim", "trial_index": 243, "time_elapsed": 1348235, "internal_node_id": "0.0-171.0"}}, {"uniqueid": "MTK0057:3STRJBFXOXY793P7BTXWZQ1J94QKTT", "current_trial": 244, "dateTime": 1509054990699, "trialdata": {"rt": -1, "stimulus": "<p id=\"stim\">PADDLE</p>", "key_press": -1, "type": "PRES_VIS", "word": "paddle", "wordID": 999, "conditions": [12, 1600, "v", 12000], "trial": 7, "serialpos": 3, "trial_type": "single-stim", "trial_index": 244, "time_elapsed": 1350786, "internal_node_id": "0.0-172.0"}}, {"uniqueid": "MTK0057:3STRJBFXOXY793P7BTXWZQ1J94QKTT", "current_trial": 245, "dateTime": 1509054993315, "trialdata": {"rt": -1, "stimulus": "<p id=\"stim\">BARLEY</p>", "key_press": -1, "type": "PRES_VIS", "word": "barley", "wordID": 87, "conditions": [12, 1600, "v", 12000], "trial": 7, "serialpos": 4, "trial_type": "single-stim", "trial_index": 245, "time_elapsed": 1353402, "internal_node_id": "0.0-173.0"}}, {"uniqueid": "MTK0057:3STRJBFXOXY793P7BTXWZQ1J94QKTT", "current_trial": 246, "dateTime": 1509054995792, "trialdata": {"rt": -1, "stimulus": "<p id=\"stim\">PECAN</p>", "key_press": -1, "type": "PRES_VIS", "word": "pecan", "wordID": 1035, "conditions": [12, 1600, "v", 12000], "trial": 7, "serialpos": 5, "trial_type": "single-stim", "trial_index": 246, "time_elapsed": 1355878, "internal_node_id": "0.0-174.0"}}, {"uniqueid": "MTK0057:3STRJBFXOXY793P7BTXWZQ1J94QKTT", "current_trial": 247, "dateTime": 1509054998216, "trialdata": {"rt": -1, "stimulus": "<p id=\"stim\">PEANUT</p>", "key_press": -1, "type": "PRES_VIS", "word": "peanut", "wordID": 1031, "conditions": [12, 1600, "v", 12000], "trial": 7, "serialpos": 6, "trial_type": "single-stim", "trial_index": 247, "time_elapsed": 1358303, "internal_node_id": "0.0-175.0"}}, {"uniqueid": "MTK0057:3STRJBFXOXY793P7BTXWZQ1J94QKTT", "current_trial": 248, "dateTime": 1509055000649, "trialdata": {"rt": -1, "stimulus": "<p id=\"stim\">FARMER</p>", "key_press": -1, "type": "PRES_VIS", "word": "farmer", "wordID": 552, "conditions": [12, 1600, "v", 12000], "trial": 7, "serialpos": 7, "trial_type": "single-stim", "trial_index": 248, "time_elapsed": 1360735, "internal_node_id": "0.0-176.0"}}, {"uniqueid": "MTK0057:3STRJBFXOXY793P7BTXWZQ1J94QKTT", "current_trial": 249, "dateTime": 1509055003333, "trialdata": {"rt": -1, "stimulus": "<p id=\"stim\">NURSE</p>", "key_press": -1, "type": "PRES_VIS", "word": "nurse", "wordID": 962, "conditions": [12, 1600, "v", 12000], "trial": 7, "serialpos": 8, "trial_type": "single-stim", "trial_index": 249, "time_elapsed": 1363419, "internal_node_id": "0.0-177.0"}}, {"uniqueid": "MTK0057:3STRJBFXOXY793P7BTXWZQ1J94QKTT", "current_trial": 250, "dateTime": 1509055005766, "trialdata": {"rt": -1, "stimulus": "<p id=\"stim\">STUDENT</p>", "key_press": -1, "type": "PRES_VIS", "word": "student", "wordID": 1394, "conditions": [12, 1600, "v", 12000], "trial": 7, "serialpos": 9, "trial_type": "single-stim", "trial_index": 250, "time_elapsed": 1365853, "internal_node_id": "0.0-178.0"}}, {"uniqueid": "MTK0057:3STRJBFXOXY793P7BTXWZQ1J94QKTT", "current_trial": 251, "dateTime": 1509055008189, "trialdata": {"rt": -1, "stimulus": "<p id=\"stim\">TWEEZERS</p>", "key_press": -1, "type": "PRES_VIS", "word": "tweezers", "wordID": 1525, "conditions": [12, 1600, "v", 12000], "trial": 7, "serialpos": 10, "trial_type": "single-stim", "trial_index": 251, "time_elapsed": 1368275, "internal_node_id": "0.0-179.0"}}, {"uniqueid": "MTK0057:3STRJBFXOXY793P7BTXWZQ1J94QKTT", "current_trial": 252, "dateTime": 1509055010713, "trialdata": {"rt": -1, "stimulus": "<p id=\"stim\">CRAYON</p>", "key_press": -1, "type": "PRES_VIS", "word": "crayon", "wordID": 400, "conditions": [12, 1600, "v", 12000], "trial": 7, "serialpos": 11, "trial_type": "single-stim", "trial_index": 252, "time_elapsed": 1370800, "internal_node_id": "0.0-180.0"}}, {"uniqueid": "MTK0057:3STRJBFXOXY793P7BTXWZQ1J94QKTT", "current_trial": 253, "dateTime": 1509055012858, "trialdata": {"rt": -1, "stimulus": "", "key_press": -1, "type": "PRE_RECALL_DELAY", "trial_type": "single-stim", "trial_index": 253, "time_elapsed": 1372945, "internal_node_id": "0.0-181.0-0.0"}}, {"uniqueid": "MTK0057:3STRJBFXOXY793P7BTXWZQ1J94QKTT", "current_trial": 254, "dateTime": 1509055013360, "trialdata": {"rt": -1000, "stimulus": "/static/audio/400Hz.wav", "key_press": -1, "type": "PRE_RECALL_ALERT", "trial_type": "single-audio", "trial_index": 254, "time_elapsed": 1373447, "internal_node_id": "0.0-182.0"}}, {"uniqueid": "MTK0057:3STRJBFXOXY793P7BTXWZQ1J94QKTT", "current_trial": 255, "dateTime": 1509055073365, "trialdata": {"rt": [2950, 5834, 7613, 9699, 12596, 14938, 16843, 19375, 25710, 39655], "recwords": ["student", "tweezer", "farmer", "pecan", "dorm", "nurse", "crayon", "lover", "tweezer", "peanut"], "type": "FREE_RECALL", "conditions": [12, 1600, "v", 12000], "trial": 7, "trial_type": "free-recall", "trial_index": 255, "time_elapsed": 1433452, "internal_node_id": "0.0-183.0-0.0"}}, {"uniqueid": "MTK0057:3STRJBFXOXY793P7BTXWZQ1J94QKTT", "current_trial": 256, "dateTime": 1509055075750, "trialdata": {"rt": 383, "key_press": 32, "type": "INSTRUCTIONS", "trial_type": "text", "trial_index": 256, "time_elapsed": 1435837, "internal_node_id": "0.0-184.0"}}, {"uniqueid": "MTK0057:3STRJBFXOXY793P7BTXWZQ1J94QKTT", "current_trial": 257, "dateTime": 1509055089755, "trialdata": {"rt": [1913, 4662, 6430, 8434, 10249], "responses": ["14", "20", "19", "17", "10"], "num1": [3, 7, 5, 8, 4, 6], "num2": [6, 6, 8, 1, 4, 8], "num3": [5, 7, 6, 8, 2, 7], "type": "DISTRACTOR", "conditions": [12, 800, "v", 12000], "trial": 8, "trial_type": "math-distractor", "trial_index": 257, "time_elapsed": 1449842, "internal_node_id": "0.0-185.0"}}, {"uniqueid": "MTK0057:3STRJBFXOXY793P7BTXWZQ1J94QKTT", "current_trial": 258, "dateTime": 1509055092757, "trialdata": {"rt": -1, "stimulus": "<p id=\"stim\">10</p>", "key_press": -1, "trial_type": "single-stim", "trial_index": 258, "time_elapsed": 1452844, "internal_node_id": "0.0-186.0-0.0"}}, {"uniqueid": "MTK0057:3STRJBFXOXY793P7BTXWZQ1J94QKTT", "current_trial": 259, "dateTime": 1509055093759, "trialdata": {"rt": -1, "stimulus": "<p id=\"stim\">9</p>", "key_press": -1, "trial_type": "single-stim", "trial_index": 259, "time_elapsed": 1453846, "internal_node_id": "0.0-186.0-1.0"}}, {"uniqueid": "MTK0057:3STRJBFXOXY793P7BTXWZQ1J94QKTT", "current_trial": 260, "dateTime": 1509055094760, "trialdata": {"rt": -1, "stimulus": "<p id=\"stim\">8</p>", "key_press": -1, "trial_type": "single-stim", "trial_index": 260, "time_elapsed": 1454847, "internal_node_id": "0.0-186.0-2.0"}}, {"uniqueid": "MTK0057:3STRJBFXOXY793P7BTXWZQ1J94QKTT", "current_trial": 261, "dateTime": 1509055095763, "trialdata": {"rt": -1, "stimulus": "<p id=\"stim\">7</p>", "key_press": -1, "trial_type": "single-stim", "trial_index": 261, "time_elapsed": 1455850, "internal_node_id": "0.0-186.0-3.0"}}, {"uniqueid": "MTK0057:3STRJBFXOXY793P7BTXWZQ1J94QKTT", "current_trial": 262, "dateTime": 1509055096766, "trialdata": {"rt": -1, "stimulus": "<p id=\"stim\">6</p>", "key_press": -1, "trial_type": "single-stim", "trial_index": 262, "time_elapsed": 1456853, "internal_node_id": "0.0-186.0-4.0"}}, {"uniqueid": "MTK0057:3STRJBFXOXY793P7BTXWZQ1J94QKTT", "current_trial": 263, "dateTime": 1509055097768, "trialdata": {"rt": -1, "stimulus": "<p id=\"stim\">5</p>", "key_press": -1, "trial_type": "single-stim", "trial_index": 263, "time_elapsed": 1457855, "internal_node_id": "0.0-186.0-5.0"}}, {"uniqueid": "MTK0057:3STRJBFXOXY793P7BTXWZQ1J94QKTT", "current_trial": 264, "dateTime": 1509055098770, "trialdata": {"rt": -1, "stimulus": "<p id=\"stim\">4</p>", "key_press": -1, "trial_type": "single-stim", "trial_index": 264, "time_elapsed": 1458856, "internal_node_id": "0.0-186.0-6.0"}}, {"uniqueid": "MTK0057:3STRJBFXOXY793P7BTXWZQ1J94QKTT", "current_trial": 265, "dateTime": 1509055099770, "trialdata": {"rt": -1, "stimulus": "<p id=\"stim\">3</p>", "key_press": -1, "trial_type": "single-stim", "trial_index": 265, "time_elapsed": 1459857, "internal_node_id": "0.0-186.0-7.0"}}, {"uniqueid": "MTK0057:3STRJBFXOXY793P7BTXWZQ1J94QKTT", "current_trial": 266, "dateTime": 1509055100771, "trialdata": {"rt": -1, "stimulus": "<p id=\"stim\">2</p>", "key_press": -1, "trial_type": "single-stim", "trial_index": 266, "time_elapsed": 1460858, "internal_node_id": "0.0-186.0-8.0"}}, {"uniqueid": "MTK0057:3STRJBFXOXY793P7BTXWZQ1J94QKTT", "current_trial": 267, "dateTime": 1509055101774, "trialdata": {"rt": -1, "stimulus": "<p id=\"stim\">1</p>", "key_press": -1, "trial_type": "single-stim", "trial_index": 267, "time_elapsed": 1461861, "internal_node_id": "0.0-186.0-9.0"}}, {"uniqueid": "MTK0057:3STRJBFXOXY793P7BTXWZQ1J94QKTT", "current_trial": 268, "dateTime": 1509055103275, "trialdata": {"rt": -1, "stimulus": "<p id=\"stim\">+</p>", "key_press": -1, "type": "FIXATION", "trial_type": "single-stim", "trial_index": 268, "time_elapsed": 1463361, "internal_node_id": "0.0-187.0-0.0"}}, {"uniqueid": "MTK0057:3STRJBFXOXY793P7BTXWZQ1J94QKTT", "current_trial": 269, "dateTime": 1509055104077, "trialdata": {"rt": -1, "stimulus": "<p id=\"stim\">AIRPORT</p>", "key_press": -1, "type": "PRES_VIS", "word": "airport", "wordID": 12, "conditions": [12, 800, "v", 12000], "trial": 8, "serialpos": 0, "trial_type": "single-stim", "trial_index": 269, "time_elapsed": 1464163, "internal_node_id": "0.0-188.0"}}, {"uniqueid": "MTK0057:3STRJBFXOXY793P7BTXWZQ1J94QKTT", "current_trial": 270, "dateTime": 1509055105964, "trialdata": {"rt": -1, "stimulus": "<p id=\"stim\">RECORD</p>", "key_press": -1, "type": "PRES_VIS", "word": "record", "wordID": 1175, "conditions": [12, 800, "v", 12000], "trial": 8, "serialpos": 1, "trial_type": "single-stim", "trial_index": 270, "time_elapsed": 1466051, "internal_node_id": "0.0-189.0"}}, {"uniqueid": "MTK0057:3STRJBFXOXY793P7BTXWZQ1J94QKTT", "current_trial": 271, "dateTime": 1509055107836, "trialdata": {"rt": -1, "stimulus": "<p id=\"stim\">LABEL</p>", "key_press": -1, "type": "PRES_VIS", "word": "label", "wordID": 789, "conditions": [12, 800, "v", 12000], "trial": 8, "serialpos": 2, "trial_type": "single-stim", "trial_index": 271, "time_elapsed": 1467923, "internal_node_id": "0.0-190.0"}}, {"uniqueid": "MTK0057:3STRJBFXOXY793P7BTXWZQ1J94QKTT", "current_trial": 272, "dateTime": 1509055109717, "trialdata": {"rt": -1, "stimulus": "<p id=\"stim\">SHORTS</p>", "key_press": -1, "type": "PRES_VIS", "word": "shorts", "wordID": 1292, "conditions": [12, 800, "v", 12000], "trial": 8, "serialpos": 3, "trial_type": "single-stim", "trial_index": 272, "time_elapsed": 1469804, "internal_node_id": "0.0-191.0"}}, {"uniqueid": "MTK0057:3STRJBFXOXY793P7BTXWZQ1J94QKTT", "current_trial": 273, "dateTime": 1509055111345, "trialdata": {"rt": -1, "stimulus": "<p id=\"stim\">BACON</p>", "key_press": -1, "type": "PRES_VIS", "word": "bacon", "wordID": 66, "conditions": [12, 800, "v", 12000], "trial": 8, "serialpos": 4, "trial_type": "single-stim", "trial_index": 273, "time_elapsed": 1471431, "internal_node_id": "0.0-192.0"}}, {"uniqueid": "MTK0057:3STRJBFXOXY793P7BTXWZQ1J94QKTT", "current_trial": 274, "dateTime": 1509055113178, "trialdata": {"rt": -1, "stimulus": "<p id=\"stim\">LIVER</p>", "key_press": -1, "type": "PRES_VIS", "word": "l