{"condition": 0, "counterbalance": 51, "assignmentId": "3EWIJTFFVPE37U06H5YJHKM9S39E0H", "workerId": "MTK0129", "hitId": "3FSEU3P2NR7ET8RG7MWWB3QV3XIRRV", "currenttrial": 625, "bonus": 0, "data": [{"uniqueid": "MTK0129:3EWIJTFFVPE37U06H5YJHKM9S39E0H", "current_trial": 0, "dateTime": 1509289873721, "trialdata": {"rt": 2358, "key_press": 32, "type": "INSTRUCTIONS", "trial_type": "text", "trial_index": 0, "time_elapsed": 2366, "internal_node_id": "0.0-0.0"}}, {"uniqueid": "MTK0129:3EWIJTFFVPE37U06H5YJHKM9S39E0H", "current_trial": 1, "dateTime": 1509289889120, "trialdata": {"rt": 15391, "key_press": 32, "type": "INSTRUCTIONS", "trial_type": "text", "trial_index": 1, "time_elapsed": 17767, "internal_node_id": "0.0-1.0"}}, {"uniqueid": "MTK0129:3EWIJTFFVPE37U06H5YJHKM9S39E0H", "current_trial": 2, "dateTime": 1509289901497, "trialdata": {"rt": [12352], "responses": ["ocean"], "type": "AUDIO_TEST", "trial_type": "audio-test", "trial_index": 2, "time_elapsed": 30144, "internal_node_id": "0.0-2.0"}}, {"uniqueid": "MTK0129:3EWIJTFFVPE37U06H5YJHKM9S39E0H", "current_trial": 3, "dateTime": 1509289913944, "trialdata": {"rt": [12439], "responses": ["crystal"], "type": "AUDIO_TEST", "trial_type": "audio-test", "trial_index": 3, "time_elapsed": 42591, "internal_node_id": "0.0-3.0"}}, {"uniqueid": "MTK0129:3EWIJTFFVPE37U06H5YJHKM9S39E0H", "current_trial": 4, "dateTime": 1509289925912, "trialdata": {"rt": [11959], "responses": ["spice"], "type": "AUDIO_TEST", "trial_type": "audio-test", "trial_index": 4, "time_elapsed": 54559, "internal_node_id": "0.0-4.0"}}, {"uniqueid": "MTK0129:3EWIJTFFVPE37U06H5YJHKM9S39E0H", "current_trial": 5, "dateTime": 1509289930989, "trialdata": {"rt": 4322, "key_press": 32, "type": "INSTRUCTIONS", "trial_type": "text", "trial_index": 5, "time_elapsed": 59636, "internal_node_id": "0.0-5.0"}}, {"uniqueid": "MTK0129:3EWIJTFFVPE37U06H5YJHKM9S39E0H", "current_trial": 6, "dateTime": 1509290008040, "trialdata": {"rt": 77049, "key_press": 13, "type": "INSTRUCTIONS", "trial_type": "text", "trial_index": 6, "time_elapsed": 136687, "internal_node_id": "0.0-6.0"}}, {"uniqueid": "MTK0129:3EWIJTFFVPE37U06H5YJHKM9S39E0H", "current_trial": 7, "dateTime": 1509290020549, "trialdata": {"rt": 12504, "key_press": 32, "type": "INSTRUCTIONS", "trial_type": "text", "trial_index": 7, "time_elapsed": 149195, "internal_node_id": "0.0-7.0"}}, {"uniqueid": "MTK0129:3EWIJTFFVPE37U06H5YJHKM9S39E0H", "current_trial": 8, "dateTime": 1509290026626, "trialdata": {"rt": 6073, "key_press": 32, "type": "INSTRUCTIONS", "trial_type": "text", "trial_index": 8, "time_elapsed": 155272, "internal_node_id": "0.0-8.0"}}, {"uniqueid": "MTK0129:3EWIJTFFVPE37U06H5YJHKM9S39E0H", "current_trial": 9, "dateTime": 1509290045713, "trialdata": {"rt": [3685, 6269, 8324, 10516, 12725, 14891, 17333], "responses": ["25", "15", "11", "6", "14", "13", "17"], "num1": [7, 4, 5, 1, 1, 5, 1, 2], "num2": [9, 9, 3, 4, 6, 4, 7, 5], "num3": [9, 2, 3, 1, 7, 4, 9, 1], "type": "DISTRACTOR", "conditions": [18, 1200, "a", 18000], "trial": 0, "trial_type": "math-distractor", "trial_index": 9, "time_elapsed": 174360, "internal_node_id": "0.0-9.0"}}, {"uniqueid": "MTK0129:3EWIJTFFVPE37U06H5YJHKM9S39E0H", "current_trial": 10, "dateTime": 1509290048722, "trialdata": {"rt": -1, "stimulus": "<p id=\"stim\">10</p>", "key_press": -1, "trial_type": "single-stim", "trial_index": 10, "time_elapsed": 177369, "internal_node_id": "0.0-10.0-0.0"}}, {"uniqueid": "MTK0129:3EWIJTFFVPE37U06H5YJHKM9S39E0H", "current_trial": 11, "dateTime": 1509290049726, "trialdata": {"rt": -1, "stimulus": "<p id=\"stim\">9</p>", "key_press": -1, "trial_type": "single-stim", "trial_index": 11, "time_elapsed": 178373, "internal_node_id": "0.0-10.0-1.0"}}, {"uniqueid": "MTK0129:3EWIJTFFVPE37U06H5YJHKM9S39E0H", "current_trial": 12, "dateTime": 1509290050760, "trialdata": {"rt": -1, "stimulus": "<p id=\"stim\">8</p>", "key_press": -1, "trial_type": "single-stim", "trial_index": 12, "time_elapsed": 179406, "internal_node_id": "0.0-10.0-2.0"}}, {"uniqueid": "MTK0129:3EWIJTFFVPE37U06H5YJHKM9S39E0H", "current_trial": 13, "dateTime": 1509290051769, "trialdata": {"rt": -1, "stimulus": "<p id=\"stim\">7</p>", "key_press": -1, "trial_type": "single-stim", "trial_index": 13, "time_elapsed": 180416, "internal_node_id": "0.0-10.0-3.0"}}, {"uniqueid": "MTK0129:3EWIJTFFVPE37U06H5YJHKM9S39E0H", "current_trial": 14, "dateTime": 1509290052772, "trialdata": {"rt": -1, "stimulus": "<p id=\"stim\">6</p>", "key_press": -1, "trial_type": "single-stim", "trial_index": 14, "time_elapsed": 181419, "internal_node_id": "0.0-10.0-4.0"}}, {"uniqueid": "MTK0129:3EWIJTFFVPE37U06H5YJHKM9S39E0H", "current_trial": 15, "dateTime": 1509290053777, "trialdata": {"rt": -1, "stimulus": "<p id=\"stim\">5</p>", "key_press": -1, "trial_type": "single-stim", "trial_index": 15, "time_elapsed": 182424, "internal_node_id": "0.0-10.0-5.0"}}, {"uniqueid": "MTK0129:3EWIJTFFVPE37U06H5YJHKM9S39E0H", "current_trial": 16, "dateTime": 1509290054782, "trialdata": {"rt": -1, "stimulus": "<p id=\"stim\">4</p>", "key_press": -1, "trial_type": "single-stim", "trial_index": 16, "time_elapsed": 183428, "internal_node_id": "0.0-10.0-6.0"}}, {"uniqueid": "MTK0129:3EWIJTFFVPE37U06H5YJHKM9S39E0H", "current_trial": 17, "dateTime": 1509290055786, "trialdata": {"rt": -1, "stimulus": "<p id=\"stim\">3</p>", "key_press": -1, "trial_type": "single-stim", "trial_index": 17, "time_elapsed": 184433, "internal_node_id": "0.0-10.0-7.0"}}, {"uniqueid": "MTK0129:3EWIJTFFVPE37U06H5YJHKM9S39E0H", "current_trial": 18, "dateTime": 1509290056790, "trialdata": {"rt": -1, "stimulus": "<p id=\"stim\">2</p>", "key_press": -1, "trial_type": "single-stim", "trial_index": 18, "time_elapsed": 185437, "internal_node_id": "0.0-10.0-8.0"}}, {"uniqueid": "MTK0129:3EWIJTFFVPE37U06H5YJHKM9S39E0H", "current_trial": 19, "dateTime": 1509290057794, "trialdata": {"rt": -1, "stimulus": "<p id=\"stim\">1</p>", "key_press": -1, "trial_type": "single-stim", "trial_index": 19, "time_elapsed": 186441, "internal_node_id": "0.0-10.0-9.0"}}, {"uniqueid": "MTK0129:3EWIJTFFVPE37U06H5YJHKM9S39E0H", "current_trial": 20, "dateTime": 1509290059299, "trialdata": {"rt": -1, "stimulus": "<p id=\"stim\">+</p>", "key_press": -1, "type": "FIXATION", "trial_type": "single-stim", "trial_index": 20, "time_elapsed": 187946, "internal_node_id": "0.0-11.0-0.0"}}, {"uniqueid": "MTK0129:3EWIJTFFVPE37U06H5YJHKM9S39E0H", "current_trial": 21, "dateTime": 1509290061385, "trialdata": {"rt": -1000, "stimulus": "/static/audio/wordpool/WASP.wav", "key_press": -1, "type": "PRES_AUD", "word": "wasp", "wordID": 1592, "conditions": [18, 1200, "a", 18000], "trial": 0, "serialpos": 0, "trial_type": "single-audio", "trial_index": 21, "time_elapsed": 190032, "internal_node_id": "0.0-12.0"}}, {"uniqueid": "MTK0129:3EWIJTFFVPE37U06H5YJHKM9S39E0H", "current_trial": 22, "dateTime": 1509290063638, "trialdata": {"rt": -1000, "stimulus": "/static/audio/wordpool/RABBIT.wav", "key_press": -1, "type": "PRES_AUD", "word": "rabbit", "wordID": 1151, "conditions": [18, 1200, "a", 18000], "trial": 0, "serialpos": 1, "trial_type": "single-audio", "trial_index": 22, "time_elapsed": 192285, "internal_node_id": "0.0-13.0"}}, {"uniqueid": "MTK0129:3EWIJTFFVPE37U06H5YJHKM9S39E0H", "current_trial": 23, "dateTime": 1509290065975, "trialdata": {"rt": -1000, "stimulus": "/static/audio/wordpool/SUPPER.wav", "key_press": -1, "type": "PRES_AUD", "word": "supper", "wordID": 1410, "conditions": [18, 1200, "a", 18000], "trial": 0, "serialpos": 2, "trial_type": "single-audio", "trial_index": 23, "time_elapsed": 194622, "internal_node_id": "0.0-14.0"}}, {"uniqueid": "MTK0129:3EWIJTFFVPE37U06H5YJHKM9S39E0H", "current_trial": 24, "dateTime": 1509290068026, "trialdata": {"rt": -1000, "stimulus": "/static/audio/wordpool/MISTER.wav", "key_press": -1, "type": "PRES_AUD", "word": "mister", "wordID": 900, "conditions": [18, 1200, "a", 18000], "trial": 0, "serialpos": 3, "trial_type": "single-audio", "trial_index": 24, "time_elapsed": 196673, "internal_node_id": "0.0-15.0"}}, {"uniqueid": "MTK0129:3EWIJTFFVPE37U06H5YJHKM9S39E0H", "current_trial": 25, "dateTime": 1509290070359, "trialdata": {"rt": -1000, "stimulus": "/static/audio/wordpool/TRACTOR.wav", "key_press": -1, "type": "PRES_AUD", "word": "tractor", "wordID": 1492, "conditions": [18, 1200, "a", 18000], "trial": 0, "serialpos": 4, "trial_type": "single-audio", "trial_index": 25, "time_elapsed": 199006, "internal_node_id": "0.0-16.0"}}, {"uniqueid": "MTK0129:3EWIJTFFVPE37U06H5YJHKM9S39E0H", "current_trial": 26, "dateTime": 1509290072757, "trialdata": {"rt": -1000, "stimulus": "/static/audio/wordpool/LUMBER.wav", "key_press": -1, "type": "PRES_AUD", "word": "lumber", "wordID": 847, "conditions": [18, 1200, "a", 18000], "trial": 0, "serialpos": 5, "trial_type": "single-audio", "trial_index": 26, "time_elapsed": 201403, "internal_node_id": "0.0-17.0"}}, {"uniqueid": "MTK0129:3EWIJTFFVPE37U06H5YJHKM9S39E0H", "current_trial": 27, "dateTime": 1509290075143, "trialdata": {"rt": -1000, "stimulus": "/static/audio/wordpool/SHORTCAKE.wav", "key_press": -1, "type": "PRES_AUD", "word": "shortcake", "wordID": 1291, "conditions": [18, 1200, "a", 18000], "trial": 0, "serialpos": 6, "trial_type": "single-audio", "trial_index": 27, "time_elapsed": 203789, "internal_node_id": "0.0-18.0"}}, {"uniqueid": "MTK0129:3EWIJTFFVPE37U06H5YJHKM9S39E0H", "current_trial": 28, "dateTime": 1509290077185, "trialdata": {"rt": -1000, "stimulus": "/static/audio/wordpool/CROSS.wav", "key_press": -1, "type": "PRES_AUD", "word": "cross", "wordID": 412, "conditions": [18, 1200, "a", 18000], "trial": 0, "serialpos": 7, "trial_type": "single-audio", "trial_index": 28, "time_elapsed": 205832, "internal_node_id": "0.0-19.0"}}, {"uniqueid": "MTK0129:3EWIJTFFVPE37U06H5YJHKM9S39E0H", "current_trial": 29, "dateTime": 1509290079472, "trialdata": {"rt": -1000, "stimulus": "/static/audio/wordpool/FIDDLE.wav", "key_press": -1, "type": "PRES_AUD", "word": "fiddle", "wordID": 560, "conditions": [18, 1200, "a", 18000], "trial": 0, "serialpos": 8, "trial_type": "single-audio", "trial_index": 29, "time_elapsed": 208118, "internal_node_id": "0.0-20.0"}}, {"uniqueid": "MTK0129:3EWIJTFFVPE37U06H5YJHKM9S39E0H", "current_trial": 30, "dateTime": 1509290081646, "trialdata": {"rt": -1000, "stimulus": "/static/audio/wordpool/DRUG.wav", "key_press": -1, "type": "PRES_AUD", "word": "drug", "wordID": 500, "conditions": [18, 1200, "a", 18000], "trial": 0, "serialpos": 9, "trial_type": "single-audio", "trial_index": 30, "time_elapsed": 210292, "internal_node_id": "0.0-21.0"}}, {"uniqueid": "MTK0129:3EWIJTFFVPE37U06H5YJHKM9S39E0H", "current_trial": 31, "dateTime": 1509290083883, "trialdata": {"rt": -1000, "stimulus": "/static/audio/wordpool/BUGGY.wav", "key_press": -1, "type": "PRES_AUD", "word": "buggy", "wordID": 187, "conditions": [18, 1200, "a", 18000], "trial": 0, "serialpos": 10, "trial_type": "single-audio", "trial_index": 31, "time_elapsed": 212530, "internal_node_id": "0.0-22.0"}}, {"uniqueid": "MTK0129:3EWIJTFFVPE37U06H5YJHKM9S39E0H", "current_trial": 32, "dateTime": 1509290086404, "trialdata": {"rt": -1000, "stimulus": "/static/audio/wordpool/MAMMAL.wav", "key_press": -1, "type": "PRES_AUD", "word": "mammal", "wordID": 860, "conditions": [18, 1200, "a", 18000], "trial": 0, "serialpos": 11, "trial_type": "single-audio", "trial_index": 32, "time_elapsed": 215051, "internal_node_id": "0.0-23.0"}}, {"uniqueid": "MTK0129:3EWIJTFFVPE37U06H5YJHKM9S39E0H", "current_trial": 33, "dateTime": 1509290088427, "trialdata": {"rt": -1000, "stimulus": "/static/audio/wordpool/VENUS.wav", "key_press": -1, "type": "PRES_AUD", "word": "venus", "wordID": 1556, "conditions": [18, 1200, "a", 18000], "trial": 0, "serialpos": 12, "trial_type": "single-audio", "trial_index": 33, "time_elapsed": 217074, "internal_node_id": "0.0-24.0"}}, {"uniqueid": "MTK0129:3EWIJTFFVPE37U06H5YJHKM9S39E0H", "current_trial": 34, "dateTime": 1509290090595, "trialdata": {"rt": -1000, "stimulus": "/static/audio/wordpool/PARROT.wav", "key_press": -1, "type": "PRES_AUD", "word": "parrot", "wordID": 1014, "conditions": [18, 1200, "a", 18000], "trial": 0, "serialpos": 13, "trial_type": "single-audio", "trial_index": 34, "time_elapsed": 219242, "internal_node_id": "0.0-25.0"}}, {"uniqueid": "MTK0129:3EWIJTFFVPE37U06H5YJHKM9S39E0H", "current_trial": 35, "dateTime": 1509290092896, "trialdata": {"rt": -1000, "stimulus": "/static/audio/wordpool/THIEF.wav", "key_press": -1, "type": "PRES_AUD", "word": "thief", "wordID": 1455, "conditions": [18, 1200, "a", 18000], "trial": 0, "serialpos": 14, "trial_type": "single-audio", "trial_index": 35, "time_elapsed": 221542, "internal_node_id": "0.0-26.0"}}, {"uniqueid": "MTK0129:3EWIJTFFVPE37U06H5YJHKM9S39E0H", "current_trial": 36, "dateTime": 1509290095035, "trialdata": {"rt": -1000, "stimulus": "/static/audio/wordpool/BOUQUET.wav", "key_press": -1, "type": "PRES_AUD", "word": "bouquet", "wordID": 156, "conditions": [18, 1200, "a", 18000], "trial": 0, "serialpos": 15, "trial_type": "single-audio", "trial_index": 36, "time_elapsed": 223682, "internal_node_id": "0.0-27.0"}}, {"uniqueid": "MTK0129:3EWIJTFFVPE37U06H5YJHKM9S39E0H", "current_trial": 37, "dateTime": 1509290097104, "trialdata": {"rt": -1000, "stimulus": "/static/audio/wordpool/PARTNER.wav", "key_press": -1, "type": "PRES_AUD", "word": "partner", "wordID": 1016, "conditions": [18, 1200, "a", 18000], "trial": 0, "serialpos": 16, "trial_type": "single-audio", "trial_index": 37, "time_elapsed": 225750, "internal_node_id": "0.0-28.0"}}, {"uniqueid": "MTK0129:3EWIJTFFVPE37U06H5YJHKM9S39E0H", "current_trial": 38, "dateTime": 1509290099298, "trialdata": {"rt": -1000, "stimulus": "/static/audio/wordpool/FOOT.wav", "key_press": -1, "type": "PRES_AUD", "word": "foot", "wordID": 589, "conditions": [18, 1200, "a", 18000], "trial": 0, "serialpos": 17, "trial_type": "single-audio", "trial_index": 38, "time_elapsed": 227944, "internal_node_id": "0.0-29.0"}}, {"uniqueid": "MTK0129:3EWIJTFFVPE37U06H5YJHKM9S39E0H", "current_trial": 39, "dateTime": 1509290100566, "trialdata": {"rt": -1, "stimulus": "", "key_press": -1, "type": "PRE_RECALL_DELAY", "trial_type": "single-stim", "trial_index": 39, "time_elapsed": 229213, "internal_node_id": "0.0-30.0-0.0"}}, {"uniqueid": "MTK0129:3EWIJTFFVPE37U06H5YJHKM9S39E0H", "current_trial": 40, "dateTime": 1509290101075, "trialdata": {"rt": -1000, "stimulus": "/static/audio/400Hz.wav", "key_press": -1, "type": "PRE_RECALL_ALERT", "trial_type": "single-audio", "trial_index": 40, "time_elapsed": 229717, "internal_node_id": "0.0-31.0"}}, {"uniqueid": "MTK0129:3EWIJTFFVPE37U06H5YJHKM9S39E0H", "current_trial": 41, "dateTime": 1509290161112, "trialdata": {"rt": [4507, 6137, 8356, 9747, 11099, 13195, 15643, 19363, 28723, 42701, 43476, 43643], "recwords": ["wasp", "rabbit", "supper", "lumber", "foot", "rabbit", "bouquet", "truck", "parrot", "", "", ""], "type": "FREE_RECALL", "conditions": [18, 1200, "a", 18000], "trial": 0, "trial_type": "free-recall", "trial_index": 41, "time_elapsed": 289735, "internal_node_id": "0.0-32.0-0.0"}}, {"uniqueid": "MTK0129:3EWIJTFFVPE37U06H5YJHKM9S39E0H", "current_trial": 42, "dateTime": 1509290165140, "trialdata": {"rt": 2025, "key_press": 32, "type": "INSTRUCTIONS", "trial_type": "text", "trial_index": 42, "time_elapsed": 293787, "internal_node_id": "0.0-33.0"}}, {"uniqueid": "MTK0129:3EWIJTFFVPE37U06H5YJHKM9S39E0H", "current_trial": 43, "dateTime": 1509290185152, "trialdata": {"rt": [2618, 4690, 6637, 9019, 11899, 14075, 16010], "responses": ["19", "16", "12", "13", "21", "9", "6"], "num1": [5, 8, 8, 3, 9, 5, 3, 9], "num2": [6, 3, 2, 7, 3, 3, 2, 4], "num3": [8, 5, 2, 3, 9, 1, 1, 3], "type": "DISTRACTOR", "conditions": [18, 1200, "v", 18000], "trial": 1, "trial_type": "math-distractor", "trial_index": 43, "time_elapsed": 313799, "internal_node_id": "0.0-34.0"}}, {"uniqueid": "MTK0129:3EWIJTFFVPE37U06H5YJHKM9S39E0H", "current_trial": 44, "dateTime": 1509290188157, "trialdata": {"rt": -1, "stimulus": "<p id=\"stim\">10</p>", "key_press": -1, "trial_type": "single-stim", "trial_index": 44, "time_elapsed": 316803, "internal_node_id": "0.0-35.0-0.0"}}, {"uniqueid": "MTK0129:3EWIJTFFVPE37U06H5YJHKM9S39E0H", "current_trial": 45, "dateTime": 1509290189161, "trialdata": {"rt": -1, "stimulus": "<p id=\"stim\">9</p>", "key_press": -1, "trial_type": "single-stim", "trial_index": 45, "time_elapsed": 317808, "internal_node_id": "0.0-35.0-1.0"}}, {"uniqueid": "MTK0129:3EWIJTFFVPE37U06H5YJHKM9S39E0H", "current_trial": 46, "dateTime": 1509290190165, "trialdata": {"rt": -1, "stimulus": "<p id=\"stim\">8</p>", "key_press": -1, "trial_type": "single-stim", "trial_index": 46, "time_elapsed": 318812, "internal_node_id": "0.0-35.0-2.0"}}, {"uniqueid": "MTK0129:3EWIJTFFVPE37U06H5YJHKM9S39E0H", "current_trial": 47, "dateTime": 1509290191169, "trialdata": {"rt": -1, "stimulus": "<p id=\"stim\">7</p>", "key_press": -1, "trial_type": "single-stim", "trial_index": 47, "time_elapsed": 319816, "internal_node_id": "0.0-35.0-3.0"}}, {"uniqueid": "MTK0129:3EWIJTFFVPE37U06H5YJHKM9S39E0H", "current_trial": 48, "dateTime": 1509290192173, "trialdata": {"rt": -1, "stimulus": "<p id=\"stim\">6</p>", "key_press": -1, "trial_type": "single-stim", "trial_index": 48, "time_elapsed": 320820, "internal_node_id": "0.0-35.0-4.0"}}, {"uniqueid": "MTK0129:3EWIJTFFVPE37U06H5YJHKM9S39E0H", "current_trial": 49, "dateTime": 1509290193179, "trialdata": {"rt": -1, "stimulus": "<p id=\"stim\">5</p>", "key_press": -1, "trial_type": "single-stim", "trial_index": 49, "time_elapsed": 321825, "internal_node_id": "0.0-35.0-5.0"}}, {"uniqueid": "MTK0129:3EWIJTFFVPE37U06H5YJHKM9S39E0H", "current_trial": 50, "dateTime": 1509290194183, "trialdata": {"rt": -1, "stimulus": "<p id=\"stim\">4</p>", "key_press": -1, "trial_type": "single-stim", "trial_index": 50, "time_elapsed": 322830, "internal_node_id": "0.0-35.0-6.0"}}, {"uniqueid": "MTK0129:3EWIJTFFVPE37U06H5YJHKM9S39E0H", "current_trial": 51, "dateTime": 1509290195191, "trialdata": {"rt": -1, "stimulus": "<p id=\"stim\">3</p>", "key_press": -1, "trial_type": "single-stim", "trial_index": 51, "time_elapsed": 323837, "internal_node_id": "0.0-35.0-7.0"}}, {"uniqueid": "MTK0129:3EWIJTFFVPE37U06H5YJHKM9S39E0H", "current_trial": 52, "dateTime": 1509290196195, "trialdata": {"rt": -1, "stimulus": "<p id=\"stim\">2</p>", "key_press": -1, "trial_type": "single-stim", "trial_index": 52, "time_elapsed": 324842, "internal_node_id": "0.0-35.0-8.0"}}, {"uniqueid": "MTK0129:3EWIJTFFVPE37U06H5YJHKM9S39E0H", "current_trial": 53, "dateTime": 1509290197198, "trialdata": {"rt": -1, "stimulus": "<p id=\"stim\">1</p>", "key_press": -1, "trial_type": "single-stim", "trial_index": 53, "time_elapsed": 325845, "internal_node_id": "0.0-35.0-9.0"}}, {"uniqueid": "MTK0129:3EWIJTFFVPE37U06H5YJHKM9S39E0H", "current_trial": 54, "dateTime": 1509290198704, "trialdata": {"rt": -1, "stimulus": "<p id=\"stim\">+</p>", "key_press": -1, "type": "FIXATION", "trial_type": "single-stim", "trial_index": 54, "time_elapsed": 327351, "internal_node_id": "0.0-36.0-0.0"}}, {"uniqueid": "MTK0129:3EWIJTFFVPE37U06H5YJHKM9S39E0H", "current_trial": 55, "dateTime": 1509290199910, "trialdata": {"rt": -1, "stimulus": "<p id=\"stim\">BADGE</p>", "key_press": -1, "type": "PRES_VIS", "word": "badge", "wordID": 67, "conditions": [18, 1200, "v", 18000], "trial": 1, "serialpos": 0, "trial_type": "single-stim", "trial_index": 55, "time_elapsed": 328556, "internal_node_id": "0.0-37.0"}}, {"uniqueid": "MTK0129:3EWIJTFFVPE37U06H5YJHKM9S39E0H", "current_trial": 56, "dateTime": 1509290202035, "trialdata": {"rt": -1, "stimulus": "<p id=\"stim\">MISSILE</p>", "key_press": -1, "type": "PRES_VIS", "word": "missile", "wordID": 899, "conditions": [18, 1200, "v", 18000], "trial": 1, "serialpos": 1, "trial_type": "single-stim", "trial_index": 56, "time_elapsed": 330674, "internal_node_id": "0.0-38.0"}}, {"uniqueid": "MTK0129:3EWIJTFFVPE37U06H5YJHKM9S39E0H", "current_trial": 57, "dateTime": 1509290204418, "trialdata": {"rt": -1, "stimulus": "<p id=\"stim\">HIKER</p>", "key_press": -1, "type": "PRES_VIS", "word": "hiker", "wordID": 707, "conditions": [18, 1200, "v", 18000], "trial": 1, "serialpos": 2, "trial_type": "single-stim", "trial_index": 57, "time_elapsed": 333064, "internal_node_id": "0.0-39.0"}}, {"uniqueid": "MTK0129:3EWIJTFFVPE37U06H5YJHKM9S39E0H", "current_trial": 58, "dateTime": 1509290206783, "trialdata": {"rt": -1, "stimulus": "<p id=\"stim\">VELVET</p>", "key_press": -1, "type": "PRES_VIS", "word": "velvet", "wordID": 1554, "conditions": [18, 1200, "v", 18000], "trial": 1, "serialpos": 3, "trial_type": "single-stim", "trial_index": 58, "time_elapsed": 335429, "internal_node_id": "0.0-40.0"}}, {"uniqueid": "MTK0129:3EWIJTFFVPE37U06H5YJHKM9S39E0H", "current_trial": 59, "dateTime": 1509290208832, "trialdata": {"rt": -1, "stimulus": "<p id=\"stim\">GRAVE</p>", "key_press": -1, "type": "PRES_VIS", "word": "grave", "wordID": 657, "conditions": [18, 1200, "v", 18000], "trial": 1, "serialpos": 4, "trial_type": "single-stim", "trial_index": 59, "time_elapsed": 337478, "internal_node_id": "0.0-41.0"}}, {"uniqueid": "MTK0129:3EWIJTFFVPE37U06H5YJHKM9S39E0H", "current_trial": 60, "dateTime": 1509290210899, "trialdata": {"rt": -1, "stimulus": "<p id=\"stim\">MILK</p>", "key_press": -1, "type": "PRES_VIS", "word": "milk", "wordID": 894, "conditions": [18, 1200, "v", 18000], "trial": 1, "serialpos": 5, "trial_type": "single-stim", "trial_index": 60, "time_elapsed": 339546, "internal_node_id": "0.0-42.0"}}, {"uniqueid": "MTK0129:3EWIJTFFVPE37U06H5YJHKM9S39E0H", "current_trial": 61, "dateTime": 1509290213302, "trialdata": {"rt": -1, "stimulus": "<p id=\"stim\">COD</p>", "key_press": -1, "type": "PRES_VIS", "word": "cod", "wordID": 339, "conditions": [18, 1200, "v", 18000], "trial": 1, "serialpos": 6, "trial_type": "single-stim", "trial_index": 61, "time_elapsed": 341949, "internal_node_id": "0.0-43.0"}}, {"uniqueid": "MTK0129:3EWIJTFFVPE37U06H5YJHKM9S39E0H", "current_trial": 62, "dateTime": 1509290215752, "trialdata": {"rt": -1, "stimulus": "<p id=\"stim\">SHIRT</p>", "key_press": -1, "type": "PRES_VIS", "word": "shirt", "wordID": 1286, "conditions": [18, 1200, "v", 18000], "trial": 1, "serialpos": 7, "trial_type": "single-stim", "trial_index": 62, "time_elapsed": 344399, "internal_node_id": "0.0-44.0"}}, {"uniqueid": "MTK0129:3EWIJTFFVPE37U06H5YJHKM9S39E0H", "current_trial": 63, "dateTime": 1509290218103, "trialdata": {"rt": -1, "stimulus": "<p id=\"stim\">NIGHTGOWN</p>", "key_press": -1, "type": "PRES_VIS", "word": "nightgown", "wordID": 952, "conditions": [18, 1200, "v", 18000], "trial": 1, "serialpos": 8, "trial_type": "single-stim", "trial_index": 63, "time_elapsed": 346749, "internal_node_id": "0.0-45.0"}}, {"uniqueid": "MTK0129:3EWIJTFFVPE37U06H5YJHKM9S39E0H", "current_trial": 64, "dateTime": 1509290220294, "trialdata": {"rt": -1, "stimulus": "<p id=\"stim\">PORTRAIT</p>", "key_press": -1, "type": "PRES_VIS", "word": "portrait", "wordID": 1110, "conditions": [18, 1200, "v", 18000], "trial": 1, "serialpos": 9, "trial_type": "single-stim", "trial_index": 64, "time_elapsed": 348941, "internal_node_id": "0.0-46.0"}}, {"uniqueid": "MTK0129:3EWIJTFFVPE37U06H5YJHKM9S39E0H", "current_trial": 65, "dateTime": 1509290222541, "trialdata": {"rt": -1, "stimulus": "<p id=\"stim\">LONDON</p>", "key_press": -1, "type": "PRES_VIS", "word": "london", "wordID": 842, "conditions": [18, 1200, "v", 18000], "trial": 1, "serialpos": 10, "trial_type": "single-stim", "trial_index": 65, "time_elapsed": 351188, "internal_node_id": "0.0-47.0"}}, {"uniqueid": "MTK0129:3EWIJTFFVPE37U06H5YJHKM9S39E0H", "current_trial": 66, "dateTime": 1509290224776, "trialdata": {"rt": -1, "stimulus": "<p id=\"stim\">QUARTER</p>", "key_press": -1, "type": "PRES_VIS", "word": "quarter", "wordID": 1147, "conditions": [18, 1200, "v", 18000], "trial": 1, "serialpos": 11, "trial_type": "single-stim", "trial_index": 66, "time_elapsed": 353422, "internal_node_id": "0.0-48.0"}}, {"uniqueid": "MTK0129:3EWIJTFFVPE37U06H5YJHKM9S39E0H", "current_trial": 67, "dateTime": 1509290226794, "trialdata": {"rt": -1, "stimulus": "<p id=\"stim\">BANKER</p>", "key_press": -1, "type": "PRES_VIS", "word": "banker", "wordID": 83, "conditions": [18, 1200, "v", 18000], "trial": 1, "serialpos": 12, "trial_type": "single-stim", "trial_index": 67, "time_elapsed": 355440, "internal_node_id": "0.0-49.0"}}, {"uniqueid": "MTK0129:3EWIJTFFVPE37U06H5YJHKM9S39E0H", "current_trial": 68, "dateTime": 1509290228833, "trialdata": {"rt": -1, "stimulus": "<p id=\"stim\">CAPTIVE</p>", "key_press": -1, "type": "PRES_VIS", "word": "captive", "wordID": 239, "conditions": [18, 1200, "v", 18000], "trial": 1, "serialpos": 13, "trial_type": "single-stim", "trial_index": 68, "time_elapsed": 357476, "internal_node_id": "0.0-50.0"}}, {"uniqueid": "MTK0129:3EWIJTFFVPE37U06H5YJHKM9S39E0H", "current_trial": 69, "dateTime": 1509290230864, "trialdata": {"rt": -1, "stimulus": "<p id=\"stim\">GALLON</p>", "key_press": -1, "type": "PRES_VIS", "word": "gallon", "wordID": 617, "conditions": [18, 1200, "v", 18000], "trial": 1, "serialpos": 14, "trial_type": "single-stim", "trial_index": 69, "time_elapsed": 359511, "internal_node_id": "0.0-51.0"}}, {"uniqueid": "MTK0129:3EWIJTFFVPE37U06H5YJHKM9S39E0H", "current_trial": 70, "dateTime": 1509290233093, "trialdata": {"rt": -1, "stimulus": "<p id=\"stim\">MARKER</p>", "key_press": -1, "type": "PRES_VIS", "word": "marker", "wordID": 869, "conditions": [18, 1200, "v", 18000], "trial": 1, "serialpos": 15, "trial_type": "single-stim", "trial_index": 70, "time_elapsed": 361740, "internal_node_id": "0.0-52.0"}}, {"uniqueid": "MTK0129:3EWIJTFFVPE37U06H5YJHKM9S39E0H", "current_trial": 71, "dateTime": 1509290235349, "trialdata": {"rt": -1, "stimulus": "<p id=\"stim\">PORK</p>", "key_press": -1, "type": "PRES_VIS", "word": "pork", "wordID": 1107, "conditions": [18, 1200, "v", 18000], "trial": 1, "serialpos": 16, "trial_type": "single-stim", "trial_index": 71, "time_elapsed": 363995, "internal_node_id": "0.0-53.0"}}, {"uniqueid": "MTK0129:3EWIJTFFVPE37U06H5YJHKM9S39E0H", "current_trial": 72, "dateTime": 1509290237368, "trialdata": {"rt": -1, "stimulus": "<p id=\"stim\">HAND</p>", "key_press": -1, "type": "PRES_VIS", "word": "hand", "wordID": 682, "conditions": [18, 1200, "v", 18000], "trial": 1, "serialpos": 17, "trial_type": "single-stim", "trial_index": 72, "time_elapsed": 366014, "internal_node_id": "0.0-54.0"}}, {"uniqueid": "MTK0129:3EWIJTFFVPE37U06H5YJHKM9S39E0H", "current_trial": 73, "dateTime": 1509290239535, "trialdata": {"rt": -1, "stimulus": "", "key_press": -1, "type": "PRE_RECALL_DELAY", "trial_type": "single-stim", "trial_index": 73, "time_elapsed": 368181, "internal_node_id": "0.0-55.0-0.0"}}, {"uniqueid": "MTK0129:3EWIJTFFVPE37U06H5YJHKM9S39E0H", "current_trial": 74, "dateTime": 1509290240038, "trialdata": {"rt": -1000, "stimulus": "/static/audio/400Hz.wav", "key_press": -1, "type": "PRE_RECALL_ALERT", "trial_type": "single-audio", "trial_index": 74, "time_elapsed": 368685, "internal_node_id": "0.0-56.0"}}, {"uniqueid": "MTK0129:3EWIJTFFVPE37U06H5YJHKM9S39E0H", "current_trial": 75, "dateTime": 1509290300061, "trialdata": {"rt": [4245, 5828, 7132, 7925, 8948, 12549, 18836], "recwords": ["badge", "velvet", "london", "hand", "pork", "hand", "gallon"], "type": "FREE_RECALL", "conditions": [18, 1200, "v", 18000], "trial": 1, "trial_type": "free-recall", "trial_index": 75, "time_elapsed": 428697, "internal_node_id": "0.0-57.0-0.0"}}, {"uniqueid": "MTK0129:3EWIJTFFVPE37U06H5YJHKM9S39E0H", "current_trial": 76, "dateTime": 1509290305243, "trialdata": {"rt": 3178, "key_press": 32, "type": "INSTRUCTIONS", "trial_type": "text", "trial_index": 76, "time_elapsed": 433890, "internal_node_id": "0.0-58.0"}}, {"uniqueid": "MTK0129:3EWIJTFFVPE37U06H5YJHKM9S39E0H", "current_trial": 77, "dateTime": 1509290318259, "trialdata": {"rt": [2876, 4948, 6604, 8732, 11532], "responses": ["21", "19", "13", "19", "16"], "num1": [6, 5, 2, 6, 7, 9], "num2": [9, 7, 8, 6, 5, 3], "num3": [6, 7, 3, 7, 4, 9], "type": "DISTRACTOR", "conditions": [24, 1600, "v", 12000], "trial": 2, "trial_type": "math-distractor", "trial_index": 77, "time_elapsed": 446905, "internal_node_id": "0.0-59.0"}}, {"uniqueid": "MTK0129:3EWIJTFFVPE37U06H5YJHKM9S39E0H", "current_trial": 78, "dateTime": 1509290321264, "trialdata": {"rt": -1, "stimulus": "<p id=\"stim\">10</p>", "key_press": -1, "trial_type": "single-stim", "trial_index": 78, "time_elapsed": 449911, "internal_node_id": "0.0-60.0-0.0"}}, {"uniqueid": "MTK0129:3EWIJTFFVPE37U06H5YJHKM9S39E0H", "current_trial": 79, "dateTime": 1509290322268, "trialdata": {"rt": -1, "stimulus": "<p id=\"stim\">9</p>", "key_press": -1, "trial_type": "single-stim", "trial_index": 79, "time_elapsed": 450915, "internal_node_id": "0.0-60.0-1.0"}}, {"uniqueid": "MTK0129:3EWIJTFFVPE37U06H5YJHKM9S39E0H", "current_trial": 80, "dateTime": 1509290323272, "trialdata": {"rt": -1, "stimulus": "<p id=\"stim\">8</p>", "key_press": -1, "trial_type": "single-stim", "trial_index": 80, "time_elapsed": 451919, "internal_node_id": "0.0-60.0-2.0"}}, {"uniqueid": "MTK0129:3EWIJTFFVPE37U06H5YJHKM9S39E0H", "current_trial": 81, "dateTime": 1509290324275, "trialdata": {"rt": -1, "stimulus": "<p id=\"stim\">7</p>", "key_press": -1, "trial_type": "single-stim", "trial_index": 81, "time_elapsed": 452922, "internal_node_id": "0.0-60.0-3.0"}}, {"uniqueid": "MTK0129:3EWIJTFFVPE37U06H5YJHKM9S39E0H", "current_trial": 82, "dateTime": 1509290325278, "trialdata": {"rt": -1, "stimulus": "<p id=\"stim\">6</p>", "key_press": -1, "trial_type": "single-stim", "trial_index": 82, "time_elapsed": 453924, "internal_node_id": "0.0-60.0-4.0"}}, {"uniqueid": "MTK0129:3EWIJTFFVPE37U06H5YJHKM9S39E0H", "current_trial": 83, "dateTime": 1509290326298, "trialdata": {"rt": -1, "stimulus": "<p id=\"stim\">5</p>", "key_press": -1, "trial_type": "single-stim", "trial_index": 83, "time_elapsed": 454945, "internal_node_id": "0.0-60.0-5.0"}}, {"uniqueid": "MTK0129:3EWIJTFFVPE37U06H5YJHKM9S39E0H", "current_trial": 84, "dateTime": 1509290327302, "trialdata": {"rt": -1, "stimulus": "<p id=\"stim\">4</p>", "key_press": -1, "trial_type": "single-stim", "trial_index": 84, "time_elapsed": 455949, "internal_node_id": "0.0-60.0-6.0"}}, {"uniqueid": "MTK0129:3EWIJTFFVPE37U06H5YJHKM9S39E0H", "current_trial": 85, "dateTime": 1509290328334, "trialdata": {"rt": -1, "stimulus": "<p id=\"stim\">3</p>", "key_press": -1, "trial_type": "single-stim", "trial_index": 85, "time_elapsed": 456981, "internal_node_id": "0.0-60.0-7.0"}}, {"uniqueid": "MTK0129:3EWIJTFFVPE37U06H5YJHKM9S39E0H", "current_trial": 86, "dateTime": 1509290329354, "trialdata": {"rt": -1, "stimulus": "<p id=\"stim\">2</p>", "key_press": -1, "trial_type": "single-stim", "trial_index": 86, "time_elapsed": 458001, "internal_node_id": "0.0-60.0-8.0"}}, {"uniqueid": "MTK0129:3EWIJTFFVPE37U06H5YJHKM9S39E0H", "current_trial": 87, "dateTime": 1509290330361, "trialdata": {"rt": -1, "stimulus": "<p id=\"stim\">1</p>", "key_press": -1, "trial_type": "single-stim", "trial_index": 87, "time_elapsed": 459008, "internal_node_id": "0.0-60.0-9.0"}}, {"uniqueid": "MTK0129:3EWIJTFFVPE37U06H5YJHKM9S39E0H", "current_trial": 88, "dateTime": 1509290331866, "trialdata": {"rt": -1, "stimulus": "<p id=\"stim\">+</p>", "key_press": -1, "type": "FIXATION", "trial_type": "single-stim", "trial_index": 88, "time_elapsed": 460512, "internal_node_id": "0.0-61.0-0.0"}}, {"uniqueid": "MTK0129:3EWIJTFFVPE37U06H5YJHKM9S39E0H", "current_trial": 89, "dateTime": 1509290333471, "trialdata": {"rt": -1, "stimulus": "<p id=\"stim\">LAKE</p>", "key_press": -1, "type": "PRES_VIS", "word": "lake", "wordID": 795, "conditions": [24, 1600, "v", 12000], "trial": 2, "serialpos": 0, "trial_type": "single-stim", "trial_index": 89, "time_elapsed": 462118, "internal_node_id": "0.0-62.0"}}, {"uniqueid": "MTK0129:3EWIJTFFVPE37U06H5YJHKM9S39E0H", "current_trial": 90, "dateTime": 1509290336060, "trialdata": {"rt": -1, "stimulus": "<p id=\"stim\">COUNTY</p>", "key_press": -1, "type": "PRES_VIS", "word": "county", "wordID": 388, "conditions": [24, 1600, "v", 12000], "trial": 2, "serialpos": 1, "trial_type": "single-stim", "trial_index": 90, "time_elapsed": 464707, "internal_node_id": "0.0-63.0"}}, {"uniqueid": "MTK0129:3EWIJTFFVPE37U06H5YJHKM9S39E0H", "current_trial": 91, "dateTime": 1509290338799, "trialdata": {"rt": -1, "stimulus": "<p id=\"stim\">BARREL</p>", "key_press": -1, "type": "PRES_VIS", "word": "barrel", "wordID": 90, "conditions": [24, 1600, "v", 12000], "trial": 2, "serialpos": 2, "trial_type": "single-stim", "trial_index": 91, "time_elapsed": 467446, "internal_node_id": "0.0-64.0"}}, {"uniqueid": "MTK0129:3EWIJTFFVPE37U06H5YJHKM9S39E0H", "current_trial": 92, "dateTime": 1509290341282, "trialdata": {"rt": -1, "stimulus": "<p id=\"stim\">POISON</p>", "key_press": -1, "type": "PRES_VIS", "word": "poison", "wordID": 1095, "conditions": [24, 1600, "v", 12000], "trial": 2, "serialpos": 3, "trial_type": "single-stim", "trial_index": 92, "time_elapsed": 469929, "internal_node_id": "0.0-65.0"}}, {"uniqueid": "MTK0129:3EWIJTFFVPE37U06H5YJHKM9S39E0H", "current_trial": 93, "dateTime": 1509290343934, "trialdata": {"rt": -1, "stimulus": "<p id=\"stim\">BUG</p>", "key_press": -1, "type": "PRES_VIS", "word": "bug", "wordID": 186, "conditions": [24, 1600, "v", 12000], "trial": 2, "serialpos": 4, "trial_type": "single-stim", "trial_index": 93, "time_elapsed": 472581, "internal_node_id": "0.0-66.0"}}, {"uniqueid": "MTK0129:3EWIJTFFVPE37U06H5YJHKM9S39E0H", "current_trial": 94, "dateTime": 1509290346500, "trialdata": {"rt": -1, "stimulus": "<p id=\"stim\">CLOTHES</p>", "key_press": -1, "type": "PRES_VIS", "word": "clothes", "wordID": 326, "conditions": [24, 1600, "v", 12000], "trial": 2, "serialpos": 5, "trial_type": "single-stim", "trial_index": 94, "time_elapsed": 475147, "internal_node_id": "0.0-67.0"}}, {"uniqueid": "MTK0129:3EWIJTFFVPE37U06H5YJHKM9S39E0H", "current_trial": 95, "dateTime": 1509290349063, "trialdata": {"rt": -1, "stimulus": "<p id=\"stim\">FLOWER</p>", "key_press": -1, "type": "PRES_VIS", "word": "flower", "wordID": 583, "conditions": [24, 1600, "v", 12000], "trial": 2, "serialpos": 6, "trial_type": "single-stim", "trial_index": 95, "time_elapsed": 477710, "internal_node_id": "0.0-68.0"}}, {"uniqueid": "MTK0129:3EWIJTFFVPE37U06H5YJHKM9S39E0H", "current_trial": 96, "dateTime": 1509290351653, "trialdata": {"rt": -1, "stimulus": "<p id=\"stim\">GARDEN</p>", "key_press": -1, "type": "PRES_VIS", "word": "garden", "wordID": 622, "conditions": [24, 1600, "v", 12000], "trial": 2, "serialpos": 7, "trial_type": "single-stim", "trial_index": 96, "time_elapsed": 480300, "internal_node_id": "0.0-69.0"}}, {"uniqueid": "MTK0129:3EWIJTFFVPE37U06H5YJHKM9S39E0H", "current_trial": 97, "dateTime": 1509290354173, "trialdata": {"rt": -1, "stimulus": "<p id=\"stim\">DRAGON</p>", "key_press": -1, "type": "PRES_VIS", "word": "dragon", "wordID": 491, "conditions": [24, 1600, "v", 12000], "trial": 2, "serialpos": 8, "trial_type": "single-stim", "trial_index": 97, "time_elapsed": 482820, "internal_node_id": "0.0-70.0"}}, {"uniqueid": "MTK0129:3EWIJTFFVPE37U06H5YJHKM9S39E0H", "current_trial": 98, "dateTime": 1509290356667, "trialdata": {"rt": -1, "stimulus": "<p id=\"stim\">SLOPE</p>", "key_press": -1, "type": "PRES_VIS", "word": "slope", "wordID": 1327, "conditions": [24, 1600, "v", 12000], "trial": 2, "serialpos": 9, "trial_type": "single-stim", "trial_index": 98, "time_elapsed": 485314, "internal_node_id": "0.0-71.0"}}, {"uniqueid": "MTK0129:3EWIJTFFVPE37U06H5YJHKM9S39E0H", "current_trial": 99, "dateTime": 1509290359134, "trialdata": {"rt": -1, "stimulus": "<p id=\"stim\">SHORTS</p>", "key_press": -1, "type": "PRES_VIS", "word": "shorts", "wordID": 1292, "conditions": [24, 1600, "v", 12000], "trial": 2, "serialpos": 10, "trial_type": "single-stim", "trial_index": 99, "time_elapsed": 487780, "internal_node_id": "0.0-72.0"}}, {"uniqueid": "MTK0129:3EWIJTFFVPE37U06H5YJHKM9S39E0H", "current_trial": 100, "dateTime": 1509290361817, "trialdata": {"rt": -1, "stimulus": "<p id=\"stim\">CREATURE</p>", "key_press": -1, "type": "PRES_VIS", "word": "creature", "wordID": 402, "conditions": [24, 1600, "v", 12000], "trial": 2, "serialpos": 11, "trial_type": "single-stim", "trial_index": 100, "time_elapsed": 490464, "internal_node_id": "0.0-73.0"}}, {"uniqueid": "MTK0129:3EWIJTFFVPE37U06H5YJHKM9S39E0H", "current_trial": 101, "dateTime": 1509290364456, "trialdata": {"rt": -1, "stimulus": "<p id=\"stim\">CHIPMUNK</p>", "key_press": -1, "type": "PRES_VIS", "word": "chipmunk", "wordID": 303, "conditions": [24, 1600, "v", 12000], "trial": 2, "serialpos": 12, "trial_type": "single-stim", "trial_index": 101, "time_elapsed": 493102, "internal_node_id": "0.0-74.0"}}, {"uniqueid": "MTK0129:3EWIJTFFVPE37U06H5YJHKM9S39E0H", "current_trial": 102, "dateTime": 1509290366990, "trialdata": {"rt": -1, "stimulus": "<p id=\"stim\">GLOBE</p>", "key_press": -1, "type": "PRES_VIS", "word": "globe", "wordID": 640, "conditions": [24, 1600, "v", 12000], "trial": 2, "serialpos": 13, "trial_type": "single-stim", "trial_index": 102, "time_elapsed": 495637, "internal_node_id": "0.0-75.0"}}, {"uniqueid": "MTK0129:3EWIJTFFVPE37U06H5YJHKM9S39E0H", "current_trial": 103, "dateTime": 1509290369406, "trialdata": {"rt": -1, "stimulus": "<p id=\"stim\">WORLD</p>", "key_press": -1, "type": "PRES_VIS", "word": "world", "wordID": 1621, "conditions": [24, 1600, "v", 12000], "trial": 2, "serialpos": 14, "trial_type": "single-stim", "trial_index": 103, "time_elapsed": 498053, "internal_node_id": "0.0-76.0"}}, {"uniqueid": "MTK0129:3EWIJTFFVPE37U06H5YJHKM9S39E0H", "current_trial": 104, "dateTime": 1509290372003, "trialdata": {"rt": -1, "stimulus": "<p id=\"stim\">ROCKET</p>", "key_press": -1, "type": "PRES_VIS", "word": "rocket", "wordID": 1201, "conditions": [24, 1600, "v", 12000], "trial": 2, "serialpos": 15, "trial_type": "single-stim", "trial_index": 104, "time_elapsed": 500650, "internal_node_id": "0.0-77.0"}}, {"uniqueid": "MTK0129:3EWIJTFFVPE37U06H5YJHKM9S39E0H", "current_trial": 105, "dateTime": 1509290374749, "trialdata": {"rt": -1, "stimulus": "<p id=\"stim\">BEAVER</p>", "key_press": -1, "type": "PRES_VIS", "word": "beaver", "wordID": 108, "conditions": [24, 1600, "v", 12000], "trial": 2, "serialpos": 16, "trial_type": "single-stim", "trial_index": 105, "time_elapsed": 503395, "internal_node_id": "0.0-78.0"}}, {"uniqueid": "MTK0129:3EWIJTFFVPE37U06H5YJHKM9S39E0H", "current_trial": 106, "dateTime": 1509290377223, "trialdata": {"rt": -1, "stimulus": "<p id=\"stim\">SILK</p>", "key_press": -1, "type": "PRES_VIS", "word": "silk", "wordID": 1306, "conditions": [24, 1600, "v", 12000], "trial": 2, "serialpos": 17, "trial_type": "single-stim", "trial_index": 106, "time_elapsed": 505869, "internal_node_id": "0.0-79.0"}}, {"uniqueid": "MTK0129:3EWIJTFFVPE37U06H5YJHKM9S39E0H", "current_trial": 107, "dateTime": 1509290379957, "trialdata": {"rt": -1, "stimulus": "<p id=\"stim\">GOBLIN</p>", "key_press": -1, "type": "PRES_VIS", "word": "goblin", "wordID": 644, "conditions": [24, 1600, "v", 12000], "trial": 2, "serialpos": 18, "trial_type": "single-stim", "trial_index": 107, "time_elapsed": 508604, "internal_node_id": "0.0-80.0"}}, {"uniqueid": "MTK0129:3EWIJTFFVPE37U06H5YJHKM9S39E0H", "current_trial": 108, "dateTime": 1509290382517, "trialdata": {"rt": -1, "stimulus": "<p id=\"stim\">SCARF</p>", "key_press": -1, "type": "PRES_VIS", "word": "scarf", "wordID": 1245, "conditions": [24, 1600, "v", 12000], "trial": 2, "serialpos": 19, "trial_type": "single-stim", "trial_index": 108, "time_elapsed": 511164, "internal_node_id": "0.0-81.0"}}, {"uniqueid": "MTK0129:3EWIJTFFVPE37U06H5YJHKM9S39E0H", "current_trial": 109, "dateTime": 1509290384927, "trialdata": {"rt": -1, "stimulus": "<p id=\"stim\">LAPEL</p>", "key_press": -1, "type": "PRES_VIS", "word": "lapel", "wordID": 799, "conditions": [24, 1600, "v", 12000], "trial": 2, "serialpos": 20, "trial_type": "single-stim", "trial_index": 109, "time_elapsed": 513574, "internal_node_id": "0.0-82.0"}}, {"uniqueid": "MTK0129:3EWIJTFFVPE37U06H5YJHKM9S39E0H", "current_trial": 110, "dateTime": 1509290387688, "trialdata": {"rt": -1, "stimulus": "<p id=\"stim\">APRON</p>", "key_press": -1, "type": "PRES_VIS", "word": "apron", "wordID": 34, "conditions": [24, 1600, "v", 12000], "trial": 2, "serialpos": 21, "trial_type": "single-stim", "trial_index": 110, "time_elapsed": 516334, "internal_node_id": "0.0-83.0"}}, {"uniqueid": "MTK0129:3EWIJTFFVPE37U06H5YJHKM9S39E0H", "current_trial": 111, "dateTime": 1509290390095, "trialdata": {"rt": -1, "stimulus": "<p id=\"stim\">SUBWAY</p>", "key_press": -1, "type": "PRES_VIS", "word": "subway", "wordID": 1399, "conditions": [24, 1600, "v", 12000], "trial": 2, "serialpos": 22, "trial_type": "single-stim", "trial_index": 111, "time_elapsed": 518741, "internal_node_id": "0.0-84.0"}}, {"uniqueid": "MTK0129:3EWIJTFFVPE37U06H5YJHKM9S39E0H", "current_trial": 112, "dateTime": 1509290392546, "trialdata": {"rt": -1, "stimulus": "<p id=\"stim\">SHELTER</p>", "key_press": -1, "type": "PRES_VIS", "word": "shelter", "wordID": 1281, "conditions": [24, 1600, "v", 12000], "trial": 2, "serialpos": 23, "trial_type": "single-stim", "trial_index": 112, "time_elapsed": 521191, "internal_node_id": "0.0-85.0"}}, {"uniqueid": "MTK0129:3EWIJTFFVPE37U06H5YJHKM9S39E0H", "current_trial": 113, "dateTime": 1509290394882, "trialdata": {"rt": -1, "stimulus": "", "key_press": -1, "type": "PRE_RECALL_DELAY", "trial_type": "single-stim", "trial_index": 113, "time_elapsed": 523529, "internal_node_id": "0.0-86.0-0.0"}}, {"uniqueid": "MTK0129:3EWIJTFFVPE37U06H5YJHKM9S39E0H", "current_trial": 114, "dateTime": 1509290395398, "trialdata": {"rt": -1000, "stimulus": "/static/audio/400Hz.wav", "key_press": -1, "type": "PRE_RECALL_ALERT", "trial_type": "single-audio", "trial_index": 114, "time_elapsed": 524045, "internal_node_id": "0.0-87.0"}}, {"uniqueid": "MTK0129:3EWIJTFFVPE37U06H5YJHKM9S39E0H", "current_trial": 115, "dateTime": 1509290455429, "trialdata": {"rt": [5036, 8067, 9764, 14189, 16250, 18109, 21098, 27722, 29235, 31617, 35363], "recwords": ["subway", "shelter", "lake", "country", "barrel", "flower", "garden", "clothes", "globe", "world", "poison"], "type": "FREE_RECALL", "conditions": [24, 1600, "v", 12000], "trial": 2, "trial_type": "free-recall", "trial_index": 115, "time_elapsed": 584055, "internal_node_id": "0.0-88.0-0.0"}}, {"uniqueid": "MTK0129:3EWIJTFFVPE37U06H5YJHKM9S39E0H", "current_trial": 116, "dateTime": 1509290461400, "trialdata": {"rt": 3967, "key_press": 32, "type": "INSTRUCTIONS", "trial_type": "text", "trial_index": 116, "time_elapsed": 590047, "internal_node_id": "0.0-89.0"}}, {"uniqueid": "MTK0129:3EWIJTFFVPE37U06H5YJHKM9S39E0H", "current_trial": 117, "dateTime": 1509290487415, "trialdata": {"rt": [2335, 3886, 6670, 8607, 10110, 11775, 13479, 14918, 17743, 20286, 22039, 23847], "responses": ["11", "21", "21", "9", "12", "11", "13", "5", "20", "15", "13", "11"], "num1": [5, 7, 5, 4, 5, 1, 1, 1, 4, 2, 1, 7, 6], "num2": [5, 7, 8, 2, 5, 7, 6, 1, 9, 8, 4, 2, 8], "num3": [1, 7, 8, 3, 2, 3, 6, 3, 7, 5, 8, 2, 7], "type": "DISTRACTOR", "conditions": [12, 800, "v", 24000], "trial": 3, "trial_type": "math-distractor", "trial_index": 117, "time_elapsed": 616061, "internal_node_id": "0.0-90.0"}}, {"uniqueid": "MTK0129:3EWIJTFFVPE37U06H5YJHKM9S39E0H", "current_trial": 118, "dateTime": 1509290490420, "trialdata": {"rt": -1, "stimulus": "<p id=\"stim\">10</p>", "key_press": -1, "trial_type": "single-stim", "trial_index": 118, "time_elapsed": 619066, "internal_node_id": "0.0-91.0-0.0"}}, {"uniqueid": "MTK0129:3EWIJTFFVPE37U06H5YJHKM9S39E0H", "current_trial": 119, "dateTime": 1509290491424, "trialdata": {"rt": -1, "stimulus": "<p id=\"stim\">9</p>", "key_press": -1, "trial_type": "single-stim", "trial_index": 119, "time_elapsed": 620071, "internal_node_id": "0.0-91.0-1.0"}}, {"uniqueid": "MTK0129:3EWIJTFFVPE37U06H5YJHKM9S39E0H", "current_trial": 120, "dateTime": 1509290492429, "trialdata": {"rt": -1, "stimulus": "<p id=\"stim\">8</p>", "key_press": -1, "trial_type": "single-stim", "trial_index": 120, "time_elapsed": 621075, "internal_node_id": "0.0-91.0-2.0"}}, {"uniqueid": "MTK0129:3EWIJTFFVPE37U06H5YJHKM9S39E0H", "current_trial": 121, "dateTime": 1509290493434, "trialdata": {"rt": -1, "stimulus": "<p id=\"stim\">7</p>", "key_press": -1, "trial_type": "single-stim", "trial_index": 121, "time_elapsed": 622080, "internal_node_id": "0.0-91.0-3.0"}}, {"uniqueid": "MTK0129:3EWIJTFFVPE37U06H5YJHKM9S39E0H", "current_trial": 122, "dateTime": 1509290494437, "trialdata": {"rt": -1, "stimulus": "<p id=\"stim\">6</p>", "key_press": -1, "trial_type": "single-stim", "trial_index": 122, "time_elapsed": 623084, "internal_node_id": "0.0-91.0-4.0"}}, {"uniqueid": "MTK0129:3EWIJTFFVPE37U06H5YJHKM9S39E0H", "current_trial": 123, "dateTime": 1509290495442, "trialdata": {"rt": -1, "stimulus": "<p id=\"stim\">5</p>", "key_press": -1, "trial_type": "single-stim", "trial_index": 123, "time_elapsed": 624088, "internal_node_id": "0.0-91.0-5.0"}}, {"uniqueid": "MTK0129:3EWIJTFFVPE37U06H5YJHKM9S39E0H", "current_trial": 124, "dateTime": 1509290496446, "trialdata": {"rt": -1, "stimulus": "<p id=\"stim\">4</p>", "key_press": -1, "trial_type": "single-stim", "trial_index": 124, "time_elapsed": 625092, "internal_node_id": "0.0-91.0-6.0"}}, {"uniqueid": "MTK0129:3EWIJTFFVPE37U06H5YJHKM9S39E0H", "current_trial": 125, "dateTime": 1509290497451, "trialdata": {"rt": -1, "stimulus": "<p id=\"stim\">3</p>", "key_press": -1, "trial_type": "single-stim", "trial_index": 125, "time_elapsed": 626098, "internal_node_id": "0.0-91.0-7.0"}}, {"uniqueid": "MTK0129:3EWIJTFFVPE37U06H5YJHKM9S39E0H", "current_trial": 126, "dateTime": 1509290498454, "trialdata": {"rt": -1, "stimulus": "<p id=\"stim\">2</p>", "key_press": -1, "trial_type": "single-stim", "trial_index": 126, "time_elapsed": 627101, "internal_node_id": "0.0-91.0-8.0"}}, {"uniqueid": "MTK0129:3EWIJTFFVPE37U06H5YJHKM9S39E0H", "current_trial": 127, "dateTime": 1509290499458, "trialdata": {"rt": -1, "stimulus": "<p id=\"stim\">1</p>", "key_press": -1, "trial_type": "single-stim", "trial_index": 127, "time_elapsed": 628105, "internal_node_id": "0.0-91.0-9.0"}}, {"uniqueid": "MTK0129:3EWIJTFFVPE37U06H5YJHKM9S39E0H", "current_trial": 128, "dateTime": 1509290500964, "trialdata": {"rt": -1, "stimulus": "<p id=\"stim\">+</p>", "key_press": -1, "type": "FIXATION", "trial_type": "single-stim", "trial_index": 128, "time_elapsed": 629611, "internal_node_id": "0.0-92.0-0.0"}}, {"uniqueid": "MTK0129:3EWIJTFFVPE37U06H5YJHKM9S39E0H", "current_trial": 129, "dateTime": 1509290501769, "trialdata": {"rt": -1, "stimulus": "<p id=\"stim\">LACE</p>", "key_press": -1, "type": "PRES_VIS", "word": "lace", "wordID": 791, "conditions": [12, 800, "v", 24000], "trial": 3, "serialpos": 0, "trial_type": "single-stim", "trial_index": 129, "time_elapsed": 630416, "internal_node_id": "0.0-93.0"}}, {"uniqueid": "MTK0129:3EWIJTFFVPE37U06H5YJHKM9S39E0H", "current_trial": 130, "dateTime": 1509290503683, "trialdata": {"rt": -1, "stimulus": "<p id=\"stim\">CARRIAGE</p>", "key_press": -1, "type": "PRES_VIS", "word": "carriage", "wordID": 247, "conditions": [12, 800, "v", 24000], "trial": 3, "serialpos": 1, "trial_type": "single-stim", "trial_index": 130, "time_elapsed": 632330, "internal_node_id": "0.0-94.0"}}, {"uniqueid": "MTK0129:3EWIJTFFVPE37U06H5YJHKM9S39E0H", "current_trial": 131, "dateTime": 1509290505291, "trialdata": {"rt": -1, "stimulus": "<p id=\"stim\">ONION</p>", "key_press": -1, "type": "PRES_VIS", "word": "onion", "wordID": 976, "conditions": [12, 800, "v", 24000], "trial": 3, "serialpos": 2, "trial_type": "single-stim", "trial_index": 131, "time_elapsed": 633938, "internal_node_id": "0.0-95.0"}}, {"uniqueid": "MTK0129:3EWIJTFFVPE37U06H5YJHKM9S39E0H", "current_trial": 132, "dateTime": 1509290507030, "trialdata": {"rt": -1, "stimulus": "<p id=\"stim\">DIVER</p>", "key_press": -1, "type": "PRES_VIS", "word": "diver", "wordID": 475, "conditions": [12, 800, "v", 24000], "trial": 3, "serialpos": 3, "trial_type": "single-stim", "trial_index": 132, "time_elapsed": 635677, "internal_node_id": "0.0-96.0"}}, {"uniqueid": "MTK0129:3EWIJTFFVPE37U06H5YJHKM9S39E0H", "current_trial": 133, "dateTime": 1509290508934, "trialdata": {"rt": -1, "stimulus": "<p id=\"stim\">KIDNEY</p>", "key_press": -1, "type": "PRES_VIS", "word": "kidney", "wordID": 775, "conditions": [12, 800, "v", 24000], "trial": 3, "serialpos": 4, "trial_type": "single-stim", "trial_index": 133, "time_elapsed": 637581, "internal_node_id": "0.0-97.0"}}, {"uniqueid": "MTK0129:3EWIJTFFVPE37U06H5YJHKM9S39E0H", "current_trial": 134, "dateTime": 1509290510704, "trialdata": {"rt": -1, "stimulus": "<p id=\"stim\">SPOOL</p>", "key_press": -1, "type": "PRES_VIS", "word": "spool", "wordID": 1355, "conditions": [12, 800, "v", 24000], "trial": 3, "serialpos": 5, "trial_type": "single-stim", "trial_index": 134, "time_elapsed": 639351, "internal_node_id": "0.0-98.0"}}, {"uniqueid": "MTK0129:3EWIJTFFVPE37U06H5YJHKM9S39E0H", "current_trial": 135, "dateTime": 1509290512485, "trialdata": {"rt": -1, "stimulus": "<p id=\"stim\">CLAM</p>", "key_press": -1, "type": "PRES_VIS", "word": "clam", "wordID": 314, "conditions": [12, 800, "v", 24000], "trial": 3, "serialpos": 6, "trial_type": "single-stim", "trial_index": 135, "time_elapsed": 641131, "internal_node_id": "0.0-99.0"}}, {"uniqueid": "MTK0129:3EWIJTFFVPE37U06H5YJHKM9S39E0H", "current_trial": 136, "dateTime": 1509290514318, "trialdata": {"rt": -1, "stimulus": "<p id=\"stim\">POWDER</p>", "key_press": -1, "type": "PRES_VIS", "word": "powder", "wordID": 1116, "conditions": [12, 800, "v", 24000], "trial": 3, "serialpos": 7, "trial_type": "single-stim", "trial_index": 136, "time_elapsed": 642965, "internal_node_id": "0.0-100.0"}}, {"uniqueid": "MTK0129:3EWIJTFFVPE37U06H5YJHKM9S39E0H", "current_trial": 137, "dateTime": 1509290516095, "trialdata": {"rt": -1, "stimulus": "<p id=\"stim\">OUTFIT</p>", "key_press": -1, "type": "PRES_VIS", "word": "outfit", "wordID": 987, "conditions": [12, 800, "v", 24000], "trial": 3, "serialpos": 8, "trial_type": "single-stim", "trial_index": 137, "time_elapsed": 644741, "internal_node_id": "0.0-101.0"}}, {"uniqueid": "MTK0129:3EWIJTFFVPE37U06H5YJHKM9S39E0H", "current_trial": 138, "dateTime": 1509290518053, "trialdata": {"rt": -1, "stimulus": "<p id=\"stim\">APPLE</p>", "key_press": -1, "type": "PRES_VIS", "word": "apple", "wordID": 32, "conditions": [12, 800, "v", 24000], "trial": 3, "serialpos": 9, "trial_type": "single-stim", "trial_index": 138, "time_elapsed": 646700, "internal_node_id": "0.0-102.0"}}, {"uniqueid": "MTK0129:3EWIJTFFVPE37U06H5YJHKM9S39E0H", "current_trial": 139, "dateTime": 1509290519776, "trialdata": {"rt": -1, "stimulus": "<p id=\"stim\">PEACH</p>", "key_press": -1, "type": "PRES_VIS", "word": "peach", "wordID": 1030, "conditions": [12, 800, "v", 24000], "trial": 3, "serialpos": 10, "trial_type": "single-stim", "trial_index": 139, "time_elapsed": 648423, "internal_node_id": "0.0-103.0"}}, {"uniqueid": "MTK0129:3EWIJTFFVPE37U06H5YJHKM9S39E0H", "current_trial": 140, "dateTime": 1509290521416, "trialdata": {"rt": -1, "stimulus": "<p id=\"stim\">LIVER</p>", "key_press": -1, "type": "PRES_VIS", "word": "liver", "wordID": 832, "conditions": [12, 800, "v", 24000], "trial": 3, "serialpos": 11, "trial_type": "single-stim", "trial_index": 140, "time_elapsed": 650062, "internal_node_id": "0.0-104.0"}}, {"uniqueid": "MTK0129:3EWIJTFFVPE37U06H5YJHKM9S39E0H", "current_trial": 141, "dateTime": 1509290523567, "trialdata": {"rt": -1, "stimulus": "", "key_press": -1, "type": "PRE_RECALL_DELAY", "trial_type": "single-stim", "trial_index": 141, "time_elapsed": 652214, "internal_node_id": "0.0-105.0-0.0"}}, {"uniqueid": "MTK0129:3EWIJTFFVPE37U06H5YJHKM9S39E0H", "current_trial": 142, "dateTime": 1509290524071, "trialdata": {"rt": -1000, "stimulus": "/static/audio/400Hz.wav", "key_press": -1, "type": "PRE_RECALL_ALERT", "trial_type": "single-audio", "trial_index": 142, "time_elapsed": 652718, "internal_node_id": "0.0-106.0"}}, {"uniqueid": "MTK0129:3EWIJTFFVPE37U06H5YJHKM9S39E0H", "current_trial": 143, "dateTime": 1509290584101, "trialdata": {"rt": [4981, 8374, 12070, 19750], "recwords": ["lace", "appl", "peach", "onion"], "type": "FREE_RECALL", "conditions": [12, 800, "v", 24000], "trial": 3, "trial_type": "free-recall", "trial_index": 143, "time_elapsed": 712725, "internal_node_id": "0.0-107.0-0.0"}}, {"uniqueid": "MTK0129:3EWIJTFFVPE37U06H5YJHKM9S39E0H", "current_trial": 144, "dateTime": 1509290593710, "trialdata": {"rt": 7604, "key_press": 32, "type": "INSTRUCTIONS", "trial_type": "text", "trial_index": 144, "time_elapsed": 722355, "internal_node_id": "0.0-108.0"}}, {"uniqueid": "MTK0129:3EWIJTFFVPE37U06H5YJHKM9S39E0H", "current_trial": 145, "dateTime": 1509290619724, "trialdata": {"rt": [2754, 5817, 8586, 10842, 12450, 14658, 16458, 18282, 20338, 22266], "responses": ["24", "22", "21", "16", "11", "21", "14", "22", "14", "12"], "num1": [9, 9, 5, 3, 1, 9, 8, 5, 1, 4, 1], "num2": [6, 8, 8, 8, 4, 3, 1, 8, 5, 6, 1], "num3": [9, 5, 9, 5, 6, 9, 5, 9, 8, 2, 2], "type": "DISTRACTOR", "conditions": [24, 800, "v", 24000], "trial": 4, "trial_type": "math-distractor", "trial_index": 145, "time_elapsed": 748370, "internal_node_id": "0.0-109.0"}}, {"uniqueid": "MTK0129:3EWIJTFFVPE37U06H5YJHKM9S39E0H", "current_trial": 146, "dateTime": 1509290622729, "trialdata": {"rt": -1, "stimulus": "<p id=\"stim\">10</p>", "key_press": -1, "trial_type": "single-stim", "trial_index": 146, "time_elapsed": 751376, "internal_node_id": "0.0-110.0-0.0"}}, {"uniqueid": "MTK0129:3EWIJTFFVPE37U06H5YJHKM9S39E0H", "current_trial": 147, "dateTime": 1509290623734, "trialdata": {"rt": -1, "stimulus": "<p id=\"stim\">9</p>", "key_press": -1, "trial_type": "single-stim", "trial_index": 147, "time_elapsed": 752380, "internal_node_id": "0.0-110.0-1.0"}}, {"uniqueid": "MTK0129:3EWIJTFFVPE37U06H5YJHKM9S39E0H", "current_trial": 148, "dateTime": 1509290624738, "trialdata": {"rt": -1, "stimulus": "<p id=\"stim\">8</p>", "key_press": -1, "trial_type": "single-stim", "trial_index": 148, "time_elapsed": 753385, "internal_node_id": "0.0-110.0-2.0"}}, {"uniqueid": "MTK0129:3EWIJTFFVPE37U06H5YJHKM9S39E0H", "current_trial": 149, "dateTime": 1509290625743, "trialdata": {"rt": -1, "stimulus": "<p id=\"stim\">7</p>", "key_press": -1, "trial_type": "single-stim", "trial_index": 149, "time_elapsed": 754389, "internal_node_id": "0.0-110.0-3.0"}}, {"uniqueid": "MTK0129:3EWIJTFFVPE37U06H5YJHKM9S39E0H", "current_trial": 150, "dateTime": 1509290626748, "trialdata": {"rt": -1, "stimulus": "<p id=\"stim\">6</p>", "key_press": -1, "trial_type": "single-stim", "trial_index": 150, "time_elapsed": 755395, "internal_node_id": "0.0-110.0-4.0"}}, {"uniqueid": "MTK0129:3EWIJTFFVPE37U06H5YJHKM9S39E0H", "current_trial": 151, "dateTime": 1509290627752, "trialdata": {"rt": -1, "stimulus": "<p id=\"stim\">5</p>", "key_press": -1, "trial_type": "single-stim", "trial_index": 151, "time_elapsed": 756399, "internal_node_id": "0.0-110.0-5.0"}}, {"uniqueid": "MTK0129:3EWIJTFFVPE37U06H5YJHKM9S39E0H", "current_trial": 152, "dateTime": 1509290628758, "trialdata": {"rt": -1, "stimulus": "<p id=\"stim\">4</p>", "key_press": -1, "trial_type": "single-stim", "trial_index": 152, "time_elapsed": 757405, "internal_node_id": "0.0-110.0-6.0"}}, {"uniqueid": "MTK0129:3EWIJTFFVPE37U06H5YJHKM9S39E0H", "current_trial": 153, "dateTime": 1509290629763, "trialdata": {"rt": -1, "stimulus": "<p id=\"stim\">3</p>", "key_press": -1, "trial_type": "single-stim", "trial_index": 153, "time_elapsed": 758410, "internal_node_id": "0.0-110.0-7.0"}}, {"uniqueid": "MTK0129:3EWIJTFFVPE37U06H5YJHKM9S39E0H", "current_trial": 154, "dateTime": 1509290630769, "trialdata": {"rt": -1, "stimulus": "<p id=\"stim\">2</p>", "key_press": -1, "trial_type": "single-stim", "trial_index": 154, "time_elapsed": 759416, "internal_node_id": "0.0-110.0-8.0"}}, {"uniqueid": "MTK0129:3EWIJTFFVPE37U06H5YJHKM9S39E0H", "current_trial": 155, "dateTime": 1509290631773, "trialdata": {"rt": -1, "stimulus": "<p id=\"stim\">1</p>", "key_press": -1, "trial_type": "single-stim", "trial_index": 155, "time_elapsed": 760420, "internal_node_id": "0.0-110.0-9.0"}}, {"uniqueid": "MTK0129:3EWIJTFFVPE37U06H5YJHKM9S39E0H", "current_trial": 156, "dateTime": 1509290633276, "trialdata": {"rt": -1, "stimulus": "<p id=\"stim\">+</p>", "key_press": -1, "type": "FIXATION", "trial_type": "single-stim", "trial_index": 156, "time_elapsed": 761923, "internal_node_id": "0.0-111.0-0.0"}}, {"uniqueid": "MTK0129:3EWIJTFFVPE37U06H5YJHKM9S39E0H", "current_trial": 157, "dateTime": 1509290634080, "trialdata": {"rt": -1, "stimulus": "<p id=\"stim\">PIMPLE</p>", "key_press": -1, "type": "PRES_VIS", "word": "pimple", "wordID": 1070, "conditions": [24, 800, "v", 24000], "trial": 4, "serialpos": 0, "trial_type": "single-stim", "trial_index": 157, "time_elapsed": 762727, "internal_node_id": "0.0-112.0"}}, {"uniqueid": "MTK0129:3EWIJTFFVPE37U06H5YJHKM9S39E0H", "current_trial": 158, "dateTime": 1509290635863, "trialdata": {"rt": -1, "stimulus": "<p id=\"stim\">HANDBAG</p>", "key_press": -1, "type": "PRES_VIS", "word": "handbag", "wordID": 683, "conditions": [24, 800, "v", 24000], "trial": 4, "serialpos": 1, "trial_type": "single-stim", "trial_index": 158, "time_elapsed": 764510, "internal_node_id": "0.0-113.0"}}, {"uniqueid": "MTK0129:3EWIJTFFVPE37U06H5YJHKM9S39E0H", "current_trial": 159, "dateTime": 1509290637615, "trialdata": {"rt": -1, "stimulus": "<p id=\"stim\">GHETTO</p>", "key_press": -1, "type": "PRES_VIS", "word": "ghetto", "wordID": 632, "conditions": [24, 800, "v", 24000], "trial": 4, "serialpos": 2, "trial_type": "single-stim", "trial_index": 159, "time_elapsed": 766262, "internal_node_id": "0.0-114.0"}}, {"uniqueid": "MTK0129:3EWIJTFFVPE37U06H5YJHKM9S39E0H", "current_trial": 160, "dateTime": 1509290639336, "trialdata": {"rt": -1, "stimulus": "<p id=\"stim\">BARLEY</p>", "key_press": -1, "type": "PRES_VIS", "word": "barley", "wordID": 87, "conditions": [24, 800, "v", 24000], "trial": 4, "serialpos": 3, "trial_type": "single-stim", "trial_index": 160, "time_elapsed": 767982, "internal_node_id": "0.0-115.0"}}, {"uniqueid": "MTK0129:3EWIJTFFVPE37U06H5YJHKM9S39E0H", "current_trial": 161, "dateTime": 1509290641072, "trialdata": {"rt": -1, "stimulus": "<p id=\"stim\">STUDENT</p>", "key_press": -1, "type": "PRES_VIS", "word": "student", "wordID": 1394, "conditions": [24, 800, "v", 24000], "trial": 4, "serialpos": 4, "trial_type": "single-stim", "trial_index": 161, "time_elapsed": 769719, "internal_node_id": "0.0-116.0"}}, {"uniqueid": "MTK0129:3EWIJTFFVPE37U06H5YJHKM9S39E0H", "current_trial": 162, "dateTime": 1509290642898, "trialdata": {"rt": -1, "stimulus": "<p id=\"stim\">COLLEGE</p>", "key_press": -1, "type": "PRES_VIS", "word": "college", "wordID": 345, "conditions": [24, 800, "v", 24000], "trial": 4, "serialpos": 5, "trial_type": "single-stim", "trial_index": 162, "time_elapsed": 771544, "internal_node_id": "0.0-117.0"}}, {"uniqueid": "MTK0129:3EWIJTFFVPE37U06H5YJHKM9S39E0H", "current_trial": 163, "dateTime": 1509290644749, "trialdata": {"rt": -1, "stimulus": "<p id=\"stim\">UNCLE</p>", "key_press": -1, "type": "PRES_VIS", "word": "uncle", "wordID": 1535, "conditions": [24, 800, "v", 24000], "trial": 4, "serialpos": 6, "trial_type": "single-stim", "trial_index": 163, "time_elapsed": 773396, "internal_node_id": "0.0-118.0"}}, {"uniqueid": "MTK0129:3EWIJTFFVPE37U06H5YJHKM9S39E0H", "current_trial": 164, "dateTime": 1509290646659, "trialdata": {"rt": -1, "stimulus": "<p id=\"stim\">BLACKBOARD</p>", "key_press": -1, "type": "PRES_VIS", "word": "blackboard", "wordID": 132, "conditions": [24, 800, "v", 24000], "trial": 4, "serialpos": 7, "trial_type": "single-stim", "trial_index": 164, "time_elapsed": 775306, "internal_node_id": "0.0-119.0"}}, {"uniqueid": "MTK0129:3EWIJTFFVPE37U06H5YJHKM9S39E0H", "current_trial": 165, "dateTime": 1509290648568, "trialdata": {"rt": -1, "stimulus": "<p id=\"stim\">KNAPSACK</p>", "key_press": -1, "type": "PRES_VIS", "word": "knapsack", "wordID": 782, "conditions": [24, 800, "v", 24000], "trial": 4, "serialpos": 8, "trial_type": "single-stim", "trial_index": 165, "time_elapsed": 777215, "internal_node_id": "0.0-120.0"}}, {"uniqueid": "MTK0129:3EWIJTFFVPE37U06H5YJHKM9S39E0H", "current_trial": 166, "dateTime": 1509290650555, "trialdata": {"rt": -1, "stimulus": "<p id=\"stim\">HARP</p>", "key_press": -1, "type": "PRES_VIS", "word": "harp", "wordID": 688, "conditions": [24, 800, "v", 24000], "trial": 4, "serialpos": 9, "trial_type": "single-stim", "trial_index": 166, "time_elapsed": 779202, "internal_node_id": "0.0-121.0"}}, {"uniqueid": "MTK0129:3EWIJTFFVPE37U06H5YJHKM9S39E0H", "current_trial": 167, "dateTime": 1509290652262, "trialdata": {"rt": -1, "stimulus": "<p id=\"stim\">BRIEFCASE</p>", "key_press": -1, "type": "PRES_VIS", "word": "briefcase", "wordID": 174, "conditions": [24, 800, "v", 24000], "trial": 4, "serialpos": 10, "trial_type": "single-stim", "trial_index": 167, "time_elapsed": 780908, "internal_node_id": "0.0-122.0"}}, {"uniqueid": "MTK0129:3EWIJTFFVPE37U06H5YJHKM9S39E0H", "current_trial": 168, "dateTime": 1509290654003, "trialdata": {"rt": -1, "stimulus": "<p id=\"stim\">NECKLACE</p>", "key_press": -1, "type": "PRES_VIS", "word": "necklace", "wordID": 939, "conditions": [24, 800, "v", 24000], "trial": 4, "serialpos": 11, "trial_type": "single-stim", "trial_index": 168, "time_elapsed": 782649, "internal_node_id": "0.0-123.0"}}, {"uniqueid": "MTK0129:3EWIJTFFVPE37U06H5YJHKM9S39E0H", "current_trial": 169, "dateTime": 1509290655648, "trialdata": {"rt": -1, "stimulus": "<p id=\"stim\">FLESH</p>", "key_press": -1, "type": "PRES_VIS", "word": "flesh", "wordID": 578, "conditions": [24, 800, "v", 24000], "trial": 4, "serialpos": 12, "trial_type": "single-stim", "trial_index": 169, "time_elapsed": 784295, "internal_node_id": "0.0-124.0"}}, {"uniqueid": "MTK0129:3EWIJTFFVPE37U06H5YJHKM9S39E0H", "current_trial": 170, "dateTime": 1509290657598, "trialdata": {"rt": -1, "stimulus": "<p id=\"stim\">PISTOL</p>", "key_press": -1, "type": "PRES_VIS", "word": "pistol", "wordID": 1074, "conditions": [24, 800, "v", 24000], "trial": 4, "serialpos": 13, "trial_type": "single-stim", "trial_index": 170, "time_elapsed": 786245, "internal_node_id": "0.0-125.0"}}, {"uniqueid": "MTK0129:3EWIJTFFVPE37U06H5YJHKM9S39E0H", "current_trial": 171, "dateTime": 1509290659223, "trialdata": {"rt": -1, "stimulus": "<p id=\"stim\">BANK</p>", "key_press": -1, "type": "PRES_VIS", "word": "bank", "wordID": 82, "conditions": [24, 800, "v", 24000], "trial": 4, "serialpos": 14, "trial_type": "single-stim", "trial_index": 171, "time_elapsed": 787869, "internal_node_id": "0.0-126.0"}}, {"uniqueid": "MTK0129:3EWIJTFFVPE37U06H5YJHKM9S39E0H", "current_trial": 172, "dateTime": 1509290661045, "trialdata": {"rt": -1, "stimulus": "<p id=\"stim\">BULLET</p>", "key_press": -1, "type": "PRES_VIS", "word": "bullet", "wordID": 193, "conditions": [24, 800, "v", 24000], "trial": 4, "serialpos": 15, "trial_type": "single-stim", "trial_index": 172, "time_elapsed": 789691, "internal_node_id": "0.0-127.0"}}, {"uniqueid": "MTK0129:3EWIJTFFVPE37U06H5YJHKM9S39E0H", "current_trial": 173, "dateTime": 1509290662786, "trialdata": {"rt": -1, "stimulus": "<p id=\"stim\">PEBBLE</p>", "key_press": -1, "type": "PRES_VIS", "word": "pebble", "wordID": 1034, "conditions": [24, 800, "v", 24000], "trial": 4, "serialpos": 16, "trial_type": "single-stim", "trial_index": 173, "time_elapsed": 791432, "internal_node_id": "0.0-128.0"}}, {"uniqueid": "MTK0129:3EWIJTFFVPE37U06H5YJHKM9S39E0H", "current_trial": 174, "dateTime": 1509290664453, "trialdata": {"rt": -1, "stimulus": "<p id=\"stim\">CANDY</p>", "key_press": -1, "type": "PRES_VIS", "word": "candy", "wordID": 229, "conditions": [24, 800, "v", 24000], "trial": 4, "serialpos": 17, "trial_type": "single-stim", "trial_index": 174, "time_elapsed": 793098, "internal_node_id": "0.0-129.0"}}, {"uniqueid": "MTK0129:3EWIJTFFVPE37U06H5YJHKM9S39E0H", "current_trial": 175, "dateTime": 1509290666300, "trialdata": {"rt": -1, "stimulus": "<p id=\"stim\">FUNGUS</p>", "key_press": -1, "type": "PRES_VIS", "word": "fungus", "wordID": 613, "conditions": [24, 800, "v", 24000], "trial": 4, "serialpos": 18, "trial_type": "single-stim", "trial_index": 175, "time_elapsed": 794947, "internal_node_id": "0.0-130.0"}}, {"uniqueid": "MTK0129:3EWIJTFFVPE37U06H5YJHKM9S39E0H", "current_trial": 176, "dateTime": 1509290668273, "trialdata": {"rt": -1, "stimulus": "<p id=\"stim\">TERMITE</p>", "key_press": -1, "type": "PRES_VIS", "word": "termite", "wordID": 1450, "conditions": [24, 800, "v", 24000], "trial": 4, "serialpos": 19, "trial_type": "single-stim", "trial_index": 176, "time_elapsed": 796920, "internal_node_id": "0.0-131.0"}}, {"uniqueid": "MTK0129:3EWIJTFFVPE37U06H5YJHKM9S39E0H", "current_trial": 177, "dateTime": 1509290669928, "trialdata": {"rt": -1, "stimulus": "<p id=\"stim\">MOTOR</p>", "key_press": -1, "type": "PRES_VIS", "word": "motor", "wordID": 921, "conditions": [24, 800, "v", 24000], "trial": 4, "serialpos": 20, "trial_type": "single-stim", "trial_index": 177, "time_elapsed": 798574, "internal_node_id": "0.0-132.0"}}, {"uniqueid": "MTK0129:3EWIJTFFVPE37U06H5YJHKM9S39E0H", "current_trial": 178, "dateTime": 1509290671610, "trialdata": {"rt": -1, "stimulus": "<p id=\"stim\">TOASTER</p>", "key_press": -1, "type": "PRES_VIS", "word": "toaster", "wordID": 1471, "conditions": [24, 800, "v", 24000], "trial": 4, "serialpos": 21, "trial_type": "single-stim", "trial_index": 178, "time_elapsed": 800257, "internal_node_id": "0.0-133.0"}}, {"uniqueid": "MTK0129:3EWIJTFFVPE37U06H5YJHKM9S39E0H", "current_trial": 179, "dateTime": 1509290673573, "trialdata": {"rt": -1, "stimulus": "<p id=\"stim\">BRANCH</p>", "key_press": -1, "type": "PRES_VIS", "word": "branch", "wordID": 167, "conditions": [24, 800, "v", 24000], "trial": 4, "serialpos": 22, "trial_type": "single-stim", "trial_index": 179, "time_elapsed": 802220, "internal_node_id": "0.0-134.0"}}, {"uniqueid": "MTK0129:3EWIJTFFVPE37U06H5YJHKM9S39E0H", "current_trial": 180, "dateTime": 1509290675235, "trialdata": {"rt": -1, "stimulus": "<p id=\"stim\">REBEL</p>", "key_press": -1, "type": "PRES_VIS", "word": "rebel", "wordID": 1171, "conditions": [24, 800, "v", 24000], "trial": 4, "serialpos": 23, "trial_type": "single-stim", "trial_index": 180, "time_elapsed": 803881, "internal_node_id": "0.0-135.0"}}, {"uniqueid": "MTK0129:3EWIJTFFVPE37U06H5YJHKM9S39E0H", "current_trial": 181, "dateTime": 1509290677577, "trialdata": {"rt": -1, "stimulus": "", "key_press": -1, "type": "PRE_RECALL_DELAY", "trial_type": "single-stim", "trial_index": 181, "time_elapsed": 806224, "internal_node_id": "0.0-136.0-0.0"}}, {"uniqueid": "MTK0129:3EWIJTFFVPE37U06H5YJHKM9S39E0H", "current_trial": 182, "dateTime": 1509290678086, "trialdata": {"rt": -1000, "stimulus": "/static/audio/400Hz.wav", "key_press": -1, "type": "PRE_RECALL_ALERT", "trial_type": "single-audio", "trial_index": 182, "time_elapsed": 806732, "internal_node_id": "0.0-137.0"}}, {"uniqueid": "MTK0129:3EWIJTFFVPE37U06H5YJHKM9S39E0H", "current_trial": 183, "dateTime": 1509290738137, "trialdata": {"rt": [2594, 4059, 5292, 8202, 9953, 11353, 14690, 16818, 19251, 20570], "recwords": ["fungus", "termite", "motor", "toaster", "harp", "bank", "pimple", "handbag", "student", "college"], "type": "FREE_RECALL", "conditions": [24, 800, "v", 24000], "trial": 4, "trial_type": "free-recall", "trial_index": 183, "time_elapsed": 866756, "internal_node_id": "0.0-138.0-0.0"}}, {"uniqueid": "MTK0129:3EWIJTFFVPE37U06H5YJHKM9S39E0H", "current_trial": 184, "dateTime": 1509290741799, "trialdata": {"rt": 1657, "key_press": 32, "type": "INSTRUCTIONS", "trial_type": "text", "trial_index": 184, "time_elapsed": 870446, "internal_node_id": "0.0-139.0"}}, {"uniqueid": "MTK0129:3EWIJTFFVPE37U06H5YJHKM9S39E0H", "current_trial": 185, "dateTime": 1509290755811, "trialdata": {"rt": [1843, 3922, 5924, 7962, 10194], "responses": ["8", "18", "17", "10", "15"], "num1": [1, 4, 1, 5, 5, 5], "num2": [3, 8, 8, 4, 9, 7], "num3": [4, 6, 8, 1, 1, 5], "type": "DISTRACTOR", "conditions": [24, 800, "a", 12000], "trial": 5, "trial_type": "math-distractor", "trial_index": 185, "time_elapsed": 884457, "internal_node_id": "0.0-140.0"}}, {"uniqueid": "MTK0129:3EWIJTFFVPE37U06H5YJHKM9S39E0H", "current_trial": 186, "dateTime": 1509290758817, "trialdata": {"rt": -1, "stimulus": "<p id=\"stim\">10</p>", "key_press": -1, "trial_type": "single-stim", "trial_index": 186, "time_elapsed": 887464, "internal_node_id": "0.0-141.0-0.0"}}, {"uniqueid": "MTK0129:3EWIJTFFVPE37U06H5YJHKM9S39E0H", "current_trial": 187, "dateTime": 1509290759822, "trialdata": {"rt": -1, "stimulus": "<p id=\"stim\">9</p>", "key_press": -1, "trial_type": "single-stim", "trial_index": 187, "time_elapsed": 888468, "internal_node_id": "0.0-141.0-1.0"}}, {"uniqueid": "MTK0129:3EWIJTFFVPE37U06H5YJHKM9S39E0H", "current_trial": 188, "dateTime": 1509290760826, "trialdata": {"rt": -1, "stimulus": "<p id=\"stim\">8</p>", "key_press": -1, "trial_type": "single-stim", "trial_index": 188, "time_elapsed": 889473, "internal_node_id": "0.0-141.0-2.0"}}, {"uniqueid": "MTK0129:3EWIJTFFVPE37U06H5YJHKM9S39E0H", "current_trial": 189, "dateTime": 1509290761831, "trialdata": {"rt": -1, "stimulus": "<p id=\"stim\">7</p>", "key_press": -1, "trial_type": "single-stim", "trial_index": 189, "time_elapsed": 890477, "internal_node_id": "0.0-141.0-3.0"}}, {"uniqueid": "MTK0129:3EWIJTFFVPE37U06H5YJHKM9S39E0H", "current_trial": 190, "dateTime": 1509290762834, "trialdata": {"rt": -1, "stimulus": "<p id=\"stim\">6</p>", "key_press": -1, "trial_type": "single-stim", "trial_index": 190, "time_elapsed": 891481, "internal_node_id": "0.0-141.0-4.0"}}, {"uniqueid": "MTK0129:3EWIJTFFVPE37U06H5YJHKM9S39E0H", "current_trial": 191, "dateTime": 1509290763838, "trialdata": {"rt": -1, "stimulus": "<p id=\"stim\">5</p>", "key_press": -1, "trial_type": "single-stim", "trial_index": 191, "time_elapsed": 892485, "internal_node_id": "0.0-141.0-5.0"}}, {"uniqueid": "MTK0129:3EWIJTFFVPE37U06H5YJHKM9S39E0H", "current_trial": 192, "dateTime": 1509290764844, "trialdata": {"rt": -1, "stimulus": "<p id=\"stim\">4</p>", "key_press": -1, "trial_type": "single-stim", "trial_index": 192, "time_elapsed": 893490, "internal_node_id": "0.0-141.0-6.0"}}, {"uniqueid": "MTK0129:3EWIJTFFVPE37U06H5YJHKM9S39E0H", "current_trial": 193, "dateTime": 1509290765848, "trialdata": {"rt": -1, "stimulus": "<p id=\"stim\">3</p>", "key_press": -1, "trial_type": "single-stim", "trial_index": 193, "time_elapsed": 894495, "internal_node_id": "0.0-141.0-7.0"}}, {"uniqueid": "MTK0129:3EWIJTFFVPE37U06H5YJHKM9S39E0H", "current_trial": 194, "dateTime": 1509290766853, "trialdata": {"rt": -1, "stimulus": "<p id=\"stim\">2</p>", "key_press": -1, "trial_type": "single-stim", "trial_index": 194, "time_elapsed": 895500, "internal_node_id": "0.0-141.0-8.0"}}, {"uniqueid": "MTK0129:3EWIJTFFVPE37U06H5YJHKM9S39E0H", "current_trial": 195, "dateTime": 1509290767858, "trialdata": {"rt": -1, "stimulus": "<p id=\"stim\">1</p>", "key_press": -1, "trial_type": "single-stim", "trial_index": 195, "time_elapsed": 896505, "internal_node_id": "0.0-141.0-9.0"}}, {"uniqueid": "MTK0129:3EWIJTFFVPE37U06H5YJHKM9S39E0H", "current_trial": 196, "dateTime": 1509290769364, "trialdata": {"rt": -1, "stimulus": "<p id=\"stim\">+</p>", "key_press": -1, "type": "FIXATION", "trial_type": "single-stim", "trial_index": 196, "time_elapsed": 898010, "internal_node_id": "0.0-142.0-0.0"}}, {"uniqueid": "MTK0129:3EWIJTFFVPE37U06H5YJHKM9S39E0H", "current_trial": 197, "dateTime": 1509290771036, "trialdata": {"rt": -1000, "stimulus": "/static/audio/wordpool/ELBOW.wav", "key_press": -1, "type": "PRES_AUD", "word": "elbow", "wordID": 519, "conditions": [24, 800, "a", 12000], "trial": 5, "serialpos": 0, "trial_type": "single-audio", "trial_index": 197, "time_elapsed": 899682, "internal_node_id": "0.0-143.0"}}, {"uniqueid": "MTK0129:3EWIJTFFVPE37U06H5YJHKM9S39E0H", "current_trial": 198, "dateTime": 1509290772733, "trialdata": {"rt": -1000, "stimulus": "/static/audio/wordpool/CIGAR.wav", "key_press": -1, "type": "PRES_AUD", "word": "cigar", "wordID": 307, "conditions": [24, 800, "a", 12000], "trial": 5, "serialpos": 1, "trial_type": "single-audio", "trial_index": 198, "time_elapsed": 901380, "internal_node_id": "0.0-144.0"}}, {"uniqueid": "MTK0129:3EWIJTFFVPE37U06H5YJHKM9S39E0H", "current_trial": 199, "dateTime": 1509290774360, "trialdata": {"rt": -1000, "stimulus": "/static/audio/wordpool/FOOTBALL.wav", "key_press": -1, "type": "PRES_AUD", "word": "football", "wordID": 590, "conditions": [24, 800, "a", 12000], "trial": 5, "serialpos": 2, "trial_type": "single-audio", "trial_index": 199, "time_elapsed": 903007, "internal_node_id": "0.0-145.0"}}, {"uniqueid": "MTK0129:3EWIJTFFVPE37U06H5YJHKM9S39E0H", "current_trial": 200, "dateTime": 1509290776195, "trialdata": {"rt": -1000, "stimulus": "/static/audio/wordpool/HELMET.wav", "key_press": -1, "type": "PRES_AUD", "word": "helmet", "wordID": 701, "conditions": [24, 800, "a", 12000], "trial": 5, "serialpos": 3, "trial_type": "single-audio", "trial_index": 200, "time_elapsed": 904841, "internal_node_id": "0.0-146.0"}}, {"uniqueid": "MTK0129:3EWIJTFFVPE37U06H5YJHKM9S39E0H", "current_trial": 201, "dateTime": 1509290777864, "trialdata": {"rt": -1000, "stimulus": "/static/audio/wordpool/BIKE.wav", "key_press": -1, "type": "PRES_AUD", "word": "bike", "wordID": 124, "conditions": [24, 800, "a", 12000], "trial": 5, "serialpos": 4, "trial_type": "single-audio", "trial_index": 201, "time_elapsed": 906509, "internal_node_id": "0.0-147.0"}}, {"uniqueid": "MTK0129:3EWIJTFFVPE37U06H5YJHKM9S39E0H", "current_trial": 202, "dateTime": 1509290779719, "trialdata": {"rt": -1000, "stimulus": "/static/audio/wordpool/ANKLE.wav", "key_press": -1, "type": "PRES_AUD", "word": "ankle", "wordID": 23, "conditions": [24, 800, "a", 12000], "trial": 5, "serialpos": 5, "trial_type": "single-audio", "trial_index": 202, "time_elapsed": 908365, "internal_node_id": "0.0-148.0"}}, {"uniqueid": "MTK0129:3EWIJTFFVPE37U06H5YJHKM9S39E0H", "current_trial": 203, "dateTime": 1509290781573, "trialdata": {"rt": -1000, "stimulus": "/static/audio/wordpool/LEG.wav", "key_press": -1, "type": "PRES_AUD", "word": "leg", "wordID": 808, "conditions": [24, 800, "a", 12000], "trial": 5, "serialpos": 6, "trial_type": "single-audio", "trial_index": 203, "time_elapsed": 910220, "internal_node_id": "0.0-149.0"}}, {"uniqueid": "MTK0129:3EWIJTFFVPE37U06H5YJHKM9S39E0H", "current_trial": 204, "dateTime": 1509290783254, "trialdata": {"rt": -1000, "stimulus": "/static/audio/wordpool/KLEENEX.wav", "key_press": -1, "type": "PRES_AUD", "word": "kleenex", "wordID": 781, "conditions": [24, 800, "a", 12000], "trial": 5, "serialpos": 7, "trial_type": "single-audio", "trial_index": 204, "time_elapsed": 911901, "internal_node_id": "0.0-150.0"}}, {"uniqueid": "MTK0129:3EWIJTFFVPE37U06H5YJHKM9S39E0H", "current_trial": 205, "dateTime": 1509290785049, "trialdata": {"rt": -1000, "stimulus": "/static/audio/wordpool/MESSAGE.wav", "key_press": -1, "type": "PRES_AUD", "word": "message", "wordID": 887, "conditions": [24, 800, "a", 12000], "trial": 5, "serialpos": 8, "trial_type": "single-audio", "trial_index": 205, "time_elapsed": 913696, "internal_node_id": "0.0-151.0"}}, {"uniqueid": "MTK0129:3EWIJTFFVPE37U06H5YJHKM9S39E0H", "current_trial": 206, "dateTime": 1509290786876, "trialdata": {"rt": -1000, "stimulus": "/static/audio/wordpool/TRANSPLANT.wav", "key_press": -1, "type": "PRES_AUD", "word": "transplant", "wordID": 1495, "conditions": [24, 800, "a", 12000], "trial": 5, "serialpos": 9, "trial_type": "single-audio", "trial_index": 206, "time_elapsed": 915522, "internal_node_id": "0.0-152.0"}}, {"uniqueid": "MTK0129:3EWIJTFFVPE37U06H5YJHKM9S39E0H", "current_trial": 207, "dateTime": 1509290788639, "trialdata": {"rt": -1000, "stimulus": "/static/audio/wordpool/SCISSORS.wav", "key_press": -1, "type": "PRES_AUD", "word": "scissors", "wordID": 1249, "conditions": [24, 800, "a", 12000], "trial": 5, "serialpos": 10, "trial_type": "single-audio", "trial_index": 207, "time_elapsed": 917285, "internal_node_id": "0.0-153.0"}}, {"uniqueid": "MTK0129:3EWIJTFFVPE37U06H5YJHKM9S39E0H", "current_trial": 208, "dateTime": 1509290790395, "trialdata": {"rt": -1000, "stimulus": "/static/audio/wordpool/KNIFE.wav", "key_press": -1, "type": "PRES_AUD", "word": "knife", "wordID": 784, "conditions": [24, 800, "a", 12000], "trial": 5, "serialpos": 11, "trial_type": "single-audio", "trial_index": 208, "time_elapsed": 919042, "internal_node_id": "0.0-154.0"}}, {"uniqueid": "MTK0129:3EWIJTFFVPE37U06H5YJHKM9S39E0H", "current_trial": 209, "dateTime": 1509290792206, "trialdata": {"rt": -1000, "stimulus": "/static/audio/wordpool/CRATER.wav", "key_press": -1, "type": "PRES_AUD", "word": "crater", "wordID": 399, "conditions": [24, 800, "a", 12000], "trial": 5, "serialpos": 12, "trial_type": "single-audio", "trial_index": 209, "time_elapsed": 920852, "internal_node_id": "0.0-155.0"}}, {"uniqueid": "MTK0129:3EWIJTFFVPE37U06H5YJHKM9S39E0H", "current_trial": 210, "dateTime": 1509290794080, "trialdata": {"rt": -1000, "stimulus": "/static/audio/wordpool/DONOR.wav", "key_press": -1, "type": "PRES_AUD", "word": "donor", "wordID": 484, "conditions": [24, 800, "a", 12000], "trial": 5, "serialpos": 13, "trial_type": "single-audio", "trial_index": 210, "time_elapsed": 922726, "internal_node_id": "0.0-156.0"}}, {"uniqueid": "MTK0129:3EWIJTFFVPE37U06H5YJHKM9S39E0H", "current_trial": 211, "dateTime": 1509290795729, "trialdata": {"rt": -1000, "stimulus": "/static/audio/wordpool/GIFT.wav", "key_press": -1, "type": "PRES_AUD", "word": "gift", "wordID": 634, "conditions": [24, 800, "a", 12000], "trial": 5, "serialpos": 14, "trial_type": "single-audio", "trial_index": 211, "time_elapsed": 924375, "internal_node_id": "0.0-157.0"}}, {"uniqueid": "MTK0129:3EWIJTFFVPE37U06H5YJHKM9S39E0H", "current_trial": 212, "dateTime": 1509290797337, "trialdata": {"rt": -1000, "stimulus": "/static/audio/wordpool/ROOSTER.wav", "key_press": -1, "type": "PRES_AUD", "word": "rooster", "wordID": 1208, "conditions": [24, 800, "a", 12000], "trial": 5, "serialpos": 15, "trial_type": "single-audio", "trial_index": 212, "time_elapsed": 925983, "internal_node_id": "0.0-158.0"}}, {"uniqueid": "MTK0129:3EWIJTFFVPE37U06H5YJHKM9S39E0H", "current_trial": 213, "dateTime": 1509290798971, "trialdata": {"rt": -1000, "stimulus": "/static/audio/wordpool/LAVA.wav", "key_press": -1, "type": "PRES_AUD", "word": "lava", "wordID": 803, "conditions": [24, 800, "a", 12000], "trial": 5, "serialpos": 16, "trial_type": "single-audio", "trial_index": 213, "time_elapsed": 927617, "internal_node_id": "0.0-159.0"}}, {"uniqueid": "MTK0129:3EWIJTFFVPE37U06H5YJHKM9S39E0H", "current_trial": 214, "dateTime": 1509290800906, "trialdata": {"rt": -1000, "stimulus": "/static/audio/wordpool/MARKET.wav", "key_press": -1, "type": "PRES_AUD", "word": "market", "wordID": 870, "conditions": [24, 800, "a", 12000], "trial": 5, "serialpos": 17, "trial_type": "single-audio", "trial_index": 214, "time_elapsed": 929552, "internal_node_id": "0.0-160.0"}}, {"uniqueid": "MTK0129:3EWIJTFFVPE37U06H5YJHKM9S39E0H", "current_trial": 215, "dateTime": 1509290802750, "trialdata": {"rt": -1000, "stimulus": "/static/audio/wordpool/ACTOR.wav", "key_press": -1, "type": "PRES_AUD", "word": "actor", "wordID": 4, "conditions": [24, 800, "a", 12000], "trial": 5, "serialpos": 18, "trial_type": "single-audio", "trial_index": 215, "time_elapsed": 931397, "internal_node_id": "0.0-161.0"}}, {"uniqueid": "MTK0129:3EWIJTFFVPE37U06H5YJHKM9S39E0H", "current_trial": 216, "dateTime": 1509290804797, "trialdata": {"rt": -1000, "stimulus": "/static/audio/wordpool/FILM.wav", "key_press": -1, "type": "PRES_AUD", "word": "film", "wordID": 564, "conditions": [24, 800, "a", 12000], "trial": 5, "serialpos": 19, "trial_type": "single-audio", "trial_index": 216, "time_elapsed": 933444, "internal_node_id": "0.0-162.0"}}, {"uniqueid": "MTK0129:3EWIJTFFVPE37U06H5YJHKM9S39E0H", "current_trial": 217, "dateTime": 1509290806650, "trialdata": {"rt": -1000, "stimulus": "/static/audio/wordpool/PUDDING.wav", "key_press": -1, "type": "PRES_AUD", "word": "pudding", "wordID": 1138, "conditions": [24, 800, "a", 12000], "trial": 5, "serialpos": 20, "trial_type": "single-audio", "trial_index": 217, "time_elapsed": 935296, "internal_node_id": "0.0-163.0"}}, {"uniqueid": "MTK0129:3EWIJTFFVPE37U06H5YJHKM9S39E0H", "current_trial": 218, "dateTime": 1509290808593, "trialdata": {"rt": -1000, "stimulus": "/static/audio/wordpool/SMOG.wav", "key_press": -1, "type": "PRES_AUD", "word": "smog", "wordID": 1329, "conditions": [24, 800, "a", 12000], "trial": 5, "serialpos": 21, "trial_type": "single-audio", "trial_index": 218, "time_elapsed": 937239, "internal_node_id": "0.0-164.0"}}, {"uniqueid": "MTK0129:3EWIJTFFVPE37U06H5YJHKM9S39E0H", "current_trial": 219, "dateTime": 1509290810453, "trialdata": {"rt": -1000, "stimulus": "/static/audio/wordpool/DAISY.wav", "key_press": -1, "type": "PRES_AUD", "word": "daisy", "wordID": 434, "conditions": [24, 800, "a", 12000], "trial": 5, "serialpos": 22, "trial_type": "single-audio", "trial_index": 219, "time_elapsed": 939099, "internal_node_id": "0.0-165.0"}}, {"uniqueid": "MTK0129:3EWIJTFFVPE37U06H5YJHKM9S39E0H", "current_trial": 220, "dateTime": 1509290812170, "trialdata": {"rt": -1000, "stimulus": "/static/audio/wordpool/HOSTESS.wav", "key_press": -1, "type": "PRES_AUD", "word": "hostess", "wordID": 722, "conditions": [24, 800, "a", 12000], "trial": 5, "serialpos": 23, "trial_type": "single-audio", "trial_index": 220, "time_elapsed": 940817, "internal_node_id": "0.0-166.0"}}, {"uniqueid": "MTK0129:3EWIJTFFVPE37U06H5YJHKM9S39E0H", "current_trial": 221, "dateTime": 1509290813515, "trialdata": {"rt": -1, "stimulus": "", "key_press": -1, "type": "PRE_RECALL_DELAY", "trial_type": "single-stim", "trial_index": 221, "time_elapsed": 942162, "internal_node_id": "0.0-167.0-0.0"}}, {"uniqueid": "MTK0129:3EWIJTFFVPE37U06H5YJHKM9S39E0H", "current_trial": 222, "dateTime": 1509290814018, "trialdata": {"rt": -1000, "stimulus": "/static/audio/400Hz.wav", "key_press": -1, "type": "PRE_RECALL_ALERT", "trial_type": "single-audio", "trial_index": 222, "time_elapsed": 942665, "internal_node_id": "0.0-168.0"}}, {"uniqueid": "MTK0129:3EWIJTFFVPE37U06H5YJHKM9S39E0H", "current_trial": 223, "dateTime": 1509290874054, "trialdata": {"rt": [3941, 5761, 7314, 8680, 10353, 14527, 16432, 19521, 20954, 24696], "recwords": ["rooster", "lava", "market", "daisy", "hostess", "scissors", "knife", "football", "helmet", "elbow"], "type": "FREE_RECALL", "conditions": [24, 800, "a", 12000], "trial": 5, "trial_type": "free-recall", "trial_index": 223, "time_elapsed": 1002680, "internal_node_id": "0.0-169.0-0.0"}}, {"uniqueid": "MTK0129:3EWIJTFFVPE37U06H5YJHKM9S39E0H", "current_trial": 224, "dateTime": 1509290878014, "trialdata": {"rt": 1954, "key_press": 32, "type": "INSTRUCTIONS", "trial_type": "text", "trial_index": 224, "time_elapsed": 1006660, "internal_node_id": "0.0-170.0"}}, {"uniqueid": "MTK0129:3EWIJTFFVPE37U06H5YJHKM9S39E0H", "current_trial": 225, "dateTime": 1509290892030, "trialdata": {"rt": [2067, 4251, 6642, 8907, 10842], "responses": ["18", "12", "24", "19", "9"], "num1": [9, 2, 7, 4, 6, 7], "num2": [3, 1, 8, 9, 2, 8], "num3": [6, 9, 8, 6, 1, 8], "type": "DISTRACTOR", "conditions": [12, 1600, "a", 12000], "trial": 6, "trial_type": "math-distractor", "trial_index": 225, "time_elapsed": 1020677, "internal_node_id": "0.0-171.0"}}, {"uniqueid": "MTK0129:3EWIJTFFVPE37U06H5YJHKM9S39E0H", "current_trial": 226, "dateTime": 1509290895045, "trialdata": {"rt": -1, "stimulus": "<p id=\"stim\">10</p>", "key_press": -1, "trial_type": "single-stim", "trial_index": 226, "time_elapsed": 1023692, "internal_node_id": "0.0-172.0-0.0"}}, {"uniqueid": "MTK0129:3EWIJTFFVPE37U06H5YJHKM9S39E0H", "current_trial": 227, "dateTime": 1509290896049, "trialdata": {"rt": -1, "stimulus": "<p id=\"stim\">9</p>", "key_press": -1, "trial_type": "single-stim", "trial_index": 227, "time_elapsed": 1024696, "internal_node_id": "0.0-172.0-1.0"}}, {"uniqueid": "MTK0129:3EWIJTFFVPE37U06H5YJHKM9S39E0H", "current_trial": 228, "dateTime": 1509290897053, "trialdata": {"rt": -1, "stimulus": "<p id=\"stim\">8</p>", "key_press": -1, "trial_type": "single-stim", "trial_index": 228, "time_elapsed": 1025700, "internal_node_id": "0.0-172.0-2.0"}}, {"uniqueid": "MTK0129:3EWIJTFFVPE37U06H5YJHKM9S39E0H", "current_trial": 229, "dateTime": 1509290898057, "trialdata": {"rt": -1, "stimulus": "<p id=\"stim\">7</p>", "key_press": -1, "trial_type": "single-stim", "trial_index": 229, "time_elapsed": 1026704, "internal_node_id": "0.0-172.0-3.0"}}, {"uniqueid": "MTK0129:3EWIJTFFVPE37U06H5YJHKM9S39E0H", "current_trial": 230, "dateTime": 1509290899060, "trialdata": {"rt": -1, "stimulus": "<p id=\"stim\">6</p>", "key_press": -1, "trial_type": "single-stim", "trial_index": 230, "time_elapsed": 1027707, "internal_node_id": "0.0-172.0-4.0"}}, {"uniqueid": "MTK0129:3EWIJTFFVPE37U06H5YJHKM9S39E0H", "current_trial": 231, "dateTime": 1509290900064, "trialdata": {"rt": -1, "stimulus": "<p id=\"stim\">5</p>", "key_press": -1, "trial_type": "single-stim", "trial_index": 231, "time_elapsed": 1028710, "internal_node_id": "0.0-172.0-5.0"}}, {"uniqueid": "MTK0129:3EWIJTFFVPE37U06H5YJHKM9S39E0H", "current_trial": 232, "dateTime": 1509290901069, "trialdata": {"rt": -1, "stimulus": "<p id=\"stim\">4</p>", "key_press": -1, "trial_type": "single-stim", "trial_index": 232, "time_elapsed": 1029716, "internal_node_id": "0.0-172.0-6.0"}}, {"uniqueid": "MTK0129:3EWIJTFFVPE37U06H5YJHKM9S39E0H", "current_trial": 233, "dateTime": 1509290902074, "trialdata": {"rt": -1, "stimulus": "<p id=\"stim\">3</p>", "key_press": -1, "trial_type": "single-stim", "trial_index": 233, "time_elapsed": 1030721, "internal_node_id": "0.0-172.0-7.0"}}, {"uniqueid": "MTK0129:3EWIJTFFVPE37U06H5YJHKM9S39E0H", "current_trial": 234, "dateTime": 1509290903080, "trialdata": {"rt": -1, "stimulus": "<p id=\"stim\">2</p>", "key_press": -1, "trial_type": "single-stim", "trial_index": 234, "time_elapsed": 1031726, "internal_node_id": "0.0-172.0-8.0"}}, {"uniqueid": "MTK0129:3EWIJTFFVPE37U06H5YJHKM9S39E0H", "current_trial": 235, "dateTime": 1509290904084, "trialdata": {"rt": -1, "stimulus": "<p id=\"stim\">1</p>", "key_press": -1, "trial_type": "single-stim", "trial_index": 235, "time_elapsed": 1032730, "internal_node_id": "0.0-172.0-9.0"}}, {"uniqueid": "MTK0129:3EWIJTFFVPE37U06H5YJHKM9S39E0H", "current_trial": 236, "dateTime": 1509290905588, "trialdata": {"rt": -1, "stimulus": "<p id=\"stim\">+</p>", "key_press": -1, "type": "FIXATION", "trial_type": "single-stim", "trial_index": 236, "time_elapsed": 1034235, "internal_node_id": "0.0-173.0-0.0"}}, {"uniqueid": "MTK0129:3EWIJTFFVPE37U06H5YJHKM9S39E0H", "current_trial": 237, "dateTime": 1509290908018, "trialdata": {"rt": -1000, "stimulus": "/static/audio/wordpool/CRAB.wav", "key_press": -1, "type": "PRES_AUD", "word": "crab", "wordID": 396, "conditions": [12, 1600, "a", 12000], "trial": 6, "serialpos": 0, "trial_type": "single-audio", "trial_index": 237, "time_elapsed": 1036664, "internal_node_id": "0.0-174.0"}}, {"uniqueid": "MTK0129:3EWIJTFFVPE37U06H5YJHKM9S39E0H", "current_trial": 238, "dateTime": 1509290910440, "trialdata": {"rt": -1000, "stimulus": "/static/audio/wordpool/FLASK.wav", "key_press": -1, "type": "PRES_AUD", "word": "flask", "wordID": 575, "conditions": [12, 1600, "a", 12000], "trial": 6, "serialpos": 1, "trial_type": "single-audio", "trial_index": 238, "time_elapsed": 1039087, "internal_node_id": "0.0-175.0"}}, {"uniqueid": "MTK0129:3EWIJTFFVPE37U06H5YJHKM9S39E0H", "current_trial": 239, "dateTime": 1509290913193, "trialdata": {"rt": -1000, "stimulus": "/static/audio/wordpool/CRICKET.wav", "key_press": -1, "type": "PRES_AUD", "word": "cricket", "wordID": 407, "conditions": [12, 1600, "a", 12000], "trial": 6, "serialpos": 2, "trial_type": "single-audio", "trial_index": 239, "time_elapsed": 1041839, "internal_node_id": "0.0-176.0"}}, {"uniqueid": "MTK0129:3EWIJTFFVPE37U06H5YJHKM9S39E0H", "current_trial": 240, "dateTime": 1509290915718, "trialdata": {"rt": -1000, "stimulus": "/static/audio/wordpool/CYCLONE.wav", "key_press": -1, "type": "PRES_AUD", "word": "cyclone", "wordID": 430, "conditions": [12, 1600, "a", 12000], "trial": 6, "serialpos": 3, "trial_type": "single-audio", "trial_index": 240, "time_elapsed": 1044364, "internal_node_id": "0.0-177.0"}}, {"uniqueid": "MTK0129:3EWIJTFFVPE37U06H5YJHKM9S39E0H", "current_trial": 241, "dateTime": 1509290918208, "trialdata": {"rt": -1000, "stimulus": "/static/audio/wordpool/PRIMATE.wav", "key_press": -1, "type": "PRES_AUD", "word": "primate", "wordID": 1122, "conditions": [12, 1600, "a", 12000], "trial": 6, "serialpos": 4, "trial_type": "single-audio", "trial_index": 241, "time_elapsed": 1046854, "internal_node_id": "0.0-178.0"}}, {"uniqueid": "MTK0129:3EWIJTFFVPE37U06H5YJHKM9S39E0H", "current_trial": 242, "dateTime": 1509290920811, "trialdata": {"rt": -1000, "stimulus": "/static/audio/wordpool/COBRA.wav", "key_press": -1, "type": "PRES_AUD", "word": "cobra", "wordID": 335, "conditions": [12, 1600, "a", 12000], "trial": 6, "serialpos": 5, "trial_type": "single-audio", "trial_index": 242, "time_elapsed": 1049457, "internal_node_id": "0.0-179.0"}}, {"uniqueid": "MTK0129:3EWIJTFFVPE37U06H5YJHKM9S39E0H", "current_trial": 243, "dateTime": 1509290923257, "trialdata": {"rt": -1000, "stimulus": "/static/audio/wordpool/JOURNAL.wav", "key_press": -1, "type": "PRES_AUD", "word": "journal", "wordID": 759, "conditions": [12, 1600, "a", 12000], "trial": 6, "serialpos": 6, "trial_type": "single-audio", "trial_index": 243, "time_elapsed": 1051904, "internal_node_id": "0.0-180.0"}}, {"uniqueid": "MTK0129:3EWIJTFFVPE37U06H5YJHKM9S39E0H", "current_trial": 244, "dateTime": 1509290925977, "trialdata": {"rt": -1000, "stimulus": "/static/audio/wordpool/RADISH.wav", "key_press": -1, "type": "PRES_AUD", "word": "radish", "wordID": 1157, "conditions": [12, 1600, "a", 12000], "trial": 6, "serialpos": 7, "trial_type": "single-audio", "trial_index": 244, "time_elapsed": 1054623, "internal_node_id": "0.0-181.0"}}, {"uniqueid": "MTK0129:3EWIJTFFVPE37U06H5YJHKM9S39E0H", "current_trial": 245, "dateTime": 1509290928442, "trialdata": {"rt": -1000, "stimulus": "/static/audio/wordpool/DOLPHIN.wav", "key_press": -1, "type": "PRES_AUD", "word": "dolphin", "wordID": 482, "conditions": [12, 1600, "a", 12000], "trial": 6, "serialpos": 8, "trial_type": "single-audio", "trial_index": 245, "time_elapsed": 1057088, "internal_node_id": "0.0-182.0"}}, {"uniqueid": "MTK0129:3EWIJTFFVPE37U06H5YJHKM9S39E0H", "current_trial": 246, "dateTime": 1509290931006, "trialdata": {"rt": -1000, "stimulus": "/static/audio/wordpool/CELLAR.wav", "key_press": -1, "type": "PRES_AUD", "word": "cellar", "wordID": 266, "conditions": [12, 1600, "a", 12000], "trial": 6, "serialpos": 9, "trial_type": "single-audio", "trial_index": 246, "time_elapsed": 1059652, "internal_node_id": "0.0-183.0"}}, {"uniqueid": "MTK0129:3EWIJTFFVPE37U06H5YJHKM9S39E0H", "current_trial": 247, "dateTime": 1509290933653, "trialdata": {"rt": -1000, "stimulus": "/static/audio/wordpool/BASEMENT.wav", "key_press": -1, "type": "PRES_AUD", "word": "basement", "wordID": 93, "conditions": [12, 1600, "a", 12000], "trial": 6, "serialpos": 10, "trial_type": "single-audio", "trial_index": 247, "time_elapsed": 1062300, "internal_node_id": "0.0-184.0"}}, {"uniqueid": "MTK0129:3EWIJTFFVPE37U06H5YJHKM9S39E0H", "current_trial": 248, "dateTime": 1509290936452, "trialdata": {"rt": -1000, "stimulus": "/static/audio/wordpool/BEAKER.wav", "key_press": -1, "type": "PRES_AUD", "word": "beaker", "wordID": 103, "conditions": [12, 1600, "a", 12000], "trial": 6, "serialpos": 11, "trial_type": "single-audio", "trial_index": 248, "time_elapsed": 1065098, "internal_node_id": "0.0-185.0"}}, {"uniqueid": "MTK0129:3EWIJTFFVPE37U06H5YJHKM9S39E0H", "current_trial": 249, "dateTime": 1509290937829, "trialdata": {"rt": -1, "stimulus": "", "key_press": -1, "type": "PRE_RECALL_DELAY", "trial_type": "single-stim", "trial_index": 249, "time_elapsed": 1066475, "internal_node_id": "0.0-186.0-0.0"}}, {"uniqueid": "MTK0129:3EWIJTFFVPE37U06H5YJHKM9S39E0H", "current_trial": 250, "dateTime": 1509290938341, "trialdata": {"rt": -1000, "stimulus": "/static/audio/400Hz.wav", "key_press": -1, "type": "PRE_RECALL_ALERT", "trial_type": "single-audio", "trial_index": 250, "time_elapsed": 1066987, "internal_node_id": "0.0-187.0"}}, {"uniqueid": "MTK0129:3EWIJTFFVPE37U06H5YJHKM9S39E0H", "current_trial": 251, "dateTime": 1509290998391, "trialdata": {"rt": [7722, 9456, 10816, 16399, 18151, 21612], "recwords": ["cellar", "beaker", "cobra", "cricket", "crab", "dolphin"], "type": "FREE_RECALL", "conditions": [12, 1600, "a", 12000], "trial": 6, "trial_type": "free-recall", "trial_index": 251, "time_elapsed": 1127006, "internal_node_id": "0.0-188.0-0.0"}}, {"uniqueid": "MTK0129:3EWIJTFFVPE37U06H5YJHKM9S39E0H", "current_trial": 252, "dateTime": 1509291001848, "trialdata": {"rt": 1451, "key_press": 32, "type": "INSTRUCTIONS", "trial_type": "text", "trial_index": 252, "time_elapsed": 1130494, "internal_node_id": "0.0-189.0"}}, {"uniqueid": "MTK0129:3EWIJTFFVPE37U06H5YJHKM9S39E0H", "current_trial": 253, "dateTime": 1509291015864, "trialdata": {"rt": [2321, 4314, 6146, 8393, 10321], "responses": ["14", "4", "9", "16", "19"], "num1": [6, 1, 1, 4, 9, 4], "num2": [7, 1, 2, 4, 8, 6], "num3": [1, 2, 6, 8, 2, 7], "type": "DISTRACTOR", "conditions": [12, 800, "a", 12000], "trial": 7, "trial_type": "math-distractor", "trial_index": 253, "time_elapsed": 1144509, "internal_node_id": "0.0-190.0"}}, {"uniqueid": "MTK0129:3EWIJTFFVPE37U06H5YJHKM9S39E0H", "current_trial": 254, "dateTime": 1509291018870, "trialdata": {"rt": -1, "stimulus": "<p id=\"stim\">10</p>", "key_press": -1, "trial_type": "single-stim", "trial_index": 254, "time_elapsed": 1147516, "internal_node_id": "0.0-191.0-0.0"}}, {"uniqueid": "MTK0129:3EWIJTFFVPE37U06H5YJHKM9S39E0H", "current_trial": 255, "dateTime": 1509291019874, "trialdata": {"rt": -1, "stimulus": "<p id=\"stim\">9</p>", "key_press": -1, "trial_type": "single-stim", "trial_index": 255, "time_elapsed": 1148521, "internal_node_id": "0.0-191.0-1.0"}}, {"uniqueid": "MTK0129:3EWIJTFFVPE37U06H5YJHKM9S39E0H", "current_trial": 256, "dateTime": 1509291020880, "trialdata": {"rt": -1, "stimulus": "<p id=\"stim\">8</p>", "key_press": -1, "trial_type": "single-stim", "trial_index": 256, "time_elapsed": 1149525, "internal_node_id": "0.0-191.0-2.0"}}, {"uniqueid": "MTK0129:3EWIJTFFVPE37U06H5YJHKM9S39E0H", "current_trial": 257, "dateTime": 1509291021885, "trialdata": {"rt": -1, "stimulus": "<p id=\"stim\">7</p>", "key_press": -1, "trial_type": "single-stim", "trial_index": 257, "time_elapsed": 1150532, "internal_node_id": "0.0-191.0-3.0"}}, {"uniqueid": "MTK0129:3EWIJTFFVPE37U06H5YJHKM9S39E0H", "current_trial": 258, "dateTime": 1509291022890, "trialdata": {"rt": -1, "stimulus": "<p id=\"stim\">6</p>", "key_press": -1, "trial_type": "single-stim", "trial_index": 258, "time_elapsed": 1151536, "internal_node_id": "0.0-191.0-4.0"}}, {"uniqueid": "MTK0129:3EWIJTFFVPE37U06H5YJHKM9S39E0H", "current_trial": 259, "dateTime": 1509291023895, "trialdata": {"rt": -1, "stimulus": "<p id=\"stim\">5</p>", "key_press": -1, "trial_type": "single-stim", "trial_index": 259, "time_elapsed": 1152540, "internal_node_id": "0.0-191.0-5.0"}}, {"uniqueid": "MTK0129:3EWIJTFFVPE37U06H5YJHKM9S39E0H", "current_trial": 260, "dateTime": 1509291024900, "trialdata": {"rt": -1, "stimulus": "<p id=\"stim\">4</p>", "key_press": -1, "trial_type": "single-stim", "trial_index": 260, "time_elapsed": 1153546, "internal_node_id": "0.0-191.0-6.0"}}, {"uniqueid": "MTK0129:3EWIJTFFVPE37U06H5YJHKM9S39E0H", "current_trial": 261, "dateTime": 1509291025903, "trialdata": {"rt": -1, "stimulus": "<p id=\"stim\">3</p>", "key_press": -1, "trial_type": "single-stim", "trial_index": 261, "time_elapsed": 1154550, "internal_node_id": "0.0-191.0-7.0"}}, {"uniqueid": "MTK0129:3EWIJTFFVPE37U06H5YJHKM9S39E0H", "current_trial": 262, "dateTime": 1509291026908, "trialdata": {"rt": -1, "stimulus": "<p id=\"stim\">2</p>", "key_press": -1, "trial_type": "single-stim", "trial_index": 262, "time_elapsed": 1155554, "internal_node_id": "0.0-191.0-8.0"}}, {"uniqueid": "MTK0129:3EWIJTFFVPE37U06H5YJHKM9S39E0H", "current_trial": 263, "dateTime": 1509291027912, "trialdata": {"rt": -1, "stimulus": "<p id=\"stim\">1</p>", "key_press": -1, "trial_type": "single-stim", "trial_index": 263, "time_elapsed": 1156558, "internal_node_id": "0.0-191.0-9.0"}}, {"uniqueid": "MTK0129:3EWIJTFFVPE37U06H5YJHKM9S39E0H", "current_trial": 264, "dateTime": 1509291029415, "trialdata": {"rt": -1, "stimulus": "<p id=\"stim\">+</p>", "key_press": -1, "type": "FIXATION", "trial_type": "single-stim", "trial_index": 264, "time_elapsed": 1158062, "internal_node_id": "0.0-192.0-0.0"}}, {"uniqueid": "MTK0129:3EWIJTFFVPE37U06H5YJHKM9S39E0H", "current_trial": 265, "dateTime": 1509291031236, "trialdata": {"rt": -1000, "stimulus": "/static/audio/wordpool/COUNTRY.wav", "key_press": -1, "type": "PRES_AUD", "word": "country", "wordID": 387, "conditions": [12, 800, "a", 12000], "trial": 7, "serialpos": 0, "trial_type": "single-audio", "trial_index": 265, "time_elapsed": 1159883, "internal_node_id": "0.0-193.0"}}, {"uniqueid": "MTK0129:3EWIJTFFVPE37U06H5YJHKM9S39E0H", "current_trial": 266, "dateTime": 1509291032993, "trialdata": {"rt": -1000, "stimulus": "/static/audio/wordpool/SAUSAGE.wav", "key_press": -1, "type": "PRES_AUD", "word": "sausage", "wordID": 1237, "conditions": [12, 800, "a", 12000], "trial": 7, "serialpos": 1, "trial_type": "single-audio", "trial_index": 266, "time_elapsed": 1161639, "internal_node_id": "0.0-194.0"}}, {"uniqueid": "MTK0129:3EWIJTFFVPE37U06H5YJHKM9S39E0H", "current_trial": 267, "dateTime": 1509291034905, "trialdata": {"rt": -1000, "stimulus": "/static/audio/wordpool/ZEBRA.wav", "key_press": -1, "type": "PRES_AUD", "word": "zebra", "wordID": 1634, "conditions": [12, 800, "a", 12000], "trial": 7, "serialpos": 2, "trial_type": "single-audio", "trial_index": 267, "time_elapsed": 1163551, "internal_node_id": "0.0-195.0"}}, {"uniqueid": "MTK0129:3EWIJTFFVPE37U06H5YJHKM9S39E0H", "current_trial": 268, "dateTime": 1509291036530, "trialdata": {"rt": -1000, "stimulus": "/static/audio/wordpool/EUROPE.wav", "key_press": -1, "type": "PRES_AUD", "word": "europe", "wordID": 540, "conditions": [12, 800, "a", 12000], "trial": 7, "serialpos": 3, "trial_type": "single-audio", "trial_index": 268, "time_elapsed": 1165176, "internal_node_id": "0.0-196.0"}}, {"uniqueid": "MTK0129:3EWIJTFFVPE37U06H5YJHKM9S39E0H", "current_trial": 269, "dateTime": 1509291038347, "trialdata": {"rt": -1000, "stimulus": "/static/audio/wordpool/PASTA.wav", "key_press": -1, "type": "PRES_AUD", "word": "pasta", "wordID": 1020, "conditions": [12, 800, "a", 12000], "trial": 7, "serialpos": 4, "trial_type": "single-audio", "trial_index": 269, "time_elapsed": 1166993, "internal_node_id": "0.0-197.0"}}, {"uniqueid": "MTK0129:3EWIJTFFVPE37U06H5YJHKM9S39E0H", "current_trial": 270, "dateTime": 1509291039975, "trialdata": {"rt": -1000, "stimulus": "/static/audio/wordpool/TURNIP.wav", "key_press": -1, "type": "PRES_AUD", "word": "turnip", "wordID": 1520, "conditions": [12, 800, "a", 12000], "trial": 7, "serialpos": 5, "trial_type": "single-audio", "trial_index": 270, "time_elapsed": 1168622, "internal_node_id": "0.0-198.0"}}, {"uniqueid": "MTK0129:3EWIJTFFVPE37U06H5YJHKM9S39E0H", "current_trial": 271, "dateTime": 1509291041940, "trialdata": {"rt": -1000, "stimulus": "/static/audio/wordpool/TROMBONE.wav", "key_press": -1, "type": "PRES_AUD", "word": "trombone", "wordID": 1507, "conditions": [12, 800, "a", 12000], "trial": 7, "serialpos": 6, "trial_type": "single-audio", "trial_index": 271