{"condition": 0, "counterbalance": 351, "assignmentId": "3EQHHY4HQTZ0MFIYK6UJYI3CMX65GT", "workerId": "MTK0184", "hitId": "3P4C70TRMROC1KNPMR5OQN3PVY0LGP", "currenttrial": 623, "bonus": 0, "data": [{"uniqueid": "MTK0184:3EQHHY4HQTZ0MFIYK6UJYI3CMX65GT", "current_trial": 0, "dateTime": 1509477224060, "trialdata": {"rt": 20855, "key_press": 32, "type": "INSTRUCTIONS", "trial_type": "text", "trial_index": 0, "time_elapsed": 20857, "internal_node_id": "0.0-0.0"}}, {"uniqueid": "MTK0184:3EQHHY4HQTZ0MFIYK6UJYI3CMX65GT", "current_trial": 1, "dateTime": 1509477243364, "trialdata": {"rt": 19303, "key_press": 175, "type": "INSTRUCTIONS", "trial_type": "text", "trial_index": 1, "time_elapsed": 40162, "internal_node_id": "0.0-1.0"}}, {"uniqueid": "MTK0184:3EQHHY4HQTZ0MFIYK6UJYI3CMX65GT", "current_trial": 2, "dateTime": 1509477263784, "trialdata": {"rt": [20411], "responses": ["ocean"], "type": "AUDIO_TEST", "trial_type": "audio-test", "trial_index": 2, "time_elapsed": 60582, "internal_node_id": "0.0-2.0"}}, {"uniqueid": "MTK0184:3EQHHY4HQTZ0MFIYK6UJYI3CMX65GT", "current_trial": 3, "dateTime": 1509477277228, "trialdata": {"rt": [13440], "responses": ["crystal"], "type": "AUDIO_TEST", "trial_type": "audio-test", "trial_index": 3, "time_elapsed": 74026, "internal_node_id": "0.0-3.0"}}, {"uniqueid": "MTK0184:3EQHHY4HQTZ0MFIYK6UJYI3CMX65GT", "current_trial": 4, "dateTime": 1509477294534, "trialdata": {"rt": [17302], "responses": ["spice"], "type": "AUDIO_TEST", "trial_type": "audio-test", "trial_index": 4, "time_elapsed": 91332, "internal_node_id": "0.0-4.0"}}, {"uniqueid": "MTK0184:3EQHHY4HQTZ0MFIYK6UJYI3CMX65GT", "current_trial": 5, "dateTime": 1509477299798, "trialdata": {"rt": 4512, "key_press": 32, "type": "INSTRUCTIONS", "trial_type": "text", "trial_index": 5, "time_elapsed": 96596, "internal_node_id": "0.0-5.0"}}, {"uniqueid": "MTK0184:3EQHHY4HQTZ0MFIYK6UJYI3CMX65GT", "current_trial": 6, "dateTime": 1509477408833, "trialdata": {"rt": 109035, "key_press": 32, "type": "INSTRUCTIONS", "trial_type": "text", "trial_index": 6, "time_elapsed": 205631, "internal_node_id": "0.0-6.0"}}, {"uniqueid": "MTK0184:3EQHHY4HQTZ0MFIYK6UJYI3CMX65GT", "current_trial": 7, "dateTime": 1509477433099, "trialdata": {"rt": 24266, "key_press": 32, "type": "INSTRUCTIONS", "trial_type": "text", "trial_index": 7, "time_elapsed": 229897, "internal_node_id": "0.0-7.0"}}, {"uniqueid": "MTK0184:3EQHHY4HQTZ0MFIYK6UJYI3CMX65GT", "current_trial": 8, "dateTime": 1509477451881, "trialdata": {"rt": 18781, "key_press": 32, "type": "INSTRUCTIONS", "trial_type": "text", "trial_index": 8, "time_elapsed": 248679, "internal_node_id": "0.0-8.0"}}, {"uniqueid": "MTK0184:3EQHHY4HQTZ0MFIYK6UJYI3CMX65GT", "current_trial": 9, "dateTime": 1509477470939, "trialdata": {"rt": [4904, 9424, 15897], "responses": ["8", "14", "21"], "num1": [1, 5, 7, 6], "num2": [4, 8, 6, 3], "num3": [4, 1, 8, 7], "type": "DISTRACTOR", "conditions": [18, 1200, "v", 18000], "trial": 0, "trial_type": "math-distractor", "trial_index": 9, "time_elapsed": 267737, "internal_node_id": "0.0-9.0"}}, {"uniqueid": "MTK0184:3EQHHY4HQTZ0MFIYK6UJYI3CMX65GT", "current_trial": 10, "dateTime": 1509477473942, "trialdata": {"rt": -1, "stimulus": "<p id=\"stim\">10</p>", "key_press": -1, "trial_type": "single-stim", "trial_index": 10, "time_elapsed": 270740, "internal_node_id": "0.0-10.0-0.0"}}, {"uniqueid": "MTK0184:3EQHHY4HQTZ0MFIYK6UJYI3CMX65GT", "current_trial": 11, "dateTime": 1509477474944, "trialdata": {"rt": -1, "stimulus": "<p id=\"stim\">9</p>", "key_press": -1, "trial_type": "single-stim", "trial_index": 11, "time_elapsed": 271742, "internal_node_id": "0.0-10.0-1.0"}}, {"uniqueid": "MTK0184:3EQHHY4HQTZ0MFIYK6UJYI3CMX65GT", "current_trial": 12, "dateTime": 1509477475945, "trialdata": {"rt": -1, "stimulus": "<p id=\"stim\">8</p>", "key_press": -1, "trial_type": "single-stim", "trial_index": 12, "time_elapsed": 272743, "internal_node_id": "0.0-10.0-2.0"}}, {"uniqueid": "MTK0184:3EQHHY4HQTZ0MFIYK6UJYI3CMX65GT", "current_trial": 13, "dateTime": 1509477476946, "trialdata": {"rt": -1, "stimulus": "<p id=\"stim\">7</p>", "key_press": -1, "trial_type": "single-stim", "trial_index": 13, "time_elapsed": 273744, "internal_node_id": "0.0-10.0-3.0"}}, {"uniqueid": "MTK0184:3EQHHY4HQTZ0MFIYK6UJYI3CMX65GT", "current_trial": 14, "dateTime": 1509477477947, "trialdata": {"rt": -1, "stimulus": "<p id=\"stim\">6</p>", "key_press": -1, "trial_type": "single-stim", "trial_index": 14, "time_elapsed": 274745, "internal_node_id": "0.0-10.0-4.0"}}, {"uniqueid": "MTK0184:3EQHHY4HQTZ0MFIYK6UJYI3CMX65GT", "current_trial": 15, "dateTime": 1509477478949, "trialdata": {"rt": -1, "stimulus": "<p id=\"stim\">5</p>", "key_press": -1, "trial_type": "single-stim", "trial_index": 15, "time_elapsed": 275747, "internal_node_id": "0.0-10.0-5.0"}}, {"uniqueid": "MTK0184:3EQHHY4HQTZ0MFIYK6UJYI3CMX65GT", "current_trial": 16, "dateTime": 1509477479950, "trialdata": {"rt": -1, "stimulus": "<p id=\"stim\">4</p>", "key_press": -1, "trial_type": "single-stim", "trial_index": 16, "time_elapsed": 276748, "internal_node_id": "0.0-10.0-6.0"}}, {"uniqueid": "MTK0184:3EQHHY4HQTZ0MFIYK6UJYI3CMX65GT", "current_trial": 17, "dateTime": 1509477480951, "trialdata": {"rt": -1, "stimulus": "<p id=\"stim\">3</p>", "key_press": -1, "trial_type": "single-stim", "trial_index": 17, "time_elapsed": 277749, "internal_node_id": "0.0-10.0-7.0"}}, {"uniqueid": "MTK0184:3EQHHY4HQTZ0MFIYK6UJYI3CMX65GT", "current_trial": 18, "dateTime": 1509477481952, "trialdata": {"rt": -1, "stimulus": "<p id=\"stim\">2</p>", "key_press": -1, "trial_type": "single-stim", "trial_index": 18, "time_elapsed": 278750, "internal_node_id": "0.0-10.0-8.0"}}, {"uniqueid": "MTK0184:3EQHHY4HQTZ0MFIYK6UJYI3CMX65GT", "current_trial": 19, "dateTime": 1509477482954, "trialdata": {"rt": -1, "stimulus": "<p id=\"stim\">1</p>", "key_press": -1, "trial_type": "single-stim", "trial_index": 19, "time_elapsed": 279752, "internal_node_id": "0.0-10.0-9.0"}}, {"uniqueid": "MTK0184:3EQHHY4HQTZ0MFIYK6UJYI3CMX65GT", "current_trial": 20, "dateTime": 1509477484456, "trialdata": {"rt": -1, "stimulus": "<p id=\"stim\">+</p>", "key_press": -1, "type": "FIXATION", "trial_type": "single-stim", "trial_index": 20, "time_elapsed": 281254, "internal_node_id": "0.0-11.0-0.0"}}, {"uniqueid": "MTK0184:3EQHHY4HQTZ0MFIYK6UJYI3CMX65GT", "current_trial": 21, "dateTime": 1509477485657, "trialdata": {"rt": -1, "stimulus": "<p id=\"stim\">COOK</p>", "key_press": -1, "type": "PRES_VIS", "word": "cook", "wordID": 371, "conditions": [18, 1200, "v", 18000], "trial": 0, "serialpos": 0, "trial_type": "single-stim", "trial_index": 21, "time_elapsed": 282455, "internal_node_id": "0.0-12.0"}}, {"uniqueid": "MTK0184:3EQHHY4HQTZ0MFIYK6UJYI3CMX65GT", "current_trial": 22, "dateTime": 1509477488054, "trialdata": {"rt": -1, "stimulus": "<p id=\"stim\">MARS</p>", "key_press": -1, "type": "PRES_VIS", "word": "mars", "wordID": 872, "conditions": [18, 1200, "v", 18000], "trial": 0, "serialpos": 1, "trial_type": "single-stim", "trial_index": 22, "time_elapsed": 284852, "internal_node_id": "0.0-13.0"}}, {"uniqueid": "MTK0184:3EQHHY4HQTZ0MFIYK6UJYI3CMX65GT", "current_trial": 23, "dateTime": 1509477490449, "trialdata": {"rt": -1, "stimulus": "<p id=\"stim\">SHOVEL</p>", "key_press": -1, "type": "PRES_VIS", "word": "shovel", "wordID": 1294, "conditions": [18, 1200, "v", 18000], "trial": 0, "serialpos": 2, "trial_type": "single-stim", "trial_index": 23, "time_elapsed": 287247, "internal_node_id": "0.0-14.0"}}, {"uniqueid": "MTK0184:3EQHHY4HQTZ0MFIYK6UJYI3CMX65GT", "current_trial": 24, "dateTime": 1509477492757, "trialdata": {"rt": -1, "stimulus": "<p id=\"stim\">PARSLEY</p>", "key_press": -1, "type": "PRES_VIS", "word": "parsley", "wordID": 1015, "conditions": [18, 1200, "v", 18000], "trial": 0, "serialpos": 3, "trial_type": "single-stim", "trial_index": 24, "time_elapsed": 289554, "internal_node_id": "0.0-15.0"}}, {"uniqueid": "MTK0184:3EQHHY4HQTZ0MFIYK6UJYI3CMX65GT", "current_trial": 25, "dateTime": 1509477494976, "trialdata": {"rt": -1, "stimulus": "<p id=\"stim\">SCALLOP</p>", "key_press": -1, "type": "PRES_VIS", "word": "scallop", "wordID": 1241, "conditions": [18, 1200, "v", 18000], "trial": 0, "serialpos": 4, "trial_type": "single-stim", "trial_index": 25, "time_elapsed": 291774, "internal_node_id": "0.0-16.0"}}, {"uniqueid": "MTK0184:3EQHHY4HQTZ0MFIYK6UJYI3CMX65GT", "current_trial": 26, "dateTime": 1509477497330, "trialdata": {"rt": -1, "stimulus": "<p id=\"stim\">GLOBE</p>", "key_press": -1, "type": "PRES_VIS", "word": "globe", "wordID": 640, "conditions": [18, 1200, "v", 18000], "trial": 0, "serialpos": 5, "trial_type": "single-stim", "trial_index": 26, "time_elapsed": 294128, "internal_node_id": "0.0-17.0"}}, {"uniqueid": "MTK0184:3EQHHY4HQTZ0MFIYK6UJYI3CMX65GT", "current_trial": 27, "dateTime": 1509477499376, "trialdata": {"rt": -1, "stimulus": "<p id=\"stim\">SILK</p>", "key_press": -1, "type": "PRES_VIS", "word": "silk", "wordID": 1306, "conditions": [18, 1200, "v", 18000], "trial": 0, "serialpos": 6, "trial_type": "single-stim", "trial_index": 27, "time_elapsed": 296174, "internal_node_id": "0.0-18.0"}}, {"uniqueid": "MTK0184:3EQHHY4HQTZ0MFIYK6UJYI3CMX65GT", "current_trial": 28, "dateTime": 1509477501682, "trialdata": {"rt": -1, "stimulus": "<p id=\"stim\">ACTRESS</p>", "key_press": -1, "type": "PRES_VIS", "word": "actress", "wordID": 5, "conditions": [18, 1200, "v", 18000], "trial": 0, "serialpos": 7, "trial_type": "single-stim", "trial_index": 28, "time_elapsed": 298480, "internal_node_id": "0.0-19.0"}}, {"uniqueid": "MTK0184:3EQHHY4HQTZ0MFIYK6UJYI3CMX65GT", "current_trial": 29, "dateTime": 1509477503697, "trialdata": {"rt": -1, "stimulus": "<p id=\"stim\">GRAPE</p>", "key_press": -1, "type": "PRES_VIS", "word": "grape", "wordID": 653, "conditions": [18, 1200, "v", 18000], "trial": 0, "serialpos": 8, "trial_type": "single-stim", "trial_index": 29, "time_elapsed": 300495, "internal_node_id": "0.0-20.0"}}, {"uniqueid": "MTK0184:3EQHHY4HQTZ0MFIYK6UJYI3CMX65GT", "current_trial": 30, "dateTime": 1509477505811, "trialdata": {"rt": -1, "stimulus": "<p id=\"stim\">HAWK</p>", "key_press": -1, "type": "PRES_VIS", "word": "hawk", "wordID": 691, "conditions": [18, 1200, "v", 18000], "trial": 0, "serialpos": 9, "trial_type": "single-stim", "trial_index": 30, "time_elapsed": 302609, "internal_node_id": "0.0-21.0"}}, {"uniqueid": "MTK0184:3EQHHY4HQTZ0MFIYK6UJYI3CMX65GT", "current_trial": 31, "dateTime": 1509477508048, "trialdata": {"rt": -1, "stimulus": "<p id=\"stim\">CASKET</p>", "key_press": -1, "type": "PRES_VIS", "word": "casket", "wordID": 254, "conditions": [18, 1200, "v", 18000], "trial": 0, "serialpos": 10, "trial_type": "single-stim", "trial_index": 31, "time_elapsed": 304846, "internal_node_id": "0.0-22.0"}}, {"uniqueid": "MTK0184:3EQHHY4HQTZ0MFIYK6UJYI3CMX65GT", "current_trial": 32, "dateTime": 1509477510127, "trialdata": {"rt": -1, "stimulus": "<p id=\"stim\">STATUE</p>", "key_press": -1, "type": "PRES_VIS", "word": "statue", "wordID": 1373, "conditions": [18, 1200, "v", 18000], "trial": 0, "serialpos": 11, "trial_type": "single-stim", "trial_index": 32, "time_elapsed": 306925, "internal_node_id": "0.0-23.0"}}, {"uniqueid": "MTK0184:3EQHHY4HQTZ0MFIYK6UJYI3CMX65GT", "current_trial": 33, "dateTime": 1509477512357, "trialdata": {"rt": -1, "stimulus": "<p id=\"stim\">SEAL</p>", "key_press": -1, "type": "PRES_VIS", "word": "seal", "wordID": 1261, "conditions": [18, 1200, "v", 18000], "trial": 0, "serialpos": 12, "trial_type": "single-stim", "trial_index": 33, "time_elapsed": 309155, "internal_node_id": "0.0-24.0"}}, {"uniqueid": "MTK0184:3EQHHY4HQTZ0MFIYK6UJYI3CMX65GT", "current_trial": 34, "dateTime": 1509477514622, "trialdata": {"rt": -1, "stimulus": "<p id=\"stim\">PLAZA</p>", "key_press": -1, "type": "PRES_VIS", "word": "plaza", "wordID": 1087, "conditions": [18, 1200, "v", 18000], "trial": 0, "serialpos": 13, "trial_type": "single-stim", "trial_index": 34, "time_elapsed": 311420, "internal_node_id": "0.0-25.0"}}, {"uniqueid": "MTK0184:3EQHHY4HQTZ0MFIYK6UJYI3CMX65GT", "current_trial": 35, "dateTime": 1509477516701, "trialdata": {"rt": -1, "stimulus": "<p id=\"stim\">JELLY</p>", "key_press": -1, "type": "PRES_VIS", "word": "jelly", "wordID": 754, "conditions": [18, 1200, "v", 18000], "trial": 0, "serialpos": 14, "trial_type": "single-stim", "trial_index": 35, "time_elapsed": 313499, "internal_node_id": "0.0-26.0"}}, {"uniqueid": "MTK0184:3EQHHY4HQTZ0MFIYK6UJYI3CMX65GT", "current_trial": 36, "dateTime": 1509477518849, "trialdata": {"rt": -1, "stimulus": "<p id=\"stim\">DASHBOARD</p>", "key_press": -1, "type": "PRES_VIS", "word": "dashboard", "wordID": 440, "conditions": [18, 1200, "v", 18000], "trial": 0, "serialpos": 15, "trial_type": "single-stim", "trial_index": 36, "time_elapsed": 315647, "internal_node_id": "0.0-27.0"}}, {"uniqueid": "MTK0184:3EQHHY4HQTZ0MFIYK6UJYI3CMX65GT", "current_trial": 37, "dateTime": 1509477521060, "trialdata": {"rt": -1, "stimulus": "<p id=\"stim\">TORTOISE</p>", "key_press": -1, "type": "PRES_VIS", "word": "tortoise", "wordID": 1485, "conditions": [18, 1200, "v", 18000], "trial": 0, "serialpos": 16, "trial_type": "single-stim", "trial_index": 37, "time_elapsed": 317858, "internal_node_id": "0.0-28.0"}}, {"uniqueid": "MTK0184:3EQHHY4HQTZ0MFIYK6UJYI3CMX65GT", "current_trial": 38, "dateTime": 1509477523248, "trialdata": {"rt": -1, "stimulus": "<p id=\"stim\">SALMON</p>", "key_press": -1, "type": "PRES_VIS", "word": "salmon", "wordID": 1226, "conditions": [18, 1200, "v", 18000], "trial": 0, "serialpos": 17, "trial_type": "single-stim", "trial_index": 38, "time_elapsed": 320046, "internal_node_id": "0.0-29.0"}}, {"uniqueid": "MTK0184:3EQHHY4HQTZ0MFIYK6UJYI3CMX65GT", "current_trial": 39, "dateTime": 1509477525474, "trialdata": {"rt": -1, "stimulus": "", "key_press": -1, "type": "PRE_RECALL_DELAY", "trial_type": "single-stim", "trial_index": 39, "time_elapsed": 322272, "internal_node_id": "0.0-30.0-0.0"}}, {"uniqueid": "MTK0184:3EQHHY4HQTZ0MFIYK6UJYI3CMX65GT", "current_trial": 40, "dateTime": 1509477525985, "trialdata": {"rt": -1000, "stimulus": "/static/audio/400Hz.wav", "key_press": -1, "type": "PRE_RECALL_ALERT", "trial_type": "single-audio", "trial_index": 40, "time_elapsed": 322783, "internal_node_id": "0.0-31.0"}}, {"uniqueid": "MTK0184:3EQHHY4HQTZ0MFIYK6UJYI3CMX65GT", "current_trial": 41, "dateTime": 1509477585988, "trialdata": {"rt": [6765, 9380, 11830, 13885, 17713, 20426, 32098, 42334], "recwords": ["tortise", "shell", "scallop", "mars", "shelf", "mars", "cook", "bookshelf"], "type": "FREE_RECALL", "conditions": [18, 1200, "v", 18000], "trial": 0, "trial_type": "free-recall", "trial_index": 41, "time_elapsed": 382785, "internal_node_id": "0.0-32.0-0.0"}}, {"uniqueid": "MTK0184:3EQHHY4HQTZ0MFIYK6UJYI3CMX65GT", "current_trial": 42, "dateTime": 1509477593129, "trialdata": {"rt": 5139, "key_press": 32, "type": "INSTRUCTIONS", "trial_type": "text", "trial_index": 42, "time_elapsed": 389927, "internal_node_id": "0.0-33.0"}}, {"uniqueid": "MTK0184:3EQHHY4HQTZ0MFIYK6UJYI3CMX65GT", "current_trial": 43, "dateTime": 1509477613132, "trialdata": {"rt": [2570, 5756, 8637, 12228, 15287], "responses": ["8", "10", "12", "14", "9"], "num1": [1, 1, 4, 7, 1, 3], "num2": [6, 2, 5, 2, 6, 8], "num3": [1, 7, 3, 5, 2, 3], "type": "DISTRACTOR", "conditions": [18, 1200, "a", 18000], "trial": 1, "trial_type": "math-distractor", "trial_index": 43, "time_elapsed": 409930, "internal_node_id": "0.0-34.0"}}, {"uniqueid": "MTK0184:3EQHHY4HQTZ0MFIYK6UJYI3CMX65GT", "current_trial": 44, "dateTime": 1509477616134, "trialdata": {"rt": -1, "stimulus": "<p id=\"stim\">10</p>", "key_press": -1, "trial_type": "single-stim", "trial_index": 44, "time_elapsed": 412932, "internal_node_id": "0.0-35.0-0.0"}}, {"uniqueid": "MTK0184:3EQHHY4HQTZ0MFIYK6UJYI3CMX65GT", "current_trial": 45, "dateTime": 1509477617136, "trialdata": {"rt": -1, "stimulus": "<p id=\"stim\">9</p>", "key_press": -1, "trial_type": "single-stim", "trial_index": 45, "time_elapsed": 413934, "internal_node_id": "0.0-35.0-1.0"}}, {"uniqueid": "MTK0184:3EQHHY4HQTZ0MFIYK6UJYI3CMX65GT", "current_trial": 46, "dateTime": 1509477618137, "trialdata": {"rt": -1, "stimulus": "<p id=\"stim\">8</p>", "key_press": -1, "trial_type": "single-stim", "trial_index": 46, "time_elapsed": 414935, "internal_node_id": "0.0-35.0-2.0"}}, {"uniqueid": "MTK0184:3EQHHY4HQTZ0MFIYK6UJYI3CMX65GT", "current_trial": 47, "dateTime": 1509477619140, "trialdata": {"rt": -1, "stimulus": "<p id=\"stim\">7</p>", "key_press": -1, "trial_type": "single-stim", "trial_index": 47, "time_elapsed": 415938, "internal_node_id": "0.0-35.0-3.0"}}, {"uniqueid": "MTK0184:3EQHHY4HQTZ0MFIYK6UJYI3CMX65GT", "current_trial": 48, "dateTime": 1509477620142, "trialdata": {"rt": -1, "stimulus": "<p id=\"stim\">6</p>", "key_press": -1, "trial_type": "single-stim", "trial_index": 48, "time_elapsed": 416940, "internal_node_id": "0.0-35.0-4.0"}}, {"uniqueid": "MTK0184:3EQHHY4HQTZ0MFIYK6UJYI3CMX65GT", "current_trial": 49, "dateTime": 1509477621143, "trialdata": {"rt": -1, "stimulus": "<p id=\"stim\">5</p>", "key_press": -1, "trial_type": "single-stim", "trial_index": 49, "time_elapsed": 417941, "internal_node_id": "0.0-35.0-5.0"}}, {"uniqueid": "MTK0184:3EQHHY4HQTZ0MFIYK6UJYI3CMX65GT", "current_trial": 50, "dateTime": 1509477622145, "trialdata": {"rt": -1, "stimulus": "<p id=\"stim\">4</p>", "key_press": -1, "trial_type": "single-stim", "trial_index": 50, "time_elapsed": 418943, "internal_node_id": "0.0-35.0-6.0"}}, {"uniqueid": "MTK0184:3EQHHY4HQTZ0MFIYK6UJYI3CMX65GT", "current_trial": 51, "dateTime": 1509477623146, "trialdata": {"rt": -1, "stimulus": "<p id=\"stim\">3</p>", "key_press": -1, "trial_type": "single-stim", "trial_index": 51, "time_elapsed": 419944, "internal_node_id": "0.0-35.0-7.0"}}, {"uniqueid": "MTK0184:3EQHHY4HQTZ0MFIYK6UJYI3CMX65GT", "current_trial": 52, "dateTime": 1509477624147, "trialdata": {"rt": -1, "stimulus": "<p id=\"stim\">2</p>", "key_press": -1, "trial_type": "single-stim", "trial_index": 52, "time_elapsed": 420945, "internal_node_id": "0.0-35.0-8.0"}}, {"uniqueid": "MTK0184:3EQHHY4HQTZ0MFIYK6UJYI3CMX65GT", "current_trial": 53, "dateTime": 1509477625149, "trialdata": {"rt": -1, "stimulus": "<p id=\"stim\">1</p>", "key_press": -1, "trial_type": "single-stim", "trial_index": 53, "time_elapsed": 421947, "internal_node_id": "0.0-35.0-9.0"}}, {"uniqueid": "MTK0184:3EQHHY4HQTZ0MFIYK6UJYI3CMX65GT", "current_trial": 54, "dateTime": 1509477626650, "trialdata": {"rt": -1, "stimulus": "<p id=\"stim\">+</p>", "key_press": -1, "type": "FIXATION", "trial_type": "single-stim", "trial_index": 54, "time_elapsed": 423448, "internal_node_id": "0.0-36.0-0.0"}}, {"uniqueid": "MTK0184:3EQHHY4HQTZ0MFIYK6UJYI3CMX65GT", "current_trial": 55, "dateTime": 1509477628688, "trialdata": {"rt": -1000, "stimulus": "/static/audio/wordpool/SHELF.wav", "key_press": -1, "type": "PRES_AUD", "word": "shelf", "wordID": 1279, "conditions": [18, 1200, "a", 18000], "trial": 1, "serialpos": 0, "trial_type": "single-audio", "trial_index": 55, "time_elapsed": 425486, "internal_node_id": "0.0-37.0"}}, {"uniqueid": "MTK0184:3EQHHY4HQTZ0MFIYK6UJYI3CMX65GT", "current_trial": 56, "dateTime": 1509477630775, "trialdata": {"rt": -1000, "stimulus": "/static/audio/wordpool/XEROX.wav", "key_press": -1, "type": "PRES_AUD", "word": "xerox", "wordID": 1627, "conditions": [18, 1200, "a", 18000], "trial": 1, "serialpos": 1, "trial_type": "single-audio", "trial_index": 56, "time_elapsed": 427572, "internal_node_id": "0.0-38.0"}}, {"uniqueid": "MTK0184:3EQHHY4HQTZ0MFIYK6UJYI3CMX65GT", "current_trial": 57, "dateTime": 1509477632925, "trialdata": {"rt": -1000, "stimulus": "/static/audio/wordpool/AWARD.wav", "key_press": -1, "type": "PRES_AUD", "word": "award", "wordID": 62, "conditions": [18, 1200, "a", 18000], "trial": 1, "serialpos": 2, "trial_type": "single-audio", "trial_index": 57, "time_elapsed": 429723, "internal_node_id": "0.0-39.0"}}, {"uniqueid": "MTK0184:3EQHHY4HQTZ0MFIYK6UJYI3CMX65GT", "current_trial": 58, "dateTime": 1509477635002, "trialdata": {"rt": -1000, "stimulus": "/static/audio/wordpool/PATIENT.wav", "key_press": -1, "type": "PRES_AUD", "word": "patient", "wordID": 1023, "conditions": [18, 1200, "a", 18000], "trial": 1, "serialpos": 3, "trial_type": "single-audio", "trial_index": 58, "time_elapsed": 431799, "internal_node_id": "0.0-40.0"}}, {"uniqueid": "MTK0184:3EQHHY4HQTZ0MFIYK6UJYI3CMX65GT", "current_trial": 59, "dateTime": 1509477637245, "trialdata": {"rt": -1000, "stimulus": "/static/audio/wordpool/SCISSORS.wav", "key_press": -1, "type": "PRES_AUD", "word": "scissors", "wordID": 1249, "conditions": [18, 1200, "a", 18000], "trial": 1, "serialpos": 4, "trial_type": "single-audio", "trial_index": 59, "time_elapsed": 434043, "internal_node_id": "0.0-41.0"}}, {"uniqueid": "MTK0184:3EQHHY4HQTZ0MFIYK6UJYI3CMX65GT", "current_trial": 60, "dateTime": 1509477639466, "trialdata": {"rt": -1000, "stimulus": "/static/audio/wordpool/STAR.wav", "key_press": -1, "type": "PRES_AUD", "word": "star", "wordID": 1372, "conditions": [18, 1200, "a", 18000], "trial": 1, "serialpos": 5, "trial_type": "single-audio", "trial_index": 60, "time_elapsed": 436264, "internal_node_id": "0.0-42.0"}}, {"uniqueid": "MTK0184:3EQHHY4HQTZ0MFIYK6UJYI3CMX65GT", "current_trial": 61, "dateTime": 1509477641717, "trialdata": {"rt": -1000, "stimulus": "/static/audio/wordpool/PEBBLE.wav", "key_press": -1, "type": "PRES_AUD", "word": "pebble", "wordID": 1034, "conditions": [18, 1200, "a", 18000], "trial": 1, "serialpos": 6, "trial_type": "single-audio", "trial_index": 61, "time_elapsed": 438515, "internal_node_id": "0.0-43.0"}}, {"uniqueid": "MTK0184:3EQHHY4HQTZ0MFIYK6UJYI3CMX65GT", "current_trial": 62, "dateTime": 1509477643971, "trialdata": {"rt": -1000, "stimulus": "/static/audio/wordpool/FOOTBALL.wav", "key_press": -1, "type": "PRES_AUD", "word": "football", "wordID": 590, "conditions": [18, 1200, "a", 18000], "trial": 1, "serialpos": 7, "trial_type": "single-audio", "trial_index": 62, "time_elapsed": 440769, "internal_node_id": "0.0-44.0"}}, {"uniqueid": "MTK0184:3EQHHY4HQTZ0MFIYK6UJYI3CMX65GT", "current_trial": 63, "dateTime": 1509477646365, "trialdata": {"rt": -1000, "stimulus": "/static/audio/wordpool/CIGAR.wav", "key_press": -1, "type": "PRES_AUD", "word": "cigar", "wordID": 307, "conditions": [18, 1200, "a", 18000], "trial": 1, "serialpos": 8, "trial_type": "single-audio", "trial_index": 63, "time_elapsed": 443163, "internal_node_id": "0.0-45.0"}}, {"uniqueid": "MTK0184:3EQHHY4HQTZ0MFIYK6UJYI3CMX65GT", "current_trial": 64, "dateTime": 1509477648429, "trialdata": {"rt": -1000, "stimulus": "/static/audio/wordpool/FEMALE.wav", "key_press": -1, "type": "PRES_AUD", "word": "female", "wordID": 558, "conditions": [18, 1200, "a", 18000], "trial": 1, "serialpos": 9, "trial_type": "single-audio", "trial_index": 64, "time_elapsed": 445227, "internal_node_id": "0.0-46.0"}}, {"uniqueid": "MTK0184:3EQHHY4HQTZ0MFIYK6UJYI3CMX65GT", "current_trial": 65, "dateTime": 1509477650457, "trialdata": {"rt": -1000, "stimulus": "/static/audio/wordpool/COTTAGE.wav", "key_press": -1, "type": "PRES_AUD", "word": "cottage", "wordID": 383, "conditions": [18, 1200, "a", 18000], "trial": 1, "serialpos": 10, "trial_type": "single-audio", "trial_index": 65, "time_elapsed": 447255, "internal_node_id": "0.0-47.0"}}, {"uniqueid": "MTK0184:3EQHHY4HQTZ0MFIYK6UJYI3CMX65GT", "current_trial": 66, "dateTime": 1509477652793, "trialdata": {"rt": -1000, "stimulus": "/static/audio/wordpool/FILM.wav", "key_press": -1, "type": "PRES_AUD", "word": "film", "wordID": 564, "conditions": [18, 1200, "a", 18000], "trial": 1, "serialpos": 11, "trial_type": "single-audio", "trial_index": 66, "time_elapsed": 449591, "internal_node_id": "0.0-48.0"}}, {"uniqueid": "MTK0184:3EQHHY4HQTZ0MFIYK6UJYI3CMX65GT", "current_trial": 67, "dateTime": 1509477654846, "trialdata": {"rt": -1000, "stimulus": "/static/audio/wordpool/SKILLET.wav", "key_press": -1, "type": "PRES_AUD", "word": "skillet", "wordID": 1316, "conditions": [18, 1200, "a", 18000], "trial": 1, "serialpos": 12, "trial_type": "single-audio", "trial_index": 67, "time_elapsed": 451644, "internal_node_id": "0.0-49.0"}}, {"uniqueid": "MTK0184:3EQHHY4HQTZ0MFIYK6UJYI3CMX65GT", "current_trial": 68, "dateTime": 1509477657115, "trialdata": {"rt": -1000, "stimulus": "/static/audio/wordpool/DRINK.wav", "key_press": -1, "type": "PRES_AUD", "word": "drink", "wordID": 497, "conditions": [18, 1200, "a", 18000], "trial": 1, "serialpos": 13, "trial_type": "single-audio", "trial_index": 68, "time_elapsed": 453912, "internal_node_id": "0.0-50.0"}}, {"uniqueid": "MTK0184:3EQHHY4HQTZ0MFIYK6UJYI3CMX65GT", "current_trial": 69, "dateTime": 1509477659423, "trialdata": {"rt": -1000, "stimulus": "/static/audio/wordpool/HELMET.wav", "key_press": -1, "type": "PRES_AUD", "word": "helmet", "wordID": 701, "conditions": [18, 1200, "a", 18000], "trial": 1, "serialpos": 14, "trial_type": "single-audio", "trial_index": 69, "time_elapsed": 456221, "internal_node_id": "0.0-51.0"}}, {"uniqueid": "MTK0184:3EQHHY4HQTZ0MFIYK6UJYI3CMX65GT", "current_trial": 70, "dateTime": 1509477661524, "trialdata": {"rt": -1000, "stimulus": "/static/audio/wordpool/WORKER.wav", "key_press": -1, "type": "PRES_AUD", "word": "worker", "wordID": 1620, "conditions": [18, 1200, "a", 18000], "trial": 1, "serialpos": 15, "trial_type": "single-audio", "trial_index": 70, "time_elapsed": 458322, "internal_node_id": "0.0-52.0"}}, {"uniqueid": "MTK0184:3EQHHY4HQTZ0MFIYK6UJYI3CMX65GT", "current_trial": 71, "dateTime": 1509477663640, "trialdata": {"rt": -1000, "stimulus": "/static/audio/wordpool/SWIMMER.wav", "key_press": -1, "type": "PRES_AUD", "word": "swimmer", "wordID": 1419, "conditions": [18, 1200, "a", 18000], "trial": 1, "serialpos": 16, "trial_type": "single-audio", "trial_index": 71, "time_elapsed": 460438, "internal_node_id": "0.0-53.0"}}, {"uniqueid": "MTK0184:3EQHHY4HQTZ0MFIYK6UJYI3CMX65GT", "current_trial": 72, "dateTime": 1509477665668, "trialdata": {"rt": -1000, "stimulus": "/static/audio/wordpool/CASHEW.wav", "key_press": -1, "type": "PRES_AUD", "word": "cashew", "wordID": 252, "conditions": [18, 1200, "a", 18000], "trial": 1, "serialpos": 17, "trial_type": "single-audio", "trial_index": 72, "time_elapsed": 462466, "internal_node_id": "0.0-54.0"}}, {"uniqueid": "MTK0184:3EQHHY4HQTZ0MFIYK6UJYI3CMX65GT", "current_trial": 73, "dateTime": 1509477666998, "trialdata": {"rt": -1, "stimulus": "", "key_press": -1, "type": "PRE_RECALL_DELAY", "trial_type": "single-stim", "trial_index": 73, "time_elapsed": 463796, "internal_node_id": "0.0-55.0-0.0"}}, {"uniqueid": "MTK0184:3EQHHY4HQTZ0MFIYK6UJYI3CMX65GT", "current_trial": 74, "dateTime": 1509477667500, "trialdata": {"rt": -1000, "stimulus": "/static/audio/400Hz.wav", "key_press": -1, "type": "PRE_RECALL_ALERT", "trial_type": "single-audio", "trial_index": 74, "time_elapsed": 464298, "internal_node_id": "0.0-56.0"}}, {"uniqueid": "MTK0184:3EQHHY4HQTZ0MFIYK6UJYI3CMX65GT", "current_trial": 75, "dateTime": 1509477727503, "trialdata": {"rt": [5398, 10330, 13843, 19004, 21024, 25244, 29708, 33817, 38578, 42211, 49361, 58290], "recwords": ["zerox", "patient", "film", "pebble", "star", "shelf", "cigar", "scissors", "film", "award", "football", "pan"], "type": "FREE_RECALL", "conditions": [18, 1200, "a", 18000], "trial": 1, "trial_type": "free-recall", "trial_index": 75, "time_elapsed": 524300, "internal_node_id": "0.0-57.0-0.0"}}, {"uniqueid": "MTK0184:3EQHHY4HQTZ0MFIYK6UJYI3CMX65GT", "current_trial": 76, "dateTime": 1509477754101, "trialdata": {"rt": 24596, "key_press": 32, "type": "INSTRUCTIONS", "trial_type": "text", "trial_index": 76, "time_elapsed": 550899, "internal_node_id": "0.0-58.0"}}, {"uniqueid": "MTK0184:3EQHHY4HQTZ0MFIYK6UJYI3CMX65GT", "current_trial": 77, "dateTime": 1509477767105, "trialdata": {"rt": [7786, 11387], "responses": ["24", "14"], "num1": [9, 1, 5], "num2": [8, 5, 3], "num3": [7, 8, 2], "type": "DISTRACTOR", "conditions": [12, 800, "a", 12000], "trial": 2, "trial_type": "math-distractor", "trial_index": 77, "time_elapsed": 563903, "internal_node_id": "0.0-59.0"}}, {"uniqueid": "MTK0184:3EQHHY4HQTZ0MFIYK6UJYI3CMX65GT", "current_trial": 78, "dateTime": 1509477770107, "trialdata": {"rt": -1, "stimulus": "<p id=\"stim\">10</p>", "key_press": -1, "trial_type": "single-stim", "trial_index": 78, "time_elapsed": 566904, "internal_node_id": "0.0-60.0-0.0"}}, {"uniqueid": "MTK0184:3EQHHY4HQTZ0MFIYK6UJYI3CMX65GT", "current_trial": 79, "dateTime": 1509477771108, "trialdata": {"rt": -1, "stimulus": "<p id=\"stim\">9</p>", "key_press": -1, "trial_type": "single-stim", "trial_index": 79, "time_elapsed": 567905, "internal_node_id": "0.0-60.0-1.0"}}, {"uniqueid": "MTK0184:3EQHHY4HQTZ0MFIYK6UJYI3CMX65GT", "current_trial": 80, "dateTime": 1509477772109, "trialdata": {"rt": -1, "stimulus": "<p id=\"stim\">8</p>", "key_press": -1, "trial_type": "single-stim", "trial_index": 80, "time_elapsed": 568907, "internal_node_id": "0.0-60.0-2.0"}}, {"uniqueid": "MTK0184:3EQHHY4HQTZ0MFIYK6UJYI3CMX65GT", "current_trial": 81, "dateTime": 1509477773110, "trialdata": {"rt": -1, "stimulus": "<p id=\"stim\">7</p>", "key_press": -1, "trial_type": "single-stim", "trial_index": 81, "time_elapsed": 569908, "internal_node_id": "0.0-60.0-3.0"}}, {"uniqueid": "MTK0184:3EQHHY4HQTZ0MFIYK6UJYI3CMX65GT", "current_trial": 82, "dateTime": 1509477774111, "trialdata": {"rt": -1, "stimulus": "<p id=\"stim\">6</p>", "key_press": -1, "trial_type": "single-stim", "trial_index": 82, "time_elapsed": 570909, "internal_node_id": "0.0-60.0-4.0"}}, {"uniqueid": "MTK0184:3EQHHY4HQTZ0MFIYK6UJYI3CMX65GT", "current_trial": 83, "dateTime": 1509477775112, "trialdata": {"rt": -1, "stimulus": "<p id=\"stim\">5</p>", "key_press": -1, "trial_type": "single-stim", "trial_index": 83, "time_elapsed": 571910, "internal_node_id": "0.0-60.0-5.0"}}, {"uniqueid": "MTK0184:3EQHHY4HQTZ0MFIYK6UJYI3CMX65GT", "current_trial": 84, "dateTime": 1509477776188, "trialdata": {"rt": -1, "stimulus": "<p id=\"stim\">4</p>", "key_press": -1, "trial_type": "single-stim", "trial_index": 84, "time_elapsed": 572985, "internal_node_id": "0.0-60.0-6.0"}}, {"uniqueid": "MTK0184:3EQHHY4HQTZ0MFIYK6UJYI3CMX65GT", "current_trial": 85, "dateTime": 1509477777190, "trialdata": {"rt": -1, "stimulus": "<p id=\"stim\">3</p>", "key_press": -1, "trial_type": "single-stim", "trial_index": 85, "time_elapsed": 573988, "internal_node_id": "0.0-60.0-7.0"}}, {"uniqueid": "MTK0184:3EQHHY4HQTZ0MFIYK6UJYI3CMX65GT", "current_trial": 86, "dateTime": 1509477778191, "trialdata": {"rt": -1, "stimulus": "<p id=\"stim\">2</p>", "key_press": -1, "trial_type": "single-stim", "trial_index": 86, "time_elapsed": 574988, "internal_node_id": "0.0-60.0-8.0"}}, {"uniqueid": "MTK0184:3EQHHY4HQTZ0MFIYK6UJYI3CMX65GT", "current_trial": 87, "dateTime": 1509477779192, "trialdata": {"rt": -1, "stimulus": "<p id=\"stim\">1</p>", "key_press": -1, "trial_type": "single-stim", "trial_index": 87, "time_elapsed": 575990, "internal_node_id": "0.0-60.0-9.0"}}, {"uniqueid": "MTK0184:3EQHHY4HQTZ0MFIYK6UJYI3CMX65GT", "current_trial": 88, "dateTime": 1509477780693, "trialdata": {"rt": -1, "stimulus": "<p id=\"stim\">+</p>", "key_press": -1, "type": "FIXATION", "trial_type": "single-stim", "trial_index": 88, "time_elapsed": 577491, "internal_node_id": "0.0-61.0-0.0"}}, {"uniqueid": "MTK0184:3EQHHY4HQTZ0MFIYK6UJYI3CMX65GT", "current_trial": 89, "dateTime": 1509477782611, "trialdata": {"rt": -1000, "stimulus": "/static/audio/wordpool/BINDER.wav", "key_press": -1, "type": "PRES_AUD", "word": "binder", "wordID": 126, "conditions": [12, 800, "a", 12000], "trial": 2, "serialpos": 0, "trial_type": "single-audio", "trial_index": 89, "time_elapsed": 579409, "internal_node_id": "0.0-62.0"}}, {"uniqueid": "MTK0184:3EQHHY4HQTZ0MFIYK6UJYI3CMX65GT", "current_trial": 90, "dateTime": 1509477784500, "trialdata": {"rt": 670.6666666666479, "stimulus": "/static/audio/wordpool/LAVA.wav", "key_press": 175, "type": "PRES_AUD", "word": "lava", "wordID": 803, "conditions": [12, 800, "a", 12000], "trial": 2, "serialpos": 1, "trial_type": "single-audio", "trial_index": 90, "time_elapsed": 581298, "internal_node_id": "0.0-63.0"}}, {"uniqueid": "MTK0184:3EQHHY4HQTZ0MFIYK6UJYI3CMX65GT", "current_trial": 91, "dateTime": 1509477786201, "trialdata": {"rt": -1000, "stimulus": "/static/audio/wordpool/ROD.wav", "key_press": -1, "type": "PRES_AUD", "word": "rod", "wordID": 1202, "conditions": [12, 800, "a", 12000], "trial": 2, "serialpos": 2, "trial_type": "single-audio", "trial_index": 91, "time_elapsed": 582998, "internal_node_id": "0.0-64.0"}}, {"uniqueid": "MTK0184:3EQHHY4HQTZ0MFIYK6UJYI3CMX65GT", "current_trial": 92, "dateTime": 1509477788201, "trialdata": {"rt": -1000, "stimulus": "/static/audio/wordpool/ROBBER.wav", "key_press": -1, "type": "PRES_AUD", "word": "robber", "wordID": 1196, "conditions": [12, 800, "a", 12000], "trial": 2, "serialpos": 3, "trial_type": "single-audio", "trial_index": 92, "time_elapsed": 584999, "internal_node_id": "0.0-65.0"}}, {"uniqueid": "MTK0184:3EQHHY4HQTZ0MFIYK6UJYI3CMX65GT", "current_trial": 93, "dateTime": 1509477789868, "trialdata": {"rt": -1000, "stimulus": "/static/audio/wordpool/THIEF.wav", "key_press": -1, "type": "PRES_AUD", "word": "thief", "wordID": 1455, "conditions": [12, 800, "a", 12000], "trial": 2, "serialpos": 4, "trial_type": "single-audio", "trial_index": 93, "time_elapsed": 586666, "internal_node_id": "0.0-66.0"}}, {"uniqueid": "MTK0184:3EQHHY4HQTZ0MFIYK6UJYI3CMX65GT", "current_trial": 94, "dateTime": 1509477791572, "trialdata": {"rt": -1000, "stimulus": "/static/audio/wordpool/BURGLAR.wav", "key_press": -1, "type": "PRES_AUD", "word": "burglar", "wordID": 199, "conditions": [12, 800, "a", 12000], "trial": 2, "serialpos": 5, "trial_type": "single-audio", "trial_index": 94, "time_elapsed": 588370, "internal_node_id": "0.0-67.0"}}, {"uniqueid": "MTK0184:3EQHHY4HQTZ0MFIYK6UJYI3CMX65GT", "current_trial": 95, "dateTime": 1509477793465, "trialdata": {"rt": -1000, "stimulus": "/static/audio/wordpool/STREAM.wav", "key_press": -1, "type": "PRES_AUD", "word": "stream", "wordID": 1391, "conditions": [12, 800, "a", 12000], "trial": 2, "serialpos": 6, "trial_type": "single-audio", "trial_index": 95, "time_elapsed": 590263, "internal_node_id": "0.0-68.0"}}, {"uniqueid": "MTK0184:3EQHHY4HQTZ0MFIYK6UJYI3CMX65GT", "current_trial": 96, "dateTime": 1509477795227, "trialdata": {"rt": -1000, "stimulus": "/static/audio/wordpool/SUSPECT.wav", "key_press": -1, "type": "PRES_AUD", "word": "suspect", "wordID": 1414, "conditions": [12, 800, "a", 12000], "trial": 2, "serialpos": 7, "trial_type": "single-audio", "trial_index": 96, "time_elapsed": 592025, "internal_node_id": "0.0-69.0"}}, {"uniqueid": "MTK0184:3EQHHY4HQTZ0MFIYK6UJYI3CMX65GT", "current_trial": 97, "dateTime": 1509477797001, "trialdata": {"rt": -1000, "stimulus": "/static/audio/wordpool/LEADER.wav", "key_press": -1, "type": "PRES_AUD", "word": "leader", "wordID": 806, "conditions": [12, 800, "a", 12000], "trial": 2, "serialpos": 8, "trial_type": "single-audio", "trial_index": 97, "time_elapsed": 593799, "internal_node_id": "0.0-70.0"}}, {"uniqueid": "MTK0184:3EQHHY4HQTZ0MFIYK6UJYI3CMX65GT", "current_trial": 98, "dateTime": 1509477798682, "trialdata": {"rt": -1000, "stimulus": "/static/audio/wordpool/NOMAD.wav", "key_press": -1, "type": "PRES_AUD", "word": "nomad", "wordID": 954, "conditions": [12, 800, "a", 12000], "trial": 2, "serialpos": 9, "trial_type": "single-audio", "trial_index": 98, "time_elapsed": 595480, "internal_node_id": "0.0-71.0"}}, {"uniqueid": "MTK0184:3EQHHY4HQTZ0MFIYK6UJYI3CMX65GT", "current_trial": 99, "dateTime": 1509477800510, "trialdata": {"rt": -1000, "stimulus": "/static/audio/wordpool/HIKER.wav", "key_press": -1, "type": "PRES_AUD", "word": "hiker", "wordID": 707, "conditions": [12, 800, "a", 12000], "trial": 2, "serialpos": 10, "trial_type": "single-audio", "trial_index": 99, "time_elapsed": 597308, "internal_node_id": "0.0-72.0"}}, {"uniqueid": "MTK0184:3EQHHY4HQTZ0MFIYK6UJYI3CMX65GT", "current_trial": 100, "dateTime": 1509477802408, "trialdata": {"rt": -1000, "stimulus": "/static/audio/wordpool/AGENT.wav", "key_press": -1, "type": "PRES_AUD", "word": "agent", "wordID": 9, "conditions": [12, 800, "a", 12000], "trial": 2, "serialpos": 11, "trial_type": "single-audio", "trial_index": 100, "time_elapsed": 599206, "internal_node_id": "0.0-73.0"}}, {"uniqueid": "MTK0184:3EQHHY4HQTZ0MFIYK6UJYI3CMX65GT", "current_trial": 101, "dateTime": 1509477803811, "trialdata": {"rt": -1, "stimulus": "", "key_press": -1, "type": "PRE_RECALL_DELAY", "trial_type": "single-stim", "trial_index": 101, "time_elapsed": 600609, "internal_node_id": "0.0-74.0-0.0"}}, {"uniqueid": "MTK0184:3EQHHY4HQTZ0MFIYK6UJYI3CMX65GT", "current_trial": 102, "dateTime": 1509477804318, "trialdata": {"rt": -1000, "stimulus": "/static/audio/400Hz.wav", "key_press": -1, "type": "PRE_RECALL_ALERT", "trial_type": "single-audio", "trial_index": 102, "time_elapsed": 601116, "internal_node_id": "0.0-75.0"}}, {"uniqueid": "MTK0184:3EQHHY4HQTZ0MFIYK6UJYI3CMX65GT", "current_trial": 103, "dateTime": 1509477864322, "trialdata": {"rt": [3734, 7676, 11406, 17779, 21381, 26551, 29889, 35170, 41178, 49740], "recwords": ["agent", "rod", "robber", "burgular", "stream", "leader", "stream", "hiker", "feet", "leader"], "type": "FREE_RECALL", "conditions": [12, 800, "a", 12000], "trial": 2, "trial_type": "free-recall", "trial_index": 103, "time_elapsed": 661118, "internal_node_id": "0.0-76.0-0.0"}}, {"uniqueid": "MTK0184:3EQHHY4HQTZ0MFIYK6UJYI3CMX65GT", "current_trial": 104, "dateTime": 1509477895388, "trialdata": {"rt": 29064, "key_press": 32, "type": "INSTRUCTIONS", "trial_type": "text", "trial_index": 104, "time_elapsed": 692186, "internal_node_id": "0.0-77.0"}}, {"uniqueid": "MTK0184:3EQHHY4HQTZ0MFIYK6UJYI3CMX65GT", "current_trial": 105, "dateTime": 1509477909391, "trialdata": {"rt": [6984, 10107], "responses": ["19", "17"], "num1": [8, 5, 6], "num2": [7, 5, 3], "num3": [4, 7, 4], "type": "DISTRACTOR", "conditions": [24, 800, "v", 12000], "trial": 3, "trial_type": "math-distractor", "trial_index": 105, "time_elapsed": 706189, "internal_node_id": "0.0-78.0"}}, {"uniqueid": "MTK0184:3EQHHY4HQTZ0MFIYK6UJYI3CMX65GT", "current_trial": 106, "dateTime": 1509477912393, "trialdata": {"rt": -1, "stimulus": "<p id=\"stim\">10</p>", "key_press": -1, "trial_type": "single-stim", "trial_index": 106, "time_elapsed": 709191, "internal_node_id": "0.0-79.0-0.0"}}, {"uniqueid": "MTK0184:3EQHHY4HQTZ0MFIYK6UJYI3CMX65GT", "current_trial": 107, "dateTime": 1509477913395, "trialdata": {"rt": -1, "stimulus": "<p id=\"stim\">9</p>", "key_press": -1, "trial_type": "single-stim", "trial_index": 107, "time_elapsed": 710193, "internal_node_id": "0.0-79.0-1.0"}}, {"uniqueid": "MTK0184:3EQHHY4HQTZ0MFIYK6UJYI3CMX65GT", "current_trial": 108, "dateTime": 1509477914396, "trialdata": {"rt": -1, "stimulus": "<p id=\"stim\">8</p>", "key_press": -1, "trial_type": "single-stim", "trial_index": 108, "time_elapsed": 711194, "internal_node_id": "0.0-79.0-2.0"}}, {"uniqueid": "MTK0184:3EQHHY4HQTZ0MFIYK6UJYI3CMX65GT", "current_trial": 109, "dateTime": 1509477915398, "trialdata": {"rt": -1, "stimulus": "<p id=\"stim\">7</p>", "key_press": -1, "trial_type": "single-stim", "trial_index": 109, "time_elapsed": 712196, "internal_node_id": "0.0-79.0-3.0"}}, {"uniqueid": "MTK0184:3EQHHY4HQTZ0MFIYK6UJYI3CMX65GT", "current_trial": 110, "dateTime": 1509477916402, "trialdata": {"rt": -1, "stimulus": "<p id=\"stim\">6</p>", "key_press": -1, "trial_type": "single-stim", "trial_index": 110, "time_elapsed": 713200, "internal_node_id": "0.0-79.0-4.0"}}, {"uniqueid": "MTK0184:3EQHHY4HQTZ0MFIYK6UJYI3CMX65GT", "current_trial": 111, "dateTime": 1509477917403, "trialdata": {"rt": -1, "stimulus": "<p id=\"stim\">5</p>", "key_press": -1, "trial_type": "single-stim", "trial_index": 111, "time_elapsed": 714201, "internal_node_id": "0.0-79.0-5.0"}}, {"uniqueid": "MTK0184:3EQHHY4HQTZ0MFIYK6UJYI3CMX65GT", "current_trial": 112, "dateTime": 1509477918405, "trialdata": {"rt": -1, "stimulus": "<p id=\"stim\">4</p>", "key_press": -1, "trial_type": "single-stim", "trial_index": 112, "time_elapsed": 715203, "internal_node_id": "0.0-79.0-6.0"}}, {"uniqueid": "MTK0184:3EQHHY4HQTZ0MFIYK6UJYI3CMX65GT", "current_trial": 113, "dateTime": 1509477919406, "trialdata": {"rt": -1, "stimulus": "<p id=\"stim\">3</p>", "key_press": -1, "trial_type": "single-stim", "trial_index": 113, "time_elapsed": 716204, "internal_node_id": "0.0-79.0-7.0"}}, {"uniqueid": "MTK0184:3EQHHY4HQTZ0MFIYK6UJYI3CMX65GT", "current_trial": 114, "dateTime": 1509477920407, "trialdata": {"rt": -1, "stimulus": "<p id=\"stim\">2</p>", "key_press": -1, "trial_type": "single-stim", "trial_index": 114, "time_elapsed": 717205, "internal_node_id": "0.0-79.0-8.0"}}, {"uniqueid": "MTK0184:3EQHHY4HQTZ0MFIYK6UJYI3CMX65GT", "current_trial": 115, "dateTime": 1509477921409, "trialdata": {"rt": -1, "stimulus": "<p id=\"stim\">1</p>", "key_press": -1, "trial_type": "single-stim", "trial_index": 115, "time_elapsed": 718207, "internal_node_id": "0.0-79.0-9.0"}}, {"uniqueid": "MTK0184:3EQHHY4HQTZ0MFIYK6UJYI3CMX65GT", "current_trial": 116, "dateTime": 1509477922910, "trialdata": {"rt": -1, "stimulus": "<p id=\"stim\">+</p>", "key_press": -1, "type": "FIXATION", "trial_type": "single-stim", "trial_index": 116, "time_elapsed": 719708, "internal_node_id": "0.0-80.0-0.0"}}, {"uniqueid": "MTK0184:3EQHHY4HQTZ0MFIYK6UJYI3CMX65GT", "current_trial": 117, "dateTime": 1509477923712, "trialdata": {"rt": -1, "stimulus": "<p id=\"stim\">CLAM</p>", "key_press": -1, "type": "PRES_VIS", "word": "clam", "wordID": 314, "conditions": [24, 800, "v", 12000], "trial": 3, "serialpos": 0, "trial_type": "single-stim", "trial_index": 117, "time_elapsed": 720510, "internal_node_id": "0.0-81.0"}}, {"uniqueid": "MTK0184:3EQHHY4HQTZ0MFIYK6UJYI3CMX65GT", "current_trial": 118, "dateTime": 1509477925558, "trialdata": {"rt": -1, "stimulus": "<p id=\"stim\">CRAB</p>", "key_press": -1, "type": "PRES_VIS", "word": "crab", "wordID": 396, "conditions": [24, 800, "v", 12000], "trial": 3, "serialpos": 1, "trial_type": "single-stim", "trial_index": 118, "time_elapsed": 722356, "internal_node_id": "0.0-82.0"}}, {"uniqueid": "MTK0184:3EQHHY4HQTZ0MFIYK6UJYI3CMX65GT", "current_trial": 119, "dateTime": 1509477927321, "trialdata": {"rt": -1, "stimulus": "<p id=\"stim\">SHIRT</p>", "key_press": -1, "type": "PRES_VIS", "word": "shirt", "wordID": 1286, "conditions": [24, 800, "v", 12000], "trial": 3, "serialpos": 2, "trial_type": "single-stim", "trial_index": 119, "time_elapsed": 724119, "internal_node_id": "0.0-83.0"}}, {"uniqueid": "MTK0184:3EQHHY4HQTZ0MFIYK6UJYI3CMX65GT", "current_trial": 120, "dateTime": 1509477929164, "trialdata": {"rt": -1, "stimulus": "<p id=\"stim\">PLAID</p>", "key_press": -1, "type": "PRES_VIS", "word": "plaid", "wordID": 1079, "conditions": [24, 800, "v", 12000], "trial": 3, "serialpos": 3, "trial_type": "single-stim", "trial_index": 120, "time_elapsed": 725962, "internal_node_id": "0.0-84.0"}}, {"uniqueid": "MTK0184:3EQHHY4HQTZ0MFIYK6UJYI3CMX65GT", "current_trial": 121, "dateTime": 1509477931050, "trialdata": {"rt": -1, "stimulus": "<p id=\"stim\">CLOTHES</p>", "key_press": -1, "type": "PRES_VIS", "word": "clothes", "wordID": 326, "conditions": [24, 800, "v", 12000], "trial": 3, "serialpos": 4, "trial_type": "single-stim", "trial_index": 121, "time_elapsed": 727848, "internal_node_id": "0.0-85.0"}}, {"uniqueid": "MTK0184:3EQHHY4HQTZ0MFIYK6UJYI3CMX65GT", "current_trial": 122, "dateTime": 1509477933004, "trialdata": {"rt": -1, "stimulus": "<p id=\"stim\">MISTER</p>", "key_press": -1, "type": "PRES_VIS", "word": "mister", "wordID": 900, "conditions": [24, 800, "v", 12000], "trial": 3, "serialpos": 5, "trial_type": "single-stim", "trial_index": 122, "time_elapsed": 729802, "internal_node_id": "0.0-86.0"}}, {"uniqueid": "MTK0184:3EQHHY4HQTZ0MFIYK6UJYI3CMX65GT", "current_trial": 123, "dateTime": 1509477934789, "trialdata": {"rt": -1, "stimulus": "<p id=\"stim\">LONDON</p>", "key_press": -1, "type": "PRES_VIS", "word": "london", "wordID": 842, "conditions": [24, 800, "v", 12000], "trial": 3, "serialpos": 6, "trial_type": "single-stim", "trial_index": 123, "time_elapsed": 731587, "internal_node_id": "0.0-87.0"}}, {"uniqueid": "MTK0184:3EQHHY4HQTZ0MFIYK6UJYI3CMX65GT", "current_trial": 124, "dateTime": 1509477936442, "trialdata": {"rt": -1, "stimulus": "<p id=\"stim\">MISSILE</p>", "key_press": -1, "type": "PRES_VIS", "word": "missile", "wordID": 899, "conditions": [24, 800, "v", 12000], "trial": 3, "serialpos": 7, "trial_type": "single-stim", "trial_index": 124, "time_elapsed": 733240, "internal_node_id": "0.0-88.0"}}, {"uniqueid": "MTK0184:3EQHHY4HQTZ0MFIYK6UJYI3CMX65GT", "current_trial": 125, "dateTime": 1509477938306, "trialdata": {"rt": -1, "stimulus": "<p id=\"stim\">PANTHER</p>", "key_press": -1, "type": "PRES_VIS", "word": "panther", "wordID": 1008, "conditions": [24, 800, "v", 12000], "trial": 3, "serialpos": 8, "trial_type": "single-stim", "trial_index": 125, "time_elapsed": 735104, "internal_node_id": "0.0-89.0"}}, {"uniqueid": "MTK0184:3EQHHY4HQTZ0MFIYK6UJYI3CMX65GT", "current_trial": 126, "dateTime": 1509477940298, "trialdata": {"rt": -1, "stimulus": "<p id=\"stim\">CUSTARD</p>", "key_press": -1, "type": "PRES_VIS", "word": "custard", "wordID": 428, "conditions": [24, 800, "v", 12000], "trial": 3, "serialpos": 9, "trial_type": "single-stim", "trial_index": 126, "time_elapsed": 737096, "internal_node_id": "0.0-90.0"}}, {"uniqueid": "MTK0184:3EQHHY4HQTZ0MFIYK6UJYI3CMX65GT", "current_trial": 127, "dateTime": 1509477942170, "trialdata": {"rt": -1, "stimulus": "<p id=\"stim\">BULLET</p>", "key_press": -1, "type": "PRES_VIS", "word": "bullet", "wordID": 193, "conditions": [24, 800, "v", 12000], "trial": 3, "serialpos": 10, "trial_type": "single-stim", "trial_index": 127, "time_elapsed": 738967, "internal_node_id": "0.0-91.0"}}, {"uniqueid": "MTK0184:3EQHHY4HQTZ0MFIYK6UJYI3CMX65GT", "current_trial": 128, "dateTime": 1509477943844, "trialdata": {"rt": -1, "stimulus": "<p id=\"stim\">DRESS</p>", "key_press": -1, "type": "PRES_VIS", "word": "dress", "wordID": 494, "conditions": [24, 800, "v", 12000], "trial": 3, "serialpos": 11, "trial_type": "single-stim", "trial_index": 128, "time_elapsed": 740642, "internal_node_id": "0.0-92.0"}}, {"uniqueid": "MTK0184:3EQHHY4HQTZ0MFIYK6UJYI3CMX65GT", "current_trial": 129, "dateTime": 1509477945579, "trialdata": {"rt": -1, "stimulus": "<p id=\"stim\">FLESH</p>", "key_press": -1, "type": "PRES_VIS", "word": "flesh", "wordID": 578, "conditions": [24, 800, "v", 12000], "trial": 3, "serialpos": 12, "trial_type": "single-stim", "trial_index": 129, "time_elapsed": 742377, "internal_node_id": "0.0-93.0"}}, {"uniqueid": "MTK0184:3EQHHY4HQTZ0MFIYK6UJYI3CMX65GT", "current_trial": 130, "dateTime": 1509477947244, "trialdata": {"rt": -1, "stimulus": "<p id=\"stim\">CREATURE</p>", "key_press": -1, "type": "PRES_VIS", "word": "creature", "wordID": 402, "conditions": [24, 800, "v", 12000], "trial": 3, "serialpos": 13, "trial_type": "single-stim", "trial_index": 130, "time_elapsed": 744042, "internal_node_id": "0.0-94.0"}}, {"uniqueid": "MTK0184:3EQHHY4HQTZ0MFIYK6UJYI3CMX65GT", "current_trial": 131, "dateTime": 1509477948992, "trialdata": {"rt": -1, "stimulus": "<p id=\"stim\">MONSTER</p>", "key_press": -1, "type": "PRES_VIS", "word": "monster", "wordID": 911, "conditions": [24, 800, "v", 12000], "trial": 3, "serialpos": 14, "trial_type": "single-stim", "trial_index": 131, "time_elapsed": 745789, "internal_node_id": "0.0-95.0"}}, {"uniqueid": "MTK0184:3EQHHY4HQTZ0MFIYK6UJYI3CMX65GT", "current_trial": 132, "dateTime": 1509477950741, "trialdata": {"rt": -1, "stimulus": "<p id=\"stim\">FLOWER</p>", "key_press": -1, "type": "PRES_VIS", "word": "flower", "wordID": 583, "conditions": [24, 800, "v", 12000], "trial": 3, "serialpos": 15, "trial_type": "single-stim", "trial_index": 132, "time_elapsed": 747539, "internal_node_id": "0.0-96.0"}}, {"uniqueid": "MTK0184:3EQHHY4HQTZ0MFIYK6UJYI3CMX65GT", "current_trial": 133, "dateTime": 1509477952562, "trialdata": {"rt": -1, "stimulus": "<p id=\"stim\">PISTOL</p>", "key_press": -1, "type": "PRES_VIS", "word": "pistol", "wordID": 1074, "conditions": [24, 800, "v", 12000], "trial": 3, "serialpos": 16, "trial_type": "single-stim", "trial_index": 133, "time_elapsed": 749360, "internal_node_id": "0.0-97.0"}}, {"uniqueid": "MTK0184:3EQHHY4HQTZ0MFIYK6UJYI3CMX65GT", "current_trial": 134, "dateTime": 1509477954327, "trialdata": {"rt": -1, "stimulus": "<p id=\"stim\">SNAIL</p>", "key_press": -1, "type": "PRES_VIS", "word": "snail", "wordID": 1331, "conditions": [24, 800, "v", 12000], "trial": 3, "serialpos": 17, "trial_type": "single-stim", "trial_index": 134, "time_elapsed": 751125, "internal_node_id": "0.0-98.0"}}, {"uniqueid": "MTK0184:3EQHHY4HQTZ0MFIYK6UJYI3CMX65GT", "current_trial": 135, "dateTime": 1509477956105, "trialdata": {"rt": -1, "stimulus": "<p id=\"stim\">STONE</p>", "key_press": -1, "type": "PRES_VIS", "word": "stone", "wordID": 1384, "conditions": [24, 800, "v", 12000], "trial": 3, "serialpos": 18, "trial_type": "single-stim", "trial_index": 135, "time_elapsed": 752903, "internal_node_id": "0.0-99.0"}}, {"uniqueid": "MTK0184:3EQHHY4HQTZ0MFIYK6UJYI3CMX65GT", "current_trial": 136, "dateTime": 1509477957960, "trialdata": {"rt": -1, "stimulus": "<p id=\"stim\">FIREPLACE</p>", "key_press": -1, "type": "PRES_VIS", "word": "fireplace", "wordID": 569, "conditions": [24, 800, "v", 12000], "trial": 3, "serialpos": 19, "trial_type": "single-stim", "trial_index": 136, "time_elapsed": 754757, "internal_node_id": "0.0-100.0"}}, {"uniqueid": "MTK0184:3EQHHY4HQTZ0MFIYK6UJYI3CMX65GT", "current_trial": 137, "dateTime": 1509477959800, "trialdata": {"rt": -1, "stimulus": "<p id=\"stim\">LODGE</p>", "key_press": -1, "type": "PRES_VIS", "word": "lodge", "wordID": 838, "conditions": [24, 800, "v", 12000], "trial": 3, "serialpos": 20, "trial_type": "single-stim", "trial_index": 137, "time_elapsed": 756598, "internal_node_id": "0.0-101.0"}}, {"uniqueid": "MTK0184:3EQHHY4HQTZ0MFIYK6UJYI3CMX65GT", "current_trial": 138, "dateTime": 1509477961527, "trialdata": {"rt": -1, "stimulus": "<p id=\"stim\">FRUIT</p>", "key_press": -1, "type": "PRES_VIS", "word": "fruit", "wordID": 609, "conditions": [24, 800, "v", 12000], "trial": 3, "serialpos": 21, "trial_type": "single-stim", "trial_index": 138, "time_elapsed": 758325, "internal_node_id": "0.0-102.0"}}, {"uniqueid": "MTK0184:3EQHHY4HQTZ0MFIYK6UJYI3CMX65GT", "current_trial": 139, "dateTime": 1509477963332, "trialdata": {"rt": -1, "stimulus": "<p id=\"stim\">ACTOR</p>", "key_press": -1, "type": "PRES_VIS", "word": "actor", "wordID": 4, "conditions": [24, 800, "v", 12000], "trial": 3, "serialpos": 22, "trial_type": "single-stim", "trial_index": 139, "time_elapsed": 760130, "internal_node_id": "0.0-103.0"}}, {"uniqueid": "MTK0184:3EQHHY4HQTZ0MFIYK6UJYI3CMX65GT", "current_trial": 140, "dateTime": 1509477965275, "trialdata": {"rt": -1, "stimulus": "<p id=\"stim\">OINTMENT</p>", "key_press": -1, "type": "PRES_VIS", "word": "ointment", "wordID": 973, "conditions": [24, 800, "v", 12000], "trial": 3, "serialpos": 23, "trial_type": "single-stim", "trial_index": 140, "time_elapsed": 762073, "internal_node_id": "0.0-104.0"}}, {"uniqueid": "MTK0184:3EQHHY4HQTZ0MFIYK6UJYI3CMX65GT", "current_trial": 141, "dateTime": 1509477967418, "trialdata": {"rt": -1, "stimulus": "", "key_press": -1, "type": "PRE_RECALL_DELAY", "trial_type": "single-stim", "trial_index": 141, "time_elapsed": 764216, "internal_node_id": "0.0-105.0-0.0"}}, {"uniqueid": "MTK0184:3EQHHY4HQTZ0MFIYK6UJYI3CMX65GT", "current_trial": 142, "dateTime": 1509477967924, "trialdata": {"rt": -1000, "stimulus": "/static/audio/400Hz.wav", "key_press": -1, "type": "PRE_RECALL_ALERT", "trial_type": "single-audio", "trial_index": 142, "time_elapsed": 764722, "internal_node_id": "0.0-106.0"}}, {"uniqueid": "MTK0184:3EQHHY4HQTZ0MFIYK6UJYI3CMX65GT", "current_trial": 143, "dateTime": 1509478027929, "trialdata": {"rt": [5588, 10275, 16304, 18788, 22928, 24955, 29547, 34286, 37897, 45143, 48195, 54371], "recwords": ["snail", "stone", "crab", "clam", "mister", "shirt", "plaid", "custard", "bullet", "dress", "monster", "fireplace"], "type": "FREE_RECALL", "conditions": [24, 800, "v", 12000], "trial": 3, "trial_type": "free-recall", "trial_index": 143, "time_elapsed": 824724, "internal_node_id": "0.0-107.0-0.0"}}, {"uniqueid": "MTK0184:3EQHHY4HQTZ0MFIYK6UJYI3CMX65GT", "current_trial": 144, "dateTime": 1509478054984, "trialdata": {"rt": 25054, "key_press": 32, "type": "INSTRUCTIONS", "trial_type": "text", "trial_index": 144, "time_elapsed": 851782, "internal_node_id": "0.0-108.0"}}, {"uniqueid": "MTK0184:3EQHHY4HQTZ0MFIYK6UJYI3CMX65GT", "current_trial": 145, "dateTime": 1509478080989, "trialdata": {"rt": [6759, 10106, 13220, 15851, 19047, 21109], "responses": ["19", "12", "13", "18", "13", "9"], "num1": [8, 3, 2, 8, 5, 5, 8], "num2": [2, 3, 6, 8, 7, 3, 6], "num3": [9, 6, 5, 2, 1, 1, 5], "type": "DISTRACTOR", "conditions": [24, 800, "v", 24000], "trial": 4, "trial_type": "math-distractor", "trial_index": 145, "time_elapsed": 877787, "internal_node_id": "0.0-109.0"}}, {"uniqueid": "MTK0184:3EQHHY4HQTZ0MFIYK6UJYI3CMX65GT", "current_trial": 146, "dateTime": 1509478083992, "trialdata": {"rt": -1, "stimulus": "<p id=\"stim\">10</p>", "key_press": -1, "trial_type": "single-stim", "trial_index": 146, "time_elapsed": 880790, "internal_node_id": "0.0-110.0-0.0"}}, {"uniqueid": "MTK0184:3EQHHY4HQTZ0MFIYK6UJYI3CMX65GT", "current_trial": 147, "dateTime": 1509478084993, "trialdata": {"rt": -1, "stimulus": "<p id=\"stim\">9</p>", "key_press": -1, "trial_type": "single-stim", "trial_index": 147, "time_elapsed": 881791, "internal_node_id": "0.0-110.0-1.0"}}, {"uniqueid": "MTK0184:3EQHHY4HQTZ0MFIYK6UJYI3CMX65GT", "current_trial": 148, "dateTime": 1509478085995, "trialdata": {"rt": -1, "stimulus": "<p id=\"stim\">8</p>", "key_press": -1, "trial_type": "single-stim", "trial_index": 148, "time_elapsed": 882793, "internal_node_id": "0.0-110.0-2.0"}}, {"uniqueid": "MTK0184:3EQHHY4HQTZ0MFIYK6UJYI3CMX65GT", "current_trial": 149, "dateTime": 1509478086997, "trialdata": {"rt": -1, "stimulus": "<p id=\"stim\">7</p>", "key_press": -1, "trial_type": "single-stim", "trial_index": 149, "time_elapsed": 883795, "internal_node_id": "0.0-110.0-3.0"}}, {"uniqueid": "MTK0184:3EQHHY4HQTZ0MFIYK6UJYI3CMX65GT", "current_trial": 150, "dateTime": 1509478087999, "trialdata": {"rt": -1, "stimulus": "<p id=\"stim\">6</p>", "key_press": -1, "trial_type": "single-stim", "trial_index": 150, "time_elapsed": 884797, "internal_node_id": "0.0-110.0-4.0"}}, {"uniqueid": "MTK0184:3EQHHY4HQTZ0MFIYK6UJYI3CMX65GT", "current_trial": 151, "dateTime": 1509478089001, "trialdata": {"rt": -1, "stimulus": "<p id=\"stim\">5</p>", "key_press": -1, "trial_type": "single-stim", "trial_index": 151, "time_elapsed": 885799, "internal_node_id": "0.0-110.0-5.0"}}, {"uniqueid": "MTK0184:3EQHHY4HQTZ0MFIYK6UJYI3CMX65GT", "current_trial": 152, "dateTime": 1509478090003, "trialdata": {"rt": -1, "stimulus": "<p id=\"stim\">4</p>", "key_press": -1, "trial_type": "single-stim", "trial_index": 152, "time_elapsed": 886801, "internal_node_id": "0.0-110.0-6.0"}}, {"uniqueid": "MTK0184:3EQHHY4HQTZ0MFIYK6UJYI3CMX65GT", "current_trial": 153, "dateTime": 1509478091004, "trialdata": {"rt": -1, "stimulus": "<p id=\"stim\">3</p>", "key_press": -1, "trial_type": "single-stim", "trial_index": 153, "time_elapsed": 887802, "internal_node_id": "0.0-110.0-7.0"}}, {"uniqueid": "MTK0184:3EQHHY4HQTZ0MFIYK6UJYI3CMX65GT", "current_trial": 154, "dateTime": 1509478092005, "trialdata": {"rt": -1, "stimulus": "<p id=\"stim\">2</p>", "key_press": -1, "trial_type": "single-stim", "trial_index": 154, "time_elapsed": 888803, "internal_node_id": "0.0-110.0-8.0"}}, {"uniqueid": "MTK0184:3EQHHY4HQTZ0MFIYK6UJYI3CMX65GT", "current_trial": 155, "dateTime": 1509478093007, "trialdata": {"rt": -1, "stimulus": "<p id=\"stim\">1</p>", "key_press": -1, "trial_type": "single-stim", "trial_index": 155, "time_elapsed": 889805, "internal_node_id": "0.0-110.0-9.0"}}, {"uniqueid": "MTK0184:3EQHHY4HQTZ0MFIYK6UJYI3CMX65GT", "current_trial": 156, "dateTime": 1509478094509, "trialdata": {"rt": -1, "stimulus": "<p id=\"stim\">+</p>", "key_press": -1, "type": "FIXATION", "trial_type": "single-stim", "trial_index": 156, "time_elapsed": 891307, "internal_node_id": "0.0-111.0-0.0"}}, {"uniqueid": "MTK0184:3EQHHY4HQTZ0MFIYK6UJYI3CMX65GT", "current_trial": 157, "dateTime": 1509478095310, "trialdata": {"rt": -1, "stimulus": "<p id=\"stim\">DRESSER</p>", "key_press": -1, "type": "PRES_VIS", "word": "dresser", "wordID": 495, "conditions": [24, 800, "v", 24000], "trial": 4, "serialpos": 0, "trial_type": "single-stim", "trial_index": 157, "time_elapsed": 892108, "internal_node_id": "0.0-112.0"}}, {"uniqueid": "MTK0184:3EQHHY4HQTZ0MFIYK6UJYI3CMX65GT", "current_trial": 158, "dateTime": 1509478097200, "trialdata": {"rt": -1, "stimulus": "<p id=\"stim\">HATCHET</p>", "key_press": -1, "type": "PRES_VIS", "word": "hatchet", "wordID": 690, "conditions": [24, 800, "v", 24000], "trial": 4, "serialpos": 1, "trial_type": "single-stim", "trial_index": 158, "time_elapsed": 893997, "internal_node_id": "0.0-113.0"}}, {"uniqueid": "MTK0184:3EQHHY4HQTZ0MFIYK6UJYI3CMX65GT", "current_trial": 159, "dateTime": 1509478099044, "trialdata": {"rt": -1, "stimulus": "<p id=\"stim\">BLADE</p>", "key_press": -1, "type": "PRES_VIS", "word": "blade", "wordID": 133, "conditions": [24, 800, "v", 24000], "trial": 4, "serialpos": 2, "trial_type": "single-stim", "trial_index": 159, "time_elapsed": 895842, "internal_node_id": "0.0-114.0"}}, {"uniqueid": "MTK0184:3EQHHY4HQTZ0MFIYK6UJYI3CMX65GT", "current_trial": 160, "dateTime": 1509478100999, "trialdata": {"rt": -1, "stimulus": "<p id=\"stim\">PERFUME</p>", "key_press": -1, "type": "PRES_VIS", "word": "perfume", "wordID": 1048, "conditions": [24, 800, "v", 24000], "trial": 4, "serialpos": 3, "trial_type": "single-stim", "trial_index": 160, "time_elapsed": 897797, "internal_node_id": "0.0-115.0"}}, {"uniqueid": "MTK0184:3EQHHY4HQTZ0MFIYK6UJYI3CMX65GT", "current_trial": 161, "dateTime": 1509478102683, "trialdata": {"rt": -1, "stimulus": "<p id=\"stim\">CHAPEL</p>", "key_press": -1, "type": "PRES_VIS", "word": "chapel", "wordID": 279, "conditions": [24, 800, "v", 24000], "trial": 4, "serialpos": 4, "trial_type": "single-stim", "trial_index": 161, "time_elapsed": 899481, "internal_node_id": "0.0-116.0"}}, {"uniqueid": "MTK0184:3EQHHY4HQTZ0MFIYK6UJYI3CMX65GT", "current_trial": 162, "dateTime": 1509478104564, "trialdata": {"rt": -1, "stimulus": "<p id=\"stim\">CHURCH</p>", "key_press": -1, "type": "PRES_VIS", "word": "church", "wordID": 306, "conditions": [24, 800, "v", 24000], "trial": 4, "serialpos": 5, "trial_type": "single-stim", "trial_index": 162, "time_elapsed": 901362, "internal_node_id": "0.0-117.0"}}, {"uniqueid": "MTK0184:3EQHHY4HQTZ0MFIYK6UJYI3CMX65GT", "current_trial": 163, "dateTime": 1509478106296, "trialdata": {"rt": -1, "stimulus": "<p id=\"stim\">FRAGRANCE</p>", "key_press": -1, "type": "PRES_VIS", "word": "fragrance", "wordID": 598, "conditions": [24, 800, "v", 24000], "trial": 4, "serialpos": 6, "trial_type": "single-stim", "trial_index": 163, "time_elapsed": 903094, "internal_node_id": "0.0-118.0"}}, {"uniqueid": "MTK0184:3EQHHY4HQTZ0MFIYK6UJYI3CMX65GT", "current_trial": 164, "dateTime": 1509478108035, "trialdata": {"rt": -1, "stimulus": "<p id=\"stim\">PLASTER</p>", "key_press": -1, "type": "PRES_VIS", "word": "plaster", "wordID": 1084, "conditions": [24, 800, "v", 24000], "trial": 4, "serialpos": 7, "trial_type": "single-stim", "trial_index": 164, "time_elapsed": 904833, "internal_node_id": "0.0-119.0"}}, {"uniqueid": "MTK0184:3EQHHY4HQTZ0MFIYK6UJYI3CMX65GT", "current_trial": 165, "dateTime": 1509478109809, "trialdata": {"rt": -1, "stimulus": "<p id=\"stim\">COOKBOOK</p>", "key_press": -1, "type": "PRES_VIS", "word": "cookbook", "wordID": 372, "conditions": [24, 800, "v", 24000], "trial": 4, "serialpos": 8, "trial_type": "single-stim", "trial_index": 165, "time_elapsed": 906607, "internal_node_id": "0.0-120.0"}}, {"uniqueid": "MTK0184:3EQHHY4HQTZ0MFIYK6UJYI3CMX65GT", "current_trial": 166, "dateTime": 1509478111441, "trialdata": {"rt": -1, "stimulus": "<p id=\"stim\">FLIPPER</p>", "key_press": -1, "type": "PRES_VIS", "word": "flipper", "wordID": 579, "conditions": [24, 800, "v", 24000], "trial": 4, "serialpos": 9, "trial_type": "single-stim", "trial_index": 166, "time_elapsed": 908238, "internal_node_id": "0.0-121.0"}}, {"uniqueid": "MTK0184:3EQHHY4HQTZ0MFIYK6UJYI3CMX65GT", "current_trial": 167, "dateTime": 1509478113229, "trialdata": {"rt": -1, "stimulus": "<p id=\"stim\">COUNTY</p>", "key_press": -1, "type": "PRES_VIS", "word": "county", "wordID": 388, "conditions": [24, 800, "v", 24000], "trial": 4, "serialpos": 10, "trial_type": "single-stim", "trial_index": 167, "time_elapsed": 910027, "internal_node_id": "0.0-122.0"}}, {"uniqueid": "MTK0184:3EQHHY4HQTZ0MFIYK6UJYI3CMX65GT", "current_trial": 168, "dateTime": 1509478115005, "trialdata": {"rt": -1, "stimulus": "<p id=\"stim\">SPARROW</p>", "key_press": -1, "type": "PRES_VIS", "word": "sparrow", "wordID": 1346, "conditions": [24, 800, "v", 24000], "trial": 4, "serialpos": 11, "trial_type": "single-stim", "trial_index": 168, "time_elapsed": 911803, "internal_node_id": "0.0-123.0"}}, {"uniqueid": "MTK0184:3EQHHY4HQTZ0MFIYK6UJYI3CMX65GT", "current_trial": 169, "dateTime": 1509478116663, "trialdata": {"rt": -1, "stimulus": "<p id=\"stim\">JAPAN</p>", "key_press": -1, "type": "PRES_VIS", "word": "japan", "wordID": 748, "conditions": [24, 800, "v", 24000], "trial": 4, "serialpos": 12, "trial_type": "single-stim", "trial_index": 169, "time_elapsed": 913461, "internal_node_id": "0.0-124.0"}}, {"uniqueid": "MTK0184:3EQHHY4HQTZ0MFIYK6UJYI3CMX65GT", "current_trial": 170, "dateTime": 1509478118431, "trialdata": {"rt": -1, "stimulus": "<p id=\"stim\">ASIA</p>", "key_press": -1, "type": "PRES_VIS", "word": "asia", "wordID": 45, "conditions": [24, 800, "v", 24000], "trial": 4, "serialpos": 13, "trial_type": "single-stim", "trial_index": 170, "time_elapsed": 915229, "internal_node_id": "0.0-125.0"}}, {"uniqueid": "MTK0184:3EQHHY4HQTZ0MFIYK6UJYI3CMX65GT", "current_trial": 171, "dateTime": 1509478120205, "trialdata": {"rt": -1, "stimulus": "<p id=\"stim\">MAMMAL</p>", "key_press": -1, "type": "PRES_VIS", "word": "mammal", "wordID": 860, "conditions": [24, 800, "v", 24000], "trial": 4, "serialpos": 14, "trial_type": "single-stim", "trial_index": 171, "time_elapsed": 917003, "internal_node_id": "0.0-126.0"}}, {"uniqueid": "MTK0184:3EQHHY4HQTZ0MFIYK6UJYI3CMX65GT", "current_trial": 172, "dateTime": 1509478122115, "trialdata": {"rt": -1, "stimulus": "<p id=\"stim\">CELLAR</p>", "key_press": -1, "type": "PRES_VIS", "word": "cellar", "wordID": 266, "conditions": [24, 800, "v", 24000], "trial": 4, "serialpos": 15, "trial_type": "single-stim", "trial_index": 172, "time_elapsed": 918913, "internal_node_id": "0.0-127.0"}}, {"uniqueid": "MTK0184:3EQHHY4HQTZ0MFIYK6UJYI3CMX65GT", "current_trial": 173, "dateTime": 1509478124047, "trialdata": {"rt": -1, "stimulus": "<p id=\"stim\">TAXI</p>", "key_press": -1, "type": "PRES_VIS", "word": "taxi", "wordID": 1437, "conditions": [24, 800, "v", 24000], "trial": 4, "serialpos": 16, "trial_type": "single-stim", "trial_index": 173, "time_elapsed": 920845, "internal_node_id": "0.0-128.0"}}, {"uniqueid": "MTK0184:3EQHHY4HQTZ0MFIYK6UJYI3CMX65GT", "current_trial": 174, "dateTime": 1509478126009, "trialdata": {"rt": -1, "stimulus": "<p id=\"stim\">SKIRT</p>", "key_press": -1, "type": "PRES_VIS", "word": "skirt", "wordID": 1318, "conditions": [24, 800, "v", 24000], "trial": 4, "serialpos": 17, "trial_type": "single-stim", "trial_index": 174, "time_elapsed": 922807, "internal_node_id": "0.0-129.0"}}, {"uniqueid": "MTK0184:3EQHHY4HQTZ0MFIYK6UJYI3CMX65GT", "current_trial": 175, "dateTime": 1509478127787, "trialdata": {"rt": -1, "stimulus": "<p id=\"stim\">LIVER</p>", "key_press": -1, "type": "PRES_VIS", "word": "liver", "wordID": 832, "conditions": [24, 800, "v", 24000], "trial": 4, "serialpos": 18, "trial_type": "single-stim", "trial_index": 175, "time_elapsed": 924585, "internal_node_id": "0.0-130.0"}}, {"uniqueid": "MTK0184:3EQHHY4HQTZ0MFIYK6UJYI3CMX65GT", "current_trial": 176, "dateTime": 1509478129711, "trialdata": {"rt": -1, "stimulus": "<p id=\"stim\">PASSAGE</p>", "key_press": -1, "type": "PRES_VIS", "word": "passage", "wordID": 1018, "conditions": [24, 800, "v", 24000], "trial": 4, "serialpos": 19, "trial_type": "single-stim", "trial_index": 176, "time_elapsed": 926508, "internal_node_id": "0.0-131.0"}}, {"uniqueid": "MTK0184:3EQHHY4HQTZ0MFIYK6UJYI3CMX65GT", "current_trial": 177, "dateTime": 1509478131568, "trialdata": {"rt": -1, "stimulus": "<p id=\"stim\">SPONGE</p>", "key_press": -1, "type": "PRES_VIS", "word": "sponge", "wordID": 1354, "conditions": [24, 800, "v", 24000], "trial": 4, "serialpos": 20, "trial_type": "single-stim", "trial_index": 177, "time_elapsed": 928366, "internal_node_id": "0.0-132.0"}}, {"uniqueid": "MTK0184:3EQHHY4HQTZ0MFIYK6UJYI3CMX65GT", "current_trial": 178, "dateTime": 1509478133432, "trialdata": {"rt": -1, "stimulus": "<p id=\"stim\">SHARK</p>", "key_press": -1, "type": "PRES_VIS", "word": "shark", "wordID": 1274, "conditions": [24, 800, "v", 24000], "trial": 4, "serialpos": 21, "trial_type": "single-stim", "trial_index": 178, "time_elapsed": 930230, "internal_node_id": "0.0-133.0"}}, {"uniqueid": "MTK0184:3EQHHY4HQTZ0MFIYK6UJYI3CMX65GT", "current_trial": 179, "dateTime": 1509478135044, "trialdata": {"rt": -1, "stimulus": "<p id=\"stim\">MOTOR</p>", "key_press": -1, "type": "PRES_VIS", "word": "motor", "wordID": 921, "conditions": [24, 800, "v", 24000], "trial": 4, "serialpos": 22, "trial_type": "single-stim", "trial_index": 179, "time_elapsed": 931842, "internal_node_id": "0.0-134.0"}}, {"uniqueid": "MTK0184:3EQHHY4HQTZ0MFIYK6UJYI3CMX65GT", "current_trial": 180, "dateTime": 1509478136688, "trialdata": {"rt": -1, "stimulus": "<p id=\"stim\">REBEL</p>", "key_press": -1, "type": "PRES_VIS", "word": "rebel", "wordID": 1171, "conditions": [24, 800, "v", 24000], "trial": 4, "serialpos": 23, "trial_type": "single-stim", "trial_index": 180, "time_elapsed": 933486, "internal_node_id": "0.0-135.0"}}, {"uniqueid": "MTK0184:3EQHHY4HQTZ0MFIYK6UJYI3CMX65GT", "current_trial": 181, "dateTime": 1509478139053, "trialdata": {"rt": -1, "stimulus": "", "key_press": -1, "type": "PRE_RECALL_DELAY", "trial_type": "single-stim", "trial_index": 181, "time_elapsed": 935851, "internal_node_id": "0.0-136.0-0.0"}}, {"uniqueid": "MTK0184:3EQHHY4HQTZ0MFIYK6UJYI3CMX65GT", "current_trial": 182, "dateTime": 1509478139556, "trialdata": {"rt": -1000, "stimulus": "/static/audio/400Hz.wav", "key_press": -1, "type": "PRE_RECALL_ALERT", "trial_type": "single-audio", "trial_index": 182, "time_elapsed": 936354, "internal_node_id": "0.0-137.0"}}, {"uniqueid": "MTK0184:3EQHHY4HQTZ0MFIYK6UJYI3CMX65GT", "current_trial": 183, "dateTime": 1509478199559, "trialdata": {"rt": [4973, 8420, 10966, 15754, 19874, 28653, 39928, 44078, 48989, 54931], "recwords": ["cellar", "motor", "sparrow", "hatchet", "taxi", "church", "sponge", "asia", "perfume", "flipper"], "type": "FREE_RECALL", "conditions": [24, 800, "v", 24000], "trial": 4, "trial_type": "free-recall", "trial_index": 183, "time_elapsed": 996355, "internal_node_id": "0.0-138.0-0.0"}}, {"uniqueid": "MTK0184:3EQHHY4HQTZ0MFIYK6UJYI3CMX65GT", "current_trial": 184, "dateTime": 1509478208044, "trialdata": {"rt": 6482, "key_press": 13, "type": "INSTRUCTIONS", "trial_type": "text", "trial_index": 184, "time_elapsed": 1004842, "internal_node_id": "0.0-139.0"}}, {"uniqueid": "MTK0184:3EQHHY4HQTZ0MFIYK6UJYI3CMX65GT", "current_trial": 185, "dateTime": 1509478222047, "trialdata": {"rt": [3656, 5701, 10860], "responses": ["11", "8", "16"], "num1": [1, 1, 7, 6], "num2": [6, 2, 2, 7], "num3": [4, 5, 6, 9], "type": "DISTRACTOR", "conditions": [24, 1600, "v", 12000], "trial": 5, "trial_type": "math-distractor", "trial_index": 185, "time_elapsed": 1018845, "internal_node_id": "0.0-140.0"}}, {"uniqueid": "MTK0184:3EQHHY4HQTZ0MFIYK6UJYI3CMX65GT", "current_trial": 186, "dateTime": 1509478225049, "trialdata": {"rt": -1, "stimulus": "<p id=\"stim\">10</p>", "key_press": -1, "trial_type": "single-stim", "trial_index": 186, "time_elapsed": 1021847, "internal_node_id": "0.0-141.0-0.0"}}, {"uniqueid": "MTK0184:3EQHHY4HQTZ0MFIYK6UJYI3CMX65GT", "current_trial": 187, "dateTime": 1509478226050, "trialdata": {"rt": -1, "stimulus": "<p id=\"stim\">9</p>", "key_press": -1, "trial_type": "single-stim", "trial_index": 187, "time_elapsed": 1022848, "internal_node_id": "0.0-141.0-1.0"}}, {"uniqueid": "MTK0184:3EQHHY4HQTZ0MFIYK6UJYI3CMX65GT", "current_trial": 188, "dateTime": 1509478227052, "trialdata": {"rt": -1, "stimulus": "<p id=\"stim\">8</p>", "key_press": -1, "trial_type": "single-stim", "trial_index": 188, "time_elapsed": 1023850, "internal_node_id": "0.0-141.0-2.0"}}, {"uniqueid": "MTK0184:3EQHHY4HQTZ0MFIYK6UJYI3CMX65GT", "current_trial": 189, "dateTime": 1509478228054, "trialdata": {"rt": -1, "stimulus": "<p id=\"stim\">7</p>", "key_press": -1, "trial_type": "single-stim", "trial_index": 189, "time_elapsed": 1024852, "internal_node_id": "0.0-141.0-3.0"}}, {"uniqueid": "MTK0184:3EQHHY4HQTZ0MFIYK6UJYI3CMX65GT", "current_trial": 190, "dateTime": 1509478229056, "trialdata": {"rt": -1, "stimulus": "<p id=\"stim\">6</p>", "key_press": -1, "trial_type": "single-stim", "trial_index": 190, "time_elapsed": 1025854, "internal_node_id": "0.0-141.0-4.0"}}, {"uniqueid": "MTK0184:3EQHHY4HQTZ0MFIYK6UJYI3CMX65GT", "current_trial": 191, "dateTime": 1509478230058, "trialdata": {"rt": -1, "stimulus": "<p id=\"stim\">5</p>", "key_press": -1, "trial_type": "single-stim", "trial_index": 191, "time_elapsed": 1026856, "internal_node_id": "0.0-141.0-5.0"}}, {"uniqueid": "MTK0184:3EQHHY4HQTZ0MFIYK6UJYI3CMX65GT", "current_trial": 192, "dateTime": 1509478231059, "trialdata": {"rt": -1, "stimulus": "<p id=\"stim\">4</p>", "key_press": -1, "trial_type": "single-stim", "trial_index": 192, "time_elapsed": 1027857, "internal_node_id": "0.0-141.0-6.0"}}, {"uniqueid": "MTK0184:3EQHHY4HQTZ0MFIYK6UJYI3CMX65GT", "current_trial": 193, "dateTime": 1509478232061, "trialdata": {"rt": -1, "stimulus": "<p id=\"stim\">3</p>", "key_press": -1, "trial_type": "single-stim", "trial_index": 193, "time_elapsed": 1028859, "internal_node_id": "0.0-141.0-7.0"}}, {"uniqueid": "MTK0184:3EQHHY4HQTZ0MFIYK6UJYI3CMX65GT", "current_trial": 194, "dateTime": 1509478233063, "trialdata": {"rt": -1, "stimulus": "<p id=\"stim\">2</p>", "key_press": -1, "trial_type": "single-stim", "trial_index": 194, "time_elapsed": 1029860, "internal_node_id": "0.0-141.0-8.0"}}, {"uniqueid": "MTK0184:3EQHHY4HQTZ0MFIYK6UJYI3CMX65GT", "current_trial": 195, "dateTime": 1509478234064, "trialdata": {"rt": -1, "stimulus": "<p id=\"stim\">1</p>", "key_press": -1, "trial_type": "single-stim", "trial_index": 195, "time_elapsed": 1030862, "internal_node_id": "0.0-141.0-9.0"}}, {"uniqueid": "MTK0184:3EQHHY4HQTZ0MFIYK6UJYI3CMX65GT", "current_trial": 196, "dateTime": 1509478235566, "trialdata": {"rt": -1, "stimulus": "<p id=\"stim\">+</p>", "key_press": -1, "type": "FIXATION", "trial_type": "single-stim", "trial_index": 196, "time_elapsed": 1032364, "internal_node_id": "0.0-142.0-0.0"}}, {"uniqueid": "MTK0184:3EQHHY4HQTZ0MFIYK6UJYI3CMX65GT", "current_trial": 197, "dateTime": 1509478237167, "trialdata": {"rt": -1, "stimulus": "<p id=\"stim\">HAND</p>", "key_press": -1, "type": "PRES_VIS", "word": "hand", "wordID": 682, "conditions": [24, 1600, "v", 12000], "trial": 5, "serialpos": 0, "trial_type": "single-stim", "trial_index": 197, "time_elapsed": 1033965, "internal_node_id": "0.0-143.0"}}, {"uniqueid": "MTK0184:3EQHHY4HQTZ0MFIYK6UJYI3CMX65GT", "current_trial": 198, "dateTime": 1509478239962, "trialdata": {"rt": -1, "stimulus": "<p id=\"stim\">WINDOW</p>", "key_press": -1, "type": "PRES_VIS", "word": "window", "wordID": 1610, "conditions": [24, 1600, "v", 12000], "trial": 5, "serialpos": 1, "trial_type": "single-stim", "trial_index": 198, "time_elapsed": 1036759, "internal_node_id": "0.0-144.0"}}, {"uniqueid": "MTK0184:3EQHHY4HQTZ0MFIYK6UJYI3CMX65GT", "current_trial": 199, "dateTime": 1509478242486, "trialdata": {"rt": -1, "stimulus": "<p id=\"stim\">SWORD</p>", "key_press": -1, "type": "PRES_VIS", "word": "sword", "wordID": 1422, "conditions": [24, 1600, "v", 12000], "trial": 5, "serialpos": 2, "trial_type": "single-stim", "trial_index": 199, "time_elapsed": 1039284, "internal_node_id": "0.0-145.0"}}, {"uniqueid": "MTK0184:3EQHHY4HQTZ0MFIYK6UJYI3CMX65GT", "current_trial": 200, "dateTime": 1509478245122, "trialdata": {"rt": -1, "stimulus": "<p id=\"stim\">KNIFE</p>", "key_press": -1, "type": "PRES_VIS", "word": "knife", "wordID": 784, "conditions": [24, 1600, "v", 12000], "trial": 5, "serialpos": 3, "trial_type": "single-stim", "trial_index": 200, "time_elapsed": 1041920, "internal_node_id": "0.0-146.0"}}, {"uniqueid": "MTK0184:3EQHHY4HQTZ0MFIYK6UJYI3CMX65GT", "current_trial": 201, "dateTime": 1509478247812, "trialdata": {"rt": -1, "stimulus": "<p id=\"stim\">PIANO</p>", "key_press": -1, "type": "PRES_VIS", "word": "piano", "wordID": 1056, "conditions": [24, 1600, "v", 12000], "trial": 5, "serialpos": 4, "trial_type": "single-stim", "trial_index": 201, "time_elapsed": 1044610, "internal_node_id": "0.0-147.0"}}, {"uniqueid": "MTK0184:3EQHHY4HQTZ0MFIYK6UJYI3CMX65GT", "current_trial": 202, "dateTime": 1509478250248, "trialdata": {"rt": -1, "stimulus": "<p id=\"stim\">SNAKE</p>", "key_press": -1, "type": "PRES_VIS", "word": "snake", "wordID": 1332, "conditions": [24, 1600, "v", 12000], "trial": 5, "serialpos": 5, "trial_type": "single-stim", "trial_index": 202, "time_elapsed": 1047046, "internal_node_id": "0.0-148.0"}}, {"uniqueid": "MTK0184:3EQHHY4HQTZ0MFIYK6UJYI3CMX65GT", "current_trial": 203, "dateTime": 1509478252869, "trialdata": {"rt": -1, "stimulus": "<p id=\"stim\">CUPBOARD</p>", "key_press": -1, "type": "PRES_VIS", "word": "cupboard", "wordID": 424, "conditions": [24, 1600, "v", 12000], "trial": 5, "serialpos": 6, "trial_type": "single-stim", "trial_index": 203, "time_elapsed": 1049667, "internal_node_id": "0.0-149.0"}}, {"uniqueid": "MTK0184:3EQHHY4HQTZ0MFIYK6UJYI3CMX65GT", "current_trial": 204, "dateTime": 1509478255654, "trialdata": {"rt": -1, "stimulus": "<p id=\"stim\">KITCHEN</p>", "key_press": -1, "type": "PRES_VIS", "word": "kitchen", "wordID": 777, "conditions": [24, 1600, "v", 12000], "trial": 5, "serialpos": 7, "trial_type": "single-stim", "trial_index": 204, "time_elapsed": 1052452, "internal_node_id": "0.0-150.0"}}, {"uniqueid": "MTK0184:3EQHHY4HQTZ0MFIYK6UJYI3CMX65GT", "current_trial": 205, "dateTime": 1509478258237, "trialdata": {"rt": -1, "stimulus": "<p id=\"stim\">HARP</p>", "key_press": -1, "type": "PRES_VIS", "word": "harp", "wordID": 688, "conditions": [24, 1600, "v", 12000], "trial": 5, "serialpos": 8, "trial_type": "single-stim", "trial_index": 205, "time_elapsed": 1055035, "internal_node_id": "0.0-151.0"}}, {"uniqueid": "MTK0184:3EQHHY4HQTZ0MFIYK6UJYI3CMX65GT", "current_trial": 206, "dateTime": 1509478260923, "trialdata": {"rt": -1, "stimulus": "<p id=\"stim\">WOMAN</p>", "key_press": -1, "type": "PRES_VIS", "word": "woman", "wordID": 1619, "conditions": [24, 1600, "v", 12000], "trial": 5, "serialpos": 9, "trial_type": "single-stim", "trial_index": 206, "time_elapsed": 1057721, "internal_node_id": "0.0-152.0"}}, {"uniqueid": "MTK0184:3EQHHY4HQTZ0MFIYK6UJYI3CMX65GT", "current_trial": 207, "dateTime": 1509478263345, "trialdata": {"rt": -1, "stimulus": "<p id=\"stim\">BOX</p>", "key_press": -1, "type": "PRES_VIS", "word": "box", "wordID": 158, "conditions": [24, 1600, "v", 12000], "trial": 5, "serialpos": 10, "trial_type": "single-stim", "trial_index": 207, "time_elapsed": 1060143, "internal_node_id": "0.0-153.0"}}, {"uniqueid": "MTK0184:3EQHHY4HQTZ0MFIYK6UJYI3CMX65GT", "current_trial": 208, "dateTime": 1509478265914, "trialdata": {"rt": -1, "stimulus": "<p id=\"stim\">FLUTE</p>", "key_press": -1, "type": "PRES_VIS", "word": "flute", "wordID": 584, "conditions": [24, 1600, "v", 12000], "trial": 5, "serialpos": 11, "trial_type": "single-stim", "trial_index": 208, "time_elapsed": 1062712, "internal_node_id": "0.0-154.0"}}, {"uniqueid": "MTK0184:3EQHHY4HQTZ0MFIYK6UJYI3CMX65GT", "current_trial": 209, "dateTime": 1509478268372, "trialdata": {"rt": -1, "stimulus": "<p id=\"stim\">LAGOON</p>", "key_press": -1, "type": "PRES_VIS", "word": "lagoon", "wordID": 794, "conditions": [24, 1600, "v", 12000], "trial": 5, "serialpos": 12, "trial_type": "single-stim", "trial_index": 209, "time_elapsed": 1065170, "internal_node_id": "0.0-155.0"}}, {"uniqueid": "MTK0184:3EQHHY4HQTZ0MFIYK6UJYI3CMX65GT", "current_trial": 210, "dateTime": 1509478271053, "trialdata": {"rt": -1, "stimulus": "<p id=\"stim\">SHELTER</p>", "key_press": -1, "type": "PRES_VIS", "word": "shelter", "wordID": 1281, "conditions": [24, 1600, "v", 12000], "trial": 5, "serialpos": 13, "trial_type": "single-stim", "trial_index": 210, "time_elapsed": 1067851, "internal_node_id": "0.0-156.0"}}, {"uniqueid": "MTK0184:3EQHHY4HQTZ0MFIYK6UJYI3CMX65GT", "current_trial": 211, "dateTime": 1509478273630, "trialdata": {"rt": -1, "stimulus": "<p id=\"stim\">TROUT</p>", "key_press": -1, "type": "PRES_VIS", "word": "trout", "wordID": 1510, "conditions": [24, 1600, "v", 12000], "trial": 5, "serialpos": 14, "trial_type": "single-stim", "trial_index": 211, "time_elapsed": 1070428, "internal_node_id": "0.0-157.0"}}, {"uniqueid": "MTK0184:3EQHHY4HQTZ0MFIYK6UJYI3CMX65GT", "current_trial": 212, "dateTime": 1509478276240, "trialdata": {"rt": -1, "stimulus": "<p id=\"stim\">ELBOW</p>", "key_press": -1, "type": "PRES_VIS", "word": "elbow", "wordID": 519, "conditions": [24, 1600, "v", 12000], "trial": 5, "serialpos": 15, "trial_type": "single-stim", "trial_index": 212, "time_elapsed": 1073038, "internal_node_id": "0.0-158.0"}}, {"uniqueid": "MTK0184:3EQHHY4HQTZ0MFIYK6UJYI3CMX65GT", "current_trial": 213, "dateTime": 1509478278807, "trialdata": {"rt": -1, "stimulus": "<p id=\"stim\">PIMPLE</p>", "key_press": -1, "type": "PRES_VIS", "word": "pimple", "wordID": 1070, "conditions": [24, 1600, "v", 12000], "trial": 5, "serialpos": 16, "trial_type": "single-stim", "trial_index": 213, "time_elapsed": 1075604, "internal_node_id": "0.0-159.0"}}, {"uniqueid": "MTK0184:3EQHHY4HQTZ0MFIYK6UJYI3CMX65GT", "current_trial": 214, "dateTime": 1509478281280, "trialdata": {"rt": -1, "stimulus": "<p id=\"stim\">SCOTCH</p>", "key_press": -1, "type": "PRES_VIS", "word": "scotch", "wordID": 1250, "conditions": [24, 1600, "v", 12000], "trial": 5, "serialpos": 17, "trial_type": "single-stim", "trial_index": 214, "time_elapsed": 1078078, "internal_node_id": "0.0-160.0"}}, {"uniqueid": "MTK0184:3EQHHY4HQTZ0MFIYK6UJYI3CMX65GT", "current_trial": 215, "dateTime": 1509478283998, "trialdata": {"rt": -1, "stimulus": "<p id=\"stim\">BRANDY</p>", "key_press": -1, "type": "PRES_VIS", "word": "brandy", "wordID": 168, "conditions": [24, 1600, "v", 12000], "trial": 5, "serialpos": 18, "trial_type": "single-stim", "trial_index": 215, "time_elapsed": 1080796, "internal_node_id": "0.0-161.0"}}, {"uniqueid": "MTK0184:3EQHHY4HQTZ0MFIYK6UJYI3CMX65GT", "current_trial": 216, "dateTime": 1509478286689, "trialdata": {"rt": -1, "stimulus": "<p id=\"stim\">CITRUS</p>", "key_press": -1, "type": "PRES_VIS", "word": "citrus", "wordID": 312, "conditions": [24, 1600, "v", 12000], "trial": 5, "serialpos": 19, "trial_type": "single-stim", "trial_index": 216, "time_elapsed": 1083487, "internal_node_id": "0.0-162.0"}}, {"uniqueid": "MTK0184:3EQHHY4HQTZ0MFIYK6UJYI3CMX65GT", "current_trial": 217, "dateTime": 1509478289114, "trialdata": {"rt": -1, "stimulus": "<p id=\"stim\">RECORD</p>", "key_press": -1, "type": "PRES_VIS", "word": "record", "wordID": 1175, "conditions": [24, 1600, "v", 12000], "trial": 5, "serialpos": 20, "trial_type": "single-stim", "trial_index": 217, "time_elapsed": 1085912, "internal_node_id": "0.0-163.0"}}, {"uniqueid": "MTK0184:3EQHHY4HQTZ0MFIYK6UJYI3CMX65GT", "current_trial": 218, "dateTime": 1509478291605, "trialdata": {"rt": -1, "stimulus": "<p id=\"stim\">CRICKET</p>", "key_press": -1, "type": "PRES_VIS", "word": "cricket", "wordID": 407, "conditions": [24, 1600, "v", 12000], "trial": 5, "serialpos": 21, "trial_type": "single-stim", "trial_index": 218, "time_elapsed": 1088403, "internal_node_id": "0.0-164.0"}}, {"uniqueid": "MTK0184:3EQHHY4HQTZ0MFIYK6UJYI3CMX65GT", "current_trial": 219, "dateTime": 1509478294082, "trialdata": {"rt": -1, "stimulus": "<p id=\"stim\">SADDLE</p>", "key_press": -1, "type": "PRES_VIS", "word": "saddle", "wordID": 1220, "conditions": [24, 1600, "v", 12000], "trial": 5, "serialpos": 22, "trial_type": "single-stim", "trial_index": 219, "time_elapsed": 1090880, "internal_node_id": "0.0-165.0"}}, {"uniqueid": "MTK0184:3EQHHY4HQTZ0MFIYK6UJYI3CMX65GT", "current_trial": 220, "dateTime": 1509478296807, "trialdata": {"rt": -1, "stimulus": "<p id=\"stim\">CANAL</p>", "key_press": -1, "type": "PRES_VIS", "word": "canal", "wordID": 225, "conditions": [24, 1600, "v", 12000], "trial": 5, "serialpos": 23, "trial_type": "single-stim", "trial_index": 220, "time_elapsed": 1093605, "internal_node_id": "0.0-166.0"}}, {"uniqueid": "MTK0184:3EQHHY4HQTZ0MFIYK6UJYI3CMX65GT", "current_trial": 221, "dateTime": 1509478299260, "trialdata": {"rt": -1, "stimulus": "", "key_press": -1, "type": "PRE_RECALL_DELAY", "trial_type": "single-stim", "trial_index": 221, "time_elapsed": 1096058, "internal_node_id": "0.0-167.0-0.0"}}, {"uniqueid": "MTK0184:3EQHHY4HQTZ0MFIYK6UJYI3CMX65GT", "current_trial": 222, "dateTime": 1509478299763, "trialdata": {"rt": -1000, "stimulus": "/static/audio/400Hz.wav", "key_press": -1, "type": "PRE_RECALL_ALERT", "trial_type": "single-audio", "trial_index": 222, "time_elapsed": 1096561, "internal_node_id": "0.0-168.0"}}, {"uniqueid": "MTK0184:3EQHHY4HQTZ0MFIYK6UJYI3CMX65GT", "current_trial": 223, "dateTime": 1509478359768, "trialdata": {"rt": [4491, 11301, 14747, 23110, 26232, 29386, 34661, 36590, 43835, 52284, 55488], "recwords": ["canal", "harp", "kitchen", "trout", "shelter", "saddle", "snake", "sword", "box", "scotch", "brandy"], "type": "FREE_RECALL", "conditions": [24, 1600, "v", 12000], "trial": 5, "trial_type": "free-recall", "trial_index": 223, "time_elapsed": 1156563, "internal_node_id": "0.0-169.0-0.0"}}, {"uniqueid": "MTK0184:3EQHHY4HQTZ0MFIYK6UJYI3CMX65GT", "current_trial": 224, "dateTime": 1509478365196, "trialdata": {"rt": 3425, "key_press": 32, "type": "INSTRUCTIONS", "trial_type": "text", "trial_index": 224, "time_elapsed": 1161994, "internal_node_id": "0.0-170.0"}}, {"uniqueid": "MTK0184:3EQHHY4HQTZ0MFIYK6UJYI3CMX65GT", "current_trial": 225, "dateTime": 1509478391200, "trialdata": {"rt": [3718, 6330, 11081, 18268, 23700], "responses": ["15", "12", "15", "20", "20"], "num1": [9, 2, 1, 5, 3, 8], "num2": [4, 2, 8, 8, 9, 9], "num3": [2, 8, 6, 7, 8, 7], "type": "DISTRACTOR", "conditions": [12, 1600, "v", 24000], "trial": 6, "trial_type": "math-distractor", "trial_index": 225, "time_elapsed": 1187998, "internal_node_id": "0.0-171.0"}}, {"uniqueid": "MTK0184:3EQHHY4HQTZ0MFIYK6UJYI3CMX65GT", "current_trial": 226, "dateTime": 1509478394203, "trialdata": {"rt": -1, "stimulus": "<p id=\"stim\">10</p>", "key_press": -1, "trial_type": "single-stim", "trial_index": 226, "time_elapsed": 1191001, "internal_node_id": "0.0-172.0-0.0"}}, {"uniqueid": "MTK0184:3EQHHY4HQTZ0MFIYK6UJYI3CMX65GT", "current_trial": 227, "dateTime": 1509478395204, "trialdata": {"rt": -1, "stimulus": "<p id=\"stim\">9</p>", "key_press": -1, "trial_type": "single-stim", "trial_index": 227, "time_elapsed": 1192002, "internal_node_id": "0.0-172.0-1.0"}}, {"uniqueid": "MTK0184:3EQHHY4HQTZ0MFIYK6UJYI3CMX65GT", "current_trial": 228, "dateTime": 1509478396206, "trialdata": {"rt": -1, "stimulus": "<p id=\"stim\">8</p>", "key_press": -1, "trial_type": "single-stim", "trial_index": 228, "time_elapsed": 1193004, "internal_node_id": "0.0-172.0-2.0"}}, {"uniqueid": "MTK0184:3EQHHY4HQTZ0MFIYK6UJYI3CMX65GT", "current_trial": 229, "dateTime": 1509478397206, "trialdata": {"rt": -1, "stimulus": "<p id=\"stim\">7</p>", "key_press": -1, "trial_type": "single-stim", "trial_index": 229, "time_elapsed": 1194004, "internal_node_id": "0.0-172.0-3.0"}}, {"uniqueid": "MTK0184:3EQHHY4HQTZ0MFIYK6UJYI3CMX65GT", "current_trial": 230, "dateTime": 1509478398209, "trialdata": {"rt": -1, "stimulus": "<p id=\"stim\">6</p>", "key_press": -1, "trial_type": "single-stim", "trial_index": 230, "time_elapsed": 1195007, "internal_node_id": "0.0-172.0-4.0"}}, {"uniqueid": "MTK0184:3EQHHY4HQTZ0MFIYK6UJYI3CMX65GT", "current_trial": 231, "dateTime": 1509478399211, "trialdata": {"rt": -1, "stimulus": "<p id=\"stim\">5</p>", "key_press": -1, "trial_type": "single-stim", "trial_index": 231, "time_elapsed": 1196008, "internal_node_id": "0.0-172.0-5.0"}}, {"uniqueid": "MTK0184:3EQHHY4HQTZ0MFIYK6UJYI3CMX65GT", "current_trial": 232, "dateTime": 1509478400212, "trialdata": {"rt": -1, "stimulus": "<p id=\"stim\">4</p>", "key_press": -1, "trial_type": "single-stim", "trial_index": 232, "time_elapsed": 1197010, "internal_node_id": "0.0-172.0-6.0"}}, {"uniqueid": "MTK0184:3EQHHY4HQTZ0MFIYK6UJYI3CMX65GT", "current_trial": 233, "dateTime": 1509478401215, "trialdata": {"rt": -1, "stimulus": "<p id=\"stim\">3</p>", "key_press": -1, "trial_type": "single-stim", "trial_index": 233, "time_elapsed": 1198011, "internal_node_id": "0.0-172.0-7.0"}}, {"uniqueid": "MTK0184:3EQHHY4HQTZ0MFIYK6UJYI3CMX65GT", "current_trial": 234, "dateTime": 1509478402216, "trialdata": {"rt": -1, "stimulus": "<p id=\"stim\">2</p>", "key_press": -1, "trial_type": "single-stim", "trial_index": 234, "time_elapsed": 1199014, "internal_node_id": "0.0-172.0-8.0"}}, {"uniqueid": "MTK0184:3EQHHY4HQTZ0MFIYK6UJYI3CMX65GT", "current_trial": 235, "dateTime": 1509478403217, "trialdata": {"rt": -1, "stimulus": "<p id=\"stim\">1</p>", "key_press": -1, "trial_type": "single-stim", "trial_index": 235, "time_elapsed": 1200015, "internal_node_id": "0.0-172.0-9.0"}}, {"uniqueid": "MTK0184:3EQHHY4HQTZ0MFIYK6UJYI3CMX65GT", "current_trial": 236, "dateTime": 1509478404719, "trialdata": {"rt": -1, "stimulus": "<p id=\"stim\">+</p>", "key_press": -1, "type": "FIXATION", "trial_type": "single-stim", "trial_index": 236, "time_elapsed": 1201516, "internal_node_id": "0.0-173.0-0.0"}}, {"uniqueid": "MTK0184:3EQHHY4HQTZ0MFIYK6UJYI3CMX65GT", "current_trial": 237, "dateTime": 1509478406320, "trialdata": {"rt": -1, "stimulus": "<p id=\"stim\">CRUTCH</p>", "key_press": -1, "type": "PRES_VIS", "word": "crutch", "wordID": 416, "conditions": [12, 1600, "v", 24000], "trial": 6, "serialpos": 0, "trial_type": "single-stim", "trial_index": 237, "time_elapsed": 1203118, "internal_node_id": "0.0-174.0"}}, {"uniqueid": "MTK0184:3EQHHY4HQTZ0MFIYK6UJYI3CMX65GT", "current_trial": 238, "dateTime": 1509478408920, "trialdata": {"rt": -1, "stimulus": "<p id=\"stim\">OYSTER</p>", "key_press": -1, "type": "PRES_VIS", "word": "oyster", "wordID": 994, "conditions": [12, 1600, "v", 24000], "trial": 6, "serialpos": 1, "trial_type": "single-stim", "trial_index": 238, "time_elapsed": 1205718, "internal_node_id": "0.0-175.0"}}, {"uniqueid": "MTK0184:3EQHHY4HQTZ0MFIYK6UJYI3CMX65GT", "current_trial": 239, "dateTime": 1509478411345, "trialdata": {"rt": -1, "stimulus": "<p id=\"stim\">BLUEPRINT</p>", "key_press": -1, "type": "PRES_VIS", "word": "blueprint", "wordID": 141, "conditions": [12, 1600, "v", 24000], "trial": 6, "serialpos": 2, "trial_type": "single-stim", "trial_index": 239, "time_elapsed": 1208143, "internal_node_id": "0.0-176.0"}}, {"uniqueid": "MTK0184:3EQHHY4HQTZ0MFIYK6UJYI3CMX65GT", "current_trial": 240, "dateTime": 1509478413867, "trialdata": {"rt": -1, "stimulus": "<p id=\"stim\">DUSTPAN</p>", "key_press": -1, "type": "PRES_VIS", "word": "dustpan", "wordID": 508, "conditions": [12, 1600, "v", 24000], "trial": 6, "serialpos": 3, "trial_type": "single-stim", "trial_index": 240, "time_elapsed": 1210665, "internal_node_id": "0.0-177.0"}}, {"uniqueid": "MTK0184:3EQHHY4HQTZ0MFIYK6UJYI3CMX65GT", "current_trial": 241, "dateTime": 1509478416514, "trialdata": {"rt": -1, "stimulus": "<p id=\"stim\">CRATER</p>", "key_press": -1, "type": "PRES_VIS", "word": "crater", "wordID": 399, "conditions": [12, 1600, "v", 24000], "trial": 6, "serialpos": 4, "trial_type": "single-stim", "trial_index": 241, "time_elapsed": 1213312, "internal_node_id": "0.0-178.0"}}, {"uniqueid": "MTK0184:3EQHHY4HQTZ0MFIYK6UJYI3CMX65GT", "current_trial": 242, "dateTime": 1509478419279, "trialdata": {"rt": -1, "stimulus": "<p id=\"stim\">FARMER</p>", "key_press": -1, "type": "PRES_VIS", "word": "farmer", "wordID": 552, "conditions": [12, 1600, "v", 24000], "trial": 6, "serialpos": 5, "trial_type": "single-stim", "trial_index": 242, "time_elapsed": 1216077, "internal_node_id": "0.0-179.0"}}, {"uniqueid": "MTK0184:3EQHHY4HQTZ0MFIYK6UJYI3CMX65GT", "current_trial": 243, "dateTime": 1509478421701, "trialdata": {"rt": -1, "stimulus": "<p id=\"stim\">COUSIN</p>", "key_press": -1, "type": "PRES_VIS", "word": "cousin", "wordID": 391, "conditions": [12, 1600, "v", 24000], "trial": 6, "serialpos": 6, "trial_type": "single-stim", "trial_index": 243, "time_elapsed": 1218499, "internal_node_id": "0.0-180.0"}}, {"uniqueid": "MTK0184:3EQHHY4HQTZ0MFIYK6UJYI3CMX65GT", "current_trial": 244, "dateTime": 1509478424132, "trialdata": {"rt": -1, "stimulus": "<p id=\"stim\">DAUGHTER</p>", "key_press": -1, "type": "PRES_VIS", "word": "daughter", "wordID": 441, "conditions": [12, 1600, "v", 24000], "trial": 6, "serialpos": 7, "trial_type": "single-stim", "trial_index": 244, "time_elapsed": 1220930, "internal_node_id": "0.0-181.0"}}, {"uniqueid": "MTK0184:3EQHHY4HQTZ0MFIYK6UJYI3CMX65GT", "current_trial": 245, "dateTime": 1509478426837, "trialdata": {"rt": -1, "stimulus": "<p id=\"stim\">RABBIT</p>", "key_press": -1, "type": "PRES_VIS", "word": "rabbit", "wordID": 1151, "conditions": [12, 1600, "v", 24000], "trial": 6, "serialpos": 8, "trial_type": "single-stim", "trial_index": 245, "time_elapsed": 1223635, "internal_node_id": "0.0-182.0"}}, {"uniqueid": "MTK0184:3EQHHY4HQTZ0MFIYK6UJYI3CMX65GT", "current_trial": 246, "dateTime": 1509478429345, "trialdata": {"rt": -1, "stimulus": "<p id=\"stim\">LETTUCE</p>", "key_press": -1, "type": "PRES_VIS", "word": "lettuce", "wordID": 813, "conditions": [12, 1600, "v", 24000], "trial": 6, "serialpos": 9, "trial_type": "single-stim", "trial_index": 246, "time_elapsed": 1226143, "internal_node_id": "0.0-183.0"}}, {"uniqueid": "MTK0184:3EQHHY4HQTZ0MFIYK6UJYI3CMX65GT", "current_trial": 247, "dateTime": 1509478432039, "trialdata": {"rt": -1, "stimulus": "<p id=\"stim\">MATTRESS</p>", "key_press": -1, "type": "PRES_VIS", "word": "mattress", "wordID": 878, "conditions": [12, 1600, "v", 24000], "trial": 6, "serialpos": 10, "trial_type": "single-stim", "trial_index": 247, "time_elapsed": 1228837, "internal_node_id": "0.0-184.0"}}, {"uniqueid": "MTK0184:3EQHHY4HQTZ0MFIYK6UJYI3CMX65GT", "current_trial": 248, "dateTime": 1509478434781, "trialdata": {"rt": -1, "stimulus": "<p id=\"stim\">SPIDER</p>", "key_press": -1, "type": "PRES_VIS", "word": "spider", "wordID": 1350, "conditions": [12, 1600, "v", 24000], "trial": 6, "serialpos": 11, "trial_type": "single-stim", "trial_index": 248, "time_elapsed": 1231579, "internal_node_id": "0.0-185.0"}}, {"uniqueid": "MTK0184:3EQHHY4HQTZ0MFIYK6UJYI3CMX65GT", "current_trial": 249, "dateTime": 1509478437003, "trialdata": {"rt": -1, "stimulus": "", "key_press": -1, "type": "PRE_RECALL_DELAY", "trial_type": "single-stim", "trial_index": 249, "time_elapsed": 1233801, "internal_node_id": "0.0-186.0-0.0"}}, {"uniqueid": "MTK0184:3EQHHY4HQTZ0MFIYK6UJYI3CMX65GT", "current_trial": 250, "dateTime": 1509478437507, "trialdata": {"rt": -1000, "stimulus": "/static/audio/400Hz.wav", "key_press": -1, "type": "PRE_RECALL_ALERT", "trial_type": "single-audio", "trial_index": 250, "time_elapsed": 1234304, "internal_node_id": "0.0-187.0"}}, {"uniqueid": "MTK0184:3EQHHY4HQTZ0MFIYK6UJYI3CMX65GT", "current_trial": 251, "dateTime": 1509478497513, "trialdata": {"rt": [4311, 7281, 12483, 16990, 21385, 24573, 29095, 35433, 43562, 46479], "recwords": ["spider", "matress", "oyster", "dustpan", "cousin", "rabbit", "lettuce", "crutch", "crater", "farmer"], "type": "FREE_RECALL", "conditions": [12, 1600, "v", 24000], "trial": 6, "trial_type": "free-recall", "trial_index": 251, "time_elapsed": 1294308, "internal_node_id": "0.0-188.0-0.0"}}, {"uniqueid": "MTK0184:3EQHHY4HQTZ0MFIYK6UJYI3CMX65GT", "current_trial": 252, "dateTime": 1509478501737, "trialdata": {"rt": 2222, "key_press": 32, "type": "INSTRUCTIONS", "trial_type": "text", "trial_index": 252, "time_elapsed": 1298534, "internal_node_id": "0.0-189.0"}}, {"uniqueid": "MTK0184:3EQHHY4HQTZ0MFIYK6UJYI3CMX65GT", "current_trial": 253, "dateTime": 1509478527740, "trialdata": {"rt": [2526, 9005, 12581, 16959, 20838, 23288], "responses": ["18", "16", "11", "17", "14", "16"], "num1": [2, 7, 2, 6, 8, 6, 7], "num2": [8, 3, 6, 5, 1, 5, 3], "num3": [8, 6, 3, 6, 5, 5, 1], "type": "DISTRACTOR", "conditions": [12, 1600, "a", 24000], "trial": 7, "trial_type": "math-distractor", "trial_index": 253, "time_elapsed": 1324537, "internal_node_id": "0.0-190.0"}}, {"uniqueid": "MTK0184:3EQHHY4HQTZ0MFIYK6UJYI3CMX65GT", "current_trial": 254, "dateTime": 1509478530742, "trialdata": {"rt": -1, "stimulus": "<p id=\"stim\">10</p>", "key_press": -1, "trial_type": "single-stim", "trial_index": 254, "time_elapsed": 1327540, "internal_node_id": "0.0-191.0-0.0"}}, {"uniqueid": "MTK0184:3EQHHY4HQTZ0MFIYK6UJYI3CMX65GT", "current_trial": 255, "dateTime": 1509478531744, "trialdata": {"rt": -1, "stimulus": "<p id=\"stim\">9</p>", "key_press": -1, "trial_type": "single-stim", "trial_index": 255, "time_elapsed": 1328542, "internal_node_id": "0.0-191.0-1.0"}}, {"uniqueid": "MTK0184:3EQHHY4HQTZ0MFIYK6UJYI3CMX65GT", "current_trial": 256, "dateTime": 1509478532745, "trialdata": {"rt": -1, "stimulus": "<p id=\"stim\">8</p>", "key_press": -1, "trial_type": "single-stim", "trial_index": 256, "time_elapsed": 1329543, "internal_node_id": "0.0-191.0-2.0"}}, {"uniqueid": "MTK0184:3EQHHY4HQTZ0MFIYK6UJYI3CMX65GT", "current_trial": 257, "dateTime": 1509478533747, "trialdata": {"rt": -1, "stimulus": "<p id=\"stim\">7</p>", "key_press": -1, "trial_type": "single-stim", "trial_index": 257, "time_elapsed": 1330545, "internal_node_id": "0.0-191.0-3.0"}}, {"uniqueid": "MTK0184:3EQHHY4HQTZ0MFIYK6UJYI3CMX65GT", "current_trial": 258, "dateTime": 1509478534748, "trialdata": {"rt": -1, "stimulus": "<p id=\"stim\">6</p>", "key_press": -1, "trial_type": "single-stim", "trial_index": 258, "time_elapsed": 1331546, "internal_node_id": "0.0-191.0-4.0"}}, {"uniqueid": "MTK0184:3EQHHY4HQTZ0MFIYK6UJYI3CMX65GT", "current_trial": 259, "dateTime": 1509478535750, "trialdata": {"rt": -1, "stimulus": "<p id=\"stim\">5</p>", "key_press": -1, "trial_type": "single-stim", "trial_index": 259, "time_elapsed": 1332548, "internal_node_id": "0.0-191.0-5.0"}}, {"uniqueid": "MTK0184:3EQHHY4HQTZ0MFIYK6UJYI3CMX65GT", "current_trial": 260, "dateTime": 1509478536751, "trialdata": {"rt": -1, "stimulus": "<p id=\"stim\">4</p>", "key_press": -1, "trial_type": "single-stim", "trial_index": 260, "time_elapsed": 1333549, "internal_node_id": "0.0-191.0-6.0"}}, {"uniqueid": "MTK0184:3EQHHY4HQTZ0MFIYK6UJYI3CMX65GT", "current_trial": 261, "dateTime": 1509478537754, "trialdata": {"rt": -1, "stimulus": "<p id=\"stim\">3</p>", "key_press": -1, "trial_type": "single-stim", "trial_index": 261, "time_elapsed": 1334550, "internal_node_id": "0.0-191.0-7.0"}}, {"uniqueid": "MTK0184:3EQHHY4HQTZ0MFIYK6UJYI3CMX65GT", "current_trial": 262, "dateTime": 1509478538754, "trialdata": {"rt": -1, "stimulus": "<p id=\"stim\">2</p>", "key_press": -1, "trial_type": "single-stim", "trial_index": 262, "time_elapsed": 1335552, "internal_node_id": "0.0-191.0-8.0"}}, {"uniqueid": "MTK0184:3EQHHY4HQTZ0MFIYK6UJYI3CMX65GT", "current_trial": 263, "dateTime": 1509478539756, "trialdata": {"rt": -1, "stimulus": "<p id=\"stim\">1</p>", "key_press": -1, "trial_type": "single-stim", "trial_index": 263, "time_elapsed": 1336554, "internal_node_id": "0.0-191.0-9.0"}}, {"uniqueid": "MTK0184:3EQHHY4HQTZ0MFIYK6UJYI3CMX65GT", "current_trial": 264, "dateTime": 1509478541442, "trialdata": {"rt": -1, "stimulus": "<p id=\"stim\">+</p>", "key_press": -1, "type": "FIXATION", "trial_type": "single-stim", "trial_index": 264, "time_elapsed": 1338240, "internal_node_id": "0.0-192.0-0.0"}}, {"uniqueid": "MTK0184:3EQHHY4HQTZ0MFIYK6UJYI3CMX65GT", "current_trial": 265, "dateTime": 1509478544223, "trialdata": {"rt": -1000, "stimulus": "/static/audio/wordpool/MOP.wav", "key_press": -1, "type": "PRES_AUD", "word": "mop", "wordID": 915, "conditions": [12, 1600, "a", 24000], "trial": 7, "serialpos": 0, "trial_type": "single-audio", "trial_index": 265, "time_elapsed": 1341021, "internal_node_id": "0.0-193.0"}}, {"uniqueid": "MTK0184:3EQHHY4HQTZ0MFIYK6UJYI3CMX65GT", "current_trial": 266, "dateTime": 1509478546993, "trialdata": {"rt": -1000, "stimulus": "/static/audio/wordpool/GARBAGE.wav", "key_press": -1, "type": "PRES_AUD", "word": "garbage", "wordID": 621, "conditions": [12, 1600, "a", 24000], "trial": 7, "serialpos": 1, "trial_type": "single-audio", "trial_index": 266, "time_elapsed": 1343791, "internal_node_id": "0.0-194.0"}}, {"uniqueid": "MTK0184:3EQHHY4HQTZ0MFIYK6UJYI3CMX65GT", "current_trial": 267, "dateTime": 1509478549686, "trialdata": {"rt": -1000, "stimulus": "/static/audio/wordpool/FREEZER.wav", "key_press": -1, "type": "PRES_AUD", "word": "freezer", "wordID": 603, "conditions": [12, 1600, "a", 24000], "trial": 7, "serialpos": 2, "trial_type": "single-audio", "trial_index": 267, "time_elapsed": 1346484, "internal_node_id": "0.0-195.0"}}, {"uniqueid": "MTK0184:3EQHHY4HQTZ0MFIYK6UJYI3CMX65GT", "current_trial": 268, "dateTime": 1509478552416, "trialdata": {"rt": -1000, "stimulus": "/static/audio/wordpool/PAPER.wav", "key_press": -1, "type": "PRES_AUD", "word": "paper", "wordID": 1010, "conditions": [12, 1600, "a", 24000], "trial": 7, "serialpos": 3, "trial_type": "single-audio", "trial_index": 268, "time_elapsed": 1349214, "internal_node_id": "0.0-196.0"}}, {"uniqueid": "MTK0184:3EQHHY4HQTZ0MFIYK6UJYI3CMX65GT", "current_trial": 269, "dateTime": 1509478554851, "trialdata": {"rt": -1000, "stimulus": "/static/audio/wordpool/BLENDER.wav", "key_press": -1, "type": "PRES_AUD", "word": "blender", "wordID": 135, "conditions": [12, 1600, "a", 24000], "trial": 7, "serialpos": 4, "trial_type": "single-audio", "trial_index": 269, "time_elapsed": 1351649, "internal_node_id": "0.0-197.0"}}, {"uniqueid": "MTK0184:3EQHHY4HQTZ0MFIYK6UJYI3CMX65GT", "current_trial": 270, "dateTime": 1509478557599, "trialdata": {"rt": -1000, "stimulus": "/static/audio/wordpool/BRICK.wav", "key_press": -1, "type": "PRES_AUD", "word": "brick", "wordID": 171, "conditions": [12, 1600, "a", 24000], "trial": 7, "serialpos": 5, "trial_type": "single-audio", "trial_index": 270, "time_elapsed": 1354397, "internal_node_id": "0.0-198.0"}}, {"uniqueid": "MTK0184:3EQHHY4HQTZ0MFIYK6UJYI3CMX65GT", "current_trial": 271, "dateTime": 1509478560095, "trialdata": {"rt": -1000, "stimulus": "/static/audio/wordpool/TILE.wav", "key_press": -1, "type": "PRES_AUD", "word": "tile", "wordID": 1467, "conditions": [12, 1600, "a", 24000], "trial": 7, "serialpos": 6, "trial_type": "single-audio", "trial_index": 271, "time_elapsed": 1356892, "internal_node_id": "0.0-199.0"}}, {"uniqueid": "MTK0184:3EQHHY4HQTZ0MFIYK6UJYI3CMX65GT", "current_trial": 272, "dateTime": 1509478562832, "trialdata": {"rt": -1000, "stimulus": "/static/audio/wordpool/SUPPER.wav", "key_press": -1, "type": "PRES_AUD", "word": "supper", "wordID": 1410, "conditions": [12, 1600, "a", 24000], "trial": 7, "serialpos": 7, "trial_type": "single-audio", "trial_index": 272, "time_elapsed": 1359630, "internal_node_id":