{"condition": 0, "counterbalance": 165, "assignmentId": "37Z929RLGAF5XM2FG26YQCSTSPLTSL", "workerId": "MTK0345", "hitId": "3OID399FXGENP832YQ1IPPV8MRSFDX", "currenttrial": 626, "bonus": 0, "data": [{"uniqueid": "MTK0345:37Z929RLGAF5XM2FG26YQCSTSPLTSL", "current_trial": 0, "dateTime": 1510772409347, "trialdata": {"rt": 1905, "key_press": 32, "type": "INSTRUCTIONS", "trial_type": "text", "trial_index": 0, "time_elapsed": 1910, "internal_node_id": "0.0-0.0"}}, {"uniqueid": "MTK0345:37Z929RLGAF5XM2FG26YQCSTSPLTSL", "current_trial": 1, "dateTime": 1510772442330, "trialdata": {"rt": 32976, "key_press": 32, "type": "INSTRUCTIONS", "trial_type": "text", "trial_index": 1, "time_elapsed": 34895, "internal_node_id": "0.0-1.0"}}, {"uniqueid": "MTK0345:37Z929RLGAF5XM2FG26YQCSTSPLTSL", "current_trial": 2, "dateTime": 1510772449469, "trialdata": {"rt": [7118], "responses": ["ocean"], "type": "AUDIO_TEST", "trial_type": "audio-test", "trial_index": 2, "time_elapsed": 42033, "internal_node_id": "0.0-2.0"}}, {"uniqueid": "MTK0345:37Z929RLGAF5XM2FG26YQCSTSPLTSL", "current_trial": 3, "dateTime": 1510772455869, "trialdata": {"rt": [6390], "responses": ["crystal"], "type": "AUDIO_TEST", "trial_type": "audio-test", "trial_index": 3, "time_elapsed": 48434, "internal_node_id": "0.0-3.0"}}, {"uniqueid": "MTK0345:37Z929RLGAF5XM2FG26YQCSTSPLTSL", "current_trial": 4, "dateTime": 1510772460231, "trialdata": {"rt": [4352], "responses": ["spice"], "type": "AUDIO_TEST", "trial_type": "audio-test", "trial_index": 4, "time_elapsed": 52796, "internal_node_id": "0.0-4.0"}}, {"uniqueid": "MTK0345:37Z929RLGAF5XM2FG26YQCSTSPLTSL", "current_trial": 5, "dateTime": 1510772479408, "trialdata": {"rt": 18420, "responses": "{\"Q0\":\"11:30 pm\",\"Q1\":\"6:30 am\",\"Q2\":\"5\"}", "type": "SLEEP_SURVEY", "trial_type": "survey-text", "trial_index": 5, "time_elapsed": 71973, "internal_node_id": "0.0-5.0"}}, {"uniqueid": "MTK0345:37Z929RLGAF5XM2FG26YQCSTSPLTSL", "current_trial": 6, "dateTime": 1510772515512, "trialdata": {"rt": 35102, "key_press": 32, "type": "INSTRUCTIONS", "trial_type": "text", "trial_index": 6, "time_elapsed": 108077, "internal_node_id": "0.0-6.0"}}, {"uniqueid": "MTK0345:37Z929RLGAF5XM2FG26YQCSTSPLTSL", "current_trial": 7, "dateTime": 1510772531057, "trialdata": {"rt": 15042, "key_press": 32, "type": "INSTRUCTIONS", "trial_type": "text", "trial_index": 7, "time_elapsed": 123622, "internal_node_id": "0.0-7.0"}}, {"uniqueid": "MTK0345:37Z929RLGAF5XM2FG26YQCSTSPLTSL", "current_trial": 8, "dateTime": 1510772541152, "trialdata": {"rt": 9593, "key_press": 32, "type": "INSTRUCTIONS", "trial_type": "text", "trial_index": 8, "time_elapsed": 133716, "internal_node_id": "0.0-8.0"}}, {"uniqueid": "MTK0345:37Z929RLGAF5XM2FG26YQCSTSPLTSL", "current_trial": 9, "dateTime": 1510772560162, "trialdata": {"rt": [2698, 5000, 6845, 8437, 11573, 13820, 16480], "responses": ["8", "11", "10", "8", "18", "14", "14"], "num1": [3, 2, 4, 1, 5, 9, 5, 3], "num2": [4, 2, 5, 3, 6, 3, 6, 4], "num3": [1, 7, 1, 4, 7, 2, 3, 3], "type": "DISTRACTOR", "conditions": [18, 1200, "v", 18000], "trial": 0, "trial_type": "math-distractor", "trial_index": 9, "time_elapsed": 152727, "internal_node_id": "0.0-9.0"}}, {"uniqueid": "MTK0345:37Z929RLGAF5XM2FG26YQCSTSPLTSL", "current_trial": 10, "dateTime": 1510772563168, "trialdata": {"rt": -1, "stimulus": "<p id=\"stim\">10</p>", "key_press": -1, "trial_type": "single-stim", "trial_index": 10, "time_elapsed": 155733, "internal_node_id": "0.0-10.0-0.0"}}, {"uniqueid": "MTK0345:37Z929RLGAF5XM2FG26YQCSTSPLTSL", "current_trial": 11, "dateTime": 1510772564171, "trialdata": {"rt": -1, "stimulus": "<p id=\"stim\">9</p>", "key_press": -1, "trial_type": "single-stim", "trial_index": 11, "time_elapsed": 156736, "internal_node_id": "0.0-10.0-1.0"}}, {"uniqueid": "MTK0345:37Z929RLGAF5XM2FG26YQCSTSPLTSL", "current_trial": 12, "dateTime": 1510772565173, "trialdata": {"rt": -1, "stimulus": "<p id=\"stim\">8</p>", "key_press": -1, "trial_type": "single-stim", "trial_index": 12, "time_elapsed": 157738, "internal_node_id": "0.0-10.0-2.0"}}, {"uniqueid": "MTK0345:37Z929RLGAF5XM2FG26YQCSTSPLTSL", "current_trial": 13, "dateTime": 1510772566177, "trialdata": {"rt": -1, "stimulus": "<p id=\"stim\">7</p>", "key_press": -1, "trial_type": "single-stim", "trial_index": 13, "time_elapsed": 158741, "internal_node_id": "0.0-10.0-3.0"}}, {"uniqueid": "MTK0345:37Z929RLGAF5XM2FG26YQCSTSPLTSL", "current_trial": 14, "dateTime": 1510772567178, "trialdata": {"rt": -1, "stimulus": "<p id=\"stim\">6</p>", "key_press": -1, "trial_type": "single-stim", "trial_index": 14, "time_elapsed": 159743, "internal_node_id": "0.0-10.0-4.0"}}, {"uniqueid": "MTK0345:37Z929RLGAF5XM2FG26YQCSTSPLTSL", "current_trial": 15, "dateTime": 1510772568183, "trialdata": {"rt": -1, "stimulus": "<p id=\"stim\">5</p>", "key_press": -1, "trial_type": "single-stim", "trial_index": 15, "time_elapsed": 160748, "internal_node_id": "0.0-10.0-5.0"}}, {"uniqueid": "MTK0345:37Z929RLGAF5XM2FG26YQCSTSPLTSL", "current_trial": 16, "dateTime": 1510772569186, "trialdata": {"rt": -1, "stimulus": "<p id=\"stim\">4</p>", "key_press": -1, "trial_type": "single-stim", "trial_index": 16, "time_elapsed": 161751, "internal_node_id": "0.0-10.0-6.0"}}, {"uniqueid": "MTK0345:37Z929RLGAF5XM2FG26YQCSTSPLTSL", "current_trial": 17, "dateTime": 1510772570189, "trialdata": {"rt": -1, "stimulus": "<p id=\"stim\">3</p>", "key_press": -1, "trial_type": "single-stim", "trial_index": 17, "time_elapsed": 162754, "internal_node_id": "0.0-10.0-7.0"}}, {"uniqueid": "MTK0345:37Z929RLGAF5XM2FG26YQCSTSPLTSL", "current_trial": 18, "dateTime": 1510772571191, "trialdata": {"rt": -1, "stimulus": "<p id=\"stim\">2</p>", "key_press": -1, "trial_type": "single-stim", "trial_index": 18, "time_elapsed": 163756, "internal_node_id": "0.0-10.0-8.0"}}, {"uniqueid": "MTK0345:37Z929RLGAF5XM2FG26YQCSTSPLTSL", "current_trial": 19, "dateTime": 1510772572195, "trialdata": {"rt": -1, "stimulus": "<p id=\"stim\">1</p>", "key_press": -1, "trial_type": "single-stim", "trial_index": 19, "time_elapsed": 164760, "internal_node_id": "0.0-10.0-9.0"}}, {"uniqueid": "MTK0345:37Z929RLGAF5XM2FG26YQCSTSPLTSL", "current_trial": 20, "dateTime": 1510772573697, "trialdata": {"rt": -1, "stimulus": "<p id=\"stim\">+</p>", "key_press": -1, "type": "FIXATION", "trial_type": "single-stim", "trial_index": 20, "time_elapsed": 166262, "internal_node_id": "0.0-11.0-0.0"}}, {"uniqueid": "MTK0345:37Z929RLGAF5XM2FG26YQCSTSPLTSL", "current_trial": 21, "dateTime": 1510772574900, "trialdata": {"rt": -1, "stimulus": "<p id=\"stim\">HATCHET</p>", "key_press": -1, "type": "PRES_VIS", "word": "hatchet", "wordID": 690, "conditions": [18, 1200, "v", 18000], "trial": 0, "serialpos": 0, "trial_type": "single-stim", "trial_index": 21, "time_elapsed": 167465, "internal_node_id": "0.0-12.0"}}, {"uniqueid": "MTK0345:37Z929RLGAF5XM2FG26YQCSTSPLTSL", "current_trial": 22, "dateTime": 1510772577263, "trialdata": {"rt": -1, "stimulus": "<p id=\"stim\">PICTURE</p>", "key_press": -1, "type": "PRES_VIS", "word": "picture", "wordID": 1060, "conditions": [18, 1200, "v", 18000], "trial": 0, "serialpos": 1, "trial_type": "single-stim", "trial_index": 22, "time_elapsed": 169828, "internal_node_id": "0.0-13.0"}}, {"uniqueid": "MTK0345:37Z929RLGAF5XM2FG26YQCSTSPLTSL", "current_trial": 23, "dateTime": 1510772579523, "trialdata": {"rt": -1, "stimulus": "<p id=\"stim\">CUPBOARD</p>", "key_press": -1, "type": "PRES_VIS", "word": "cupboard", "wordID": 424, "conditions": [18, 1200, "v", 18000], "trial": 0, "serialpos": 2, "trial_type": "single-stim", "trial_index": 23, "time_elapsed": 172088, "internal_node_id": "0.0-14.0"}}, {"uniqueid": "MTK0345:37Z929RLGAF5XM2FG26YQCSTSPLTSL", "current_trial": 24, "dateTime": 1510772581654, "trialdata": {"rt": -1, "stimulus": "<p id=\"stim\">CASHEW</p>", "key_press": -1, "type": "PRES_VIS", "word": "cashew", "wordID": 252, "conditions": [18, 1200, "v", 18000], "trial": 0, "serialpos": 3, "trial_type": "single-stim", "trial_index": 24, "time_elapsed": 174219, "internal_node_id": "0.0-15.0"}}, {"uniqueid": "MTK0345:37Z929RLGAF5XM2FG26YQCSTSPLTSL", "current_trial": 25, "dateTime": 1510772583689, "trialdata": {"rt": -1, "stimulus": "<p id=\"stim\">CHILD</p>", "key_press": -1, "type": "PRES_VIS", "word": "child", "wordID": 298, "conditions": [18, 1200, "v", 18000], "trial": 0, "serialpos": 4, "trial_type": "single-stim", "trial_index": 25, "time_elapsed": 176254, "internal_node_id": "0.0-16.0"}}, {"uniqueid": "MTK0345:37Z929RLGAF5XM2FG26YQCSTSPLTSL", "current_trial": 26, "dateTime": 1510772585704, "trialdata": {"rt": -1, "stimulus": "<p id=\"stim\">ICEBERG</p>", "key_press": -1, "type": "PRES_VIS", "word": "iceberg", "wordID": 730, "conditions": [18, 1200, "v", 18000], "trial": 0, "serialpos": 5, "trial_type": "single-stim", "trial_index": 26, "time_elapsed": 178269, "internal_node_id": "0.0-17.0"}}, {"uniqueid": "MTK0345:37Z929RLGAF5XM2FG26YQCSTSPLTSL", "current_trial": 27, "dateTime": 1510772587953, "trialdata": {"rt": -1, "stimulus": "<p id=\"stim\">NOMAD</p>", "key_press": -1, "type": "PRES_VIS", "word": "nomad", "wordID": 954, "conditions": [18, 1200, "v", 18000], "trial": 0, "serialpos": 6, "trial_type": "single-stim", "trial_index": 27, "time_elapsed": 180518, "internal_node_id": "0.0-18.0"}}, {"uniqueid": "MTK0345:37Z929RLGAF5XM2FG26YQCSTSPLTSL", "current_trial": 28, "dateTime": 1510772590237, "trialdata": {"rt": -1, "stimulus": "<p id=\"stim\">ROOSTER</p>", "key_press": -1, "type": "PRES_VIS", "word": "rooster", "wordID": 1208, "conditions": [18, 1200, "v", 18000], "trial": 0, "serialpos": 7, "trial_type": "single-stim", "trial_index": 28, "time_elapsed": 182802, "internal_node_id": "0.0-19.0"}}, {"uniqueid": "MTK0345:37Z929RLGAF5XM2FG26YQCSTSPLTSL", "current_trial": 29, "dateTime": 1510772592590, "trialdata": {"rt": -1, "stimulus": "<p id=\"stim\">KETCHUP</p>", "key_press": -1, "type": "PRES_VIS", "word": "ketchup", "wordID": 770, "conditions": [18, 1200, "v", 18000], "trial": 0, "serialpos": 8, "trial_type": "single-stim", "trial_index": 29, "time_elapsed": 185155, "internal_node_id": "0.0-20.0"}}, {"uniqueid": "MTK0345:37Z929RLGAF5XM2FG26YQCSTSPLTSL", "current_trial": 30, "dateTime": 1510772594865, "trialdata": {"rt": -1, "stimulus": "<p id=\"stim\">BARREL</p>", "key_press": -1, "type": "PRES_VIS", "word": "barrel", "wordID": 90, "conditions": [18, 1200, "v", 18000], "trial": 0, "serialpos": 9, "trial_type": "single-stim", "trial_index": 30, "time_elapsed": 187430, "internal_node_id": "0.0-21.0"}}, {"uniqueid": "MTK0345:37Z929RLGAF5XM2FG26YQCSTSPLTSL", "current_trial": 31, "dateTime": 1510772596949, "trialdata": {"rt": -1, "stimulus": "<p id=\"stim\">INFANT</p>", "key_press": -1, "type": "PRES_VIS", "word": "infant", "wordID": 736, "conditions": [18, 1200, "v", 18000], "trial": 0, "serialpos": 10, "trial_type": "single-stim", "trial_index": 31, "time_elapsed": 189514, "internal_node_id": "0.0-22.0"}}, {"uniqueid": "MTK0345:37Z929RLGAF5XM2FG26YQCSTSPLTSL", "current_trial": 32, "dateTime": 1510772599000, "trialdata": {"rt": -1, "stimulus": "<p id=\"stim\">BALLOON</p>", "key_press": -1, "type": "PRES_VIS", "word": "balloon", "wordID": 74, "conditions": [18, 1200, "v", 18000], "trial": 0, "serialpos": 11, "trial_type": "single-stim", "trial_index": 32, "time_elapsed": 191565, "internal_node_id": "0.0-23.0"}}, {"uniqueid": "MTK0345:37Z929RLGAF5XM2FG26YQCSTSPLTSL", "current_trial": 33, "dateTime": 1510772601210, "trialdata": {"rt": -1, "stimulus": "<p id=\"stim\">PORK</p>", "key_press": -1, "type": "PRES_VIS", "word": "pork", "wordID": 1107, "conditions": [18, 1200, "v", 18000], "trial": 0, "serialpos": 12, "trial_type": "single-stim", "trial_index": 33, "time_elapsed": 193775, "internal_node_id": "0.0-24.0"}}, {"uniqueid": "MTK0345:37Z929RLGAF5XM2FG26YQCSTSPLTSL", "current_trial": 34, "dateTime": 1510772603526, "trialdata": {"rt": -1, "stimulus": "<p id=\"stim\">ITEM</p>", "key_press": -1, "type": "PRES_VIS", "word": "item", "wordID": 745, "conditions": [18, 1200, "v", 18000], "trial": 0, "serialpos": 13, "trial_type": "single-stim", "trial_index": 34, "time_elapsed": 196090, "internal_node_id": "0.0-25.0"}}, {"uniqueid": "MTK0345:37Z929RLGAF5XM2FG26YQCSTSPLTSL", "current_trial": 35, "dateTime": 1510772605580, "trialdata": {"rt": -1, "stimulus": "<p id=\"stim\">FLOWER</p>", "key_press": -1, "type": "PRES_VIS", "word": "flower", "wordID": 583, "conditions": [18, 1200, "v", 18000], "trial": 0, "serialpos": 14, "trial_type": "single-stim", "trial_index": 35, "time_elapsed": 198145, "internal_node_id": "0.0-26.0"}}, {"uniqueid": "MTK0345:37Z929RLGAF5XM2FG26YQCSTSPLTSL", "current_trial": 36, "dateTime": 1510772607684, "trialdata": {"rt": -1, "stimulus": "<p id=\"stim\">PIZZA</p>", "key_press": -1, "type": "PRES_VIS", "word": "pizza", "wordID": 1078, "conditions": [18, 1200, "v", 18000], "trial": 0, "serialpos": 15, "trial_type": "single-stim", "trial_index": 36, "time_elapsed": 200249, "internal_node_id": "0.0-27.0"}}, {"uniqueid": "MTK0345:37Z929RLGAF5XM2FG26YQCSTSPLTSL", "current_trial": 37, "dateTime": 1510772609929, "trialdata": {"rt": -1, "stimulus": "<p id=\"stim\">DIME</p>", "key_press": -1, "type": "PRES_VIS", "word": "dime", "wordID": 465, "conditions": [18, 1200, "v", 18000], "trial": 0, "serialpos": 16, "trial_type": "single-stim", "trial_index": 37, "time_elapsed": 202494, "internal_node_id": "0.0-28.0"}}, {"uniqueid": "MTK0345:37Z929RLGAF5XM2FG26YQCSTSPLTSL", "current_trial": 38, "dateTime": 1510772612043, "trialdata": {"rt": -1, "stimulus": "<p id=\"stim\">WAGON</p>", "key_press": -1, "type": "PRES_VIS", "word": "wagon", "wordID": 1577, "conditions": [18, 1200, "v", 18000], "trial": 0, "serialpos": 17, "trial_type": "single-stim", "trial_index": 38, "time_elapsed": 204608, "internal_node_id": "0.0-29.0"}}, {"uniqueid": "MTK0345:37Z929RLGAF5XM2FG26YQCSTSPLTSL", "current_trial": 39, "dateTime": 1510772614471, "trialdata": {"rt": -1, "stimulus": "", "key_press": -1, "type": "PRE_RECALL_DELAY", "trial_type": "single-stim", "trial_index": 39, "time_elapsed": 207036, "internal_node_id": "0.0-30.0-0.0"}}, {"uniqueid": "MTK0345:37Z929RLGAF5XM2FG26YQCSTSPLTSL", "current_trial": 40, "dateTime": 1510772614976, "trialdata": {"rt": -1000, "stimulus": "/static/audio/400Hz.wav", "key_press": -1, "type": "PRE_RECALL_ALERT", "trial_type": "single-audio", "trial_index": 40, "time_elapsed": 207541, "internal_node_id": "0.0-31.0"}}, {"uniqueid": "MTK0345:37Z929RLGAF5XM2FG26YQCSTSPLTSL", "current_trial": 41, "dateTime": 1510772674988, "trialdata": {"rt": [2247, 3293, 4313, 5167, 7836, 14089, 18128, 27930, 32025], "recwords": ["hatchet", "flower", "pizza", "dime", "iceberg", "nomad", "wagon", "picture", "cupboard"], "type": "FREE_RECALL", "conditions": [18, 1200, "v", 18000], "trial": 0, "trial_type": "free-recall", "trial_index": 41, "time_elapsed": 267548, "internal_node_id": "0.0-32.0-0.0"}}, {"uniqueid": "MTK0345:37Z929RLGAF5XM2FG26YQCSTSPLTSL", "current_trial": 42, "dateTime": 1510772692697, "trialdata": {"rt": 15706, "key_press": 32, "type": "INSTRUCTIONS", "trial_type": "text", "trial_index": 42, "time_elapsed": 285261, "internal_node_id": "0.0-33.0"}}, {"uniqueid": "MTK0345:37Z929RLGAF5XM2FG26YQCSTSPLTSL", "current_trial": 43, "dateTime": 1510772712703, "trialdata": {"rt": [2260, 4560, 6988, 9374, 11968, 13797, 15671, 17404], "responses": ["16", "24", "19", "10", "16", "9", "13", "14"], "num1": [9, 7, 9, 5, 2, 7, 3, 7, 2], "num2": [1, 6, 8, 4, 5, 1, 1, 3, 8], "num3": [6, 9, 2, 1, 9, 1, 9, 4, 4], "type": "DISTRACTOR", "conditions": [18, 1200, "a", 18000], "trial": 1, "trial_type": "math-distractor", "trial_index": 43, "time_elapsed": 305267, "internal_node_id": "0.0-34.0"}}, {"uniqueid": "MTK0345:37Z929RLGAF5XM2FG26YQCSTSPLTSL", "current_trial": 44, "dateTime": 1510772715706, "trialdata": {"rt": -1, "stimulus": "<p id=\"stim\">10</p>", "key_press": -1, "trial_type": "single-stim", "trial_index": 44, "time_elapsed": 308271, "internal_node_id": "0.0-35.0-0.0"}}, {"uniqueid": "MTK0345:37Z929RLGAF5XM2FG26YQCSTSPLTSL", "current_trial": 45, "dateTime": 1510772716708, "trialdata": {"rt": -1, "stimulus": "<p id=\"stim\">9</p>", "key_press": -1, "trial_type": "single-stim", "trial_index": 45, "time_elapsed": 309273, "internal_node_id": "0.0-35.0-1.0"}}, {"uniqueid": "MTK0345:37Z929RLGAF5XM2FG26YQCSTSPLTSL", "current_trial": 46, "dateTime": 1510772717711, "trialdata": {"rt": -1, "stimulus": "<p id=\"stim\">8</p>", "key_press": -1, "trial_type": "single-stim", "trial_index": 46, "time_elapsed": 310276, "internal_node_id": "0.0-35.0-2.0"}}, {"uniqueid": "MTK0345:37Z929RLGAF5XM2FG26YQCSTSPLTSL", "current_trial": 47, "dateTime": 1510772718713, "trialdata": {"rt": -1, "stimulus": "<p id=\"stim\">7</p>", "key_press": -1, "trial_type": "single-stim", "trial_index": 47, "time_elapsed": 311278, "internal_node_id": "0.0-35.0-3.0"}}, {"uniqueid": "MTK0345:37Z929RLGAF5XM2FG26YQCSTSPLTSL", "current_trial": 48, "dateTime": 1510772719715, "trialdata": {"rt": -1, "stimulus": "<p id=\"stim\">6</p>", "key_press": -1, "trial_type": "single-stim", "trial_index": 48, "time_elapsed": 312280, "internal_node_id": "0.0-35.0-4.0"}}, {"uniqueid": "MTK0345:37Z929RLGAF5XM2FG26YQCSTSPLTSL", "current_trial": 49, "dateTime": 1510772720718, "trialdata": {"rt": -1, "stimulus": "<p id=\"stim\">5</p>", "key_press": -1, "trial_type": "single-stim", "trial_index": 49, "time_elapsed": 313283, "internal_node_id": "0.0-35.0-5.0"}}, {"uniqueid": "MTK0345:37Z929RLGAF5XM2FG26YQCSTSPLTSL", "current_trial": 50, "dateTime": 1510772721721, "trialdata": {"rt": -1, "stimulus": "<p id=\"stim\">4</p>", "key_press": -1, "trial_type": "single-stim", "trial_index": 50, "time_elapsed": 314285, "internal_node_id": "0.0-35.0-6.0"}}, {"uniqueid": "MTK0345:37Z929RLGAF5XM2FG26YQCSTSPLTSL", "current_trial": 51, "dateTime": 1510772722724, "trialdata": {"rt": -1, "stimulus": "<p id=\"stim\">3</p>", "key_press": -1, "trial_type": "single-stim", "trial_index": 51, "time_elapsed": 315289, "internal_node_id": "0.0-35.0-7.0"}}, {"uniqueid": "MTK0345:37Z929RLGAF5XM2FG26YQCSTSPLTSL", "current_trial": 52, "dateTime": 1510772723729, "trialdata": {"rt": -1, "stimulus": "<p id=\"stim\">2</p>", "key_press": -1, "trial_type": "single-stim", "trial_index": 52, "time_elapsed": 316294, "internal_node_id": "0.0-35.0-8.0"}}, {"uniqueid": "MTK0345:37Z929RLGAF5XM2FG26YQCSTSPLTSL", "current_trial": 53, "dateTime": 1510772724731, "trialdata": {"rt": -1, "stimulus": "<p id=\"stim\">1</p>", "key_press": -1, "trial_type": "single-stim", "trial_index": 53, "time_elapsed": 317296, "internal_node_id": "0.0-35.0-9.0"}}, {"uniqueid": "MTK0345:37Z929RLGAF5XM2FG26YQCSTSPLTSL", "current_trial": 54, "dateTime": 1510772726233, "trialdata": {"rt": -1, "stimulus": "<p id=\"stim\">+</p>", "key_press": -1, "type": "FIXATION", "trial_type": "single-stim", "trial_index": 54, "time_elapsed": 318798, "internal_node_id": "0.0-36.0-0.0"}}, {"uniqueid": "MTK0345:37Z929RLGAF5XM2FG26YQCSTSPLTSL", "current_trial": 55, "dateTime": 1510772728349, "trialdata": {"rt": -1000, "stimulus": "/static/audio/wordpool/LACE.wav", "key_press": -1, "type": "PRES_AUD", "word": "lace", "wordID": 791, "conditions": [18, 1200, "a", 18000], "trial": 1, "serialpos": 0, "trial_type": "single-audio", "trial_index": 55, "time_elapsed": 320914, "internal_node_id": "0.0-37.0"}}, {"uniqueid": "MTK0345:37Z929RLGAF5XM2FG26YQCSTSPLTSL", "current_trial": 56, "dateTime": 1510772730671, "trialdata": {"rt": -1000, "stimulus": "/static/audio/wordpool/PASTA.wav", "key_press": -1, "type": "PRES_AUD", "word": "pasta", "wordID": 1020, "conditions": [18, 1200, "a", 18000], "trial": 1, "serialpos": 1, "trial_type": "single-audio", "trial_index": 56, "time_elapsed": 323236, "internal_node_id": "0.0-38.0"}}, {"uniqueid": "MTK0345:37Z929RLGAF5XM2FG26YQCSTSPLTSL", "current_trial": 57, "dateTime": 1510772732734, "trialdata": {"rt": -1000, "stimulus": "/static/audio/wordpool/CANYON.wav", "key_press": -1, "type": "PRES_AUD", "word": "canyon", "wordID": 234, "conditions": [18, 1200, "a", 18000], "trial": 1, "serialpos": 2, "trial_type": "single-audio", "trial_index": 57, "time_elapsed": 325299, "internal_node_id": "0.0-39.0"}}, {"uniqueid": "MTK0345:37Z929RLGAF5XM2FG26YQCSTSPLTSL", "current_trial": 58, "dateTime": 1510772734900, "trialdata": {"rt": -1000, "stimulus": "/static/audio/wordpool/SUBWAY.wav", "key_press": -1, "type": "PRES_AUD", "word": "subway", "wordID": 1399, "conditions": [18, 1200, "a", 18000], "trial": 1, "serialpos": 3, "trial_type": "single-audio", "trial_index": 58, "time_elapsed": 327465, "internal_node_id": "0.0-40.0"}}, {"uniqueid": "MTK0345:37Z929RLGAF5XM2FG26YQCSTSPLTSL", "current_trial": 59, "dateTime": 1510772736911, "trialdata": {"rt": -1000, "stimulus": "/static/audio/wordpool/HAMPER.wav", "key_press": -1, "type": "PRES_AUD", "word": "hamper", "wordID": 681, "conditions": [18, 1200, "a", 18000], "trial": 1, "serialpos": 4, "trial_type": "single-audio", "trial_index": 59, "time_elapsed": 329476, "internal_node_id": "0.0-41.0"}}, {"uniqueid": "MTK0345:37Z929RLGAF5XM2FG26YQCSTSPLTSL", "current_trial": 60, "dateTime": 1510772739026, "trialdata": {"rt": -1000, "stimulus": "/static/audio/wordpool/PACKAGE.wav", "key_press": -1, "type": "PRES_AUD", "word": "package", "wordID": 996, "conditions": [18, 1200, "a", 18000], "trial": 1, "serialpos": 5, "trial_type": "single-audio", "trial_index": 60, "time_elapsed": 331591, "internal_node_id": "0.0-42.0"}}, {"uniqueid": "MTK0345:37Z929RLGAF5XM2FG26YQCSTSPLTSL", "current_trial": 61, "dateTime": 1510772741056, "trialdata": {"rt": -1000, "stimulus": "/static/audio/wordpool/BUGGY.wav", "key_press": -1, "type": "PRES_AUD", "word": "buggy", "wordID": 187, "conditions": [18, 1200, "a", 18000], "trial": 1, "serialpos": 6, "trial_type": "single-audio", "trial_index": 61, "time_elapsed": 333621, "internal_node_id": "0.0-43.0"}}, {"uniqueid": "MTK0345:37Z929RLGAF5XM2FG26YQCSTSPLTSL", "current_trial": 62, "dateTime": 1510772743077, "trialdata": {"rt": -1000, "stimulus": "/static/audio/wordpool/PATIENT.wav", "key_press": -1, "type": "PRES_AUD", "word": "patient", "wordID": 1023, "conditions": [18, 1200, "a", 18000], "trial": 1, "serialpos": 7, "trial_type": "single-audio", "trial_index": 62, "time_elapsed": 335642, "internal_node_id": "0.0-44.0"}}, {"uniqueid": "MTK0345:37Z929RLGAF5XM2FG26YQCSTSPLTSL", "current_trial": 63, "dateTime": 1510772745267, "trialdata": {"rt": -1000, "stimulus": "/static/audio/wordpool/GOBLIN.wav", "key_press": -1, "type": "PRES_AUD", "word": "goblin", "wordID": 644, "conditions": [18, 1200, "a", 18000], "trial": 1, "serialpos": 8, "trial_type": "single-audio", "trial_index": 63, "time_elapsed": 337831, "internal_node_id": "0.0-45.0"}}, {"uniqueid": "MTK0345:37Z929RLGAF5XM2FG26YQCSTSPLTSL", "current_trial": 64, "dateTime": 1510772747420, "trialdata": {"rt": -1000, "stimulus": "/static/audio/wordpool/BUBBLE.wav", "key_press": -1, "type": "PRES_AUD", "word": "bubble", "wordID": 182, "conditions": [18, 1200, "a", 18000], "trial": 1, "serialpos": 9, "trial_type": "single-audio", "trial_index": 64, "time_elapsed": 339985, "internal_node_id": "0.0-46.0"}}, {"uniqueid": "MTK0345:37Z929RLGAF5XM2FG26YQCSTSPLTSL", "current_trial": 65, "dateTime": 1510772749609, "trialdata": {"rt": -1000, "stimulus": "/static/audio/wordpool/LIGHTNING.wav", "key_press": -1, "type": "PRES_AUD", "word": "lightning", "wordID": 819, "conditions": [18, 1200, "a", 18000], "trial": 1, "serialpos": 10, "trial_type": "single-audio", "trial_index": 65, "time_elapsed": 342173, "internal_node_id": "0.0-47.0"}}, {"uniqueid": "MTK0345:37Z929RLGAF5XM2FG26YQCSTSPLTSL", "current_trial": 66, "dateTime": 1510772751966, "trialdata": {"rt": -1000, "stimulus": "/static/audio/wordpool/BEAVER.wav", "key_press": -1, "type": "PRES_AUD", "word": "beaver", "wordID": 108, "conditions": [18, 1200, "a", 18000], "trial": 1, "serialpos": 11, "trial_type": "single-audio", "trial_index": 66, "time_elapsed": 344531, "internal_node_id": "0.0-48.0"}}, {"uniqueid": "MTK0345:37Z929RLGAF5XM2FG26YQCSTSPLTSL", "current_trial": 67, "dateTime": 1510772754330, "trialdata": {"rt": -1000, "stimulus": "/static/audio/wordpool/FOX.wav", "key_press": -1, "type": "PRES_AUD", "word": "fox", "wordID": 597, "conditions": [18, 1200, "a", 18000], "trial": 1, "serialpos": 12, "trial_type": "single-audio", "trial_index": 67, "time_elapsed": 346895, "internal_node_id": "0.0-49.0"}}, {"uniqueid": "MTK0345:37Z929RLGAF5XM2FG26YQCSTSPLTSL", "current_trial": 68, "dateTime": 1510772756484, "trialdata": {"rt": -1000, "stimulus": "/static/audio/wordpool/MUSTARD.wav", "key_press": -1, "type": "PRES_AUD", "word": "mustard", "wordID": 934, "conditions": [18, 1200, "a", 18000], "trial": 1, "serialpos": 13, "trial_type": "single-audio", "trial_index": 68, "time_elapsed": 349046, "internal_node_id": "0.0-50.0"}}, {"uniqueid": "MTK0345:37Z929RLGAF5XM2FG26YQCSTSPLTSL", "current_trial": 69, "dateTime": 1510772758593, "trialdata": {"rt": -1000, "stimulus": "/static/audio/wordpool/MILK.wav", "key_press": -1, "type": "PRES_AUD", "word": "milk", "wordID": 894, "conditions": [18, 1200, "a", 18000], "trial": 1, "serialpos": 14, "trial_type": "single-audio", "trial_index": 69, "time_elapsed": 351157, "internal_node_id": "0.0-51.0"}}, {"uniqueid": "MTK0345:37Z929RLGAF5XM2FG26YQCSTSPLTSL", "current_trial": 70, "dateTime": 1510772760649, "trialdata": {"rt": -1000, "stimulus": "/static/audio/wordpool/COWBOY.wav", "key_press": -1, "type": "PRES_AUD", "word": "cowboy", "wordID": 394, "conditions": [18, 1200, "a", 18000], "trial": 1, "serialpos": 15, "trial_type": "single-audio", "trial_index": 70, "time_elapsed": 353213, "internal_node_id": "0.0-52.0"}}, {"uniqueid": "MTK0345:37Z929RLGAF5XM2FG26YQCSTSPLTSL", "current_trial": 71, "dateTime": 1510772762751, "trialdata": {"rt": -1000, "stimulus": "/static/audio/wordpool/SLUG.wav", "key_press": -1, "type": "PRES_AUD", "word": "slug", "wordID": 1328, "conditions": [18, 1200, "a", 18000], "trial": 1, "serialpos": 16, "trial_type": "single-audio", "trial_index": 71, "time_elapsed": 355316, "internal_node_id": "0.0-53.0"}}, {"uniqueid": "MTK0345:37Z929RLGAF5XM2FG26YQCSTSPLTSL", "current_trial": 72, "dateTime": 1510772764870, "trialdata": {"rt": -1000, "stimulus": "/static/audio/wordpool/SEAFOOD.wav", "key_press": -1, "type": "PRES_AUD", "word": "seafood", "wordID": 1259, "conditions": [18, 1200, "a", 18000], "trial": 1, "serialpos": 17, "trial_type": "single-audio", "trial_index": 72, "time_elapsed": 357435, "internal_node_id": "0.0-54.0"}}, {"uniqueid": "MTK0345:37Z929RLGAF5XM2FG26YQCSTSPLTSL", "current_trial": 73, "dateTime": 1510772766152, "trialdata": {"rt": -1, "stimulus": "", "key_press": -1, "type": "PRE_RECALL_DELAY", "trial_type": "single-stim", "trial_index": 73, "time_elapsed": 358717, "internal_node_id": "0.0-55.0-0.0"}}, {"uniqueid": "MTK0345:37Z929RLGAF5XM2FG26YQCSTSPLTSL", "current_trial": 74, "dateTime": 1510772766655, "trialdata": {"rt": -1000, "stimulus": "/static/audio/400Hz.wav", "key_press": -1, "type": "PRE_RECALL_ALERT", "trial_type": "single-audio", "trial_index": 74, "time_elapsed": 359219, "internal_node_id": "0.0-56.0"}}, {"uniqueid": "MTK0345:37Z929RLGAF5XM2FG26YQCSTSPLTSL", "current_trial": 75, "dateTime": 1510772826675, "trialdata": {"rt": [2053, 3408, 4526, 5396, 7848, 10451, 13138, 22939, 34390, 38717], "recwords": ["slug", "seafood", "beaver", "fox", "patient", "mustard", "cowboy", "goblin", "lace", "buggy"], "type": "FREE_RECALL", "conditions": [18, 1200, "a", 18000], "trial": 1, "trial_type": "free-recall", "trial_index": 75, "time_elapsed": 419227, "internal_node_id": "0.0-57.0-0.0"}}, {"uniqueid": "MTK0345:37Z929RLGAF5XM2FG26YQCSTSPLTSL", "current_trial": 76, "dateTime": 1510772831253, "trialdata": {"rt": 2564, "key_press": 32, "type": "INSTRUCTIONS", "trial_type": "text", "trial_index": 76, "time_elapsed": 423809, "internal_node_id": "0.0-58.0"}}, {"uniqueid": "MTK0345:37Z929RLGAF5XM2FG26YQCSTSPLTSL", "current_trial": 77, "dateTime": 1510772856264, "trialdata": {"rt": [2138, 4315, 6031, 9424, 11283, 13181, 15013, 16538, 18396, 20252, 22107, 23807], "responses": ["11", "20", "13", "21", "18", "16", "21", "5", "19", "17", "16", "17"], "num1": [1, 9, 8, 7, 6, 6, 7, 1, 8, 5, 1, 8, 9], "num2": [3, 9, 4, 9, 6, 4, 9, 3, 8, 5, 6, 3, 5], "num3": [7, 2, 1, 5, 6, 6, 6, 1, 3, 7, 9, 6, 1], "type": "DISTRACTOR", "conditions": [12, 800, "a", 24000], "trial": 2, "trial_type": "math-distractor", "trial_index": 77, "time_elapsed": 448829, "internal_node_id": "0.0-59.0"}}, {"uniqueid": "MTK0345:37Z929RLGAF5XM2FG26YQCSTSPLTSL", "current_trial": 78, "dateTime": 1510772859268, "trialdata": {"rt": -1, "stimulus": "<p id=\"stim\">10</p>", "key_press": -1, "trial_type": "single-stim", "trial_index": 78, "time_elapsed": 451833, "internal_node_id": "0.0-60.0-0.0"}}, {"uniqueid": "MTK0345:37Z929RLGAF5XM2FG26YQCSTSPLTSL", "current_trial": 79, "dateTime": 1510772860272, "trialdata": {"rt": -1, "stimulus": "<p id=\"stim\">9</p>", "key_press": -1, "trial_type": "single-stim", "trial_index": 79, "time_elapsed": 452837, "internal_node_id": "0.0-60.0-1.0"}}, {"uniqueid": "MTK0345:37Z929RLGAF5XM2FG26YQCSTSPLTSL", "current_trial": 80, "dateTime": 1510772861276, "trialdata": {"rt": -1, "stimulus": "<p id=\"stim\">8</p>", "key_press": -1, "trial_type": "single-stim", "trial_index": 80, "time_elapsed": 453841, "internal_node_id": "0.0-60.0-2.0"}}, {"uniqueid": "MTK0345:37Z929RLGAF5XM2FG26YQCSTSPLTSL", "current_trial": 81, "dateTime": 1510772862281, "trialdata": {"rt": -1, "stimulus": "<p id=\"stim\">7</p>", "key_press": -1, "trial_type": "single-stim", "trial_index": 81, "time_elapsed": 454846, "internal_node_id": "0.0-60.0-3.0"}}, {"uniqueid": "MTK0345:37Z929RLGAF5XM2FG26YQCSTSPLTSL", "current_trial": 82, "dateTime": 1510772863284, "trialdata": {"rt": -1, "stimulus": "<p id=\"stim\">6</p>", "key_press": -1, "trial_type": "single-stim", "trial_index": 82, "time_elapsed": 455849, "internal_node_id": "0.0-60.0-4.0"}}, {"uniqueid": "MTK0345:37Z929RLGAF5XM2FG26YQCSTSPLTSL", "current_trial": 83, "dateTime": 1510772864289, "trialdata": {"rt": -1, "stimulus": "<p id=\"stim\">5</p>", "key_press": -1, "trial_type": "single-stim", "trial_index": 83, "time_elapsed": 456854, "internal_node_id": "0.0-60.0-5.0"}}, {"uniqueid": "MTK0345:37Z929RLGAF5XM2FG26YQCSTSPLTSL", "current_trial": 84, "dateTime": 1510772865293, "trialdata": {"rt": -1, "stimulus": "<p id=\"stim\">4</p>", "key_press": -1, "trial_type": "single-stim", "trial_index": 84, "time_elapsed": 457858, "internal_node_id": "0.0-60.0-6.0"}}, {"uniqueid": "MTK0345:37Z929RLGAF5XM2FG26YQCSTSPLTSL", "current_trial": 85, "dateTime": 1510772866296, "trialdata": {"rt": -1, "stimulus": "<p id=\"stim\">3</p>", "key_press": -1, "trial_type": "single-stim", "trial_index": 85, "time_elapsed": 458860, "internal_node_id": "0.0-60.0-7.0"}}, {"uniqueid": "MTK0345:37Z929RLGAF5XM2FG26YQCSTSPLTSL", "current_trial": 86, "dateTime": 1510772867299, "trialdata": {"rt": -1, "stimulus": "<p id=\"stim\">2</p>", "key_press": -1, "trial_type": "single-stim", "trial_index": 86, "time_elapsed": 459864, "internal_node_id": "0.0-60.0-8.0"}}, {"uniqueid": "MTK0345:37Z929RLGAF5XM2FG26YQCSTSPLTSL", "current_trial": 87, "dateTime": 1510772868300, "trialdata": {"rt": -1, "stimulus": "<p id=\"stim\">1</p>", "key_press": -1, "trial_type": "single-stim", "trial_index": 87, "time_elapsed": 460865, "internal_node_id": "0.0-60.0-9.0"}}, {"uniqueid": "MTK0345:37Z929RLGAF5XM2FG26YQCSTSPLTSL", "current_trial": 88, "dateTime": 1510772869804, "trialdata": {"rt": -1, "stimulus": "<p id=\"stim\">+</p>", "key_press": -1, "type": "FIXATION", "trial_type": "single-stim", "trial_index": 88, "time_elapsed": 462369, "internal_node_id": "0.0-61.0-0.0"}}, {"uniqueid": "MTK0345:37Z929RLGAF5XM2FG26YQCSTSPLTSL", "current_trial": 89, "dateTime": 1510772871468, "trialdata": {"rt": -1000, "stimulus": "/static/audio/wordpool/MUFFIN.wav", "key_press": -1, "type": "PRES_AUD", "word": "muffin", "wordID": 928, "conditions": [12, 800, "a", 24000], "trial": 2, "serialpos": 0, "trial_type": "single-audio", "trial_index": 89, "time_elapsed": 464033, "internal_node_id": "0.0-62.0"}}, {"uniqueid": "MTK0345:37Z929RLGAF5XM2FG26YQCSTSPLTSL", "current_trial": 90, "dateTime": 1510772873150, "trialdata": {"rt": -1000, "stimulus": "/static/audio/wordpool/LIVER.wav", "key_press": -1, "type": "PRES_AUD", "word": "liver", "wordID": 832, "conditions": [12, 800, "a", 24000], "trial": 2, "serialpos": 1, "trial_type": "single-audio", "trial_index": 90, "time_elapsed": 465715, "internal_node_id": "0.0-63.0"}}, {"uniqueid": "MTK0345:37Z929RLGAF5XM2FG26YQCSTSPLTSL", "current_trial": 91, "dateTime": 1510772875114, "trialdata": {"rt": -1000, "stimulus": "/static/audio/wordpool/RIVER.wav", "key_press": -1, "type": "PRES_AUD", "word": "river", "wordID": 1193, "conditions": [12, 800, "a", 24000], "trial": 2, "serialpos": 2, "trial_type": "single-audio", "trial_index": 91, "time_elapsed": 467679, "internal_node_id": "0.0-64.0"}}, {"uniqueid": "MTK0345:37Z929RLGAF5XM2FG26YQCSTSPLTSL", "current_trial": 92, "dateTime": 1510772877107, "trialdata": {"rt": -1000, "stimulus": "/static/audio/wordpool/AIRPLANE.wav", "key_press": -1, "type": "PRES_AUD", "word": "airplane", "wordID": 11, "conditions": [12, 800, "a", 24000], "trial": 2, "serialpos": 3, "trial_type": "single-audio", "trial_index": 92, "time_elapsed": 469672, "internal_node_id": "0.0-65.0"}}, {"uniqueid": "MTK0345:37Z929RLGAF5XM2FG26YQCSTSPLTSL", "current_trial": 93, "dateTime": 1510772879014, "trialdata": {"rt": -1000, "stimulus": "/static/audio/wordpool/CREATURE.wav", "key_press": -1, "type": "PRES_AUD", "word": "creature", "wordID": 402, "conditions": [12, 800, "a", 24000], "trial": 2, "serialpos": 4, "trial_type": "single-audio", "trial_index": 93, "time_elapsed": 471579, "internal_node_id": "0.0-66.0"}}, {"uniqueid": "MTK0345:37Z929RLGAF5XM2FG26YQCSTSPLTSL", "current_trial": 94, "dateTime": 1510772880713, "trialdata": {"rt": -1000, "stimulus": "/static/audio/wordpool/OYSTER.wav", "key_press": -1, "type": "PRES_AUD", "word": "oyster", "wordID": 994, "conditions": [12, 800, "a", 24000], "trial": 2, "serialpos": 5, "trial_type": "single-audio", "trial_index": 94, "time_elapsed": 473278, "internal_node_id": "0.0-67.0"}}, {"uniqueid": "MTK0345:37Z929RLGAF5XM2FG26YQCSTSPLTSL", "current_trial": 95, "dateTime": 1510772882370, "trialdata": {"rt": -1000, "stimulus": "/static/audio/wordpool/LIZARD.wav", "key_press": -1, "type": "PRES_AUD", "word": "lizard", "wordID": 833, "conditions": [12, 800, "a", 24000], "trial": 2, "serialpos": 6, "trial_type": "single-audio", "trial_index": 95, "time_elapsed": 474935, "internal_node_id": "0.0-68.0"}}, {"uniqueid": "MTK0345:37Z929RLGAF5XM2FG26YQCSTSPLTSL", "current_trial": 96, "dateTime": 1510772883985, "trialdata": {"rt": -1000, "stimulus": "/static/audio/wordpool/CHIPMUNK.wav", "key_press": -1, "type": "PRES_AUD", "word": "chipmunk", "wordID": 303, "conditions": [12, 800, "a", 24000], "trial": 2, "serialpos": 7, "trial_type": "single-audio", "trial_index": 96, "time_elapsed": 476550, "internal_node_id": "0.0-69.0"}}, {"uniqueid": "MTK0345:37Z929RLGAF5XM2FG26YQCSTSPLTSL", "current_trial": 97, "dateTime": 1510772885782, "trialdata": {"rt": -1000, "stimulus": "/static/audio/wordpool/BEAST.wav", "key_press": -1, "type": "PRES_AUD", "word": "beast", "wordID": 107, "conditions": [12, 800, "a", 24000], "trial": 2, "serialpos": 8, "trial_type": "single-audio", "trial_index": 97, "time_elapsed": 478347, "internal_node_id": "0.0-70.0"}}, {"uniqueid": "MTK0345:37Z929RLGAF5XM2FG26YQCSTSPLTSL", "current_trial": 98, "dateTime": 1510772887493, "trialdata": {"rt": -1000, "stimulus": "/static/audio/wordpool/WINDOW.wav", "key_press": -1, "type": "PRES_AUD", "word": "window", "wordID": 1610, "conditions": [12, 800, "a", 24000], "trial": 2, "serialpos": 9, "trial_type": "single-audio", "trial_index": 98, "time_elapsed": 480058, "internal_node_id": "0.0-71.0"}}, {"uniqueid": "MTK0345:37Z929RLGAF5XM2FG26YQCSTSPLTSL", "current_trial": 99, "dateTime": 1510772889490, "trialdata": {"rt": -1000, "stimulus": "/static/audio/wordpool/BODY.wav", "key_press": -1, "type": "PRES_AUD", "word": "body", "wordID": 144, "conditions": [12, 800, "a", 24000], "trial": 2, "serialpos": 10, "trial_type": "single-audio", "trial_index": 99, "time_elapsed": 482055, "internal_node_id": "0.0-72.0"}}, {"uniqueid": "MTK0345:37Z929RLGAF5XM2FG26YQCSTSPLTSL", "current_trial": 100, "dateTime": 1510772891346, "trialdata": {"rt": -1000, "stimulus": "/static/audio/wordpool/CATCHER.wav", "key_press": -1, "type": "PRES_AUD", "word": "catcher", "wordID": 257, "conditions": [12, 800, "a", 24000], "trial": 2, "serialpos": 11, "trial_type": "single-audio", "trial_index": 100, "time_elapsed": 483911, "internal_node_id": "0.0-73.0"}}, {"uniqueid": "MTK0345:37Z929RLGAF5XM2FG26YQCSTSPLTSL", "current_trial": 101, "dateTime": 1510772892643, "trialdata": {"rt": -1, "stimulus": "", "key_press": -1, "type": "PRE_RECALL_DELAY", "trial_type": "single-stim", "trial_index": 101, "time_elapsed": 485208, "internal_node_id": "0.0-74.0-0.0"}}, {"uniqueid": "MTK0345:37Z929RLGAF5XM2FG26YQCSTSPLTSL", "current_trial": 102, "dateTime": 1510772893147, "trialdata": {"rt": -1000, "stimulus": "/static/audio/400Hz.wav", "key_press": -1, "type": "PRE_RECALL_ALERT", "trial_type": "single-audio", "trial_index": 102, "time_elapsed": 485712, "internal_node_id": "0.0-75.0"}}, {"uniqueid": "MTK0345:37Z929RLGAF5XM2FG26YQCSTSPLTSL", "current_trial": 103, "dateTime": 1510772953159, "trialdata": {"rt": [1572, 2439, 3412, 4948, 6137, 11455, 16689, 21027, 23777, 45489, 56501], "recwords": ["catcher", "window", "beast", "muffin", "liver", "lizard", "catcher", "oyster", "river", "creature", "body"], "type": "FREE_RECALL", "conditions": [12, 800, "a", 24000], "trial": 2, "trial_type": "free-recall", "trial_index": 103, "time_elapsed": 545720, "internal_node_id": "0.0-76.0-0.0"}}, {"uniqueid": "MTK0345:37Z929RLGAF5XM2FG26YQCSTSPLTSL", "current_trial": 104, "dateTime": 1510772956458, "trialdata": {"rt": 1294, "key_press": 32, "type": "INSTRUCTIONS", "trial_type": "text", "trial_index": 104, "time_elapsed": 549023, "internal_node_id": "0.0-77.0"}}, {"uniqueid": "MTK0345:37Z929RLGAF5XM2FG26YQCSTSPLTSL", "current_trial": 105, "dateTime": 1510772970465, "trialdata": {"rt": [2488, 4328, 5792, 8047, 9818, 11794], "responses": ["19", "7", "9", "21", "13", "15"], "num1": [9, 4, 7, 3, 3, 8, 1], "num2": [9, 1, 1, 9, 3, 1, 2], "num3": [1, 2, 1, 9, 7, 6, 7], "type": "DISTRACTOR", "conditions": [24, 1600, "a", 12000], "trial": 3, "trial_type": "math-distractor", "trial_index": 105, "time_elapsed": 563030, "internal_node_id": "0.0-78.0"}}, {"uniqueid": "MTK0345:37Z929RLGAF5XM2FG26YQCSTSPLTSL", "current_trial": 106, "dateTime": 1510772973468, "trialdata": {"rt": -1, "stimulus": "<p id=\"stim\">10</p>", "key_press": -1, "trial_type": "single-stim", "trial_index": 106, "time_elapsed": 566033, "internal_node_id": "0.0-79.0-0.0"}}, {"uniqueid": "MTK0345:37Z929RLGAF5XM2FG26YQCSTSPLTSL", "current_trial": 107, "dateTime": 1510772974471, "trialdata": {"rt": -1, "stimulus": "<p id=\"stim\">9</p>", "key_press": -1, "trial_type": "single-stim", "trial_index": 107, "time_elapsed": 567036, "internal_node_id": "0.0-79.0-1.0"}}, {"uniqueid": "MTK0345:37Z929RLGAF5XM2FG26YQCSTSPLTSL", "current_trial": 108, "dateTime": 1510772975473, "trialdata": {"rt": -1, "stimulus": "<p id=\"stim\">8</p>", "key_press": -1, "trial_type": "single-stim", "trial_index": 108, "time_elapsed": 568038, "internal_node_id": "0.0-79.0-2.0"}}, {"uniqueid": "MTK0345:37Z929RLGAF5XM2FG26YQCSTSPLTSL", "current_trial": 109, "dateTime": 1510772976475, "trialdata": {"rt": -1, "stimulus": "<p id=\"stim\">7</p>", "key_press": -1, "trial_type": "single-stim", "trial_index": 109, "time_elapsed": 569040, "internal_node_id": "0.0-79.0-3.0"}}, {"uniqueid": "MTK0345:37Z929RLGAF5XM2FG26YQCSTSPLTSL", "current_trial": 110, "dateTime": 1510772977477, "trialdata": {"rt": -1, "stimulus": "<p id=\"stim\">6</p>", "key_press": -1, "trial_type": "single-stim", "trial_index": 110, "time_elapsed": 570042, "internal_node_id": "0.0-79.0-4.0"}}, {"uniqueid": "MTK0345:37Z929RLGAF5XM2FG26YQCSTSPLTSL", "current_trial": 111, "dateTime": 1510772978479, "trialdata": {"rt": -1, "stimulus": "<p id=\"stim\">5</p>", "key_press": -1, "trial_type": "single-stim", "trial_index": 111, "time_elapsed": 571044, "internal_node_id": "0.0-79.0-5.0"}}, {"uniqueid": "MTK0345:37Z929RLGAF5XM2FG26YQCSTSPLTSL", "current_trial": 112, "dateTime": 1510772979482, "trialdata": {"rt": -1, "stimulus": "<p id=\"stim\">4</p>", "key_press": -1, "trial_type": "single-stim", "trial_index": 112, "time_elapsed": 572047, "internal_node_id": "0.0-79.0-6.0"}}, {"uniqueid": "MTK0345:37Z929RLGAF5XM2FG26YQCSTSPLTSL", "current_trial": 113, "dateTime": 1510772980484, "trialdata": {"rt": -1, "stimulus": "<p id=\"stim\">3</p>", "key_press": -1, "trial_type": "single-stim", "trial_index": 113, "time_elapsed": 573048, "internal_node_id": "0.0-79.0-7.0"}}, {"uniqueid": "MTK0345:37Z929RLGAF5XM2FG26YQCSTSPLTSL", "current_trial": 114, "dateTime": 1510772981489, "trialdata": {"rt": -1, "stimulus": "<p id=\"stim\">2</p>", "key_press": -1, "trial_type": "single-stim", "trial_index": 114, "time_elapsed": 574054, "internal_node_id": "0.0-79.0-8.0"}}, {"uniqueid": "MTK0345:37Z929RLGAF5XM2FG26YQCSTSPLTSL", "current_trial": 115, "dateTime": 1510772982491, "trialdata": {"rt": -1, "stimulus": "<p id=\"stim\">1</p>", "key_press": -1, "trial_type": "single-stim", "trial_index": 115, "time_elapsed": 575056, "internal_node_id": "0.0-79.0-9.0"}}, {"uniqueid": "MTK0345:37Z929RLGAF5XM2FG26YQCSTSPLTSL", "current_trial": 116, "dateTime": 1510772983993, "trialdata": {"rt": -1, "stimulus": "<p id=\"stim\">+</p>", "key_press": -1, "type": "FIXATION", "trial_type": "single-stim", "trial_index": 116, "time_elapsed": 576558, "internal_node_id": "0.0-80.0-0.0"}}, {"uniqueid": "MTK0345:37Z929RLGAF5XM2FG26YQCSTSPLTSL", "current_trial": 117, "dateTime": 1510772986444, "trialdata": {"rt": -1000, "stimulus": "/static/audio/wordpool/SUMMIT.wav", "key_press": -1, "type": "PRES_AUD", "word": "summit", "wordID": 1404, "conditions": [24, 1600, "a", 12000], "trial": 3, "serialpos": 0, "trial_type": "single-audio", "trial_index": 117, "time_elapsed": 579009, "internal_node_id": "0.0-81.0"}}, {"uniqueid": "MTK0345:37Z929RLGAF5XM2FG26YQCSTSPLTSL", "current_trial": 118, "dateTime": 1510772989158, "trialdata": {"rt": -1000, "stimulus": "/static/audio/wordpool/BOYFRIEND.wav", "key_press": -1, "type": "PRES_AUD", "word": "boyfriend", "wordID": 161, "conditions": [24, 1600, "a", 12000], "trial": 3, "serialpos": 1, "trial_type": "single-audio", "trial_index": 118, "time_elapsed": 581723, "internal_node_id": "0.0-82.0"}}, {"uniqueid": "MTK0345:37Z929RLGAF5XM2FG26YQCSTSPLTSL", "current_trial": 119, "dateTime": 1510772991720, "trialdata": {"rt": -1000, "stimulus": "/static/audio/wordpool/BURGLAR.wav", "key_press": -1, "type": "PRES_AUD", "word": "burglar", "wordID": 199, "conditions": [24, 1600, "a", 12000], "trial": 3, "serialpos": 2, "trial_type": "single-audio", "trial_index": 119, "time_elapsed": 584285, "internal_node_id": "0.0-83.0"}}, {"uniqueid": "MTK0345:37Z929RLGAF5XM2FG26YQCSTSPLTSL", "current_trial": 120, "dateTime": 1510772994468, "trialdata": {"rt": -1000, "stimulus": "/static/audio/wordpool/PERFUME.wav", "key_press": -1, "type": "PRES_AUD", "word": "perfume", "wordID": 1048, "conditions": [24, 1600, "a", 12000], "trial": 3, "serialpos": 3, "trial_type": "single-audio", "trial_index": 120, "time_elapsed": 587032, "internal_node_id": "0.0-84.0"}}, {"uniqueid": "MTK0345:37Z929RLGAF5XM2FG26YQCSTSPLTSL", "current_trial": 121, "dateTime": 1510772996899, "trialdata": {"rt": -1000, "stimulus": "/static/audio/wordpool/SADDLE.wav", "key_press": -1, "type": "PRES_AUD", "word": "saddle", "wordID": 1220, "conditions": [24, 1600, "a", 12000], "trial": 3, "serialpos": 4, "trial_type": "single-audio", "trial_index": 121, "time_elapsed": 589464, "internal_node_id": "0.0-85.0"}}, {"uniqueid": "MTK0345:37Z929RLGAF5XM2FG26YQCSTSPLTSL", "current_trial": 122, "dateTime": 1510772999409, "trialdata": {"rt": -1000, "stimulus": "/static/audio/wordpool/BLOCKADE.wav", "key_press": -1, "type": "PRES_AUD", "word": "blockade", "wordID": 136, "conditions": [24, 1600, "a", 12000], "trial": 3, "serialpos": 5, "trial_type": "single-audio", "trial_index": 122, "time_elapsed": 591974, "internal_node_id": "0.0-86.0"}}, {"uniqueid": "MTK0345:37Z929RLGAF5XM2FG26YQCSTSPLTSL", "current_trial": 123, "dateTime": 1510773002206, "trialdata": {"rt": -1000, "stimulus": "/static/audio/wordpool/ROCKET.wav", "key_press": -1, "type": "PRES_AUD", "word": "rocket", "wordID": 1201, "conditions": [24, 1600, "a", 12000], "trial": 3, "serialpos": 6, "trial_type": "single-audio", "trial_index": 123, "time_elapsed": 594771, "internal_node_id": "0.0-87.0"}}, {"uniqueid": "MTK0345:37Z929RLGAF5XM2FG26YQCSTSPLTSL", "current_trial": 124, "dateTime": 1510773004844, "trialdata": {"rt": -1000, "stimulus": "/static/audio/wordpool/COUSIN.wav", "key_press": -1, "type": "PRES_AUD", "word": "cousin", "wordID": 391, "conditions": [24, 1600, "a", 12000], "trial": 3, "serialpos": 7, "trial_type": "single-audio", "trial_index": 124, "time_elapsed": 597409, "internal_node_id": "0.0-88.0"}}, {"uniqueid": "MTK0345:37Z929RLGAF5XM2FG26YQCSTSPLTSL", "current_trial": 125, "dateTime": 1510773007385, "trialdata": {"rt": -1000, "stimulus": "/static/audio/wordpool/MOTEL.wav", "key_press": -1, "type": "PRES_AUD", "word": "motel", "wordID": 918, "conditions": [24, 1600, "a", 12000], "trial": 3, "serialpos": 8, "trial_type": "single-audio", "trial_index": 125, "time_elapsed": 599950, "internal_node_id": "0.0-89.0"}}, {"uniqueid": "MTK0345:37Z929RLGAF5XM2FG26YQCSTSPLTSL", "current_trial": 126, "dateTime": 1510773010155, "trialdata": {"rt": -1000, "stimulus": "/static/audio/wordpool/CARRIAGE.wav", "key_press": -1, "type": "PRES_AUD", "word": "carriage", "wordID": 247, "conditions": [24, 1600, "a", 12000], "trial": 3, "serialpos": 9, "trial_type": "single-audio", "trial_index": 126, "time_elapsed": 602720, "internal_node_id": "0.0-90.0"}}, {"uniqueid": "MTK0345:37Z929RLGAF5XM2FG26YQCSTSPLTSL", "current_trial": 127, "dateTime": 1510773012589, "trialdata": {"rt": -1000, "stimulus": "/static/audio/wordpool/KNIFE.wav", "key_press": -1, "type": "PRES_AUD", "word": "knife", "wordID": 784, "conditions": [24, 1600, "a", 12000], "trial": 3, "serialpos": 10, "trial_type": "single-audio", "trial_index": 127, "time_elapsed": 605154, "internal_node_id": "0.0-91.0"}}, {"uniqueid": "MTK0345:37Z929RLGAF5XM2FG26YQCSTSPLTSL", "current_trial": 128, "dateTime": 1510773015171, "trialdata": {"rt": -1000, "stimulus": "/static/audio/wordpool/PISTOL.wav", "key_press": -1, "type": "PRES_AUD", "word": "pistol", "wordID": 1074, "conditions": [24, 1600, "a", 12000], "trial": 3, "serialpos": 11, "trial_type": "single-audio", "trial_index": 128, "time_elapsed": 607736, "internal_node_id": "0.0-92.0"}}, {"uniqueid": "MTK0345:37Z929RLGAF5XM2FG26YQCSTSPLTSL", "current_trial": 129, "dateTime": 1510773017730, "trialdata": {"rt": -1000, "stimulus": "/static/audio/wordpool/STREAM.wav", "key_press": -1, "type": "PRES_AUD", "word": "stream", "wordID": 1391, "conditions": [24, 1600, "a", 12000], "trial": 3, "serialpos": 12, "trial_type": "single-audio", "trial_index": 129, "time_elapsed": 610295, "internal_node_id": "0.0-93.0"}}, {"uniqueid": "MTK0345:37Z929RLGAF5XM2FG26YQCSTSPLTSL", "current_trial": 130, "dateTime": 1510773020375, "trialdata": {"rt": -1000, "stimulus": "/static/audio/wordpool/DIVER.wav", "key_press": -1, "type": "PRES_AUD", "word": "diver", "wordID": 475, "conditions": [24, 1600, "a", 12000], "trial": 3, "serialpos": 13, "trial_type": "single-audio", "trial_index": 130, "time_elapsed": 612940, "internal_node_id": "0.0-94.0"}}, {"uniqueid": "MTK0345:37Z929RLGAF5XM2FG26YQCSTSPLTSL", "current_trial": 131, "dateTime": 1510773023006, "trialdata": {"rt": -1000, "stimulus": "/static/audio/wordpool/HARP.wav", "key_press": -1, "type": "PRES_AUD", "word": "harp", "wordID": 688, "conditions": [24, 1600, "a", 12000], "trial": 3, "serialpos": 14, "trial_type": "single-audio", "trial_index": 131, "time_elapsed": 615571, "internal_node_id": "0.0-95.0"}}, {"uniqueid": "MTK0345:37Z929RLGAF5XM2FG26YQCSTSPLTSL", "current_trial": 132, "dateTime": 1510773025410, "trialdata": {"rt": -1000, "stimulus": "/static/audio/wordpool/SHERIFF.wav", "key_press": -1, "type": "PRES_AUD", "word": "sheriff", "wordID": 1283, "conditions": [24, 1600, "a", 12000], "trial": 3, "serialpos": 15, "trial_type": "single-audio", "trial_index": 132, "time_elapsed": 617975, "internal_node_id": "0.0-96.0"}}, {"uniqueid": "MTK0345:37Z929RLGAF5XM2FG26YQCSTSPLTSL", "current_trial": 133, "dateTime": 1510773028073, "trialdata": {"rt": -1000, "stimulus": "/static/audio/wordpool/REPORT.wav", "key_press": -1, "type": "PRES_AUD", "word": "report", "wordID": 1183, "conditions": [24, 1600, "a", 12000], "trial": 3, "serialpos": 16, "trial_type": "single-audio", "trial_index": 133, "time_elapsed": 620638, "internal_node_id": "0.0-97.0"}}, {"uniqueid": "MTK0345:37Z929RLGAF5XM2FG26YQCSTSPLTSL", "current_trial": 134, "dateTime": 1510773030478, "trialdata": {"rt": -1000, "stimulus": "/static/audio/wordpool/SURVEY.wav", "key_press": -1, "type": "PRES_AUD", "word": "survey", "wordID": 1413, "conditions": [24, 1600, "a", 12000], "trial": 3, "serialpos": 17, "trial_type": "single-audio", "trial_index": 134, "time_elapsed": 623043, "internal_node_id": "0.0-98.0"}}, {"uniqueid": "MTK0345:37Z929RLGAF5XM2FG26YQCSTSPLTSL", "current_trial": 135, "dateTime": 1510773033062, "trialdata": {"rt": -1000, "stimulus": "/static/audio/wordpool/RABBIT.wav", "key_press": -1, "type": "PRES_AUD", "word": "rabbit", "wordID": 1151, "conditions": [24, 1600, "a", 12000], "trial": 3, "serialpos": 18, "trial_type": "single-audio", "trial_index": 135, "time_elapsed": 625627, "internal_node_id": "0.0-99.0"}}, {"uniqueid": "MTK0345:37Z929RLGAF5XM2FG26YQCSTSPLTSL", "current_trial": 136, "dateTime": 1510773035468, "trialdata": {"rt": -1000, "stimulus": "/static/audio/wordpool/BEAKER.wav", "key_press": -1, "type": "PRES_AUD", "word": "beaker", "wordID": 103, "conditions": [24, 1600, "a", 12000], "trial": 3, "serialpos": 19, "trial_type": "single-audio", "trial_index": 136, "time_elapsed": 628033, "internal_node_id": "0.0-100.0"}}, {"uniqueid": "MTK0345:37Z929RLGAF5XM2FG26YQCSTSPLTSL", "current_trial": 137, "dateTime": 1510773038185, "trialdata": {"rt": -1000, "stimulus": "/static/audio/wordpool/DRINK.wav", "key_press": -1, "type": "PRES_AUD", "word": "drink", "wordID": 497, "conditions": [24, 1600, "a", 12000], "trial": 3, "serialpos": 20, "trial_type": "single-audio", "trial_index": 137, "time_elapsed": 630750, "internal_node_id": "0.0-101.0"}}, {"uniqueid": "MTK0345:37Z929RLGAF5XM2FG26YQCSTSPLTSL", "current_trial": 138, "dateTime": 1510773040623, "trialdata": {"rt": -1000, "stimulus": "/static/audio/wordpool/PUPPY.wav", "key_press": -1, "type": "PRES_AUD", "word": "puppy", "wordID": 1143, "conditions": [24, 1600, "a", 12000], "trial": 3, "serialpos": 21, "trial_type": "single-audio", "trial_index": 138, "time_elapsed": 633188, "internal_node_id": "0.0-102.0"}}, {"uniqueid": "MTK0345:37Z929RLGAF5XM2FG26YQCSTSPLTSL", "current_trial": 139, "dateTime": 1510773043279, "trialdata": {"rt": -1000, "stimulus": "/static/audio/wordpool/LEOPARD.wav", "key_press": -1, "type": "PRES_AUD", "word": "leopard", "wordID": 811, "conditions": [24, 1600, "a", 12000], "trial": 3, "serialpos": 22, "trial_type": "single-audio", "trial_index": 139, "time_elapsed": 635844, "internal_node_id": "0.0-103.0"}}, {"uniqueid": "MTK0345:37Z929RLGAF5XM2FG26YQCSTSPLTSL", "current_trial": 140, "dateTime": 1510773045849, "trialdata": {"rt": -1000, "stimulus": "/static/audio/wordpool/VIRUS.wav", "key_press": -1, "type": "PRES_AUD", "word": "virus", "wordID": 1571, "conditions": [24, 1600, "a", 12000], "trial": 3, "serialpos": 23, "trial_type": "single-audio", "trial_index": 140, "time_elapsed": 638414, "internal_node_id": "0.0-104.0"}}, {"uniqueid": "MTK0345:37Z929RLGAF5XM2FG26YQCSTSPLTSL", "current_trial": 141, "dateTime": 1510773047110, "trialdata": {"rt": -1, "stimulus": "", "key_press": -1, "type": "PRE_RECALL_DELAY", "trial_type": "single-stim", "trial_index": 141, "time_elapsed": 639674, "internal_node_id": "0.0-105.0-0.0"}}, {"uniqueid": "MTK0345:37Z929RLGAF5XM2FG26YQCSTSPLTSL", "current_trial": 142, "dateTime": 1510773047613, "trialdata": {"rt": -1000, "stimulus": "/static/audio/400Hz.wav", "key_press": -1, "type": "PRE_RECALL_ALERT", "trial_type": "single-audio", "trial_index": 142, "time_elapsed": 640178, "internal_node_id": "0.0-106.0"}}, {"uniqueid": "MTK0345:37Z929RLGAF5XM2FG26YQCSTSPLTSL", "current_trial": 143, "dateTime": 1510773107622, "trialdata": {"rt": [1719, 3456, 4704, 7196, 8826, 9838, 11041, 13436, 19324, 22356, 29687, 30873, 41568, 58006], "recwords": ["virus", "puppy", "leopard", "sherriff", "beeker", "drink", "rocket", "blockade", "stream", "saddle", "knife", "pistol", "summit", "carriage"], "type": "FREE_RECALL", "conditions": [24, 1600, "a", 12000], "trial": 3, "trial_type": "free-recall", "trial_index": 143, "time_elapsed": 700183, "internal_node_id": "0.0-107.0-0.0"}}, {"uniqueid": "MTK0345:37Z929RLGAF5XM2FG26YQCSTSPLTSL", "current_trial": 144, "dateTime": 1510773110592, "trialdata": {"rt": 967, "key_press": 32, "type": "INSTRUCTIONS", "trial_type": "text", "trial_index": 144, "time_elapsed": 703157, "internal_node_id": "0.0-108.0"}}, {"uniqueid": "MTK0345:37Z929RLGAF5XM2FG26YQCSTSPLTSL", "current_trial": 145, "dateTime": 1510773124598, "trialdata": {"rt": [3147, 5339, 8024, 9812, 11465], "responses": ["14", "20", "18", "19", "12"], "num1": [6, 4, 5, 8, 1, 7], "num2": [7, 9, 7, 7, 3, 9], "num3": [1, 7, 6, 4, 8, 3], "type": "DISTRACTOR", "conditions": [12, 1600, "a", 12000], "trial": 4, "trial_type": "math-distractor", "trial_index": 145, "time_elapsed": 717163, "internal_node_id": "0.0-109.0"}}, {"uniqueid": "MTK0345:37Z929RLGAF5XM2FG26YQCSTSPLTSL", "current_trial": 146, "dateTime": 1510773127601, "trialdata": {"rt": -1, "stimulus": "<p id=\"stim\">10</p>", "key_press": -1, "trial_type": "single-stim", "trial_index": 146, "time_elapsed": 720166, "internal_node_id": "0.0-110.0-0.0"}}, {"uniqueid": "MTK0345:37Z929RLGAF5XM2FG26YQCSTSPLTSL", "current_trial": 147, "dateTime": 1510773128603, "trialdata": {"rt": -1, "stimulus": "<p id=\"stim\">9</p>", "key_press": -1, "trial_type": "single-stim", "trial_index": 147, "time_elapsed": 721168, "internal_node_id": "0.0-110.0-1.0"}}, {"uniqueid": "MTK0345:37Z929RLGAF5XM2FG26YQCSTSPLTSL", "current_trial": 148, "dateTime": 1510773129606, "trialdata": {"rt": -1, "stimulus": "<p id=\"stim\">8</p>", "key_press": -1, "trial_type": "single-stim", "trial_index": 148, "time_elapsed": 722171, "internal_node_id": "0.0-110.0-2.0"}}, {"uniqueid": "MTK0345:37Z929RLGAF5XM2FG26YQCSTSPLTSL", "current_trial": 149, "dateTime": 1510773130608, "trialdata": {"rt": -1, "stimulus": "<p id=\"stim\">7</p>", "key_press": -1, "trial_type": "single-stim", "trial_index": 149, "time_elapsed": 723173, "internal_node_id": "0.0-110.0-3.0"}}, {"uniqueid": "MTK0345:37Z929RLGAF5XM2FG26YQCSTSPLTSL", "current_trial": 150, "dateTime": 1510773131610, "trialdata": {"rt": -1, "stimulus": "<p id=\"stim\">6</p>", "key_press": -1, "trial_type": "single-stim", "trial_index": 150, "time_elapsed": 724175, "internal_node_id": "0.0-110.0-4.0"}}, {"uniqueid": "MTK0345:37Z929RLGAF5XM2FG26YQCSTSPLTSL", "current_trial": 151, "dateTime": 1510773132613, "trialdata": {"rt": -1, "stimulus": "<p id=\"stim\">5</p>", "key_press": -1, "trial_type": "single-stim", "trial_index": 151, "time_elapsed": 725178, "internal_node_id": "0.0-110.0-5.0"}}, {"uniqueid": "MTK0345:37Z929RLGAF5XM2FG26YQCSTSPLTSL", "current_trial": 152, "dateTime": 1510773133616, "trialdata": {"rt": -1, "stimulus": "<p id=\"stim\">4</p>", "key_press": -1, "trial_type": "single-stim", "trial_index": 152, "time_elapsed": 726181, "internal_node_id": "0.0-110.0-6.0"}}, {"uniqueid": "MTK0345:37Z929RLGAF5XM2FG26YQCSTSPLTSL", "current_trial": 153, "dateTime": 1510773134618, "trialdata": {"rt": -1, "stimulus": "<p id=\"stim\">3</p>", "key_press": -1, "trial_type": "single-stim", "trial_index": 153, "time_elapsed": 727183, "internal_node_id": "0.0-110.0-7.0"}}, {"uniqueid": "MTK0345:37Z929RLGAF5XM2FG26YQCSTSPLTSL", "current_trial": 154, "dateTime": 1510773135620, "trialdata": {"rt": -1, "stimulus": "<p id=\"stim\">2</p>", "key_press": -1, "trial_type": "single-stim", "trial_index": 154, "time_elapsed": 728185, "internal_node_id": "0.0-110.0-8.0"}}, {"uniqueid": "MTK0345:37Z929RLGAF5XM2FG26YQCSTSPLTSL", "current_trial": 155, "dateTime": 1510773136624, "trialdata": {"rt": -1, "stimulus": "<p id=\"stim\">1</p>", "key_press": -1, "trial_type": "single-stim", "trial_index": 155, "time_elapsed": 729189, "internal_node_id": "0.0-110.0-9.0"}}, {"uniqueid": "MTK0345:37Z929RLGAF5XM2FG26YQCSTSPLTSL", "current_trial": 156, "dateTime": 1510773138127, "trialdata": {"rt": -1, "stimulus": "<p id=\"stim\">+</p>", "key_press": -1, "type": "FIXATION", "trial_type": "single-stim", "trial_index": 156, "time_elapsed": 730692, "internal_node_id": "0.0-111.0-0.0"}}, {"uniqueid": "MTK0345:37Z929RLGAF5XM2FG26YQCSTSPLTSL", "current_trial": 157, "dateTime": 1510773140530, "trialdata": {"rt": -1000, "stimulus": "/static/audio/wordpool/SOFTBALL.wav", "key_press": -1, "type": "PRES_AUD", "word": "softball", "wordID": 1342, "conditions": [12, 1600, "a", 12000], "trial": 4, "serialpos": 0, "trial_type": "single-audio", "trial_index": 157, "time_elapsed": 733095, "internal_node_id": "0.0-112.0"}}, {"uniqueid": "MTK0345:37Z929RLGAF5XM2FG26YQCSTSPLTSL", "current_trial": 158, "dateTime": 1510773142962, "trialdata": {"rt": -1000, "stimulus": "/static/audio/wordpool/PORTRAIT.wav", "key_press": -1, "type": "PRES_AUD", "word": "portrait", "wordID": 1110, "conditions": [12, 1600, "a", 12000], "trial": 4, "serialpos": 1, "trial_type": "single-audio", "trial_index": 158, "time_elapsed": 735527, "internal_node_id": "0.0-113.0"}}, {"uniqueid": "MTK0345:37Z929RLGAF5XM2FG26YQCSTSPLTSL", "current_trial": 159, "dateTime": 1510773145599, "trialdata": {"rt": -1000, "stimulus": "/static/audio/wordpool/SPOON.wav", "key_press": -1, "type": "PRES_AUD", "word": "spoon", "wordID": 1356, "conditions": [12, 1600, "a", 12000], "trial": 4, "serialpos": 2, "trial_type": "single-audio", "trial_index": 159, "time_elapsed": 738164, "internal_node_id": "0.0-114.0"}}, {"uniqueid": "MTK0345:37Z929RLGAF5XM2FG26YQCSTSPLTSL", "current_trial": 160, "dateTime": 1510773148057, "trialdata": {"rt": -1000, "stimulus": "/static/audio/wordpool/COD.wav", "key_press": -1, "type": "PRES_AUD", "word": "cod", "wordID": 339, "conditions": [12, 1600, "a", 12000], "trial": 4, "serialpos": 3, "trial_type": "single-audio", "trial_index": 160, "time_elapsed": 740622, "internal_node_id": "0.0-115.0"}}, {"uniqueid": "MTK0345:37Z929RLGAF5XM2FG26YQCSTSPLTSL", "current_trial": 161, "dateTime": 1510773150575, "trialdata": {"rt": -1000, "stimulus": "/static/audio/wordpool/GIRL.wav", "key_press": -1, "type": "PRES_AUD", "word": "girl", "wordID": 636, "conditions": [12, 1600, "a", 12000], "trial": 4, "serialpos": 4, "trial_type": "single-audio", "trial_index": 161, "time_elapsed": 743140, "internal_node_id": "0.0-116.0"}}, {"uniqueid": "MTK0345:37Z929RLGAF5XM2FG26YQCSTSPLTSL", "current_trial": 162, "dateTime": 1510773153007, "trialdata": {"rt": -1000, "stimulus": "/static/audio/wordpool/FLUTE.wav", "key_press": -1, "type": "PRES_AUD", "word": "flute", "wordID": 584, "conditions": [12, 1600, "a", 12000], "trial": 4, "serialpos": 5, "trial_type": "single-audio", "trial_index": 162, "time_elapsed": 745571, "internal_node_id": "0.0-117.0"}}, {"uniqueid": "MTK0345:37Z929RLGAF5XM2FG26YQCSTSPLTSL", "current_trial": 163, "dateTime": 1510773155664, "trialdata": {"rt": -1000, "stimulus": "/static/audio/wordpool/FIDDLE.wav", "key_press": -1, "type": "PRES_AUD", "word": "fiddle", "wordID": 560, "conditions": [12, 1600, "a", 12000], "trial": 4, "serialpos": 6, "trial_type": "single-audio", "trial_index": 163, "time_elapsed": 748229, "internal_node_id": "0.0-118.0"}}, {"uniqueid": "MTK0345:37Z929RLGAF5XM2FG26YQCSTSPLTSL", "current_trial": 164, "dateTime": 1510773158358, "trialdata": {"rt": -1000, "stimulus": "/static/audio/wordpool/TUTU.wav", "key_press": -1, "type": "PRES_AUD", "word": "tutu", "wordID": 1523, "conditions": [12, 1600, "a", 12000], "trial": 4, "serialpos": 7, "trial_type": "single-audio", "trial_index": 164, "time_elapsed": 750923, "internal_node_id": "0.0-119.0"}}, {"uniqueid": "MTK0345:37Z929RLGAF5XM2FG26YQCSTSPLTSL", "current_trial": 165, "dateTime": 1510773160976, "trialdata": {"rt": -1000, "stimulus": "/static/audio/wordpool/SPACE.wav", "key_press": -1, "type": "PRES_AUD", "word": "space", "wordID": 1344, "conditions": [12, 1600, "a", 12000], "trial": 4, "serialpos": 8, "trial_type": "single-audio", "trial_index": 165, "time_elapsed": 753540, "internal_node_id": "0.0-120.0"}}, {"uniqueid": "MTK0345:37Z929RLGAF5XM2FG26YQCSTSPLTSL", "current_trial": 166, "dateTime": 1510773163422, "trialdata": {"rt": -1000, "stimulus": "/static/audio/wordpool/PEPPER.wav", "key_press": -1, "type": "PRES_AUD", "word": "pepper", "wordID": 1046, "conditions": [12, 1600, "a", 12000], "trial": 4, "serialpos": 9, "trial_type": "single-audio", "trial_index": 166, "time_elapsed": 755987, "internal_node_id": "0.0-121.0"}}, {"uniqueid": "MTK0345:37Z929RLGAF5XM2FG26YQCSTSPLTSL", "current_trial": 167, "dateTime": 1510773166172, "trialdata": {"rt": -1000, "stimulus": "/static/audio/wordpool/PIMPLE.wav", "key_press": -1, "type": "PRES_AUD", "word": "pimple", "wordID": 1070, "conditions": [12, 1600, "a", 12000], "trial": 4, "serialpos": 10, "trial_type": "single-audio", "trial_index": 167, "time_elapsed": 758737, "internal_node_id": "0.0-122.0"}}, {"uniqueid": "MTK0345:37Z929RLGAF5XM2FG26YQCSTSPLTSL", "current_trial": 168, "dateTime": 1510773168910, "trialdata": {"rt": -1000, "stimulus": "/static/audio/wordpool/SKILLET.wav", "key_press": -1, "type": "PRES_AUD", "word": "skillet", "wordID": 1316, "conditions": [12, 1600, "a", 12000], "trial": 4, "serialpos": 11, "trial_type": "single-audio", "trial_index": 168, "time_elapsed": 761475, "internal_node_id": "0.0-123.0"}}, {"uniqueid": "MTK0345:37Z929RLGAF5XM2FG26YQCSTSPLTSL", "current_trial": 169, "dateTime": 1510773170135, "trialdata": {"rt": -1, "stimulus": "", "key_press": -1, "type": "PRE_RECALL_DELAY", "trial_type": "single-stim", "trial_index": 169, "time_elapsed": 762700, "internal_node_id": "0.0-124.0-0.0"}}, {"uniqueid": "MTK0345:37Z929RLGAF5XM2FG26YQCSTSPLTSL", "current_trial": 170, "dateTime": 1510773170637, "trialdata": {"rt": -1000, "stimulus": "/static/audio/400Hz.wav", "key_press": -1, "type": "PRE_RECALL_ALERT", "trial_type": "single-audio", "trial_index": 170, "time_elapsed": 763201, "internal_node_id": "0.0-125.0"}}, {"uniqueid": "MTK0345:37Z929RLGAF5XM2FG26YQCSTSPLTSL", "current_trial": 171, "dateTime": 1510773230647, "trialdata": {"rt": [2231, 5086, 6000, 11308, 15285, 18349], "recwords": ["skillet", "pimple", "girl", "picture", "spoon", "pepper"], "type": "FREE_RECALL", "conditions": [12, 1600, "a", 12000], "trial": 4, "trial_type": "free-recall", "trial_index": 171, "time_elapsed": 823208, "internal_node_id": "0.0-126.0-0.0"}}, {"uniqueid": "MTK0345:37Z929RLGAF5XM2FG26YQCSTSPLTSL", "current_trial": 172, "dateTime": 1510773239669, "trialdata": {"rt": 7020, "key_press": 32, "type": "INSTRUCTIONS", "trial_type": "text", "trial_index": 172, "time_elapsed": 832233, "internal_node_id": "0.0-127.0"}}, {"uniqueid": "MTK0345:37Z929RLGAF5XM2FG26YQCSTSPLTSL", "current_trial": 173, "dateTime": 1510773253679, "trialdata": {"rt": [2293, 5864, 8035, 9919], "responses": ["15", "14", "11", "18"], "num1": [9, 4, 1, 3, 5], "num2": [3, 1, 8, 8, 9], "num3": [3, 9, 2, 7, 2], "type": "DISTRACTOR", "conditions": [24, 800, "v", 12000], "trial": 5, "trial_type": "math-distractor", "trial_index": 173, "time_elapsed": 846242, "internal_node_id": "0.0-128.0"}}, {"uniqueid": "MTK0345:37Z929RLGAF5XM2FG26YQCSTSPLTSL", "current_trial": 174, "dateTime": 1510773256683, "trialdata": {"rt": -1, "stimulus": "<p id=\"stim\">10</p>", "key_press": -1, "trial_type": "single-stim", "trial_index": 174, "time_elapsed": 849247, "internal_node_id": "0.0-129.0-0.0"}}, {"uniqueid": "MTK0345:37Z929RLGAF5XM2FG26YQCSTSPLTSL", "current_trial": 175, "dateTime": 1510773257687, "trialdata": {"rt": -1, "stimulus": "<p id=\"stim\">9</p>", "key_press": -1, "trial_type": "single-stim", "trial_index": 175, "time_elapsed": 850252, "internal_node_id": "0.0-129.0-1.0"}}, {"uniqueid": "MTK0345:37Z929RLGAF5XM2FG26YQCSTSPLTSL", "current_trial": 176, "dateTime": 1510773258689, "trialdata": {"rt": -1, "stimulus": "<p id=\"stim\">8</p>", "key_press": -1, "trial_type": "single-stim", "trial_index": 176, "time_elapsed": 851254, "internal_node_id": "0.0-129.0-2.0"}}, {"uniqueid": "MTK0345:37Z929RLGAF5XM2FG26YQCSTSPLTSL", "current_trial": 177, "dateTime": 1510773259693, "trialdata": {"rt": -1, "stimulus": "<p id=\"stim\">7</p>", "key_press": -1, "trial_type": "single-stim", "trial_index": 177, "time_elapsed": 852258, "internal_node_id": "0.0-129.0-3.0"}}, {"uniqueid": "MTK0345:37Z929RLGAF5XM2FG26YQCSTSPLTSL", "current_trial": 178, "dateTime": 1510773260697, "trialdata": {"rt": -1, "stimulus": "<p id=\"stim\">6</p>", "key_press": -1, "trial_type": "single-stim", "trial_index": 178, "time_elapsed": 853262, "internal_node_id": "0.0-129.0-4.0"}}, {"uniqueid": "MTK0345:37Z929RLGAF5XM2FG26YQCSTSPLTSL", "current_trial": 179, "dateTime": 1510773261699, "trialdata": {"rt": -1, "stimulus": "<p id=\"stim\">5</p>", "key_press": -1, "trial_type": "single-stim", "trial_index": 179, "time_elapsed": 854263, "internal_node_id": "0.0-129.0-5.0"}}, {"uniqueid": "MTK0345:37Z929RLGAF5XM2FG26YQCSTSPLTSL", "current_trial": 180, "dateTime": 1510773262701, "trialdata": {"rt": -1, "stimulus": "<p id=\"stim\">4</p>", "key_press": -1, "trial_type": "single-stim", "trial_index": 180, "time_elapsed": 855265, "internal_node_id": "0.0-129.0-6.0"}}, {"uniqueid": "MTK0345:37Z929RLGAF5XM2FG26YQCSTSPLTSL", "current_trial": 181, "dateTime": 1510773263704, "trialdata": {"rt": -1, "stimulus": "<p id=\"stim\">3</p>", "key_press": -1, "trial_type": "single-stim", "trial_index": 181, "time_elapsed": 856268, "internal_node_id": "0.0-129.0-7.0"}}, {"uniqueid": "MTK0345:37Z929RLGAF5XM2FG26YQCSTSPLTSL", "current_trial": 182, "dateTime": 1510773264706, "trialdata": {"rt": -1, "stimulus": "<p id=\"stim\">2</p>", "key_press": -1, "trial_type": "single-stim", "trial_index": 182, "time_elapsed": 857271, "internal_node_id": "0.0-129.0-8.0"}}, {"uniqueid": "MTK0345:37Z929RLGAF5XM2FG26YQCSTSPLTSL", "current_trial": 183, "dateTime": 1510773265709, "trialdata": {"rt": -1, "stimulus": "<p id=\"stim\">1</p>", "key_press": -1, "trial_type": "single-stim", "trial_index": 183, "time_elapsed": 858273, "internal_node_id": "0.0-129.0-9.0"}}, {"uniqueid": "MTK0345:37Z929RLGAF5XM2FG26YQCSTSPLTSL", "current_trial": 184, "dateTime": 1510773267211, "trialdata": {"rt": -1, "stimulus": "<p id=\"stim\">+</p>", "key_press": -1, "type": "FIXATION", "trial_type": "single-stim", "trial_index": 184, "time_elapsed": 859775, "internal_node_id": "0.0-130.0-0.0"}}, {"uniqueid": "MTK0345:37Z929RLGAF5XM2FG26YQCSTSPLTSL", "current_trial": 185, "dateTime": 1510773268019, "trialdata": {"rt": -1, "stimulus": "<p id=\"stim\">SALMON</p>", "key_press": -1, "type": "PRES_VIS", "word": "salmon", "wordID": 1226, "conditions": [24, 800, "v", 12000], "trial": 5, "serialpos": 0, "trial_type": "single-stim", "trial_index": 185, "time_elapsed": 860577, "internal_node_id": "0.0-131.0"}}, {"uniqueid": "MTK0345:37Z929RLGAF5XM2FG26YQCSTSPLTSL", "current_trial": 186, "dateTime": 1510773269987, "trialdata": {"rt": -1, "stimulus": "<p id=\"stim\">PLAYGROUND</p>", "key_press": -1, "type": "PRES_VIS", "word": "playground", "wordID": 1086, "conditions": [24, 800, "v", 12000], "trial": 5, "serialpos": 1, "trial_type": "single-stim", "trial_index": 186, "time_elapsed": 862551, "internal_node_id": "0.0-132.0"}}, {"uniqueid": "MTK0345:37Z929RLGAF5XM2FG26YQCSTSPLTSL", "current_trial": 187, "dateTime": 1510773271869, "trialdata": {"rt": -1, "stimulus": "<p id=\"stim\">FIREMAN</p>", "key_press": -1, "type": "PRES_VIS", "word": "fireman", "wordID": 568, "conditions": [24, 800, "v", 12000], "trial": 5, "serialpos": 2, "trial_type": "single-stim", "trial_index": 187, "time_elapsed": 864434, "internal_node_id": "0.0-133.0"}}, {"uniqueid": "MTK0345:37Z929RLGAF5XM2FG26YQCSTSPLTSL", "current_trial": 188, "dateTime": 1510773273684, "trialdata": {"rt": -1, "stimulus": "<p id=\"stim\">UNCLE</p>", "key_press": -1, "type": "PRES_VIS", "word": "uncle", "wordID": 1535, "conditions": [24, 800, "v", 12000], "trial": 5, "serialpos": 3, "trial_type": "single-stim", "trial_index": 188, "time_elapsed": 866249, "internal_node_id": "0.0-134.0"}}, {"uniqueid": "MTK0345:37Z929RLGAF5XM2FG26YQCSTSPLTSL", "current_trial": 189, "dateTime": 1510773275456, "trialdata": {"rt": -1, "stimulus": "<p id=\"stim\">PLAID</p>", "key_press": -1, "type": "PRES_VIS", "word": "plaid", "wordID": 1079, "conditions": [24, 800, "v", 12000], "trial": 5, "serialpos": 4, "trial_type": "single-stim", "trial_index": 189, "time_elapsed": 868021, "internal_node_id": "0.0-135.0"}}, {"uniqueid": "MTK0345:37Z929RLGAF5XM2FG26YQCSTSPLTSL", "current_trial": 190, "dateTime": 1510773277129, "trialdata": {"rt": -1, "stimulus": "<p id=\"stim\">CELLAR</p>", "key_press": -1, "type": "PRES_VIS", "word": "cellar", "wordID": 266, "conditions": [24, 800, "v", 12000], "trial": 5, "serialpos": 5, "trial_type": "single-stim", "trial_index": 190, "time_elapsed": 869694, "internal_node_id": "0.0-136.0"}}, {"uniqueid": "MTK0345:37Z929RLGAF5XM2FG26YQCSTSPLTSL", "current_trial": 191, "dateTime": 1510773279102, "trialdata": {"rt": -1, "stimulus": "<p id=\"stim\">BASEMENT</p>", "key_press": -1, "type": "PRES_VIS", "word": "basement", "wordID": 93, "conditions": [24, 800, "v", 12000], "trial": 5, "serialpos": 6, "trial_type": "single-stim", "trial_index": 191, "time_elapsed": 871667, "internal_node_id": "0.0-137.0"}}, {"uniqueid": "MTK0345:37Z929RLGAF5XM2FG26YQCSTSPLTSL", "current_trial": 192, "dateTime": 1510773280747, "trialdata": {"rt": -1, "stimulus": "<p id=\"stim\">ARMY</p>", "key_press": -1, "type": "PRES_VIS", "word": "army", "wordID": 38, "conditions": [24, 800, "v", 12000], "trial": 5, "serialpos": 7, "trial_type": "single-stim", "trial_index": 192, "time_elapsed": 873312, "internal_node_id": "0.0-138.0"}}, {"uniqueid": "MTK0345:37Z929RLGAF5XM2FG26YQCSTSPLTSL", "current_trial": 193, "dateTime": 1510773282447, "trialdata": {"rt": -1, "stimulus": "<p id=\"stim\">PADDING</p>", "key_press": -1, "type": "PRES_VIS", "word": "padding", "wordID": 998, "conditions": [24, 800, "v", 12000], "trial": 5, "serialpos": 8, "trial_type": "single-stim", "trial_index": 193, "time_elapsed": 875012, "internal_node_id": "0.0-139.0"}}, {"uniqueid": "MTK0345:37Z929RLGAF5XM2FG26YQCSTSPLTSL", "current_trial": 194, "dateTime": 1510773284282, "trialdata": {"rt": -1, "stimulus": "<p id=\"stim\">FARMER</p>", "key_press": -1, "type": "PRES_VIS", "word": "farmer", "wordID": 552, "conditions": [24, 800, "v", 12000], "trial": 5, "serialpos": 9, "trial_type": "single-stim", "trial_index": 194, "time_elapsed": 876847, "internal_node_id": "0.0-140.0"}}, {"uniqueid": "MTK0345:37Z929RLGAF5XM2FG26YQCSTSPLTSL", "current_trial": 195, "dateTime": 1510773285997, "trialdata": {"rt": -1, "stimulus": "<p id=\"stim\">ISLAND</p>", "key_press": -1, "type": "PRES_VIS", "word": "island", "wordID": 744, "conditions": [24, 800, "v", 12000], "trial": 5, "serialpos": 10, "trial_type": "single-stim", "trial_index": 195, "time_elapsed": 878561, "internal_node_id": "0.0-141.0"}}, {"uniqueid": "MTK0345:37Z929RLGAF5XM2FG26YQCSTSPLTSL", "current_trial": 196, "dateTime": 1510773287640, "trialdata": {"rt": -1, "stimulus": "<p id=\"stim\">TROUT</p>", "key_press": -1, "type": "PRES_VIS", "word": "trout", "wordID": 1510, "conditions": [24, 800, "v", 12000], "trial": 5, "serialpos": 11, "trial_type": "single-stim", "trial_index": 196, "time_elapsed": 880205, "internal_node_id": "0.0-142.0"}}, {"uniqueid": "MTK0345:37Z929RLGAF5XM2FG26YQCSTSPLTSL", "current_trial": 197, "dateTime": 1510773289634, "trialdata": {"rt": -1, "stimulus": "<p id=\"stim\">DOLPHIN</p>", "key_press": -1, "type": "PRES_VIS", "word": "dolphin", "wordID": 482, "conditions": [24, 800, "v", 12000], "trial": 5, "serialpos": 12, "trial_type": "single-stim", "trial_index": 197, "time_elapsed": 882199, "internal_node_id": "0.0-143.0"}}, {"uniqueid": "MTK0345:37Z929RLGAF5XM2FG26YQCSTSPLTSL", "current_trial": 198, "dateTime": 1510773291493, "trialdata": {"rt": -1, "stimulus": "<p id=\"stim\">HORNET</p>", "key_press": -1, "type": "PRES_VIS", "word": "hornet", "wordID": 717, "conditions": [24, 800, "v", 12000], "trial": 5, "serialpos": 13, "trial_type": "single-stim", "trial_index": 198, "time_elapsed": 884058, "internal_node_id": "0.0-144.0"}}, {"uniqueid": "MTK0345:37Z929RLGAF5XM2FG26YQCSTSPLTSL", "current_trial": 199, "dateTime": 1510773293368, "trialdata": {"rt": -1, "stimulus": "<p id=\"stim\">PEACH</p>", "key_press": -1, "type": "PRES_VIS", "word": "peach", "wordID": 1030, "conditions": [24, 800, "v", 12000], "trial": 5, "serialpos": 14, "trial_type": "single-stim", "trial_index": 199, "time_elapsed": 885933, "internal_node_id": "0.0-145.0"}}, {"uniqueid": "MTK0345:37Z929RLGAF5XM2FG26YQCSTSPLTSL", "current_trial": 200, "dateTime": 1510773295199, "trialdata": {"rt": -1, "stimulus": "<p id=\"stim\">CURTAIN</p>", "key_press": -1, "type": "PRES_VIS", "word": "curtain", "wordID": 426, "conditions": [24, 800, "v", 12000], "trial": 5, "serialpos": 15, "trial_type": "single-stim", "trial_index": 200, "time_elapsed": 887764, "internal_node_id": "0.0-146.0"}}, {"uniqueid": "MTK0345:37Z929RLGAF5XM2FG26YQCSTSPLTSL", "current_trial": 201, "dateTime": 1510773297096, "trialdata": {"rt": -1, "stimulus": "<p id=\"stim\">ORCHID</p>", "key_press": -1, "type": "PRES_VIS", "word": "orchid", "wordID": 981, "conditions": [24, 800, "v", 12000], "trial": 5, "serialpos": 16, "trial_type": "single-stim", "trial_index": 201, "time_elapsed": 889661, "internal_node_id": "0.0-147.0"}}, {"uniqueid": "MTK0345:37Z929RLGAF5XM2FG26YQCSTSPLTSL", "current_trial": 202, "dateTime": 1510773298943, "trialdata": {"rt": -1, "stimulus": "<p id=\"stim\">VICTIM</p>", "key_press": -1, "type": "PRES_VIS", "word": "victim", "wordID": 1561, "conditions": [24, 800, "v", 12000], "trial": 5, "serialpos": 17, "trial_type": "single-stim", "trial_index": 202, "time_elapsed": 891508, "internal_node_id": "0.0-148.0"}}, {"uniqueid": "MTK0345:37Z929RLGAF5XM2FG26YQCSTSPLTSL", "current_trial": 203, "dateTime": 1510773300867, "trialdata": {"rt": -1, "stimulus": "<p id=\"stim\">WOMAN</p>", "key_press": -1, "type": "PRES_VIS", "word": "woman", "wordID": 1619, "conditions": [24, 800, "v", 12000], "trial": 5, "serialpos": 18, "trial_type": "single-stim", "trial_index": 203, "time_elapsed": 893432, "internal_node_id": "0.0-149.0"}}, {"uniqueid": "MTK0345:37Z929RLGAF5XM2FG26YQCSTSPLTSL", "current_trial": 204, "dateTime": 1510773302545, "trialdata": {"rt": -1, "stimulus": "<p id=\"stim\">OUTFIT</p>", "key_press": -1, "type": "PRES_VIS", "word": "outfit", "wordID": 987, "conditions": [24, 800, "v", 12000], "trial": 5, "serialpos": 19, "trial_type": "single-stim", "trial_index": 204, "time_elapsed": 895110, "internal_node_id": "0.0-150.0"}}, {"uniqueid": "MTK0345:37Z929RLGAF5XM2FG26YQCSTSPLTSL", "current_trial": 205, "dateTime": 1510773304374, "trialdata": {"rt": -1, "stimulus": "<p id=\"stim\">NAPKIN</p>", "key_press": -1, "type": "PRES_VIS", "word": "napkin", "wordID": 936, "conditions": [24, 800, "v", 12000], "trial": 5, "serialpos": 20, "trial_type": "single-stim", "trial_index": 205, "time_elapsed": 896938, "internal_node_id": "0.0-151.0"}}, {"uniqueid": "MTK0345:37Z929RLGAF5XM2FG26YQCSTSPLTSL", "current_trial": 206, "dateTime": 1510773306094, "trialdata": {"rt": -1, "stimulus": "<p id=\"stim\">RELISH</p>", "key_press": -1, "type": "PRES_VIS", "word": "relish", "wordID": 1182, "conditions": [24, 800, "v", 12000], "trial": 5, "serialpos": 21, "trial_type": "single-stim", "trial_index": 206, "time_elapsed": 898659, "internal_node_id": "0.0-152.0"}}, {"uniqueid": "MTK0345:37Z929RLGAF5XM2FG26YQCSTSPLTSL", "current_trial": 207, "dateTime": 1510773307937, "trialdata": {"rt": -1, "stimulus": "<p id=\"stim\">HONEY</p>", "key_press": -1, "type": "PRES_VIS", "word": "honey", "wordID": 712, "conditions": [24, 800, "v", 12000], "trial": 5, "serialpos": 22, "trial_type": "single-stim", "trial_index": 207, "time_elapsed": 900502, "internal_node_id": "0.0-153.0"}}, {"uniqueid": "MTK0345:37Z929RLGAF5XM2FG26YQCSTSPLTSL", "current_trial": 208, "dateTime": 1510773309822, "trialdata": {"rt": -1, "stimulus": "<p id=\"stim\">TURTLE</p>", "key_press": -1, "type": "PRES_VIS", "word": "turtle", "wordID": 1521, "conditions": [24, 800, "v", 12000], "trial": 5, "serialpos": 23, "trial_type": "single-stim", "trial_index": 208, "time_elapsed": 902387, "internal_node_id": "0.0-154.0"}}, {"uniqueid": "MTK0345:37Z929RLGAF5XM2FG26YQCSTSPLTSL", "current_trial": 209, "dateTime": 1510773312336, "trialdata": {"rt": -1, "stimulus": "", "key_press": -1, "type": "PRE_RECALL_DELAY", "trial_type": "single-stim", "trial_index": 209, "time_elapsed": 904901, "internal_node_id": "0.0-155.0-0.0"}}, {"uniqueid": "MTK0345:37Z929RLGAF5XM2FG26YQCSTSPLTSL", "current_trial": 210, "dateTime": 1510773312839, "trialdata": {"rt": -1000, "stimulus": "/static/audio/400Hz.wav", "key_press": -1, "type": "PRE_RECALL_ALERT", "trial_type": "single-audio", "trial_index": 210, "time_elapsed": 905403, "internal_node_id": "0.0-156.0"}}, {"uniqueid": "MTK0345:37Z929RLGAF5XM2FG26YQCSTSPLTSL", "current_trial": 211, "dateTime": 1510773372857, "trialdata": {"rt": [2124, 3479, 5347, 6780, 11846, 14611, 21524, 22962, 34824, 37138, 43237, 53076], "recwords": ["relish", "turtle", "victim", "honey", "relish", "basement", "trout", "dolphin", "fireman", "playground", "salmon", "orchid"], "type": "FREE_RECALL", "conditions": [24, 800, "v", 12000], "trial": 5, "trial_type": "free-recall", "trial_index": 211, "time_elapsed": 965412, "internal_node_id": "0.0-157.0-0.0"}}, {"uniqueid": "MTK0345:37Z929RLGAF5XM2FG26YQCSTSPLTSL", "current_trial": 212, "dateTime": 1510773391851, "trialdata": {"rt": 16993, "key_press": 32, "type": "INSTRUCTIONS", "trial_type": "text", "trial_index": 212, "time_elapsed": 984416, "internal_node_id": "0.0-158.0"}}, {"uniqueid": "MTK0345:37Z929RLGAF5XM2FG26YQCSTSPLTSL", "current_trial": 213, "dateTime": 1510773417858, "trialdata": {"rt": [2033, 5943, 8173, 9699, 11038, 15802, 20219, 22343], "responses": ["12", "25", "20", "17", "12", "24", "21", "15"], "num1": [5, 9, 8, 2, 6, 7, 6, 9, 8], "num2": [4, 8, 7, 8, 4, 8, 7, 2, 5], "num3": [3, 8, 5, 7, 2, 7, 9, 4, 7], "type": "DISTRACTOR", "conditions": [12, 1600, "a", 24000], "trial": 6, "trial_type": "math-distractor", "trial_index": 213, "time_elapsed": 1010422, "internal_node_id": "0.0-159.0"}}, {"uniqueid": "MTK0345:37Z929RLGAF5XM2FG26YQCSTSPLTSL", "current_trial": 214, "dateTime": 1510773420861, "trialdata": {"rt": -1, "stimulus": "<p id=\"stim\">10</p>", "key_press": -1, "trial_type": "single-stim", "trial_index": 214, "time_elapsed": 1013426, "internal_node_id": "0.0-160.0-0.0"}}, {"uniqueid": "MTK0345:37Z929RLGAF5XM2FG26YQCSTSPLTSL", "current_trial": 215, "dateTime": 1510773421864, "trialdata": {"rt": -1, "stimulus": "<p id=\"stim\">9</p>", "key_press": -1, "trial_type": "single-stim", "trial_index": 215, "time_elapsed": 1014429, "internal_node_id": "0.0-160.0-1.0"}}, {"uniqueid": "MTK0345:37Z929RLGAF5XM2FG26YQCSTSPLTSL", "current_trial": 216, "dateTime": 1510773422867, "trialdata": {"rt": -1, "stimulus": "<p id=\"stim\">8</p>", "key_press": -1, "trial_type": "single-stim", "trial_index": 216, "time_elapsed": 1015432, "internal_node_id": "0.0-160.0-2.0"}}, {"uniqueid": "MTK0345:37Z929RLGAF5XM2FG26YQCSTSPLTSL", "current_trial": 217, "dateTime": 1510773423868, "trialdata": {"rt": -1, "stimulus": "<p id=\"stim\">7</p>", "key_press": -1, "trial_type": "single-stim", "trial_index": 217, "time_elapsed": 1016433, "internal_node_id": "0.0-160.0-3.0"}}, {"uniqueid": "MTK0345:37Z929RLGAF5XM2FG26YQCSTSPLTSL", "current_trial": 218, "dateTime": 1510773424871, "trialdata": {"rt": -1, "stimulus": "<p id=\"stim\">6</p>", "key_press": -1, "trial_type": "single-stim", "trial_index": 218, "time_elapsed": 1017436, "internal_node_id": "0.0-160.0-4.0"}}, {"uniqueid": "MTK0345:37Z929RLGAF5XM2FG26YQCSTSPLTSL", "current_trial": 219, "dateTime": 1510773425874, "trialdata": {"rt": -1, "stimulus": "<p id=\"stim\">5</p>", "key_press": -1, "trial_type": "single-stim", "trial_index": 219, "time_elapsed": 1018439, "internal_node_id": "0.0-160.0-5.0"}}, {"uniqueid": "MTK0345:37Z929RLGAF5XM2FG26YQCSTSPLTSL", "current_trial": 220, "dateTime": 1510773426877, "trialdata": {"rt": -1, "stimulus": "<p id=\"stim\">4</p>", "key_press": -1, "trial_type": "single-stim", "trial_index": 220, "time_elapsed": 1019442, "internal_node_id": "0.0-160.0-6.0"}}, {"uniqueid": "MTK0345:37Z929RLGAF5XM2FG26YQCSTSPLTSL", "current_trial": 221, "dateTime": 1510773427880, "trialdata": {"rt": -1, "stimulus": "<p id=\"stim\">3</p>", "key_press": -1, "trial_type": "single-stim", "trial_index": 221, "time_elapsed": 1020445, "internal_node_id": "0.0-160.0-7.0"}}, {"uniqueid": "MTK0345:37Z929RLGAF5XM2FG26YQCSTSPLTSL", "current_trial": 222, "dateTime": 1510773428882, "trialdata": {"rt": -1, "stimulus": "<p id=\"stim\">2</p>", "key_press": -1, "trial_type": "single-stim", "trial_index": 222, "time_elapsed": 1021447, "internal_node_id": "0.0-160.0-8.0"}}, {"uniqueid": "MTK0345:37Z929RLGAF5XM2FG26YQCSTSPLTSL", "current_trial": 223, "dateTime": 1510773429885, "trialdata": {"rt": -1, "stimulus": "<p id=\"stim\">1</p>", "key_press": -1, "trial_type": "single-stim", "trial_index": 223, "time_elapsed": 1022450, "internal_node_id": "0.0-160.0-9.0"}}, {"uniqueid": "MTK0345:37Z929RLGAF5XM2FG26YQCSTSPLTSL", "current_trial": 224, "dateTime": 1510773431388, "trialdata": {"rt": -1, "stimulus": "<p id=\"stim\">+</p>", "key_press": -1, "type": "FIXATION", "trial_type": "single-stim", "trial_index": 224, "time_elapsed": 1023953, "internal_node_id": "0.0-161.0-0.0"}}, {"uniqueid": "MTK0345:37Z929RLGAF5XM2FG26YQCSTSPLTSL", "current_trial": 225, "dateTime": 1510773434010, "trialdata": {"rt": -1000, "stimulus": "/static/audio/wordpool/GALLON.wav", "key_press": -1, "type": "PRES_AUD", "word": "gallon", "wordID": 617, "conditions": [12, 1600, "a", 24000], "trial": 6, "serialpos": 0, "trial_type": "single-audio", "trial_index": 225, "time_elapsed": 1026575, "internal_node_id": "0.0-162.0"}}, {"uniqueid": "MTK0345:37Z929RLGAF5XM2FG26YQCSTSPLTSL", "current_trial": 226, "dateTime": 1510773436773, "trialdata": {"rt": -1000, "stimulus": "/static/audio/wordpool/QUEEN.wav", "key_press": -1, "type": "PRES_AUD", "word": "queen", "wordID": 1148, "conditions": [12, 1600, "a", 24000], "trial": 6, "serialpos": 1, "trial_type": "single-audio", "trial_index": 226, "time_elapsed": 1029337, "internal_node_id": "0.0-163.0"}}, {"uniqueid": "MTK0345:37Z929RLGAF5XM2FG26YQCSTSPLTSL", "current_trial": 227, "dateTime": 1510773439190, "trialdata": {"rt": -1000, "stimulus": "/static/audio/wordpool/CUSTARD.wav", "key_press": -1, "type": "PRES_AUD", "word": "custard", "wordID": 428, "conditions": [12, 1600, "a", 24000], "trial": 6, "serialpos": 2, "trial_type": "single-audio", "trial_index": 227, "time_elapsed": 1031755, "internal_node_id": "0.0-164.0"}}, {"uniqueid": "MTK0345:37Z929RLGAF5XM2FG26YQCSTSPLTSL", "current_trial": 228, "dateTime": 1510773441917, "trialdata": {"rt": -1000, "stimulus": "/static/audio/wordpool/SHOULDER.wav", "key_press": -1, "type": "PRES_AUD", "word": "shoulder", "wordID": 1293, "conditions": [12, 1600, "a", 24000], "trial": 6, "serialpos": 3, "trial_type": "single-audio", "trial_index": 228, "time_elapsed": 1034482, "internal_node_id": "0.0-165.0"}}, {"uniqueid": "MTK0345:37Z929RLGAF5XM2FG26YQCSTSPLTSL", "current_trial": 229, "dateTime": 1510773444644, "trialdata": {"rt": -1000, "stimulus": "/static/audio/wordpool/ELBOW.wav", "key_press": -1, "type": "PRES_AUD", "word": "elbow", "wordID": 519, "conditions": [12, 1600, "a", 24000], "trial": 6, "serialpos": 4, "trial_type": "single-audio", "trial_index": 229, "time_elapsed": 1037209, "internal_node_id": "0.0-166.0"}}, {"uniqueid": "MTK0345:37Z929RLGAF5XM2FG26YQCSTSPLTSL", "current_trial": 230, "dateTime": 1510773447139, "trialdata": {"rt": -1000, "stimulus": "/static/audio/wordpool/PUDDING.wav", "key_press": -1, "type": "PRES_AUD", "word": "pudding", "wordID": 1138, "conditions": [12, 1600, "a", 24000], "trial": 6, "serialpos": 5, "trial_type": "single-audio", "trial_index": 230, "time_elapsed": 1039704, "internal_node_id": "0.0-167.0"}}, {"uniqueid": "MTK0345:37Z929RLGAF5XM2FG26YQCSTSPLTSL", "current_trial": 231, "dateTime": 1510773449747, "trialdata": {"rt": -1000, "stimulus": "/static/audio/wordpool/CARROT.wav", "key_press": -1, "type": "PRES_AUD", "word": "carrot", "wordID": 248, "conditions": [12, 1600, "a", 24000], "trial": 6, "serialpos": 6, "trial_type": "single-audio", "trial_index": 231, "time_elapsed": 1042312, "internal_node_id": "0.0-168.0"}}, {"uniqueid": "MTK0345:37Z929RLGAF5XM2FG26YQCSTSPLTSL", "current_trial": 232, "dateTime": 1510773452459, "trialdata": {"rt": -1000, "stimulus": "/static/audio/wordpool/BABY.wav", "key_press": -1, "type": "PRES_AUD", "word": "baby", "wordID": 63, "conditions": [12, 1600, "a", 24000], "trial": 6, "serialpos": 7, "trial_type": "single-audio", "trial_index": 232, "time_elapsed": 1045024, "internal_node_id": "0.0-169.0"}}, {"uniqueid": "MTK0345:37Z929RLGAF5XM2FG26YQCSTSPLTSL", "current_trial": 233, "dateTime": 1510773454927, "trialdata": {"rt": -1000, "stimulus": "/static/audio/wordpool/FOREHEAD.wav", "key_press": -1, "type": "PRES_AUD", "word": "forehead", "wordID": 591, "conditions": [12, 1600, "a", 24000], "trial": 6, "serialpos": 8, "trial_type": "single-audio", "trial_index": 233, "time_elapsed": 1047491, "internal_node_id": "0.0-170.0"}}, {"uniqueid": "MTK0345:37Z929RLGAF5XM2FG26YQCSTSPLTSL", "current_trial": 234, "dateTime": 1510773457452, "trialdata": {"rt": -1000, "stimulus": "/static/audio/wordpool/SPONGE.wav", "key_press": -1, "type": "PRES_AUD", "word": "sponge", "wordID": 1354, "conditions": [12, 1600, "a", 24000], "trial": 6, "serialpos": 9, "trial_type": "single-audio", "trial_index": 234, "time_elapsed": 1050016, "internal_node_id": "0.0-171.0"}}, {"uniqueid": "MTK0345:37Z929RLGAF5XM2FG26YQCSTSPLTSL", "current_trial": 235, "dateTime": 1510773459869, "trialdata": {"rt": -1000, "stimulus": "/static/audio/wordpool/DRESSER.wav", "key_press": -1, "type": "PRES_AUD", "word": "dresser", "wordID": 495, "conditions": [12, 1600, "a", 24000], "trial": 6, "serialpos": 10, "trial_type": "single-audio", "trial_index": 235, "time_elapsed": 1052434, "internal_node_id": "0.0-172.0"}}, {"uniqueid": "MTK0345:37Z929RLGAF5XM2FG26YQCSTSPLTSL", "current_trial": 236, "dateTime": 1510773462396, "trialdata": {"rt": -1000, "stimulus": "/static/audio/wordpool/SPHINX.wav", "key_press": -1, "type": "PRES_AUD", "word": "sphinx", "wordID": 1348, "conditions": [12, 1600, "a", 24000], "trial": 6, "serialpos": 11, "trial_type": "single-audio", "trial_index": 236, "time_elapsed": 1054961, "internal_node_id": "0.0-173.0"}}, {"uniqueid": "MTK0345:37Z929RLGAF5XM2FG26YQCSTSPLTSL", "current_trial": 237, "dateTime": 1510773463665, "trialdata": {"rt": -1, "stimulus": "", "key_press": -1, "type": "PRE_RECALL_DELAY", "trial_type": "single-stim", "trial_index": 237, "time_elapsed": 1056229, "internal_node_id": "0.0-174.0-0.0"}}, {"uniqueid": "MTK0345:37Z929RLGAF5XM2FG26YQCSTSPLTSL", "current_trial": 238, "dateTime": 1510773464167, "trialdata": {"rt": -1000, "stimulus": "/static/audio/400Hz.wav", "key_press": -1, "type": "PRE_RECALL_ALERT", "trial_type": "single-audio", "trial_index": 238, "time_elapsed": 1056731, "internal_node_id": "0.0-175.0"}}, {"uniqueid": "MTK0345:37Z929RLGAF5XM2FG26YQCSTSPLTSL", "current_trial": 239, "dateTime": 1510773524184, "trialdata": {"rt": [2250, 3682, 4821, 8591, 10060, 10828, 12297, 14030, 15029, 18950, 27086], "recwords": ["sphinx", "gallon", "custard", "carrot", "queen", "baby", "dresser", "shoulder", "elbow", "forehea", "sponge"], "type": "FREE_RECALL", "conditions": [12, 1600, "a", 24000], "trial": 6, "trial_type": "free-recall", "trial_index": 239, "time_elapsed": 1116741, "internal_node_id": "0.0-176.0-0.0"}}, {"uniqueid": "MTK0345:37Z929RLGAF5XM2FG26YQCSTSPLTSL", "current_trial": 240, "dateTime": 1510773527742, "trialdata": {"rt": 1555, "key_press": 32, "type": "INSTRUCTIONS", "trial_type": "text", "trial_index": 240, "time_elapsed": 1120307, "internal_node_id": "0.0-177.0"}}, {"uniqueid": "MTK0345:37Z929RLGAF5XM2FG26YQCSTSPLTSL", "current_trial": 241, "dateTime": 1510773541749, "trialdata": {"rt": [1561, 3588, 5363, 7178, 9648, 11755], "responses": ["11", "21", "17", "17", "19", "18"], "num1": [5, 9, 2, 4, 7, 6, 1], "num2": [5, 5, 7, 4, 7, 8, 5], "num3": [1, 7, 8, 9, 5, 4, 5], "type": "DISTRACTOR", "conditions": [24, 800, "a", 12000], "trial": 7, "trial_type": "math-distractor", "trial_index": 241, "time_elapsed": 1134314, "internal_node_id": "0.0-178.0"}}, {"uniqueid": "MTK0345:37Z929RLGAF5XM2FG26YQCSTSPLTSL", "current_trial": 242, "dateTime": 1510773544754, "trialdata": {"rt": -1, "stimulus": "<p id=\"stim\">10</p>", "key_press": -1, "trial_type": "single-stim", "trial_index": 242, "time_elapsed": 1137319, "internal_node_id": "0.0-179.0-0.0"}}, {"uniqueid": "MTK0345:37Z929RLGAF5XM2FG26YQCSTSPLTSL", "current_trial": 243, "dateTime": 1510773545756, "trialdata": {"rt": -1, "stimulus": "<p id=\"stim\">9</p>", "key_press": -1, "trial_type": "single-stim", "trial_index": 243, "time_elapsed": 1138321, "internal_node_id": "0.0-179.0-1.0"}}, {"uniqueid": "MTK0345:37Z929RLGAF5XM2FG26YQCSTSPLTSL", "current_trial": 244, "dateTime": 1510773546760, "trialdata": {"rt": -1, "stimulus": "<p id=\"stim\">8</p>", "key_press": -1, "trial_type": "single-stim", "trial_index": 244, "time_elapsed": 1139324, "internal_node_id": "0.0-179.0-2.0"}}, {"uniqueid": "MTK0345:37Z929RLGAF5XM2FG26YQCSTSPLTSL", "current_trial": 245, "dateTime": 1510773547762, "trialdata": {"rt": -1, "stimulus": "<p id=\"stim\">7</p>", "key_press": -1, "trial_type": "single-stim", "trial_index": 245, "time_elapsed": 1140327, "internal_node_id": "0.0-179.0-3.0"}}, {"uniqueid": "MTK0345:37Z929RLGAF5XM2FG26YQCSTSPLTSL", "current_trial": 246, "dateTime": 1510773548764, "trialdata": {"rt": -1, "stimulus": "<p id=\"stim\">6</p>", "key_press": -1, "trial_type": "single-stim", "trial_index": 246, "time_elapsed": 1141329, "internal_node_id": "0.0-179.0-4.0"}}, {"uniqueid": "MTK0345:37Z929RLGAF5XM2FG26YQCSTSPLTSL", "current_trial": 247, "dateTime": 1510773549766, "trialdata": {"rt": -1, "stimulus": "<p id=\"stim\">5</p>", "key_press": -1, "trial_type": "single-stim", "trial_index": 247, "time_elapsed": 1142330, "internal_node_id": "0.0-179.0-5.0"}}, {"uniqueid": "MTK0345:37Z929RLGAF5XM2FG26YQCSTSPLTSL", "current_trial": 248, "dateTime": 1510773550768, "trialdata": {"rt": -1, "stimulus": "<p id=\"stim\">4</p>", "key_press": -1, "trial_type": "single-stim", "trial_index": 248, "time_elapsed": 1143333, "internal_node_id": "0.0-179.0-6.0"}}, {"uniqueid": "MTK0345:37Z929RLGAF5XM2FG26YQCSTSPLTSL", "current_trial": 249, "dateTime": 1510773551770, "trialdata": {"rt": -1, "stimulus": "<p id=\"stim\">3</p>", "key_press": -1, "trial_type": "single-stim", "trial_index": 249, "time_elapsed": 1144335, "internal_node_id": "0.0-179.0-7.0"}}, {"uniqueid": "MTK0345:37Z929RLGAF5XM2FG26YQCSTSPLTSL", "current_trial": 250, "dateTime": 1510773552773, "trialdata": {"rt": -1, "stimulus": "<p id=\"stim\">2</p>", "key_press": -1, "trial_type": "single-stim", "trial_index": 250, "time_elapsed": 1145338, "internal_node_id": "0.0-179.0-8.0"}}, {"uniqueid": "MTK0345:37Z929RLGAF5XM2FG26YQCSTSPLTSL", "current_trial": 251, "dateTime": 1510773553775, "trialdata": {"rt": -1, "stimulus": "<p id=\"stim\">1</p>", "key_press": -1, "trial_type": "single-stim", "trial_index": 251, "time_elapsed": 1146340, "internal_node_id": "0.0-179.0-9.0"}}, {"uniqueid": "MTK0345:37Z929RLGAF5XM2FG26YQCSTSPLTSL", "current_trial": 252, "dateTime": 1510773555277, "trialdata": {"rt": -1, "stimulus": "<p id=\"stim\">+</p>", "key_press": -1, "type": "FIXATION", "trial_type": "single-stim", "trial_index": 252, "time_elapsed": 1147842, "internal_node_id": "0.0-180.0-0.0"}}, {"uniqueid": "MTK0345:37Z929RLGAF5XM2FG26YQCSTSPLTSL", "current_trial": 253, "dateTime": 1510773556944, "trialdata": {"rt": -1000, "stimulus": "/static/audio/wordpool/DAISY.wav", "key_press": -1, "type": "PRES_AUD", "word": "daisy", "wordID": 434, "conditions": [24, 800, "a", 12000], "trial": 7, "serialpos": 0, "trial_type": "single-audio", "trial_index": 253, "time_elapsed": 1149509, "internal_node_id": "0.0-181.0"}}, {"uniqueid": "MTK0345:37Z929RLGAF5XM2FG26YQCSTSPLTSL", "current_trial": 254, "dateTime": 1510773558871, "trialdata": {"rt": -1000, "stimulus": "/static/audio/wordpool/DINER.wav", "key_press": -1, "type": "PRES_AUD", "word": "diner", "wordID": 466, "conditions": [24, 800, "a", 12000], "trial": 7, "serialpos": 1, "trial_type": "single-audio", "trial_index": 254, "time_elapsed": 1151436, "internal_node_id": "0.0-182.0"}}, {"uniqueid": "MTK0345:37Z929RLGAF5XM2FG26YQCSTSPLTSL", "current_trial": 255, "dateTime": 1510773560600, "trialdata": {"rt": -1000, "stimulus": "/static/audio/wordpool/GRILL.wav", "key_press": -1, "type": "PRES_AUD", "word": "grill", "wordID": 660, "conditions": [24, 800, "a", 12000], "trial": 7, "serialpos": 2, "trial_type": "single-audio", "trial_index": 255, "time_elapsed": 1153165, "internal_node_id": "0.0-183.0"}}, {"uniqueid": "MTK0345:37Z929RLGAF5XM2FG26YQCSTSPLTSL", "current_trial": 256, "dateTime": 1510773562515, "trialdata": {"rt": -1000, "stimulus": "/static/audio/wordpool/HOOK.wav", "key_press": -1, "type": "PRES_AUD", "word": "hook", "wordID": 714, "conditions": [24, 800, "a", 12000], "trial": 7, "serialpos": 3, "trial_type": "single-audio", "trial_index": 256, "time_elapsed": 1155080, "internal_node_id": "0.0-184.0"}}, {"uniqueid": "MTK0345:37Z929RLGAF5XM2FG26YQCSTSPLTSL", "current_trial": 257, "dateTime": 1510773564151, "trialdata": {"rt": -1000, "stimulus": "/static/audio/wordpool/EGYPT.wav", "key_press": -1, "type": "PRES_AUD", "word": "egypt", "wordID": 518, "conditions": [24, 800, "a", 12000], "trial": 7, "serialpos": 4, "trial_type": "single-audio", "trial_index": 257, "time_elapsed": 1156715, "internal_node_id": "0.0-185.0"}}, {"uniqueid": "MTK0345:37Z929RLGAF5XM2FG26YQCSTSPLTSL", "current_trial": 258, "dateTime": 1510773566037, "trialdata": {"rt": -1000, "stimulus": "/static/audio/wordpool/INMATE.wav", "key_press": -1, "type": "PRES_AUD", "word": "inmate", "wordID": 737, "conditions": [24, 800, "a", 12000], "trial": 7, "serialpos": 5, "trial_type": "single-audio", "trial_index": 258, "time_elapsed": 1158602, "internal_node_id": "0.0-186.0"}}, {"uniqueid": "MTK0345:37Z929RLGAF5XM2FG26YQCSTSPLTSL", "current_trial": 259, "dateTime": 1510773567970, "trialdata": {"rt": -1000, "stimulus": "/static/audio/wordpool/PICNIC.wav", "key_press": -1, "type": "PRES_AUD", "word": "picnic", "wordID": 1059, "conditions": [24, 800, "a", 12000], "trial": 7, "serialpos": 6, "trial_type": "single-audio", "trial_index": 259, "time_elapsed": 1160535, "internal_node_id": "0.0-187.0"}}, {"uniqueid": "MTK0345:37Z929RLGAF5XM2FG26YQCSTSPLTSL", "current_trial": 260, "dateTime": 1510773569965, "trialdata": {"rt": -1000, "stimulus": "/static/audio/wordpool/MATTRESS.wav", "key_press": -1, "type": "PRES_AUD", "word": "mattress", "wordID": 878, "conditions": [24, 800, "a", 12000], "trial": 7, "serialpos": 7, "trial_type": "single-audio", "trial_index": 260, "time_elapsed": 1162530, "internal_node_id": "0.0-188.0"}}, {"uniqueid": "MTK0345:37Z929RLGAF5XM2FG26YQCSTSPLTSL", "current_trial": 261, "dateTime": 1510773571921, "trialdata": {"rt": -1000, "stimulus": "/static/audio/wordpool/EUROPE.wav", "key_press": -1, "type": "PRES_AUD", "word": "europe", "wordID": 540, "conditions": [24, 800, "a", 12000], "trial": 7, "serialpos": 8, "trial_type": "single-audio", "trial_index": 261, "time_elapsed": 1164486, "internal_node_id": "0.0-189.0"}}, {"uniqueid": "MTK0345:37Z929RLGAF5XM2FG26YQCSTSPLTSL", "current_trial": 262, "dateTime": 1510773573611, "trialdata": {"rt": -1000, "stimulus": "/static/audio/wordpool/BLOUSE.wav", "key_press": -1, "type": "PRES_AUD", "word": "blouse", "wordID": 138, "conditions": [24, 800, "a", 12000], "trial": 7, "serialpos": 9, "trial_type": "single-audio", "trial_index": 262, "time_elapsed": 1166176, "internal_node_id": "0.0-190.0"}}, {"uniqueid": "MTK0345:37Z929RLGAF5XM2FG26YQCSTSPLTSL", "current_trial": 263, "dateTime": 1510773575335, "trialdata": {"rt": -1000, "stimulus": "/static/audio/wordpool/SHIRT.wav", "key_press": -1, "type": "PRES_AUD", "word": "shirt", "wordID": 1286, "conditions": [24, 800, "a", 12000], "trial": 7, "serialpos": 10, "trial_type": "single-audio", "trial_index": 263, "time_elapsed": 1167900, "internal_node_id": "0.0-191.0"}}, {"uniqueid": "MTK0345:37Z929RLGAF5XM2FG26YQCSTSPLTSL", "current_trial": 264, "dateTime": 1510773577288, "trialdata": {"rt": -1000, "stimulus": "/static/audio/wordpool/FEMALE.wav", "key_press": -1, "type": "PRES_AUD", "word": "female", "wordID": 558, "conditions": [24, 800, "a", 12000], "trial": 7, "serialpos": 11, "trial_type": "single-audio", "trial_index": 264, "time_elapsed": 1169852, "internal_node_id": "0.0-192.0"}}, {"uniqueid": "MTK0345:37Z929RLGAF5XM2FG26YQCSTSPLTSL", "current_trial": 265, "dateTime": 1510773579100, "trialdata": {"rt": -1000, "stimulus": "/static/audio/wordpool/OMELET.wav", "key_press": -1, "type": "PRES_AUD", "word": "omelet", "wordID": 975, "conditions": [24, 800, "a", 12000], "trial": 7, "serialpos": 12, "trial_type": "single-audio", "trial_index": 265, "time_elapsed": 1171665, "internal_node_id": "0.0-193.0"}}, {"uniqueid": "MTK0345:37Z929RLGAF5XM2FG26YQCSTSPLTSL", "current_trial": 266, "dateTime": 1510773580802, "trialdata": {"rt": -1000, "stimulus": "/static/audio/wordpool/ROBBER.wav", "key_press": -1, "type": "PRES_AUD", "word": "robber", "wordID": 1196, "conditions": [24, 800, "a", 12000], "trial": 7, "serialpos": 13, "trial_type": "single-audio", "trial_index": 266, "time_elapsed": 1173367, "internal_node_id": "0.0-194.0"}}, {"uniqueid": "MTK0345:37Z929RLGAF5XM2FG26YQCSTSPLTSL", "current_trial": 267, "dateTime": 1510773582751, "trialdata": {"rt": -1000, "stimulus": "/static/audio/wordpool/BULLET.wav", "key_press": -1, "type": "PRES_AUD", "word": "bullet", "wordID": 193, "conditions": [24, 800, "a", 12000], "trial": 7, "serialpos": 14, "trial_type": "single-audio", "trial_index": 267, "time_elapsed": 1175315, "internal_node_id": "0.0-195.0"}}, {"uniqueid": "MTK0345:37Z929RLGAF5XM2FG26YQCSTSPLTSL", "current_trial": 268, "dateTime": 1510773584747, "trialdata": {"rt": -1000, "stimulus": "/static/audio/wordpool/ASIA.wav", "key_press": -1, "type": "PRES_AUD", "word": "asia", "wordID": 45, "conditions": [24, 800, "a", 12000], "trial": 7, "serialpos": 15, "trial_type": "single-audio", "trial_index": 268, "time_elapsed": 1177312, "internal_node_id": "0.0-196.0"}}, {"uniqueid": "MTK0345:37Z929RLGAF5XM2FG26YQCSTSPLTSL", "current_trial": 269, "dateTime": 1510773586368, "trialdata": {"rt": -1000, "stimulus": "/static/audio/wordpool/SALAD.wav", "key_press": -1, "type": "PRES_AUD", "word": "salad", "wordID": 1223, "conditions": [24, 800, "a", 12000], "trial": 7, "serialpos": 16, "trial_type": "single-audio", "trial_index": 269, "time_elapsed": 1178933, "internal_node_id": "0.0-197.0"