{"condition": 0, "counterbalance": 532, "assignmentId": "31LVTDXBL8H5DUUXS442EBDGCNJRLL", "workerId": "MTK0448", "hitId": "3HEA4ZVWVDT0JYVKD86Q51G3KJI554", "currenttrial": 626, "bonus": 0, "data": [{"uniqueid": "MTK0448:31LVTDXBL8H5DUUXS442EBDGCNJRLL", "current_trial": 0, "dateTime": 1510934227589, "trialdata": {"rt": 3841494, "key_press": 32, "type": "INSTRUCTIONS", "trial_type": "text", "trial_index": 0, "time_elapsed": 3841496, "internal_node_id": "0.0-0.0"}}, {"uniqueid": "MTK0448:31LVTDXBL8H5DUUXS442EBDGCNJRLL", "current_trial": 1, "dateTime": 1510934242357, "trialdata": {"rt": 14767, "key_press": 32, "type": "INSTRUCTIONS", "trial_type": "text", "trial_index": 1, "time_elapsed": 3856263, "internal_node_id": "0.0-1.0"}}, {"uniqueid": "MTK0448:31LVTDXBL8H5DUUXS442EBDGCNJRLL", "current_trial": 2, "dateTime": 1510934255574, "trialdata": {"rt": [13205], "responses": ["ocean"], "type": "AUDIO_TEST", "trial_type": "audio-test", "trial_index": 2, "time_elapsed": 3869480, "internal_node_id": "0.0-2.0"}}, {"uniqueid": "MTK0448:31LVTDXBL8H5DUUXS442EBDGCNJRLL", "current_trial": 3, "dateTime": 1510934262789, "trialdata": {"rt": [7213], "responses": ["crystal"], "type": "AUDIO_TEST", "trial_type": "audio-test", "trial_index": 3, "time_elapsed": 3876696, "internal_node_id": "0.0-3.0"}}, {"uniqueid": "MTK0448:31LVTDXBL8H5DUUXS442EBDGCNJRLL", "current_trial": 4, "dateTime": 1510934266899, "trialdata": {"rt": [4109], "responses": ["spice"], "type": "AUDIO_TEST", "trial_type": "audio-test", "trial_index": 4, "time_elapsed": 3880806, "internal_node_id": "0.0-4.0"}}, {"uniqueid": "MTK0448:31LVTDXBL8H5DUUXS442EBDGCNJRLL", "current_trial": 5, "dateTime": 1510934297565, "trialdata": {"rt": 29914, "responses": "{\"Q0\":\"12:00 am\",\"Q1\":\"7:30am\",\"Q2\":\"4\"}", "type": "SLEEP_SURVEY", "trial_type": "survey-text", "trial_index": 5, "time_elapsed": 3911472, "internal_node_id": "0.0-5.0"}}, {"uniqueid": "MTK0448:31LVTDXBL8H5DUUXS442EBDGCNJRLL", "current_trial": 6, "dateTime": 1510934916516, "trialdata": {"rt": 617949, "key_press": 32, "type": "INSTRUCTIONS", "trial_type": "text", "trial_index": 6, "time_elapsed": 4530423, "internal_node_id": "0.0-6.0"}}, {"uniqueid": "MTK0448:31LVTDXBL8H5DUUXS442EBDGCNJRLL", "current_trial": 7, "dateTime": 1510934982483, "trialdata": {"rt": 65466, "key_press": 32, "type": "INSTRUCTIONS", "trial_type": "text", "trial_index": 7, "time_elapsed": 4596390, "internal_node_id": "0.0-7.0"}}, {"uniqueid": "MTK0448:31LVTDXBL8H5DUUXS442EBDGCNJRLL", "current_trial": 8, "dateTime": 1510934997203, "trialdata": {"rt": 14218, "key_press": 32, "type": "INSTRUCTIONS", "trial_type": "text", "trial_index": 8, "time_elapsed": 4611110, "internal_node_id": "0.0-8.0"}}, {"uniqueid": "MTK0448:31LVTDXBL8H5DUUXS442EBDGCNJRLL", "current_trial": 9, "dateTime": 1510935016207, "trialdata": {"rt": [3830, 7142, 11125, 13237, 17942], "responses": ["13", "21", "21", "15", "17"], "num1": [6, 8, 9, 5, 5, 1], "num2": [3, 7, 5, 3, 3, 6], "num3": [4, 6, 7, 7, 9, 1], "type": "DISTRACTOR", "conditions": [18, 1200, "a", 18000], "trial": 0, "trial_type": "math-distractor", "trial_index": 9, "time_elapsed": 4630114, "internal_node_id": "0.0-9.0"}}, {"uniqueid": "MTK0448:31LVTDXBL8H5DUUXS442EBDGCNJRLL", "current_trial": 10, "dateTime": 1510935019209, "trialdata": {"rt": -1, "stimulus": "<p id=\"stim\">10</p>", "key_press": -1, "trial_type": "single-stim", "trial_index": 10, "time_elapsed": 4633116, "internal_node_id": "0.0-10.0-0.0"}}, {"uniqueid": "MTK0448:31LVTDXBL8H5DUUXS442EBDGCNJRLL", "current_trial": 11, "dateTime": 1510935020210, "trialdata": {"rt": -1, "stimulus": "<p id=\"stim\">9</p>", "key_press": -1, "trial_type": "single-stim", "trial_index": 11, "time_elapsed": 4634117, "internal_node_id": "0.0-10.0-1.0"}}, {"uniqueid": "MTK0448:31LVTDXBL8H5DUUXS442EBDGCNJRLL", "current_trial": 12, "dateTime": 1510935021211, "trialdata": {"rt": -1, "stimulus": "<p id=\"stim\">8</p>", "key_press": -1, "trial_type": "single-stim", "trial_index": 12, "time_elapsed": 4635118, "internal_node_id": "0.0-10.0-2.0"}}, {"uniqueid": "MTK0448:31LVTDXBL8H5DUUXS442EBDGCNJRLL", "current_trial": 13, "dateTime": 1510935022212, "trialdata": {"rt": -1, "stimulus": "<p id=\"stim\">7</p>", "key_press": -1, "trial_type": "single-stim", "trial_index": 13, "time_elapsed": 4636119, "internal_node_id": "0.0-10.0-3.0"}}, {"uniqueid": "MTK0448:31LVTDXBL8H5DUUXS442EBDGCNJRLL", "current_trial": 14, "dateTime": 1510935023213, "trialdata": {"rt": -1, "stimulus": "<p id=\"stim\">6</p>", "key_press": -1, "trial_type": "single-stim", "trial_index": 14, "time_elapsed": 4637120, "internal_node_id": "0.0-10.0-4.0"}}, {"uniqueid": "MTK0448:31LVTDXBL8H5DUUXS442EBDGCNJRLL", "current_trial": 15, "dateTime": 1510935024215, "trialdata": {"rt": -1, "stimulus": "<p id=\"stim\">5</p>", "key_press": -1, "trial_type": "single-stim", "trial_index": 15, "time_elapsed": 4638122, "internal_node_id": "0.0-10.0-5.0"}}, {"uniqueid": "MTK0448:31LVTDXBL8H5DUUXS442EBDGCNJRLL", "current_trial": 16, "dateTime": 1510935025216, "trialdata": {"rt": -1, "stimulus": "<p id=\"stim\">4</p>", "key_press": -1, "trial_type": "single-stim", "trial_index": 16, "time_elapsed": 4639123, "internal_node_id": "0.0-10.0-6.0"}}, {"uniqueid": "MTK0448:31LVTDXBL8H5DUUXS442EBDGCNJRLL", "current_trial": 17, "dateTime": 1510935026217, "trialdata": {"rt": -1, "stimulus": "<p id=\"stim\">3</p>", "key_press": -1, "trial_type": "single-stim", "trial_index": 17, "time_elapsed": 4640123, "internal_node_id": "0.0-10.0-7.0"}}, {"uniqueid": "MTK0448:31LVTDXBL8H5DUUXS442EBDGCNJRLL", "current_trial": 18, "dateTime": 1510935027217, "trialdata": {"rt": -1, "stimulus": "<p id=\"stim\">2</p>", "key_press": -1, "trial_type": "single-stim", "trial_index": 18, "time_elapsed": 4641124, "internal_node_id": "0.0-10.0-8.0"}}, {"uniqueid": "MTK0448:31LVTDXBL8H5DUUXS442EBDGCNJRLL", "current_trial": 19, "dateTime": 1510935028218, "trialdata": {"rt": -1, "stimulus": "<p id=\"stim\">1</p>", "key_press": -1, "trial_type": "single-stim", "trial_index": 19, "time_elapsed": 4642125, "internal_node_id": "0.0-10.0-9.0"}}, {"uniqueid": "MTK0448:31LVTDXBL8H5DUUXS442EBDGCNJRLL", "current_trial": 20, "dateTime": 1510935029720, "trialdata": {"rt": -1, "stimulus": "<p id=\"stim\">+</p>", "key_press": -1, "type": "FIXATION", "trial_type": "single-stim", "trial_index": 20, "time_elapsed": 4643627, "internal_node_id": "0.0-11.0-0.0"}}, {"uniqueid": "MTK0448:31LVTDXBL8H5DUUXS442EBDGCNJRLL", "current_trial": 21, "dateTime": 1510935031767, "trialdata": {"rt": -1000, "stimulus": "/static/audio/wordpool/BABY.wav", "key_press": -1, "type": "PRES_AUD", "word": "baby", "wordID": 63, "conditions": [18, 1200, "a", 18000], "trial": 0, "serialpos": 0, "trial_type": "single-audio", "trial_index": 21, "time_elapsed": 4645674, "internal_node_id": "0.0-12.0"}}, {"uniqueid": "MTK0448:31LVTDXBL8H5DUUXS442EBDGCNJRLL", "current_trial": 22, "dateTime": 1510935033890, "trialdata": {"rt": -1000, "stimulus": "/static/audio/wordpool/ANTLER.wav", "key_press": -1, "type": "PRES_AUD", "word": "antler", "wordID": 28, "conditions": [18, 1200, "a", 18000], "trial": 0, "serialpos": 1, "trial_type": "single-audio", "trial_index": 22, "time_elapsed": 4647797, "internal_node_id": "0.0-13.0"}}, {"uniqueid": "MTK0448:31LVTDXBL8H5DUUXS442EBDGCNJRLL", "current_trial": 23, "dateTime": 1510935036156, "trialdata": {"rt": -1000, "stimulus": "/static/audio/wordpool/BLUEPRINT.wav", "key_press": -1, "type": "PRES_AUD", "word": "blueprint", "wordID": 141, "conditions": [18, 1200, "a", 18000], "trial": 0, "serialpos": 2, "trial_type": "single-audio", "trial_index": 23, "time_elapsed": 4650063, "internal_node_id": "0.0-14.0"}}, {"uniqueid": "MTK0448:31LVTDXBL8H5DUUXS442EBDGCNJRLL", "current_trial": 24, "dateTime": 1510935038258, "trialdata": {"rt": -1000, "stimulus": "/static/audio/wordpool/BRICK.wav", "key_press": -1, "type": "PRES_AUD", "word": "brick", "wordID": 171, "conditions": [18, 1200, "a", 18000], "trial": 0, "serialpos": 3, "trial_type": "single-audio", "trial_index": 24, "time_elapsed": 4652165, "internal_node_id": "0.0-15.0"}}, {"uniqueid": "MTK0448:31LVTDXBL8H5DUUXS442EBDGCNJRLL", "current_trial": 25, "dateTime": 1510935040634, "trialdata": {"rt": -1000, "stimulus": "/static/audio/wordpool/BOX.wav", "key_press": -1, "type": "PRES_AUD", "word": "box", "wordID": 158, "conditions": [18, 1200, "a", 18000], "trial": 0, "serialpos": 4, "trial_type": "single-audio", "trial_index": 25, "time_elapsed": 4654541, "internal_node_id": "0.0-16.0"}}, {"uniqueid": "MTK0448:31LVTDXBL8H5DUUXS442EBDGCNJRLL", "current_trial": 26, "dateTime": 1510935042930, "trialdata": {"rt": -1000, "stimulus": "/static/audio/wordpool/GAZELLE.wav", "key_press": -1, "type": "PRES_AUD", "word": "gazelle", "wordID": 627, "conditions": [18, 1200, "a", 18000], "trial": 0, "serialpos": 5, "trial_type": "single-audio", "trial_index": 26, "time_elapsed": 4656837, "internal_node_id": "0.0-17.0"}}, {"uniqueid": "MTK0448:31LVTDXBL8H5DUUXS442EBDGCNJRLL", "current_trial": 27, "dateTime": 1510935045081, "trialdata": {"rt": -1000, "stimulus": "/static/audio/wordpool/RAFT.wav", "key_press": -1, "type": "PRES_AUD", "word": "raft", "wordID": 1158, "conditions": [18, 1200, "a", 18000], "trial": 0, "serialpos": 6, "trial_type": "single-audio", "trial_index": 27, "time_elapsed": 4658988, "internal_node_id": "0.0-18.0"}}, {"uniqueid": "MTK0448:31LVTDXBL8H5DUUXS442EBDGCNJRLL", "current_trial": 28, "dateTime": 1510935047325, "trialdata": {"rt": -1000, "stimulus": "/static/audio/wordpool/GROUND.wav", "key_press": -1, "type": "PRES_AUD", "word": "ground", "wordID": 665, "conditions": [18, 1200, "a", 18000], "trial": 0, "serialpos": 7, "trial_type": "single-audio", "trial_index": 28, "time_elapsed": 4661232, "internal_node_id": "0.0-19.0"}}, {"uniqueid": "MTK0448:31LVTDXBL8H5DUUXS442EBDGCNJRLL", "current_trial": 29, "dateTime": 1510935049369, "trialdata": {"rt": -1000, "stimulus": "/static/audio/wordpool/OYSTER.wav", "key_press": -1, "type": "PRES_AUD", "word": "oyster", "wordID": 994, "conditions": [18, 1200, "a", 18000], "trial": 0, "serialpos": 8, "trial_type": "single-audio", "trial_index": 29, "time_elapsed": 4663276, "internal_node_id": "0.0-20.0"}}, {"uniqueid": "MTK0448:31LVTDXBL8H5DUUXS442EBDGCNJRLL", "current_trial": 30, "dateTime": 1510935051723, "trialdata": {"rt": -1000, "stimulus": "/static/audio/wordpool/RADISH.wav", "key_press": -1, "type": "PRES_AUD", "word": "radish", "wordID": 1157, "conditions": [18, 1200, "a", 18000], "trial": 0, "serialpos": 9, "trial_type": "single-audio", "trial_index": 30, "time_elapsed": 4665630, "internal_node_id": "0.0-21.0"}}, {"uniqueid": "MTK0448:31LVTDXBL8H5DUUXS442EBDGCNJRLL", "current_trial": 31, "dateTime": 1510935053753, "trialdata": {"rt": -1000, "stimulus": "/static/audio/wordpool/SPIDER.wav", "key_press": -1, "type": "PRES_AUD", "word": "spider", "wordID": 1350, "conditions": [18, 1200, "a", 18000], "trial": 0, "serialpos": 10, "trial_type": "single-audio", "trial_index": 31, "time_elapsed": 4667660, "internal_node_id": "0.0-22.0"}}, {"uniqueid": "MTK0448:31LVTDXBL8H5DUUXS442EBDGCNJRLL", "current_trial": 32, "dateTime": 1510935055994, "trialdata": {"rt": -1000, "stimulus": "/static/audio/wordpool/WAITRESS.wav", "key_press": -1, "type": "PRES_AUD", "word": "waitress", "wordID": 1580, "conditions": [18, 1200, "a", 18000], "trial": 0, "serialpos": 11, "trial_type": "single-audio", "trial_index": 32, "time_elapsed": 4669901, "internal_node_id": "0.0-23.0"}}, {"uniqueid": "MTK0448:31LVTDXBL8H5DUUXS442EBDGCNJRLL", "current_trial": 33, "dateTime": 1510935058095, "trialdata": {"rt": -1000, "stimulus": "/static/audio/wordpool/SKETCH.wav", "key_press": -1, "type": "PRES_AUD", "word": "sketch", "wordID": 1314, "conditions": [18, 1200, "a", 18000], "trial": 0, "serialpos": 12, "trial_type": "single-audio", "trial_index": 33, "time_elapsed": 4672002, "internal_node_id": "0.0-24.0"}}, {"uniqueid": "MTK0448:31LVTDXBL8H5DUUXS442EBDGCNJRLL", "current_trial": 34, "dateTime": 1510935060142, "trialdata": {"rt": -1000, "stimulus": "/static/audio/wordpool/LOVER.wav", "key_press": -1, "type": "PRES_AUD", "word": "lover", "wordID": 845, "conditions": [18, 1200, "a", 18000], "trial": 0, "serialpos": 13, "trial_type": "single-audio", "trial_index": 34, "time_elapsed": 4674049, "internal_node_id": "0.0-25.0"}}, {"uniqueid": "MTK0448:31LVTDXBL8H5DUUXS442EBDGCNJRLL", "current_trial": 35, "dateTime": 1510935062315, "trialdata": {"rt": -1000, "stimulus": "/static/audio/wordpool/ICEBERG.wav", "key_press": -1, "type": "PRES_AUD", "word": "iceberg", "wordID": 730, "conditions": [18, 1200, "a", 18000], "trial": 0, "serialpos": 14, "trial_type": "single-audio", "trial_index": 35, "time_elapsed": 4676222, "internal_node_id": "0.0-26.0"}}, {"uniqueid": "MTK0448:31LVTDXBL8H5DUUXS442EBDGCNJRLL", "current_trial": 36, "dateTime": 1510935064403, "trialdata": {"rt": -1000, "stimulus": "/static/audio/wordpool/MUMMY.wav", "key_press": -1, "type": "PRES_AUD", "word": "mummy", "wordID": 931, "conditions": [18, 1200, "a", 18000], "trial": 0, "serialpos": 15, "trial_type": "single-audio", "trial_index": 36, "time_elapsed": 4678310, "internal_node_id": "0.0-27.0"}}, {"uniqueid": "MTK0448:31LVTDXBL8H5DUUXS442EBDGCNJRLL", "current_trial": 37, "dateTime": 1510935066549, "trialdata": {"rt": -1000, "stimulus": "/static/audio/wordpool/PISTON.wav", "key_press": -1, "type": "PRES_AUD", "word": "piston", "wordID": 1075, "conditions": [18, 1200, "a", 18000], "trial": 0, "serialpos": 16, "trial_type": "single-audio", "trial_index": 37, "time_elapsed": 4680456, "internal_node_id": "0.0-28.0"}}, {"uniqueid": "MTK0448:31LVTDXBL8H5DUUXS442EBDGCNJRLL", "current_trial": 38, "dateTime": 1510935068765, "trialdata": {"rt": -1000, "stimulus": "/static/audio/wordpool/DOLPHIN.wav", "key_press": -1, "type": "PRES_AUD", "word": "dolphin", "wordID": 482, "conditions": [18, 1200, "a", 18000], "trial": 0, "serialpos": 17, "trial_type": "single-audio", "trial_index": 38, "time_elapsed": 4682672, "internal_node_id": "0.0-29.0"}}, {"uniqueid": "MTK0448:31LVTDXBL8H5DUUXS442EBDGCNJRLL", "current_trial": 39, "dateTime": 1510935070128, "trialdata": {"rt": -1, "stimulus": "", "key_press": -1, "type": "PRE_RECALL_DELAY", "trial_type": "single-stim", "trial_index": 39, "time_elapsed": 4684035, "internal_node_id": "0.0-30.0-0.0"}}, {"uniqueid": "MTK0448:31LVTDXBL8H5DUUXS442EBDGCNJRLL", "current_trial": 40, "dateTime": 1510935070629, "trialdata": {"rt": -1000, "stimulus": "/static/audio/400Hz.wav", "key_press": -1, "type": "PRE_RECALL_ALERT", "trial_type": "single-audio", "trial_index": 40, "time_elapsed": 4684536, "internal_node_id": "0.0-31.0"}}, {"uniqueid": "MTK0448:31LVTDXBL8H5DUUXS442EBDGCNJRLL", "current_trial": 41, "dateTime": 1510935130632, "trialdata": {"rt": [4013, 5052, 6524, 7917, 9517, 11853, 13885], "recwords": ["lover", "baby", "antler", "piston", "dolphin", "ground", "gazelle"], "type": "FREE_RECALL", "conditions": [18, 1200, "a", 18000], "trial": 0, "trial_type": "free-recall", "trial_index": 41, "time_elapsed": 4744538, "internal_node_id": "0.0-32.0-0.0"}}, {"uniqueid": "MTK0448:31LVTDXBL8H5DUUXS442EBDGCNJRLL", "current_trial": 42, "dateTime": 1510935135251, "trialdata": {"rt": 2619, "key_press": 32, "type": "INSTRUCTIONS", "trial_type": "text", "trial_index": 42, "time_elapsed": 4749158, "internal_node_id": "0.0-33.0"}}, {"uniqueid": "MTK0448:31LVTDXBL8H5DUUXS442EBDGCNJRLL", "current_trial": 43, "dateTime": 1510935155253, "trialdata": {"rt": [4206, 6927, 10303, 13119, 15118, 17246], "responses": ["14", "9", "17", "9", "15", "17"], "num1": [9, 3, 9, 3, 7, 6, 7], "num2": [3, 1, 5, 2, 5, 4, 3], "num3": [2, 5, 3, 4, 3, 7, 3], "type": "DISTRACTOR", "conditions": [18, 1200, "v", 18000], "trial": 1, "trial_type": "math-distractor", "trial_index": 43, "time_elapsed": 4769160, "internal_node_id": "0.0-34.0"}}, {"uniqueid": "MTK0448:31LVTDXBL8H5DUUXS442EBDGCNJRLL", "current_trial": 44, "dateTime": 1510935158255, "trialdata": {"rt": -1, "stimulus": "<p id=\"stim\">10</p>", "key_press": -1, "trial_type": "single-stim", "trial_index": 44, "time_elapsed": 4772161, "internal_node_id": "0.0-35.0-0.0"}}, {"uniqueid": "MTK0448:31LVTDXBL8H5DUUXS442EBDGCNJRLL", "current_trial": 45, "dateTime": 1510935159255, "trialdata": {"rt": -1, "stimulus": "<p id=\"stim\">9</p>", "key_press": -1, "trial_type": "single-stim", "trial_index": 45, "time_elapsed": 4773162, "internal_node_id": "0.0-35.0-1.0"}}, {"uniqueid": "MTK0448:31LVTDXBL8H5DUUXS442EBDGCNJRLL", "current_trial": 46, "dateTime": 1510935160256, "trialdata": {"rt": -1, "stimulus": "<p id=\"stim\">8</p>", "key_press": -1, "trial_type": "single-stim", "trial_index": 46, "time_elapsed": 4774163, "internal_node_id": "0.0-35.0-2.0"}}, {"uniqueid": "MTK0448:31LVTDXBL8H5DUUXS442EBDGCNJRLL", "current_trial": 47, "dateTime": 1510935161258, "trialdata": {"rt": -1, "stimulus": "<p id=\"stim\">7</p>", "key_press": -1, "trial_type": "single-stim", "trial_index": 47, "time_elapsed": 4775164, "internal_node_id": "0.0-35.0-3.0"}}, {"uniqueid": "MTK0448:31LVTDXBL8H5DUUXS442EBDGCNJRLL", "current_trial": 48, "dateTime": 1510935162259, "trialdata": {"rt": -1, "stimulus": "<p id=\"stim\">6</p>", "key_press": -1, "trial_type": "single-stim", "trial_index": 48, "time_elapsed": 4776166, "internal_node_id": "0.0-35.0-4.0"}}, {"uniqueid": "MTK0448:31LVTDXBL8H5DUUXS442EBDGCNJRLL", "current_trial": 49, "dateTime": 1510935163260, "trialdata": {"rt": -1, "stimulus": "<p id=\"stim\">5</p>", "key_press": -1, "trial_type": "single-stim", "trial_index": 49, "time_elapsed": 4777167, "internal_node_id": "0.0-35.0-5.0"}}, {"uniqueid": "MTK0448:31LVTDXBL8H5DUUXS442EBDGCNJRLL", "current_trial": 50, "dateTime": 1510935164261, "trialdata": {"rt": -1, "stimulus": "<p id=\"stim\">4</p>", "key_press": -1, "trial_type": "single-stim", "trial_index": 50, "time_elapsed": 4778168, "internal_node_id": "0.0-35.0-6.0"}}, {"uniqueid": "MTK0448:31LVTDXBL8H5DUUXS442EBDGCNJRLL", "current_trial": 51, "dateTime": 1510935165262, "trialdata": {"rt": -1, "stimulus": "<p id=\"stim\">3</p>", "key_press": -1, "trial_type": "single-stim", "trial_index": 51, "time_elapsed": 4779169, "internal_node_id": "0.0-35.0-7.0"}}, {"uniqueid": "MTK0448:31LVTDXBL8H5DUUXS442EBDGCNJRLL", "current_trial": 52, "dateTime": 1510935166264, "trialdata": {"rt": -1, "stimulus": "<p id=\"stim\">2</p>", "key_press": -1, "trial_type": "single-stim", "trial_index": 52, "time_elapsed": 4780171, "internal_node_id": "0.0-35.0-8.0"}}, {"uniqueid": "MTK0448:31LVTDXBL8H5DUUXS442EBDGCNJRLL", "current_trial": 53, "dateTime": 1510935167266, "trialdata": {"rt": -1, "stimulus": "<p id=\"stim\">1</p>", "key_press": -1, "trial_type": "single-stim", "trial_index": 53, "time_elapsed": 4781173, "internal_node_id": "0.0-35.0-9.0"}}, {"uniqueid": "MTK0448:31LVTDXBL8H5DUUXS442EBDGCNJRLL", "current_trial": 54, "dateTime": 1510935168767, "trialdata": {"rt": -1, "stimulus": "<p id=\"stim\">+</p>", "key_press": -1, "type": "FIXATION", "trial_type": "single-stim", "trial_index": 54, "time_elapsed": 4782673, "internal_node_id": "0.0-36.0-0.0"}}, {"uniqueid": "MTK0448:31LVTDXBL8H5DUUXS442EBDGCNJRLL", "current_trial": 55, "dateTime": 1510935169967, "trialdata": {"rt": -1, "stimulus": "<p id=\"stim\">SALAD</p>", "key_press": -1, "type": "PRES_VIS", "word": "salad", "wordID": 1223, "conditions": [18, 1200, "v", 18000], "trial": 1, "serialpos": 0, "trial_type": "single-stim", "trial_index": 55, "time_elapsed": 4783874, "internal_node_id": "0.0-37.0"}}, {"uniqueid": "MTK0448:31LVTDXBL8H5DUUXS442EBDGCNJRLL", "current_trial": 56, "dateTime": 1510935172302, "trialdata": {"rt": -1, "stimulus": "<p id=\"stim\">TURTLE</p>", "key_press": -1, "type": "PRES_VIS", "word": "turtle", "wordID": 1521, "conditions": [18, 1200, "v", 18000], "trial": 1, "serialpos": 1, "trial_type": "single-stim", "trial_index": 56, "time_elapsed": 4786208, "internal_node_id": "0.0-38.0"}}, {"uniqueid": "MTK0448:31LVTDXBL8H5DUUXS442EBDGCNJRLL", "current_trial": 57, "dateTime": 1510935174396, "trialdata": {"rt": -1, "stimulus": "<p id=\"stim\">PENGUIN</p>", "key_press": -1, "type": "PRES_VIS", "word": "penguin", "wordID": 1043, "conditions": [18, 1200, "v", 18000], "trial": 1, "serialpos": 2, "trial_type": "single-stim", "trial_index": 57, "time_elapsed": 4788303, "internal_node_id": "0.0-39.0"}}, {"uniqueid": "MTK0448:31LVTDXBL8H5DUUXS442EBDGCNJRLL", "current_trial": 58, "dateTime": 1510935176728, "trialdata": {"rt": -1, "stimulus": "<p id=\"stim\">JUDGE</p>", "key_press": -1, "type": "PRES_VIS", "word": "judge", "wordID": 760, "conditions": [18, 1200, "v", 18000], "trial": 1, "serialpos": 3, "trial_type": "single-stim", "trial_index": 58, "time_elapsed": 4790635, "internal_node_id": "0.0-40.0"}}, {"uniqueid": "MTK0448:31LVTDXBL8H5DUUXS442EBDGCNJRLL", "current_trial": 59, "dateTime": 1510935178986, "trialdata": {"rt": -1, "stimulus": "<p id=\"stim\">BREAST</p>", "key_press": -1, "type": "PRES_VIS", "word": "breast", "wordID": 170, "conditions": [18, 1200, "v", 18000], "trial": 1, "serialpos": 4, "trial_type": "single-stim", "trial_index": 59, "time_elapsed": 4792893, "internal_node_id": "0.0-41.0"}}, {"uniqueid": "MTK0448:31LVTDXBL8H5DUUXS442EBDGCNJRLL", "current_trial": 60, "dateTime": 1510935181048, "trialdata": {"rt": -1, "stimulus": "<p id=\"stim\">FRANCE</p>", "key_press": -1, "type": "PRES_VIS", "word": "france", "wordID": 600, "conditions": [18, 1200, "v", 18000], "trial": 1, "serialpos": 5, "trial_type": "single-stim", "trial_index": 60, "time_elapsed": 4794955, "internal_node_id": "0.0-42.0"}}, {"uniqueid": "MTK0448:31LVTDXBL8H5DUUXS442EBDGCNJRLL", "current_trial": 61, "dateTime": 1510935183283, "trialdata": {"rt": -1, "stimulus": "<p id=\"stim\">HANDBAG</p>", "key_press": -1, "type": "PRES_VIS", "word": "handbag", "wordID": 683, "conditions": [18, 1200, "v", 18000], "trial": 1, "serialpos": 6, "trial_type": "single-stim", "trial_index": 61, "time_elapsed": 4797190, "internal_node_id": "0.0-43.0"}}, {"uniqueid": "MTK0448:31LVTDXBL8H5DUUXS442EBDGCNJRLL", "current_trial": 62, "dateTime": 1510935185321, "trialdata": {"rt": -1, "stimulus": "<p id=\"stim\">LADY</p>", "key_press": -1, "type": "PRES_VIS", "word": "lady", "wordID": 793, "conditions": [18, 1200, "v", 18000], "trial": 1, "serialpos": 7, "trial_type": "single-stim", "trial_index": 62, "time_elapsed": 4799228, "internal_node_id": "0.0-44.0"}}, {"uniqueid": "MTK0448:31LVTDXBL8H5DUUXS442EBDGCNJRLL", "current_trial": 63, "dateTime": 1510935187599, "trialdata": {"rt": -1, "stimulus": "<p id=\"stim\">FUNGUS</p>", "key_press": -1, "type": "PRES_VIS", "word": "fungus", "wordID": 613, "conditions": [18, 1200, "v", 18000], "trial": 1, "serialpos": 8, "trial_type": "single-stim", "trial_index": 63, "time_elapsed": 4801505, "internal_node_id": "0.0-45.0"}}, {"uniqueid": "MTK0448:31LVTDXBL8H5DUUXS442EBDGCNJRLL", "current_trial": 64, "dateTime": 1510935189935, "trialdata": {"rt": -1, "stimulus": "<p id=\"stim\">GUITAR</p>", "key_press": -1, "type": "PRES_VIS", "word": "guitar", "wordID": 669, "conditions": [18, 1200, "v", 18000], "trial": 1, "serialpos": 9, "trial_type": "single-stim", "trial_index": 64, "time_elapsed": 4803842, "internal_node_id": "0.0-46.0"}}, {"uniqueid": "MTK0448:31LVTDXBL8H5DUUXS442EBDGCNJRLL", "current_trial": 65, "dateTime": 1510935191966, "trialdata": {"rt": -1, "stimulus": "<p id=\"stim\">SPONGE</p>", "key_press": -1, "type": "PRES_VIS", "word": "sponge", "wordID": 1354, "conditions": [18, 1200, "v", 18000], "trial": 1, "serialpos": 10, "trial_type": "single-stim", "trial_index": 65, "time_elapsed": 4805873, "internal_node_id": "0.0-47.0"}}, {"uniqueid": "MTK0448:31LVTDXBL8H5DUUXS442EBDGCNJRLL", "current_trial": 66, "dateTime": 1510935194295, "trialdata": {"rt": -1, "stimulus": "<p id=\"stim\">JUNGLE</p>", "key_press": -1, "type": "PRES_VIS", "word": "jungle", "wordID": 763, "conditions": [18, 1200, "v", 18000], "trial": 1, "serialpos": 11, "trial_type": "single-stim", "trial_index": 66, "time_elapsed": 4808202, "internal_node_id": "0.0-48.0"}}, {"uniqueid": "MTK0448:31LVTDXBL8H5DUUXS442EBDGCNJRLL", "current_trial": 67, "dateTime": 1510935196619, "trialdata": {"rt": -1, "stimulus": "<p id=\"stim\">ORCHID</p>", "key_press": -1, "type": "PRES_VIS", "word": "orchid", "wordID": 981, "conditions": [18, 1200, "v", 18000], "trial": 1, "serialpos": 12, "trial_type": "single-stim", "trial_index": 67, "time_elapsed": 4810526, "internal_node_id": "0.0-49.0"}}, {"uniqueid": "MTK0448:31LVTDXBL8H5DUUXS442EBDGCNJRLL", "current_trial": 68, "dateTime": 1510935198669, "trialdata": {"rt": -1, "stimulus": "<p id=\"stim\">SLOPE</p>", "key_press": -1, "type": "PRES_VIS", "word": "slope", "wordID": 1327, "conditions": [18, 1200, "v", 18000], "trial": 1, "serialpos": 13, "trial_type": "single-stim", "trial_index": 68, "time_elapsed": 4812575, "internal_node_id": "0.0-50.0"}}, {"uniqueid": "MTK0448:31LVTDXBL8H5DUUXS442EBDGCNJRLL", "current_trial": 69, "dateTime": 1510935200951, "trialdata": {"rt": -1, "stimulus": "<p id=\"stim\">PASTA</p>", "key_press": -1, "type": "PRES_VIS", "word": "pasta", "wordID": 1020, "conditions": [18, 1200, "v", 18000], "trial": 1, "serialpos": 14, "trial_type": "single-stim", "trial_index": 69, "time_elapsed": 4814858, "internal_node_id": "0.0-51.0"}}, {"uniqueid": "MTK0448:31LVTDXBL8H5DUUXS442EBDGCNJRLL", "current_trial": 70, "dateTime": 1510935203018, "trialdata": {"rt": -1, "stimulus": "<p id=\"stim\">HERO</p>", "key_press": -1, "type": "PRES_VIS", "word": "hero", "wordID": 705, "conditions": [18, 1200, "v", 18000], "trial": 1, "serialpos": 15, "trial_type": "single-stim", "trial_index": 70, "time_elapsed": 4816925, "internal_node_id": "0.0-52.0"}}, {"uniqueid": "MTK0448:31LVTDXBL8H5DUUXS442EBDGCNJRLL", "current_trial": 71, "dateTime": 1510935205144, "trialdata": {"rt": -1, "stimulus": "<p id=\"stim\">DENTIST</p>", "key_press": -1, "type": "PRES_VIS", "word": "dentist", "wordID": 446, "conditions": [18, 1200, "v", 18000], "trial": 1, "serialpos": 16, "trial_type": "single-stim", "trial_index": 71, "time_elapsed": 4819051, "internal_node_id": "0.0-53.0"}}, {"uniqueid": "MTK0448:31LVTDXBL8H5DUUXS442EBDGCNJRLL", "current_trial": 72, "dateTime": 1510935207242, "trialdata": {"rt": -1, "stimulus": "<p id=\"stim\">BRIEFCASE</p>", "key_press": -1, "type": "PRES_VIS", "word": "briefcase", "wordID": 174, "conditions": [18, 1200, "v", 18000], "trial": 1, "serialpos": 17, "trial_type": "single-stim", "trial_index": 72, "time_elapsed": 4821149, "internal_node_id": "0.0-54.0"}}, {"uniqueid": "MTK0448:31LVTDXBL8H5DUUXS442EBDGCNJRLL", "current_trial": 73, "dateTime": 1510935209301, "trialdata": {"rt": -1, "stimulus": "", "key_press": -1, "type": "PRE_RECALL_DELAY", "trial_type": "single-stim", "trial_index": 73, "time_elapsed": 4823208, "internal_node_id": "0.0-55.0-0.0"}}, {"uniqueid": "MTK0448:31LVTDXBL8H5DUUXS442EBDGCNJRLL", "current_trial": 74, "dateTime": 1510935209802, "trialdata": {"rt": -1000, "stimulus": "/static/audio/400Hz.wav", "key_press": -1, "type": "PRE_RECALL_ALERT", "trial_type": "single-audio", "trial_index": 74, "time_elapsed": 4823709, "internal_node_id": "0.0-56.0"}}, {"uniqueid": "MTK0448:31LVTDXBL8H5DUUXS442EBDGCNJRLL", "current_trial": 75, "dateTime": 1510935269805, "trialdata": {"rt": [1896, 3527, 5368, 6696, 10184], "recwords": ["guitar", "sponge", "orchid", "jungle", "staircase"], "type": "FREE_RECALL", "conditions": [18, 1200, "v", 18000], "trial": 1, "trial_type": "free-recall", "trial_index": 75, "time_elapsed": 4883711, "internal_node_id": "0.0-57.0-0.0"}}, {"uniqueid": "MTK0448:31LVTDXBL8H5DUUXS442EBDGCNJRLL", "current_trial": 76, "dateTime": 1510935281365, "trialdata": {"rt": 9556, "key_press": 32, "type": "INSTRUCTIONS", "trial_type": "text", "trial_index": 76, "time_elapsed": 4895269, "internal_node_id": "0.0-58.0"}}, {"uniqueid": "MTK0448:31LVTDXBL8H5DUUXS442EBDGCNJRLL", "current_trial": 77, "dateTime": 1510935294368, "trialdata": {"rt": [4436, 6531, 8004, 9347, 10963], "responses": ["15", "16", "11", "15", "6"], "num1": [8, 7, 4, 1, 2, 9], "num2": [1, 3, 6, 9, 3, 2], "num3": [6, 6, 1, 5, 1, 3], "type": "DISTRACTOR", "conditions": [12, 1600, "v", 12000], "trial": 2, "trial_type": "math-distractor", "trial_index": 77, "time_elapsed": 4908275, "internal_node_id": "0.0-59.0"}}, {"uniqueid": "MTK0448:31LVTDXBL8H5DUUXS442EBDGCNJRLL", "current_trial": 78, "dateTime": 1510935297369, "trialdata": {"rt": -1, "stimulus": "<p id=\"stim\">10</p>", "key_press": -1, "trial_type": "single-stim", "trial_index": 78, "time_elapsed": 4911276, "internal_node_id": "0.0-60.0-0.0"}}, {"uniqueid": "MTK0448:31LVTDXBL8H5DUUXS442EBDGCNJRLL", "current_trial": 79, "dateTime": 1510935298370, "trialdata": {"rt": -1, "stimulus": "<p id=\"stim\">9</p>", "key_press": -1, "trial_type": "single-stim", "trial_index": 79, "time_elapsed": 4912277, "internal_node_id": "0.0-60.0-1.0"}}, {"uniqueid": "MTK0448:31LVTDXBL8H5DUUXS442EBDGCNJRLL", "current_trial": 80, "dateTime": 1510935299371, "trialdata": {"rt": -1, "stimulus": "<p id=\"stim\">8</p>", "key_press": -1, "trial_type": "single-stim", "trial_index": 80, "time_elapsed": 4913278, "internal_node_id": "0.0-60.0-2.0"}}, {"uniqueid": "MTK0448:31LVTDXBL8H5DUUXS442EBDGCNJRLL", "current_trial": 81, "dateTime": 1510935300372, "trialdata": {"rt": -1, "stimulus": "<p id=\"stim\">7</p>", "key_press": -1, "trial_type": "single-stim", "trial_index": 81, "time_elapsed": 4914279, "internal_node_id": "0.0-60.0-3.0"}}, {"uniqueid": "MTK0448:31LVTDXBL8H5DUUXS442EBDGCNJRLL", "current_trial": 82, "dateTime": 1510935301374, "trialdata": {"rt": -1, "stimulus": "<p id=\"stim\">6</p>", "key_press": -1, "trial_type": "single-stim", "trial_index": 82, "time_elapsed": 4915281, "internal_node_id": "0.0-60.0-4.0"}}, {"uniqueid": "MTK0448:31LVTDXBL8H5DUUXS442EBDGCNJRLL", "current_trial": 83, "dateTime": 1510935302374, "trialdata": {"rt": -1, "stimulus": "<p id=\"stim\">5</p>", "key_press": -1, "trial_type": "single-stim", "trial_index": 83, "time_elapsed": 4916281, "internal_node_id": "0.0-60.0-5.0"}}, {"uniqueid": "MTK0448:31LVTDXBL8H5DUUXS442EBDGCNJRLL", "current_trial": 84, "dateTime": 1510935303375, "trialdata": {"rt": -1, "stimulus": "<p id=\"stim\">4</p>", "key_press": -1, "trial_type": "single-stim", "trial_index": 84, "time_elapsed": 4917282, "internal_node_id": "0.0-60.0-6.0"}}, {"uniqueid": "MTK0448:31LVTDXBL8H5DUUXS442EBDGCNJRLL", "current_trial": 85, "dateTime": 1510935304376, "trialdata": {"rt": -1, "stimulus": "<p id=\"stim\">3</p>", "key_press": -1, "trial_type": "single-stim", "trial_index": 85, "time_elapsed": 4918283, "internal_node_id": "0.0-60.0-7.0"}}, {"uniqueid": "MTK0448:31LVTDXBL8H5DUUXS442EBDGCNJRLL", "current_trial": 86, "dateTime": 1510935305378, "trialdata": {"rt": -1, "stimulus": "<p id=\"stim\">2</p>", "key_press": -1, "trial_type": "single-stim", "trial_index": 86, "time_elapsed": 4919285, "internal_node_id": "0.0-60.0-8.0"}}, {"uniqueid": "MTK0448:31LVTDXBL8H5DUUXS442EBDGCNJRLL", "current_trial": 87, "dateTime": 1510935306379, "trialdata": {"rt": -1, "stimulus": "<p id=\"stim\">1</p>", "key_press": -1, "trial_type": "single-stim", "trial_index": 87, "time_elapsed": 4920286, "internal_node_id": "0.0-60.0-9.0"}}, {"uniqueid": "MTK0448:31LVTDXBL8H5DUUXS442EBDGCNJRLL", "current_trial": 88, "dateTime": 1510935307880, "trialdata": {"rt": -1, "stimulus": "<p id=\"stim\">+</p>", "key_press": -1, "type": "FIXATION", "trial_type": "single-stim", "trial_index": 88, "time_elapsed": 4921787, "internal_node_id": "0.0-61.0-0.0"}}, {"uniqueid": "MTK0448:31LVTDXBL8H5DUUXS442EBDGCNJRLL", "current_trial": 89, "dateTime": 1510935309481, "trialdata": {"rt": -1, "stimulus": "<p id=\"stim\">WHISTLE</p>", "key_press": -1, "type": "PRES_VIS", "word": "whistle", "wordID": 1605, "conditions": [12, 1600, "v", 12000], "trial": 2, "serialpos": 0, "trial_type": "single-stim", "trial_index": 89, "time_elapsed": 4923388, "internal_node_id": "0.0-62.0"}}, {"uniqueid": "MTK0448:31LVTDXBL8H5DUUXS442EBDGCNJRLL", "current_trial": 90, "dateTime": 1510935312110, "trialdata": {"rt": -1, "stimulus": "<p id=\"stim\">CHAPEL</p>", "key_press": -1, "type": "PRES_VIS", "word": "chapel", "wordID": 279, "conditions": [12, 1600, "v", 12000], "trial": 2, "serialpos": 1, "trial_type": "single-stim", "trial_index": 90, "time_elapsed": 4926017, "internal_node_id": "0.0-63.0"}}, {"uniqueid": "MTK0448:31LVTDXBL8H5DUUXS442EBDGCNJRLL", "current_trial": 91, "dateTime": 1510935314705, "trialdata": {"rt": -1, "stimulus": "<p id=\"stim\">UNCLE</p>", "key_press": -1, "type": "PRES_VIS", "word": "uncle", "wordID": 1535, "conditions": [12, 1600, "v", 12000], "trial": 2, "serialpos": 2, "trial_type": "single-stim", "trial_index": 91, "time_elapsed": 4928612, "internal_node_id": "0.0-64.0"}}, {"uniqueid": "MTK0448:31LVTDXBL8H5DUUXS442EBDGCNJRLL", "current_trial": 92, "dateTime": 1510935317207, "trialdata": {"rt": -1, "stimulus": "<p id=\"stim\">DRESS</p>", "key_press": -1, "type": "PRES_VIS", "word": "dress", "wordID": 494, "conditions": [12, 1600, "v", 12000], "trial": 2, "serialpos": 3, "trial_type": "single-stim", "trial_index": 92, "time_elapsed": 4931114, "internal_node_id": "0.0-65.0"}}, {"uniqueid": "MTK0448:31LVTDXBL8H5DUUXS442EBDGCNJRLL", "current_trial": 93, "dateTime": 1510935319820, "trialdata": {"rt": -1, "stimulus": "<p id=\"stim\">EGYPT</p>", "key_press": -1, "type": "PRES_VIS", "word": "egypt", "wordID": 518, "conditions": [12, 1600, "v", 12000], "trial": 2, "serialpos": 4, "trial_type": "single-stim", "trial_index": 93, "time_elapsed": 4933727, "internal_node_id": "0.0-66.0"}}, {"uniqueid": "MTK0448:31LVTDXBL8H5DUUXS442EBDGCNJRLL", "current_trial": 94, "dateTime": 1510935322499, "trialdata": {"rt": -1, "stimulus": "<p id=\"stim\">KIDNEY</p>", "key_press": -1, "type": "PRES_VIS", "word": "kidney", "wordID": 775, "conditions": [12, 1600, "v", 12000], "trial": 2, "serialpos": 5, "trial_type": "single-stim", "trial_index": 94, "time_elapsed": 4936406, "internal_node_id": "0.0-67.0"}}, {"uniqueid": "MTK0448:31LVTDXBL8H5DUUXS442EBDGCNJRLL", "current_trial": 95, "dateTime": 1510935324980, "trialdata": {"rt": -1, "stimulus": "<p id=\"stim\">NOMAD</p>", "key_press": -1, "type": "PRES_VIS", "word": "nomad", "wordID": 954, "conditions": [12, 1600, "v", 12000], "trial": 2, "serialpos": 6, "trial_type": "single-stim", "trial_index": 95, "time_elapsed": 4938887, "internal_node_id": "0.0-68.0"}}, {"uniqueid": "MTK0448:31LVTDXBL8H5DUUXS442EBDGCNJRLL", "current_trial": 96, "dateTime": 1510935327627, "trialdata": {"rt": -1, "stimulus": "<p id=\"stim\">DOUGHNUT</p>", "key_press": -1, "type": "PRES_VIS", "word": "doughnut", "wordID": 489, "conditions": [12, 1600, "v", 12000], "trial": 2, "serialpos": 7, "trial_type": "single-stim", "trial_index": 96, "time_elapsed": 4941534, "internal_node_id": "0.0-69.0"}}, {"uniqueid": "MTK0448:31LVTDXBL8H5DUUXS442EBDGCNJRLL", "current_trial": 97, "dateTime": 1510935330199, "trialdata": {"rt": -1, "stimulus": "<p id=\"stim\">SILK</p>", "key_press": -1, "type": "PRES_VIS", "word": "silk", "wordID": 1306, "conditions": [12, 1600, "v", 12000], "trial": 2, "serialpos": 8, "trial_type": "single-stim", "trial_index": 97, "time_elapsed": 4944106, "internal_node_id": "0.0-70.0"}}, {"uniqueid": "MTK0448:31LVTDXBL8H5DUUXS442EBDGCNJRLL", "current_trial": 98, "dateTime": 1510935332760, "trialdata": {"rt": -1, "stimulus": "<p id=\"stim\">VELVET</p>", "key_press": -1, "type": "PRES_VIS", "word": "velvet", "wordID": 1554, "conditions": [12, 1600, "v", 12000], "trial": 2, "serialpos": 9, "trial_type": "single-stim", "trial_index": 98, "time_elapsed": 4946667, "internal_node_id": "0.0-71.0"}}, {"uniqueid": "MTK0448:31LVTDXBL8H5DUUXS442EBDGCNJRLL", "current_trial": 99, "dateTime": 1510935335414, "trialdata": {"rt": -1, "stimulus": "<p id=\"stim\">SNAKE</p>", "key_press": -1, "type": "PRES_VIS", "word": "snake", "wordID": 1332, "conditions": [12, 1600, "v", 12000], "trial": 2, "serialpos": 10, "trial_type": "single-stim", "trial_index": 99, "time_elapsed": 4949321, "internal_node_id": "0.0-72.0"}}, {"uniqueid": "MTK0448:31LVTDXBL8H5DUUXS442EBDGCNJRLL", "current_trial": 100, "dateTime": 1510935337914, "trialdata": {"rt": -1, "stimulus": "<p id=\"stim\">CLOTHES</p>", "key_press": -1, "type": "PRES_VIS", "word": "clothes", "wordID": 326, "conditions": [12, 1600, "v", 12000], "trial": 2, "serialpos": 11, "trial_type": "single-stim", "trial_index": 100, "time_elapsed": 4951821, "internal_node_id": "0.0-73.0"}}, {"uniqueid": "MTK0448:31LVTDXBL8H5DUUXS442EBDGCNJRLL", "current_trial": 101, "dateTime": 1510935340154, "trialdata": {"rt": -1, "stimulus": "", "key_press": -1, "type": "PRE_RECALL_DELAY", "trial_type": "single-stim", "trial_index": 101, "time_elapsed": 4954061, "internal_node_id": "0.0-74.0-0.0"}}, {"uniqueid": "MTK0448:31LVTDXBL8H5DUUXS442EBDGCNJRLL", "current_trial": 102, "dateTime": 1510935340655, "trialdata": {"rt": -1000, "stimulus": "/static/audio/400Hz.wav", "key_press": -1, "type": "PRE_RECALL_ALERT", "trial_type": "single-audio", "trial_index": 102, "time_elapsed": 4954562, "internal_node_id": "0.0-75.0"}}, {"uniqueid": "MTK0448:31LVTDXBL8H5DUUXS442EBDGCNJRLL", "current_trial": 103, "dateTime": 1510935400657, "trialdata": {"rt": [1747, 3251, 4228, 6419, 8563, 13412], "recwords": ["nomad", "velvet", "snake", "cloths", "whisky", "doughnut"], "type": "FREE_RECALL", "conditions": [12, 1600, "v", 12000], "trial": 2, "trial_type": "free-recall", "trial_index": 103, "time_elapsed": 5014563, "internal_node_id": "0.0-76.0-0.0"}}, {"uniqueid": "MTK0448:31LVTDXBL8H5DUUXS442EBDGCNJRLL", "current_trial": 104, "dateTime": 1510935403988, "trialdata": {"rt": 1328, "key_press": 32, "type": "INSTRUCTIONS", "trial_type": "text", "trial_index": 104, "time_elapsed": 5017895, "internal_node_id": "0.0-77.0"}}, {"uniqueid": "MTK0448:31LVTDXBL8H5DUUXS442EBDGCNJRLL", "current_trial": 105, "dateTime": 1510935417991, "trialdata": {"rt": [4062, 7278, 9439, 11790], "responses": ["17", "15", "7", "22"], "num1": [3, 2, 4, 9, 8], "num2": [8, 4, 2, 9, 2], "num3": [6, 9, 1, 4, 8], "type": "DISTRACTOR", "conditions": [24, 800, "a", 12000], "trial": 3, "trial_type": "math-distractor", "trial_index": 105, "time_elapsed": 5031898, "internal_node_id": "0.0-78.0"}}, {"uniqueid": "MTK0448:31LVTDXBL8H5DUUXS442EBDGCNJRLL", "current_trial": 106, "dateTime": 1510935420993, "trialdata": {"rt": -1, "stimulus": "<p id=\"stim\">10</p>", "key_press": -1, "trial_type": "single-stim", "trial_index": 106, "time_elapsed": 5034900, "internal_node_id": "0.0-79.0-0.0"}}, {"uniqueid": "MTK0448:31LVTDXBL8H5DUUXS442EBDGCNJRLL", "current_trial": 107, "dateTime": 1510935421994, "trialdata": {"rt": -1, "stimulus": "<p id=\"stim\">9</p>", "key_press": -1, "trial_type": "single-stim", "trial_index": 107, "time_elapsed": 5035901, "internal_node_id": "0.0-79.0-1.0"}}, {"uniqueid": "MTK0448:31LVTDXBL8H5DUUXS442EBDGCNJRLL", "current_trial": 108, "dateTime": 1510935422996, "trialdata": {"rt": -1, "stimulus": "<p id=\"stim\">8</p>", "key_press": -1, "trial_type": "single-stim", "trial_index": 108, "time_elapsed": 5036903, "internal_node_id": "0.0-79.0-2.0"}}, {"uniqueid": "MTK0448:31LVTDXBL8H5DUUXS442EBDGCNJRLL", "current_trial": 109, "dateTime": 1510935423996, "trialdata": {"rt": -1, "stimulus": "<p id=\"stim\">7</p>", "key_press": -1, "trial_type": "single-stim", "trial_index": 109, "time_elapsed": 5037903, "internal_node_id": "0.0-79.0-3.0"}}, {"uniqueid": "MTK0448:31LVTDXBL8H5DUUXS442EBDGCNJRLL", "current_trial": 110, "dateTime": 1510935424997, "trialdata": {"rt": -1, "stimulus": "<p id=\"stim\">6</p>", "key_press": -1, "trial_type": "single-stim", "trial_index": 110, "time_elapsed": 5038904, "internal_node_id": "0.0-79.0-4.0"}}, {"uniqueid": "MTK0448:31LVTDXBL8H5DUUXS442EBDGCNJRLL", "current_trial": 111, "dateTime": 1510935425998, "trialdata": {"rt": -1, "stimulus": "<p id=\"stim\">5</p>", "key_press": -1, "trial_type": "single-stim", "trial_index": 111, "time_elapsed": 5039905, "internal_node_id": "0.0-79.0-5.0"}}, {"uniqueid": "MTK0448:31LVTDXBL8H5DUUXS442EBDGCNJRLL", "current_trial": 112, "dateTime": 1510935426999, "trialdata": {"rt": -1, "stimulus": "<p id=\"stim\">4</p>", "key_press": -1, "trial_type": "single-stim", "trial_index": 112, "time_elapsed": 5040906, "internal_node_id": "0.0-79.0-6.0"}}, {"uniqueid": "MTK0448:31LVTDXBL8H5DUUXS442EBDGCNJRLL", "current_trial": 113, "dateTime": 1510935428000, "trialdata": {"rt": -1, "stimulus": "<p id=\"stim\">3</p>", "key_press": -1, "trial_type": "single-stim", "trial_index": 113, "time_elapsed": 5041907, "internal_node_id": "0.0-79.0-7.0"}}, {"uniqueid": "MTK0448:31LVTDXBL8H5DUUXS442EBDGCNJRLL", "current_trial": 114, "dateTime": 1510935429001, "trialdata": {"rt": -1, "stimulus": "<p id=\"stim\">2</p>", "key_press": -1, "trial_type": "single-stim", "trial_index": 114, "time_elapsed": 5042908, "internal_node_id": "0.0-79.0-8.0"}}, {"uniqueid": "MTK0448:31LVTDXBL8H5DUUXS442EBDGCNJRLL", "current_trial": 115, "dateTime": 1510935430003, "trialdata": {"rt": -1, "stimulus": "<p id=\"stim\">1</p>", "key_press": -1, "trial_type": "single-stim", "trial_index": 115, "time_elapsed": 5043910, "internal_node_id": "0.0-79.0-9.0"}}, {"uniqueid": "MTK0448:31LVTDXBL8H5DUUXS442EBDGCNJRLL", "current_trial": 116, "dateTime": 1510935431504, "trialdata": {"rt": -1, "stimulus": "<p id=\"stim\">+</p>", "key_press": -1, "type": "FIXATION", "trial_type": "single-stim", "trial_index": 116, "time_elapsed": 5045411, "internal_node_id": "0.0-80.0-0.0"}}, {"uniqueid": "MTK0448:31LVTDXBL8H5DUUXS442EBDGCNJRLL", "current_trial": 117, "dateTime": 1510935433482, "trialdata": {"rt": -1000, "stimulus": "/static/audio/wordpool/POET.wav", "key_press": -1, "type": "PRES_AUD", "word": "poet", "wordID": 1094, "conditions": [24, 800, "a", 12000], "trial": 3, "serialpos": 0, "trial_type": "single-audio", "trial_index": 117, "time_elapsed": 5047389, "internal_node_id": "0.0-81.0"}}, {"uniqueid": "MTK0448:31LVTDXBL8H5DUUXS442EBDGCNJRLL", "current_trial": 118, "dateTime": 1510935435174, "trialdata": {"rt": -1000, "stimulus": "/static/audio/wordpool/EUROPE.wav", "key_press": -1, "type": "PRES_AUD", "word": "europe", "wordID": 540, "conditions": [24, 800, "a", 12000], "trial": 3, "serialpos": 1, "trial_type": "single-audio", "trial_index": 118, "time_elapsed": 5049081, "internal_node_id": "0.0-82.0"}}, {"uniqueid": "MTK0448:31LVTDXBL8H5DUUXS442EBDGCNJRLL", "current_trial": 119, "dateTime": 1510935436893, "trialdata": {"rt": -1000, "stimulus": "/static/audio/wordpool/GRAPE.wav", "key_press": -1, "type": "PRES_AUD", "word": "grape", "wordID": 653, "conditions": [24, 800, "a", 12000], "trial": 3, "serialpos": 2, "trial_type": "single-audio", "trial_index": 119, "time_elapsed": 5050800, "internal_node_id": "0.0-83.0"}}, {"uniqueid": "MTK0448:31LVTDXBL8H5DUUXS442EBDGCNJRLL", "current_trial": 120, "dateTime": 1510935438744, "trialdata": {"rt": -1000, "stimulus": "/static/audio/wordpool/QUAIL.wav", "key_press": -1, "type": "PRES_AUD", "word": "quail", "wordID": 1146, "conditions": [24, 800, "a", 12000], "trial": 3, "serialpos": 3, "trial_type": "single-audio", "trial_index": 120, "time_elapsed": 5052651, "internal_node_id": "0.0-84.0"}}, {"uniqueid": "MTK0448:31LVTDXBL8H5DUUXS442EBDGCNJRLL", "current_trial": 121, "dateTime": 1510935440595, "trialdata": {"rt": -1000, "stimulus": "/static/audio/wordpool/COMET.wav", "key_press": -1, "type": "PRES_AUD", "word": "comet", "wordID": 352, "conditions": [24, 800, "a", 12000], "trial": 3, "serialpos": 4, "trial_type": "single-audio", "trial_index": 121, "time_elapsed": 5054502, "internal_node_id": "0.0-85.0"}}, {"uniqueid": "MTK0448:31LVTDXBL8H5DUUXS442EBDGCNJRLL", "current_trial": 122, "dateTime": 1510935442263, "trialdata": {"rt": -1000, "stimulus": "/static/audio/wordpool/CASHIER.wav", "key_press": -1, "type": "PRES_AUD", "word": "cashier", "wordID": 253, "conditions": [24, 800, "a", 12000], "trial": 3, "serialpos": 5, "trial_type": "single-audio", "trial_index": 122, "time_elapsed": 5056170, "internal_node_id": "0.0-86.0"}}, {"uniqueid": "MTK0448:31LVTDXBL8H5DUUXS442EBDGCNJRLL", "current_trial": 123, "dateTime": 1510935444155, "trialdata": {"rt": -1000, "stimulus": "/static/audio/wordpool/WAITER.wav", "key_press": -1, "type": "PRES_AUD", "word": "waiter", "wordID": 1579, "conditions": [24, 800, "a", 12000], "trial": 3, "serialpos": 6, "trial_type": "single-audio", "trial_index": 123, "time_elapsed": 5058062, "internal_node_id": "0.0-87.0"}}, {"uniqueid": "MTK0448:31LVTDXBL8H5DUUXS442EBDGCNJRLL", "current_trial": 124, "dateTime": 1510935445950, "trialdata": {"rt": -1000, "stimulus": "/static/audio/wordpool/TURKEY.wav", "key_press": -1, "type": "PRES_AUD", "word": "turkey", "wordID": 1519, "conditions": [24, 800, "a", 12000], "trial": 3, "serialpos": 7, "trial_type": "single-audio", "trial_index": 124, "time_elapsed": 5059857, "internal_node_id": "0.0-88.0"}}, {"uniqueid": "MTK0448:31LVTDXBL8H5DUUXS442EBDGCNJRLL", "current_trial": 125, "dateTime": 1510935447945, "trialdata": {"rt": -1000, "stimulus": "/static/audio/wordpool/SNACK.wav", "key_press": -1, "type": "PRES_AUD", "word": "snack", "wordID": 1330, "conditions": [24, 800, "a", 12000], "trial": 3, "serialpos": 8, "trial_type": "single-audio", "trial_index": 125, "time_elapsed": 5061852, "internal_node_id": "0.0-89.0"}}, {"uniqueid": "MTK0448:31LVTDXBL8H5DUUXS442EBDGCNJRLL", "current_trial": 126, "dateTime": 1510935449568, "trialdata": {"rt": -1000, "stimulus": "/static/audio/wordpool/BRANDY.wav", "key_press": -1, "type": "PRES_AUD", "word": "brandy", "wordID": 168, "conditions": [24, 800, "a", 12000], "trial": 3, "serialpos": 9, "trial_type": "single-audio", "trial_index": 126, "time_elapsed": 5063475, "internal_node_id": "0.0-90.0"}}, {"uniqueid": "MTK0448:31LVTDXBL8H5DUUXS442EBDGCNJRLL", "current_trial": 127, "dateTime": 1510935451322, "trialdata": {"rt": -1000, "stimulus": "/static/audio/wordpool/CASHEW.wav", "key_press": -1, "type": "PRES_AUD", "word": "cashew", "wordID": 252, "conditions": [24, 800, "a", 12000], "trial": 3, "serialpos": 10, "trial_type": "single-audio", "trial_index": 127, "time_elapsed": 5065229, "internal_node_id": "0.0-91.0"}}, {"uniqueid": "MTK0448:31LVTDXBL8H5DUUXS442EBDGCNJRLL", "current_trial": 128, "dateTime": 1510935453256, "trialdata": {"rt": -1000, "stimulus": "/static/audio/wordpool/JURY.wav", "key_press": -1, "type": "PRES_AUD", "word": "jury", "wordID": 765, "conditions": [24, 800, "a", 12000], "trial": 3, "serialpos": 11, "trial_type": "single-audio", "trial_index": 128, "time_elapsed": 5067163, "internal_node_id": "0.0-92.0"}}, {"uniqueid": "MTK0448:31LVTDXBL8H5DUUXS442EBDGCNJRLL", "current_trial": 129, "dateTime": 1510935455157, "trialdata": {"rt": -1000, "stimulus": "/static/audio/wordpool/PISTOL.wav", "key_press": -1, "type": "PRES_AUD", "word": "pistol", "wordID": 1074, "conditions": [24, 800, "a", 12000], "trial": 3, "serialpos": 12, "trial_type": "single-audio", "trial_index": 129, "time_elapsed": 5069064, "internal_node_id": "0.0-93.0"}}, {"uniqueid": "MTK0448:31LVTDXBL8H5DUUXS442EBDGCNJRLL", "current_trial": 130, "dateTime": 1510935457153, "trialdata": {"rt": -1000, "stimulus": "/static/audio/wordpool/ROBBER.wav", "key_press": -1, "type": "PRES_AUD", "word": "robber", "wordID": 1196, "conditions": [24, 800, "a", 12000], "trial": 3, "serialpos": 13, "trial_type": "single-audio", "trial_index": 130, "time_elapsed": 5071060, "internal_node_id": "0.0-94.0"}}, {"uniqueid": "MTK0448:31LVTDXBL8H5DUUXS442EBDGCNJRLL", "current_trial": 131, "dateTime": 1510935458890, "trialdata": {"rt": -1000, "stimulus": "/static/audio/wordpool/BANKER.wav", "key_press": -1, "type": "PRES_AUD", "word": "banker", "wordID": 83, "conditions": [24, 800, "a", 12000], "trial": 3, "serialpos": 14, "trial_type": "single-audio", "trial_index": 131, "time_elapsed": 5072797, "internal_node_id": "0.0-95.0"}}, {"uniqueid": "MTK0448:31LVTDXBL8H5DUUXS442EBDGCNJRLL", "current_trial": 132, "dateTime": 1510935460656, "trialdata": {"rt": -1000, "stimulus": "/static/audio/wordpool/BIKE.wav", "key_press": -1, "type": "PRES_AUD", "word": "bike", "wordID": 124, "conditions": [24, 800, "a", 12000], "trial": 3, "serialpos": 15, "trial_type": "single-audio", "trial_index": 132, "time_elapsed": 5074563, "internal_node_id": "0.0-96.0"}}, {"uniqueid": "MTK0448:31LVTDXBL8H5DUUXS442EBDGCNJRLL", "current_trial": 133, "dateTime": 1510935462314, "trialdata": {"rt": -1000, "stimulus": "/static/audio/wordpool/TWIG.wav", "key_press": -1, "type": "PRES_AUD", "word": "twig", "wordID": 1526, "conditions": [24, 800, "a", 12000], "trial": 3, "serialpos": 16, "trial_type": "single-audio", "trial_index": 133, "time_elapsed": 5076221, "internal_node_id": "0.0-97.0"}}, {"uniqueid": "MTK0448:31LVTDXBL8H5DUUXS442EBDGCNJRLL", "current_trial": 134, "dateTime": 1510935464061, "trialdata": {"rt": -1000, "stimulus": "/static/audio/wordpool/ATOM.wav", "key_press": -1, "type": "PRES_AUD", "word": "atom", "wordID": 54, "conditions": [24, 800, "a", 12000], "trial": 3, "serialpos": 17, "trial_type": "single-audio", "trial_index": 134, "time_elapsed": 5077968, "internal_node_id": "0.0-98.0"}}, {"uniqueid": "MTK0448:31LVTDXBL8H5DUUXS442EBDGCNJRLL", "current_trial": 135, "dateTime": 1510935465948, "trialdata": {"rt": -1000, "stimulus": "/static/audio/wordpool/DAUGHTER.wav", "key_press": -1, "type": "PRES_AUD", "word": "daughter", "wordID": 441, "conditions": [24, 800, "a", 12000], "trial": 3, "serialpos": 18, "trial_type": "single-audio", "trial_index": 135, "time_elapsed": 5079855, "internal_node_id": "0.0-99.0"}}, {"uniqueid": "MTK0448:31LVTDXBL8H5DUUXS442EBDGCNJRLL", "current_trial": 136, "dateTime": 1510935467566, "trialdata": {"rt": -1000, "stimulus": "/static/audio/wordpool/SHIRT.wav", "key_press": -1, "type": "PRES_AUD", "word": "shirt", "wordID": 1286, "conditions": [24, 800, "a", 12000], "trial": 3, "serialpos": 19, "trial_type": "single-audio", "trial_index": 136, "time_elapsed": 5081473, "internal_node_id": "0.0-100.0"}}, {"uniqueid": "MTK0448:31LVTDXBL8H5DUUXS442EBDGCNJRLL", "current_trial": 137, "dateTime": 1510935469339, "trialdata": {"rt": -1000, "stimulus": "/static/audio/wordpool/HEADBAND.wav", "key_press": -1, "type": "PRES_AUD", "word": "headband", "wordID": 695, "conditions": [24, 800, "a", 12000], "trial": 3, "serialpos": 20, "trial_type": "single-audio", "trial_index": 137, "time_elapsed": 5083245, "internal_node_id": "0.0-101.0"}}, {"uniqueid": "MTK0448:31LVTDXBL8H5DUUXS442EBDGCNJRLL", "current_trial": 138, "dateTime": 1510935471011, "trialdata": {"rt": -1000, "stimulus": "/static/audio/wordpool/DONOR.wav", "key_press": -1, "type": "PRES_AUD", "word": "donor", "wordID": 484, "conditions": [24, 800, "a", 12000], "trial": 3, "serialpos": 21, "trial_type": "single-audio", "trial_index": 138, "time_elapsed": 5084918, "internal_node_id": "0.0-102.0"}}, {"uniqueid": "MTK0448:31LVTDXBL8H5DUUXS442EBDGCNJRLL", "current_trial": 139, "dateTime": 1510935472909, "trialdata": {"rt": -1000, "stimulus": "/static/audio/wordpool/SCULPTURE.wav", "key_press": -1, "type": "PRES_AUD", "word": "sculpture", "wordID": 1257, "conditions": [24, 800, "a", 12000], "trial": 3, "serialpos": 22, "trial_type": "single-audio", "trial_index": 139, "time_elapsed": 5086816, "internal_node_id": "0.0-103.0"}}, {"uniqueid": "MTK0448:31LVTDXBL8H5DUUXS442EBDGCNJRLL", "current_trial": 140, "dateTime": 1510935474723, "trialdata": {"rt": -1000, "stimulus": "/static/audio/wordpool/BANK.wav", "key_press": -1, "type": "PRES_AUD", "word": "bank", "wordID": 82, "conditions": [24, 800, "a", 12000], "trial": 3, "serialpos": 23, "trial_type": "single-audio", "trial_index": 140, "time_elapsed": 5088630, "internal_node_id": "0.0-104.0"}}, {"uniqueid": "MTK0448:31LVTDXBL8H5DUUXS442EBDGCNJRLL", "current_trial": 141, "dateTime": 1510935476071, "trialdata": {"rt": -1, "stimulus": "", "key_press": -1, "type": "PRE_RECALL_DELAY", "trial_type": "single-stim", "trial_index": 141, "time_elapsed": 5089978, "internal_node_id": "0.0-105.0-0.0"}}, {"uniqueid": "MTK0448:31LVTDXBL8H5DUUXS442EBDGCNJRLL", "current_trial": 142, "dateTime": 1510935476571, "trialdata": {"rt": -1000, "stimulus": "/static/audio/400Hz.wav", "key_press": -1, "type": "PRE_RECALL_ALERT", "trial_type": "single-audio", "trial_index": 142, "time_elapsed": 5090478, "internal_node_id": "0.0-106.0"}}, {"uniqueid": "MTK0448:31LVTDXBL8H5DUUXS442EBDGCNJRLL", "current_trial": 143, "dateTime": 1510935536574, "trialdata": {"rt": [1478, 3510, 6487, 8534, 12103, 12855, 14630, 17687, 24646, 35110], "recwords": ["robber", "banker", "sculpture", "bank", "twig", "doner", "donor", "jury", "sculptor", "poet"], "type": "FREE_RECALL", "conditions": [24, 800, "a", 12000], "trial": 3, "trial_type": "free-recall", "trial_index": 143, "time_elapsed": 5150480, "internal_node_id": "0.0-107.0-0.0"}}, {"uniqueid": "MTK0448:31LVTDXBL8H5DUUXS442EBDGCNJRLL", "current_trial": 144, "dateTime": 1510935549763, "trialdata": {"rt": 11187, "key_press": 32, "type": "INSTRUCTIONS", "trial_type": "text", "trial_index": 144, "time_elapsed": 5163669, "internal_node_id": "0.0-108.0"}}, {"uniqueid": "MTK0448:31LVTDXBL8H5DUUXS442EBDGCNJRLL", "current_trial": 145, "dateTime": 1510935575767, "trialdata": {"rt": [2670, 5198, 7293, 10398, 12733, 14637, 17533, 19021, 21789], "responses": ["10", "16", "9", "14", "10", "6", "19", "12", "20"], "num1": [3, 5, 5, 9, 4, 3, 4, 6, 8, 8], "num2": [5, 3, 1, 2, 2, 1, 9, 5, 7, 3], "num3": [2, 8, 3, 3, 4, 2, 6, 1, 5, 2], "type": "DISTRACTOR", "conditions": [12, 1600, "v", 24000], "trial": 4, "trial_type": "math-distractor", "trial_index": 145, "time_elapsed": 5189674, "internal_node_id": "0.0-109.0"}}, {"uniqueid": "MTK0448:31LVTDXBL8H5DUUXS442EBDGCNJRLL", "current_trial": 146, "dateTime": 1510935578769, "trialdata": {"rt": -1, "stimulus": "<p id=\"stim\">10</p>", "key_press": -1, "trial_type": "single-stim", "trial_index": 146, "time_elapsed": 5192676, "internal_node_id": "0.0-110.0-0.0"}}, {"uniqueid": "MTK0448:31LVTDXBL8H5DUUXS442EBDGCNJRLL", "current_trial": 147, "dateTime": 1510935579771, "trialdata": {"rt": -1, "stimulus": "<p id=\"stim\">9</p>", "key_press": -1, "trial_type": "single-stim", "trial_index": 147, "time_elapsed": 5193678, "internal_node_id": "0.0-110.0-1.0"}}, {"uniqueid": "MTK0448:31LVTDXBL8H5DUUXS442EBDGCNJRLL", "current_trial": 148, "dateTime": 1510935580772, "trialdata": {"rt": -1, "stimulus": "<p id=\"stim\">8</p>", "key_press": -1, "trial_type": "single-stim", "trial_index": 148, "time_elapsed": 5194679, "internal_node_id": "0.0-110.0-2.0"}}, {"uniqueid": "MTK0448:31LVTDXBL8H5DUUXS442EBDGCNJRLL", "current_trial": 149, "dateTime": 1510935581773, "trialdata": {"rt": -1, "stimulus": "<p id=\"stim\">7</p>", "key_press": -1, "trial_type": "single-stim", "trial_index": 149, "time_elapsed": 5195680, "internal_node_id": "0.0-110.0-3.0"}}, {"uniqueid": "MTK0448:31LVTDXBL8H5DUUXS442EBDGCNJRLL", "current_trial": 150, "dateTime": 1510935582774, "trialdata": {"rt": -1, "stimulus": "<p id=\"stim\">6</p>", "key_press": -1, "trial_type": "single-stim", "trial_index": 150, "time_elapsed": 5196680, "internal_node_id": "0.0-110.0-4.0"}}, {"uniqueid": "MTK0448:31LVTDXBL8H5DUUXS442EBDGCNJRLL", "current_trial": 151, "dateTime": 1510935583775, "trialdata": {"rt": -1, "stimulus": "<p id=\"stim\">5</p>", "key_press": -1, "trial_type": "single-stim", "trial_index": 151, "time_elapsed": 5197682, "internal_node_id": "0.0-110.0-5.0"}}, {"uniqueid": "MTK0448:31LVTDXBL8H5DUUXS442EBDGCNJRLL", "current_trial": 152, "dateTime": 1510935584776, "trialdata": {"rt": -1, "stimulus": "<p id=\"stim\">4</p>", "key_press": -1, "trial_type": "single-stim", "trial_index": 152, "time_elapsed": 5198683, "internal_node_id": "0.0-110.0-6.0"}}, {"uniqueid": "MTK0448:31LVTDXBL8H5DUUXS442EBDGCNJRLL", "current_trial": 153, "dateTime": 1510935585778, "trialdata": {"rt": -1, "stimulus": "<p id=\"stim\">3</p>", "key_press": -1, "trial_type": "single-stim", "trial_index": 153, "time_elapsed": 5199684, "internal_node_id": "0.0-110.0-7.0"}}, {"uniqueid": "MTK0448:31LVTDXBL8H5DUUXS442EBDGCNJRLL", "current_trial": 154, "dateTime": 1510935586779, "trialdata": {"rt": -1, "stimulus": "<p id=\"stim\">2</p>", "key_press": -1, "trial_type": "single-stim", "trial_index": 154, "time_elapsed": 5200686, "internal_node_id": "0.0-110.0-8.0"}}, {"uniqueid": "MTK0448:31LVTDXBL8H5DUUXS442EBDGCNJRLL", "current_trial": 155, "dateTime": 1510935587780, "trialdata": {"rt": -1, "stimulus": "<p id=\"stim\">1</p>", "key_press": -1, "trial_type": "single-stim", "trial_index": 155, "time_elapsed": 5201687, "internal_node_id": "0.0-110.0-9.0"}}, {"uniqueid": "MTK0448:31LVTDXBL8H5DUUXS442EBDGCNJRLL", "current_trial": 156, "dateTime": 1510935589282, "trialdata": {"rt": -1, "stimulus": "<p id=\"stim\">+</p>", "key_press": -1, "type": "FIXATION", "trial_type": "single-stim", "trial_index": 156, "time_elapsed": 5203189, "internal_node_id": "0.0-111.0-0.0"}}, {"uniqueid": "MTK0448:31LVTDXBL8H5DUUXS442EBDGCNJRLL", "current_trial": 157, "dateTime": 1510935590883, "trialdata": {"rt": -1, "stimulus": "<p id=\"stim\">POSSUM</p>", "key_press": -1, "type": "PRES_VIS", "word": "possum", "wordID": 1111, "conditions": [12, 1600, "v", 24000], "trial": 4, "serialpos": 0, "trial_type": "single-stim", "trial_index": 157, "time_elapsed": 5204790, "internal_node_id": "0.0-112.0"}}, {"uniqueid": "MTK0448:31LVTDXBL8H5DUUXS442EBDGCNJRLL", "current_trial": 158, "dateTime": 1510935593370, "trialdata": {"rt": -1, "stimulus": "<p id=\"stim\">PANTHER</p>", "key_press": -1, "type": "PRES_VIS", "word": "panther", "wordID": 1008, "conditions": [12, 1600, "v", 24000], "trial": 4, "serialpos": 1, "trial_type": "single-stim", "trial_index": 158, "time_elapsed": 5207276, "internal_node_id": "0.0-113.0"}}, {"uniqueid": "MTK0448:31LVTDXBL8H5DUUXS442EBDGCNJRLL", "current_trial": 159, "dateTime": 1510935596013, "trialdata": {"rt": -1, "stimulus": "<p id=\"stim\">THIEF</p>", "key_press": -1, "type": "PRES_VIS", "word": "thief", "wordID": 1455, "conditions": [12, 1600, "v", 24000], "trial": 4, "serialpos": 2, "trial_type": "single-stim", "trial_index": 159, "time_elapsed": 5209920, "internal_node_id": "0.0-114.0"}}, {"uniqueid": "MTK0448:31LVTDXBL8H5DUUXS442EBDGCNJRLL", "current_trial": 160, "dateTime": 1510935598459, "trialdata": {"rt": -1, "stimulus": "<p id=\"stim\">WIDOW</p>", "key_press": -1, "type": "PRES_VIS", "word": "widow", "wordID": 1607, "conditions": [12, 1600, "v", 24000], "trial": 4, "serialpos": 3, "trial_type": "single-stim", "trial_index": 160, "time_elapsed": 5212366, "internal_node_id": "0.0-115.0"}}, {"uniqueid": "MTK0448:31LVTDXBL8H5DUUXS442EBDGCNJRLL", "current_trial": 161, "dateTime": 1510935601164, "trialdata": {"rt": -1, "stimulus": "<p id=\"stim\">JUGGLER</p>", "key_press": -1, "type": "PRES_VIS", "word": "juggler", "wordID": 762, "conditions": [12, 1600, "v", 24000], "trial": 4, "serialpos": 4, "trial_type": "single-stim", "trial_index": 161, "time_elapsed": 5215071, "internal_node_id": "0.0-116.0"}}, {"uniqueid": "MTK0448:31LVTDXBL8H5DUUXS442EBDGCNJRLL", "current_trial": 162, "dateTime": 1510935603834, "trialdata": {"rt": -1, "stimulus": "<p id=\"stim\">CLOCK</p>", "key_press": -1, "type": "PRES_VIS", "word": "clock", "wordID": 324, "conditions": [12, 1600, "v", 24000], "trial": 4, "serialpos": 5, "trial_type": "single-stim", "trial_index": 162, "time_elapsed": 5217741, "internal_node_id": "0.0-117.0"}}, {"uniqueid": "MTK0448:31LVTDXBL8H5DUUXS442EBDGCNJRLL", "current_trial": 163, "dateTime": 1510935606565, "trialdata": {"rt": -1, "stimulus": "<p id=\"stim\">SUITCASE</p>", "key_press": -1, "type": "PRES_VIS", "word": "suitcase", "wordID": 1402, "conditions": [12, 1600, "v", 24000], "trial": 4, "serialpos": 6, "trial_type": "single-stim", "trial_index": 163, "time_elapsed": 5220472, "internal_node_id": "0.0-118.0"}}, {"uniqueid": "MTK0448:31LVTDXBL8H5DUUXS442EBDGCNJRLL", "current_trial": 164, "dateTime": 1510935609233, "trialdata": {"rt": -1, "stimulus": "<p id=\"stim\">VAGRANT</p>", "key_press": -1, "type": "PRES_VIS", "word": "vagrant", "wordID": 1543, "conditions": [12, 1600, "v", 24000], "trial": 4, "serialpos": 7, "trial_type": "single-stim", "trial_index": 164, "time_elapsed": 5223140, "internal_node_id": "0.0-119.0"}}, {"uniqueid": "MTK0448:31LVTDXBL8H5DUUXS442EBDGCNJRLL", "current_trial": 165, "dateTime": 1510935611906, "trialdata": {"rt": -1, "stimulus": "<p id=\"stim\">TOMBSTONE</p>", "key_press": -1, "type": "PRES_VIS", "word": "tombstone", "wordID": 1477, "conditions": [12, 1600, "v", 24000], "trial": 4, "serialpos": 8, "trial_type": "single-stim", "trial_index": 165, "time_elapsed": 5225813, "internal_node_id": "0.0-120.0"}}, {"uniqueid": "MTK0448:31LVTDXBL8H5DUUXS442EBDGCNJRLL", "current_trial": 166, "dateTime": 1510935614399, "trialdata": {"rt": -1, "stimulus": "<p id=\"stim\">SEAGULL</p>", "key_press": -1, "type": "PRES_VIS", "word": "seagull", "wordID": 1260, "conditions": [12, 1600, "v", 24000], "trial": 4, "serialpos": 9, "trial_type": "single-stim", "trial_index": 166, "time_elapsed": 5228306, "internal_node_id": "0.0-121.0"}}, {"uniqueid": "MTK0448:31LVTDXBL8H5DUUXS442EBDGCNJRLL", "current_trial": 167, "dateTime": 1510935616868, "trialdata": {"rt": -1, "stimulus": "<p id=\"stim\">LUGGAGE</p>", "key_press": -1, "type": "PRES_VIS", "word": "luggage", "wordID": 846, "conditions": [12, 1600, "v", 24000], "trial": 4, "serialpos": 10, "trial_type": "single-stim", "trial_index": 167, "time_elapsed": 5230775, "internal_node_id": "0.0-122.0"}}, {"uniqueid": "MTK0448:31LVTDXBL8H5DUUXS442EBDGCNJRLL", "current_trial": 168, "dateTime": 1510935619314, "trialdata": {"rt": -1, "stimulus": "<p id=\"stim\">BUG</p>", "key_press": -1, "type": "PRES_VIS", "word": "bug", "wordID": 186, "conditions": [12, 1600, "v", 24000], "trial": 4, "serialpos": 11, "trial_type": "single-stim", "trial_index": 168, "time_elapsed": 5233221, "internal_node_id": "0.0-123.0"}}, {"uniqueid": "MTK0448:31LVTDXBL8H5DUUXS442EBDGCNJRLL", "current_trial": 169, "dateTime": 1510935621651, "trialdata": {"rt": -1, "stimulus": "", "key_press": -1, "type": "PRE_RECALL_DELAY", "trial_type": "single-stim", "trial_index": 169, "time_elapsed": 5235558, "internal_node_id": "0.0-124.0-0.0"}}, {"uniqueid": "MTK0448:31LVTDXBL8H5DUUXS442EBDGCNJRLL", "current_trial": 170, "dateTime": 1510935622151, "trialdata": {"rt": -1000, "stimulus": "/static/audio/400Hz.wav", "key_press": -1, "type": "PRE_RECALL_ALERT", "trial_type": "single-audio", "trial_index": 170, "time_elapsed": 5236058, "internal_node_id": "0.0-125.0"}}, {"uniqueid": "MTK0448:31LVTDXBL8H5DUUXS442EBDGCNJRLL", "current_trial": 171, "dateTime": 1510935682156, "trialdata": {"rt": [2267, 5307, 8076, 10139, 15019, 22731], "recwords": ["thief", "luggage", "seagull", "thief", "robber", "possum"], "type": "FREE_RECALL", "conditions": [12, 1600, "v", 24000], "trial": 4, "trial_type": "free-recall", "trial_index": 171, "time_elapsed": 5296062, "internal_node_id": "0.0-126.0-0.0"}}, {"uniqueid": "MTK0448:31LVTDXBL8H5DUUXS442EBDGCNJRLL", "current_trial": 172, "dateTime": 1510935685956, "trialdata": {"rt": 1797, "key_press": 32, "type": "INSTRUCTIONS", "trial_type": "text", "trial_index": 172, "time_elapsed": 5299863, "internal_node_id": "0.0-127.0"}}, {"uniqueid": "MTK0448:31LVTDXBL8H5DUUXS442EBDGCNJRLL", "current_trial": 173, "dateTime": 1510935711959, "trialdata": {"rt": [3213, 5438, 7742, 9693, 11742, 14029, 16206, 22349], "responses": ["9", "14", "18", "15", "16", "17", "14", "22"], "num1": [2, 2, 2, 8, 4, 4, 2, 8, 3], "num2": [6, 7, 9, 4, 9, 4, 8, 9, 6], "num3": [1, 5, 7, 3, 3, 9, 4, 5, 3], "type": "DISTRACTOR", "conditions": [24, 800, "a", 24000], "trial": 5, "trial_type": "math-distractor", "trial_index": 173, "time_elapsed": 5325866, "internal_node_id": "0.0-128.0"}}, {"uniqueid": "MTK0448:31LVTDXBL8H5DUUXS442EBDGCNJRLL", "current_trial": 174, "dateTime": 1510935714960, "trialdata": {"rt": -1, "stimulus": "<p id=\"stim\">10</p>", "key_press": -1, "trial_type": "single-stim", "trial_index": 174, "time_elapsed": 5328867, "internal_node_id": "0.0-129.0-0.0"}}, {"uniqueid": "MTK0448:31LVTDXBL8H5DUUXS442EBDGCNJRLL", "current_trial": 175, "dateTime": 1510935715961, "trialdata": {"rt": -1, "stimulus": "<p id=\"stim\">9</p>", "key_press": -1, "trial_type": "single-stim", "trial_index": 175, "time_elapsed": 5329868, "internal_node_id": "0.0-129.0-1.0"}}, {"uniqueid": "MTK0448:31LVTDXBL8H5DUUXS442EBDGCNJRLL", "current_trial": 176, "dateTime": 1510935716963, "trialdata": {"rt": -1, "stimulus": "<p id=\"stim\">8</p>", "key_press": -1, "trial_type": "single-stim", "trial_index": 176, "time_elapsed": 5330870, "internal_node_id": "0.0-129.0-2.0"}}, {"uniqueid": "MTK0448:31LVTDXBL8H5DUUXS442EBDGCNJRLL", "current_trial": 177, "dateTime": 1510935717963, "trialdata": {"rt": -1, "stimulus": "<p id=\"stim\">7</p>", "key_press": -1, "trial_type": "single-stim", "trial_index": 177, "time_elapsed": 5331870, "internal_node_id": "0.0-129.0-3.0"}}, {"uniqueid": "MTK0448:31LVTDXBL8H5DUUXS442EBDGCNJRLL", "current_trial": 178, "dateTime": 1510935718964, "trialdata": {"rt": -1, "stimulus": "<p id=\"stim\">6</p>", "key_press": -1, "trial_type": "single-stim", "trial_index": 178, "time_elapsed": 5332871, "internal_node_id": "0.0-129.0-4.0"}}, {"uniqueid": "MTK0448:31LVTDXBL8H5DUUXS442EBDGCNJRLL", "current_trial": 179, "dateTime": 1510935719966, "trialdata": {"rt": -1, "stimulus": "<p id=\"stim\">5</p>", "key_press": -1, "trial_type": "single-stim", "trial_index": 179, "time_elapsed": 5333872, "internal_node_id": "0.0-129.0-5.0"}}, {"uniqueid": "MTK0448:31LVTDXBL8H5DUUXS442EBDGCNJRLL", "current_trial": 180, "dateTime": 1510935720967, "trialdata": {"rt": -1, "stimulus": "<p id=\"stim\">4</p>", "key_press": -1, "trial_type": "single-stim", "trial_index": 180, "time_elapsed": 5334874, "internal_node_id": "0.0-129.0-6.0"}}, {"uniqueid": "MTK0448:31LVTDXBL8H5DUUXS442EBDGCNJRLL", "current_trial": 181, "dateTime": 1510935721968, "trialdata": {"rt": -1, "stimulus": "<p id=\"stim\">3</p>", "key_press": -1, "trial_type": "single-stim", "trial_index": 181, "time_elapsed": 5335874, "internal_node_id": "0.0-129.0-7.0"}}, {"uniqueid": "MTK0448:31LVTDXBL8H5DUUXS442EBDGCNJRLL", "current_trial": 182, "dateTime": 1510935722968, "trialdata": {"rt": -1, "stimulus": "<p id=\"stim\">2</p>", "key_press": -1, "trial_type": "single-stim", "trial_index": 182, "time_elapsed": 5336875, "internal_node_id": "0.0-129.0-8.0"}}, {"uniqueid": "MTK0448:31LVTDXBL8H5DUUXS442EBDGCNJRLL", "current_trial": 183, "dateTime": 1510935723970, "trialdata": {"rt": -1, "stimulus": "<p id=\"stim\">1</p>", "key_press": -1, "trial_type": "single-stim", "trial_index": 183, "time_elapsed": 5337876, "internal_node_id": "0.0-129.0-9.0"}}, {"uniqueid": "MTK0448:31LVTDXBL8H5DUUXS442EBDGCNJRLL", "current_trial": 184, "dateTime": 1510935725471, "trialdata": {"rt": -1, "stimulus": "<p id=\"stim\">+</p>", "key_press": -1, "type": "FIXATION", "trial_type": "single-stim", "trial_index": 184, "time_elapsed": 5339377, "internal_node_id": "0.0-130.0-0.0"}}, {"uniqueid": "MTK0448:31LVTDXBL8H5DUUXS442EBDGCNJRLL", "current_trial": 185, "dateTime": 1510935727123, "trialdata": {"rt": -1000, "stimulus": "/static/audio/wordpool/FREEZER.wav", "key_press": -1, "type": "PRES_AUD", "word": "freezer", "wordID": 603, "conditions": [24, 800, "a", 24000], "trial": 5, "serialpos": 0, "trial_type": "single-audio", "trial_index": 185, "time_elapsed": 5341030, "internal_node_id": "0.0-131.0"}}, {"uniqueid": "MTK0448:31LVTDXBL8H5DUUXS442EBDGCNJRLL", "current_trial": 186, "dateTime": 1510935728946, "trialdata": {"rt": -1000, "stimulus": "/static/audio/wordpool/LIVER.wav", "key_press": -1, "type": "PRES_AUD", "word": "liver", "wordID": 832, "conditions": [24, 800, "a", 24000], "trial": 5, "serialpos": 1, "trial_type": "single-audio", "trial_index": 186, "time_elapsed": 5342853, "internal_node_id": "0.0-132.0"}}, {"uniqueid": "MTK0448:31LVTDXBL8H5DUUXS442EBDGCNJRLL", "current_trial": 187, "dateTime": 1510935730805, "trialdata": {"rt": -1000, "stimulus": "/static/audio/wordpool/PASSAGE.wav", "key_press": -1, "type": "PRES_AUD", "word": "passage", "wordID": 1018, "conditions": [24, 800, "a", 24000], "trial": 5, "serialpos": 2, "trial_type": "single-audio", "trial_index": 187, "time_elapsed": 5344712, "internal_node_id": "0.0-133.0"}}, {"uniqueid": "MTK0448:31LVTDXBL8H5DUUXS442EBDGCNJRLL", "current_trial": 188, "dateTime": 1510935732726, "trialdata": {"rt": -1000, "stimulus": "/static/audio/wordpool/CLOUD.wav", "key_press": -1, "type": "PRES_AUD", "word": "cloud", "wordID": 327, "conditions": [24, 800, "a", 24000], "trial": 5, "serialpos": 3, "trial_type": "single-audio", "trial_index": 188, "time_elapsed": 5346633, "internal_node_id": "0.0-134.0"}}, {"uniqueid": "MTK0448:31LVTDXBL8H5DUUXS442EBDGCNJRLL", "current_trial": 189, "dateTime": 1510935734423, "trialdata": {"rt": -1000, "stimulus": "/static/audio/wordpool/TURNIP.wav", "key_press": -1, "type": "PRES_AUD", "word": "turnip", "wordID": 1520, "conditions": [24, 800, "a", 24000], "trial": 5, "serialpos": 4, "trial_type": "single-audio", "trial_index": 189, "time_elapsed": 5348330, "internal_node_id": "0.0-135.0"}}, {"uniqueid": "MTK0448:31LVTDXBL8H5DUUXS442EBDGCNJRLL", "current_trial": 190, "dateTime": 1510935736237, "trialdata": {"rt": -1000, "stimulus": "/static/audio/wordpool/LONDON.wav", "key_press": -1, "type": "PRES_AUD", "word": "london", "wordID": 842, "conditions": [24, 800, "a", 24000], "trial": 5, "serialpos": 5, "trial_type": "single-audio", "trial_index": 190, "time_elapsed": 5350144, "internal_node_id": "0.0-136.0"}}, {"uniqueid": "MTK0448:31LVTDXBL8H5DUUXS442EBDGCNJRLL", "current_trial": 191, "dateTime": 1510935738047, "trialdata": {"rt": -1000, "stimulus": "/static/audio/wordpool/PORK.wav", "key_press": -1, "type": "PRES_AUD", "word": "pork", "wordID": 1107, "conditions": [24, 800, "a", 24000], "trial": 5, "serialpos": 6, "trial_type": "single-audio", "trial_index": 191, "time_elapsed": 5351954, "internal_node_id": "0.0-137.0"}}, {"uniqueid": "MTK0448:31LVTDXBL8H5DUUXS442EBDGCNJRLL", "current_trial": 192, "dateTime": 1510935739826, "trialdata": {"rt": -1000, "stimulus": "/static/audio/wordpool/JELLY.wav", "key_press": -1, "type": "PRES_AUD", "word": "jelly", "wordID": 754, "conditions": [24, 800, "a", 24000], "trial": 5, "serialpos": 7, "trial_type": "single-audio", "trial_index": 192, "time_elapsed": 5353733, "internal_node_id": "0.0-138.0"}}, {"uniqueid": "MTK0448:31LVTDXBL8H5DUUXS442EBDGCNJRLL", "current_trial": 193, "dateTime": 1510935741440, "trialdata": {"rt": -1000, "stimulus": "/static/audio/wordpool/JELLO.wav", "key_press": -1, "type": "PRES_AUD", "word": "jello", "wordID": 753, "conditions": [24, 800, "a", 24000], "trial": 5, "serialpos": 8, "trial_type": "single-audio", "trial_index": 193, "time_elapsed": 5355347, "internal_node_id": "0.0-139.0"}}, {"uniqueid": "MTK0448:31LVTDXBL8H5DUUXS442EBDGCNJRLL", "current_trial": 194, "dateTime": 1510935743219, "trialdata": {"rt": -1000, "stimulus": "/static/audio/wordpool/BEEF.wav", "key_press": -1, "type": "PRES_AUD", "word": "beef", "wordID": 112, "conditions": [24, 800, "a", 24000], "trial": 5, "serialpos": 9, "trial_type": "single-audio", "trial_index": 194, "time_elapsed": 5357126, "internal_node_id": "0.0-140.0"}}, {"uniqueid": "MTK0448:31LVTDXBL8H5DUUXS442EBDGCNJRLL", "current_trial": 195, "dateTime": 1510935744992, "trialdata": {"rt": -1000, "stimulus": "/static/audio/wordpool/SURVEY.wav", "key_press": -1, "type": "PRES_AUD", "word": "survey", "wordID": 1413, "conditions": [24, 800, "a", 24000], "trial": 5, "serialpos": 10, "trial_type": "single-audio", "trial_index": 195, "time_elapsed": 5358899, "internal_node_id": "0.0-141.0"}}, {"uniqueid": "MTK0448:31LVTDXBL8H5DUUXS442EBDGCNJRLL", "current_trial": 196, "dateTime": 1510935746938, "trialdata": {"rt": -1000, "stimulus": "/static/audio/wordpool/JOURNAL.wav", "key_press": -1, "type": "PRES_AUD", "word": "journal", "wordID": 759, "conditions": [24, 800, "a", 24000], "trial": 5, "serialpos": 11, "trial_type": "single-audio", "trial_index": 196, "time_elapsed": 5360845, "internal_node_id": "0.0-142.0"}}, {"uniqueid": "MTK0448:31LVTDXBL8H5DUUXS442EBDGCNJRLL", "current_trial": 197, "dateTime": 1510935748920, "trialdata": {"rt": -1000, "stimulus": "/static/audio/wordpool/CAMEL.wav", "key_press": -1, "type": "PRES_AUD", "word": "camel", "wordID": 222, "conditions": [24, 800, "a", 24000], "trial": 5, "serialpos": 12, "trial_type": "single-audio", "trial_index": 197, "time_elapsed": 5362827, "internal_node_id": "0.0-143.0"}}, {"uniqueid": "MTK0448:31LVTDXBL8H5DUUXS442EBDGCNJRLL", "current_trial": 198, "dateTime": 1510935750649, "trialdata": {"rt": -1000, "stimulus": "/static/audio/wordpool/HEDGE.wav", "key_press": -1, "type": "PRES_AUD", "word": "hedge", "wordID": 698, "conditions": [24, 800, "a", 24000], "trial": 5, "serialpos": 13, "trial_type": "single-audio", "trial_index": 198, "time_elapsed": 5364556, "internal_node_id": "0.0-144.0"}}, {"uniqueid": "MTK0448:31LVTDXBL8H5DUUXS442EBDGCNJRLL", "current_trial": 199, "dateTime": 1510935752363, "trialdata": {"rt": -1000, "stimulus": "/static/audio/wordpool/TRUCK.wav", "key_press": -1, "type": "PRES_AUD", "word": "truck", "wordID": 1511, "conditions": [24, 800, "a", 24000], "trial": 5, "serialpos": 14, "trial_type": "single-audio", "trial_index": 199, "time_elapsed": 5366270, "internal_node_id": "0.0-145.0"}}, {"uniqueid": "MTK0448:31LVTDXBL8H5DUUXS442EBDGCNJRLL", "current_trial": 200, "dateTime": 1510935754018, "trialdata": {"rt": -1000, "stimulus": "/static/audio/wordpool/TRACTOR.wav", "key_press": -1, "type": "PRES_AUD", "word": "tractor", "wordID": 1492, "conditions": [24, 800, "a", 24000], "trial": 5, "serialpos": 15, "trial_type": "single-audio", "trial_index": 200, "time_elapsed": 5367925, "internal_node_id": "0.0-146.0"}}, {"uniqueid": "MTK0448:31LVTDXBL8H5DUUXS442EBDGCNJRLL", "current_trial": 201, "dateTime": 1510935755765, "trialdata": {"rt": -1000, "stimulus": "/static/audio/wordpool/AUTHOR.wav", "key_press": -1, "type": "PRES_AUD", "word": "author", "wordID": 60, "conditions": [24, 800, "a", 24000], "trial": 5, "serialpos": 16, "trial_type": "single-audio", "trial_index": 201, "time_elapsed": 5369672, "internal_node_id": "0.0-147.0"}}, {"uniqueid": "MTK0448:31LVTDXBL8H5DUUXS442EBDGCNJRLL", "current_trial": 202, "dateTime": 1510935757648, "trialdata": {"rt": -1000, "stimulus": "/static/audio/wordpool/BOYFRIEND.wav", "key_press": -1, "type": "PRES_AUD", "word": "boyfriend", "wordID": 161, "conditions": [24, 800, "a", 24000], "trial": 5, "serialpos": 17, "trial_type": "single-audio", "trial_index": 202, "time_elapsed": 5371555, "internal_node_id": "0.0-148.0"}}, {"uniqueid": "MTK0448:31LVTDXBL8H5DUUXS442EBDGCNJRLL", "current_trial": 203, "dateTime": 1510935759628, "trialdata": {"rt": -1000, "stimulus": "/static/audio/wordpool/DRIVER.wav", "key_press": -1, "type": "PRES_AUD", "word": "driver", "wordID": 498, "conditions": [24, 800, "a", 24000], "trial": 5, "serialpos": 18, "trial_type": "single-audio", "trial_index": 203, "time_elapsed": 5373535, "internal_node_id": "0.0-149.0"}}, {"uniqueid": "MTK0448:31LVTDXBL8H5DUUXS442EBDGCNJRLL", "current_trial": 204, "dateTime": 1510935761241, "trialdata": {"rt": -1000, "stimulus": "/static/audio/wordpool/DONKEY.wav", "key_press": -1, "type": "PRES_AUD", "word": "donkey", "wordID": 483, "conditions": [24, 800, "a", 24000], "trial": 5, "serialpos": 19, "trial_type": "single-audio", "trial_index": 204, "time_elapsed": 5375148, "internal_node_id": "0.0-150.0"}}, {"uniqueid": "MTK0448:31LVTDXBL8H5DUUXS442EBDGCNJRLL", "current_trial": 205, "dateTime": 1510935763215, "trialdata": {"rt": -1000, "stimulus": "/static/audio/wordpool/FIREPLACE.wav", "key_press": -1, "type": "PRES_AUD", "word": "fireplace", "wordID": 569, "conditions": [24, 800, "a", 24000], "trial": 5, "serialpos": 20, "trial_type": "single-audio", "trial_index": 205, "time_elapsed": 5377122, "internal_node_id": "0.0-151.0"}}, {"uniqueid": "MTK0448:31LVTDXBL8H5DUUXS442EBDGCNJRLL", "current_trial": 206, "dateTime": 1510935765214, "trialdata": {"rt": -1000, "stimulus": "/static/audio/wordpool/BEAKER.wav", "key_press": -1, "type": "PRES_AUD", "word": "beaker", "wordID": 103, "conditions": [24, 800, "a", 24000], "trial": 5, "serialpos": 21, "trial_type": "single-audio", "trial_index": 206, "time_elapsed": 5379121, "internal_node_id": "0.0-152.0"}}, {"uniqueid": "MTK0448:31LVTDXBL8H5DUUXS442EBDGCNJRLL", "current_trial": 207, "dateTime": 1510935766925, "trialdata": {"rt": -1000, "stimulus": "/static/audio/wordpool/SIDEWALK.wav", "key_press": -1, "type": "PRES_AUD", "word": "sidewalk", "wordID": 1302, "conditions": [24, 800, "a", 24000], "trial": 5, "serialpos": 22, "trial_type": "single-audio", "trial_index": 207, "time_elapsed": 5380832, "internal_node_id": "0.0-153.0"}}, {"uniqueid": "MTK0448:31LVTDXBL8H5DUUXS442EBDGCNJRLL", "current_trial": 208, "dateTime": 1510935768726, "trialdata": {"rt": -1000, "stimulus": "/static/audio/wordpool/WINDOW.wav", "key_press": -1, "type": "PRES_AUD", "word": "window", "wordID": 1610, "conditions": [24, 800, "a", 24000], "trial": 5, "serialpos": 23, "trial_type": "single-audio", "trial_index": 208, "time_elapsed": 5382633, "internal_node_id": "0.0-154.0"}}, {"uniqueid": "MTK0448:31LVTDXBL8H5DUUXS442EBDGCNJRLL", "current_trial": 209, "dateTime": 1510935770043, "trialdata": {"rt": -1, "stimulus": "", "key_press": -1, "type": "PRE_RECALL_DELAY", "trial_type": "single-stim", "trial_index": 209, "time_elapsed": 5383950, "internal_node_id": "0.0-155.0-0.0"}}, {"uniqueid": "MTK0448:31LVTDXBL8H5DUUXS442EBDGCNJRLL", "current_trial": 210, "dateTime": 1510935770543, "trialdata": {"rt": -1000, "stimulus": "/static/audio/400Hz.wav", "key_press": -1, "type": "PRE_RECALL_ALERT", "trial_type": "single-audio", "trial_index": 210, "time_elapsed": 5384450, "internal_node_id": "0.0-156.0"}}, {"uniqueid": "MTK0448:31LVTDXBL8H5DUUXS442EBDGCNJRLL", "current_trial": 211, "dateTime": 1510935830548, "trialdata": {"rt": [2130, 3938, 5346, 8435, 11090, 12450, 13730, 19378, 25618, 34210], "recwords": ["window", "boyfriend", "sidewalk", "window", "beef", "jello", "jelly", "beaker", "boyfriend", "window"], "type": "FREE_RECALL", "conditions": [24, 800, "a", 24000], "trial": 5, "trial_type": "free-recall", "trial_index": 211, "time_elapsed": 5444453, "internal_node_id": "0.0-157.0-0.0"}}, {"uniqueid": "MTK0448:31LVTDXBL8H5DUUXS442EBDGCNJRLL", "current_trial": 212, "dateTime": 1510935833508, "trialdata": {"rt": 958, "key_press": 32, "type": "INSTRUCTIONS", "trial_type": "text", "trial_index": 212, "time_elapsed": 5447415, "internal_node_id": "0.0-158.0"}}, {"uniqueid": "MTK0448:31LVTDXBL8H5DUUXS442EBDGCNJRLL", "current_trial": 213, "dateTime": 1510935859511, "trialdata": {"rt": [2253, 4766, 6525, 8318, 10541, 12173, 14413, 23405], "responses": ["6", "15", "18", "13", "16", "12", "14", "21"], "num1": [2, 2, 6, 3, 6, 4, 3, 5, 6], "num2": [3, 9, 3, 2, 8, 4, 9, 8, 7], "num3": [1, 4, 9, 8, 2, 3, 2, 9, 2], "type": "DISTRACTOR", "conditions": [12, 800, "a", 24000], "trial": 6, "trial_type": "math-distractor", "trial_index": 213, "time_elapsed": 5473418, "internal_node_id": "0.0-159.0"}}, {"uniqueid": "MTK0448:31LVTDXBL8H5DUUXS442EBDGCNJRLL", "current_trial": 214, "dateTime": 1510935862513, "trialdata": {"rt": -1, "stimulus": "<p id=\"stim\">10</p>", "key_press": -1, "trial_type": "single-stim", "trial_index": 214, "time_elapsed": 5476420, "internal_node_id": "0.0-160.0-0.0"}}, {"uniqueid": "MTK0448:31LVTDXBL8H5DUUXS442EBDGCNJRLL", "current_trial": 215, "dateTime": 1510935863514, "trialdata": {"rt": -1, "stimulus": "<p id=\"stim\">9</p>", "key_press": -1, "trial_type": "single-stim", "trial_index": 215, "time_elapsed": 5477420, "internal_node_id": "0.0-160.0-1.0"}}, {"uniqueid": "MTK0448:31LVTDXBL8H5DUUXS442EBDGCNJRLL", "current_trial": 216, "dateTime": 1510935864514, "trialdata": {"rt": -1, "stimulus": "<p id=\"stim\">8</p>", "key_press": -1, "trial_type": "single-stim", "trial_index": 216, "time_elapsed": 5478421, "internal_node_id": "0.0-160.0-2.0"}}, {"uniqueid": "MTK0448:31LVTDXBL8H5DUUXS442EBDGCNJRLL", "current_trial": 217, "dateTime": 1510935865515, "trialdata": {"rt": -1, "stimulus": "<p id=\"stim\">7</p>", "key_press": -1, "trial_type": "single-stim", "trial_index": 217, "time_elapsed": 5479422, "internal_node_id": "0.0-160.0-3.0"}}, {"uniqueid": "MTK0448:31LVTDXBL8H5DUUXS442EBDGCNJRLL", "current_trial": 218, "dateTime": 1510935866516, "trialdata": {"rt": -1, "stimulus": "<p id=\"stim\">6</p>", "key_press": -1, "trial_type": "single-stim", "trial_index": 218, "time_elapsed": 5480423, "internal_node_id": "0.0-160.0-4.0"}}, {"uniqueid": "MTK0448:31LVTDXBL8H5DUUXS442EBDGCNJRLL", "current_trial": 219, "dateTime": 1510935867517, "trialdata": {"rt": -1, "stimulus": "<p id=\"stim\">5</p>", "key_press": -1, "trial_type": "single-stim", "trial_index": 219, "time_elapsed": 5481424, "internal_node_id": "0.0-160.0-5.0"}}, {"uniqueid": "MTK0448:31LVTDXBL8H5DUUXS442EBDGCNJRLL", "current_trial": 220, "dateTime": 1510935868519, "trialdata": {"rt": -1, "stimulus": "<p id=\"stim\">4</p>", "key_press": -1, "trial_type": "single-stim", "trial_index": 220, "time_elapsed": 5482425, "internal_node_id": "0.0-160.0-6.0"}}, {"uniqueid": "MTK0448:31LVTDXBL8H5DUUXS442EBDGCNJRLL", "current_trial": 221, "dateTime": 1510935869520, "trialdata": {"rt": -1, "stimulus": "<p id=\"stim\">3</p>", "key_press": -1, "trial_type": "single-stim", "trial_index": 221, "time_elapsed": 5483427, "internal_node_id": "0.0-160.0-7.0"}}, {"uniqueid": "MTK0448:31LVTDXBL8H5DUUXS442EBDGCNJRLL", "current_trial": 222, "dateTime": 1510935870521, "trialdata": {"rt": -1, "stimulus": "<p id=\"stim\">2</p>", "key_press": -1, "trial_type": "single-stim", "trial_index": 222, "time_elapsed": 5484428, "internal_node_id": "0.0-160.0-8.0"}}, {"uniqueid": "MTK0448:31LVTDXBL8H5DUUXS442EBDGCNJRLL", "current_trial": 223, "dateTime": 1510935871522, "trialdata": {"rt": -1, "stimulus": "<p id=\"stim\">1</p>", "key_press": -1, "trial_type": "single-stim", "trial_index": 223, "time_elapsed": 5485429, "internal_node_id": "0.0-160.0-9.0"}}, {"uniqueid": "MTK0448:31LVTDXBL8H5DUUXS442EBDGCNJRLL", "current_trial": 224, "dateTime": 1510935873023, "trialdata": {"rt": -1, "stimulus": "<p id=\"stim\">+</p>", "key_press": -1, "type": "FIXATION", "trial_type": "single-stim", "trial_index": 224, "time_elapsed": 5486930, "internal_node_id": "0.0-161.0-0.0"}}, {"uniqueid": "MTK0448:31LVTDXBL8H5DUUXS442EBDGCNJRLL", "current_trial": 225, "dateTime": 1510935874773, "trialdata": {"rt": -1000, "stimulus": "/static/audio/wordpool/BADGE.wav", "key_press": -1, "type": "PRES_AUD", "word": "badge", "wordID": 67, "conditions": [12, 800, "a", 24000], "trial": 6, "serialpos": 0, "trial_type": "single-audio", "trial_index": 225, "time_elapsed": 5488680, "internal_node_id": "0.0-162.0"}}, {"uniqueid": "MTK0448:31LVTDXBL8H5DUUXS442EBDGCNJRLL", "current_trial": 226, "dateTime": 1510935876469, "trialdata": {"rt": -1000, "stimulus": "/static/audio/wordpool/SPOUSE.wav", "key_press": -1, "type": "PRES_AUD", "word": "spouse", "wordID": 1357, "conditions": [12, 800, "a", 24000], "trial": 6, "serialpos": 1, "trial_type": "single-audio", "trial_index": 226, "time_elapsed": 5490376, "internal_node_id": "0.0-163.0"}}, {"uniqueid": "MTK0448:31LVTDXBL8H5DUUXS442EBDGCNJRLL", "current_trial": 227, "dateTime": 1510935878356, "trialdata": {"rt": -1000, "stimulus": "/static/audio/wordpool/WIFE.wav", "key_press": -1, "type": "PRES_AUD", "word": "wife", "wordID": 1608, "conditions": [12, 800, "a", 24000], "trial": 6, "serialpos": 2, "trial_type": "single-audio", "trial_index": 227, "time_elapsed": 5492263, "internal_node_id": "0.0-164.0"}}, {"uniqueid": "MTK0448:31LVTDXBL8H5DUUXS442EBDGCNJRLL", "current_trial": 228, "dateTime": 1510935880125, "trialdata": {"rt": -1000, "stimulus": "/static/audio/wordpool/APPLE.wav", "key_press": -1, "type": "PRES_AUD", "word": "apple", "wordID": 32, "conditions": [12, 800, "a", 24000], "trial": 6, "serialpos": 3, "trial_type": "single-audio", "trial_index": 228, "time_elapsed": 5494032, "internal_node_id": "0.0-165.0"}}, {"uniqueid": "MTK0448:31LVTDXBL8H5DUUXS442EBDGCNJRLL", "current_trial": 229, "dateTime": 1510935881858, "trialdata": {"rt": -1000, "stimulus": "/static/audio/wordpool/NOVEL.wav", "key_press": -1, "type": "PRES_AUD", "word": "novel", "wordID": 959, "conditions": [12, 800, "a", 24000], "trial": 6, "serialpos": 4, "trial_type": "single-audio", "trial_index": 229, "time_elapsed": 5495765, "internal_node_id": "0.0-166.0"}}, {"uniqueid": "MTK0448:31LVTDXBL8H5DUUXS442EBDGCNJRLL", "current_trial": 230, "dateTime": 1510935883651, "trialdata": {"rt": -1000, "stimulus": "/static/audio/wordpool/PIMPLE.wav", "key_press": -1, "type": "PRES_AUD", "word": "pimple", "wordID": 1070, "conditions": [12, 800, "a", 24000], "trial": 6, "serialpos": 5, "trial_type": "single-audio", "trial_index": 230, "time_elapsed": 5497558, "internal_node_id": "0.0-167.0"}}, {"uniqueid": "MTK0448:31LVTDXBL8H5DUUXS442EBDGCNJRLL", "current_trial": 231, "dateTime": 1510935885262, "trialdata": {"rt": -1000, "stimulus": "/static/audio/wordpool/FARMER.wav", "key_press": -1, "type": "PRES_AUD", "word": "farmer", "wordID": 552, "conditions": [12, 800, "a", 24000], "trial": 6, "serialpos": 6, "trial_type": "single-audio", "trial_index": 231, "time_elapsed": 5499169, "internal_node_id": "0.0-168.0"}}, {"uniqueid": "MTK0448:31LVTDXBL8H5DUUXS442EBDGCNJRLL", "current_trial": 232, "dateTime": 1510935887029, "trialdata": {"rt": -1000, "stimulus": "/static/audio/wordpool/PILOT.wav", "key_press": -1, "type": "PRES_AUD", "word": "pilot", "wordID": 1069, "conditions": [12, 800, "a", 24000], "trial": 6, "serialpos": 7, "trial_type": "single-audio", "trial_index": 232, "time_elapsed": 5500936, "internal_node_id": "0.0-169.0"}}, {"uniqueid": "MTK0448:31LVTDXBL8H5DUUXS442EBDGCNJRLL", "current_trial": 233, "dateTime": 1510935888950, "trialdata": {"rt": -1000, "stimulus": "/static/audio/wordpool/SALT.wav", "key_press": -1, "type": "PRES_AUD", "word": "salt", "wordID": 1228, "conditions": [12, 800, "a", 24000], "trial": 6, "serialpos": 8, "trial_type": "single-audio", "trial_index": 233, "time_elapsed": 5502856, "internal_node_id": "0.0-170.0"}}, {"uniqueid": "MTK0448:31LVTDXBL8H5DUUXS442EBDGCNJRLL", "current_trial": 234, "dateTime": 1510935890696, "trialdata": {"rt": -1000, "stimulus": "/static/audio/wordpool/STICKER.wav", "key_press": -1, "type": "PRES_AUD", "word": "sticker", "wordID": 1381, "conditions": [12, 800, "a", 24000], "trial": 6, "serialpos": 9, "trial_type": "single-audio", "trial_index": 234, "time_elapsed": 5504603, "internal_node_id": "0.0-171.0"}}, {"uniqueid": "MTK0448:31LVTDXBL8H5DUUXS442EBDGCNJRLL", "current_trial": 235, "dateTime": 1510935892484, "trialdata": {"rt": -1000, "stimulus": "/static/audio/wordpool/ELBOW.wav", "key_press": -1, "type": "PRES_AUD", "word": "elbow", "wordID": 519, "conditions": [12, 800, "a", 24000], "trial": 6, "serialpos": 10, "trial_type": "single-audio", "trial_index": 235, "time_elapsed": 5506391, "internal_node_id": "0.0-172.0"}}, {"uniqueid": "MTK0448:31LVTDXBL8H5DUUXS442EBDGCNJRLL", "current_trial": 236, "dateTime": 1510935894416, "trialdata": {"rt": -1000, "stimulus": "/static/audio/wordpool/ITEM.wav", "key_press": -1, "type": "PRES_AUD", "word": "item", "wordID": 745, "conditions": [12, 800, "a", 24000], "trial": 6, "serialpos": 11, "trial_type": "single-audio", "trial_index": 236, "time_elapsed": 5508323, "internal_node_id": "0.0-173.0"}}, {"uniqueid": "MTK0448:31LVTDXBL8H5DUUXS442EBDGCNJRLL", "current_trial": 237, "dateTime": 1510935895655, "trialdata": {"rt": -1, "stimulus": "", "key_press": -1, "type": "PRE_RECALL_DELAY", "trial_type": "single-stim", "trial_index": 237, "time_elapsed": 5509562, "internal_node_id": "0.0-174.0-0.0"}}, {"uniqueid": "MTK0448:31LVTDXBL8H5DUUXS442EBDGCNJRLL", "current_trial": 238, "dateTime": 1510935896156, "trialdata": {"rt": -1000, "stimulus": "/static/audio/400Hz.wav", "key_press": -1, "type": "PRE_RECALL_ALERT", "trial_type": "single-audio", "trial_index": 238, "time_elapsed": 5510063, "internal_node_id": "0.0-175.0"}}, {"uniqueid": "MTK0448:31LVTDXBL8H5DUUXS442EBDGCNJRLL", "current_trial": 239, "dateTime": 1510935956159, "trialdata": {"rt": [2102, 4247, 5526, 7063, 8743, 11142, 13606], "recwords": ["badge", "spouse", "wife", "elbow", "sticker", "item", "farmer"], "type": "FREE_RECALL", "conditions": [12, 800, "a", 24000], "trial": 6, "trial_type": "free-recall", "trial_index": 239, "time_elapsed": 5570063, "internal_node_id": "0.0-176.0-0.0"}}, {"uniqueid": "MTK0448:31LVTDXBL8H5DUUXS442EBDGCNJRLL", "current_trial": 240, "dateTime": 1510935962403, "trialdata": {"rt": 4242, "key_press": 32, "type": "INSTRUCTIONS", "trial_type": "text", "trial_index": 240, "time_elapsed": 5576310, "internal_node_id": "0.0-177.0"}}, {"uniqueid": "MTK0448:31LVTDXBL8H5DUUXS442EBDGCNJRLL", "current_trial": 241, "dateTime": 1510935976405, "trialdata": {"rt": [4974, 7263, 9182, 11790], "responses": ["22", "8", "10", "14"], "num1": [8, 5, 1, 5, 2], "num2": [5, 1, 1, 2, 4], "num3": [9, 2, 8, 7, 9], "type": "DISTRACTOR", "conditions": [12, 1600, "a", 12000], "trial": 7, "trial_type": "math-distractor", "trial_index": 241, "time_elapsed": 5590312, "internal_node_id": "0.0-178.0"}}, {"uniqueid": "MTK0448:31LVTDXBL8H5DUUXS442EBDGCNJRLL", "current_trial": 242, "dateTime": 1510935979407, "trialdata": {"rt": -1, "stimulus": "<p id=\"stim\">10</p>", "key_press": -1, "trial_type": "single-stim", "trial_index": 242, "time_elapsed": 5593314, "internal_node_id": "0.0-179.0-0.0"}}, {"uniqueid": "MTK0448:31LVTDXBL8H5DUUXS442EBDGCNJRLL", "current_trial": 243, "dateTime": 1510935980408, "trialdata": {"rt": -1, "stimulus": "<p id=\"stim\">9</p>", "key_press": -1, "trial_type": "single-stim", "trial_index": 243, "time_elapsed": 5594315, "internal_node_id": "0.0-179.0-1.0"}}, {"uniqueid": "MTK0448:31LVTDXBL8H5DUUXS442EBDGCNJRLL", "current_trial": 244, "dateTime": 1510935981409, "trialdata": {"rt": -1, "stimulus": "<p id=\"stim\">8</p>", "key_press": -1, "trial_type": "single-stim", "trial_index": 244, "time_elapsed": 5595316, "internal_node_id": "0.0-179.0-2.0"}}, {"uniqueid": "MTK0448:31LVTDXBL8H5DUUXS442EBDGCNJRLL", "current_trial": 245, "dateTime": 1510935982411, "trialdata": {"rt": -1, "stimulus": "<p id=\"stim\">7</p>", "key_press": -1, "trial_type": "single-stim", "trial_index": 245, "time_elapsed": 5596318, "internal_node_id": "0.0-179.0-3.0"}}, {"uniqueid": "MTK0448:31LVTDXBL8H5DUUXS442EBDGCNJRLL", "current_trial": 246, "dateTime": 1510935983412, "trialdata": {"rt": -1, "stimulus": "<p id=\"stim\">6</p>", "key_press": -1, "trial_type": "single-stim", "trial_index": 246, "time_elapsed": 5597319, "internal_node_id": "0.0-179.0-4.0"}}, {"uniqueid": "MTK0448:31LVTDXBL8H5DUUXS442EBDGCNJRLL", "current_trial": 247, "dateTime": 1510935984413, "trialdata": {"rt": -1, "stimulus": "<p id=\"stim\">5</p>", "key_press": -1, "trial_type": "single-stim", "trial_index": 247, "time_elapsed": 5598320, "internal_node_id": "0.0-179.0-5.0"}}, {"uniqueid": "MTK0448:31LVTDXBL8H5DUUXS442EBDGCNJRLL", "current_trial": 248, "dateTime": 1510935985414, "trialdata": {"rt": -1, "stimulus": "<p id=\"stim\">4</p>", "key_press": -1, "trial_type": "single-stim", "trial_index": 248, "time_elapsed": 5599320, "internal_node_id": "0.0-179.0-6.0"}}, {"uniqueid": "MTK0448:31LVTDXBL8H5DUUXS442EBDGCNJRLL", "current_trial": 249, "dateTime": 1510935986415, "trialdata": {"rt": -1, "stimulus": "<p id=\"stim\">3</p>", "key_press": -1, "trial_type": "single-stim", "trial_index": 249, "time_elapsed": 5600322, "internal_node_id": "0.0-179.0-7.0"}}, {"uniqueid": "MTK0448:31LVTDXBL8H5DUUXS442EBDGCNJRLL", "current_trial": 250, "dateTime": 1510935987418, "trialdata": {"rt": -1, "stimulus": "<p id=\"stim\">2</p>", "key_press": -1, "trial_type": "single-stim", "trial_index": 250, "time_elapsed": 5601323, "internal_node_id": "0.0-179.0-8.0"}}, {"uniqueid": "MTK0448:31LVTDXBL8H5DUUXS442EBDGCNJRLL", "current_trial": 251, "dateTime": 1510935988419, "trialdata": {"rt": -1, "stimulus": "<p id=\"stim\">1</p>", "key_press": -1, "trial_type": "single-stim", "trial_index": 251, "time_elapsed": 5602326, "internal_node_id": "0.0-179.0-9.0"}}, {"uniqueid": "MTK0448:31LVTDXBL8H5DUUXS442EBDGCNJRLL", "current_trial": 252, "dateTime": 1510935989919, "trialdata": {"rt": -1, "stimulus": "<p id=\"stim\">+</p>", "key_press": -1, "type": "FIXATION", "trial_type": "single-stim", "trial_index": 252, "time_elapsed": 5603826, "internal_node_id": "0.0-180.0-0.0"}}, {"uniqueid": "MTK0448:31LVTDXBL8H5DUUXS442EBDGCNJRLL", "current_trial": 253, "dateTime": 1510935992572, "trialdata": {"rt": -1000, "stimulus": "/static/audio/wordpool/TOURIST.wav", "key_press": -1, "type": "PRES_AUD", "word": "tourist", "wordID": 1487, "conditions": [12, 1600, "a", 12000], "trial": 7, "serialpos": 0, "trial_type": "single-audio", "trial_index": 253, "time_elapsed": 5606479, "internal_node_id": "0.0-181.0"}}, {"uniqueid": "MTK0448:31LVTDXBL8H5DUUXS442EBDGCNJRLL", "current_trial": 254, "dateTime": 1510935995265, "trialdata": {"rt": -1000, "stimulus": "/static/audio/wordpool/COMPASS.wav", "key_press": -1, "type": "PRES_AUD", "word": "compass", "wordID": 357, "conditions": [12, 1600, "a", 12000], "trial": 7, "serialpos": 1, "trial_type": "single-audio", "trial_index": 254, "time_elapsed": 5609172, "internal_node_id": "0.0-182.0"}}, {"uniqueid": "MTK0448:31LVTDXBL8H5DUUXS442EBDGCNJRLL", "current_trial": 255, "dateTime": 1510935997822, "trialdata": {"rt": -1000, "stimulus": "/static/audio/wordpool/MAMMAL.wav", "key_press": -1, "type": "PRES_AUD", "word": "mammal", "wordID": 860, "conditions": [12, 1600, "a", 12000], "trial": 7, "serialpos": 2, "trial_type": "single-audio", "trial_index": 255, "time_elapsed": 5611729, "internal_node_id": "0.0-183.0"}}, {"uniqueid": "MTK0448:31LVTDXBL8H5DUUXS442EBDGCNJRLL", "current_trial": 256, "dateTime": 1510936000424, "trialdata": {"rt": -1000, "stimulus": "/static/audio/wordpool/FOX.wav", "key_press": -1, "type": "PRES_AUD", "word": "fox", "wordID": 597, "conditions": [12, 1600, "a", 12000], "trial": 7, "serialpos": 3, "trial_type": "single-audio", "trial_index": 256, "time_elapsed": 5614331, "internal_node_id": "0.0-184.0"}}, {"uniqueid": "MTK0448:31LVTDXBL8H5DUUXS442EBDGCNJRLL", "current_trial": 257, "dateTime": 1510936003060, "trialdata": {"rt": -1000, "stimulus": "/static/audio/wordpool/LIZARD.wav", "key_press": -1, "type": "PRES_AUD", "word": "lizard", "wordID": 833, "conditions": [12, 1600, "a", 12000], "trial": 7, "serialpos": 4, "trial_type": "single-audio", "trial_index": 257, "time_elapsed": 5616967, "internal_node_id": "0.0-185.0"}}, {"uniqueid": "MTK0448:31LVTDXBL8H5DUUXS442EBDGCNJRLL", "current_trial": 258, "dateTime": 1510936005480, "trialdata": {"rt": -1000, "stimulus": "/static/audio/wordpool/COOK.wav", "key_press": -1, "type": "PRES_AUD", "word": "cook", "wordID": 371, "conditions": [12, 1600, "a", 12000], "trial": 7, "serialpos": 5, "trial_type": "single-audio", "trial_index": 258, "time_elapsed": 5619387, "internal_node_id": "0.0-186.0"}}, {"uniqueid": "MTK0448:31LVTDXBL8H5DUUXS442EBDGCNJRLL", "current_trial": 259, "dateTime": 1510936007894, "trialdata": {"rt": -1000, "stimulus": "/static/audio/wordpool/WORLD.wav", "key_press": -1, "type": "PRES_AUD", "word": "world", "wordID": 1621, "conditions": [12, 1600, "a", 12000], "trial": 7, "serialpos": 6, "trial_type": "single-audio", "trial_index": 259, "time_elapsed": 5621801, "internal_node_id": "0.0-187.0"}}, {"uniqueid": "MTK0448:31LVTDXBL8H5DUUXS442EBDGCNJRLL", "current_trial": 260, "dateTime": 1510936010606, "trialdata": {"rt": -1000, "stimulus": "/static/audio/wordpool/YARN.wav", "key_press": -1, "type": "PRES_AUD", "word": "yarn", "wordID": 1630, "conditions": [12, 1600, "a", 12000], "trial": 7, "serialpos": 7, "trial_type": "single-audio", "trial_index": 260, "time_elapsed": 5624513, "internal_node_id": "0.0-188.0"}}, {"uniqueid": "MTK0448:31LVTDXBL8H5DUUXS442EBDGCNJRLL", "current_trial": 261, "dateTime": 1510936013203, "trialdata": {"rt": -1000, "stimulus": "/static/audio/wordpool/PRIMATE.wav", "key_press": -1, "type": "PRES_AUD", "word": "primate", "wordID": 1122, "conditions": [12, 1600, "a", 12000], "trial": 7, "serialpos": 8, "trial_type": "single-audio", "trial_index": 261, "time_elapsed": 5627110, "internal_node_id": "0.0-189.0"}}, {"uniqueid": "MTK0448:31LVTDXBL8H5DUUXS442EBDGCNJRLL", "current_trial": 262, "dateTime": 1510936015650, "trialdata": {"rt": -1000, "stimulus": "/static/audio/wordpool/CLAM.wav", "key_press": -1, "type": "PRES_AUD", "word": "clam", "wordID": 314, "conditions": [12, 1600, "a", 12000], "trial": 7, "serialpos": 9, "trial_type": "single-audio", "trial_index": 262, "time_elapsed": 5629557, "internal_node_id": "0.0-190.0"}}, {"uniqueid": "MTK0448:31LVTDXBL8H5DUUXS442EBDGCNJRLL", "current_trial": 263, "dateTime": 1510936018343, "trialdata": {"rt": -1000, "stimulus": "/static/audio/wordpool/POLICE.wav", "key_press": -1, "type": "PRES_AUD", "word": "police", "wordID": 1097, "conditions": [12, 1600, "a", 12000], "trial": 7, "serialpos": 10, "trial_type": "single-audio", "trial_index": 263, "time_elapsed": 5632250, "internal_node_id": "0.0-191.0"}}, {"uniqueid": "MTK0448:31LVTDXBL8H5DUUXS442EBDGCNJRLL", "current_trial": 264, "dateTime": 1510936021045, "trialdata": {"rt": -1000, "stimulus": "/static/audio/wordpool/CONVICT.wav", "key_press": -1, "type": "PRES_AUD", "word": "convict", "wordID": 370, "conditions": [12, 1600, "a", 12000], "trial": 7, "serialpos": 11, "trial_type": "single-audio", "trial_index": 264, "time_elapsed": 5634952, "internal_node_id": "0.0-192.0"}}, {"uniqueid": "MTK0448:31LVTDXBL8H5DUUXS442EBDGCNJRLL", "current_trial": 265, "dateTime": 1510936022301, "trialdata": {"rt": -1, "stimulus": "", "key_press": -1, "type": "PRE_RECALL_DELAY", "trial_type": "single-stim", "trial_index": 265, "time_elapsed": 5636208, "internal_node_id": "0.0-193.0-0.0"}}, {"uniqueid": "MTK0448:31LVTDXBL8H5DUUXS442EBDGCNJRLL", "current_trial": 266, "dateTime": 1510936022802, "trialdata": {"rt": -1000, "stimulus": "/static/audio/400Hz.wav", "key_press": -1, "type": "PRE_RECALL_ALERT", "trial_type": "single-audio", "trial_index": 266, "time_elapsed": 5636709, "internal_node_id": "0.0-194.0"}}, {"uniqueid": "MTK0448:31LVTDXBL8H5DUUXS442EBDGCNJRLL", "current_trial": 267, "dateTime": 1510936082807, "trialdata": {"rt": [1552, 3471, 4671, 6863, 9487, 16975], "recwords": ["primate", "police", "convict", "yarn", "mammel", "tourist"], "type": "FREE_RECALL", "conditions": [12, 1600, "a", 12000], "trial": 7, "trial_type": "free-recall", "trial_index": 267, "time_elapsed": 5696711, "internal_node_id": "0.0-195.0-0.0"}}, {"uniqueid": "MTK0448:31LVTDXBL8H5DUUXS442EBDGCNJRLL", "current_trial": 268, "dateTime": 1510936087683, "trialdata": {"rt": 2874, "key_press": 32, "type": "INSTRUCTIONS", "trial_type": "text", "trial_index": 268, "time_elapsed": 5701590, "internal_node_id": "0.0-196.0"}}, {"uniqueid": "MTK0448:31LVTDXBL8H5DUUXS442EBDGCNJRLL", "current_trial": 269, "dateTime": 1510936101686, "trialdata": {"rt": [3885, 8237, 10718], "responses": ["23", "15", "16"], "num1": [8, 2, 2, 2], "num2": [7, 4, 7, 7], "num3": [8, 9, 7, 9], "type": "DISTRACTOR", "conditions": [24, 800, "v", 12000], "trial": 8, "trial_type": "math-distractor", "trial_index": 269, "time_elapsed": 5715593, "internal_node_id": "0.0-197.0"}}, {"uniqueid": "MTK0448:31LVTDXBL8H5DUUXS442EBDGCNJRLL", "current_trial": 270, "dateTime": 1510936104687, "trialdata": {"rt": -1, "stimulus": "<p id=\"stim\">10</p>", "key_press": -1, "trial_type": "single-stim", "trial_index": 270, "time_elapsed": 5718594, "internal_node_id": "0.0-198.0-0.0"}}, {"uniqueid": "MTK0448:31LVTDXBL8H5DUUXS442EBDGCNJRLL", "current_trial": 271, "dateTime": 1510936105689, "trialdata": {"rt": -1, "stimulus": "<p id=\"stim\">9</p>", "key_press": -1, "trial_type": "single-stim", "trial_index": 271, "time_elapsed": 5719596, "internal_node_id": "0.0-198.0-1.0"}}, {"uniqueid": "MTK0448:31LVTDXBL8H5DUUXS442EBDGCNJRLL", "current_trial": 272, "dateTime": 1510936106689, "trialdata": {"rt": -1, "stimulus