{"condition": 0, "counterbalance": 424, "assignmentId": "3MRNMEIQW6DBCKBSA39I9MWCW6IDLU", "workerId": "MTK0309", "hitId": "3TZDZ3Y0JSDKW3WDFBHVER8OUVX192", "currenttrial": 626, "bonus": 0, "data": [{"uniqueid": "MTK0309:3MRNMEIQW6DBCKBSA39I9MWCW6IDLU", "current_trial": 0, "dateTime": 1510703285450, "trialdata": {"rt": 2159, "key_press": 70, "type": "INSTRUCTIONS", "trial_type": "text", "trial_index": 0, "time_elapsed": 2161, "internal_node_id": "0.0-0.0"}}, {"uniqueid": "MTK0309:3MRNMEIQW6DBCKBSA39I9MWCW6IDLU", "current_trial": 1, "dateTime": 1510703303633, "trialdata": {"rt": 18181, "key_press": 68, "type": "INSTRUCTIONS", "trial_type": "text", "trial_index": 1, "time_elapsed": 20344, "internal_node_id": "0.0-1.0"}}, {"uniqueid": "MTK0309:3MRNMEIQW6DBCKBSA39I9MWCW6IDLU", "current_trial": 2, "dateTime": 1510703313026, "trialdata": {"rt": [9341], "responses": ["ocean"], "type": "AUDIO_TEST", "trial_type": "audio-test", "trial_index": 2, "time_elapsed": 29736, "internal_node_id": "0.0-2.0"}}, {"uniqueid": "MTK0309:3MRNMEIQW6DBCKBSA39I9MWCW6IDLU", "current_trial": 3, "dateTime": 1510703318410, "trialdata": {"rt": [5374], "responses": ["crystal"], "type": "AUDIO_TEST", "trial_type": "audio-test", "trial_index": 3, "time_elapsed": 35120, "internal_node_id": "0.0-3.0"}}, {"uniqueid": "MTK0309:3MRNMEIQW6DBCKBSA39I9MWCW6IDLU", "current_trial": 4, "dateTime": 1510703324121, "trialdata": {"rt": [5703], "responses": ["spice"], "type": "AUDIO_TEST", "trial_type": "audio-test", "trial_index": 4, "time_elapsed": 40832, "internal_node_id": "0.0-4.0"}}, {"uniqueid": "MTK0309:3MRNMEIQW6DBCKBSA39I9MWCW6IDLU", "current_trial": 5, "dateTime": 1510703347909, "trialdata": {"rt": 23035, "responses": "{\"Q0\":\"2am\",\"Q1\":\"9am\",\"Q2\":\"5\"}", "type": "SLEEP_SURVEY", "trial_type": "survey-text", "trial_index": 5, "time_elapsed": 64620, "internal_node_id": "0.0-5.0"}}, {"uniqueid": "MTK0309:3MRNMEIQW6DBCKBSA39I9MWCW6IDLU", "current_trial": 6, "dateTime": 1510703403656, "trialdata": {"rt": 54747, "key_press": 68, "type": "INSTRUCTIONS", "trial_type": "text", "trial_index": 6, "time_elapsed": 120367, "internal_node_id": "0.0-6.0"}}, {"uniqueid": "MTK0309:3MRNMEIQW6DBCKBSA39I9MWCW6IDLU", "current_trial": 7, "dateTime": 1510703425664, "trialdata": {"rt": 21507, "key_press": 68, "type": "INSTRUCTIONS", "trial_type": "text", "trial_index": 7, "time_elapsed": 142375, "internal_node_id": "0.0-7.0"}}, {"uniqueid": "MTK0309:3MRNMEIQW6DBCKBSA39I9MWCW6IDLU", "current_trial": 8, "dateTime": 1510703452480, "trialdata": {"rt": 26315, "key_press": 68, "type": "INSTRUCTIONS", "trial_type": "text", "trial_index": 8, "time_elapsed": 169191, "internal_node_id": "0.0-8.0"}}, {"uniqueid": "MTK0309:3MRNMEIQW6DBCKBSA39I9MWCW6IDLU", "current_trial": 9, "dateTime": 1510703471486, "trialdata": {"rt": [3876, 7348, 9540, 11676, 14060], "responses": ["14", "17", "17", "12", "12"], "num1": [2, 2, 8, 4, 7, 2], "num2": [7, 9, 2, 6, 1, 4], "num3": [5, 6, 7, 2, 4, 2], "type": "DISTRACTOR", "conditions": [18, 1200, "v", 18000], "trial": 0, "trial_type": "math-distractor", "trial_index": 9, "time_elapsed": 188197, "internal_node_id": "0.0-9.0"}}, {"uniqueid": "MTK0309:3MRNMEIQW6DBCKBSA39I9MWCW6IDLU", "current_trial": 10, "dateTime": 1510703474487, "trialdata": {"rt": -1, "stimulus": "<p id=\"stim\">10</p>", "key_press": -1, "trial_type": "single-stim", "trial_index": 10, "time_elapsed": 191198, "internal_node_id": "0.0-10.0-0.0"}}, {"uniqueid": "MTK0309:3MRNMEIQW6DBCKBSA39I9MWCW6IDLU", "current_trial": 11, "dateTime": 1510703475490, "trialdata": {"rt": -1, "stimulus": "<p id=\"stim\">9</p>", "key_press": -1, "trial_type": "single-stim", "trial_index": 11, "time_elapsed": 192201, "internal_node_id": "0.0-10.0-1.0"}}, {"uniqueid": "MTK0309:3MRNMEIQW6DBCKBSA39I9MWCW6IDLU", "current_trial": 12, "dateTime": 1510703476491, "trialdata": {"rt": -1, "stimulus": "<p id=\"stim\">8</p>", "key_press": -1, "trial_type": "single-stim", "trial_index": 12, "time_elapsed": 193202, "internal_node_id": "0.0-10.0-2.0"}}, {"uniqueid": "MTK0309:3MRNMEIQW6DBCKBSA39I9MWCW6IDLU", "current_trial": 13, "dateTime": 1510703477492, "trialdata": {"rt": -1, "stimulus": "<p id=\"stim\">7</p>", "key_press": -1, "trial_type": "single-stim", "trial_index": 13, "time_elapsed": 194203, "internal_node_id": "0.0-10.0-3.0"}}, {"uniqueid": "MTK0309:3MRNMEIQW6DBCKBSA39I9MWCW6IDLU", "current_trial": 14, "dateTime": 1510703478493, "trialdata": {"rt": -1, "stimulus": "<p id=\"stim\">6</p>", "key_press": -1, "trial_type": "single-stim", "trial_index": 14, "time_elapsed": 195204, "internal_node_id": "0.0-10.0-4.0"}}, {"uniqueid": "MTK0309:3MRNMEIQW6DBCKBSA39I9MWCW6IDLU", "current_trial": 15, "dateTime": 1510703479493, "trialdata": {"rt": -1, "stimulus": "<p id=\"stim\">5</p>", "key_press": -1, "trial_type": "single-stim", "trial_index": 15, "time_elapsed": 196204, "internal_node_id": "0.0-10.0-5.0"}}, {"uniqueid": "MTK0309:3MRNMEIQW6DBCKBSA39I9MWCW6IDLU", "current_trial": 16, "dateTime": 1510703480494, "trialdata": {"rt": -1, "stimulus": "<p id=\"stim\">4</p>", "key_press": -1, "trial_type": "single-stim", "trial_index": 16, "time_elapsed": 197205, "internal_node_id": "0.0-10.0-6.0"}}, {"uniqueid": "MTK0309:3MRNMEIQW6DBCKBSA39I9MWCW6IDLU", "current_trial": 17, "dateTime": 1510703481495, "trialdata": {"rt": -1, "stimulus": "<p id=\"stim\">3</p>", "key_press": -1, "trial_type": "single-stim", "trial_index": 17, "time_elapsed": 198206, "internal_node_id": "0.0-10.0-7.0"}}, {"uniqueid": "MTK0309:3MRNMEIQW6DBCKBSA39I9MWCW6IDLU", "current_trial": 18, "dateTime": 1510703482496, "trialdata": {"rt": -1, "stimulus": "<p id=\"stim\">2</p>", "key_press": -1, "trial_type": "single-stim", "trial_index": 18, "time_elapsed": 199206, "internal_node_id": "0.0-10.0-8.0"}}, {"uniqueid": "MTK0309:3MRNMEIQW6DBCKBSA39I9MWCW6IDLU", "current_trial": 19, "dateTime": 1510703483497, "trialdata": {"rt": -1, "stimulus": "<p id=\"stim\">1</p>", "key_press": -1, "trial_type": "single-stim", "trial_index": 19, "time_elapsed": 200208, "internal_node_id": "0.0-10.0-9.0"}}, {"uniqueid": "MTK0309:3MRNMEIQW6DBCKBSA39I9MWCW6IDLU", "current_trial": 20, "dateTime": 1510703484999, "trialdata": {"rt": -1, "stimulus": "<p id=\"stim\">+</p>", "key_press": -1, "type": "FIXATION", "trial_type": "single-stim", "trial_index": 20, "time_elapsed": 201710, "internal_node_id": "0.0-11.0-0.0"}}, {"uniqueid": "MTK0309:3MRNMEIQW6DBCKBSA39I9MWCW6IDLU", "current_trial": 21, "dateTime": 1510703486201, "trialdata": {"rt": -1, "stimulus": "<p id=\"stim\">CLOCK</p>", "key_press": -1, "type": "PRES_VIS", "word": "clock", "wordID": 324, "conditions": [18, 1200, "v", 18000], "trial": 0, "serialpos": 0, "trial_type": "single-stim", "trial_index": 21, "time_elapsed": 202911, "internal_node_id": "0.0-12.0"}}, {"uniqueid": "MTK0309:3MRNMEIQW6DBCKBSA39I9MWCW6IDLU", "current_trial": 22, "dateTime": 1510703488270, "trialdata": {"rt": -1, "stimulus": "<p id=\"stim\">SKILLET</p>", "key_press": -1, "type": "PRES_VIS", "word": "skillet", "wordID": 1316, "conditions": [18, 1200, "v", 18000], "trial": 0, "serialpos": 1, "trial_type": "single-stim", "trial_index": 22, "time_elapsed": 204980, "internal_node_id": "0.0-13.0"}}, {"uniqueid": "MTK0309:3MRNMEIQW6DBCKBSA39I9MWCW6IDLU", "current_trial": 23, "dateTime": 1510703490320, "trialdata": {"rt": -1, "stimulus": "<p id=\"stim\">BEAKER</p>", "key_press": -1, "type": "PRES_VIS", "word": "beaker", "wordID": 103, "conditions": [18, 1200, "v", 18000], "trial": 0, "serialpos": 2, "trial_type": "single-stim", "trial_index": 23, "time_elapsed": 207031, "internal_node_id": "0.0-14.0"}}, {"uniqueid": "MTK0309:3MRNMEIQW6DBCKBSA39I9MWCW6IDLU", "current_trial": 24, "dateTime": 1510703492455, "trialdata": {"rt": -1, "stimulus": "<p id=\"stim\">CHAUFFEUR</p>", "key_press": -1, "type": "PRES_VIS", "word": "chauffeur", "wordID": 282, "conditions": [18, 1200, "v", 18000], "trial": 0, "serialpos": 3, "trial_type": "single-stim", "trial_index": 24, "time_elapsed": 209166, "internal_node_id": "0.0-15.0"}}, {"uniqueid": "MTK0309:3MRNMEIQW6DBCKBSA39I9MWCW6IDLU", "current_trial": 25, "dateTime": 1510703494620, "trialdata": {"rt": -1, "stimulus": "<p id=\"stim\">SHOULDER</p>", "key_press": -1, "type": "PRES_VIS", "word": "shoulder", "wordID": 1293, "conditions": [18, 1200, "v", 18000], "trial": 0, "serialpos": 4, "trial_type": "single-stim", "trial_index": 25, "time_elapsed": 211330, "internal_node_id": "0.0-16.0"}}, {"uniqueid": "MTK0309:3MRNMEIQW6DBCKBSA39I9MWCW6IDLU", "current_trial": 26, "dateTime": 1510703496624, "trialdata": {"rt": -1, "stimulus": "<p id=\"stim\">WOMAN</p>", "key_press": -1, "type": "PRES_VIS", "word": "woman", "wordID": 1619, "conditions": [18, 1200, "v", 18000], "trial": 0, "serialpos": 5, "trial_type": "single-stim", "trial_index": 26, "time_elapsed": 213335, "internal_node_id": "0.0-17.0"}}, {"uniqueid": "MTK0309:3MRNMEIQW6DBCKBSA39I9MWCW6IDLU", "current_trial": 27, "dateTime": 1510703498874, "trialdata": {"rt": -1, "stimulus": "<p id=\"stim\">RAFT</p>", "key_press": -1, "type": "PRES_VIS", "word": "raft", "wordID": 1158, "conditions": [18, 1200, "v", 18000], "trial": 0, "serialpos": 6, "trial_type": "single-stim", "trial_index": 27, "time_elapsed": 215585, "internal_node_id": "0.0-18.0"}}, {"uniqueid": "MTK0309:3MRNMEIQW6DBCKBSA39I9MWCW6IDLU", "current_trial": 28, "dateTime": 1510703501048, "trialdata": {"rt": -1, "stimulus": "<p id=\"stim\">OYSTER</p>", "key_press": -1, "type": "PRES_VIS", "word": "oyster", "wordID": 994, "conditions": [18, 1200, "v", 18000], "trial": 0, "serialpos": 7, "trial_type": "single-stim", "trial_index": 28, "time_elapsed": 217759, "internal_node_id": "0.0-19.0"}}, {"uniqueid": "MTK0309:3MRNMEIQW6DBCKBSA39I9MWCW6IDLU", "current_trial": 29, "dateTime": 1510703503302, "trialdata": {"rt": -1, "stimulus": "<p id=\"stim\">ROBOT</p>", "key_press": -1, "type": "PRES_VIS", "word": "robot", "wordID": 1199, "conditions": [18, 1200, "v", 18000], "trial": 0, "serialpos": 8, "trial_type": "single-stim", "trial_index": 29, "time_elapsed": 220013, "internal_node_id": "0.0-20.0"}}, {"uniqueid": "MTK0309:3MRNMEIQW6DBCKBSA39I9MWCW6IDLU", "current_trial": 30, "dateTime": 1510703505341, "trialdata": {"rt": -1, "stimulus": "<p id=\"stim\">HAMPER</p>", "key_press": -1, "type": "PRES_VIS", "word": "hamper", "wordID": 681, "conditions": [18, 1200, "v", 18000], "trial": 0, "serialpos": 9, "trial_type": "single-stim", "trial_index": 30, "time_elapsed": 222052, "internal_node_id": "0.0-21.0"}}, {"uniqueid": "MTK0309:3MRNMEIQW6DBCKBSA39I9MWCW6IDLU", "current_trial": 31, "dateTime": 1510703507485, "trialdata": {"rt": -1, "stimulus": "<p id=\"stim\">CANDY</p>", "key_press": -1, "type": "PRES_VIS", "word": "candy", "wordID": 229, "conditions": [18, 1200, "v", 18000], "trial": 0, "serialpos": 10, "trial_type": "single-stim", "trial_index": 31, "time_elapsed": 224196, "internal_node_id": "0.0-22.0"}}, {"uniqueid": "MTK0309:3MRNMEIQW6DBCKBSA39I9MWCW6IDLU", "current_trial": 32, "dateTime": 1510703509747, "trialdata": {"rt": -1, "stimulus": "<p id=\"stim\">GIFT</p>", "key_press": -1, "type": "PRES_VIS", "word": "gift", "wordID": 634, "conditions": [18, 1200, "v", 18000], "trial": 0, "serialpos": 11, "trial_type": "single-stim", "trial_index": 32, "time_elapsed": 226458, "internal_node_id": "0.0-23.0"}}, {"uniqueid": "MTK0309:3MRNMEIQW6DBCKBSA39I9MWCW6IDLU", "current_trial": 33, "dateTime": 1510703512061, "trialdata": {"rt": -1, "stimulus": "<p id=\"stim\">TUTU</p>", "key_press": -1, "type": "PRES_VIS", "word": "tutu", "wordID": 1523, "conditions": [18, 1200, "v", 18000], "trial": 0, "serialpos": 12, "trial_type": "single-stim", "trial_index": 33, "time_elapsed": 228772, "internal_node_id": "0.0-24.0"}}, {"uniqueid": "MTK0309:3MRNMEIQW6DBCKBSA39I9MWCW6IDLU", "current_trial": 34, "dateTime": 1510703514372, "trialdata": {"rt": -1, "stimulus": "<p id=\"stim\">SODA</p>", "key_press": -1, "type": "PRES_VIS", "word": "soda", "wordID": 1340, "conditions": [18, 1200, "v", 18000], "trial": 0, "serialpos": 13, "trial_type": "single-stim", "trial_index": 34, "time_elapsed": 231083, "internal_node_id": "0.0-25.0"}}, {"uniqueid": "MTK0309:3MRNMEIQW6DBCKBSA39I9MWCW6IDLU", "current_trial": 35, "dateTime": 1510703516589, "trialdata": {"rt": -1, "stimulus": "<p id=\"stim\">PLAZA</p>", "key_press": -1, "type": "PRES_VIS", "word": "plaza", "wordID": 1087, "conditions": [18, 1200, "v", 18000], "trial": 0, "serialpos": 14, "trial_type": "single-stim", "trial_index": 35, "time_elapsed": 233300, "internal_node_id": "0.0-26.0"}}, {"uniqueid": "MTK0309:3MRNMEIQW6DBCKBSA39I9MWCW6IDLU", "current_trial": 36, "dateTime": 1510703518901, "trialdata": {"rt": -1, "stimulus": "<p id=\"stim\">HIGHWAY</p>", "key_press": -1, "type": "PRES_VIS", "word": "highway", "wordID": 706, "conditions": [18, 1200, "v", 18000], "trial": 0, "serialpos": 15, "trial_type": "single-stim", "trial_index": 36, "time_elapsed": 235612, "internal_node_id": "0.0-27.0"}}, {"uniqueid": "MTK0309:3MRNMEIQW6DBCKBSA39I9MWCW6IDLU", "current_trial": 37, "dateTime": 1510703520925, "trialdata": {"rt": -1, "stimulus": "<p id=\"stim\">BRANDY</p>", "key_press": -1, "type": "PRES_VIS", "word": "brandy", "wordID": 168, "conditions": [18, 1200, "v", 18000], "trial": 0, "serialpos": 16, "trial_type": "single-stim", "trial_index": 37, "time_elapsed": 237636, "internal_node_id": "0.0-28.0"}}, {"uniqueid": "MTK0309:3MRNMEIQW6DBCKBSA39I9MWCW6IDLU", "current_trial": 38, "dateTime": 1510703523253, "trialdata": {"rt": -1, "stimulus": "<p id=\"stim\">APPLE</p>", "key_press": -1, "type": "PRES_VIS", "word": "apple", "wordID": 32, "conditions": [18, 1200, "v", 18000], "trial": 0, "serialpos": 17, "trial_type": "single-stim", "trial_index": 38, "time_elapsed": 239964, "internal_node_id": "0.0-29.0"}}, {"uniqueid": "MTK0309:3MRNMEIQW6DBCKBSA39I9MWCW6IDLU", "current_trial": 39, "dateTime": 1510703525365, "trialdata": {"rt": -1, "stimulus": "", "key_press": -1, "type": "PRE_RECALL_DELAY", "trial_type": "single-stim", "trial_index": 39, "time_elapsed": 242076, "internal_node_id": "0.0-30.0-0.0"}}, {"uniqueid": "MTK0309:3MRNMEIQW6DBCKBSA39I9MWCW6IDLU", "current_trial": 40, "dateTime": 1510703525872, "trialdata": {"rt": -1000, "stimulus": "/static/audio/400Hz.wav", "key_press": -1, "type": "PRE_RECALL_ALERT", "trial_type": "single-audio", "trial_index": 40, "time_elapsed": 242583, "internal_node_id": "0.0-31.0"}}, {"uniqueid": "MTK0309:3MRNMEIQW6DBCKBSA39I9MWCW6IDLU", "current_trial": 41, "dateTime": 1510703585878, "trialdata": {"rt": [2085, 3829, 5573, 6605, 8493, 9837, 12333, 15237, 17469, 37237], "recwords": ["apple", "tutu", "skillet", "beaker", "robot", "clock", "chauffer", "brandy", "candy", "oyster"], "type": "FREE_RECALL", "conditions": [18, 1200, "v", 18000], "trial": 0, "trial_type": "free-recall", "trial_index": 41, "time_elapsed": 302587, "internal_node_id": "0.0-32.0-0.0"}}, {"uniqueid": "MTK0309:3MRNMEIQW6DBCKBSA39I9MWCW6IDLU", "current_trial": 42, "dateTime": 1510703589384, "trialdata": {"rt": 1504, "key_press": 68, "type": "INSTRUCTIONS", "trial_type": "text", "trial_index": 42, "time_elapsed": 306095, "internal_node_id": "0.0-33.0"}}, {"uniqueid": "MTK0309:3MRNMEIQW6DBCKBSA39I9MWCW6IDLU", "current_trial": 43, "dateTime": 1510703609389, "trialdata": {"rt": [4173, 8973, 11357, 13469, 17725], "responses": ["17", "13", "15", "8", "11"], "num1": [7, 7, 1, 1, 3, 3], "num2": [2, 5, 7, 2, 4, 8], "num3": [8, 1, 7, 5, 4, 5], "type": "DISTRACTOR", "conditions": [18, 1200, "a", 18000], "trial": 1, "trial_type": "math-distractor", "trial_index": 43, "time_elapsed": 326100, "internal_node_id": "0.0-34.0"}}, {"uniqueid": "MTK0309:3MRNMEIQW6DBCKBSA39I9MWCW6IDLU", "current_trial": 44, "dateTime": 1510703612390, "trialdata": {"rt": -1, "stimulus": "<p id=\"stim\">10</p>", "key_press": -1, "trial_type": "single-stim", "trial_index": 44, "time_elapsed": 329101, "internal_node_id": "0.0-35.0-0.0"}}, {"uniqueid": "MTK0309:3MRNMEIQW6DBCKBSA39I9MWCW6IDLU", "current_trial": 45, "dateTime": 1510703613391, "trialdata": {"rt": -1, "stimulus": "<p id=\"stim\">9</p>", "key_press": -1, "trial_type": "single-stim", "trial_index": 45, "time_elapsed": 330102, "internal_node_id": "0.0-35.0-1.0"}}, {"uniqueid": "MTK0309:3MRNMEIQW6DBCKBSA39I9MWCW6IDLU", "current_trial": 46, "dateTime": 1510703614392, "trialdata": {"rt": -1, "stimulus": "<p id=\"stim\">8</p>", "key_press": -1, "trial_type": "single-stim", "trial_index": 46, "time_elapsed": 331103, "internal_node_id": "0.0-35.0-2.0"}}, {"uniqueid": "MTK0309:3MRNMEIQW6DBCKBSA39I9MWCW6IDLU", "current_trial": 47, "dateTime": 1510703615393, "trialdata": {"rt": -1, "stimulus": "<p id=\"stim\">7</p>", "key_press": -1, "trial_type": "single-stim", "trial_index": 47, "time_elapsed": 332104, "internal_node_id": "0.0-35.0-3.0"}}, {"uniqueid": "MTK0309:3MRNMEIQW6DBCKBSA39I9MWCW6IDLU", "current_trial": 48, "dateTime": 1510703616394, "trialdata": {"rt": -1, "stimulus": "<p id=\"stim\">6</p>", "key_press": -1, "trial_type": "single-stim", "trial_index": 48, "time_elapsed": 333105, "internal_node_id": "0.0-35.0-4.0"}}, {"uniqueid": "MTK0309:3MRNMEIQW6DBCKBSA39I9MWCW6IDLU", "current_trial": 49, "dateTime": 1510703617395, "trialdata": {"rt": -1, "stimulus": "<p id=\"stim\">5</p>", "key_press": -1, "trial_type": "single-stim", "trial_index": 49, "time_elapsed": 334106, "internal_node_id": "0.0-35.0-5.0"}}, {"uniqueid": "MTK0309:3MRNMEIQW6DBCKBSA39I9MWCW6IDLU", "current_trial": 50, "dateTime": 1510703618396, "trialdata": {"rt": -1, "stimulus": "<p id=\"stim\">4</p>", "key_press": -1, "trial_type": "single-stim", "trial_index": 50, "time_elapsed": 335107, "internal_node_id": "0.0-35.0-6.0"}}, {"uniqueid": "MTK0309:3MRNMEIQW6DBCKBSA39I9MWCW6IDLU", "current_trial": 51, "dateTime": 1510703619397, "trialdata": {"rt": -1, "stimulus": "<p id=\"stim\">3</p>", "key_press": -1, "trial_type": "single-stim", "trial_index": 51, "time_elapsed": 336108, "internal_node_id": "0.0-35.0-7.0"}}, {"uniqueid": "MTK0309:3MRNMEIQW6DBCKBSA39I9MWCW6IDLU", "current_trial": 52, "dateTime": 1510703620398, "trialdata": {"rt": -1, "stimulus": "<p id=\"stim\">2</p>", "key_press": -1, "trial_type": "single-stim", "trial_index": 52, "time_elapsed": 337109, "internal_node_id": "0.0-35.0-8.0"}}, {"uniqueid": "MTK0309:3MRNMEIQW6DBCKBSA39I9MWCW6IDLU", "current_trial": 53, "dateTime": 1510703621400, "trialdata": {"rt": -1, "stimulus": "<p id=\"stim\">1</p>", "key_press": -1, "trial_type": "single-stim", "trial_index": 53, "time_elapsed": 338110, "internal_node_id": "0.0-35.0-9.0"}}, {"uniqueid": "MTK0309:3MRNMEIQW6DBCKBSA39I9MWCW6IDLU", "current_trial": 54, "dateTime": 1510703622900, "trialdata": {"rt": -1, "stimulus": "<p id=\"stim\">+</p>", "key_press": -1, "type": "FIXATION", "trial_type": "single-stim", "trial_index": 54, "time_elapsed": 339611, "internal_node_id": "0.0-36.0-0.0"}}, {"uniqueid": "MTK0309:3MRNMEIQW6DBCKBSA39I9MWCW6IDLU", "current_trial": 55, "dateTime": 1510703625125, "trialdata": {"rt": -1000, "stimulus": "/static/audio/wordpool/JELLO.wav", "key_press": -1, "type": "PRES_AUD", "word": "jello", "wordID": 753, "conditions": [18, 1200, "a", 18000], "trial": 1, "serialpos": 0, "trial_type": "single-audio", "trial_index": 55, "time_elapsed": 341836, "internal_node_id": "0.0-37.0"}}, {"uniqueid": "MTK0309:3MRNMEIQW6DBCKBSA39I9MWCW6IDLU", "current_trial": 56, "dateTime": 1510703627246, "trialdata": {"rt": -1000, "stimulus": "/static/audio/wordpool/ASIA.wav", "key_press": -1, "type": "PRES_AUD", "word": "asia", "wordID": 45, "conditions": [18, 1200, "a", 18000], "trial": 1, "serialpos": 1, "trial_type": "single-audio", "trial_index": 56, "time_elapsed": 343957, "internal_node_id": "0.0-38.0"}}, {"uniqueid": "MTK0309:3MRNMEIQW6DBCKBSA39I9MWCW6IDLU", "current_trial": 57, "dateTime": 1510703629534, "trialdata": {"rt": -1000, "stimulus": "/static/audio/wordpool/JOURNAL.wav", "key_press": -1, "type": "PRES_AUD", "word": "journal", "wordID": 759, "conditions": [18, 1200, "a", 18000], "trial": 1, "serialpos": 2, "trial_type": "single-audio", "trial_index": 57, "time_elapsed": 346245, "internal_node_id": "0.0-39.0"}}, {"uniqueid": "MTK0309:3MRNMEIQW6DBCKBSA39I9MWCW6IDLU", "current_trial": 58, "dateTime": 1510703631555, "trialdata": {"rt": -1000, "stimulus": "/static/audio/wordpool/POWDER.wav", "key_press": -1, "type": "PRES_AUD", "word": "powder", "wordID": 1116, "conditions": [18, 1200, "a", 18000], "trial": 1, "serialpos": 3, "trial_type": "single-audio", "trial_index": 58, "time_elapsed": 348266, "internal_node_id": "0.0-40.0"}}, {"uniqueid": "MTK0309:3MRNMEIQW6DBCKBSA39I9MWCW6IDLU", "current_trial": 59, "dateTime": 1510703633882, "trialdata": {"rt": -1000, "stimulus": "/static/audio/wordpool/TABLET.wav", "key_press": -1, "type": "PRES_AUD", "word": "tablet", "wordID": 1426, "conditions": [18, 1200, "a", 18000], "trial": 1, "serialpos": 4, "trial_type": "single-audio", "trial_index": 59, "time_elapsed": 350593, "internal_node_id": "0.0-41.0"}}, {"uniqueid": "MTK0309:3MRNMEIQW6DBCKBSA39I9MWCW6IDLU", "current_trial": 60, "dateTime": 1510703636270, "trialdata": {"rt": -1000, "stimulus": "/static/audio/wordpool/TRIBE.wav", "key_press": -1, "type": "PRES_AUD", "word": "tribe", "wordID": 1504, "conditions": [18, 1200, "a", 18000], "trial": 1, "serialpos": 5, "trial_type": "single-audio", "trial_index": 60, "time_elapsed": 352981, "internal_node_id": "0.0-42.0"}}, {"uniqueid": "MTK0309:3MRNMEIQW6DBCKBSA39I9MWCW6IDLU", "current_trial": 61, "dateTime": 1510703638376, "trialdata": {"rt": -1000, "stimulus": "/static/audio/wordpool/BACON.wav", "key_press": -1, "type": "PRES_AUD", "word": "bacon", "wordID": 66, "conditions": [18, 1200, "a", 18000], "trial": 1, "serialpos": 6, "trial_type": "single-audio", "trial_index": 61, "time_elapsed": 355086, "internal_node_id": "0.0-43.0"}}, {"uniqueid": "MTK0309:3MRNMEIQW6DBCKBSA39I9MWCW6IDLU", "current_trial": 62, "dateTime": 1510703640382, "trialdata": {"rt": -1000, "stimulus": "/static/audio/wordpool/SEAFOOD.wav", "key_press": -1, "type": "PRES_AUD", "word": "seafood", "wordID": 1259, "conditions": [18, 1200, "a", 18000], "trial": 1, "serialpos": 7, "trial_type": "single-audio", "trial_index": 62, "time_elapsed": 357093, "internal_node_id": "0.0-44.0"}}, {"uniqueid": "MTK0309:3MRNMEIQW6DBCKBSA39I9MWCW6IDLU", "current_trial": 63, "dateTime": 1510703642648, "trialdata": {"rt": -1000, "stimulus": "/static/audio/wordpool/PEANUT.wav", "key_press": -1, "type": "PRES_AUD", "word": "peanut", "wordID": 1031, "conditions": [18, 1200, "a", 18000], "trial": 1, "serialpos": 8, "trial_type": "single-audio", "trial_index": 63, "time_elapsed": 359359, "internal_node_id": "0.0-45.0"}}, {"uniqueid": "MTK0309:3MRNMEIQW6DBCKBSA39I9MWCW6IDLU", "current_trial": 64, "dateTime": 1510703644892, "trialdata": {"rt": -1000, "stimulus": "/static/audio/wordpool/SCALLOP.wav", "key_press": -1, "type": "PRES_AUD", "word": "scallop", "wordID": 1241, "conditions": [18, 1200, "a", 18000], "trial": 1, "serialpos": 9, "trial_type": "single-audio", "trial_index": 64, "time_elapsed": 361603, "internal_node_id": "0.0-46.0"}}, {"uniqueid": "MTK0309:3MRNMEIQW6DBCKBSA39I9MWCW6IDLU", "current_trial": 65, "dateTime": 1510703647137, "trialdata": {"rt": -1000, "stimulus": "/static/audio/wordpool/CABBAGE.wav", "key_press": -1, "type": "PRES_AUD", "word": "cabbage", "wordID": 209, "conditions": [18, 1200, "a", 18000], "trial": 1, "serialpos": 10, "trial_type": "single-audio", "trial_index": 65, "time_elapsed": 363848, "internal_node_id": "0.0-47.0"}}, {"uniqueid": "MTK0309:3MRNMEIQW6DBCKBSA39I9MWCW6IDLU", "current_trial": 66, "dateTime": 1510703649204, "trialdata": {"rt": -1000, "stimulus": "/static/audio/wordpool/ANTLER.wav", "key_press": -1, "type": "PRES_AUD", "word": "antler", "wordID": 28, "conditions": [18, 1200, "a", 18000], "trial": 1, "serialpos": 11, "trial_type": "single-audio", "trial_index": 66, "time_elapsed": 365915, "internal_node_id": "0.0-48.0"}}, {"uniqueid": "MTK0309:3MRNMEIQW6DBCKBSA39I9MWCW6IDLU", "current_trial": 67, "dateTime": 1510703651475, "trialdata": {"rt": -1000, "stimulus": "/static/audio/wordpool/DRESSER.wav", "key_press": -1, "type": "PRES_AUD", "word": "dresser", "wordID": 495, "conditions": [18, 1200, "a", 18000], "trial": 1, "serialpos": 12, "trial_type": "single-audio", "trial_index": 67, "time_elapsed": 368186, "internal_node_id": "0.0-49.0"}}, {"uniqueid": "MTK0309:3MRNMEIQW6DBCKBSA39I9MWCW6IDLU", "current_trial": 68, "dateTime": 1510703653660, "trialdata": {"rt": -1000, "stimulus": "/static/audio/wordpool/WASHER.wav", "key_press": -1, "type": "PRES_AUD", "word": "washer", "wordID": 1591, "conditions": [18, 1200, "a", 18000], "trial": 1, "serialpos": 13, "trial_type": "single-audio", "trial_index": 68, "time_elapsed": 370371, "internal_node_id": "0.0-50.0"}}, {"uniqueid": "MTK0309:3MRNMEIQW6DBCKBSA39I9MWCW6IDLU", "current_trial": 69, "dateTime": 1510703655759, "trialdata": {"rt": -1000, "stimulus": "/static/audio/wordpool/DRINK.wav", "key_press": -1, "type": "PRES_AUD", "word": "drink", "wordID": 497, "conditions": [18, 1200, "a", 18000], "trial": 1, "serialpos": 14, "trial_type": "single-audio", "trial_index": 69, "time_elapsed": 372470, "internal_node_id": "0.0-51.0"}}, {"uniqueid": "MTK0309:3MRNMEIQW6DBCKBSA39I9MWCW6IDLU", "current_trial": 70, "dateTime": 1510703657947, "trialdata": {"rt": -1000, "stimulus": "/static/audio/wordpool/JUDGE.wav", "key_press": -1, "type": "PRES_AUD", "word": "judge", "wordID": 760, "conditions": [18, 1200, "a", 18000], "trial": 1, "serialpos": 15, "trial_type": "single-audio", "trial_index": 70, "time_elapsed": 374657, "internal_node_id": "0.0-52.0"}}, {"uniqueid": "MTK0309:3MRNMEIQW6DBCKBSA39I9MWCW6IDLU", "current_trial": 71, "dateTime": 1510703659964, "trialdata": {"rt": -1000, "stimulus": "/static/audio/wordpool/PUDDLE.wav", "key_press": -1, "type": "PRES_AUD", "word": "puddle", "wordID": 1139, "conditions": [18, 1200, "a", 18000], "trial": 1, "serialpos": 16, "trial_type": "single-audio", "trial_index": 71, "time_elapsed": 376675, "internal_node_id": "0.0-53.0"}}, {"uniqueid": "MTK0309:3MRNMEIQW6DBCKBSA39I9MWCW6IDLU", "current_trial": 72, "dateTime": 1510703662289, "trialdata": {"rt": -1000, "stimulus": "/static/audio/wordpool/CHAPEL.wav", "key_press": -1, "type": "PRES_AUD", "word": "chapel", "wordID": 279, "conditions": [18, 1200, "a", 18000], "trial": 1, "serialpos": 17, "trial_type": "single-audio", "trial_index": 72, "time_elapsed": 379000, "internal_node_id": "0.0-54.0"}}, {"uniqueid": "MTK0309:3MRNMEIQW6DBCKBSA39I9MWCW6IDLU", "current_trial": 73, "dateTime": 1510703663619, "trialdata": {"rt": -1, "stimulus": "", "key_press": -1, "type": "PRE_RECALL_DELAY", "trial_type": "single-stim", "trial_index": 73, "time_elapsed": 380330, "internal_node_id": "0.0-55.0-0.0"}}, {"uniqueid": "MTK0309:3MRNMEIQW6DBCKBSA39I9MWCW6IDLU", "current_trial": 74, "dateTime": 1510703664120, "trialdata": {"rt": -1000, "stimulus": "/static/audio/400Hz.wav", "key_press": -1, "type": "PRE_RECALL_ALERT", "trial_type": "single-audio", "trial_index": 74, "time_elapsed": 380831, "internal_node_id": "0.0-56.0"}}, {"uniqueid": "MTK0309:3MRNMEIQW6DBCKBSA39I9MWCW6IDLU", "current_trial": 75, "dateTime": 1510703724127, "trialdata": {"rt": [1790, 5774, 7678, 9958, 13534, 14870, 32446], "recwords": ["asia", "scallop", "judge", "drink", "cabbage", "peanut", "jello"], "type": "FREE_RECALL", "conditions": [18, 1200, "a", 18000], "trial": 1, "trial_type": "free-recall", "trial_index": 75, "time_elapsed": 440835, "internal_node_id": "0.0-57.0-0.0"}}, {"uniqueid": "MTK0309:3MRNMEIQW6DBCKBSA39I9MWCW6IDLU", "current_trial": 76, "dateTime": 1510703728077, "trialdata": {"rt": 1946, "key_press": 85, "type": "INSTRUCTIONS", "trial_type": "text", "trial_index": 76, "time_elapsed": 444784, "internal_node_id": "0.0-58.0"}}, {"uniqueid": "MTK0309:3MRNMEIQW6DBCKBSA39I9MWCW6IDLU", "current_trial": 77, "dateTime": 1510703753081, "trialdata": {"rt": [3024, 4944, 8088, 12136, 16760, 20376, 22680], "responses": ["7", "12", "19", "19", "8", "12", "15"], "num1": [5, 7, 9, 5, 3, 5, 4, 6], "num2": [1, 3, 3, 7, 2, 3, 6, 7], "num3": [1, 2, 7, 8, 3, 4, 5, 3], "type": "DISTRACTOR", "conditions": [12, 800, "v", 24000], "trial": 2, "trial_type": "math-distractor", "trial_index": 77, "time_elapsed": 469792, "internal_node_id": "0.0-59.0"}}, {"uniqueid": "MTK0309:3MRNMEIQW6DBCKBSA39I9MWCW6IDLU", "current_trial": 78, "dateTime": 1510703756083, "trialdata": {"rt": -1, "stimulus": "<p id=\"stim\">10</p>", "key_press": -1, "trial_type": "single-stim", "trial_index": 78, "time_elapsed": 472794, "internal_node_id": "0.0-60.0-0.0"}}, {"uniqueid": "MTK0309:3MRNMEIQW6DBCKBSA39I9MWCW6IDLU", "current_trial": 79, "dateTime": 1510703757084, "trialdata": {"rt": -1, "stimulus": "<p id=\"stim\">9</p>", "key_press": -1, "trial_type": "single-stim", "trial_index": 79, "time_elapsed": 473795, "internal_node_id": "0.0-60.0-1.0"}}, {"uniqueid": "MTK0309:3MRNMEIQW6DBCKBSA39I9MWCW6IDLU", "current_trial": 80, "dateTime": 1510703758084, "trialdata": {"rt": -1, "stimulus": "<p id=\"stim\">8</p>", "key_press": -1, "trial_type": "single-stim", "trial_index": 80, "time_elapsed": 474795, "internal_node_id": "0.0-60.0-2.0"}}, {"uniqueid": "MTK0309:3MRNMEIQW6DBCKBSA39I9MWCW6IDLU", "current_trial": 81, "dateTime": 1510703759088, "trialdata": {"rt": -1, "stimulus": "<p id=\"stim\">7</p>", "key_press": -1, "trial_type": "single-stim", "trial_index": 81, "time_elapsed": 475799, "internal_node_id": "0.0-60.0-3.0"}}, {"uniqueid": "MTK0309:3MRNMEIQW6DBCKBSA39I9MWCW6IDLU", "current_trial": 82, "dateTime": 1510703760089, "trialdata": {"rt": -1, "stimulus": "<p id=\"stim\">6</p>", "key_press": -1, "trial_type": "single-stim", "trial_index": 82, "time_elapsed": 476800, "internal_node_id": "0.0-60.0-4.0"}}, {"uniqueid": "MTK0309:3MRNMEIQW6DBCKBSA39I9MWCW6IDLU", "current_trial": 83, "dateTime": 1510703761089, "trialdata": {"rt": -1, "stimulus": "<p id=\"stim\">5</p>", "key_press": -1, "trial_type": "single-stim", "trial_index": 83, "time_elapsed": 477800, "internal_node_id": "0.0-60.0-5.0"}}, {"uniqueid": "MTK0309:3MRNMEIQW6DBCKBSA39I9MWCW6IDLU", "current_trial": 84, "dateTime": 1510703762091, "trialdata": {"rt": -1, "stimulus": "<p id=\"stim\">4</p>", "key_press": -1, "trial_type": "single-stim", "trial_index": 84, "time_elapsed": 478802, "internal_node_id": "0.0-60.0-6.0"}}, {"uniqueid": "MTK0309:3MRNMEIQW6DBCKBSA39I9MWCW6IDLU", "current_trial": 85, "dateTime": 1510703763094, "trialdata": {"rt": -1, "stimulus": "<p id=\"stim\">3</p>", "key_press": -1, "trial_type": "single-stim", "trial_index": 85, "time_elapsed": 479804, "internal_node_id": "0.0-60.0-7.0"}}, {"uniqueid": "MTK0309:3MRNMEIQW6DBCKBSA39I9MWCW6IDLU", "current_trial": 86, "dateTime": 1510703764095, "trialdata": {"rt": -1, "stimulus": "<p id=\"stim\">2</p>", "key_press": -1, "trial_type": "single-stim", "trial_index": 86, "time_elapsed": 480806, "internal_node_id": "0.0-60.0-8.0"}}, {"uniqueid": "MTK0309:3MRNMEIQW6DBCKBSA39I9MWCW6IDLU", "current_trial": 87, "dateTime": 1510703765096, "trialdata": {"rt": -1, "stimulus": "<p id=\"stim\">1</p>", "key_press": -1, "trial_type": "single-stim", "trial_index": 87, "time_elapsed": 481807, "internal_node_id": "0.0-60.0-9.0"}}, {"uniqueid": "MTK0309:3MRNMEIQW6DBCKBSA39I9MWCW6IDLU", "current_trial": 88, "dateTime": 1510703766597, "trialdata": {"rt": -1, "stimulus": "<p id=\"stim\">+</p>", "key_press": -1, "type": "FIXATION", "trial_type": "single-stim", "trial_index": 88, "time_elapsed": 483307, "internal_node_id": "0.0-61.0-0.0"}}, {"uniqueid": "MTK0309:3MRNMEIQW6DBCKBSA39I9MWCW6IDLU", "current_trial": 89, "dateTime": 1510703767397, "trialdata": {"rt": -1, "stimulus": "<p id=\"stim\">PRINCESS</p>", "key_press": -1, "type": "PRES_VIS", "word": "princess", "wordID": 1124, "conditions": [12, 800, "v", 24000], "trial": 2, "serialpos": 0, "trial_type": "single-stim", "trial_index": 89, "time_elapsed": 484108, "internal_node_id": "0.0-62.0"}}, {"uniqueid": "MTK0309:3MRNMEIQW6DBCKBSA39I9MWCW6IDLU", "current_trial": 90, "dateTime": 1510703769029, "trialdata": {"rt": -1, "stimulus": "<p id=\"stim\">SPOOL</p>", "key_press": -1, "type": "PRES_VIS", "word": "spool", "wordID": 1355, "conditions": [12, 800, "v", 24000], "trial": 2, "serialpos": 1, "trial_type": "single-stim", "trial_index": 90, "time_elapsed": 485740, "internal_node_id": "0.0-63.0"}}, {"uniqueid": "MTK0309:3MRNMEIQW6DBCKBSA39I9MWCW6IDLU", "current_trial": 91, "dateTime": 1510703770817, "trialdata": {"rt": -1, "stimulus": "<p id=\"stim\">TWEEZERS</p>", "key_press": -1, "type": "PRES_VIS", "word": "tweezers", "wordID": 1525, "conditions": [12, 800, "v", 24000], "trial": 2, "serialpos": 2, "trial_type": "single-stim", "trial_index": 91, "time_elapsed": 487528, "internal_node_id": "0.0-64.0"}}, {"uniqueid": "MTK0309:3MRNMEIQW6DBCKBSA39I9MWCW6IDLU", "current_trial": 92, "dateTime": 1510703772472, "trialdata": {"rt": -1, "stimulus": "<p id=\"stim\">PLIERS</p>", "key_press": -1, "type": "PRES_VIS", "word": "pliers", "wordID": 1088, "conditions": [12, 800, "v", 24000], "trial": 2, "serialpos": 3, "trial_type": "single-stim", "trial_index": 92, "time_elapsed": 489183, "internal_node_id": "0.0-65.0"}}, {"uniqueid": "MTK0309:3MRNMEIQW6DBCKBSA39I9MWCW6IDLU", "current_trial": 93, "dateTime": 1510703774229, "trialdata": {"rt": -1, "stimulus": "<p id=\"stim\">ICEBERG</p>", "key_press": -1, "type": "PRES_VIS", "word": "iceberg", "wordID": 730, "conditions": [12, 800, "v", 24000], "trial": 2, "serialpos": 4, "trial_type": "single-stim", "trial_index": 93, "time_elapsed": 490940, "internal_node_id": "0.0-66.0"}}, {"uniqueid": "MTK0309:3MRNMEIQW6DBCKBSA39I9MWCW6IDLU", "current_trial": 94, "dateTime": 1510703776186, "trialdata": {"rt": -1, "stimulus": "<p id=\"stim\">PEBBLE</p>", "key_press": -1, "type": "PRES_VIS", "word": "pebble", "wordID": 1034, "conditions": [12, 800, "v", 24000], "trial": 2, "serialpos": 5, "trial_type": "single-stim", "trial_index": 94, "time_elapsed": 492897, "internal_node_id": "0.0-67.0"}}, {"uniqueid": "MTK0309:3MRNMEIQW6DBCKBSA39I9MWCW6IDLU", "current_trial": 95, "dateTime": 1510703778150, "trialdata": {"rt": -1, "stimulus": "<p id=\"stim\">LILY</p>", "key_press": -1, "type": "PRES_VIS", "word": "lily", "wordID": 820, "conditions": [12, 800, "v", 24000], "trial": 2, "serialpos": 6, "trial_type": "single-stim", "trial_index": 95, "time_elapsed": 494861, "internal_node_id": "0.0-68.0"}}, {"uniqueid": "MTK0309:3MRNMEIQW6DBCKBSA39I9MWCW6IDLU", "current_trial": 96, "dateTime": 1510703779797, "trialdata": {"rt": -1, "stimulus": "<p id=\"stim\">STICKER</p>", "key_press": -1, "type": "PRES_VIS", "word": "sticker", "wordID": 1381, "conditions": [12, 800, "v", 24000], "trial": 2, "serialpos": 7, "trial_type": "single-stim", "trial_index": 96, "time_elapsed": 496508, "internal_node_id": "0.0-69.0"}}, {"uniqueid": "MTK0309:3MRNMEIQW6DBCKBSA39I9MWCW6IDLU", "current_trial": 97, "dateTime": 1510703781596, "trialdata": {"rt": -1, "stimulus": "<p id=\"stim\">LAMP</p>", "key_press": -1, "type": "PRES_VIS", "word": "lamp", "wordID": 797, "conditions": [12, 800, "v", 24000], "trial": 2, "serialpos": 8, "trial_type": "single-stim", "trial_index": 97, "time_elapsed": 498307, "internal_node_id": "0.0-70.0"}}, {"uniqueid": "MTK0309:3MRNMEIQW6DBCKBSA39I9MWCW6IDLU", "current_trial": 98, "dateTime": 1510703783212, "trialdata": {"rt": -1, "stimulus": "<p id=\"stim\">SPACE</p>", "key_press": -1, "type": "PRES_VIS", "word": "space", "wordID": 1344, "conditions": [12, 800, "v", 24000], "trial": 2, "serialpos": 9, "trial_type": "single-stim", "trial_index": 98, "time_elapsed": 499923, "internal_node_id": "0.0-71.0"}}, {"uniqueid": "MTK0309:3MRNMEIQW6DBCKBSA39I9MWCW6IDLU", "current_trial": 99, "dateTime": 1510703785192, "trialdata": {"rt": -1, "stimulus": "<p id=\"stim\">BADGE</p>", "key_press": -1, "type": "PRES_VIS", "word": "badge", "wordID": 67, "conditions": [12, 800, "v", 24000], "trial": 2, "serialpos": 10, "trial_type": "single-stim", "trial_index": 99, "time_elapsed": 501902, "internal_node_id": "0.0-72.0"}}, {"uniqueid": "MTK0309:3MRNMEIQW6DBCKBSA39I9MWCW6IDLU", "current_trial": 100, "dateTime": 1510703786885, "trialdata": {"rt": -1, "stimulus": "<p id=\"stim\">SERVANT</p>", "key_press": -1, "type": "PRES_VIS", "word": "servant", "wordID": 1270, "conditions": [12, 800, "v", 24000], "trial": 2, "serialpos": 11, "trial_type": "single-stim", "trial_index": 100, "time_elapsed": 503596, "internal_node_id": "0.0-73.0"}}, {"uniqueid": "MTK0309:3MRNMEIQW6DBCKBSA39I9MWCW6IDLU", "current_trial": 101, "dateTime": 1510703789126, "trialdata": {"rt": -1, "stimulus": "", "key_press": -1, "type": "PRE_RECALL_DELAY", "trial_type": "single-stim", "trial_index": 101, "time_elapsed": 505837, "internal_node_id": "0.0-74.0-0.0"}}, {"uniqueid": "MTK0309:3MRNMEIQW6DBCKBSA39I9MWCW6IDLU", "current_trial": 102, "dateTime": 1510703789628, "trialdata": {"rt": -1000, "stimulus": "/static/audio/400Hz.wav", "key_press": -1, "type": "PRE_RECALL_ALERT", "trial_type": "single-audio", "trial_index": 102, "time_elapsed": 506339, "internal_node_id": "0.0-75.0"}}, {"uniqueid": "MTK0309:3MRNMEIQW6DBCKBSA39I9MWCW6IDLU", "current_trial": 103, "dateTime": 1510703849633, "trialdata": {"rt": [3275, 5261, 6643, 10779, 14483], "recwords": ["pebble", "lamp", "lily", "spool", "tweezers"], "type": "FREE_RECALL", "conditions": [12, 800, "v", 24000], "trial": 2, "trial_type": "free-recall", "trial_index": 103, "time_elapsed": 566342, "internal_node_id": "0.0-76.0-0.0"}}, {"uniqueid": "MTK0309:3MRNMEIQW6DBCKBSA39I9MWCW6IDLU", "current_trial": 104, "dateTime": 1510703852856, "trialdata": {"rt": 1222, "key_press": 70, "type": "INSTRUCTIONS", "trial_type": "text", "trial_index": 104, "time_elapsed": 569567, "internal_node_id": "0.0-77.0"}}, {"uniqueid": "MTK0309:3MRNMEIQW6DBCKBSA39I9MWCW6IDLU", "current_trial": 105, "dateTime": 1510703878861, "trialdata": {"rt": [2349, 5165, 9485, 12365, 15101, 22645], "responses": ["6", "18", "12", "15", "18", "15"], "num1": [2, 9, 4, 5, 8, 3, 5], "num2": [2, 3, 1, 4, 6, 9, 5], "num3": [2, 6, 7, 6, 4, 3, 8], "type": "DISTRACTOR", "conditions": [24, 1600, "v", 24000], "trial": 3, "trial_type": "math-distractor", "trial_index": 105, "time_elapsed": 595572, "internal_node_id": "0.0-78.0"}}, {"uniqueid": "MTK0309:3MRNMEIQW6DBCKBSA39I9MWCW6IDLU", "current_trial": 106, "dateTime": 1510703881861, "trialdata": {"rt": -1, "stimulus": "<p id=\"stim\">10</p>", "key_press": -1, "trial_type": "single-stim", "trial_index": 106, "time_elapsed": 598572, "internal_node_id": "0.0-79.0-0.0"}}, {"uniqueid": "MTK0309:3MRNMEIQW6DBCKBSA39I9MWCW6IDLU", "current_trial": 107, "dateTime": 1510703882862, "trialdata": {"rt": -1, "stimulus": "<p id=\"stim\">9</p>", "key_press": -1, "trial_type": "single-stim", "trial_index": 107, "time_elapsed": 599573, "internal_node_id": "0.0-79.0-1.0"}}, {"uniqueid": "MTK0309:3MRNMEIQW6DBCKBSA39I9MWCW6IDLU", "current_trial": 108, "dateTime": 1510703883863, "trialdata": {"rt": -1, "stimulus": "<p id=\"stim\">8</p>", "key_press": -1, "trial_type": "single-stim", "trial_index": 108, "time_elapsed": 600574, "internal_node_id": "0.0-79.0-2.0"}}, {"uniqueid": "MTK0309:3MRNMEIQW6DBCKBSA39I9MWCW6IDLU", "current_trial": 109, "dateTime": 1510703884864, "trialdata": {"rt": -1, "stimulus": "<p id=\"stim\">7</p>", "key_press": -1, "trial_type": "single-stim", "trial_index": 109, "time_elapsed": 601574, "internal_node_id": "0.0-79.0-3.0"}}, {"uniqueid": "MTK0309:3MRNMEIQW6DBCKBSA39I9MWCW6IDLU", "current_trial": 110, "dateTime": 1510703885864, "trialdata": {"rt": -1, "stimulus": "<p id=\"stim\">6</p>", "key_press": -1, "trial_type": "single-stim", "trial_index": 110, "time_elapsed": 602575, "internal_node_id": "0.0-79.0-4.0"}}, {"uniqueid": "MTK0309:3MRNMEIQW6DBCKBSA39I9MWCW6IDLU", "current_trial": 111, "dateTime": 1510703886865, "trialdata": {"rt": -1, "stimulus": "<p id=\"stim\">5</p>", "key_press": -1, "trial_type": "single-stim", "trial_index": 111, "time_elapsed": 603576, "internal_node_id": "0.0-79.0-5.0"}}, {"uniqueid": "MTK0309:3MRNMEIQW6DBCKBSA39I9MWCW6IDLU", "current_trial": 112, "dateTime": 1510703887866, "trialdata": {"rt": -1, "stimulus": "<p id=\"stim\">4</p>", "key_press": -1, "trial_type": "single-stim", "trial_index": 112, "time_elapsed": 604577, "internal_node_id": "0.0-79.0-6.0"}}, {"uniqueid": "MTK0309:3MRNMEIQW6DBCKBSA39I9MWCW6IDLU", "current_trial": 113, "dateTime": 1510703888866, "trialdata": {"rt": -1, "stimulus": "<p id=\"stim\">3</p>", "key_press": -1, "trial_type": "single-stim", "trial_index": 113, "time_elapsed": 605577, "internal_node_id": "0.0-79.0-7.0"}}, {"uniqueid": "MTK0309:3MRNMEIQW6DBCKBSA39I9MWCW6IDLU", "current_trial": 114, "dateTime": 1510703889867, "trialdata": {"rt": -1, "stimulus": "<p id=\"stim\">2</p>", "key_press": -1, "trial_type": "single-stim", "trial_index": 114, "time_elapsed": 606578, "internal_node_id": "0.0-79.0-8.0"}}, {"uniqueid": "MTK0309:3MRNMEIQW6DBCKBSA39I9MWCW6IDLU", "current_trial": 115, "dateTime": 1510703890868, "trialdata": {"rt": -1, "stimulus": "<p id=\"stim\">1</p>", "key_press": -1, "trial_type": "single-stim", "trial_index": 115, "time_elapsed": 607579, "internal_node_id": "0.0-79.0-9.0"}}, {"uniqueid": "MTK0309:3MRNMEIQW6DBCKBSA39I9MWCW6IDLU", "current_trial": 116, "dateTime": 1510703892369, "trialdata": {"rt": -1, "stimulus": "<p id=\"stim\">+</p>", "key_press": -1, "type": "FIXATION", "trial_type": "single-stim", "trial_index": 116, "time_elapsed": 609080, "internal_node_id": "0.0-80.0-0.0"}}, {"uniqueid": "MTK0309:3MRNMEIQW6DBCKBSA39I9MWCW6IDLU", "current_trial": 117, "dateTime": 1510703893970, "trialdata": {"rt": -1, "stimulus": "<p id=\"stim\">PERFUME</p>", "key_press": -1, "type": "PRES_VIS", "word": "perfume", "wordID": 1048, "conditions": [24, 1600, "v", 24000], "trial": 3, "serialpos": 0, "trial_type": "single-stim", "trial_index": 117, "time_elapsed": 610680, "internal_node_id": "0.0-81.0"}}, {"uniqueid": "MTK0309:3MRNMEIQW6DBCKBSA39I9MWCW6IDLU", "current_trial": 118, "dateTime": 1510703896404, "trialdata": {"rt": -1, "stimulus": "<p id=\"stim\">RIFLE</p>", "key_press": -1, "type": "PRES_VIS", "word": "rifle", "wordID": 1191, "conditions": [24, 1600, "v", 24000], "trial": 3, "serialpos": 1, "trial_type": "single-stim", "trial_index": 118, "time_elapsed": 613115, "internal_node_id": "0.0-82.0"}}, {"uniqueid": "MTK0309:3MRNMEIQW6DBCKBSA39I9MWCW6IDLU", "current_trial": 119, "dateTime": 1510703899056, "trialdata": {"rt": -1, "stimulus": "<p id=\"stim\">BRIEFCASE</p>", "key_press": -1, "type": "PRES_VIS", "word": "briefcase", "wordID": 174, "conditions": [24, 1600, "v", 24000], "trial": 3, "serialpos": 2, "trial_type": "single-stim", "trial_index": 119, "time_elapsed": 615767, "internal_node_id": "0.0-83.0"}}, {"uniqueid": "MTK0309:3MRNMEIQW6DBCKBSA39I9MWCW6IDLU", "current_trial": 120, "dateTime": 1510703901572, "trialdata": {"rt": -1, "stimulus": "<p id=\"stim\">POCKET</p>", "key_press": -1, "type": "PRES_VIS", "word": "pocket", "wordID": 1092, "conditions": [24, 1600, "v", 24000], "trial": 3, "serialpos": 3, "trial_type": "single-stim", "trial_index": 120, "time_elapsed": 618283, "internal_node_id": "0.0-84.0"}}, {"uniqueid": "MTK0309:3MRNMEIQW6DBCKBSA39I9MWCW6IDLU", "current_trial": 121, "dateTime": 1510703904064, "trialdata": {"rt": -1, "stimulus": "<p id=\"stim\">FRAGRANCE</p>", "key_press": -1, "type": "PRES_VIS", "word": "fragrance", "wordID": 598, "conditions": [24, 1600, "v", 24000], "trial": 3, "serialpos": 4, "trial_type": "single-stim", "trial_index": 121, "time_elapsed": 620774, "internal_node_id": "0.0-85.0"}}, {"uniqueid": "MTK0309:3MRNMEIQW6DBCKBSA39I9MWCW6IDLU", "current_trial": 122, "dateTime": 1510703906701, "trialdata": {"rt": -1, "stimulus": "<p id=\"stim\">BEEF</p>", "key_press": -1, "type": "PRES_VIS", "word": "beef", "wordID": 112, "conditions": [24, 1600, "v", 24000], "trial": 3, "serialpos": 5, "trial_type": "single-stim", "trial_index": 122, "time_elapsed": 623411, "internal_node_id": "0.0-86.0"}}, {"uniqueid": "MTK0309:3MRNMEIQW6DBCKBSA39I9MWCW6IDLU", "current_trial": 123, "dateTime": 1510703909261, "trialdata": {"rt": -1, "stimulus": "<p id=\"stim\">DONKEY</p>", "key_press": -1, "type": "PRES_VIS", "word": "donkey", "wordID": 483, "conditions": [24, 1600, "v", 24000], "trial": 3, "serialpos": 6, "trial_type": "single-stim", "trial_index": 123, "time_elapsed": 625972, "internal_node_id": "0.0-87.0"}}, {"uniqueid": "MTK0309:3MRNMEIQW6DBCKBSA39I9MWCW6IDLU", "current_trial": 124, "dateTime": 1510703911708, "trialdata": {"rt": -1, "stimulus": "<p id=\"stim\">SLOPE</p>", "key_press": -1, "type": "PRES_VIS", "word": "slope", "wordID": 1327, "conditions": [24, 1600, "v", 24000], "trial": 3, "serialpos": 7, "trial_type": "single-stim", "trial_index": 124, "time_elapsed": 628419, "internal_node_id": "0.0-88.0"}}, {"uniqueid": "MTK0309:3MRNMEIQW6DBCKBSA39I9MWCW6IDLU", "current_trial": 125, "dateTime": 1510703914374, "trialdata": {"rt": -1, "stimulus": "<p id=\"stim\">COOK</p>", "key_press": -1, "type": "PRES_VIS", "word": "cook", "wordID": 371, "conditions": [24, 1600, "v", 24000], "trial": 3, "serialpos": 8, "trial_type": "single-stim", "trial_index": 125, "time_elapsed": 631085, "internal_node_id": "0.0-89.0"}}, {"uniqueid": "MTK0309:3MRNMEIQW6DBCKBSA39I9MWCW6IDLU", "current_trial": 126, "dateTime": 1510703916921, "trialdata": {"rt": -1, "stimulus": "<p id=\"stim\">HUSBAND</p>", "key_press": -1, "type": "PRES_VIS", "word": "husband", "wordID": 727, "conditions": [24, 1600, "v", 24000], "trial": 3, "serialpos": 9, "trial_type": "single-stim", "trial_index": 126, "time_elapsed": 633632, "internal_node_id": "0.0-90.0"}}, {"uniqueid": "MTK0309:3MRNMEIQW6DBCKBSA39I9MWCW6IDLU", "current_trial": 127, "dateTime": 1510703919495, "trialdata": {"rt": -1, "stimulus": "<p id=\"stim\">CONVICT</p>", "key_press": -1, "type": "PRES_VIS", "word": "convict", "wordID": 370, "conditions": [24, 1600, "v", 24000], "trial": 3, "serialpos": 10, "trial_type": "single-stim", "trial_index": 127, "time_elapsed": 636205, "internal_node_id": "0.0-91.0"}}, {"uniqueid": "MTK0309:3MRNMEIQW6DBCKBSA39I9MWCW6IDLU", "current_trial": 128, "dateTime": 1510703921945, "trialdata": {"rt": -1, "stimulus": "<p id=\"stim\">PARSLEY</p>", "key_press": -1, "type": "PRES_VIS", "word": "parsley", "wordID": 1015, "conditions": [24, 1600, "v", 24000], "trial": 3, "serialpos": 11, "trial_type": "single-stim", "trial_index": 128, "time_elapsed": 638655, "internal_node_id": "0.0-92.0"}}, {"uniqueid": "MTK0309:3MRNMEIQW6DBCKBSA39I9MWCW6IDLU", "current_trial": 129, "dateTime": 1510703924695, "trialdata": {"rt": -1, "stimulus": "<p id=\"stim\">SPARROW</p>", "key_press": -1, "type": "PRES_VIS", "word": "sparrow", "wordID": 1346, "conditions": [24, 1600, "v", 24000], "trial": 3, "serialpos": 12, "trial_type": "single-stim", "trial_index": 129, "time_elapsed": 641406, "internal_node_id": "0.0-93.0"}}, {"uniqueid": "MTK0309:3MRNMEIQW6DBCKBSA39I9MWCW6IDLU", "current_trial": 130, "dateTime": 1510703927318, "trialdata": {"rt": -1, "stimulus": "<p id=\"stim\">HATCHET</p>", "key_press": -1, "type": "PRES_VIS", "word": "hatchet", "wordID": 690, "conditions": [24, 1600, "v", 24000], "trial": 3, "serialpos": 13, "trial_type": "single-stim", "trial_index": 130, "time_elapsed": 644029, "internal_node_id": "0.0-94.0"}}, {"uniqueid": "MTK0309:3MRNMEIQW6DBCKBSA39I9MWCW6IDLU", "current_trial": 131, "dateTime": 1510703929832, "trialdata": {"rt": -1, "stimulus": "<p id=\"stim\">SEAGULL</p>", "key_press": -1, "type": "PRES_VIS", "word": "seagull", "wordID": 1260, "conditions": [24, 1600, "v", 24000], "trial": 3, "serialpos": 14, "trial_type": "single-stim", "trial_index": 131, "time_elapsed": 646542, "internal_node_id": "0.0-95.0"}}, {"uniqueid": "MTK0309:3MRNMEIQW6DBCKBSA39I9MWCW6IDLU", "current_trial": 132, "dateTime": 1510703932269, "trialdata": {"rt": -1, "stimulus": "<p id=\"stim\">INFANT</p>", "key_press": -1, "type": "PRES_VIS", "word": "infant", "wordID": 736, "conditions": [24, 1600, "v", 24000], "trial": 3, "serialpos": 15, "trial_type": "single-stim", "trial_index": 132, "time_elapsed": 648980, "internal_node_id": "0.0-96.0"}}, {"uniqueid": "MTK0309:3MRNMEIQW6DBCKBSA39I9MWCW6IDLU", "current_trial": 133, "dateTime": 1510703934976, "trialdata": {"rt": -1, "stimulus": "<p id=\"stim\">STUDENT</p>", "key_press": -1, "type": "PRES_VIS", "word": "student", "wordID": 1394, "conditions": [24, 1600, "v", 24000], "trial": 3, "serialpos": 16, "trial_type": "single-stim", "trial_index": 133, "time_elapsed": 651687, "internal_node_id": "0.0-97.0"}}, {"uniqueid": "MTK0309:3MRNMEIQW6DBCKBSA39I9MWCW6IDLU", "current_trial": 134, "dateTime": 1510703937652, "trialdata": {"rt": -1, "stimulus": "<p id=\"stim\">COLLEGE</p>", "key_press": -1, "type": "PRES_VIS", "word": "college", "wordID": 345, "conditions": [24, 1600, "v", 24000], "trial": 3, "serialpos": 17, "trial_type": "single-stim", "trial_index": 134, "time_elapsed": 654363, "internal_node_id": "0.0-98.0"}}, {"uniqueid": "MTK0309:3MRNMEIQW6DBCKBSA39I9MWCW6IDLU", "current_trial": 135, "dateTime": 1510703940123, "trialdata": {"rt": -1, "stimulus": "<p id=\"stim\">WORLD</p>", "key_press": -1, "type": "PRES_VIS", "word": "world", "wordID": 1621, "conditions": [24, 1600, "v", 24000], "trial": 3, "serialpos": 18, "trial_type": "single-stim", "trial_index": 135, "time_elapsed": 656834, "internal_node_id": "0.0-99.0"}}, {"uniqueid": "MTK0309:3MRNMEIQW6DBCKBSA39I9MWCW6IDLU", "current_trial": 136, "dateTime": 1510703942697, "trialdata": {"rt": -1, "stimulus": "<p id=\"stim\">DIVER</p>", "key_press": -1, "type": "PRES_VIS", "word": "diver", "wordID": 475, "conditions": [24, 1600, "v", 24000], "trial": 3, "serialpos": 19, "trial_type": "single-stim", "trial_index": 136, "time_elapsed": 659408, "internal_node_id": "0.0-100.0"}}, {"uniqueid": "MTK0309:3MRNMEIQW6DBCKBSA39I9MWCW6IDLU", "current_trial": 137, "dateTime": 1510703945180, "trialdata": {"rt": -1, "stimulus": "<p id=\"stim\">CHILD</p>", "key_press": -1, "type": "PRES_VIS", "word": "child", "wordID": 298, "conditions": [24, 1600, "v", 24000], "trial": 3, "serialpos": 20, "trial_type": "single-stim", "trial_index": 137, "time_elapsed": 661891, "internal_node_id": "0.0-101.0"}}, {"uniqueid": "MTK0309:3MRNMEIQW6DBCKBSA39I9MWCW6IDLU", "current_trial": 138, "dateTime": 1510703947850, "trialdata": {"rt": -1, "stimulus": "<p id=\"stim\">HARP</p>", "key_press": -1, "type": "PRES_VIS", "word": "harp", "wordID": 688, "conditions": [24, 1600, "v", 24000], "trial": 3, "serialpos": 21, "trial_type": "single-stim", "trial_index": 138, "time_elapsed": 664561, "internal_node_id": "0.0-102.0"}}, {"uniqueid": "MTK0309:3MRNMEIQW6DBCKBSA39I9MWCW6IDLU", "current_trial": 139, "dateTime": 1510703950273, "trialdata": {"rt": -1, "stimulus": "<p id=\"stim\">CHIPMUNK</p>", "key_press": -1, "type": "PRES_VIS", "word": "chipmunk", "wordID": 303, "conditions": [24, 1600, "v", 24000], "trial": 3, "serialpos": 22, "trial_type": "single-stim", "trial_index": 139, "time_elapsed": 666984, "internal_node_id": "0.0-103.0"}}, {"uniqueid": "MTK0309:3MRNMEIQW6DBCKBSA39I9MWCW6IDLU", "current_trial": 140, "dateTime": 1510703952957, "trialdata": {"rt": -1, "stimulus": "<p id=\"stim\">SNACK</p>", "key_press": -1, "type": "PRES_VIS", "word": "snack", "wordID": 1330, "conditions": [24, 1600, "v", 24000], "trial": 3, "serialpos": 23, "trial_type": "single-stim", "trial_index": 140, "time_elapsed": 669668, "internal_node_id": "0.0-104.0"}}, {"uniqueid": "MTK0309:3MRNMEIQW6DBCKBSA39I9MWCW6IDLU", "current_trial": 141, "dateTime": 1510703955348, "trialdata": {"rt": -1, "stimulus": "", "key_press": -1, "type": "PRE_RECALL_DELAY", "trial_type": "single-stim", "trial_index": 141, "time_elapsed": 672059, "internal_node_id": "0.0-105.0-0.0"}}, {"uniqueid": "MTK0309:3MRNMEIQW6DBCKBSA39I9MWCW6IDLU", "current_trial": 142, "dateTime": 1510703955849, "trialdata": {"rt": -1000, "stimulus": "/static/audio/400Hz.wav", "key_press": -1, "type": "PRE_RECALL_ALERT", "trial_type": "single-audio", "trial_index": 142, "time_elapsed": 672560, "internal_node_id": "0.0-106.0"}}, {"uniqueid": "MTK0309:3MRNMEIQW6DBCKBSA39I9MWCW6IDLU", "current_trial": 143, "dateTime": 1510704015853, "trialdata": {"rt": [2558, 6902, 10422, 11542, 13750, 15102, 20814, 26630, 57262], "recwords": ["snack", "chipmunk", "donkey", "beef", "husband", "infant", "college", "student", "cook"], "type": "FREE_RECALL", "conditions": [24, 1600, "v", 24000], "trial": 3, "trial_type": "free-recall", "trial_index": 143, "time_elapsed": 732562, "internal_node_id": "0.0-107.0-0.0"}}, {"uniqueid": "MTK0309:3MRNMEIQW6DBCKBSA39I9MWCW6IDLU", "current_trial": 144, "dateTime": 1510704018648, "trialdata": {"rt": 794, "key_press": 70, "type": "INSTRUCTIONS", "trial_type": "text", "trial_index": 144, "time_elapsed": 735359, "internal_node_id": "0.0-108.0"}}, {"uniqueid": "MTK0309:3MRNMEIQW6DBCKBSA39I9MWCW6IDLU", "current_trial": 145, "dateTime": 1510704032651, "trialdata": {"rt": [2318, 4246, 7110, 9422, 11766], "responses": ["17", "18", "15", "15", "18"], "num1": [1, 8, 4, 5, 9, 7], "num2": [7, 2, 7, 7, 2, 9], "num3": [9, 8, 4, 3, 7, 8], "type": "DISTRACTOR", "conditions": [24, 800, "v", 12000], "trial": 4, "trial_type": "math-distractor", "trial_index": 145, "time_elapsed": 749362, "internal_node_id": "0.0-109.0"}}, {"uniqueid": "MTK0309:3MRNMEIQW6DBCKBSA39I9MWCW6IDLU", "current_trial": 146, "dateTime": 1510704035653, "trialdata": {"rt": -1, "stimulus": "<p id=\"stim\">10</p>", "key_press": -1, "trial_type": "single-stim", "trial_index": 146, "time_elapsed": 752363, "internal_node_id": "0.0-110.0-0.0"}}, {"uniqueid": "MTK0309:3MRNMEIQW6DBCKBSA39I9MWCW6IDLU", "current_trial": 147, "dateTime": 1510704036653, "trialdata": {"rt": -1, "stimulus": "<p id=\"stim\">9</p>", "key_press": -1, "trial_type": "single-stim", "trial_index": 147, "time_elapsed": 753364, "internal_node_id": "0.0-110.0-1.0"}}, {"uniqueid": "MTK0309:3MRNMEIQW6DBCKBSA39I9MWCW6IDLU", "current_trial": 148, "dateTime": 1510704037653, "trialdata": {"rt": -1, "stimulus": "<p id=\"stim\">8</p>", "key_press": -1, "trial_type": "single-stim", "trial_index": 148, "time_elapsed": 754364, "internal_node_id": "0.0-110.0-2.0"}}, {"uniqueid": "MTK0309:3MRNMEIQW6DBCKBSA39I9MWCW6IDLU", "current_trial": 149, "dateTime": 1510704038654, "trialdata": {"rt": -1, "stimulus": "<p id=\"stim\">7</p>", "key_press": -1, "trial_type": "single-stim", "trial_index": 149, "time_elapsed": 755365, "internal_node_id": "0.0-110.0-3.0"}}, {"uniqueid": "MTK0309:3MRNMEIQW6DBCKBSA39I9MWCW6IDLU", "current_trial": 150, "dateTime": 1510704039654, "trialdata": {"rt": -1, "stimulus": "<p id=\"stim\">6</p>", "key_press": -1, "trial_type": "single-stim", "trial_index": 150, "time_elapsed": 756365, "internal_node_id": "0.0-110.0-4.0"}}, {"uniqueid": "MTK0309:3MRNMEIQW6DBCKBSA39I9MWCW6IDLU", "current_trial": 151, "dateTime": 1510704040656, "trialdata": {"rt": -1, "stimulus": "<p id=\"stim\">5</p>", "key_press": -1, "trial_type": "single-stim", "trial_index": 151, "time_elapsed": 757367, "internal_node_id": "0.0-110.0-5.0"}}, {"uniqueid": "MTK0309:3MRNMEIQW6DBCKBSA39I9MWCW6IDLU", "current_trial": 152, "dateTime": 1510704041657, "trialdata": {"rt": -1, "stimulus": "<p id=\"stim\">4</p>", "key_press": -1, "trial_type": "single-stim", "trial_index": 152, "time_elapsed": 758368, "internal_node_id": "0.0-110.0-6.0"}}, {"uniqueid": "MTK0309:3MRNMEIQW6DBCKBSA39I9MWCW6IDLU", "current_trial": 153, "dateTime": 1510704042658, "trialdata": {"rt": -1, "stimulus": "<p id=\"stim\">3</p>", "key_press": -1, "trial_type": "single-stim", "trial_index": 153, "time_elapsed": 759369, "internal_node_id": "0.0-110.0-7.0"}}, {"uniqueid": "MTK0309:3MRNMEIQW6DBCKBSA39I9MWCW6IDLU", "current_trial": 154, "dateTime": 1510704043659, "trialdata": {"rt": -1, "stimulus": "<p id=\"stim\">2</p>", "key_press": -1, "trial_type": "single-stim", "trial_index": 154, "time_elapsed": 760370, "internal_node_id": "0.0-110.0-8.0"}}, {"uniqueid": "MTK0309:3MRNMEIQW6DBCKBSA39I9MWCW6IDLU", "current_trial": 155, "dateTime": 1510704044660, "trialdata": {"rt": -1, "stimulus": "<p id=\"stim\">1</p>", "key_press": -1, "trial_type": "single-stim", "trial_index": 155, "time_elapsed": 761371, "internal_node_id": "0.0-110.0-9.0"}}, {"uniqueid": "MTK0309:3MRNMEIQW6DBCKBSA39I9MWCW6IDLU", "current_trial": 156, "dateTime": 1510704046161, "trialdata": {"rt": -1, "stimulus": "<p id=\"stim\">+</p>", "key_press": -1, "type": "FIXATION", "trial_type": "single-stim", "trial_index": 156, "time_elapsed": 762871, "internal_node_id": "0.0-111.0-0.0"}}, {"uniqueid": "MTK0309:3MRNMEIQW6DBCKBSA39I9MWCW6IDLU", "current_trial": 157, "dateTime": 1510704046962, "trialdata": {"rt": -1, "stimulus": "<p id=\"stim\">BACKBONE</p>", "key_press": -1, "type": "PRES_VIS", "word": "backbone", "wordID": 65, "conditions": [24, 800, "v", 12000], "trial": 4, "serialpos": 0, "trial_type": "single-stim", "trial_index": 157, "time_elapsed": 763673, "internal_node_id": "0.0-112.0"}}, {"uniqueid": "MTK0309:3MRNMEIQW6DBCKBSA39I9MWCW6IDLU", "current_trial": 158, "dateTime": 1510704048809, "trialdata": {"rt": -1, "stimulus": "<p id=\"stim\">GLOBE</p>", "key_press": -1, "type": "PRES_VIS", "word": "globe", "wordID": 640, "conditions": [24, 800, "v", 12000], "trial": 4, "serialpos": 1, "trial_type": "single-stim", "trial_index": 158, "time_elapsed": 765519, "internal_node_id": "0.0-113.0"}}, {"uniqueid": "MTK0309:3MRNMEIQW6DBCKBSA39I9MWCW6IDLU", "current_trial": 159, "dateTime": 1510704050437, "trialdata": {"rt": -1, "stimulus": "<p id=\"stim\">QUARTER</p>", "key_press": -1, "type": "PRES_VIS", "word": "quarter", "wordID": 1147, "conditions": [24, 800, "v", 12000], "trial": 4, "serialpos": 2, "trial_type": "single-stim", "trial_index": 159, "time_elapsed": 767148, "internal_node_id": "0.0-114.0"}}, {"uniqueid": "MTK0309:3MRNMEIQW6DBCKBSA39I9MWCW6IDLU", "current_trial": 160, "dateTime": 1510704052411, "trialdata": {"rt": -1, "stimulus": "<p id=\"stim\">SALMON</p>", "key_press": -1, "type": "PRES_VIS", "word": "salmon", "wordID": 1226, "conditions": [24, 800, "v", 12000], "trial": 4, "serialpos": 3, "trial_type": "single-stim", "trial_index": 160, "time_elapsed": 769122, "internal_node_id": "0.0-115.0"}}, {"uniqueid": "MTK0309:3MRNMEIQW6DBCKBSA39I9MWCW6IDLU", "current_trial": 161, "dateTime": 1510704054197, "trialdata": {"rt": -1, "stimulus": "<p id=\"stim\">MAILMAN</p>", "key_press": -1, "type": "PRES_VIS", "word": "mailman", "wordID": 857, "conditions": [24, 800, "v", 12000], "trial": 4, "serialpos": 4, "trial_type": "single-stim", "trial_index": 161, "time_elapsed": 770908, "internal_node_id": "0.0-116.0"}}, {"uniqueid": "MTK0309:3MRNMEIQW6DBCKBSA39I9MWCW6IDLU", "current_trial": 162, "dateTime": 1510704055901, "trialdata": {"rt": -1, "stimulus": "<p id=\"stim\">MAILBOX</p>", "key_press": -1, "type": "PRES_VIS", "word": "mailbox", "wordID": 856, "conditions": [24, 800, "v", 12000], "trial": 4, "serialpos": 5, "trial_type": "single-stim", "trial_index": 162, "time_elapsed": 772612, "internal_node_id": "0.0-117.0"}}, {"uniqueid": "MTK0309:3MRNMEIQW6DBCKBSA39I9MWCW6IDLU", "current_trial": 163, "dateTime": 1510704057590, "trialdata": {"rt": -1, "stimulus": "<p id=\"stim\">COD</p>", "key_press": -1, "type": "PRES_VIS", "word": "cod", "wordID": 339, "conditions": [24, 800, "v", 12000], "trial": 4, "serialpos": 6, "trial_type": "single-stim", "trial_index": 163, "time_elapsed": 774301, "internal_node_id": "0.0-118.0"}}, {"uniqueid": "MTK0309:3MRNMEIQW6DBCKBSA39I9MWCW6IDLU", "current_trial": 164, "dateTime": 1510704059327, "trialdata": {"rt": -1, "stimulus": "<p id=\"stim\">TABLE</p>", "key_press": -1, "type": "PRES_VIS", "word": "table", "wordID": 1425, "conditions": [24, 800, "v", 12000], "trial": 4, "serialpos": 7, "trial_type": "single-stim", "trial_index": 164, "time_elapsed": 776037, "internal_node_id": "0.0-119.0"}}, {"uniqueid": "MTK0309:3MRNMEIQW6DBCKBSA39I9MWCW6IDLU", "current_trial": 165, "dateTime": 1510704061223, "trialdata": {"rt": -1, "stimulus": "<p id=\"stim\">YARN</p>", "key_press": -1, "type": "PRES_VIS", "word": "yarn", "wordID": 1630, "conditions": [24, 800, "v", 12000], "trial": 4, "serialpos": 8, "trial_type": "single-stim", "trial_index": 165, "time_elapsed": 777934, "internal_node_id": "0.0-120.0"}}, {"uniqueid": "MTK0309:3MRNMEIQW6DBCKBSA39I9MWCW6IDLU", "current_trial": 166, "dateTime": 1510704063139, "trialdata": {"rt": -1, "stimulus": "<p id=\"stim\">PEACH</p>", "key_press": -1, "type": "PRES_VIS", "word": "peach", "wordID": 1030, "conditions": [24, 800, "v", 12000], "trial": 4, "serialpos": 9, "trial_type": "single-stim", "trial_index": 166, "time_elapsed": 779850, "internal_node_id": "0.0-121.0"}}, {"uniqueid": "MTK0309:3MRNMEIQW6DBCKBSA39I9MWCW6IDLU", "current_trial": 167, "dateTime": 1510704064975, "trialdata": {"rt": -1, "stimulus": "<p id=\"stim\">CHEST</p>", "key_press": -1, "type": "PRES_VIS", "word": "chest", "wordID": 294, "conditions": [24, 800, "v", 12000], "trial": 4, "serialpos": 10, "trial_type": "single-stim", "trial_index": 167, "time_elapsed": 781686, "internal_node_id": "0.0-122.0"}}, {"uniqueid": "MTK0309:3MRNMEIQW6DBCKBSA39I9MWCW6IDLU", "current_trial": 168, "dateTime": 1510704066600, "trialdata": {"rt": -1, "stimulus": "<p id=\"stim\">HERO</p>", "key_press": -1, "type": "PRES_VIS", "word": "hero", "wordID": 705, "conditions": [24, 800, "v", 12000], "trial": 4, "serialpos": 11, "trial_type": "single-stim", "trial_index": 168, "time_elapsed": 783310, "internal_node_id": "0.0-123.0"}}, {"uniqueid": "MTK0309:3MRNMEIQW6DBCKBSA39I9MWCW6IDLU", "current_trial": 169, "dateTime": 1510704068304, "trialdata": {"rt": -1, "stimulus": "<p id=\"stim\">WAITER</p>", "key_press": -1, "type": "PRES_VIS", "word": "waiter", "wordID": 1579, "conditions": [24, 800, "v", 12000], "trial": 4, "serialpos": 12, "trial_type": "single-stim", "trial_index": 169, "time_elapsed": 785015, "internal_node_id": "0.0-124.0"}}, {"uniqueid": "MTK0309:3MRNMEIQW6DBCKBSA39I9MWCW6IDLU", "current_trial": 170, "dateTime": 1510704070101, "trialdata": {"rt": -1, "stimulus": "<p id=\"stim\">HOOK</p>", "key_press": -1, "type": "PRES_VIS", "word": "hook", "wordID": 714, "conditions": [24, 800, "v", 12000], "trial": 4, "serialpos": 13, "trial_type": "single-stim", "trial_index": 170, "time_elapsed": 786812, "internal_node_id": "0.0-125.0"}}, {"uniqueid": "MTK0309:3MRNMEIQW6DBCKBSA39I9MWCW6IDLU", "current_trial": 171, "dateTime": 1510704071861, "trialdata": {"rt": -1, "stimulus": "<p id=\"stim\">SHELF</p>", "key_press": -1, "type": "PRES_VIS", "word": "shelf", "wordID": 1279, "conditions": [24, 800, "v", 12000], "trial": 4, "serialpos": 14, "trial_type": "single-stim", "trial_index": 171, "time_elapsed": 788572, "internal_node_id": "0.0-126.0"}}, {"uniqueid": "MTK0309:3MRNMEIQW6DBCKBSA39I9MWCW6IDLU", "current_trial": 172, "dateTime": 1510704073493, "trialdata": {"rt": -1, "stimulus": "<p id=\"stim\">BRACES</p>", "key_press": -1, "type": "PRES_VIS", "word": "braces", "wordID": 163, "conditions": [24, 800, "v", 12000], "trial": 4, "serialpos": 15, "trial_type": "single-stim", "trial_index": 172, "time_elapsed": 790203, "internal_node_id": "0.0-127.0"}}, {"uniqueid": "MTK0309:3MRNMEIQW6DBCKBSA39I9MWCW6IDLU", "current_trial": 173, "dateTime": 1510704075142, "trialdata": {"rt": -1, "stimulus": "<p id=\"stim\">SCARF</p>", "key_press": -1, "type": "PRES_VIS", "word": "scarf", "wordID": 1245, "conditions": [24, 800, "v", 12000], "trial": 4, "serialpos": 16, "trial_type": "single-stim", "trial_index": 173, "time_elapsed": 791853, "internal_node_id": "0.0-128.0"}}, {"uniqueid": "MTK0309:3MRNMEIQW6DBCKBSA39I9MWCW6IDLU", "current_trial": 174, "dateTime": 1510704076987, "trialdata": {"rt": -1, "stimulus": "<p id=\"stim\">WAITRESS</p>", "key_press": -1, "type": "PRES_VIS", "word": "waitress", "wordID": 1580, "conditions": [24, 800, "v", 12000], "trial": 4, "serialpos": 17, "trial_type": "single-stim", "trial_index": 174, "time_elapsed": 793698, "internal_node_id": "0.0-129.0"}}, {"uniqueid": "MTK0309:3MRNMEIQW6DBCKBSA39I9MWCW6IDLU", "current_trial": 175, "dateTime": 1510704078704, "trialdata": {"rt": -1, "stimulus": "<p id=\"stim\">NOMAD</p>", "key_press": -1, "type": "PRES_VIS", "word": "nomad", "wordID": 954, "conditions": [24, 800, "v", 12000], "trial": 4, "serialpos": 18, "trial_type": "single-stim", "trial_index": 175, "time_elapsed": 795415, "internal_node_id": "0.0-130.0"}}, {"uniqueid": "MTK0309:3MRNMEIQW6DBCKBSA39I9MWCW6IDLU", "current_trial": 176, "dateTime": 1510704080556, "trialdata": {"rt": -1, "stimulus": "<p id=\"stim\">PADDING</p>", "key_press": -1, "type": "PRES_VIS", "word": "padding", "wordID": 998, "conditions": [24, 800, "v", 12000], "trial": 4, "serialpos": 19, "trial_type": "single-stim", "trial_index": 176, "time_elapsed": 797267, "internal_node_id": "0.0-131.0"}}, {"uniqueid": "MTK0309:3MRNMEIQW6DBCKBSA39I9MWCW6IDLU", "current_trial": 177, "dateTime": 1510704082217, "trialdata": {"rt": -1, "stimulus": "<p id=\"stim\">GRAPE</p>", "key_press": -1, "type": "PRES_VIS", "word": "grape", "wordID": 653, "conditions": [24, 800, "v", 12000], "trial": 4, "serialpos": 20, "trial_type": "single-stim", "trial_index": 177, "time_elapsed": 798928, "internal_node_id": "0.0-132.0"}}, {"uniqueid": "MTK0309:3MRNMEIQW6DBCKBSA39I9MWCW6IDLU", "current_trial": 178, "dateTime": 1510704083845, "trialdata": {"rt": -1, "stimulus": "<p id=\"stim\">HONEY</p>", "key_press": -1, "type": "PRES_VIS", "word": "honey", "wordID": 712, "conditions": [24, 800, "v", 12000], "trial": 4, "serialpos": 21, "trial_type": "single-stim", "trial_index": 178, "time_elapsed": 800556, "internal_node_id": "0.0-133.0"}}, {"uniqueid": "MTK0309:3MRNMEIQW6DBCKBSA39I9MWCW6IDLU", "current_trial": 179, "dateTime": 1510704085836, "trialdata": {"rt": -1, "stimulus": "<p id=\"stim\">VAGRANT</p>", "key_press": -1, "type": "PRES_VIS", "word": "vagrant", "wordID": 1543, "conditions": [24, 800, "v", 12000], "trial": 4, "serialpos": 22, "trial_type": "single-stim", "trial_index": 179, "time_elapsed": 802547, "internal_node_id": "0.0-134.0"}}, {"uniqueid": "MTK0309:3MRNMEIQW6DBCKBSA39I9MWCW6IDLU", "current_trial": 180, "dateTime": 1510704087532, "trialdata": {"rt": -1, "stimulus": "<p id=\"stim\">BLENDER</p>", "key_press": -1, "type": "PRES_VIS", "word": "blender", "wordID": 135, "conditions": [24, 800, "v", 12000], "trial": 4, "serialpos": 23, "trial_type": "single-stim", "trial_index": 180, "time_elapsed": 804243, "internal_node_id": "0.0-135.0"}}, {"uniqueid": "MTK0309:3MRNMEIQW6DBCKBSA39I9MWCW6IDLU", "current_trial": 181, "dateTime": 1510704089682, "trialdata": {"rt": -1, "stimulus": "", "key_press": -1, "type": "PRE_RECALL_DELAY", "trial_type": "single-stim", "trial_index": 181, "time_elapsed": 806392, "internal_node_id": "0.0-136.0-0.0"}}, {"uniqueid": "MTK0309:3MRNMEIQW6DBCKBSA39I9MWCW6IDLU", "current_trial": 182, "dateTime": 1510704090183, "trialdata": {"rt": -1000, "stimulus": "/static/audio/400Hz.wav", "key_press": -1, "type": "PRE_RECALL_ALERT", "trial_type": "single-audio", "trial_index": 182, "time_elapsed": 806894, "internal_node_id": "0.0-137.0"}}, {"uniqueid": "MTK0309:3MRNMEIQW6DBCKBSA39I9MWCW6IDLU", "current_trial": 183, "dateTime": 1510704150187, "trialdata": {"rt": [1880, 3704, 6296, 9472, 11200, 14288, 18448, 21000], "recwords": ["waiter", "vagrant", "waitress", "mailbox", "mailman", "globe", "yarn", "shelf"], "type": "FREE_RECALL", "conditions": [24, 800, "v", 12000], "trial": 4, "trial_type": "free-recall", "trial_index": 183, "time_elapsed": 866897, "internal_node_id": "0.0-138.0-0.0"}}, {"uniqueid": "MTK0309:3MRNMEIQW6DBCKBSA39I9MWCW6IDLU", "current_trial": 184, "dateTime": 1510704153576, "trialdata": {"rt": 1388, "key_press": 74, "type": "INSTRUCTIONS", "trial_type": "text", "trial_index": 184, "time_elapsed": 870287, "internal_node_id": "0.0-139.0"}}, {"uniqueid": "MTK0309:3MRNMEIQW6DBCKBSA39I9MWCW6IDLU", "current_trial": 185, "dateTime": 1510704167581, "trialdata": {"rt": [2549, 4325, 6245, 10317], "responses": ["17", "12", "5", "20"], "num1": [5, 2, 1, 9, 6], "num2": [4, 8, 3, 5, 6], "num3": [8, 2, 1, 6, 1], "type": "DISTRACTOR", "conditions": [12, 800, "v", 12000], "trial": 5, "trial_type": "math-distractor", "trial_index": 185, "time_elapsed": 884291, "internal_node_id": "0.0-140.0"}}, {"uniqueid": "MTK0309:3MRNMEIQW6DBCKBSA39I9MWCW6IDLU", "current_trial": 186, "dateTime": 1510704170582, "trialdata": {"rt": -1, "stimulus": "<p id=\"stim\">10</p>", "key_press": -1, "trial_type": "single-stim", "trial_index": 186, "time_elapsed": 887293, "internal_node_id": "0.0-141.0-0.0"}}, {"uniqueid": "MTK0309:3MRNMEIQW6DBCKBSA39I9MWCW6IDLU", "current_trial": 187, "dateTime": 1510704171583, "trialdata": {"rt": -1, "stimulus": "<p id=\"stim\">9</p>", "key_press": -1, "trial_type": "single-stim", "trial_index": 187, "time_elapsed": 888294, "internal_node_id": "0.0-141.0-1.0"}}, {"uniqueid": "MTK0309:3MRNMEIQW6DBCKBSA39I9MWCW6IDLU", "current_trial": 188, "dateTime": 1510704172584, "trialdata": {"rt": -1, "stimulus": "<p id=\"stim\">8</p>", "key_press": -1, "trial_type": "single-stim", "trial_index": 188, "time_elapsed": 889294, "internal_node_id": "0.0-141.0-2.0"}}, {"uniqueid": "MTK0309:3MRNMEIQW6DBCKBSA39I9MWCW6IDLU", "current_trial": 189, "dateTime": 1510704173584, "trialdata": {"rt": -1, "stimulus": "<p id=\"stim\">7</p>", "key_press": -1, "trial_type": "single-stim", "trial_index": 189, "time_elapsed": 890295, "internal_node_id": "0.0-141.0-3.0"}}, {"uniqueid": "MTK0309:3MRNMEIQW6DBCKBSA39I9MWCW6IDLU", "current_trial": 190, "dateTime": 1510704174585, "trialdata": {"rt": -1, "stimulus": "<p id=\"stim\">6</p>", "key_press": -1, "trial_type": "single-stim", "trial_index": 190, "time_elapsed": 891296, "internal_node_id": "0.0-141.0-4.0"}}, {"uniqueid": "MTK0309:3MRNMEIQW6DBCKBSA39I9MWCW6IDLU", "current_trial": 191, "dateTime": 1510704175586, "trialdata": {"rt": -1, "stimulus": "<p id=\"stim\">5</p>", "key_press": -1, "trial_type": "single-stim", "trial_index": 191, "time_elapsed": 892297, "internal_node_id": "0.0-141.0-5.0"}}, {"uniqueid": "MTK0309:3MRNMEIQW6DBCKBSA39I9MWCW6IDLU", "current_trial": 192, "dateTime": 1510704176587, "trialdata": {"rt": -1, "stimulus": "<p id=\"stim\">4</p>", "key_press": -1, "trial_type": "single-stim", "trial_index": 192, "time_elapsed": 893298, "internal_node_id": "0.0-141.0-6.0"}}, {"uniqueid": "MTK0309:3MRNMEIQW6DBCKBSA39I9MWCW6IDLU", "current_trial": 193, "dateTime": 1510704177588, "trialdata": {"rt": -1, "stimulus": "<p id=\"stim\">3</p>", "key_press": -1, "trial_type": "single-stim", "trial_index": 193, "time_elapsed": 894298, "internal_node_id": "0.0-141.0-7.0"}}, {"uniqueid": "MTK0309:3MRNMEIQW6DBCKBSA39I9MWCW6IDLU", "current_trial": 194, "dateTime": 1510704178589, "trialdata": {"rt": -1, "stimulus": "<p id=\"stim\">2</p>", "key_press": -1, "trial_type": "single-stim", "trial_index": 194, "time_elapsed": 895300, "internal_node_id": "0.0-141.0-8.0"}}, {"uniqueid": "MTK0309:3MRNMEIQW6DBCKBSA39I9MWCW6IDLU", "current_trial": 195, "dateTime": 1510704179590, "trialdata": {"rt": -1, "stimulus": "<p id=\"stim\">1</p>", "key_press": -1, "trial_type": "single-stim", "trial_index": 195, "time_elapsed": 896301, "internal_node_id": "0.0-141.0-9.0"}}, {"uniqueid": "MTK0309:3MRNMEIQW6DBCKBSA39I9MWCW6IDLU", "current_trial": 196, "dateTime": 1510704181091, "trialdata": {"rt": -1, "stimulus": "<p id=\"stim\">+</p>", "key_press": -1, "type": "FIXATION", "trial_type": "single-stim", "trial_index": 196, "time_elapsed": 897802, "internal_node_id": "0.0-142.0-0.0"}}, {"uniqueid": "MTK0309:3MRNMEIQW6DBCKBSA39I9MWCW6IDLU", "current_trial": 197, "dateTime": 1510704181892, "trialdata": {"rt": -1, "stimulus": "<p id=\"stim\">SHERIFF</p>", "key_press": -1, "type": "PRES_VIS", "word": "sheriff", "wordID": 1283, "conditions": [12, 800, "v", 12000], "trial": 5, "serialpos": 0, "trial_type": "single-stim", "trial_index": 197, "time_elapsed": 898603, "internal_node_id": "0.0-143.0"}}, {"uniqueid": "MTK0309:3MRNMEIQW6DBCKBSA39I9MWCW6IDLU", "current_trial": 198, "dateTime": 1510704183520, "trialdata": {"rt": -1, "stimulus": "<p id=\"stim\">COWBOY</p>", "key_press": -1, "type": "PRES_VIS", "word": "cowboy", "wordID": 394, "conditions": [12, 800, "v", 12000], "trial": 5, "serialpos": 1, "trial_type": "single-stim", "trial_index": 198, "time_elapsed": 900231, "internal_node_id": "0.0-144.0"}}, {"uniqueid": "MTK0309:3MRNMEIQW6DBCKBSA39I9MWCW6IDLU", "current_trial": 199, "dateTime": 1510704185206, "trialdata": {"rt": -1, "stimulus": "<p id=\"stim\">PICTURE</p>", "key_press": -1, "type": "PRES_VIS", "word": "picture", "wordID": 1060, "conditions": [12, 800, "v", 12000], "trial": 5, "serialpos": 2, "trial_type": "single-stim", "trial_index": 199, "time_elapsed": 901916, "internal_node_id": "0.0-145.0"}}, {"uniqueid": "MTK0309:3MRNMEIQW6DBCKBSA39I9MWCW6IDLU", "current_trial": 200, "dateTime": 1510704187009, "trialdata": {"rt": -1, "stimulus": "<p id=\"stim\">PORTRAIT</p>", "key_press": -1, "type": "PRES_VIS", "word": "portrait", "wordID": 1110, "conditions": [12, 800, "v", 12000], "trial": 5, "serialpos": 3, "trial_type": "single-stim", "trial_index": 200, "time_elapsed": 903720, "internal_node_id": "0.0-146.0"}}, {"uniqueid": "MTK0309:3MRNMEIQW6DBCKBSA39I9MWCW6IDLU", "current_trial": 201, "dateTime": 1510704188820, "trialdata": {"rt": -1, "stimulus": "<p id=\"stim\">CATTLE</p>", "key_press": -1, "type": "PRES_VIS", "word": "cattle", "wordID": 260, "conditions": [12, 800, "v", 12000], "trial": 5, "serialpos": 4, "trial_type": "single-stim", "trial_index": 201, "time_elapsed": 905531, "internal_node_id": "0.0-147.0"}}, {"uniqueid": "MTK0309:3MRNMEIQW6DBCKBSA39I9MWCW6IDLU", "current_trial": 202, "dateTime": 1510704190679, "trialdata": {"rt": -1, "stimulus": "<p id=\"stim\">TWISTER</p>", "key_press": -1, "type": "PRES_VIS", "word": "twister", "wordID": 1529, "conditions": [12, 800, "v", 12000], "trial": 5, "serialpos": 5, "trial_type": "single-stim", "trial_index": 202, "time_elapsed": 907390, "internal_node_id": "0.0-148.0"}}, {"uniqueid": "MTK0309:3MRNMEIQW6DBCKBSA39I9MWCW6IDLU", "current_trial": 203, "dateTime": 1510704192592, "trialdata": {"rt": -1, "stimulus": "<p id=\"stim\">COUNTY</p>", "key_press": -1, "type": "PRES_VIS", "word": "county", "wordID": 388, "conditions": [12, 800, "v", 12000], "trial": 5, "serialpos": 6, "trial_type": "single-stim", "trial_index": 203, "time_elapsed": 909303, "internal_node_id": "0.0-149.0"}}, {"uniqueid": "MTK0309:3MRNMEIQW6DBCKBSA39I9MWCW6IDLU", "current_trial": 204, "dateTime": 1510704194431, "trialdata": {"rt": -1, "stimulus": "<p id=\"stim\">BLADE</p>", "key_press": -1, "type": "PRES_VIS", "word": "blade", "wordID": 133, "conditions": [12, 800, "v", 12000], "trial": 5, "serialpos": 7, "trial_type": "single-stim", "trial_index": 204, "time_elapsed": 911142, "internal_node_id": "0.0-150.0"}}, {"uniqueid": "MTK0309:3MRNMEIQW6DBCKBSA39I9MWCW6IDLU", "current_trial": 205, "dateTime": 1510704196131, "trialdata": {"rt": -1, "stimulus": "<p id=\"stim\">CRUTCH</p>", "key_press": -1, "type": "PRES_VIS", "word": "crutch", "wordID": 416, "conditions": [12, 800, "v", 12000], "trial": 5, "serialpos": 8, "trial_type": "single-stim", "trial_index": 205, "time_elapsed": 912842, "internal_node_id": "0.0-151.0"}}, {"uniqueid": "MTK0309:3MRNMEIQW6DBCKBSA39I9MWCW6IDLU", "current_trial": 206, "dateTime": 1510704198032, "trialdata": {"rt": -1, "stimulus": "<p id=\"stim\">PROTON</p>", "key_press": -1, "type": "PRES_VIS", "word": "proton", "wordID": 1131, "conditions": [12, 800, "v", 12000], "trial": 5, "serialpos": 9, "trial_type": "single-stim", "trial_index": 206, "time_elapsed": 914743, "internal_node_id": "0.0-152.0"}}, {"uniqueid": "MTK0309:3MRNMEIQW6DBCKBSA39I9MWCW6IDLU", "current_trial": 207, "dateTime": 1510704199859, "trialdata": {"rt": -1, "stimulus": "<p id=\"stim\">DRUG</p>", "key_press": -1, "type": "PRES_VIS", "word": "drug", "wordID": 500, "conditions": [12, 800, "v", 12000], "trial": 5, "serialpos": 10, "trial_type": "single-stim", "trial_index": 207, "time_elapsed": 916570, "internal_node_id": "0.0-153.0"}}, {"uniqueid": "MTK0309:3MRNMEIQW6DBCKBSA39I9MWCW6IDLU", "current_trial": 208, "dateTime": 1510704201572, "trialdata": {"rt": -1, "stimulus": "<p id=\"stim\">VICTIM</p>", "key_press": -1, "type": "PRES_VIS", "word": "victim", "wordID": 1561, "conditions": [12, 800, "v", 12000], "trial": 5, "serialpos": 11, "trial_type": "single-stim", "trial_index": 208, "time_elapsed": 918283, "internal_node_id": "0.0-154.0"}}, {"uniqueid": "MTK0309:3MRNMEIQW6DBCKBSA39I9MWCW6IDLU", "current_trial": 209, "dateTime": 1510704204073, "trialdata": {"rt": -1, "stimulus": "", "key_press": -1, "type": "PRE_RECALL_DELAY", "trial_type": "single-stim", "trial_index": 209, "time_elapsed": 920783, "internal_node_id": "0.0-155.0-0.0"}}, {"uniqueid": "MTK0309:3MRNMEIQW6DBCKBSA39I9MWCW6IDLU", "current_trial": 210, "dateTime": 1510704204574, "trialdata": {"rt": -1000, "stimulus": "/static/audio/400Hz.wav", "key_press": -1, "type": "PRE_RECALL_ALERT", "trial_type": "single-audio", "trial_index": 210, "time_elapsed": 921284, "internal_node_id": "0.0-156.0"}}, {"uniqueid": "MTK0309:3MRNMEIQW6DBCKBSA39I9MWCW6IDLU", "current_trial": 211, "dateTime": 1510704264579, "trialdata": {"rt": [2096, 3360, 5512, 9968, 11032, 14296, 16592], "recwords": ["drug", "victim", "proton", "cowboy", "cattle", "sherieff", "county"], "type": "FREE_RECALL", "conditions": [12, 800, "v", 12000], "trial": 5, "trial_type": "free-recall", "trial_index": 211, "time_elapsed": 981288, "internal_node_id": "0.0-157.0-0.0"}}, {"uniqueid": "MTK0309:3MRNMEIQW6DBCKBSA39I9MWCW6IDLU", "current_trial": 212, "dateTime": 1510704267184, "trialdata": {"rt": 604, "key_press": 82, "type": "INSTRUCTIONS", "trial_type": "text", "trial_index": 212, "time_elapsed": 983895, "internal_node_id": "0.0-158.0"}}, {"uniqueid": "MTK0309:3MRNMEIQW6DBCKBSA39I9MWCW6IDLU", "current_trial": 213, "dateTime": 1510704293189, "trialdata": {"rt": [3181, 9397, 15821, 17893, 19789, 21509], "responses": ["19", "13", "14", "11", "14", "9"], "num1": [9, 5, 4, 6, 2, 1, 8], "num2": [9, 7, 4, 4, 8, 2, 6], "num3": [1, 1, 6, 1, 4, 6, 8], "type": "DISTRACTOR", "conditions": [24, 1600, "a", 24000], "trial": 6, "trial_type": "math-distractor", "trial_index": 213, "time_elapsed": 1009899, "internal_node_id": "0.0-159.0"}}, {"uniqueid": "MTK0309:3MRNMEIQW6DBCKBSA39I9MWCW6IDLU", "current_trial": 214, "dateTime": 1510704296189, "trialdata": {"rt": -1, "stimulus": "<p id=\"stim\">10</p>", "key_press": -1, "trial_type": "single-stim", "trial_index": 214, "time_elapsed": 1012900, "internal_node_id": "0.0-160.0-0.0"}}, {"uniqueid": "MTK0309:3MRNMEIQW6DBCKBSA39I9MWCW6IDLU", "current_trial": 215, "dateTime": 1510704297190, "trialdata": {"rt": -1, "stimulus": "<p id=\"stim\">9</p>", "key_press": -1, "trial_type": "single-stim", "trial_index": 215, "time_elapsed": 1013901, "internal_node_id": "0.0-160.0-1.0"}}, {"uniqueid": "MTK0309:3MRNMEIQW6DBCKBSA39I9MWCW6IDLU", "current_trial": 216, "dateTime": 1510704298191, "trialdata": {"rt": -1, "stimulus": "<p id=\"stim\">8</p>", "key_press": -1, "trial_type": "single-stim", "trial_index": 216, "time_elapsed": 1014902, "internal_node_id": "0.0-160.0-2.0"}}, {"uniqueid": "MTK0309:3MRNMEIQW6DBCKBSA39I9MWCW6IDLU", "current_trial": 217, "dateTime": 1510704299192, "trialdata": {"rt": -1, "stimulus": "<p id=\"stim\">7</p>", "key_press": -1, "trial_type": "single-stim", "trial_index": 217, "time_elapsed": 1015903, "internal_node_id": "0.0-160.0-3.0"}}, {"uniqueid": "MTK0309:3MRNMEIQW6DBCKBSA39I9MWCW6IDLU", "current_trial": 218, "dateTime": 1510704300193, "trialdata": {"rt": -1, "stimulus": "<p id=\"stim\">6</p>", "key_press": -1, "trial_type": "single-stim", "trial_index": 218, "time_elapsed": 1016904, "internal_node_id": "0.0-160.0-4.0"}}, {"uniqueid": "MTK0309:3MRNMEIQW6DBCKBSA39I9MWCW6IDLU", "current_trial": 219, "dateTime": 1510704301194, "trialdata": {"rt": -1, "stimulus": "<p id=\"stim\">5</p>", "key_press": -1, "trial_type": "single-stim", "trial_index": 219, "time_elapsed": 1017905, "internal_node_id": "0.0-160.0-5.0"}}, {"uniqueid": "MTK0309:3MRNMEIQW6DBCKBSA39I9MWCW6IDLU", "current_trial": 220, "dateTime": 1510704302195, "trialdata": {"rt": -1, "stimulus": "<p id=\"stim\">4</p>", "key_press": -1, "trial_type": "single-stim", "trial_index": 220, "time_elapsed": 1018906, "internal_node_id": "0.0-160.0-6.0"}}, {"uniqueid": "MTK0309:3MRNMEIQW6DBCKBSA39I9MWCW6IDLU", "current_trial": 221, "dateTime": 1510704303195, "trialdata": {"rt": -1, "stimulus": "<p id=\"stim\">3</p>", "key_press": -1, "trial_type": "single-stim", "trial_index": 221, "time_elapsed": 1019906, "internal_node_id": "0.0-160.0-7.0"}}, {"uniqueid": "MTK0309:3MRNMEIQW6DBCKBSA39I9MWCW6IDLU", "current_trial": 222, "dateTime": 1510704304196, "trialdata": {"rt": -1, "stimulus": "<p id=\"stim\">2</p>", "key_press": -1, "trial_type": "single-stim", "trial_index": 222, "time_elapsed": 1020907, "internal_node_id": "0.0-160.0-8.0"}}, {"uniqueid": "MTK0309:3MRNMEIQW6DBCKBSA39I9MWCW6IDLU", "current_trial": 223, "dateTime": 1510704305197, "trialdata": {"rt": -1, "stimulus": "<p id=\"stim\">1</p>", "key_press": -1, "trial_type": "single-stim", "trial_index": 223, "time_elapsed": 1021908, "internal_node_id": "0.0-160.0-9.0"}}, {"uniqueid": "MTK0309:3MRNMEIQW6DBCKBSA39I9MWCW6IDLU", "current_trial": 224, "dateTime": 1510704306698, "trialdata": {"rt": -1, "stimulus": "<p id=\"stim\">+</p>", "key_press": -1, "type": "FIXATION", "trial_type": "single-stim", "trial_index": 224, "time_elapsed": 1023409, "internal_node_id": "0.0-161.0-0.0"}}, {"uniqueid": "MTK0309:3MRNMEIQW6DBCKBSA39I9MWCW6IDLU", "current_trial": 225, "dateTime": 1510704309220, "trialdata": {"rt": -1000, "stimulus": "/static/audio/wordpool/SWIMMER.wav", "key_press": -1, "type": "PRES_AUD", "word": "swimmer", "wordID": 1419, "conditions": [24, 1600, "a", 24000], "trial": 6, "serialpos": 0, "trial_type": "single-audio", "trial_index": 225, "time_elapsed": 1025931, "internal_node_id": "0.0-162.0"}}, {"uniqueid": "MTK0309:3MRNMEIQW6DBCKBSA39I9MWCW6IDLU", "current_trial": 226, "dateTime": 1510704311936, "trialdata": {"rt": -1000, "stimulus": "/static/audio/wordpool/JUGGLER.wav", "key_press": -1, "type": "PRES_AUD", "word": "juggler", "wordID": 762, "conditions": [24, 1600, "a", 24000], "trial": 6, "serialpos": 1, "trial_type": "single-audio", "trial_index": 226, "time_elapsed": 1028646, "internal_node_id": "0.0-163.0"}}, {"uniqueid": "MTK0309:3MRNMEIQW6DBCKBSA39I9MWCW6IDLU", "current_trial": 227, "dateTime": 1510704314346, "trialdata": {"rt": -1000, "stimulus": "/static/audio/wordpool/BUNNY.wav", "key_press": -1, "type": "PRES_AUD", "word": "bunny", "wordID": 197, "conditions": [24, 1600, "a", 24000], "trial": 6, "serialpos": 2, "trial_type": "single-audio", "trial_index": 227, "time_elapsed": 1031057, "internal_node_id": "0.0-164.0"}}, {"uniqueid": "MTK0309:3MRNMEIQW6DBCKBSA39I9MWCW6IDLU", "current_trial": 228, "dateTime": 1510704316916, "trialdata": {"rt": -1000, "stimulus": "/static/audio/wordpool/BLOUSE.wav", "key_press": -1, "type": "PRES_AUD", "word": "blouse", "wordID": 138, "conditions": [24, 1600, "a", 24000], "trial": 6, "serialpos": 3, "trial_type": "single-audio", "trial_index": 228, "time_elapsed": 1033627, "internal_node_id": "0.0-165.0"}}, {"uniqueid": "MTK0309:3MRNMEIQW6DBCKBSA39I9MWCW6IDLU", "current_trial": 229, "dateTime": 1510704319686, "trialdata": {"rt": -1000, "stimulus": "/static/audio/wordpool/VENUS.wav", "key_press": -1, "type": "PRES_AUD", "word": "venus", "wordID": 1556, "conditions": [24, 1600, "a", 24000], "trial": 6, "serialpos": 4, "trial_type": "single-audio", "trial_index": 229, "time_elapsed": 1036397, "internal_node_id": "0.0-166.0"}}, {"uniqueid": "MTK0309:3MRNMEIQW6DBCKBSA39I9MWCW6IDLU", "current_trial": 230, "dateTime": 1510704322404, "trialdata": {"rt": -1000, "stimulus": "/static/audio/wordpool/FOX.wav", "key_press": -1, "type": "PRES_AUD", "word": "fox", "wordID": 597, "conditions": [24, 1600, "a", 24000], "trial": 6, "serialpos": 5, "trial_type": "single-audio", "trial_index": 230, "time_elapsed": 1039115, "internal_node_id": "0.0-167.0"}}, {"uniqueid": "MTK0309:3MRNMEIQW6DBCKBSA39I9MWCW6IDLU", "current_trial": 231, "dateTime": 1510704325083, "trialdata": {"rt": -1000, "stimulus": "/static/audio/wordpool/DANCER.wav", "key_press": -1, "type": "PRES_AUD", "word": "dancer", "wordID": 436, "conditions": [24, 1600, "a", 24000], "trial": 6, "serialpos": 6, "trial_type": "single-audio", "trial_index": 231, "time_elapsed": 1041793, "internal_node_id": "0.0-168.0"}}, {"uniqueid": "MTK0309:3MRNMEIQW6DBCKBSA39I9MWCW6IDLU", "current_trial": 232, "dateTime": 1510704327623, "trialdata": {"rt": -1000, "stimulus": "/static/audio/wordpool/TUBA.wav", "key_press": -1, "type": "PRES_AUD", "word": "tuba", "wordID": 1514, "conditions": [24, 1600, "a", 24000], "trial": 6, "serialpos": 7, "trial_type": "single-audio", "trial_index": 232, "time_elapsed": 1044334, "internal_node_id": "0.0-169.0"}}, {"uniqueid": "MTK0309:3MRNMEIQW6DBCKBSA39I9MWCW6IDLU", "current_trial": 233, "dateTime": 1510704330073, "trialdata": {"rt": -1000, "stimulus": "/static/audio/wordpool/SNAKE.wav", "key_press": -1, "type": "PRES_AUD", "word": "snake", "wordID": 1332, "conditions": [24, 1600, "a", 24000], "trial": 6, "serialpos": 8, "trial_type": "single-audio", "trial_index": 233, "time_elapsed": 1046784, "internal_node_id": "0.0-170.0"}}, {"uniqueid": "MTK0309:3MRNMEIQW6DBCKBSA39I9MWCW6IDLU", "current_trial": 234, "dateTime": 1510704332700, "trialdata": {"rt": -1000, "stimulus": "/static/audio/wordpool/WRIST.wav", "key_press": -1, "type": "PRES_AUD", "word": "wrist", "wordID": 1625, "conditions": [24, 1600, "a", 24000], "trial": 6, "serialpos": 9, "trial_type": "single-audio", "trial_index": 234, "time_elapsed": 1049411, "internal_node_id": "0.0-171.0"}}, {"uniqueid": "MTK0309:3MRNMEIQW6DBCKBSA39I9MWCW6IDLU", "current_trial": 235, "dateTime": 1510704335296, "trialdata": {"rt": -1000, "stimulus": "/static/audio/wordpool/ANKLE.wav", "key_press": -1, "type": "PRES_AUD", "word": "ankle", "wordID": 23, "conditions": [24, 1600, "a", 24000], "trial": 6, "serialpos": 10, "trial_type": "single-audio", "trial_index": 235, "time_elapsed": 1052007, "internal_node_id": "0.0-172.0"}}, {"uniqueid": "MTK0309:3MRNMEIQW6DBCKBSA39I9MWCW6IDLU", "current_trial": 236, "dateTime": 1510704338088, "trialdata": {"rt": -1000, "stimulus": "/static/audio/wordpool/TOURIST.wav", "key_press": -1, "type": "PRES_AUD", "word": "tourist", "wordID": 1487, "conditions": [24, 1600, "a", 24000], "trial": 6, "serialpos": 11, "trial_type": "single-audio", "trial_index": 236, "time_elapsed": 1054799, "internal_node_id": "0.0-173.0"}}, {"uniqueid": "MTK0309:3MRNMEIQW6DBCKBSA39I9MWCW6IDLU", "current_trial": 237, "dateTime": 1510704340612, "trialdata": {"rt": -1000, "stimulus": "/static/audio/wordpool/MUFFIN.wav", "key_press": -1, "type": "PRES_AUD", "word": "muffin", "wordID": 928, "conditions": [24, 1600, "a", 24000], "trial": 6, "serialpos": 12, "trial_type": "single-audio", "trial_index": 237, "time_elapsed": 1057323, "internal_node_id": "0.0-174.0"}}, {"uniqueid": "MTK0309:3MRNMEIQW6DBCKBSA39I9MWCW6IDLU", "current_trial": 238, "dateTime": 1510704343024, "trialdata": {"rt": -1000, "stimulus": "/static/audio/wordpool/RAZOR.wav", "key_press": -1, "type": "PRES_AUD", "word": "razor", "wordID": 1170, "conditions": [24, 1600, "a", 24000], "trial": 6, "serialpos": 13, "trial_type": "single-audio", "trial_index": 238, "time_elapsed": 1059735, "internal_node_id": "0.0-175.0"}}, {"uniqueid": "MTK0309:3MRNMEIQW6DBCKBSA39I9MWCW6IDLU", "current_trial": 239, "dateTime": 1510704345723, "trialdata": {"rt": -1000, "stimulus": "/static/audio/wordpool/CURTAIN.wav", "key_press": -1, "type": "PRES_AUD", "word": "curtain", "wordID": 426, "conditions": [24, 1600, "a", 24000], "trial": 6, "serialpos": 14, "trial_type": "single-audio", "trial_index": 239, "time_elapsed": 1062433, "internal_node_id": "0.0-176.0"}}, {"uniqueid": "MTK0309:3MRNMEIQW6DBCKBSA39I9MWCW6IDLU", "current_trial": 240, "dateTime": 1510704348415, "trialdata": {"rt": -1000, "stimulus": "/static/audio/wordpool/FRIEND.wav", "key_press": -1, "type": "PRES_AUD", "word": "friend", "wordID": 605, "conditions": [24, 1600, "a", 24000], "trial": 6, "serialpos": 15, "trial_type": "single-audio", "trial_index": 240, "time_elapsed": 1065125, "internal_node_id": "0.0-177.0"}}, {"uniqueid": "MTK0309:3MRNMEIQW6DBCKBSA39I9MWCW6IDLU", "current_trial": 241, "dateTime": 1510704351035, "trialdata": {"rt": -1000, "stimulus": "/static/audio/wordpool/TRANSPLANT.wav", "key_press": -1, "type": "PRES_AUD", "word": "transplant", "wordID": 1495, "conditions": [24, 1600, "a", 24000], "trial": 6, "serialpos": 16, "trial_type": "single-audio", "trial_index": 241, "time_elapsed": 1067746, "internal_node_id": "0.0-178.0"}}, {"uniqueid": "MTK0309:3MRNMEIQW6DBCKBSA39I9MWCW6IDLU", "current_trial": 242, "dateTime": 1510704353812, "trialdata": {"rt": -1000, "stimulus": "/static/audio/wordpool/ROBBER.wav", "key_press": -1, "type": "PRES_AUD", "word": "robber", "wordID": 1196, "conditions": [24, 1600, "a", 24000], "trial": 6, "serialpos": 17, "trial_type": "single-audio", "trial_index": 242, "time_elapsed": 1070523, "internal_node_id": "0.0-179.0"}}, {"uniqueid": "MTK0309:3MRNMEIQW6DBCKBSA39I9MWCW6IDLU", "current_trial": 243, "dateTime": 1510704356456, "trialdata": {"rt": -1000, "stimulus": "/static/audio/wordpool/CASHIER.wav", "key_press": -1, "type": "PRES_AUD", "word": "cashier", "wordID": 253, "conditions": [24, 1600, "a", 24000], "trial": 6, "serialpos": 18, "trial_type": "single-audio", "trial_index": 243, "time_elapsed": 1073167, "internal_node_id": "0.0-180.0"}}, {"uniqueid": "MTK0309:3MRNMEIQW6DBCKBSA39I9MWCW6IDLU", "current_trial": 244, "dateTime": 1510704359042, "trialdata": {"rt": -1000, "stimulus": "/static/audio/wordpool/ONION.wav", "key_press": -1, "type": "PRES_AUD", "word": "onion", "wordID": 976, "conditions": [24, 1600, "a", 24000], "trial": 6, "serialpos": 19, "trial_type": "single-audio", "trial_index": 244, "time_elapsed": 1075753, "internal_node_id": "0.0-181.0"}}, {"uniqueid": "MTK0309:3MRNMEIQW6DBCKBSA39I9MWCW6IDLU", "current_trial": 245, "dateTime": 1510704361587, "trialdata": {"rt": -1000, "stimulus": "/static/audio/wordpool/STAPLE.wav", "key_press": -1, "type": "PRES_AUD", "word": "staple", "wordID": 1370, "conditions": [24, 1600, "a", 24000], "trial": 6, "serialpos": 20, "trial_type": "single-audio", "trial_index": 245, "time_elapsed": 1078297, "internal_node_id": "0.0-182.0"}}, {"uniqueid": "MTK0309:3MRNMEIQW6DBCKBSA39I9MWCW6IDLU", "current_trial": 246, "dateTime": 1510704364035, "trialdata": {"rt": -1000, "stimulus": "/static/audio/wordpool/WAGON.wav", "key_press": -1, "type": "PRES_AUD", "word": "wagon", "wordID": 1577, "conditions": [24, 1600, "a", 24000], "trial": 6, "serialpos": 21, "trial_type": "single-audio", "trial_index": 246, "time_elapsed": 1080746, "internal_node_id": "0.0-183.0"}}, {"uniqueid": "MTK0309:3MRNMEIQW6DBCKBSA39I9MWCW6IDLU", "current_trial": 247, "dateTime": 1510704366761, "trialdata": {"rt": -1000, "stimulus": "/static/audio/wordpool/SANDWICH.wav", "key_press": -1, "type": "PRES_AUD", "word": "sandwich", "wordID": 1231, "conditions": [24, 1600, "a", 24000], "trial": 6, "serialpos": 22, "trial_type": "single-audio", "trial_index": 247, "time_elapsed": 1083472, "internal_node_id": "0.0-184.0"}}, {"uniqueid": "MTK0309:3MRNMEIQW6DBCKBSA39I9MWCW6IDLU", "current_trial": 248, "dateTime": 1510704369368, "trialdata": {"rt": -1000, "stimulus": "/static/audio/wordpool/SURVEY.wav", "key_press": -1, "type": "PRES_AUD", "word": "survey", "wordID": 1413, "conditions": [24, 1600, "a", 24000], "trial": 6, "serialpos": 23, "trial_type": "single-audio", "trial_index": 248, "time_elapsed": 1086079, "internal_node_id": "0.0-185.0"}}, {"uniqueid": "MTK0309:3MRNMEIQW6DBCKBSA39I9MWCW6IDLU", "current_trial": 249, "dateTime": 1510704370716, "trialdata": {"rt": -1, "stimulus": "", "key_press": -1, "type": "PRE_RECALL_DELAY", "trial_type": "single-stim", "trial_index": 249, "time_elapsed": 1087427, "internal_node_id": "0.0-186.0-0.0"}}, {"uniqueid": "MTK0309:3MRNMEIQW6DBCKBSA39I9MWCW6IDLU", "current_trial": 250, "dateTime": 1510704371217, "trialdata": {"rt": -1000, "stimulus": "/static/audio/400Hz.wav", "key_press": -1, "type": "PRE_RECALL_ALERT", "trial_type": "single-audio", "trial_index": 250, "time_elapsed": 1087928, "internal_node_id": "0.0-187.0"}}, {"uniqueid": "MTK0309:3MRNMEIQW6DBCKBSA39I9MWCW6IDLU", "current_trial": 251, "dateTime": 1510704431225, "trialdata": {"rt": [2173, 4061, 5997, 12365, 17013, 17973, 20589, 21909, 33565], "recwords": ["survey", "sandwhich", "venus", "juggalar", "fox", "bunny", "wrist", "ankle", "tuba"], "type": "FREE_RECALL", "conditions": [24, 1600, "a", 24000], "trial": 6, "trial_type": "free-recall", "trial_index": 251, "time_elapsed": 1147932, "internal_node_id": "0.0-188.0-0.0"}}, {"uniqueid": "MTK0309:3MRNMEIQW6DBCKBSA39I9MWCW6IDLU", "current_trial": 252, "dateTime": 1510704434384, "trialdata": {"rt": 1159, "key_press": 71, "type": "INSTRUCTIONS", "trial_type": "text", "trial_index": 252, "time_elapsed": 1151095, "internal_node_id": "0.0-189.0"}}, {"uniqueid": "MTK0309:3MRNMEIQW6DBCKBSA39I9MWCW6IDLU", "current_trial": 253, "dateTime": 1510704448388, "trialdata": {"rt": [3325, 7101, 8749, 10229], "responses": ["14", "9", "8", "11"], "num1": [5, 2, 6, 6, 2], "num2": [2, 5, 1, 4, 7], "num3": [7, 2, 1, 1, 2], "type": "DISTRACTOR", "conditions": [24, 1600, "a", 12000], "trial": 7, "trial_type": "math-distractor", "trial_index": 253, "time_elapsed": 1165099, "internal_node_id": "0.0-190.0"}}, {"uniqueid": "MTK0309:3MRNMEIQW6DBCKBSA39I9MWCW6IDLU", "current_trial": 254, "dateTime": 1510704451390, "trialdata": {"rt": -1, "stimulus": "<p id=\"stim\">10</p>", "key_press": -1, "trial_type": "single-stim", "trial_index": 254, "time_elapsed": 1168101, "internal_node_id": "0.0-191.0-0.0"}}, {"uniqueid": "MTK0309:3MRNMEIQW6DBCKBSA39I9MWCW6IDLU", "current_trial": 255, "dateTime": 1510704452391, "trialdata": {"rt": -1, "stimulus": "<p id=\"stim\">9</p>", "key_press": -1, "trial_type": "single-stim", "trial_index": 255, "time_elapsed": 1169102, "internal_node_id": "0.0-191.0-1.0"}}, {"uniqueid": "MTK0309:3MRNMEIQW6DBCKBSA39I9MWCW6IDLU", "current_trial": 256, "dateTime": 1510704453392, "trialdata": {"rt": -1, "stimulus": "<p id=\"stim\">8</p>", "key_press": -1, "trial_type": "single-stim", "trial_index": 256, "time_elapsed": 1170103, "internal_node_id": "0.0-191.0-2.0"}}, {"uniqueid": "MTK0309:3MRNMEIQW6DBCKBSA39I9MWCW6IDLU", "current_trial": 257, "dateTime": 1510704454394, "trialdata": {"rt": -1, "stimulus": "<p id=\"stim\">7</p>", "key_press": -1, "trial_type": "single-stim", "trial_index": 257, "time_elapsed": 1171104, "internal_node_id": "0.0-191.0-3.0"}}, {"uniqueid": "MTK0309:3MRNMEIQW6DBCKBSA39I9MWCW6IDLU", "current_trial": 258, "dateTime": 1510704455395, "trialdata": {"rt": -1, "stimulus": "<p id=\"stim\">6</p>", "key_press": -1, "trial_type": "single-stim", "trial_index": 258, "time_elapsed": 1172106, "internal_node_id": "0.0-191.0-4.0"}}, {"uniqueid": "MTK0309:3MRNMEIQW6DBCKBSA39I9MWCW6IDLU", "current_trial": 259, "dateTime": 1510704456396, "trialdata": {"rt": -1, "stimulus": "<p id=\"stim\">5</p>", "key_press": -1, "trial_type": "single-stim", "trial_index": 259, "time_elapsed": 1173106, "internal_node_id": "0.0-191.0-5.0"}}, {"uniqueid": "MTK0309:3MRNMEIQW6DBCKBSA39I9MWCW6IDLU", "current_trial": 260, "dateTime": 1510704457396, "trialdata": {"rt": -1, "stimulus": "<p id=\"stim\">4</p>", "key_press": -1, "trial_type": "single-stim", "trial_index": 260, "time_elapsed": 1174107, "internal_node_id": "0.0-191.0-6.0"}}, {"uniqueid": "MTK0309:3MRNMEIQW6DBCKBSA39I9MWCW6IDLU", "current_trial": 261, "dateTime": 1510704458397, "trialdata": {"rt": -1, "stimulus": "<p id=\"stim\">3</p>", "key_press": -1, "trial_type": "single-stim", "trial_index": 261, "time_elapsed": 1175108, "internal_node_id": "0.0-191.0-7.0"}}, {"uniqueid": "MTK0309:3MRNMEIQW6DBCKBSA39I9MWCW6IDLU", "current_trial": 262, "dateTime": 1510704459398, "trialdata": {"rt": -1, "stimulus": "<p id=\"stim\">2</p>", "key_press": -1, "trial_type": "single-stim", "trial_index": 262, "time_elapsed": 1176109, "internal_node_id": "0.0-191.0-8.0"}}, {"uniqueid": "MTK0309:3MRNMEIQW6DBCKBSA39I9MWCW6IDLU", "current_trial": 263, "dateTime": 1510704460400, "trialdata": {"rt": -1, "stimulus": "<p id=\"stim\">1</p>", "key_press": -1, "trial_type": "single-stim", "trial_index": 263, "time_elapsed": 1177111, "internal_node_id": "0.0-191.0-9.0"}}, {"uniqueid": "MTK0309:3MRNMEIQW6DBCKBSA39I9MWCW6IDLU", "current_trial": 264, "dateTime": 1510704461901, "trialdata": {"rt": -1, "stimulus": "<p id=\"stim\">+</p>", "key_press": -1, "type": "FIXATION", "trial_type": "single-stim", "trial_index": 264, "time_elapsed": 1178612, "internal_node_id": "0.0-192.0-0.0"}}, {"uniqueid": "MTK0309:3MRNMEIQW6DBCKBSA39I9MWCW6IDLU", "current_trial": 265, "dateTime": 1510704464407, "trialdata": {"rt": -1000, "stimulus": "/static/audio/wordpool/OUTLAW.wav", "key_press": -1, "type": "PRES_AUD", "word": "outlaw", "wordID": 988, "conditions": [24, 1600, "a", 12000], "trial": 7, "serialpos": 0, "trial_type": "single-audio", "trial_index": 265, "time_elapsed": 1181118, "internal_node_id": "0.0-193.0"}}, {"uniqueid": "MTK0309:3MRNMEIQW6DBCKBSA39I9MWCW6IDLU", "current_trial": 266, "dateTime": 1510704466920, "trialdata": {"rt": -1000, "stimulus": "/static/audio/wordpool/REBEL.wav", "key_press": -1, "type": "PRES_AUD", "word": "rebel", "wordID": 1171, "conditions": [24, 1600, "a", 12000], "trial": 7, "serialpos": 1, "trial_type": "single-audio", "trial_index": 266, "time_elapsed": 1183630, "internal_node_id": "0.0-194.0"}}, {"uniqueid": "MTK0309:3MRNMEIQW6DBCKBSA39I9MWCW6IDLU", "current_trial": 267, "dateTime": 1510704469596, "trialdata": {"rt": -1000, "stimulus": "/static/audio/wordpool/GIRL.wav", "key_press": -1, "type": "PRES_AUD", "word": "girl", "wordID": 636, "conditions": [24, 1600, "a", 12000], "trial": 7, "serialpos": 2, "trial_type": "single-audio", "trial_index": 267, "time_elapsed": 1186306, "internal_node_id": "0.0-195.0"}}, {"uniqueid": "MTK0309:3MRNMEIQW6DBCKBSA39I9MWCW6IDLU", "current_trial": 268, "dateTime": 1510704472208, "trialdata": {"rt": -1000, "stimulus": "/static/audio/wordpool/TUNNEL.wav", "key_press": -1, "type": "PRES_AUD", "word": "tunnel", "wordID": 1518, "conditions": [24, 1600, "a", 12000], "trial": 7, "serialpos": 3, "trial_type": "single-audio", "trial_index": 268, "time_elapsed": 1188918, "internal_node_id": "0.0-196.0"}}, {"uniqueid": "MTK0309:3MRNMEIQW6DBCKBSA39I9MWCW6IDLU", "current_trial": 269, "dateTime": 1510704474835, "trialdata": {"rt": -1000, "stimulus": "/static/audio/wordpool/GALLON.wav", "key_press": -1, "type": "PRES_AUD", "word": "gallon", "wordID": 617, "conditions": [24, 1600, "a", 12000], "trial": 7, "serialpos": 4, "trial_type": "single-audio", "trial_index": 269, "time_elapsed": 1191546, "internal_node_id": "0.0-197.0"}}, {"uniqueid": "MTK0309:3MRNMEIQW6DBCKBSA39I9MWCW6IDLU", "current_trial": 270, "dateTime": 1510704477311, "trialdata": {"rt": -1000, "stimulus": "/static/audio/wordpool/SUPPER.wav", "key_press": -1, "type": "PRES_AUD", "word": "supper", "wordID": 1410, "conditions": [24, 1600, "a", 12000], "trial": 7, "serialpos": 5, "trial_type": "single-audio", "trial_index": 270, "time_elapsed": 1194022, "internal_node_id": "0.0-198.0"}}, {"uniqueid": "MTK0309:3MRNMEIQW6DBCKBSA39I9MWCW6IDLU", "current_trial": 271, "dateTime": 1510704480012, "trialdata": {"rt": -1000, "stimulus": "/static/audio/wordpool/PACKAGE.wav", "key_press": -1, "type": "PRES_AUD", "word": "package", "wordID": 996, "conditions": [24, 1600, "a", 12000], "trial": 7, "serialpos": 6, "trial_type": "single-audio", "trial_index": 271, "time_elapsed": 1196722, "internal_node_id": "0.0-199.0"}}, {"uniqueid": "MTK0309:3MRNMEIQW6DBCKBSA39I9MWCW6IDLU", "current_trial": 272, "dateTime": 1510704482637, "trialdata": {"rt": -1000, "stimulus": "/static/audio/wordpool/TOMBSTONE.wav", "key_press": -1, "type": "PRES_AUD", "word": "tombstone", "wordID": 1477, "conditions": [24, 1600, "a", 12000], "trial": 7, "serialpos": 7, "trial_t