{"condition": 0, "counterbalance": 391, "assignmentId": "3FQ5JJ512MV9EQKNEXBKQRVRM0HKNZ", "workerId": "MTK0508", "hitId": "306W7JMRYY5LVWVVCG46K7QMW8PB83", "currenttrial": 626, "bonus": 0, "data": [{"uniqueid": "MTK0508:3FQ5JJ512MV9EQKNEXBKQRVRM0HKNZ", "current_trial": 0, "dateTime": 1511192369051, "trialdata": {"rt": 1668, "key_press": 32, "type": "INSTRUCTIONS", "trial_type": "text", "trial_index": 0, "time_elapsed": 1677, "internal_node_id": "0.0-0.0"}}, {"uniqueid": "MTK0508:3FQ5JJ512MV9EQKNEXBKQRVRM0HKNZ", "current_trial": 1, "dateTime": 1511192383388, "trialdata": {"rt": 14331, "key_press": 32, "type": "INSTRUCTIONS", "trial_type": "text", "trial_index": 1, "time_elapsed": 16019, "internal_node_id": "0.0-1.0"}}, {"uniqueid": "MTK0508:3FQ5JJ512MV9EQKNEXBKQRVRM0HKNZ", "current_trial": 2, "dateTime": 1511192395067, "trialdata": {"rt": [11527], "responses": ["ocean"], "type": "AUDIO_TEST", "trial_type": "audio-test", "trial_index": 2, "time_elapsed": 27698, "internal_node_id": "0.0-2.0"}}, {"uniqueid": "MTK0508:3FQ5JJ512MV9EQKNEXBKQRVRM0HKNZ", "current_trial": 3, "dateTime": 1511192412957, "trialdata": {"rt": [17791], "responses": ["crystal"], "type": "AUDIO_TEST", "trial_type": "audio-test", "trial_index": 3, "time_elapsed": 45588, "internal_node_id": "0.0-3.0"}}, {"uniqueid": "MTK0508:3FQ5JJ512MV9EQKNEXBKQRVRM0HKNZ", "current_trial": 4, "dateTime": 1511192417895, "trialdata": {"rt": [4838], "responses": ["spice"], "type": "AUDIO_TEST", "trial_type": "audio-test", "trial_index": 4, "time_elapsed": 50526, "internal_node_id": "0.0-4.0"}}, {"uniqueid": "MTK0508:3FQ5JJ512MV9EQKNEXBKQRVRM0HKNZ", "current_trial": 5, "dateTime": 1511192459115, "trialdata": {"rt": 40429, "responses": "{\"Q0\":\"1 am\",\"Q1\":\"7 am\",\"Q2\":\"3\"}", "type": "SLEEP_SURVEY", "trial_type": "survey-text", "trial_index": 5, "time_elapsed": 91747, "internal_node_id": "0.0-5.0"}}, {"uniqueid": "MTK0508:3FQ5JJ512MV9EQKNEXBKQRVRM0HKNZ", "current_trial": 6, "dateTime": 1511192482478, "trialdata": {"rt": 22358, "key_press": 122, "type": "INSTRUCTIONS", "trial_type": "text", "trial_index": 6, "time_elapsed": 115109, "internal_node_id": "0.0-6.0"}}, {"uniqueid": "MTK0508:3FQ5JJ512MV9EQKNEXBKQRVRM0HKNZ", "current_trial": 7, "dateTime": 1511192499258, "trialdata": {"rt": 16272, "key_press": 32, "type": "INSTRUCTIONS", "trial_type": "text", "trial_index": 7, "time_elapsed": 131890, "internal_node_id": "0.0-7.0"}}, {"uniqueid": "MTK0508:3FQ5JJ512MV9EQKNEXBKQRVRM0HKNZ", "current_trial": 8, "dateTime": 1511192508920, "trialdata": {"rt": 9153, "key_press": 32, "type": "INSTRUCTIONS", "trial_type": "text", "trial_index": 8, "time_elapsed": 141551, "internal_node_id": "0.0-8.0"}}, {"uniqueid": "MTK0508:3FQ5JJ512MV9EQKNEXBKQRVRM0HKNZ", "current_trial": 9, "dateTime": 1511192527965, "trialdata": {"rt": [3168, 6379, 10267, 12182, 14339], "responses": ["19", "17", "17", "13", "18"], "num1": [6, 2, 5, 3, 8, 9], "num2": [9, 7, 3, 5, 3, 6], "num3": [4, 8, 9, 5, 7, 7], "type": "DISTRACTOR", "conditions": [18, 1200, "a", 18000], "trial": 0, "trial_type": "math-distractor", "trial_index": 9, "time_elapsed": 160594, "internal_node_id": "0.0-9.0"}}, {"uniqueid": "MTK0508:3FQ5JJ512MV9EQKNEXBKQRVRM0HKNZ", "current_trial": 10, "dateTime": 1511192531004, "trialdata": {"rt": -1, "stimulus": "<p id=\"stim\">10</p>", "key_press": -1, "trial_type": "single-stim", "trial_index": 10, "time_elapsed": 163635, "internal_node_id": "0.0-10.0-0.0"}}, {"uniqueid": "MTK0508:3FQ5JJ512MV9EQKNEXBKQRVRM0HKNZ", "current_trial": 11, "dateTime": 1511192531997, "trialdata": {"rt": -1, "stimulus": "<p id=\"stim\">9</p>", "key_press": -1, "trial_type": "single-stim", "trial_index": 11, "time_elapsed": 164629, "internal_node_id": "0.0-10.0-1.0"}}, {"uniqueid": "MTK0508:3FQ5JJ512MV9EQKNEXBKQRVRM0HKNZ", "current_trial": 12, "dateTime": 1511192532998, "trialdata": {"rt": -1, "stimulus": "<p id=\"stim\">8</p>", "key_press": -1, "trial_type": "single-stim", "trial_index": 12, "time_elapsed": 165630, "internal_node_id": "0.0-10.0-2.0"}}, {"uniqueid": "MTK0508:3FQ5JJ512MV9EQKNEXBKQRVRM0HKNZ", "current_trial": 13, "dateTime": 1511192533999, "trialdata": {"rt": -1, "stimulus": "<p id=\"stim\">7</p>", "key_press": -1, "trial_type": "single-stim", "trial_index": 13, "time_elapsed": 166630, "internal_node_id": "0.0-10.0-3.0"}}, {"uniqueid": "MTK0508:3FQ5JJ512MV9EQKNEXBKQRVRM0HKNZ", "current_trial": 14, "dateTime": 1511192535000, "trialdata": {"rt": -1, "stimulus": "<p id=\"stim\">6</p>", "key_press": -1, "trial_type": "single-stim", "trial_index": 14, "time_elapsed": 167631, "internal_node_id": "0.0-10.0-4.0"}}, {"uniqueid": "MTK0508:3FQ5JJ512MV9EQKNEXBKQRVRM0HKNZ", "current_trial": 15, "dateTime": 1511192536000, "trialdata": {"rt": -1, "stimulus": "<p id=\"stim\">5</p>", "key_press": -1, "trial_type": "single-stim", "trial_index": 15, "time_elapsed": 168631, "internal_node_id": "0.0-10.0-5.0"}}, {"uniqueid": "MTK0508:3FQ5JJ512MV9EQKNEXBKQRVRM0HKNZ", "current_trial": 16, "dateTime": 1511192537001, "trialdata": {"rt": -1, "stimulus": "<p id=\"stim\">4</p>", "key_press": -1, "trial_type": "single-stim", "trial_index": 16, "time_elapsed": 169632, "internal_node_id": "0.0-10.0-6.0"}}, {"uniqueid": "MTK0508:3FQ5JJ512MV9EQKNEXBKQRVRM0HKNZ", "current_trial": 17, "dateTime": 1511192538017, "trialdata": {"rt": -1, "stimulus": "<p id=\"stim\">3</p>", "key_press": -1, "trial_type": "single-stim", "trial_index": 17, "time_elapsed": 170648, "internal_node_id": "0.0-10.0-7.0"}}, {"uniqueid": "MTK0508:3FQ5JJ512MV9EQKNEXBKQRVRM0HKNZ", "current_trial": 18, "dateTime": 1511192539021, "trialdata": {"rt": -1, "stimulus": "<p id=\"stim\">2</p>", "key_press": -1, "trial_type": "single-stim", "trial_index": 18, "time_elapsed": 171652, "internal_node_id": "0.0-10.0-8.0"}}, {"uniqueid": "MTK0508:3FQ5JJ512MV9EQKNEXBKQRVRM0HKNZ", "current_trial": 19, "dateTime": 1511192540014, "trialdata": {"rt": -1, "stimulus": "<p id=\"stim\">1</p>", "key_press": -1, "trial_type": "single-stim", "trial_index": 19, "time_elapsed": 172645, "internal_node_id": "0.0-10.0-9.0"}}, {"uniqueid": "MTK0508:3FQ5JJ512MV9EQKNEXBKQRVRM0HKNZ", "current_trial": 20, "dateTime": 1511192541538, "trialdata": {"rt": -1, "stimulus": "<p id=\"stim\">+</p>", "key_press": -1, "type": "FIXATION", "trial_type": "single-stim", "trial_index": 20, "time_elapsed": 174169, "internal_node_id": "0.0-11.0-0.0"}}, {"uniqueid": "MTK0508:3FQ5JJ512MV9EQKNEXBKQRVRM0HKNZ", "current_trial": 21, "dateTime": 1511192543880, "trialdata": {"rt": -1000, "stimulus": "/static/audio/wordpool/GLOVE.wav", "key_press": -1, "type": "PRES_AUD", "word": "glove", "wordID": 641, "conditions": [18, 1200, "a", 18000], "trial": 0, "serialpos": 0, "trial_type": "single-audio", "trial_index": 21, "time_elapsed": 176511, "internal_node_id": "0.0-12.0"}}, {"uniqueid": "MTK0508:3FQ5JJ512MV9EQKNEXBKQRVRM0HKNZ", "current_trial": 22, "dateTime": 1511192546232, "trialdata": {"rt": -1000, "stimulus": "/static/audio/wordpool/CANDY.wav", "key_press": -1, "type": "PRES_AUD", "word": "candy", "wordID": 229, "conditions": [18, 1200, "a", 18000], "trial": 0, "serialpos": 1, "trial_type": "single-audio", "trial_index": 22, "time_elapsed": 178863, "internal_node_id": "0.0-13.0"}}, {"uniqueid": "MTK0508:3FQ5JJ512MV9EQKNEXBKQRVRM0HKNZ", "current_trial": 23, "dateTime": 1511192548570, "trialdata": {"rt": -1000, "stimulus": "/static/audio/wordpool/VELVET.wav", "key_press": -1, "type": "PRES_AUD", "word": "velvet", "wordID": 1554, "conditions": [18, 1200, "a", 18000], "trial": 0, "serialpos": 2, "trial_type": "single-audio", "trial_index": 23, "time_elapsed": 181201, "internal_node_id": "0.0-14.0"}}, {"uniqueid": "MTK0508:3FQ5JJ512MV9EQKNEXBKQRVRM0HKNZ", "current_trial": 24, "dateTime": 1511192550902, "trialdata": {"rt": -1000, "stimulus": "/static/audio/wordpool/OX.wav", "key_press": -1, "type": "PRES_AUD", "word": "ox", "wordID": 993, "conditions": [18, 1200, "a", 18000], "trial": 0, "serialpos": 3, "trial_type": "single-audio", "trial_index": 24, "time_elapsed": 183533, "internal_node_id": "0.0-15.0"}}, {"uniqueid": "MTK0508:3FQ5JJ512MV9EQKNEXBKQRVRM0HKNZ", "current_trial": 25, "dateTime": 1511192553115, "trialdata": {"rt": -1000, "stimulus": "/static/audio/wordpool/DENIM.wav", "key_press": -1, "type": "PRES_AUD", "word": "denim", "wordID": 445, "conditions": [18, 1200, "a", 18000], "trial": 0, "serialpos": 4, "trial_type": "single-audio", "trial_index": 25, "time_elapsed": 185745, "internal_node_id": "0.0-16.0"}}, {"uniqueid": "MTK0508:3FQ5JJ512MV9EQKNEXBKQRVRM0HKNZ", "current_trial": 26, "dateTime": 1511192555328, "trialdata": {"rt": -1000, "stimulus": "/static/audio/wordpool/SMOG.wav", "key_press": -1, "type": "PRES_AUD", "word": "smog", "wordID": 1329, "conditions": [18, 1200, "a", 18000], "trial": 0, "serialpos": 5, "trial_type": "single-audio", "trial_index": 26, "time_elapsed": 187960, "internal_node_id": "0.0-17.0"}}, {"uniqueid": "MTK0508:3FQ5JJ512MV9EQKNEXBKQRVRM0HKNZ", "current_trial": 27, "dateTime": 1511192557679, "trialdata": {"rt": -1000, "stimulus": "/static/audio/wordpool/FRANCE.wav", "key_press": -1, "type": "PRES_AUD", "word": "france", "wordID": 600, "conditions": [18, 1200, "a", 18000], "trial": 0, "serialpos": 6, "trial_type": "single-audio", "trial_index": 27, "time_elapsed": 190310, "internal_node_id": "0.0-18.0"}}, {"uniqueid": "MTK0508:3FQ5JJ512MV9EQKNEXBKQRVRM0HKNZ", "current_trial": 28, "dateTime": 1511192560054, "trialdata": {"rt": -1000, "stimulus": "/static/audio/wordpool/RATTLE.wav", "key_press": -1, "type": "PRES_AUD", "word": "rattle", "wordID": 1169, "conditions": [18, 1200, "a", 18000], "trial": 0, "serialpos": 7, "trial_type": "single-audio", "trial_index": 28, "time_elapsed": 192685, "internal_node_id": "0.0-19.0"}}, {"uniqueid": "MTK0508:3FQ5JJ512MV9EQKNEXBKQRVRM0HKNZ", "current_trial": 29, "dateTime": 1511192562114, "trialdata": {"rt": -1000, "stimulus": "/static/audio/wordpool/GIFT.wav", "key_press": -1, "type": "PRES_AUD", "word": "gift", "wordID": 634, "conditions": [18, 1200, "a", 18000], "trial": 0, "serialpos": 8, "trial_type": "single-audio", "trial_index": 29, "time_elapsed": 194745, "internal_node_id": "0.0-20.0"}}, {"uniqueid": "MTK0508:3FQ5JJ512MV9EQKNEXBKQRVRM0HKNZ", "current_trial": 30, "dateTime": 1511192564326, "trialdata": {"rt": -1000, "stimulus": "/static/audio/wordpool/SCALPEL.wav", "key_press": -1, "type": "PRES_AUD", "word": "scalpel", "wordID": 1242, "conditions": [18, 1200, "a", 18000], "trial": 0, "serialpos": 9, "trial_type": "single-audio", "trial_index": 30, "time_elapsed": 196957, "internal_node_id": "0.0-21.0"}}, {"uniqueid": "MTK0508:3FQ5JJ512MV9EQKNEXBKQRVRM0HKNZ", "current_trial": 31, "dateTime": 1511192566443, "trialdata": {"rt": -1000, "stimulus": "/static/audio/wordpool/SNAIL.wav", "key_press": -1, "type": "PRES_AUD", "word": "snail", "wordID": 1331, "conditions": [18, 1200, "a", 18000], "trial": 0, "serialpos": 10, "trial_type": "single-audio", "trial_index": 31, "time_elapsed": 199074, "internal_node_id": "0.0-22.0"}}, {"uniqueid": "MTK0508:3FQ5JJ512MV9EQKNEXBKQRVRM0HKNZ", "current_trial": 32, "dateTime": 1511192568763, "trialdata": {"rt": -1000, "stimulus": "/static/audio/wordpool/SWAMP.wav", "key_press": -1, "type": "PRES_AUD", "word": "swamp", "wordID": 1415, "conditions": [18, 1200, "a", 18000], "trial": 0, "serialpos": 11, "trial_type": "single-audio", "trial_index": 32, "time_elapsed": 201393, "internal_node_id": "0.0-23.0"}}, {"uniqueid": "MTK0508:3FQ5JJ512MV9EQKNEXBKQRVRM0HKNZ", "current_trial": 33, "dateTime": 1511192571029, "trialdata": {"rt": -1000, "stimulus": "/static/audio/wordpool/TUNNEL.wav", "key_press": -1, "type": "PRES_AUD", "word": "tunnel", "wordID": 1518, "conditions": [18, 1200, "a", 18000], "trial": 0, "serialpos": 12, "trial_type": "single-audio", "trial_index": 33, "time_elapsed": 203661, "internal_node_id": "0.0-24.0"}}, {"uniqueid": "MTK0508:3FQ5JJ512MV9EQKNEXBKQRVRM0HKNZ", "current_trial": 34, "dateTime": 1511192573290, "trialdata": {"rt": -1000, "stimulus": "/static/audio/wordpool/GLASS.wav", "key_press": -1, "type": "PRES_AUD", "word": "glass", "wordID": 638, "conditions": [18, 1200, "a", 18000], "trial": 0, "serialpos": 13, "trial_type": "single-audio", "trial_index": 34, "time_elapsed": 205921, "internal_node_id": "0.0-25.0"}}, {"uniqueid": "MTK0508:3FQ5JJ512MV9EQKNEXBKQRVRM0HKNZ", "current_trial": 35, "dateTime": 1511192575422, "trialdata": {"rt": -1000, "stimulus": "/static/audio/wordpool/REPORT.wav", "key_press": -1, "type": "PRES_AUD", "word": "report", "wordID": 1183, "conditions": [18, 1200, "a", 18000], "trial": 0, "serialpos": 14, "trial_type": "single-audio", "trial_index": 35, "time_elapsed": 208053, "internal_node_id": "0.0-26.0"}}, {"uniqueid": "MTK0508:3FQ5JJ512MV9EQKNEXBKQRVRM0HKNZ", "current_trial": 36, "dateTime": 1511192577532, "trialdata": {"rt": -1000, "stimulus": "/static/audio/wordpool/PEANUT.wav", "key_press": -1, "type": "PRES_AUD", "word": "peanut", "wordID": 1031, "conditions": [18, 1200, "a", 18000], "trial": 0, "serialpos": 15, "trial_type": "single-audio", "trial_index": 36, "time_elapsed": 210162, "internal_node_id": "0.0-27.0"}}, {"uniqueid": "MTK0508:3FQ5JJ512MV9EQKNEXBKQRVRM0HKNZ", "current_trial": 37, "dateTime": 1511192579569, "trialdata": {"rt": -1000, "stimulus": "/static/audio/wordpool/DONOR.wav", "key_press": -1, "type": "PRES_AUD", "word": "donor", "wordID": 484, "conditions": [18, 1200, "a", 18000], "trial": 0, "serialpos": 16, "trial_type": "single-audio", "trial_index": 37, "time_elapsed": 212200, "internal_node_id": "0.0-28.0"}}, {"uniqueid": "MTK0508:3FQ5JJ512MV9EQKNEXBKQRVRM0HKNZ", "current_trial": 38, "dateTime": 1511192581919, "trialdata": {"rt": -1000, "stimulus": "/static/audio/wordpool/STOVE.wav", "key_press": -1, "type": "PRES_AUD", "word": "stove", "wordID": 1387, "conditions": [18, 1200, "a", 18000], "trial": 0, "serialpos": 17, "trial_type": "single-audio", "trial_index": 38, "time_elapsed": 214549, "internal_node_id": "0.0-29.0"}}, {"uniqueid": "MTK0508:3FQ5JJ512MV9EQKNEXBKQRVRM0HKNZ", "current_trial": 39, "dateTime": 1511192583242, "trialdata": {"rt": -1, "stimulus": "", "key_press": -1, "type": "PRE_RECALL_DELAY", "trial_type": "single-stim", "trial_index": 39, "time_elapsed": 215873, "internal_node_id": "0.0-30.0-0.0"}}, {"uniqueid": "MTK0508:3FQ5JJ512MV9EQKNEXBKQRVRM0HKNZ", "current_trial": 40, "dateTime": 1511192583759, "trialdata": {"rt": -1000, "stimulus": "/static/audio/400Hz.wav", "key_press": -1, "type": "PRE_RECALL_ALERT", "trial_type": "single-audio", "trial_index": 40, "time_elapsed": 216390, "internal_node_id": "0.0-31.0"}}, {"uniqueid": "MTK0508:3FQ5JJ512MV9EQKNEXBKQRVRM0HKNZ", "current_trial": 41, "dateTime": 1511192643838, "trialdata": {"rt": [2354, 4725, 6802, 8356, 10231, 11393, 13164, 14845, 17899, 30272, 39438], "recwords": ["glove", "glass", "candy", "france", "swamp", "peanut", "stove", "smog", "donor", "peanut", ""], "type": "FREE_RECALL", "conditions": [18, 1200, "a", 18000], "trial": 0, "trial_type": "free-recall", "trial_index": 41, "time_elapsed": 276443, "internal_node_id": "0.0-32.0-0.0"}}, {"uniqueid": "MTK0508:3FQ5JJ512MV9EQKNEXBKQRVRM0HKNZ", "current_trial": 42, "dateTime": 1511192648374, "trialdata": {"rt": 2523, "key_press": 32, "type": "INSTRUCTIONS", "trial_type": "text", "trial_index": 42, "time_elapsed": 281005, "internal_node_id": "0.0-33.0"}}, {"uniqueid": "MTK0508:3FQ5JJ512MV9EQKNEXBKQRVRM0HKNZ", "current_trial": 43, "dateTime": 1511192668405, "trialdata": {"rt": [5489, 8128, 10453, 12606], "responses": ["16", "7", "9", "11"], "num1": [7, 1, 3, 1, 7], "num2": [5, 2, 5, 7, 9], "num3": [4, 4, 1, 3, 5], "type": "DISTRACTOR", "conditions": [18, 1200, "v", 18000], "trial": 1, "trial_type": "math-distractor", "trial_index": 43, "time_elapsed": 301036, "internal_node_id": "0.0-34.0"}}, {"uniqueid": "MTK0508:3FQ5JJ512MV9EQKNEXBKQRVRM0HKNZ", "current_trial": 44, "dateTime": 1511192671440, "trialdata": {"rt": -1, "stimulus": "<p id=\"stim\">10</p>", "key_press": -1, "trial_type": "single-stim", "trial_index": 44, "time_elapsed": 304071, "internal_node_id": "0.0-35.0-0.0"}}, {"uniqueid": "MTK0508:3FQ5JJ512MV9EQKNEXBKQRVRM0HKNZ", "current_trial": 45, "dateTime": 1511192672450, "trialdata": {"rt": -1, "stimulus": "<p id=\"stim\">9</p>", "key_press": -1, "trial_type": "single-stim", "trial_index": 45, "time_elapsed": 305080, "internal_node_id": "0.0-35.0-1.0"}}, {"uniqueid": "MTK0508:3FQ5JJ512MV9EQKNEXBKQRVRM0HKNZ", "current_trial": 46, "dateTime": 1511192673439, "trialdata": {"rt": -1, "stimulus": "<p id=\"stim\">8</p>", "key_press": -1, "trial_type": "single-stim", "trial_index": 46, "time_elapsed": 306070, "internal_node_id": "0.0-35.0-2.0"}}, {"uniqueid": "MTK0508:3FQ5JJ512MV9EQKNEXBKQRVRM0HKNZ", "current_trial": 47, "dateTime": 1511192674447, "trialdata": {"rt": -1, "stimulus": "<p id=\"stim\">7</p>", "key_press": -1, "trial_type": "single-stim", "trial_index": 47, "time_elapsed": 307079, "internal_node_id": "0.0-35.0-3.0"}}, {"uniqueid": "MTK0508:3FQ5JJ512MV9EQKNEXBKQRVRM0HKNZ", "current_trial": 48, "dateTime": 1511192675441, "trialdata": {"rt": -1, "stimulus": "<p id=\"stim\">6</p>", "key_press": -1, "trial_type": "single-stim", "trial_index": 48, "time_elapsed": 308073, "internal_node_id": "0.0-35.0-4.0"}}, {"uniqueid": "MTK0508:3FQ5JJ512MV9EQKNEXBKQRVRM0HKNZ", "current_trial": 49, "dateTime": 1511192676440, "trialdata": {"rt": -1, "stimulus": "<p id=\"stim\">5</p>", "key_press": -1, "trial_type": "single-stim", "trial_index": 49, "time_elapsed": 309071, "internal_node_id": "0.0-35.0-5.0"}}, {"uniqueid": "MTK0508:3FQ5JJ512MV9EQKNEXBKQRVRM0HKNZ", "current_trial": 50, "dateTime": 1511192677441, "trialdata": {"rt": -1, "stimulus": "<p id=\"stim\">4</p>", "key_press": -1, "trial_type": "single-stim", "trial_index": 50, "time_elapsed": 310072, "internal_node_id": "0.0-35.0-6.0"}}, {"uniqueid": "MTK0508:3FQ5JJ512MV9EQKNEXBKQRVRM0HKNZ", "current_trial": 51, "dateTime": 1511192678460, "trialdata": {"rt": -1, "stimulus": "<p id=\"stim\">3</p>", "key_press": -1, "trial_type": "single-stim", "trial_index": 51, "time_elapsed": 311091, "internal_node_id": "0.0-35.0-7.0"}}, {"uniqueid": "MTK0508:3FQ5JJ512MV9EQKNEXBKQRVRM0HKNZ", "current_trial": 52, "dateTime": 1511192679459, "trialdata": {"rt": -1, "stimulus": "<p id=\"stim\">2</p>", "key_press": -1, "trial_type": "single-stim", "trial_index": 52, "time_elapsed": 312090, "internal_node_id": "0.0-35.0-8.0"}}, {"uniqueid": "MTK0508:3FQ5JJ512MV9EQKNEXBKQRVRM0HKNZ", "current_trial": 53, "dateTime": 1511192680442, "trialdata": {"rt": -1, "stimulus": "<p id=\"stim\">1</p>", "key_press": -1, "trial_type": "single-stim", "trial_index": 53, "time_elapsed": 313073, "internal_node_id": "0.0-35.0-9.0"}}, {"uniqueid": "MTK0508:3FQ5JJ512MV9EQKNEXBKQRVRM0HKNZ", "current_trial": 54, "dateTime": 1511192681970, "trialdata": {"rt": -1, "stimulus": "<p id=\"stim\">+</p>", "key_press": -1, "type": "FIXATION", "trial_type": "single-stim", "trial_index": 54, "time_elapsed": 314601, "internal_node_id": "0.0-36.0-0.0"}}, {"uniqueid": "MTK0508:3FQ5JJ512MV9EQKNEXBKQRVRM0HKNZ", "current_trial": 55, "dateTime": 1511192683177, "trialdata": {"rt": -1, "stimulus": "<p id=\"stim\">COUNTY</p>", "key_press": -1, "type": "PRES_VIS", "word": "county", "wordID": 388, "conditions": [18, 1200, "v", 18000], "trial": 1, "serialpos": 0, "trial_type": "single-stim", "trial_index": 55, "time_elapsed": 315808, "internal_node_id": "0.0-37.0"}}, {"uniqueid": "MTK0508:3FQ5JJ512MV9EQKNEXBKQRVRM0HKNZ", "current_trial": 56, "dateTime": 1511192685393, "trialdata": {"rt": -1, "stimulus": "<p id=\"stim\">APPLE</p>", "key_press": -1, "type": "PRES_VIS", "word": "apple", "wordID": 32, "conditions": [18, 1200, "v", 18000], "trial": 1, "serialpos": 1, "trial_type": "single-stim", "trial_index": 56, "time_elapsed": 318024, "internal_node_id": "0.0-38.0"}}, {"uniqueid": "MTK0508:3FQ5JJ512MV9EQKNEXBKQRVRM0HKNZ", "current_trial": 57, "dateTime": 1511192687461, "trialdata": {"rt": -1, "stimulus": "<p id=\"stim\">DIME</p>", "key_press": -1, "type": "PRES_VIS", "word": "dime", "wordID": 465, "conditions": [18, 1200, "v", 18000], "trial": 1, "serialpos": 2, "trial_type": "single-stim", "trial_index": 57, "time_elapsed": 320091, "internal_node_id": "0.0-39.0"}}, {"uniqueid": "MTK0508:3FQ5JJ512MV9EQKNEXBKQRVRM0HKNZ", "current_trial": 58, "dateTime": 1511192689583, "trialdata": {"rt": -1, "stimulus": "<p id=\"stim\">SAUSAGE</p>", "key_press": -1, "type": "PRES_VIS", "word": "sausage", "wordID": 1237, "conditions": [18, 1200, "v", 18000], "trial": 1, "serialpos": 3, "trial_type": "single-stim", "trial_index": 58, "time_elapsed": 322214, "internal_node_id": "0.0-40.0"}}, {"uniqueid": "MTK0508:3FQ5JJ512MV9EQKNEXBKQRVRM0HKNZ", "current_trial": 59, "dateTime": 1511192691877, "trialdata": {"rt": -1, "stimulus": "<p id=\"stim\">BLENDER</p>", "key_press": -1, "type": "PRES_VIS", "word": "blender", "wordID": 135, "conditions": [18, 1200, "v", 18000], "trial": 1, "serialpos": 4, "trial_type": "single-stim", "trial_index": 59, "time_elapsed": 324508, "internal_node_id": "0.0-41.0"}}, {"uniqueid": "MTK0508:3FQ5JJ512MV9EQKNEXBKQRVRM0HKNZ", "current_trial": 60, "dateTime": 1511192694276, "trialdata": {"rt": -1, "stimulus": "<p id=\"stim\">SPOON</p>", "key_press": -1, "type": "PRES_VIS", "word": "spoon", "wordID": 1356, "conditions": [18, 1200, "v", 18000], "trial": 1, "serialpos": 5, "trial_type": "single-stim", "trial_index": 60, "time_elapsed": 326908, "internal_node_id": "0.0-42.0"}}, {"uniqueid": "MTK0508:3FQ5JJ512MV9EQKNEXBKQRVRM0HKNZ", "current_trial": 61, "dateTime": 1511192696581, "trialdata": {"rt": -1, "stimulus": "<p id=\"stim\">HEADBAND</p>", "key_press": -1, "type": "PRES_VIS", "word": "headband", "wordID": 695, "conditions": [18, 1200, "v", 18000], "trial": 1, "serialpos": 6, "trial_type": "single-stim", "trial_index": 61, "time_elapsed": 329212, "internal_node_id": "0.0-43.0"}}, {"uniqueid": "MTK0508:3FQ5JJ512MV9EQKNEXBKQRVRM0HKNZ", "current_trial": 62, "dateTime": 1511192699005, "trialdata": {"rt": -1, "stimulus": "<p id=\"stim\">BUNNY</p>", "key_press": -1, "type": "PRES_VIS", "word": "bunny", "wordID": 197, "conditions": [18, 1200, "v", 18000], "trial": 1, "serialpos": 7, "trial_type": "single-stim", "trial_index": 62, "time_elapsed": 331636, "internal_node_id": "0.0-44.0"}}, {"uniqueid": "MTK0508:3FQ5JJ512MV9EQKNEXBKQRVRM0HKNZ", "current_trial": 63, "dateTime": 1511192701290, "trialdata": {"rt": -1, "stimulus": "<p id=\"stim\">PERFUME</p>", "key_press": -1, "type": "PRES_VIS", "word": "perfume", "wordID": 1048, "conditions": [18, 1200, "v", 18000], "trial": 1, "serialpos": 8, "trial_type": "single-stim", "trial_index": 63, "time_elapsed": 333921, "internal_node_id": "0.0-45.0"}}, {"uniqueid": "MTK0508:3FQ5JJ512MV9EQKNEXBKQRVRM0HKNZ", "current_trial": 64, "dateTime": 1511192703515, "trialdata": {"rt": -1, "stimulus": "<p id=\"stim\">LAVA</p>", "key_press": -1, "type": "PRES_VIS", "word": "lava", "wordID": 803, "conditions": [18, 1200, "v", 18000], "trial": 1, "serialpos": 9, "trial_type": "single-stim", "trial_index": 64, "time_elapsed": 336146, "internal_node_id": "0.0-46.0"}}, {"uniqueid": "MTK0508:3FQ5JJ512MV9EQKNEXBKQRVRM0HKNZ", "current_trial": 65, "dateTime": 1511192705882, "trialdata": {"rt": -1, "stimulus": "<p id=\"stim\">CRITIC</p>", "key_press": -1, "type": "PRES_VIS", "word": "critic", "wordID": 409, "conditions": [18, 1200, "v", 18000], "trial": 1, "serialpos": 10, "trial_type": "single-stim", "trial_index": 65, "time_elapsed": 338513, "internal_node_id": "0.0-47.0"}}, {"uniqueid": "MTK0508:3FQ5JJ512MV9EQKNEXBKQRVRM0HKNZ", "current_trial": 66, "dateTime": 1511192708080, "trialdata": {"rt": -1, "stimulus": "<p id=\"stim\">FIREMAN</p>", "key_press": -1, "type": "PRES_VIS", "word": "fireman", "wordID": 568, "conditions": [18, 1200, "v", 18000], "trial": 1, "serialpos": 11, "trial_type": "single-stim", "trial_index": 66, "time_elapsed": 340711, "internal_node_id": "0.0-48.0"}}, {"uniqueid": "MTK0508:3FQ5JJ512MV9EQKNEXBKQRVRM0HKNZ", "current_trial": 67, "dateTime": 1511192710363, "trialdata": {"rt": -1, "stimulus": "<p id=\"stim\">RECORD</p>", "key_press": -1, "type": "PRES_VIS", "word": "record", "wordID": 1175, "conditions": [18, 1200, "v", 18000], "trial": 1, "serialpos": 12, "trial_type": "single-stim", "trial_index": 67, "time_elapsed": 342994, "internal_node_id": "0.0-49.0"}}, {"uniqueid": "MTK0508:3FQ5JJ512MV9EQKNEXBKQRVRM0HKNZ", "current_trial": 68, "dateTime": 1511192712717, "trialdata": {"rt": -1, "stimulus": "<p id=\"stim\">FOREST</p>", "key_press": -1, "type": "PRES_VIS", "word": "forest", "wordID": 592, "conditions": [18, 1200, "v", 18000], "trial": 1, "serialpos": 13, "trial_type": "single-stim", "trial_index": 68, "time_elapsed": 345348, "internal_node_id": "0.0-50.0"}}, {"uniqueid": "MTK0508:3FQ5JJ512MV9EQKNEXBKQRVRM0HKNZ", "current_trial": 69, "dateTime": 1511192715057, "trialdata": {"rt": -1, "stimulus": "<p id=\"stim\">RIFLE</p>", "key_press": -1, "type": "PRES_VIS", "word": "rifle", "wordID": 1191, "conditions": [18, 1200, "v", 18000], "trial": 1, "serialpos": 14, "trial_type": "single-stim", "trial_index": 69, "time_elapsed": 347687, "internal_node_id": "0.0-51.0"}}, {"uniqueid": "MTK0508:3FQ5JJ512MV9EQKNEXBKQRVRM0HKNZ", "current_trial": 70, "dateTime": 1511192717423, "trialdata": {"rt": -1, "stimulus": "<p id=\"stim\">OYSTER</p>", "key_press": -1, "type": "PRES_VIS", "word": "oyster", "wordID": 994, "conditions": [18, 1200, "v", 18000], "trial": 1, "serialpos": 15, "trial_type": "single-stim", "trial_index": 70, "time_elapsed": 350054, "internal_node_id": "0.0-52.0"}}, {"uniqueid": "MTK0508:3FQ5JJ512MV9EQKNEXBKQRVRM0HKNZ", "current_trial": 71, "dateTime": 1511192719557, "trialdata": {"rt": -1, "stimulus": "<p id=\"stim\">MARKER</p>", "key_press": -1, "type": "PRES_VIS", "word": "marker", "wordID": 869, "conditions": [18, 1200, "v", 18000], "trial": 1, "serialpos": 16, "trial_type": "single-stim", "trial_index": 71, "time_elapsed": 352188, "internal_node_id": "0.0-53.0"}}, {"uniqueid": "MTK0508:3FQ5JJ512MV9EQKNEXBKQRVRM0HKNZ", "current_trial": 72, "dateTime": 1511192721643, "trialdata": {"rt": -1, "stimulus": "<p id=\"stim\">BLOCKADE</p>", "key_press": -1, "type": "PRES_VIS", "word": "blockade", "wordID": 136, "conditions": [18, 1200, "v", 18000], "trial": 1, "serialpos": 17, "trial_type": "single-stim", "trial_index": 72, "time_elapsed": 354274, "internal_node_id": "0.0-54.0"}}, {"uniqueid": "MTK0508:3FQ5JJ512MV9EQKNEXBKQRVRM0HKNZ", "current_trial": 73, "dateTime": 1511192724043, "trialdata": {"rt": -1, "stimulus": "", "key_press": -1, "type": "PRE_RECALL_DELAY", "trial_type": "single-stim", "trial_index": 73, "time_elapsed": 356674, "internal_node_id": "0.0-55.0-0.0"}}, {"uniqueid": "MTK0508:3FQ5JJ512MV9EQKNEXBKQRVRM0HKNZ", "current_trial": 74, "dateTime": 1511192724559, "trialdata": {"rt": -1000, "stimulus": "/static/audio/400Hz.wav", "key_press": -1, "type": "PRE_RECALL_ALERT", "trial_type": "single-audio", "trial_index": 74, "time_elapsed": 357190, "internal_node_id": "0.0-56.0"}}, {"uniqueid": "MTK0508:3FQ5JJ512MV9EQKNEXBKQRVRM0HKNZ", "current_trial": 75, "dateTime": 1511192784614, "trialdata": {"rt": [2255, 3493, 5408, 11973, 17158, 18272, 23405], "recwords": ["county", "dime", "sausage", "marker", "spoon", "apple", "fireman"], "type": "FREE_RECALL", "conditions": [18, 1200, "v", 18000], "trial": 1, "trial_type": "free-recall", "trial_index": 75, "time_elapsed": 417222, "internal_node_id": "0.0-57.0-0.0"}}, {"uniqueid": "MTK0508:3FQ5JJ512MV9EQKNEXBKQRVRM0HKNZ", "current_trial": 76, "dateTime": 1511192789666, "trialdata": {"rt": 2986, "key_press": 71, "type": "INSTRUCTIONS", "trial_type": "text", "trial_index": 76, "time_elapsed": 422255, "internal_node_id": "0.0-58.0"}}, {"uniqueid": "MTK0508:3FQ5JJ512MV9EQKNEXBKQRVRM0HKNZ", "current_trial": 77, "dateTime": 1511192802708, "trialdata": {"rt": [4446, 6362, 8733, 10674], "responses": ["14", "9", "17", "10"], "num1": [3, 7, 2, 2, 7], "num2": [6, 1, 7, 4, 4], "num3": [5, 1, 8, 4, 9], "type": "DISTRACTOR", "conditions": [24, 800, "v", 12000], "trial": 2, "trial_type": "math-distractor", "trial_index": 77, "time_elapsed": 435339, "internal_node_id": "0.0-59.0"}}, {"uniqueid": "MTK0508:3FQ5JJ512MV9EQKNEXBKQRVRM0HKNZ", "current_trial": 78, "dateTime": 1511192805746, "trialdata": {"rt": -1, "stimulus": "<p id=\"stim\">10</p>", "key_press": -1, "trial_type": "single-stim", "trial_index": 78, "time_elapsed": 438377, "internal_node_id": "0.0-60.0-0.0"}}, {"uniqueid": "MTK0508:3FQ5JJ512MV9EQKNEXBKQRVRM0HKNZ", "current_trial": 79, "dateTime": 1511192806723, "trialdata": {"rt": -1, "stimulus": "<p id=\"stim\">9</p>", "key_press": -1, "trial_type": "single-stim", "trial_index": 79, "time_elapsed": 439353, "internal_node_id": "0.0-60.0-1.0"}}, {"uniqueid": "MTK0508:3FQ5JJ512MV9EQKNEXBKQRVRM0HKNZ", "current_trial": 80, "dateTime": 1511192807728, "trialdata": {"rt": -1, "stimulus": "<p id=\"stim\">8</p>", "key_press": -1, "trial_type": "single-stim", "trial_index": 80, "time_elapsed": 440358, "internal_node_id": "0.0-60.0-2.0"}}, {"uniqueid": "MTK0508:3FQ5JJ512MV9EQKNEXBKQRVRM0HKNZ", "current_trial": 81, "dateTime": 1511192808754, "trialdata": {"rt": -1, "stimulus": "<p id=\"stim\">7</p>", "key_press": -1, "trial_type": "single-stim", "trial_index": 81, "time_elapsed": 441384, "internal_node_id": "0.0-60.0-3.0"}}, {"uniqueid": "MTK0508:3FQ5JJ512MV9EQKNEXBKQRVRM0HKNZ", "current_trial": 82, "dateTime": 1511192809739, "trialdata": {"rt": -1, "stimulus": "<p id=\"stim\">6</p>", "key_press": -1, "trial_type": "single-stim", "trial_index": 82, "time_elapsed": 442369, "internal_node_id": "0.0-60.0-4.0"}}, {"uniqueid": "MTK0508:3FQ5JJ512MV9EQKNEXBKQRVRM0HKNZ", "current_trial": 83, "dateTime": 1511192810745, "trialdata": {"rt": -1, "stimulus": "<p id=\"stim\">5</p>", "key_press": -1, "trial_type": "single-stim", "trial_index": 83, "time_elapsed": 443375, "internal_node_id": "0.0-60.0-5.0"}}, {"uniqueid": "MTK0508:3FQ5JJ512MV9EQKNEXBKQRVRM0HKNZ", "current_trial": 84, "dateTime": 1511192811737, "trialdata": {"rt": -1, "stimulus": "<p id=\"stim\">4</p>", "key_press": -1, "trial_type": "single-stim", "trial_index": 84, "time_elapsed": 444367, "internal_node_id": "0.0-60.0-6.0"}}, {"uniqueid": "MTK0508:3FQ5JJ512MV9EQKNEXBKQRVRM0HKNZ", "current_trial": 85, "dateTime": 1511192812732, "trialdata": {"rt": -1, "stimulus": "<p id=\"stim\">3</p>", "key_press": -1, "trial_type": "single-stim", "trial_index": 85, "time_elapsed": 445363, "internal_node_id": "0.0-60.0-7.0"}}, {"uniqueid": "MTK0508:3FQ5JJ512MV9EQKNEXBKQRVRM0HKNZ", "current_trial": 86, "dateTime": 1511192813735, "trialdata": {"rt": -1, "stimulus": "<p id=\"stim\">2</p>", "key_press": -1, "trial_type": "single-stim", "trial_index": 86, "time_elapsed": 446365, "internal_node_id": "0.0-60.0-8.0"}}, {"uniqueid": "MTK0508:3FQ5JJ512MV9EQKNEXBKQRVRM0HKNZ", "current_trial": 87, "dateTime": 1511192814739, "trialdata": {"rt": -1, "stimulus": "<p id=\"stim\">1</p>", "key_press": -1, "trial_type": "single-stim", "trial_index": 87, "time_elapsed": 447369, "internal_node_id": "0.0-60.0-9.0"}}, {"uniqueid": "MTK0508:3FQ5JJ512MV9EQKNEXBKQRVRM0HKNZ", "current_trial": 88, "dateTime": 1511192816256, "trialdata": {"rt": -1, "stimulus": "<p id=\"stim\">+</p>", "key_press": -1, "type": "FIXATION", "trial_type": "single-stim", "trial_index": 88, "time_elapsed": 448887, "internal_node_id": "0.0-61.0-0.0"}}, {"uniqueid": "MTK0508:3FQ5JJ512MV9EQKNEXBKQRVRM0HKNZ", "current_trial": 89, "dateTime": 1511192817074, "trialdata": {"rt": -1, "stimulus": "<p id=\"stim\">CHEST</p>", "key_press": -1, "type": "PRES_VIS", "word": "chest", "wordID": 294, "conditions": [24, 800, "v", 12000], "trial": 2, "serialpos": 0, "trial_type": "single-stim", "trial_index": 89, "time_elapsed": 449704, "internal_node_id": "0.0-62.0"}}, {"uniqueid": "MTK0508:3FQ5JJ512MV9EQKNEXBKQRVRM0HKNZ", "current_trial": 90, "dateTime": 1511192818716, "trialdata": {"rt": -1, "stimulus": "<p id=\"stim\">MARROW</p>", "key_press": -1, "type": "PRES_VIS", "word": "marrow", "wordID": 871, "conditions": [24, 800, "v", 12000], "trial": 2, "serialpos": 1, "trial_type": "single-stim", "trial_index": 90, "time_elapsed": 451347, "internal_node_id": "0.0-63.0"}}, {"uniqueid": "MTK0508:3FQ5JJ512MV9EQKNEXBKQRVRM0HKNZ", "current_trial": 91, "dateTime": 1511192820660, "trialdata": {"rt": -1, "stimulus": "<p id=\"stim\">FEMALE</p>", "key_press": -1, "type": "PRES_VIS", "word": "female", "wordID": 558, "conditions": [24, 800, "v", 12000], "trial": 2, "serialpos": 2, "trial_type": "single-stim", "trial_index": 91, "time_elapsed": 453290, "internal_node_id": "0.0-64.0"}}, {"uniqueid": "MTK0508:3FQ5JJ512MV9EQKNEXBKQRVRM0HKNZ", "current_trial": 92, "dateTime": 1511192822407, "trialdata": {"rt": -1, "stimulus": "<p id=\"stim\">OMELET</p>", "key_press": -1, "type": "PRES_VIS", "word": "omelet", "wordID": 975, "conditions": [24, 800, "v", 12000], "trial": 2, "serialpos": 3, "trial_type": "single-stim", "trial_index": 92, "time_elapsed": 455038, "internal_node_id": "0.0-65.0"}}, {"uniqueid": "MTK0508:3FQ5JJ512MV9EQKNEXBKQRVRM0HKNZ", "current_trial": 93, "dateTime": 1511192824307, "trialdata": {"rt": -1, "stimulus": "<p id=\"stim\">LUMBER</p>", "key_press": -1, "type": "PRES_VIS", "word": "lumber", "wordID": 847, "conditions": [24, 800, "v", 12000], "trial": 2, "serialpos": 4, "trial_type": "single-stim", "trial_index": 93, "time_elapsed": 456939, "internal_node_id": "0.0-66.0"}}, {"uniqueid": "MTK0508:3FQ5JJ512MV9EQKNEXBKQRVRM0HKNZ", "current_trial": 94, "dateTime": 1511192826186, "trialdata": {"rt": -1, "stimulus": "<p id=\"stim\">UNCLE</p>", "key_press": -1, "type": "PRES_VIS", "word": "uncle", "wordID": 1535, "conditions": [24, 800, "v", 12000], "trial": 2, "serialpos": 5, "trial_type": "single-stim", "trial_index": 94, "time_elapsed": 458817, "internal_node_id": "0.0-67.0"}}, {"uniqueid": "MTK0508:3FQ5JJ512MV9EQKNEXBKQRVRM0HKNZ", "current_trial": 95, "dateTime": 1511192827864, "trialdata": {"rt": -1, "stimulus": "<p id=\"stim\">SHRUB</p>", "key_press": -1, "type": "PRES_VIS", "word": "shrub", "wordID": 1298, "conditions": [24, 800, "v", 12000], "trial": 2, "serialpos": 6, "trial_type": "single-stim", "trial_index": 95, "time_elapsed": 460495, "internal_node_id": "0.0-68.0"}}, {"uniqueid": "MTK0508:3FQ5JJ512MV9EQKNEXBKQRVRM0HKNZ", "current_trial": 96, "dateTime": 1511192829861, "trialdata": {"rt": -1, "stimulus": "<p id=\"stim\">WOMAN</p>", "key_press": -1, "type": "PRES_VIS", "word": "woman", "wordID": 1619, "conditions": [24, 800, "v", 12000], "trial": 2, "serialpos": 7, "trial_type": "single-stim", "trial_index": 96, "time_elapsed": 462492, "internal_node_id": "0.0-69.0"}}, {"uniqueid": "MTK0508:3FQ5JJ512MV9EQKNEXBKQRVRM0HKNZ", "current_trial": 97, "dateTime": 1511192831846, "trialdata": {"rt": -1, "stimulus": "<p id=\"stim\">SHORTCAKE</p>", "key_press": -1, "type": "PRES_VIS", "word": "shortcake", "wordID": 1291, "conditions": [24, 800, "v", 12000], "trial": 2, "serialpos": 8, "trial_type": "single-stim", "trial_index": 97, "time_elapsed": 464477, "internal_node_id": "0.0-70.0"}}, {"uniqueid": "MTK0508:3FQ5JJ512MV9EQKNEXBKQRVRM0HKNZ", "current_trial": 98, "dateTime": 1511192833738, "trialdata": {"rt": -1, "stimulus": "<p id=\"stim\">COOKBOOK</p>", "key_press": -1, "type": "PRES_VIS", "word": "cookbook", "wordID": 372, "conditions": [24, 800, "v", 12000], "trial": 2, "serialpos": 9, "trial_type": "single-stim", "trial_index": 98, "time_elapsed": 466368, "internal_node_id": "0.0-71.0"}}, {"uniqueid": "MTK0508:3FQ5JJ512MV9EQKNEXBKQRVRM0HKNZ", "current_trial": 99, "dateTime": 1511192835747, "trialdata": {"rt": -1, "stimulus": "<p id=\"stim\">BRICK</p>", "key_press": -1, "type": "PRES_VIS", "word": "brick", "wordID": 171, "conditions": [24, 800, "v", 12000], "trial": 2, "serialpos": 10, "trial_type": "single-stim", "trial_index": 99, "time_elapsed": 468377, "internal_node_id": "0.0-72.0"}}, {"uniqueid": "MTK0508:3FQ5JJ512MV9EQKNEXBKQRVRM0HKNZ", "current_trial": 100, "dateTime": 1511192837502, "trialdata": {"rt": -1, "stimulus": "<p id=\"stim\">STONE</p>", "key_press": -1, "type": "PRES_VIS", "word": "stone", "wordID": 1384, "conditions": [24, 800, "v", 12000], "trial": 2, "serialpos": 11, "trial_type": "single-stim", "trial_index": 100, "time_elapsed": 470134, "internal_node_id": "0.0-73.0"}}, {"uniqueid": "MTK0508:3FQ5JJ512MV9EQKNEXBKQRVRM0HKNZ", "current_trial": 101, "dateTime": 1511192839266, "trialdata": {"rt": -1, "stimulus": "<p id=\"stim\">QUEEN</p>", "key_press": -1, "type": "PRES_VIS", "word": "queen", "wordID": 1148, "conditions": [24, 800, "v", 12000], "trial": 2, "serialpos": 12, "trial_type": "single-stim", "trial_index": 101, "time_elapsed": 471897, "internal_node_id": "0.0-74.0"}}, {"uniqueid": "MTK0508:3FQ5JJ512MV9EQKNEXBKQRVRM0HKNZ", "current_trial": 102, "dateTime": 1511192841260, "trialdata": {"rt": -1, "stimulus": "<p id=\"stim\">BUTCHER</p>", "key_press": -1, "type": "PRES_VIS", "word": "butcher", "wordID": 202, "conditions": [24, 800, "v", 12000], "trial": 2, "serialpos": 13, "trial_type": "single-stim", "trial_index": 102, "time_elapsed": 473892, "internal_node_id": "0.0-75.0"}}, {"uniqueid": "MTK0508:3FQ5JJ512MV9EQKNEXBKQRVRM0HKNZ", "current_trial": 103, "dateTime": 1511192843152, "trialdata": {"rt": -1, "stimulus": "<p id=\"stim\">WHISKERS</p>", "key_press": -1, "type": "PRES_VIS", "word": "whiskers", "wordID": 1604, "conditions": [24, 800, "v", 12000], "trial": 2, "serialpos": 14, "trial_type": "single-stim", "trial_index": 103, "time_elapsed": 475783, "internal_node_id": "0.0-76.0"}}, {"uniqueid": "MTK0508:3FQ5JJ512MV9EQKNEXBKQRVRM0HKNZ", "current_trial": 104, "dateTime": 1511192845044, "trialdata": {"rt": -1, "stimulus": "<p id=\"stim\">SUMMIT</p>", "key_press": -1, "type": "PRES_VIS", "word": "summit", "wordID": 1404, "conditions": [24, 800, "v", 12000], "trial": 2, "serialpos": 15, "trial_type": "single-stim", "trial_index": 104, "time_elapsed": 477675, "internal_node_id": "0.0-77.0"}}, {"uniqueid": "MTK0508:3FQ5JJ512MV9EQKNEXBKQRVRM0HKNZ", "current_trial": 105, "dateTime": 1511192846718, "trialdata": {"rt": -1, "stimulus": "<p id=\"stim\">RUST</p>", "key_press": -1, "type": "PRES_VIS", "word": "rust", "wordID": 1218, "conditions": [24, 800, "v", 12000], "trial": 2, "serialpos": 16, "trial_type": "single-stim", "trial_index": 105, "time_elapsed": 479348, "internal_node_id": "0.0-78.0"}}, {"uniqueid": "MTK0508:3FQ5JJ512MV9EQKNEXBKQRVRM0HKNZ", "current_trial": 106, "dateTime": 1511192848630, "trialdata": {"rt": -1, "stimulus": "<p id=\"stim\">SCARF</p>", "key_press": -1, "type": "PRES_VIS", "word": "scarf", "wordID": 1245, "conditions": [24, 800, "v", 12000], "trial": 2, "serialpos": 17, "trial_type": "single-stim", "trial_index": 106, "time_elapsed": 481261, "internal_node_id": "0.0-79.0"}}, {"uniqueid": "MTK0508:3FQ5JJ512MV9EQKNEXBKQRVRM0HKNZ", "current_trial": 107, "dateTime": 1511192850270, "trialdata": {"rt": -1, "stimulus": "<p id=\"stim\">JELLY</p>", "key_press": -1, "type": "PRES_VIS", "word": "jelly", "wordID": 754, "conditions": [24, 800, "v", 12000], "trial": 2, "serialpos": 18, "trial_type": "single-stim", "trial_index": 107, "time_elapsed": 482901, "internal_node_id": "0.0-80.0"}}, {"uniqueid": "MTK0508:3FQ5JJ512MV9EQKNEXBKQRVRM0HKNZ", "current_trial": 108, "dateTime": 1511192852214, "trialdata": {"rt": -1, "stimulus": "<p id=\"stim\">TROUT</p>", "key_press": -1, "type": "PRES_VIS", "word": "trout", "wordID": 1510, "conditions": [24, 800, "v", 12000], "trial": 2, "serialpos": 19, "trial_type": "single-stim", "trial_index": 108, "time_elapsed": 484844, "internal_node_id": "0.0-81.0"}}, {"uniqueid": "MTK0508:3FQ5JJ512MV9EQKNEXBKQRVRM0HKNZ", "current_trial": 109, "dateTime": 1511192854073, "trialdata": {"rt": -1, "stimulus": "<p id=\"stim\">PORK</p>", "key_press": -1, "type": "PRES_VIS", "word": "pork", "wordID": 1107, "conditions": [24, 800, "v", 12000], "trial": 2, "serialpos": 20, "trial_type": "single-stim", "trial_index": 109, "time_elapsed": 486703, "internal_node_id": "0.0-82.0"}}, {"uniqueid": "MTK0508:3FQ5JJ512MV9EQKNEXBKQRVRM0HKNZ", "current_trial": 110, "dateTime": 1511192855820, "trialdata": {"rt": -1, "stimulus": "<p id=\"stim\">BEEF</p>", "key_press": -1, "type": "PRES_VIS", "word": "beef", "wordID": 112, "conditions": [24, 800, "v", 12000], "trial": 2, "serialpos": 21, "trial_type": "single-stim", "trial_index": 110, "time_elapsed": 488450, "internal_node_id": "0.0-83.0"}}, {"uniqueid": "MTK0508:3FQ5JJ512MV9EQKNEXBKQRVRM0HKNZ", "current_trial": 111, "dateTime": 1511192857781, "trialdata": {"rt": -1, "stimulus": "<p id=\"stim\">PRINCESS</p>", "key_press": -1, "type": "PRES_VIS", "word": "princess", "wordID": 1124, "conditions": [24, 800, "v", 12000], "trial": 2, "serialpos": 22, "trial_type": "single-stim", "trial_index": 111, "time_elapsed": 490411, "internal_node_id": "0.0-84.0"}}, {"uniqueid": "MTK0508:3FQ5JJ512MV9EQKNEXBKQRVRM0HKNZ", "current_trial": 112, "dateTime": 1511192859755, "trialdata": {"rt": -1, "stimulus": "<p id=\"stim\">LOFT</p>", "key_press": -1, "type": "PRES_VIS", "word": "loft", "wordID": 839, "conditions": [24, 800, "v", 12000], "trial": 2, "serialpos": 23, "trial_type": "single-stim", "trial_index": 112, "time_elapsed": 492386, "internal_node_id": "0.0-85.0"}}, {"uniqueid": "MTK0508:3FQ5JJ512MV9EQKNEXBKQRVRM0HKNZ", "current_trial": 113, "dateTime": 1511192861802, "trialdata": {"rt": -1, "stimulus": "", "key_press": -1, "type": "PRE_RECALL_DELAY", "trial_type": "single-stim", "trial_index": 113, "time_elapsed": 494432, "internal_node_id": "0.0-86.0-0.0"}}, {"uniqueid": "MTK0508:3FQ5JJ512MV9EQKNEXBKQRVRM0HKNZ", "current_trial": 114, "dateTime": 1511192862327, "trialdata": {"rt": -1000, "stimulus": "/static/audio/400Hz.wav", "key_press": -1, "type": "PRE_RECALL_ALERT", "trial_type": "single-audio", "trial_index": 114, "time_elapsed": 494957, "internal_node_id": "0.0-87.0"}}, {"uniqueid": "MTK0508:3FQ5JJ512MV9EQKNEXBKQRVRM0HKNZ", "current_trial": 115, "dateTime": 1511192922381, "trialdata": {"rt": [1691, 3271, 4558, 6107, 7967, 9720, 11604, 12767, 18277, 26655, 33186], "recwords": ["loft", "summit", "pork", "beef", "princess", "queen", "woman", "female", "loft", "chest", "cookbook"], "type": "FREE_RECALL", "conditions": [24, 800, "v", 12000], "trial": 2, "trial_type": "free-recall", "trial_index": 115, "time_elapsed": 554993, "internal_node_id": "0.0-88.0-0.0"}}, {"uniqueid": "MTK0508:3FQ5JJ512MV9EQKNEXBKQRVRM0HKNZ", "current_trial": 116, "dateTime": 1511192925641, "trialdata": {"rt": 1242, "key_press": 32, "type": "INSTRUCTIONS", "trial_type": "text", "trial_index": 116, "time_elapsed": 558271, "internal_node_id": "0.0-89.0"}}, {"uniqueid": "MTK0508:3FQ5JJ512MV9EQKNEXBKQRVRM0HKNZ", "current_trial": 117, "dateTime": 1511192939684, "trialdata": {"rt": [2650, 4614, 6553, 10508], "responses": ["16", "15", "19", "26"], "num1": [6, 1, 5, 9, 8], "num2": [3, 7, 9, 8, 6], "num3": [7, 7, 5, 9, 2], "type": "DISTRACTOR", "conditions": [24, 1600, "a", 12000], "trial": 3, "trial_type": "math-distractor", "trial_index": 117, "time_elapsed": 572314, "internal_node_id": "0.0-90.0"}}, {"uniqueid": "MTK0508:3FQ5JJ512MV9EQKNEXBKQRVRM0HKNZ", "current_trial": 118, "dateTime": 1511192942711, "trialdata": {"rt": -1, "stimulus": "<p id=\"stim\">10</p>", "key_press": -1, "trial_type": "single-stim", "trial_index": 118, "time_elapsed": 575341, "internal_node_id": "0.0-91.0-0.0"}}, {"uniqueid": "MTK0508:3FQ5JJ512MV9EQKNEXBKQRVRM0HKNZ", "current_trial": 119, "dateTime": 1511192943697, "trialdata": {"rt": -1, "stimulus": "<p id=\"stim\">9</p>", "key_press": -1, "trial_type": "single-stim", "trial_index": 119, "time_elapsed": 576329, "internal_node_id": "0.0-91.0-1.0"}}, {"uniqueid": "MTK0508:3FQ5JJ512MV9EQKNEXBKQRVRM0HKNZ", "current_trial": 120, "dateTime": 1511192944712, "trialdata": {"rt": -1, "stimulus": "<p id=\"stim\">8</p>", "key_press": -1, "trial_type": "single-stim", "trial_index": 120, "time_elapsed": 577342, "internal_node_id": "0.0-91.0-2.0"}}, {"uniqueid": "MTK0508:3FQ5JJ512MV9EQKNEXBKQRVRM0HKNZ", "current_trial": 121, "dateTime": 1511192945697, "trialdata": {"rt": -1, "stimulus": "<p id=\"stim\">7</p>", "key_press": -1, "trial_type": "single-stim", "trial_index": 121, "time_elapsed": 578327, "internal_node_id": "0.0-91.0-3.0"}}, {"uniqueid": "MTK0508:3FQ5JJ512MV9EQKNEXBKQRVRM0HKNZ", "current_trial": 122, "dateTime": 1511192946698, "trialdata": {"rt": -1, "stimulus": "<p id=\"stim\">6</p>", "key_press": -1, "trial_type": "single-stim", "trial_index": 122, "time_elapsed": 579329, "internal_node_id": "0.0-91.0-4.0"}}, {"uniqueid": "MTK0508:3FQ5JJ512MV9EQKNEXBKQRVRM0HKNZ", "current_trial": 123, "dateTime": 1511192947695, "trialdata": {"rt": -1, "stimulus": "<p id=\"stim\">5</p>", "key_press": -1, "trial_type": "single-stim", "trial_index": 123, "time_elapsed": 580325, "internal_node_id": "0.0-91.0-5.0"}}, {"uniqueid": "MTK0508:3FQ5JJ512MV9EQKNEXBKQRVRM0HKNZ", "current_trial": 124, "dateTime": 1511192948707, "trialdata": {"rt": -1, "stimulus": "<p id=\"stim\">4</p>", "key_press": -1, "trial_type": "single-stim", "trial_index": 124, "time_elapsed": 581338, "internal_node_id": "0.0-91.0-6.0"}}, {"uniqueid": "MTK0508:3FQ5JJ512MV9EQKNEXBKQRVRM0HKNZ", "current_trial": 125, "dateTime": 1511192949700, "trialdata": {"rt": -1, "stimulus": "<p id=\"stim\">3</p>", "key_press": -1, "trial_type": "single-stim", "trial_index": 125, "time_elapsed": 582330, "internal_node_id": "0.0-91.0-7.0"}}, {"uniqueid": "MTK0508:3FQ5JJ512MV9EQKNEXBKQRVRM0HKNZ", "current_trial": 126, "dateTime": 1511192950702, "trialdata": {"rt": -1, "stimulus": "<p id=\"stim\">2</p>", "key_press": -1, "trial_type": "single-stim", "trial_index": 126, "time_elapsed": 583333, "internal_node_id": "0.0-91.0-8.0"}}, {"uniqueid": "MTK0508:3FQ5JJ512MV9EQKNEXBKQRVRM0HKNZ", "current_trial": 127, "dateTime": 1511192951713, "trialdata": {"rt": -1, "stimulus": "<p id=\"stim\">1</p>", "key_press": -1, "trial_type": "single-stim", "trial_index": 127, "time_elapsed": 584343, "internal_node_id": "0.0-91.0-9.0"}}, {"uniqueid": "MTK0508:3FQ5JJ512MV9EQKNEXBKQRVRM0HKNZ", "current_trial": 128, "dateTime": 1511192953236, "trialdata": {"rt": -1, "stimulus": "<p id=\"stim\">+</p>", "key_press": -1, "type": "FIXATION", "trial_type": "single-stim", "trial_index": 128, "time_elapsed": 585867, "internal_node_id": "0.0-92.0-0.0"}}, {"uniqueid": "MTK0508:3FQ5JJ512MV9EQKNEXBKQRVRM0HKNZ", "current_trial": 129, "dateTime": 1511192955851, "trialdata": {"rt": -1000, "stimulus": "/static/audio/wordpool/SKILLET.wav", "key_press": -1, "type": "PRES_AUD", "word": "skillet", "wordID": 1316, "conditions": [24, 1600, "a", 12000], "trial": 3, "serialpos": 0, "trial_type": "single-audio", "trial_index": 129, "time_elapsed": 588481, "internal_node_id": "0.0-93.0"}}, {"uniqueid": "MTK0508:3FQ5JJ512MV9EQKNEXBKQRVRM0HKNZ", "current_trial": 130, "dateTime": 1511192958453, "trialdata": {"rt": -1000, "stimulus": "/static/audio/wordpool/LOVER.wav", "key_press": -1, "type": "PRES_AUD", "word": "lover", "wordID": 845, "conditions": [24, 1600, "a", 12000], "trial": 3, "serialpos": 1, "trial_type": "single-audio", "trial_index": 130, "time_elapsed": 591083, "internal_node_id": "0.0-94.0"}}, {"uniqueid": "MTK0508:3FQ5JJ512MV9EQKNEXBKQRVRM0HKNZ", "current_trial": 131, "dateTime": 1511192961017, "trialdata": {"rt": -1000, "stimulus": "/static/audio/wordpool/SPIDER.wav", "key_press": -1, "type": "PRES_AUD", "word": "spider", "wordID": 1350, "conditions": [24, 1600, "a", 12000], "trial": 3, "serialpos": 2, "trial_type": "single-audio", "trial_index": 131, "time_elapsed": 593647, "internal_node_id": "0.0-95.0"}}, {"uniqueid": "MTK0508:3FQ5JJ512MV9EQKNEXBKQRVRM0HKNZ", "current_trial": 132, "dateTime": 1511192963671, "trialdata": {"rt": -1000, "stimulus": "/static/audio/wordpool/COMET.wav", "key_press": -1, "type": "PRES_AUD", "word": "comet", "wordID": 352, "conditions": [24, 1600, "a", 12000], "trial": 3, "serialpos": 3, "trial_type": "single-audio", "trial_index": 132, "time_elapsed": 596301, "internal_node_id": "0.0-96.0"}}, {"uniqueid": "MTK0508:3FQ5JJ512MV9EQKNEXBKQRVRM0HKNZ", "current_trial": 133, "dateTime": 1511192966370, "trialdata": {"rt": -1000, "stimulus": "/static/audio/wordpool/FARMER.wav", "key_press": -1, "type": "PRES_AUD", "word": "farmer", "wordID": 552, "conditions": [24, 1600, "a", 12000], "trial": 3, "serialpos": 4, "trial_type": "single-audio", "trial_index": 133, "time_elapsed": 599000, "internal_node_id": "0.0-97.0"}}, {"uniqueid": "MTK0508:3FQ5JJ512MV9EQKNEXBKQRVRM0HKNZ", "current_trial": 134, "dateTime": 1511192969015, "trialdata": {"rt": -1000, "stimulus": "/static/audio/wordpool/PALACE.wav", "key_press": -1, "type": "PRES_AUD", "word": "palace", "wordID": 1005, "conditions": [24, 1600, "a", 12000], "trial": 3, "serialpos": 5, "trial_type": "single-audio", "trial_index": 134, "time_elapsed": 601645, "internal_node_id": "0.0-98.0"}}, {"uniqueid": "MTK0508:3FQ5JJ512MV9EQKNEXBKQRVRM0HKNZ", "current_trial": 135, "dateTime": 1511192971703, "trialdata": {"rt": -1000, "stimulus": "/static/audio/wordpool/LILY.wav", "key_press": -1, "type": "PRES_AUD", "word": "lily", "wordID": 820, "conditions": [24, 1600, "a", 12000], "trial": 3, "serialpos": 6, "trial_type": "single-audio", "trial_index": 135, "time_elapsed": 604334, "internal_node_id": "0.0-99.0"}}, {"uniqueid": "MTK0508:3FQ5JJ512MV9EQKNEXBKQRVRM0HKNZ", "current_trial": 136, "dateTime": 1511192974314, "trialdata": {"rt": -1000, "stimulus": "/static/audio/wordpool/FUNGUS.wav", "key_press": -1, "type": "PRES_AUD", "word": "fungus", "wordID": 613, "conditions": [24, 1600, "a", 12000], "trial": 3, "serialpos": 7, "trial_type": "single-audio", "trial_index": 136, "time_elapsed": 606945, "internal_node_id": "0.0-100.0"}}, {"uniqueid": "MTK0508:3FQ5JJ512MV9EQKNEXBKQRVRM0HKNZ", "current_trial": 137, "dateTime": 1511192977120, "trialdata": {"rt": -1000, "stimulus": "/static/audio/wordpool/PIGEON.wav", "key_press": -1, "type": "PRES_AUD", "word": "pigeon", "wordID": 1064, "conditions": [24, 1600, "a", 12000], "trial": 3, "serialpos": 8, "trial_type": "single-audio", "trial_index": 137, "time_elapsed": 609750, "internal_node_id": "0.0-101.0"}}, {"uniqueid": "MTK0508:3FQ5JJ512MV9EQKNEXBKQRVRM0HKNZ", "current_trial": 138, "dateTime": 1511192979817, "trialdata": {"rt": -1000, "stimulus": "/static/audio/wordpool/SEAFOOD.wav", "key_press": -1, "type": "PRES_AUD", "word": "seafood", "wordID": 1259, "conditions": [24, 1600, "a", 12000], "trial": 3, "serialpos": 9, "trial_type": "single-audio", "trial_index": 138, "time_elapsed": 612447, "internal_node_id": "0.0-102.0"}}, {"uniqueid": "MTK0508:3FQ5JJ512MV9EQKNEXBKQRVRM0HKNZ", "current_trial": 139, "dateTime": 1511192982247, "trialdata": {"rt": -1000, "stimulus": "/static/audio/wordpool/SALMON.wav", "key_press": -1, "type": "PRES_AUD", "word": "salmon", "wordID": 1226, "conditions": [24, 1600, "a", 12000], "trial": 3, "serialpos": 10, "trial_type": "single-audio", "trial_index": 139, "time_elapsed": 614878, "internal_node_id": "0.0-103.0"}}, {"uniqueid": "MTK0508:3FQ5JJ512MV9EQKNEXBKQRVRM0HKNZ", "current_trial": 140, "dateTime": 1511192984898, "trialdata": {"rt": -1000, "stimulus": "/static/audio/wordpool/GRILL.wav", "key_press": -1, "type": "PRES_AUD", "word": "grill", "wordID": 660, "conditions": [24, 1600, "a", 12000], "trial": 3, "serialpos": 11, "trial_type": "single-audio", "trial_index": 140, "time_elapsed": 617528, "internal_node_id": "0.0-104.0"}}, {"uniqueid": "MTK0508:3FQ5JJ512MV9EQKNEXBKQRVRM0HKNZ", "current_trial": 141, "dateTime": 1511192987681, "trialdata": {"rt": -1000, "stimulus": "/static/audio/wordpool/DRESS.wav", "key_press": -1, "type": "PRES_AUD", "word": "dress", "wordID": 494, "conditions": [24, 1600, "a", 12000], "trial": 3, "serialpos": 12, "trial_type": "single-audio", "trial_index": 141, "time_elapsed": 620310, "internal_node_id": "0.0-105.0"}}, {"uniqueid": "MTK0508:3FQ5JJ512MV9EQKNEXBKQRVRM0HKNZ", "current_trial": 142, "dateTime": 1511192990190, "trialdata": {"rt": -1000, "stimulus": "/static/audio/wordpool/SKIRT.wav", "key_press": -1, "type": "PRES_AUD", "word": "skirt", "wordID": 1318, "conditions": [24, 1600, "a", 12000], "trial": 3, "serialpos": 13, "trial_type": "single-audio", "trial_index": 142, "time_elapsed": 622820, "internal_node_id": "0.0-106.0"}}, {"uniqueid": "MTK0508:3FQ5JJ512MV9EQKNEXBKQRVRM0HKNZ", "current_trial": 143, "dateTime": 1511192992975, "trialdata": {"rt": -1000, "stimulus": "/static/audio/wordpool/STAR.wav", "key_press": -1, "type": "PRES_AUD", "word": "star", "wordID": 1372, "conditions": [24, 1600, "a", 12000], "trial": 3, "serialpos": 14, "trial_type": "single-audio", "trial_index": 143, "time_elapsed": 625606, "internal_node_id": "0.0-107.0"}}, {"uniqueid": "MTK0508:3FQ5JJ512MV9EQKNEXBKQRVRM0HKNZ", "current_trial": 144, "dateTime": 1511192995475, "trialdata": {"rt": -1000, "stimulus": "/static/audio/wordpool/ATOM.wav", "key_press": -1, "type": "PRES_AUD", "word": "atom", "wordID": 54, "conditions": [24, 1600, "a", 12000], "trial": 3, "serialpos": 15, "trial_type": "single-audio", "trial_index": 144, "time_elapsed": 628106, "internal_node_id": "0.0-108.0"}}, {"uniqueid": "MTK0508:3FQ5JJ512MV9EQKNEXBKQRVRM0HKNZ", "current_trial": 145, "dateTime": 1511192998017, "trialdata": {"rt": -1000, "stimulus": "/static/audio/wordpool/SHIRT.wav", "key_press": -1, "type": "PRES_AUD", "word": "shirt", "wordID": 1286, "conditions": [24, 1600, "a", 12000], "trial": 3, "serialpos": 16, "trial_type": "single-audio", "trial_index": 145, "time_elapsed": 630647, "internal_node_id": "0.0-109.0"}}, {"uniqueid": "MTK0508:3FQ5JJ512MV9EQKNEXBKQRVRM0HKNZ", "current_trial": 146, "dateTime": 1511193000847, "trialdata": {"rt": -1000, "stimulus": "/static/audio/wordpool/ELBOW.wav", "key_press": -1, "type": "PRES_AUD", "word": "elbow", "wordID": 519, "conditions": [24, 1600, "a", 12000], "trial": 3, "serialpos": 17, "trial_type": "single-audio", "trial_index": 146, "time_elapsed": 633476, "internal_node_id": "0.0-110.0"}}, {"uniqueid": "MTK0508:3FQ5JJ512MV9EQKNEXBKQRVRM0HKNZ", "current_trial": 147, "dateTime": 1511193003307, "trialdata": {"rt": -1000, "stimulus": "/static/audio/wordpool/KNIFE.wav", "key_press": -1, "type": "PRES_AUD", "word": "knife", "wordID": 784, "conditions": [24, 1600, "a", 12000], "trial": 3, "serialpos": 18, "trial_type": "single-audio", "trial_index": 147, "time_elapsed": 635938, "internal_node_id": "0.0-111.0"}}, {"uniqueid": "MTK0508:3FQ5JJ512MV9EQKNEXBKQRVRM0HKNZ", "current_trial": 148, "dateTime": 1511193005754, "trialdata": {"rt": -1000, "stimulus": "/static/audio/wordpool/SOFTBALL.wav", "key_press": -1, "type": "PRES_AUD", "word": "softball", "wordID": 1342, "conditions": [24, 1600, "a", 12000], "trial": 3, "serialpos": 19, "trial_type": "single-audio", "trial_index": 148, "time_elapsed": 638386, "internal_node_id": "0.0-112.0"}}, {"uniqueid": "MTK0508:3FQ5JJ512MV9EQKNEXBKQRVRM0HKNZ", "current_trial": 149, "dateTime": 1511193008386, "trialdata": {"rt": -1000, "stimulus": "/static/audio/wordpool/MARSH.wav", "key_press": -1, "type": "PRES_AUD", "word": "marsh", "wordID": 873, "conditions": [24, 1600, "a", 12000], "trial": 3, "serialpos": 20, "trial_type": "single-audio", "trial_index": 149, "time_elapsed": 641018, "internal_node_id": "0.0-113.0"}}, {"uniqueid": "MTK0508:3FQ5JJ512MV9EQKNEXBKQRVRM0HKNZ", "current_trial": 150, "dateTime": 1511193011069, "trialdata": {"rt": -1000, "stimulus": "/static/audio/wordpool/WAITRESS.wav", "key_press": -1, "type": "PRES_AUD", "word": "waitress", "wordID": 1580, "conditions": [24, 1600, "a", 12000], "trial": 3, "serialpos": 21, "trial_type": "single-audio", "trial_index": 150, "time_elapsed": 643700, "internal_node_id": "0.0-114.0"}}, {"uniqueid": "MTK0508:3FQ5JJ512MV9EQKNEXBKQRVRM0HKNZ", "current_trial": 151, "dateTime": 1511193013760, "trialdata": {"rt": -1000, "stimulus": "/static/audio/wordpool/GARDEN.wav", "key_press": -1, "type": "PRES_AUD", "word": "garden", "wordID": 622, "conditions": [24, 1600, "a", 12000], "trial": 3, "serialpos": 22, "trial_type": "single-audio", "trial_index": 151, "time_elapsed": 646390, "internal_node_id": "0.0-115.0"}}, {"uniqueid": "MTK0508:3FQ5JJ512MV9EQKNEXBKQRVRM0HKNZ", "current_trial": 152, "dateTime": 1511193016198, "trialdata": {"rt": -1000, "stimulus": "/static/audio/wordpool/BLOUSE.wav", "key_press": -1, "type": "PRES_AUD", "word": "blouse", "wordID": 138, "conditions": [24, 1600, "a", 12000], "trial": 3, "serialpos": 23, "trial_type": "single-audio", "trial_index": 152, "time_elapsed": 648830, "internal_node_id": "0.0-116.0"}}, {"uniqueid": "MTK0508:3FQ5JJ512MV9EQKNEXBKQRVRM0HKNZ", "current_trial": 153, "dateTime": 1511193017524, "trialdata": {"rt": -1, "stimulus": "", "key_press": -1, "type": "PRE_RECALL_DELAY", "trial_type": "single-stim", "trial_index": 153, "time_elapsed": 650154, "internal_node_id": "0.0-117.0-0.0"}}, {"uniqueid": "MTK0508:3FQ5JJ512MV9EQKNEXBKQRVRM0HKNZ", "current_trial": 154, "dateTime": 1511193018051, "trialdata": {"rt": -1000, "stimulus": "/static/audio/400Hz.wav", "key_press": -1, "type": "PRE_RECALL_ALERT", "trial_type": "single-audio", "trial_index": 154, "time_elapsed": 650681, "internal_node_id": "0.0-118.0"}}, {"uniqueid": "MTK0508:3FQ5JJ512MV9EQKNEXBKQRVRM0HKNZ", "current_trial": 155, "dateTime": 1511193078122, "trialdata": {"rt": [2576, 3690, 6405, 9424, 10558, 11999, 13378, 15344, 16420, 33084, 36043, 40713], "recwords": ["skillet", "lover", "waitress", "salmon", "grill", "elbow", "skirt", "dress", "shirt", "softball", "star", "atom"], "type": "FREE_RECALL", "conditions": [24, 1600, "a", 12000], "trial": 3, "trial_type": "free-recall", "trial_index": 155, "time_elapsed": 710720, "internal_node_id": "0.0-119.0-0.0"}}, {"uniqueid": "MTK0508:3FQ5JJ512MV9EQKNEXBKQRVRM0HKNZ", "current_trial": 156, "dateTime": 1511193125938, "trialdata": {"rt": 45797, "key_press": 32, "type": "INSTRUCTIONS", "trial_type": "text", "trial_index": 156, "time_elapsed": 758569, "internal_node_id": "0.0-120.0"}}, {"uniqueid": "MTK0508:3FQ5JJ512MV9EQKNEXBKQRVRM0HKNZ", "current_trial": 157, "dateTime": 1511193151982, "trialdata": {"rt": [8584, 11397, 14664, 16696, 19352, 21109, 23456], "responses": ["22", "18", "12", "12", "14", "14", "17"], "num1": [8, 6, 1, 3, 3, 5, 7, 9], "num2": [5, 8, 4, 2, 8, 5, 6, 6], "num3": [9, 4, 7, 7, 3, 4, 4, 3], "type": "DISTRACTOR", "conditions": [12, 800, "a", 24000], "trial": 4, "trial_type": "math-distractor", "trial_index": 157, "time_elapsed": 784612, "internal_node_id": "0.0-121.0"}}, {"uniqueid": "MTK0508:3FQ5JJ512MV9EQKNEXBKQRVRM0HKNZ", "current_trial": 158, "dateTime": 1511193155015, "trialdata": {"rt": -1, "stimulus": "<p id=\"stim\">10</p>", "key_press": -1, "trial_type": "single-stim", "trial_index": 158, "time_elapsed": 787645, "internal_node_id": "0.0-122.0-0.0"}}, {"uniqueid": "MTK0508:3FQ5JJ512MV9EQKNEXBKQRVRM0HKNZ", "current_trial": 159, "dateTime": 1511193156019, "trialdata": {"rt": -1, "stimulus": "<p id=\"stim\">9</p>", "key_press": -1, "trial_type": "single-stim", "trial_index": 159, "time_elapsed": 788649, "internal_node_id": "0.0-122.0-1.0"}}, {"uniqueid": "MTK0508:3FQ5JJ512MV9EQKNEXBKQRVRM0HKNZ", "current_trial": 160, "dateTime": 1511193157006, "trialdata": {"rt": -1, "stimulus": "<p id=\"stim\">8</p>", "key_press": -1, "trial_type": "single-stim", "trial_index": 160, "time_elapsed": 789636, "internal_node_id": "0.0-122.0-2.0"}}, {"uniqueid": "MTK0508:3FQ5JJ512MV9EQKNEXBKQRVRM0HKNZ", "current_trial": 161, "dateTime": 1511193158016, "trialdata": {"rt": -1, "stimulus": "<p id=\"stim\">7</p>", "key_press": -1, "trial_type": "single-stim", "trial_index": 161, "time_elapsed": 790646, "internal_node_id": "0.0-122.0-3.0"}}, {"uniqueid": "MTK0508:3FQ5JJ512MV9EQKNEXBKQRVRM0HKNZ", "current_trial": 162, "dateTime": 1511193159005, "trialdata": {"rt": -1, "stimulus": "<p id=\"stim\">6</p>", "key_press": -1, "trial_type": "single-stim", "trial_index": 162, "time_elapsed": 791635, "internal_node_id": "0.0-122.0-4.0"}}, {"uniqueid": "MTK0508:3FQ5JJ512MV9EQKNEXBKQRVRM0HKNZ", "current_trial": 163, "dateTime": 1511193160008, "trialdata": {"rt": -1, "stimulus": "<p id=\"stim\">5</p>", "key_press": -1, "trial_type": "single-stim", "trial_index": 163, "time_elapsed": 792639, "internal_node_id": "0.0-122.0-5.0"}}, {"uniqueid": "MTK0508:3FQ5JJ512MV9EQKNEXBKQRVRM0HKNZ", "current_trial": 164, "dateTime": 1511193161009, "trialdata": {"rt": -1, "stimulus": "<p id=\"stim\">4</p>", "key_press": -1, "trial_type": "single-stim", "trial_index": 164, "time_elapsed": 793639, "internal_node_id": "0.0-122.0-6.0"}}, {"uniqueid": "MTK0508:3FQ5JJ512MV9EQKNEXBKQRVRM0HKNZ", "current_trial": 165, "dateTime": 1511193162010, "trialdata": {"rt": -1, "stimulus": "<p id=\"stim\">3</p>", "key_press": -1, "trial_type": "single-stim", "trial_index": 165, "time_elapsed": 794641, "internal_node_id": "0.0-122.0-7.0"}}, {"uniqueid": "MTK0508:3FQ5JJ512MV9EQKNEXBKQRVRM0HKNZ", "current_trial": 166, "dateTime": 1511193163021, "trialdata": {"rt": -1, "stimulus": "<p id=\"stim\">2</p>", "key_press": -1, "trial_type": "single-stim", "trial_index": 166, "time_elapsed": 795651, "internal_node_id": "0.0-122.0-8.0"}}, {"uniqueid": "MTK0508:3FQ5JJ512MV9EQKNEXBKQRVRM0HKNZ", "current_trial": 167, "dateTime": 1511193164015, "trialdata": {"rt": -1, "stimulus": "<p id=\"stim\">1</p>", "key_press": -1, "trial_type": "single-stim", "trial_index": 167, "time_elapsed": 796645, "internal_node_id": "0.0-122.0-9.0"}}, {"uniqueid": "MTK0508:3FQ5JJ512MV9EQKNEXBKQRVRM0HKNZ", "current_trial": 168, "dateTime": 1511193165527, "trialdata": {"rt": -1, "stimulus": "<p id=\"stim\">+</p>", "key_press": -1, "type": "FIXATION", "trial_type": "single-stim", "trial_index": 168, "time_elapsed": 798157, "internal_node_id": "0.0-123.0-0.0"}}, {"uniqueid": "MTK0508:3FQ5JJ512MV9EQKNEXBKQRVRM0HKNZ", "current_trial": 169, "dateTime": 1511193167205, "trialdata": {"rt": -1000, "stimulus": "/static/audio/wordpool/OFFICE.wav", "key_press": -1, "type": "PRES_AUD", "word": "office", "wordID": 971, "conditions": [12, 800, "a", 24000], "trial": 4, "serialpos": 0, "trial_type": "single-audio", "trial_index": 169, "time_elapsed": 799835, "internal_node_id": "0.0-124.0"}}, {"uniqueid": "MTK0508:3FQ5JJ512MV9EQKNEXBKQRVRM0HKNZ", "current_trial": 170, "dateTime": 1511193168851, "trialdata": {"rt": -1000, "stimulus": "/static/audio/wordpool/SPHINX.wav", "key_press": -1, "type": "PRES_AUD", "word": "sphinx", "wordID": 1348, "conditions": [12, 800, "a", 24000], "trial": 4, "serialpos": 1, "trial_type": "single-audio", "trial_index": 170, "time_elapsed": 801481, "internal_node_id": "0.0-125.0"}}, {"uniqueid": "MTK0508:3FQ5JJ512MV9EQKNEXBKQRVRM0HKNZ", "current_trial": 171, "dateTime": 1511193170473, "trialdata": {"rt": -1000, "stimulus": "/static/audio/wordpool/PLIERS.wav", "key_press": -1, "type": "PRES_AUD", "word": "pliers", "wordID": 1088, "conditions": [12, 800, "a", 24000], "trial": 4, "serialpos": 2, "trial_type": "single-audio", "trial_index": 171, "time_elapsed": 803103, "internal_node_id": "0.0-126.0"}}, {"uniqueid": "MTK0508:3FQ5JJ512MV9EQKNEXBKQRVRM0HKNZ", "current_trial": 172, "dateTime": 1511193172116, "trialdata": {"rt": -1000, "stimulus": "/static/audio/wordpool/ACTOR.wav", "key_press": -1, "type": "PRES_AUD", "word": "actor", "wordID": 4, "conditions": [12, 800, "a", 24000], "trial": 4, "serialpos": 3, "trial_type": "single-audio", "trial_index": 172, "time_elapsed": 804746, "internal_node_id": "0.0-127.0"}}, {"uniqueid": "MTK0508:3FQ5JJ512MV9EQKNEXBKQRVRM0HKNZ", "current_trial": 173, "dateTime": 1511193174029, "trialdata": {"rt": -1000, "stimulus": "/static/audio/wordpool/ACTRESS.wav", "key_press": -1, "type": "PRES_AUD", "word": "actress", "wordID": 5, "conditions": [12, 800, "a", 24000], "trial": 4, "serialpos": 4, "trial_type": "single-audio", "trial_index": 173, "time_elapsed": 806658, "internal_node_id": "0.0-128.0"}}, {"uniqueid": "MTK0508:3FQ5JJ512MV9EQKNEXBKQRVRM0HKNZ", "current_trial": 174, "dateTime": 1511193175801, "trialdata": {"rt": -1000, "stimulus": "/static/audio/wordpool/ARM.wav", "key_press": -1, "type": "PRES_AUD", "word": "arm", "wordID": 37, "conditions": [12, 800, "a", 24000], "trial": 4, "serialpos": 5, "trial_type": "single-audio", "trial_index": 174, "time_elapsed": 808431, "internal_node_id": "0.0-129.0"}}, {"uniqueid": "MTK0508:3FQ5JJ512MV9EQKNEXBKQRVRM0HKNZ", "current_trial": 175, "dateTime": 1511193177557, "trialdata": {"rt": -1000, "stimulus": "/static/audio/wordpool/WIFE.wav", "key_press": -1, "type": "PRES_AUD", "word": "wife", "wordID": 1608, "conditions": [12, 800, "a", 24000], "trial": 4, "serialpos": 6, "trial_type": "single-audio", "trial_index": 175, "time_elapsed": 810187, "internal_node_id": "0.0-130.0"}}, {"uniqueid": "MTK0508:3FQ5JJ512MV9EQKNEXBKQRVRM0HKNZ", "current_trial": 176, "dateTime": 1511193179220, "trialdata": {"rt": -1000, "stimulus": "/static/audio/wordpool/LUGGAGE.wav", "key_press": -1, "type": "PRES_AUD", "word": "luggage", "wordID": 846, "conditions": [12, 800, "a", 24000], "trial": 4, "serialpos": 7, "trial_type": "single-audio", "trial_index": 176, "time_elapsed": 811850, "internal_node_id": "0.0-131.0"}}, {"uniqueid": "MTK0508:3FQ5JJ512MV9EQKNEXBKQRVRM0HKNZ", "current_trial": 177, "dateTime": 1511193181226, "trialdata": {"rt": -1000, "stimulus": "/static/audio/wordpool/SCALLOP.wav", "key_press": -1, "type": "PRES_AUD", "word": "scallop", "wordID": 1241, "conditions": [12, 800, "a", 24000], "trial": 4, "serialpos": 8, "trial_type": "single-audio", "trial_index": 177, "time_elapsed": 813856, "internal_node_id": "0.0-132.0"}}, {"uniqueid": "MTK0508:3FQ5JJ512MV9EQKNEXBKQRVRM0HKNZ", "current_trial": 178, "dateTime": 1511193183165, "trialdata": {"rt": -1000, "stimulus": "/static/audio/wordpool/PLASTER.wav", "key_press": -1, "type": "PRES_AUD", "word": "plaster", "wordID": 1084, "conditions": [12, 800, "a", 24000], "trial": 4, "serialpos": 9, "trial_type": "single-audio", "trial_index": 178, "time_elapsed": 815794, "internal_node_id": "0.0-133.0"}}, {"uniqueid": "MTK0508:3FQ5JJ512MV9EQKNEXBKQRVRM0HKNZ", "current_trial": 179, "dateTime": 1511193184904, "trialdata": {"rt": -1000, "stimulus": "/static/audio/wordpool/TWEEZERS.wav", "key_press": -1, "type": "PRES_AUD", "word": "tweezers", "wordID": 1525, "conditions": [12, 800, "a", 24000], "trial": 4, "serialpos": 10, "trial_type": "single-audio", "trial_index": 179, "time_elapsed": 817536, "internal_node_id": "0.0-134.0"}}, {"uniqueid": "MTK0508:3FQ5JJ512MV9EQKNEXBKQRVRM0HKNZ", "current_trial": 180, "dateTime": 1511193186559, "trialdata": {"rt": -1000, "stimulus": "/static/audio/wordpool/SHERIFF.wav", "key_press": -1, "type": "PRES_AUD", "word": "sheriff", "wordID": 1283, "conditions": [12, 800, "a", 24000], "trial": 4, "serialpos": 11, "trial_type": "single-audio", "trial_index": 180, "time_elapsed": 819189, "internal_node_id": "0.0-135.0"}}, {"uniqueid": "MTK0508:3FQ5JJ512MV9EQKNEXBKQRVRM0HKNZ", "current_trial": 181, "dateTime": 1511193187920, "trialdata": {"rt": -1, "stimulus": "", "key_press": -1, "type": "PRE_RECALL_DELAY", "trial_type": "single-stim", "trial_index": 181, "time_elapsed": 820550, "internal_node_id": "0.0-136.0-0.0"}}, {"uniqueid": "MTK0508:3FQ5JJ512MV9EQKNEXBKQRVRM0HKNZ", "current_trial": 182, "dateTime": 1511193188449, "trialdata": {"rt": -1000, "stimulus": "/static/audio/400Hz.wav", "key_press": -1, "type": "PRE_RECALL_ALERT", "trial_type": "single-audio", "trial_index": 182, "time_elapsed": 821079, "internal_node_id": "0.0-137.0"}}, {"uniqueid": "MTK0508:3FQ5JJ512MV9EQKNEXBKQRVRM0HKNZ", "current_trial": 183, "dateTime": 1511193248489, "trialdata": {"rt": [2140, 4285, 5831, 8484, 10912, 17834, 19987, 27039], "recwords": ["office", "sphinx", "actor", "actress", "pliers", "sherriff", "arm", "plaster"], "type": "FREE_RECALL", "conditions": [12, 800, "a", 24000], "trial": 4, "trial_type": "free-recall", "trial_index": 183, "time_elapsed": 881111, "internal_node_id": "0.0-138.0-0.0"}}, {"uniqueid": "MTK0508:3FQ5JJ512MV9EQKNEXBKQRVRM0HKNZ", "current_trial": 184, "dateTime": 1511193251573, "trialdata": {"rt": 1070, "key_press": 32, "type": "INSTRUCTIONS", "trial_type": "text", "trial_index": 184, "time_elapsed": 884204, "internal_node_id": "0.0-139.0"}}, {"uniqueid": "MTK0508:3FQ5JJ512MV9EQKNEXBKQRVRM0HKNZ", "current_trial": 185, "dateTime": 1511193277605, "trialdata": {"rt": [3675, 5731, 7621, 10858, 12861, 15156, 17276, 19118, 22562], "responses": ["17", "13", "14", "16", "13", "16", "15", "19", "19"], "num1": [5, 4, 4, 5, 6, 1, 8, 6, 5, 2], "num2": [3, 3, 3, 9, 1, 6, 5, 4, 8, 6], "num3": [9, 6, 7, 2, 6, 9, 2, 9, 6, 4], "type": "DISTRACTOR", "conditions": [24, 1600, "v", 24000], "trial": 5, "trial_type": "math-distractor", "trial_index": 185, "time_elapsed": 910234, "internal_node_id": "0.0-140.0"}}, {"uniqueid": "MTK0508:3FQ5JJ512MV9EQKNEXBKQRVRM0HKNZ", "current_trial": 186, "dateTime": 1511193280631, "trialdata": {"rt": -1, "stimulus": "<p id=\"stim\">10</p>", "key_press": -1, "trial_type": "single-stim", "trial_index": 186, "time_elapsed": 913261, "internal_node_id": "0.0-141.0-0.0"}}, {"uniqueid": "MTK0508:3FQ5JJ512MV9EQKNEXBKQRVRM0HKNZ", "current_trial": 187, "dateTime": 1511193281619, "trialdata": {"rt": -1, "stimulus": "<p id=\"stim\">9</p>", "key_press": -1, "trial_type": "single-stim", "trial_index": 187, "time_elapsed": 914249, "internal_node_id": "0.0-141.0-1.0"}}, {"uniqueid": "MTK0508:3FQ5JJ512MV9EQKNEXBKQRVRM0HKNZ", "current_trial": 188, "dateTime": 1511193282629, "trialdata": {"rt": -1, "stimulus": "<p id=\"stim\">8</p>", "key_press": -1, "trial_type": "single-stim", "trial_index": 188, "time_elapsed": 915261, "internal_node_id": "0.0-141.0-2.0"}}, {"uniqueid": "MTK0508:3FQ5JJ512MV9EQKNEXBKQRVRM0HKNZ", "current_trial": 189, "dateTime": 1511193283627, "trialdata": {"rt": -1, "stimulus": "<p id=\"stim\">7</p>", "key_press": -1, "trial_type": "single-stim", "trial_index": 189, "time_elapsed": 916258, "internal_node_id": "0.0-141.0-3.0"}}, {"uniqueid": "MTK0508:3FQ5JJ512MV9EQKNEXBKQRVRM0HKNZ", "current_trial": 190, "dateTime": 1511193284635, "trialdata": {"rt": -1, "stimulus": "<p id=\"stim\">6</p>", "key_press": -1, "trial_type": "single-stim", "trial_index": 190, "time_elapsed": 917265, "internal_node_id": "0.0-141.0-4.0"}}, {"uniqueid": "MTK0508:3FQ5JJ512MV9EQKNEXBKQRVRM0HKNZ", "current_trial": 191, "dateTime": 1511193285641, "trialdata": {"rt": -1, "stimulus": "<p id=\"stim\">5</p>", "key_press": -1, "trial_type": "single-stim", "trial_index": 191, "time_elapsed": 918270, "internal_node_id": "0.0-141.0-5.0"}}, {"uniqueid": "MTK0508:3FQ5JJ512MV9EQKNEXBKQRVRM0HKNZ", "current_trial": 192, "dateTime": 1511193286618, "trialdata": {"rt": -1, "stimulus": "<p id=\"stim\">4</p>", "key_press": -1, "trial_type": "single-stim", "trial_index": 192, "time_elapsed": 919249, "internal_node_id": "0.0-141.0-6.0"}}, {"uniqueid": "MTK0508:3FQ5JJ512MV9EQKNEXBKQRVRM0HKNZ", "current_trial": 193, "dateTime": 1511193287645, "trialdata": {"rt": -1, "stimulus": "<p id=\"stim\">3</p>", "key_press": -1, "trial_type": "single-stim", "trial_index": 193, "time_elapsed": 920275, "internal_node_id": "0.0-141.0-7.0"}}, {"uniqueid": "MTK0508:3FQ5JJ512MV9EQKNEXBKQRVRM0HKNZ", "current_trial": 194, "dateTime": 1511193288635, "trialdata": {"rt": -1, "stimulus": "<p id=\"stim\">2</p>", "key_press": -1, "trial_type": "single-stim", "trial_index": 194, "time_elapsed": 921266, "internal_node_id": "0.0-141.0-8.0"}}, {"uniqueid": "MTK0508:3FQ5JJ512MV9EQKNEXBKQRVRM0HKNZ", "current_trial": 195, "dateTime": 1511193289621, "trialdata": {"rt": -1, "stimulus": "<p id=\"stim\">1</p>", "key_press": -1, "trial_type": "single-stim", "trial_index": 195, "time_elapsed": 922251, "internal_node_id": "0.0-141.0-9.0"}}, {"uniqueid": "MTK0508:3FQ5JJ512MV9EQKNEXBKQRVRM0HKNZ", "current_trial": 196, "dateTime": 1511193291143, "trialdata": {"rt": -1, "stimulus": "<p id=\"stim\">+</p>", "key_press": -1, "type": "FIXATION", "trial_type": "single-stim", "trial_index": 196, "time_elapsed": 923774, "internal_node_id": "0.0-142.0-0.0"}}, {"uniqueid": "MTK0508:3FQ5JJ512MV9EQKNEXBKQRVRM0HKNZ", "current_trial": 197, "dateTime": 1511193292779, "trialdata": {"rt": -1, "stimulus": "<p id=\"stim\">SPONGE</p>", "key_press": -1, "type": "PRES_VIS", "word": "sponge", "wordID": 1354, "conditions": [24, 1600, "v", 24000], "trial": 5, "serialpos": 0, "trial_type": "single-stim", "trial_index": 197, "time_elapsed": 925408, "internal_node_id": "0.0-143.0"}}, {"uniqueid": "MTK0508:3FQ5JJ512MV9EQKNEXBKQRVRM0HKNZ", "current_trial": 198, "dateTime": 1511193295465, "trialdata": {"rt": -1, "stimulus": "<p id=\"stim\">JAPAN</p>", "key_press": -1, "type": "PRES_VIS", "word": "japan", "wordID": 748, "conditions": [24, 1600, "v", 24000], "trial": 5, "serialpos": 1, "trial_type": "single-stim", "trial_index": 198, "time_elapsed": 928095, "internal_node_id": "0.0-144.0"}}, {"uniqueid": "MTK0508:3FQ5JJ512MV9EQKNEXBKQRVRM0HKNZ", "current_trial": 199, "dateTime": 1511193298186, "trialdata": {"rt": -1, "stimulus": "<p id=\"stim\">VALLEY</p>", "key_press": -1, "type": "PRES_VIS", "word": "valley", "wordID": 1544, "conditions": [24, 1600, "v", 24000], "trial": 5, "serialpos": 2, "trial_type": "single-stim", "trial_index": 199, "time_elapsed": 930815, "internal_node_id": "0.0-145.0"}}, {"uniqueid": "MTK0508:3FQ5JJ512MV9EQKNEXBKQRVRM0HKNZ", "current_trial": 200, "dateTime": 1511193301001, "trialdata": {"rt": -1, "stimulus": "<p id=\"stim\">GHETTO</p>", "key_press": -1, "type": "PRES_VIS", "word": "ghetto", "wordID": 632, "conditions": [24, 1600, "v", 24000], "trial": 5, "serialpos": 3, "trial_type": "single-stim", "trial_index": 200, "time_elapsed": 933630, "internal_node_id": "0.0-146.0"}}, {"uniqueid": "MTK0508:3FQ5JJ512MV9EQKNEXBKQRVRM0HKNZ", "current_trial": 201, "dateTime": 1511193303477, "trialdata": {"rt": -1, "stimulus": "<p id=\"stim\">RAZOR</p>", "key_press": -1, "type": "PRES_VIS", "word": "razor", "wordID": 1170, "conditions": [24, 1600, "v", 24000], "trial": 5, "serialpos": 4, "trial_type": "single-stim", "trial_index": 201, "time_elapsed": 936107, "internal_node_id": "0.0-147.0"}}, {"uniqueid": "MTK0508:3FQ5JJ512MV9EQKNEXBKQRVRM0HKNZ", "current_trial": 202, "dateTime": 1511193306038, "trialdata": {"rt": -1, "stimulus": "<p id=\"stim\">BLADE</p>", "key_press": -1, "type": "PRES_VIS", "word": "blade", "wordID": 133, "conditions": [24, 1600, "v", 24000], "trial": 5, "serialpos": 5, "trial_type": "single-stim", "trial_index": 202, "time_elapsed": 938667, "internal_node_id": "0.0-148.0"}}, {"uniqueid": "MTK0508:3FQ5JJ512MV9EQKNEXBKQRVRM0HKNZ", "current_trial": 203, "dateTime": 1511193308830, "trialdata": {"rt": -1, "stimulus": "<p id=\"stim\">AWARD</p>", "key_press": -1, "type": "PRES_VIS", "word": "award", "wordID": 62, "conditions": [24, 1600, "v", 24000], "trial": 5, "serialpos": 6, "trial_type": "single-stim", "trial_index": 203, "time_elapsed": 941459, "internal_node_id": "0.0-149.0"}}, {"uniqueid": "MTK0508:3FQ5JJ512MV9EQKNEXBKQRVRM0HKNZ", "current_trial": 204, "dateTime": 1511193311661, "trialdata": {"rt": -1, "stimulus": "<p id=\"stim\">POSSUM</p>", "key_press": -1, "type": "PRES_VIS", "word": "possum", "wordID": 1111, "conditions": [24, 1600, "v", 24000], "trial": 5, "serialpos": 7, "trial_type": "single-stim", "trial_index": 204, "time_elapsed": 944291, "internal_node_id": "0.0-150.0"}}, {"uniqueid": "MTK0508:3FQ5JJ512MV9EQKNEXBKQRVRM0HKNZ", "current_trial": 205, "dateTime": 1511193314422, "trialdata": {"rt": -1, "stimulus": "<p id=\"stim\">BACON</p>", "key_press": -1, "type": "PRES_VIS", "word": "bacon", "wordID": 66, "conditions": [24, 1600, "v", 24000], "trial": 5, "serialpos": 8, "trial_type": "single-stim", "trial_index": 205, "time_elapsed": 947053, "internal_node_id": "0.0-151.0"}}, {"uniqueid": "MTK0508:3FQ5JJ512MV9EQKNEXBKQRVRM0HKNZ", "current_trial": 206, "dateTime": 1511193317073, "trialdata": {"rt": -1, "stimulus": "<p id=\"stim\">ANTLER</p>", "key_press": -1, "type": "PRES_VIS", "word": "antler", "wordID": 28, "conditions": [24, 1600, "v", 24000], "trial": 5, "serialpos": 9, "trial_type": "single-stim", "trial_index": 206, "time_elapsed": 949704, "internal_node_id": "0.0-152.0"}}, {"uniqueid": "MTK0508:3FQ5JJ512MV9EQKNEXBKQRVRM0HKNZ", "current_trial": 207, "dateTime": 1511193319907, "trialdata": {"rt": -1, "stimulus": "<p id=\"stim\">LIZARD</p>", "key_press": -1, "type": "PRES_VIS", "word": "lizard", "wordID": 833, "conditions": [24, 1600, "v", 24000], "trial": 5, "serialpos": 10, "trial_type": "single-stim", "trial_index": 207, "time_elapsed": 952538, "internal_node_id": "0.0-153.0"}}, {"uniqueid": "MTK0508:3FQ5JJ512MV9EQKNEXBKQRVRM0HKNZ", "current_trial": 208, "dateTime": 1511193322540, "trialdata": {"rt": -1, "stimulus": "<p id=\"stim\">POWDER</p>", "key_press": -1, "type": "PRES_VIS", "word": "powder", "wordID": 1116, "conditions": [24, 1600, "v", 24000], "trial": 5, "serialpos": 11, "trial_type": "single-stim", "trial_index": 208, "time_elapsed": 955171, "internal_node_id": "0.0-154.0"}}, {"uniqueid": "MTK0508:3FQ5JJ512MV9EQKNEXBKQRVRM0HKNZ", "current_trial": 209, "dateTime": 1511193325269, "trialdata": {"rt": -1, "stimulus": "<p id=\"stim\">LEOPARD</p>", "key_press": -1, "type": "PRES_VIS", "word": "leopard", "wordID": 811, "conditions": [24, 1600, "v", 24000], "trial": 5, "serialpos": 12, "trial_type": "single-stim", "trial_index": 209, "time_elapsed": 957898, "internal_node_id": "0.0-155.0"}}, {"uniqueid": "MTK0508:3FQ5JJ512MV9EQKNEXBKQRVRM0HKNZ", "current_trial": 210, "dateTime": 1511193328024, "trialdata": {"rt": -1, "stimulus": "<p id=\"stim\">MARS</p>", "key_press": -1, "type": "PRES_VIS", "word": "mars", "wordID": 872, "conditions": [24, 1600, "v", 24000], "trial": 5, "serialpos": 13, "trial_type": "single-stim", "trial_index": 210, "time_elapsed": 960655, "internal_node_id": "0.0-156.0"}}, {"uniqueid": "MTK0508:3FQ5JJ512MV9EQKNEXBKQRVRM0HKNZ", "current_trial": 211, "dateTime": 1511193330800, "trialdata": {"rt": -1, "stimulus": "<p id=\"stim\">SHOVEL</p>", "key_press": -1, "type": "PRES_VIS", "word": "shovel", "wordID": 1294, "conditions": [24, 1600, "v", 24000], "trial": 5, "serialpos": 14, "trial_type": "single-stim", "trial_index": 211, "time_elapsed": 963430, "internal_node_id": "0.0-157.0"}}, {"uniqueid": "MTK0508:3FQ5JJ512MV9EQKNEXBKQRVRM0HKNZ", "current_trial": 212, "dateTime": 1511193333638, "trialdata": {"rt": -1, "stimulus": "<p id=\"stim\">RADISH</p>", "key_press": -1, "type": "PRES_VIS", "word": "radish", "wordID": 1157, "conditions": [24, 1600, "v", 24000], "trial": 5, "serialpos": 15, "trial_type": "single-stim", "trial_index": 212, "time_elapsed": 966269, "internal_node_id": "0.0-158.0"}}, {"uniqueid": "MTK0508:3FQ5JJ512MV9EQKNEXBKQRVRM0HKNZ", "current_trial": 213, "dateTime": 1511193336222, "trialdata": {"rt": -1, "stimulus": "<p id=\"stim\">FIREPLACE</p>", "key_press": -1, "type": "PRES_VIS", "word": "fireplace", "wordID": 569, "conditions": [24, 1600, "v", 24000], "trial": 5, "serialpos": 16, "trial_type": "single-stim", "trial_index": 213, "time_elapsed": 968854, "internal_node_id": "0.0-159.0"}}, {"uniqueid": "MTK0508:3FQ5JJ512MV9EQKNEXBKQRVRM0HKNZ", "current_trial": 214, "dateTime": 1511193339018, "trialdata": {"rt": -1, "stimulus": "<p id=\"stim\">PARSLEY</p>", "key_press": -1, "type": "PRES_VIS", "word": "parsley", "wordID": 1015, "conditions": [24, 1600, "v", 24000], "trial": 5, "serialpos": 17, "trial_type": "single-stim", "trial_index": 214, "time_elapsed": 971649, "internal_node_id": "0.0-160.0"}}, {"uniqueid": "MTK0508:3FQ5JJ512MV9EQKNEXBKQRVRM0HKNZ", "current_trial": 215, "dateTime": 1511193341698, "trialdata": {"rt": -1, "stimulus": "<p id=\"stim\">TART</p>", "key_press": -1, "type": "PRES_VIS", "word": "tart", "wordID": 1435, "conditions": [24, 1600, "v", 24000], "trial": 5, "serialpos": 18, "trial_type": "single-stim", "trial_index": 215, "time_elapsed": 974329, "internal_node_id": "0.0-161.0"}}, {"uniqueid": "MTK0508:3FQ5JJ512MV9EQKNEXBKQRVRM0HKNZ", "current_trial": 216, "dateTime": 1511193344138, "trialdata": {"rt": -1, "stimulus": "<p id=\"stim\">FLOWER</p>", "key_press": -1, "type": "PRES_VIS", "word": "flower", "wordID": 583, "conditions": [24, 1600, "v", 24000], "trial": 5, "serialpos": 19, "trial_type": "single-stim", "trial_index": 216, "time_elapsed": 976767, "internal_node_id": "0.0-162.0"}}, {"uniqueid": "MTK0508:3FQ5JJ512MV9EQKNEXBKQRVRM0HKNZ", "current_trial": 217, "dateTime": 1511193346685, "trialdata": {"rt": -1, "stimulus": "<p id=\"stim\">CHAPEL</p>", "key_press": -1, "type": "PRES_VIS", "word": "chapel", "wordID": 279, "conditions": [24, 1600, "v", 24000], "trial": 5, "serialpos": 20, "trial_type": "single-stim", "trial_index": 217, "time_elapsed": 979316, "internal_node_id": "0.0-163.0"}}, {"uniqueid": "MTK0508:3FQ5JJ512MV9EQKNEXBKQRVRM0HKNZ", "current_trial": 218, "dateTime": 1511193349316, "trialdata": {"rt": -1, "stimulus": "<p id=\"stim\">KITCHEN</p>", "key_press": -1, "type": "PRES_VIS", "word": "kitchen", "wordID": 777, "conditions": [24, 1600, "v", 24000], "trial": 5, "serialpos": 21, "trial_type": "single-stim", "trial_index": 218, "time_elapsed": 981945, "internal_node_id": "0.0-164.0"}}, {"uniqueid": "MTK0508:3FQ5JJ512MV9EQKNEXBKQRVRM0HKNZ", "current_trial": 219, "dateTime": 1511193351801, "trialdata": {"rt": -1, "stimulus": "<p id=\"stim\">SANDWICH</p>", "key_press": -1, "type": "PRES_VIS", "word": "sandwich", "wordID": 1231, "conditions": [24, 1600, "v", 24000], "trial": 5, "serialpos": 22, "trial_type": "single-stim", "trial_index": 219, "time_elapsed": 984430, "internal_node_id": "0.0-165.0"}}, {"uniqueid": "MTK0508:3FQ5JJ512MV9EQKNEXBKQRVRM0HKNZ", "current_trial": 220, "dateTime": 1511193354453, "trialdata": {"rt": -1, "stimulus": "<p id=\"stim\">SALAD</p>", "key_press": -1, "type": "PRES_VIS", "word": "salad", "wordID": 1223, "conditions": [24, 1600, "v", 24000], "trial": 5, "serialpos": 23, "trial_type": "single-stim", "trial_index": 220, "time_elapsed": 987067, "internal_node_id": "0.0-166.0"}}, {"uniqueid": "MTK0508:3FQ5JJ512MV9EQKNEXBKQRVRM0HKNZ", "current_trial": 221, "dateTime": 1511193356724, "trialdata": {"rt": -1, "stimulus": "", "key_press": -1, "type": "PRE_RECALL_DELAY", "trial_type": "single-stim", "trial_index": 221, "time_elapsed": 989353, "internal_node_id": "0.0-167.0-0.0"}}, {"uniqueid": "MTK0508:3FQ5JJ512MV9EQKNEXBKQRVRM0HKNZ", "current_trial": 222, "dateTime": 1511193357245, "trialdata": {"rt": -1000, "stimulus": "/static/audio/400Hz.wav", "key_press": -1, "type": "PRE_RECALL_ALERT", "trial_type": "single-audio", "trial_index": 222, "time_elapsed": 989875, "internal_node_id": "0.0-168.0"}}, {"uniqueid": "MTK0508:3FQ5JJ512MV9EQKNEXBKQRVRM0HKNZ", "current_trial": 223, "dateTime": 1511193417316, "trialdata": {"rt": [2569, 4146, 5889, 9044, 10722, 12052, 14301, 15478, 21252], "recwords": ["salad", "kitchen", "fireplace", "chapel", "razor", "blade", "bacon", "tart", "sponge"], "type": "FREE_RECALL", "conditions": [24, 1600, "v", 24000], "trial": 5, "trial_type": "free-recall", "trial_index": 223, "time_elapsed": 1049913, "internal_node_id": "0.0-169.0-0.0"}}, {"uniqueid": "MTK0508:3FQ5JJ512MV9EQKNEXBKQRVRM0HKNZ", "current_trial": 224, "dateTime": 1511193426715, "trialdata": {"rt": 7372, "key_press": 32, "type": "INSTRUCTIONS", "trial_type": "text", "trial_index": 224, "time_elapsed": 1059346, "internal_node_id": "0.0-170.0"}}, {"uniqueid": "MTK0508:3FQ5JJ512MV9EQKNEXBKQRVRM0HKNZ", "current_trial": 225, "dateTime": 1511193440781, "trialdata": {"rt": [2741, 6003, 10015], "responses": ["11", "8", "22"], "num1": [4, 1, 8, 5], "num2": [6, 5, 8, 6], "num3": [1, 2, 6, 8], "type": "DISTRACTOR", "conditions": [12, 1600, "v", 12000], "trial": 6, "trial_type": "math-distractor", "trial_index": 225, "time_elapsed": 1073410, "internal_node_id": "0.0-171.0"}}, {"uniqueid": "MTK0508:3FQ5JJ512MV9EQKNEXBKQRVRM0HKNZ", "current_trial": 226, "dateTime": 1511193443796, "trialdata": {"rt": -1, "stimulus": "<p id=\"stim\">10</p>", "key_press": -1, "trial_type": "single-stim", "trial_index": 226, "time_elapsed": 1076425, "internal_node_id": "0.0-172.0-0.0"}}, {"uniqueid": "MTK0508:3FQ5JJ512MV9EQKNEXBKQRVRM0HKNZ", "current_trial": 227, "dateTime": 1511193444803, "trialdata": {"rt": -1, "stimulus": "<p id=\"stim\">9</p>", "key_press": -1, "trial_type": "single-stim", "trial_index": 227, "time_elapsed": 1077432, "internal_node_id": "0.0-172.0-1.0"}}, {"uniqueid": "MTK0508:3FQ5JJ512MV9EQKNEXBKQRVRM0HKNZ", "current_trial": 228, "dateTime": 1511193445819, "trialdata": {"rt": -1, "stimulus": "<p id=\"stim\">8</p>", "key_press": -1, "trial_type": "single-stim", "trial_index": 228, "time_elapsed": 1078448, "internal_node_id": "0.0-172.0-2.0"}}, {"uniqueid": "MTK0508:3FQ5JJ512MV9EQKNEXBKQRVRM0HKNZ", "current_trial": 229, "dateTime": 1511193446814, "trialdata": {"rt": -1, "stimulus": "<p id=\"stim\">7</p>", "key_press": -1, "trial_type": "single-stim", "trial_index": 229, "time_elapsed": 1079443, "internal_node_id": "0.0-172.0-3.0"}}, {"uniqueid": "MTK0508:3FQ5JJ512MV9EQKNEXBKQRVRM0HKNZ", "current_trial": 230, "dateTime": 1511193447794, "trialdata": {"rt": -1, "stimulus": "<p id=\"stim\">6</p>", "key_press": -1, "trial_type": "single-stim", "trial_index": 230, "time_elapsed": 1080425, "internal_node_id": "0.0-172.0-4.0"}}, {"uniqueid": "MTK0508:3FQ5JJ512MV9EQKNEXBKQRVRM0HKNZ", "current_trial": 231, "dateTime": 1511193448806, "trialdata": {"rt": -1, "stimulus": "<p id=\"stim\">5</p>", "key_press": -1, "trial_type": "single-stim", "trial_index": 231, "time_elapsed": 1081435, "internal_node_id": "0.0-172.0-5.0"}}, {"uniqueid": "MTK0508:3FQ5JJ512MV9EQKNEXBKQRVRM0HKNZ", "current_trial": 232, "dateTime": 1511193449795, "trialdata": {"rt": -1, "stimulus": "<p id=\"stim\">4</p>", "key_press": -1, "trial_type": "single-stim", "trial_index": 232, "time_elapsed": 1082425, "internal_node_id": "0.0-172.0-6.0"}}, {"uniqueid": "MTK0508:3FQ5JJ512MV9EQKNEXBKQRVRM0HKNZ", "current_trial": 233, "dateTime": 1511193450791, "trialdata": {"rt": -1, "stimulus": "<p id=\"stim\">3</p>", "key_press": -1, "trial_type": "single-stim", "trial_index": 233, "time_elapsed": 1083421, "internal_node_id": "0.0-172.0-7.0"}}, {"uniqueid": "MTK0508:3FQ5JJ512MV9EQKNEXBKQRVRM0HKNZ", "current_trial": 234, "dateTime": 1511193451799, "trialdata": {"rt": -1, "stimulus": "<p id=\"stim\">2</p>", "key_press": -1, "trial_type": "single-stim", "trial_index": 234, "time_elapsed": 1084429, "internal_node_id": "0.0-172.0-8.0"}}, {"uniqueid": "MTK0508:3FQ5JJ512MV9EQKNEXBKQRVRM0HKNZ", "current_trial": 235, "dateTime": 1511193452804, "trialdata": {"rt": -1, "stimulus": "<p id=\"stim\">1</p>", "key_press": -1, "trial_type": "single-stim", "trial_index": 235, "time_elapsed": 1085434, "internal_node_id": "0.0-172.0-9.0"}}, {"uniqueid": "MTK0508:3FQ5JJ512MV9EQKNEXBKQRVRM0HKNZ", "current_trial": 236, "dateTime": 1511193454326, "trialdata": {"rt": -1, "stimulus": "<p id=\"stim\">+</p>", "key_press": -1, "type": "FIXATION", "trial_type": "single-stim", "trial_index": 236, "time_elapsed": 1086955, "internal_node_id": "0.0-173.0-0.0"}}, {"uniqueid": "MTK0508:3FQ5JJ512MV9EQKNEXBKQRVRM0HKNZ", "current_trial": 237, "dateTime": 1511193455962, "trialdata": {"rt": -1, "stimulus": "<p id=\"stim\">PASTA</p>", "key_press": -1, "type": "PRES_VIS", "word": "pasta", "wordID": 1020, "conditions": [12, 1600, "v", 12000], "trial": 6, "serialpos": 0, "trial_type": "single-stim", "trial_index": 237, "time_elapsed": 1088591, "internal_node_id": "0.0-174.0"}}, {"uniqueid": "MTK0508:3FQ5JJ512MV9EQKNEXBKQRVRM0HKNZ", "current_trial": 238, "dateTime": 1511193458689, "trialdata": {"rt": -1, "stimulus": "<p id=\"stim\">PENGUIN</p>", "key_press": -1, "type": "PRES_VIS", "word": "penguin", "wordID": 1043, "conditions": [12, 1600, "v", 12000], "trial": 6, "serialpos": 1, "trial_type": "single-stim", "trial_index": 238, "time_elapsed": 1091320, "internal_node_id": "0.0-175.0"}}, {"uniqueid": "MTK0508:3FQ5JJ512MV9EQKNEXBKQRVRM0HKNZ", "current_trial": 239, "dateTime": 1511193461361, "trialdata": {"rt": -1, "stimulus": "<p id=\"stim\">LUNCH</p>", "key_press": -1, "type": "PRES_VIS", "word": "lunch", "wordID": 848, "conditions": [12, 1600, "v", 12000], "trial": 6, "serialpos": 2, "trial_type": "single-stim", "trial_index": 239, "time_elapsed": 1093992, "internal_node_id": "0.0-176.0"}}, {"uniqueid": "MTK0508:3FQ5JJ512MV9EQKNEXBKQRVRM0HKNZ", "current_trial": 240, "dateTime": 1511193463992, "trialdata": {"rt": -1, "stimulus": "<p id=\"stim\">WRENCH</p>", "key_press": -1, "type": "PRES_VIS", "word": "wrench", "wordID": 1624, "conditions": [12, 1600, "v", 12000], "trial": 6, "serialpos": 3, "trial_type": "single-stim", "trial_index": 240, "time_elapsed": 1096620, "internal_node_id": "0.0-177.0"}}, {"uniqueid": "MTK0508:3FQ5JJ512MV9EQKNEXBKQRVRM0HKNZ", "current_trial": 241, "dateTime": 1511193466437, "trialdata": {"rt": -1, "stimulus": "<p id=\"stim\">TEMPLE</p>", "key_press": -1, "type": "PRES_VIS", "word": "temple", "wordID": 1447, "conditions": [12, 1600, "v", 12000], "trial": 6, "serialpos": 4, "trial_type": "single-stim", "trial_index": 241, "time_elapsed": 1099068, "internal_node_id": "0.0-178.0"}}, {"uniqueid": "MTK0508:3FQ5JJ512MV9EQKNEXBKQRVRM0HKNZ", "current_trial": 242, "dateTime": 1511193469017, "trialdata": {"rt": -1, "stimulus": "<p id=\"stim\">RIVER</p>", "key_press": -1, "type": "PRES_VIS", "word": "river", "wordID": 1193, "conditions": [12, 1600, "v", 12000], "trial": 6, "serialpos": 5, "trial_type": "single-stim", "trial_index": 242, "time_elapsed": 1101646, "internal_node_id": "0.0-179.0"}}, {"uniqueid": "MTK0508:3FQ5JJ512MV9EQKNEXBKQRVRM0HKNZ", "current_trial": 243, "dateTime": 1511193471696, "trialdata": {"rt": -1, "stimulus": "<p id=\"stim\">POLICE</p>", "key_press": -1, "type": "PRES_VIS", "word": "police", "wordID": 1097, "conditions": [12, 1600, "v", 12000], "trial": 6, "serialpos": 6, "trial_type": "single-stim", "trial_index": 243, "time_elapsed": 1104312, "internal_node_id": "0.0-180.0"}}, {"uniqueid": "MTK0508:3FQ5JJ512MV9EQKNEXBKQRVRM0HKNZ", "current_trial": 244, "dateTime": 1511193474301, "trialdata": {"rt": -1, "stimulus": "<p id=\"stim\">BABY</p>", "key_press": -1, "type": "PRES_VIS", "word": "baby", "wordID": 63, "conditions": [12, 1600, "v", 12000], "trial": 6, "serialpos": 7, "trial_type": "single-stim", "trial_index": 244, "time_elapsed": 1106932, "internal_node_id": "0.0-181.0"}}, {"uniqueid": "MTK0508:3FQ5JJ512MV9EQKNEXBKQRVRM0HKNZ", "current_trial": 245, "dateTime": 1511193476882, "trialdata": {"rt": -1, "stimulus": "<p id=\"stim\">GIRL</p>", "key_press": -1, "type": "PRES_VIS", "word": "girl", "wordID": 636, "conditions": [12, 1600, "v", 12000], "trial": 6, "serialpos": 8, "trial_type": "single-stim", "trial_index": 245, "time_elapsed": 1109511, "internal_node_id": "0.0-182.0"}}, {"uniqueid": "MTK0508:3FQ5JJ512MV9EQKNEXBKQRVRM0HKNZ", "current_trial": 246, "dateTime": 1511193479596, "trialdata": {"rt": -1, "stimulus": "<p id=\"stim\">FOX</p>", "key_press": -1, "type": "PRES_VIS", "word": "fox", "wordID": 597, "conditions": [12, 1600, "v", 12000], "trial": 6, "serialpos": 9, "trial_type": "single-stim", "trial_index": 246, "time_elapsed": 1112226, "internal_node_id": "0.0-183.0"}}, {"uniqueid": "MTK0508:3FQ5JJ512MV9EQKNEXBKQRVRM0HKNZ", "current_trial": 247, "dateTime": 1511193482417, "trialdata": {"rt": -1, "stimulus": "<p id=\"stim\">HANDBAG</p>", "key_press": -1, "type": "PRES_VIS", "word": "handbag", "wordID": 683, "conditions": [12, 1600, "v", 12000], "trial": 6, "serialpos": 10, "trial_type": "single-stim", "trial_index": 247, "time_elapsed": 1115049, "internal_node_id": "0.0-184.0"}}, {"uniqueid": "MTK0508:3FQ5JJ512MV9EQKNEXBKQRVRM0HKNZ", "current_trial": 248, "dateTime": 1511193485249, "trialdata": {"rt": -1, "stimulus": "<p id=\"stim\">PATROL</p>", "key_press": -1, "type": "PRES_VIS", "word": "patrol", "wordID": 1026, "conditions": [12, 1600, "v", 12000], "trial": 6, "serialpos": 11, "trial_type": "single-stim", "trial_index": 248, "time_elapsed": 1117879, "internal_node_id": "0.0-185.0"}}, {"uniqueid": "MTK0508:3FQ5JJ512MV9EQKNEXBKQRVRM0HKNZ", "current_trial": 249, "dateTime": 1511193487502, "trialdata": {"rt": -1, "stimulus": "", "key_press": -1, "type": "PRE_RECALL_DELAY", "trial_type": "single-stim", "trial_index": 249, "time_elapsed": 1120131, "internal_node_id": "0.0-186.0-0.0"}}, {"uniqueid": "MTK0508:3FQ5JJ512MV9EQKNEXBKQRVRM0HKNZ", "current_trial": 250, "dateTime": 1511193488012, "trialdata": {"rt": -1000, "stimulus": "/static/audio/400Hz.wav", "key_press": -1, "type": "PRE_RECALL_ALERT", "trial_type": "single-audio", "trial_index": 250, "time_elapsed": 1120641, "internal_node_id": "0.0-187.0"}}, {"uniqueid": "MTK0508:3FQ5JJ512MV9EQKNEXBKQRVRM0HKNZ", "current_trial": 251, "dateTime": 1511193548084, "trialdata": {"rt": [2447, 4817, 6955, 8366, 9503], "recwords": ["patrol", "handbag", "pasta", "baby", "girl"], "type": "FREE_RECALL", "conditions": [12, 1600, "v", 12000], "trial": 6, "trial_type": "free-recall", "trial_index": 251, "time_elapsed": 1180672, "internal_node_id": "0.0-188.0-0.0"}}, {"uniqueid": "MTK0508:3FQ5JJ512MV9EQKNEXBKQRVRM0HKNZ", "current_trial": 252, "dateTime": 1511193551825, "trialdata": {"rt": 1729, "key_press": 32, "type": "INSTRUCTIONS", "trial_type": "text", "trial_index": 252, "time_elapsed": 1184454, "internal_node_id": "0.0-189.0"}}, {"uniqueid": "MTK0508:3FQ5JJ512MV9EQKNEXBKQRVRM0HKNZ", "current_trial": 253, "dateTime": 1511193565884, "trialdata": {"rt": [2391, 4749, 6316, 9335], "responses": ["18", "18", "11", "15"], "num1": [8, 8, 7, 8, 9], "num2": [8, 7, 3, 1, 9], "num3": [2, 3, 1, 6, 8], "type": "DISTRACTOR", "conditions": [12, 800, "v", 12000], "trial": 7, "trial_type": "math-distractor", "trial_index": 253, "time_elapsed": 1198513, "internal_node_id": "0.0-190.0"}}, {"uniqueid": "MTK0508:3FQ5JJ512MV9EQKNEXBKQRVRM0HKNZ", "current_trial": 254, "dateTime": 1511193568936, "trialdata": {"rt": -1, "stimulus": "<p id=\"stim\">10</p>", "key_press": -1, "trial_type": "single-stim", "trial_index": 254, "time_elapsed": 1201566, "internal_node_id": "0.0-191.0-0.0"}}, {"uniqueid": "MTK0508:3FQ5JJ512MV9EQKNEXBKQRVRM0HKNZ", "current_trial": 255, "dateTime": 1511193569935, "trialdata": {"rt": -1, "stimulus": "<p id=\"stim\">9</p>", "key_press": -1, "trial_type": "single-stim", "trial_index": 255, "time_elapsed": 1202564, "internal_node_id": "0.0-191.0-1.0"}}, {"uniqueid": "MTK0508:3FQ5JJ512MV9EQKNEXBKQRVRM0HKNZ", "current_trial": 256, "dateTime": 1511193570939, "trialdata": {"rt": -1, "stimulus": "<p id=\"stim\">8</p>", "key_press": -1, "trial_type": "single-stim", "trial_index": 256, "time_elapsed": 1203568, "internal_node_id": "0.0-191.0-2.0"}}, {"uniqueid": "MTK0508:3FQ5JJ512MV9EQKNEXBKQRVRM0HKNZ", "current_trial": 257, "dateTime": 1511193571943, "trialdata": {"rt": -1, "stimulus": "<p id=\"stim\">7</p>", "key_press": -1, "trial_type": "single-stim", "trial_index": 257, "time_elapsed": 1204572, "internal_node_id": "0.0-191.0-3.0"}}, {"uniqueid": "MTK0508:3FQ5JJ512MV9EQKNEXBKQRVRM0HKNZ", "current_trial": 258, "dateTime": 1511193572939, "trialdata": {"rt": -1, "stimulus": "<p id=\"stim\">6</p>", "key_press": -1, "trial_type": "single-stim", "trial_index": 258, "time_elapsed": 1205567, "internal_node_id": "0.0-191.0-4.0"}}, {"uniqueid": "MTK0508:3FQ5JJ512MV9EQKNEXBKQRVRM0HKNZ", "current_trial": 259, "dateTime": 1511193573945, "trialdata": {"rt": -1, "stimulus": "<p id=\"stim\">5</p>", "key_press": -1, "trial_type": "single-stim", "trial_index": 259, "time_elapsed": 1206574, "internal_node_id": "0.0-191.0-5.0"}}, {"uniqueid": "MTK0508:3FQ5JJ512MV9EQKNEXBKQRVRM0HKNZ", "current_trial": 260, "dateTime": 1511193574921, "trialdata": {"rt": -1, "stimulus": "<p id=\"stim\">4</p>", "key_press": -1, "trial_type": "single-stim", "trial_index": 260, "time_elapsed": 1207553, "internal_node_id": "0.0-191.0-6.0"}}, {"uniqueid": "MTK0508:3FQ5JJ512MV9EQKNEXBKQRVRM0HKNZ", "current_trial": 261, "dateTime": 1511193575926, "trialdata": {"rt": -1, "stimulus": "<p id=\"stim\">3</p>", "key_press": -1, "trial_type": "single-stim", "trial_index": 261, "time_elapsed": 1208556, "internal_node_id": "0.0-191.0-7.0"}}, {"uniqueid": "MTK0508:3FQ5JJ512MV9EQKNEXBKQRVRM0HKNZ", "current_trial": 262, "dateTime": 1511193576942, "trialdata": {"rt": -1, "stimulus": "<p id=\"stim\">2</p>", "key_press": -1, "trial_type": "single-stim", "trial_index": 262, "time_elapsed": 1209571, "internal_node_id": "0.0-191.0-8.0"}}, {"uniqueid": "MTK0508:3FQ5JJ512MV9EQKNEXBKQRVRM0HKNZ", "current_trial": 263, "dateTime": 1511193577927, "trialdata": {"rt": -1, "stimulus": "<p id=\"stim\">1</p>", "key_press": -1, "trial_type": "single-stim", "trial_index": 263, "time_elapsed": 1210556, "internal_node_id": "0.0-191.0-9.0"}}, {"uniqueid": "MTK0508:3FQ5JJ512MV9EQKNEXBKQRVRM0HKNZ", "current_trial": 264, "dateTime": 1511193579449, "trialdata": {"rt": -1, "stimulus": "<p id=\"stim\">+</p>", "key_press": -1, "type": "FIXATION", "trial_type": "single-stim", "trial_index": 264, "time_elapsed": 1212078, "internal_node_id": "0.0-192.0-0.0"}}, {"uniqueid": "MTK0508:3FQ5JJ512MV9EQKNEXBKQRVRM0HKNZ", "current_trial": 265, "dateTime": 1511193580263, "trialdata": {"rt": -1, "stimulus": "<p id=\"stim\">CLOTHES</p>", "key_press": -1, "type": "PRES_VIS", "word": "clothes", "wordID": 326, "conditions": [12, 800, "v", 12000], "trial": 7, "serialpos": 0, "trial_type": "single-stim", "trial_index": 265, "time_elapsed": 1212894, "internal_node_id": "0.0-193.0"}}, {"uniqueid": "MTK0508:3FQ5JJ512MV9EQKNEXBKQRVRM0HKNZ", "current_trial": 266, "dateTime": 1511193582092, "trialdata": {"rt": -1, "stimulus": "<p id=\"stim\">FLASHLIGHT</p>", "key_press": -1, "type": "PRES_VIS", "word": "flashlight", "wordID": 574, "conditions": [12, 800, "v", 12000], "trial": 7, "serialpos": 1, "trial_type": "single-stim", "trial_index": 266, "time_elapsed": 1214721, "internal_node_id": "0.0-194.0"}}, {"uniqueid": "MTK0508:3FQ5JJ512MV9EQKNEXBKQRVRM0HKNZ", "current_trial": 267, "dateTime": 1511193583885, "trialdata": {"rt": -1, "stimulus": "<p id=\"stim\">AIRPLANE</p>", "key_press": -1, "type": "PRES_VIS", "word": "airplane", "wordID": 11, "conditions": [12, 800, "v", 12000], "trial": 7, "serialpos": 2, "trial_type": "single-stim", "trial_index": 267, "time_elapsed": 1216514, "internal_node_id": "0.0-195.0"}}, {"uniqueid": "MTK0508:3FQ5JJ512MV9EQKNEXBKQRVRM0HKNZ", "current_trial": 268, "dateTime": 1511193585883, "trialdata": {"rt": -1, "stimulus": "<p id=\"stim\">COSTUME</p>", "key_press": -1, "type": "PRES_VIS", "word": "costume", "wordID": 382, "conditions": [12, 800, "v", 12000], "trial": 7, "serialpos": 3, "trial_type": "single-stim", "trial_index": 268, "time_elapsed": 1218513, "internal_node_id": "0.0-196.0"}}, {"uniqueid": "MTK0508:3FQ5JJ512MV9EQKNEXBKQRVRM0HKNZ", "current_trial": 269, "dateTime": 1511193587575, "trialdata": {"rt": -1, "stimulus": "<p id=\"stim\">SISTER</p>", "key_press": -1, "type": "PRES_VIS", "word": "sister", "wordID": 1311, "conditions": [12, 800, "v", 12000], "trial": 7, "serialpos": 4, "trial_type": "single-stim", "trial_index": 269, "time_elapsed": 1220206, "internal_node_id": "0.0-197.0"}}, {"uniqueid": "MTK0508:3FQ5JJ512MV9EQKNEXBKQRVRM0HKNZ", "current_trial": 270, "dateTime": 1511193589241, "trialdata": {"rt": -1, "stimulus": "<p id=\"stim\">FLEET</p>", "key_press": -1, "type": "PRES_VIS", "word": "fleet", "wordID": 577, "conditions": [12, 800, "v", 12000], "trial": 7, "serialpos": 5, "trial_type": "single-stim", "trial_index": 270, "time_elapsed": 1221871, "internal_node_id": "0.0-198.0"}}, {"uniqueid": "MTK0508:3FQ5JJ512MV9EQKNEXBKQRVRM0HKNZ", "current_trial": 271, "dateTime": 1511193591186, "trialdata": {"rt": -1, "stimulus": "<p id=\"stim\">WARDROBE</p>", "key_press": -1, "type": "PRES_VIS", "word": "wardrobe", "wordID": 1586, "conditions": [12, 800, "v", 12000], "trial": 7, "serialpos": 6, "trial_type": "single-stim", "trial_index": 271, "time_elapsed": 1223815, "internal_node_id": "0.0-199.0"}}, {"uniqueid": "MTK0508:3FQ5JJ512MV9EQKNEXBKQRVRM0HKNZ", "current_trial": 272, "dateTime": 1511193593067, "trialdata": {"rt": -1, "stimulus": "<p id=\"stim\">HONEY</p>", "key_press": -1, "type": "PRES_VIS", "word": "honey", "wordID": 712,