{"condition": 0, "counterbalance": 823, "assignmentId": "3JMSRU9HQJ1J0V1MK2M82DCZM70VEK", "workerId": "MTK0220", "hitId": "38F60IALAGO39TK9HYICRMQQIVMT0O", "currenttrial": 625, "bonus": 0, "data": [{"uniqueid": "MTK0220:3JMSRU9HQJ1J0V1MK2M82DCZM70VEK", "current_trial": 0, "dateTime": 1509553656871, "trialdata": {"rt": 1843, "key_press": 32, "type": "INSTRUCTIONS", "trial_type": "text", "trial_index": 0, "time_elapsed": 1850, "internal_node_id": "0.0-0.0"}}, {"uniqueid": "MTK0220:3JMSRU9HQJ1J0V1MK2M82DCZM70VEK", "current_trial": 1, "dateTime": 1509553681932, "trialdata": {"rt": 25056, "key_press": 175, "type": "INSTRUCTIONS", "trial_type": "text", "trial_index": 1, "time_elapsed": 26914, "internal_node_id": "0.0-1.0"}}, {"uniqueid": "MTK0220:3JMSRU9HQJ1J0V1MK2M82DCZM70VEK", "current_trial": 2, "dateTime": 1509553711521, "trialdata": {"rt": [29561], "responses": ["ocean"], "type": "AUDIO_TEST", "trial_type": "audio-test", "trial_index": 2, "time_elapsed": 56503, "internal_node_id": "0.0-2.0"}}, {"uniqueid": "MTK0220:3JMSRU9HQJ1J0V1MK2M82DCZM70VEK", "current_trial": 3, "dateTime": 1509553718430, "trialdata": {"rt": [6898], "responses": ["crystal"], "type": "AUDIO_TEST", "trial_type": "audio-test", "trial_index": 3, "time_elapsed": 63412, "internal_node_id": "0.0-3.0"}}, {"uniqueid": "MTK0220:3JMSRU9HQJ1J0V1MK2M82DCZM70VEK", "current_trial": 4, "dateTime": 1509553723008, "trialdata": {"rt": [4567], "responses": ["spice"], "type": "AUDIO_TEST", "trial_type": "audio-test", "trial_index": 4, "time_elapsed": 67989, "internal_node_id": "0.0-4.0"}}, {"uniqueid": "MTK0220:3JMSRU9HQJ1J0V1MK2M82DCZM70VEK", "current_trial": 5, "dateTime": 1509553727977, "trialdata": {"rt": 4217, "key_press": 32, "type": "INSTRUCTIONS", "trial_type": "text", "trial_index": 5, "time_elapsed": 72959, "internal_node_id": "0.0-5.0"}}, {"uniqueid": "MTK0220:3JMSRU9HQJ1J0V1MK2M82DCZM70VEK", "current_trial": 6, "dateTime": 1509553777046, "trialdata": {"rt": 49069, "key_press": 16, "type": "INSTRUCTIONS", "trial_type": "text", "trial_index": 6, "time_elapsed": 122028, "internal_node_id": "0.0-6.0"}}, {"uniqueid": "MTK0220:3JMSRU9HQJ1J0V1MK2M82DCZM70VEK", "current_trial": 7, "dateTime": 1509553777318, "trialdata": {"rt": 268, "key_press": 16, "type": "INSTRUCTIONS", "trial_type": "text", "trial_index": 7, "time_elapsed": 122300, "internal_node_id": "0.0-7.0"}}, {"uniqueid": "MTK0220:3JMSRU9HQJ1J0V1MK2M82DCZM70VEK", "current_trial": 8, "dateTime": 1509553777394, "trialdata": {"rt": 76, "key_press": 16, "type": "INSTRUCTIONS", "trial_type": "text", "trial_index": 8, "time_elapsed": 122376, "internal_node_id": "0.0-8.0"}}, {"uniqueid": "MTK0220:3JMSRU9HQJ1J0V1MK2M82DCZM70VEK", "current_trial": 9, "dateTime": 1509553796405, "trialdata": {"rt": [3545, 7001, 9039, 12710, 14396, 16458], "responses": ["13", "21", "20", "12", "5", "14"], "num1": [3, 6, 8, 8, 1, 8, 9], "num2": [5, 7, 9, 3, 3, 5, 3], "num3": [5, 8, 3, 1, 1, 1, 4], "type": "DISTRACTOR", "conditions": [18, 1200, "a", 18000], "trial": 0, "trial_type": "math-distractor", "trial_index": 9, "time_elapsed": 141387, "internal_node_id": "0.0-9.0"}}, {"uniqueid": "MTK0220:3JMSRU9HQJ1J0V1MK2M82DCZM70VEK", "current_trial": 10, "dateTime": 1509553799414, "trialdata": {"rt": -1, "stimulus": "<p id=\"stim\">10</p>", "key_press": -1, "trial_type": "single-stim", "trial_index": 10, "time_elapsed": 144396, "internal_node_id": "0.0-10.0-0.0"}}, {"uniqueid": "MTK0220:3JMSRU9HQJ1J0V1MK2M82DCZM70VEK", "current_trial": 11, "dateTime": 1509553800418, "trialdata": {"rt": -1, "stimulus": "<p id=\"stim\">9</p>", "key_press": -1, "trial_type": "single-stim", "trial_index": 11, "time_elapsed": 145400, "internal_node_id": "0.0-10.0-1.0"}}, {"uniqueid": "MTK0220:3JMSRU9HQJ1J0V1MK2M82DCZM70VEK", "current_trial": 12, "dateTime": 1509553801420, "trialdata": {"rt": -1, "stimulus": "<p id=\"stim\">8</p>", "key_press": -1, "trial_type": "single-stim", "trial_index": 12, "time_elapsed": 146402, "internal_node_id": "0.0-10.0-2.0"}}, {"uniqueid": "MTK0220:3JMSRU9HQJ1J0V1MK2M82DCZM70VEK", "current_trial": 13, "dateTime": 1509553802423, "trialdata": {"rt": -1, "stimulus": "<p id=\"stim\">7</p>", "key_press": -1, "trial_type": "single-stim", "trial_index": 13, "time_elapsed": 147405, "internal_node_id": "0.0-10.0-3.0"}}, {"uniqueid": "MTK0220:3JMSRU9HQJ1J0V1MK2M82DCZM70VEK", "current_trial": 14, "dateTime": 1509553803426, "trialdata": {"rt": -1, "stimulus": "<p id=\"stim\">6</p>", "key_press": -1, "trial_type": "single-stim", "trial_index": 14, "time_elapsed": 148408, "internal_node_id": "0.0-10.0-4.0"}}, {"uniqueid": "MTK0220:3JMSRU9HQJ1J0V1MK2M82DCZM70VEK", "current_trial": 15, "dateTime": 1509553804430, "trialdata": {"rt": -1, "stimulus": "<p id=\"stim\">5</p>", "key_press": -1, "trial_type": "single-stim", "trial_index": 15, "time_elapsed": 149412, "internal_node_id": "0.0-10.0-5.0"}}, {"uniqueid": "MTK0220:3JMSRU9HQJ1J0V1MK2M82DCZM70VEK", "current_trial": 16, "dateTime": 1509553805435, "trialdata": {"rt": -1, "stimulus": "<p id=\"stim\">4</p>", "key_press": -1, "trial_type": "single-stim", "trial_index": 16, "time_elapsed": 150417, "internal_node_id": "0.0-10.0-6.0"}}, {"uniqueid": "MTK0220:3JMSRU9HQJ1J0V1MK2M82DCZM70VEK", "current_trial": 17, "dateTime": 1509553806437, "trialdata": {"rt": -1, "stimulus": "<p id=\"stim\">3</p>", "key_press": -1, "trial_type": "single-stim", "trial_index": 17, "time_elapsed": 151419, "internal_node_id": "0.0-10.0-7.0"}}, {"uniqueid": "MTK0220:3JMSRU9HQJ1J0V1MK2M82DCZM70VEK", "current_trial": 18, "dateTime": 1509553807441, "trialdata": {"rt": -1, "stimulus": "<p id=\"stim\">2</p>", "key_press": -1, "trial_type": "single-stim", "trial_index": 18, "time_elapsed": 152423, "internal_node_id": "0.0-10.0-8.0"}}, {"uniqueid": "MTK0220:3JMSRU9HQJ1J0V1MK2M82DCZM70VEK", "current_trial": 19, "dateTime": 1509553808442, "trialdata": {"rt": -1, "stimulus": "<p id=\"stim\">1</p>", "key_press": -1, "trial_type": "single-stim", "trial_index": 19, "time_elapsed": 153424, "internal_node_id": "0.0-10.0-9.0"}}, {"uniqueid": "MTK0220:3JMSRU9HQJ1J0V1MK2M82DCZM70VEK", "current_trial": 20, "dateTime": 1509553809945, "trialdata": {"rt": -1, "stimulus": "<p id=\"stim\">+</p>", "key_press": -1, "type": "FIXATION", "trial_type": "single-stim", "trial_index": 20, "time_elapsed": 154927, "internal_node_id": "0.0-11.0-0.0"}}, {"uniqueid": "MTK0220:3JMSRU9HQJ1J0V1MK2M82DCZM70VEK", "current_trial": 21, "dateTime": 1509553812165, "trialdata": {"rt": -1000, "stimulus": "/static/audio/wordpool/STUDENT.wav", "key_press": -1, "type": "PRES_AUD", "word": "student", "wordID": 1394, "conditions": [18, 1200, "a", 18000], "trial": 0, "serialpos": 0, "trial_type": "single-audio", "trial_index": 21, "time_elapsed": 157147, "internal_node_id": "0.0-12.0"}}, {"uniqueid": "MTK0220:3JMSRU9HQJ1J0V1MK2M82DCZM70VEK", "current_trial": 22, "dateTime": 1509553814475, "trialdata": {"rt": -1000, "stimulus": "/static/audio/wordpool/STONE.wav", "key_press": -1, "type": "PRES_AUD", "word": "stone", "wordID": 1384, "conditions": [18, 1200, "a", 18000], "trial": 0, "serialpos": 1, "trial_type": "single-audio", "trial_index": 22, "time_elapsed": 159457, "internal_node_id": "0.0-13.0"}}, {"uniqueid": "MTK0220:3JMSRU9HQJ1J0V1MK2M82DCZM70VEK", "current_trial": 23, "dateTime": 1509553816606, "trialdata": {"rt": 929.3333333333464, "stimulus": "/static/audio/wordpool/ATOM.wav", "key_press": 175, "type": "PRES_AUD", "word": "atom", "wordID": 54, "conditions": [18, 1200, "a", 18000], "trial": 0, "serialpos": 2, "trial_type": "single-audio", "trial_index": 23, "time_elapsed": 161588, "internal_node_id": "0.0-14.0"}}, {"uniqueid": "MTK0220:3JMSRU9HQJ1J0V1MK2M82DCZM70VEK", "current_trial": 24, "dateTime": 1509553819004, "trialdata": {"rt": -1000, "stimulus": "/static/audio/wordpool/SIDEWALK.wav", "key_press": -1, "type": "PRES_AUD", "word": "sidewalk", "wordID": 1302, "conditions": [18, 1200, "a", 18000], "trial": 0, "serialpos": 3, "trial_type": "single-audio", "trial_index": 24, "time_elapsed": 163986, "internal_node_id": "0.0-15.0"}}, {"uniqueid": "MTK0220:3JMSRU9HQJ1J0V1MK2M82DCZM70VEK", "current_trial": 25, "dateTime": 1509553821250, "trialdata": {"rt": -1000, "stimulus": "/static/audio/wordpool/CHAUFFEUR.wav", "key_press": -1, "type": "PRES_AUD", "word": "chauffeur", "wordID": 282, "conditions": [18, 1200, "a", 18000], "trial": 0, "serialpos": 4, "trial_type": "single-audio", "trial_index": 25, "time_elapsed": 166232, "internal_node_id": "0.0-16.0"}}, {"uniqueid": "MTK0220:3JMSRU9HQJ1J0V1MK2M82DCZM70VEK", "current_trial": 26, "dateTime": 1509553823343, "trialdata": {"rt": -1000, "stimulus": "/static/audio/wordpool/DAISY.wav", "key_press": -1, "type": "PRES_AUD", "word": "daisy", "wordID": 434, "conditions": [18, 1200, "a", 18000], "trial": 0, "serialpos": 5, "trial_type": "single-audio", "trial_index": 26, "time_elapsed": 168325, "internal_node_id": "0.0-17.0"}}, {"uniqueid": "MTK0220:3JMSRU9HQJ1J0V1MK2M82DCZM70VEK", "current_trial": 27, "dateTime": 1509553825602, "trialdata": {"rt": -1000, "stimulus": "/static/audio/wordpool/MAMMAL.wav", "key_press": -1, "type": "PRES_AUD", "word": "mammal", "wordID": 860, "conditions": [18, 1200, "a", 18000], "trial": 0, "serialpos": 6, "trial_type": "single-audio", "trial_index": 27, "time_elapsed": 170584, "internal_node_id": "0.0-18.0"}}, {"uniqueid": "MTK0220:3JMSRU9HQJ1J0V1MK2M82DCZM70VEK", "current_trial": 28, "dateTime": 1509553827863, "trialdata": {"rt": -1000, "stimulus": "/static/audio/wordpool/DIME.wav", "key_press": -1, "type": "PRES_AUD", "word": "dime", "wordID": 465, "conditions": [18, 1200, "a", 18000], "trial": 0, "serialpos": 7, "trial_type": "single-audio", "trial_index": 28, "time_elapsed": 172845, "internal_node_id": "0.0-19.0"}}, {"uniqueid": "MTK0220:3JMSRU9HQJ1J0V1MK2M82DCZM70VEK", "current_trial": 29, "dateTime": 1509553830192, "trialdata": {"rt": -1000, "stimulus": "/static/audio/wordpool/LAGOON.wav", "key_press": -1, "type": "PRES_AUD", "word": "lagoon", "wordID": 794, "conditions": [18, 1200, "a", 18000], "trial": 0, "serialpos": 8, "trial_type": "single-audio", "trial_index": 29, "time_elapsed": 175174, "internal_node_id": "0.0-20.0"}}, {"uniqueid": "MTK0220:3JMSRU9HQJ1J0V1MK2M82DCZM70VEK", "current_trial": 30, "dateTime": 1509553832470, "trialdata": {"rt": -1000, "stimulus": "/static/audio/wordpool/LION.wav", "key_press": -1, "type": "PRES_AUD", "word": "lion", "wordID": 826, "conditions": [18, 1200, "a", 18000], "trial": 0, "serialpos": 9, "trial_type": "single-audio", "trial_index": 30, "time_elapsed": 177452, "internal_node_id": "0.0-21.0"}}, {"uniqueid": "MTK0220:3JMSRU9HQJ1J0V1MK2M82DCZM70VEK", "current_trial": 31, "dateTime": 1509553834551, "trialdata": {"rt": -1000, "stimulus": "/static/audio/wordpool/DAUGHTER.wav", "key_press": -1, "type": "PRES_AUD", "word": "daughter", "wordID": 441, "conditions": [18, 1200, "a", 18000], "trial": 0, "serialpos": 10, "trial_type": "single-audio", "trial_index": 31, "time_elapsed": 179533, "internal_node_id": "0.0-22.0"}}, {"uniqueid": "MTK0220:3JMSRU9HQJ1J0V1MK2M82DCZM70VEK", "current_trial": 32, "dateTime": 1509553836603, "trialdata": {"rt": -1000, "stimulus": "/static/audio/wordpool/BRACES.wav", "key_press": -1, "type": "PRES_AUD", "word": "braces", "wordID": 163, "conditions": [18, 1200, "a", 18000], "trial": 0, "serialpos": 11, "trial_type": "single-audio", "trial_index": 32, "time_elapsed": 181585, "internal_node_id": "0.0-23.0"}}, {"uniqueid": "MTK0220:3JMSRU9HQJ1J0V1MK2M82DCZM70VEK", "current_trial": 33, "dateTime": 1509553838674, "trialdata": {"rt": -1000, "stimulus": "/static/audio/wordpool/BALLOON.wav", "key_press": -1, "type": "PRES_AUD", "word": "balloon", "wordID": 74, "conditions": [18, 1200, "a", 18000], "trial": 0, "serialpos": 12, "trial_type": "single-audio", "trial_index": 33, "time_elapsed": 183656, "internal_node_id": "0.0-24.0"}}, {"uniqueid": "MTK0220:3JMSRU9HQJ1J0V1MK2M82DCZM70VEK", "current_trial": 34, "dateTime": 1509553841016, "trialdata": {"rt": -1000, "stimulus": "/static/audio/wordpool/THIEF.wav", "key_press": -1, "type": "PRES_AUD", "word": "thief", "wordID": 1455, "conditions": [18, 1200, "a", 18000], "trial": 0, "serialpos": 13, "trial_type": "single-audio", "trial_index": 34, "time_elapsed": 185998, "internal_node_id": "0.0-25.0"}}, {"uniqueid": "MTK0220:3JMSRU9HQJ1J0V1MK2M82DCZM70VEK", "current_trial": 35, "dateTime": 1509553843260, "trialdata": {"rt": -1000, "stimulus": "/static/audio/wordpool/BREAST.wav", "key_press": -1, "type": "PRES_AUD", "word": "breast", "wordID": 170, "conditions": [18, 1200, "a", 18000], "trial": 0, "serialpos": 14, "trial_type": "single-audio", "trial_index": 35, "time_elapsed": 188242, "internal_node_id": "0.0-26.0"}}, {"uniqueid": "MTK0220:3JMSRU9HQJ1J0V1MK2M82DCZM70VEK", "current_trial": 36, "dateTime": 1509553845396, "trialdata": {"rt": -1000, "stimulus": "/static/audio/wordpool/FIREMAN.wav", "key_press": -1, "type": "PRES_AUD", "word": "fireman", "wordID": 568, "conditions": [18, 1200, "a", 18000], "trial": 0, "serialpos": 15, "trial_type": "single-audio", "trial_index": 36, "time_elapsed": 190378, "internal_node_id": "0.0-27.0"}}, {"uniqueid": "MTK0220:3JMSRU9HQJ1J0V1MK2M82DCZM70VEK", "current_trial": 37, "dateTime": 1509553847566, "trialdata": {"rt": -1000, "stimulus": "/static/audio/wordpool/TURNIP.wav", "key_press": -1, "type": "PRES_AUD", "word": "turnip", "wordID": 1520, "conditions": [18, 1200, "a", 18000], "trial": 0, "serialpos": 16, "trial_type": "single-audio", "trial_index": 37, "time_elapsed": 192548, "internal_node_id": "0.0-28.0"}}, {"uniqueid": "MTK0220:3JMSRU9HQJ1J0V1MK2M82DCZM70VEK", "current_trial": 38, "dateTime": 1509553849643, "trialdata": {"rt": -1000, "stimulus": "/static/audio/wordpool/GRAVE.wav", "key_press": -1, "type": "PRES_AUD", "word": "grave", "wordID": 657, "conditions": [18, 1200, "a", 18000], "trial": 0, "serialpos": 17, "trial_type": "single-audio", "trial_index": 38, "time_elapsed": 194625, "internal_node_id": "0.0-29.0"}}, {"uniqueid": "MTK0220:3JMSRU9HQJ1J0V1MK2M82DCZM70VEK", "current_trial": 39, "dateTime": 1509553850873, "trialdata": {"rt": -1, "stimulus": "", "key_press": -1, "type": "PRE_RECALL_DELAY", "trial_type": "single-stim", "trial_index": 39, "time_elapsed": 195855, "internal_node_id": "0.0-30.0-0.0"}}, {"uniqueid": "MTK0220:3JMSRU9HQJ1J0V1MK2M82DCZM70VEK", "current_trial": 40, "dateTime": 1509553851375, "trialdata": {"rt": -1000, "stimulus": "/static/audio/400Hz.wav", "key_press": -1, "type": "PRE_RECALL_ALERT", "trial_type": "single-audio", "trial_index": 40, "time_elapsed": 196357, "internal_node_id": "0.0-31.0"}}, {"uniqueid": "MTK0220:3JMSRU9HQJ1J0V1MK2M82DCZM70VEK", "current_trial": 41, "dateTime": 1509553911384, "trialdata": {"rt": [3732, 5595, 7947, 10654, 12685, 16106, 23249], "recwords": ["turnip", "grave", "fireman", "daughter", "stone", "daisy", "son"], "type": "FREE_RECALL", "conditions": [18, 1200, "a", 18000], "trial": 0, "trial_type": "free-recall", "trial_index": 41, "time_elapsed": 256362, "internal_node_id": "0.0-32.0-0.0"}}, {"uniqueid": "MTK0220:3JMSRU9HQJ1J0V1MK2M82DCZM70VEK", "current_trial": 42, "dateTime": 1509553915178, "trialdata": {"rt": 1786, "key_press": 32, "type": "INSTRUCTIONS", "trial_type": "text", "trial_index": 42, "time_elapsed": 260156, "internal_node_id": "0.0-33.0"}}, {"uniqueid": "MTK0220:3JMSRU9HQJ1J0V1MK2M82DCZM70VEK", "current_trial": 43, "dateTime": 1509553935184, "trialdata": {"rt": [3574, 5658, 7529, 9431, 11592, 14452, 17103], "responses": ["9", "22", "9", "16", "23", "17", "19"], "num1": [3, 6, 1, 2, 6, 2, 2, 3], "num2": [2, 7, 2, 7, 8, 6, 9, 1], "num3": [4, 9, 6, 7, 9, 9, 8, 6], "type": "DISTRACTOR", "conditions": [18, 1200, "v", 18000], "trial": 1, "trial_type": "math-distractor", "trial_index": 43, "time_elapsed": 280166, "internal_node_id": "0.0-34.0"}}, {"uniqueid": "MTK0220:3JMSRU9HQJ1J0V1MK2M82DCZM70VEK", "current_trial": 44, "dateTime": 1509553938192, "trialdata": {"rt": -1, "stimulus": "<p id=\"stim\">10</p>", "key_press": -1, "trial_type": "single-stim", "trial_index": 44, "time_elapsed": 283174, "internal_node_id": "0.0-35.0-0.0"}}, {"uniqueid": "MTK0220:3JMSRU9HQJ1J0V1MK2M82DCZM70VEK", "current_trial": 45, "dateTime": 1509553939196, "trialdata": {"rt": -1, "stimulus": "<p id=\"stim\">9</p>", "key_press": -1, "trial_type": "single-stim", "trial_index": 45, "time_elapsed": 284178, "internal_node_id": "0.0-35.0-1.0"}}, {"uniqueid": "MTK0220:3JMSRU9HQJ1J0V1MK2M82DCZM70VEK", "current_trial": 46, "dateTime": 1509553940199, "trialdata": {"rt": -1, "stimulus": "<p id=\"stim\">8</p>", "key_press": -1, "trial_type": "single-stim", "trial_index": 46, "time_elapsed": 285181, "internal_node_id": "0.0-35.0-2.0"}}, {"uniqueid": "MTK0220:3JMSRU9HQJ1J0V1MK2M82DCZM70VEK", "current_trial": 47, "dateTime": 1509553941202, "trialdata": {"rt": -1, "stimulus": "<p id=\"stim\">7</p>", "key_press": -1, "trial_type": "single-stim", "trial_index": 47, "time_elapsed": 286184, "internal_node_id": "0.0-35.0-3.0"}}, {"uniqueid": "MTK0220:3JMSRU9HQJ1J0V1MK2M82DCZM70VEK", "current_trial": 48, "dateTime": 1509553942205, "trialdata": {"rt": -1, "stimulus": "<p id=\"stim\">6</p>", "key_press": -1, "trial_type": "single-stim", "trial_index": 48, "time_elapsed": 287187, "internal_node_id": "0.0-35.0-4.0"}}, {"uniqueid": "MTK0220:3JMSRU9HQJ1J0V1MK2M82DCZM70VEK", "current_trial": 49, "dateTime": 1509553943208, "trialdata": {"rt": -1, "stimulus": "<p id=\"stim\">5</p>", "key_press": -1, "trial_type": "single-stim", "trial_index": 49, "time_elapsed": 288190, "internal_node_id": "0.0-35.0-5.0"}}, {"uniqueid": "MTK0220:3JMSRU9HQJ1J0V1MK2M82DCZM70VEK", "current_trial": 50, "dateTime": 1509553944212, "trialdata": {"rt": -1, "stimulus": "<p id=\"stim\">4</p>", "key_press": -1, "trial_type": "single-stim", "trial_index": 50, "time_elapsed": 289194, "internal_node_id": "0.0-35.0-6.0"}}, {"uniqueid": "MTK0220:3JMSRU9HQJ1J0V1MK2M82DCZM70VEK", "current_trial": 51, "dateTime": 1509553945214, "trialdata": {"rt": -1, "stimulus": "<p id=\"stim\">3</p>", "key_press": -1, "trial_type": "single-stim", "trial_index": 51, "time_elapsed": 290196, "internal_node_id": "0.0-35.0-7.0"}}, {"uniqueid": "MTK0220:3JMSRU9HQJ1J0V1MK2M82DCZM70VEK", "current_trial": 52, "dateTime": 1509553946217, "trialdata": {"rt": -1, "stimulus": "<p id=\"stim\">2</p>", "key_press": -1, "trial_type": "single-stim", "trial_index": 52, "time_elapsed": 291199, "internal_node_id": "0.0-35.0-8.0"}}, {"uniqueid": "MTK0220:3JMSRU9HQJ1J0V1MK2M82DCZM70VEK", "current_trial": 53, "dateTime": 1509553947219, "trialdata": {"rt": -1, "stimulus": "<p id=\"stim\">1</p>", "key_press": -1, "trial_type": "single-stim", "trial_index": 53, "time_elapsed": 292201, "internal_node_id": "0.0-35.0-9.0"}}, {"uniqueid": "MTK0220:3JMSRU9HQJ1J0V1MK2M82DCZM70VEK", "current_trial": 54, "dateTime": 1509553948722, "trialdata": {"rt": -1, "stimulus": "<p id=\"stim\">+</p>", "key_press": -1, "type": "FIXATION", "trial_type": "single-stim", "trial_index": 54, "time_elapsed": 293704, "internal_node_id": "0.0-36.0-0.0"}}, {"uniqueid": "MTK0220:3JMSRU9HQJ1J0V1MK2M82DCZM70VEK", "current_trial": 55, "dateTime": 1509553949928, "trialdata": {"rt": -1, "stimulus": "<p id=\"stim\">CARRIAGE</p>", "key_press": -1, "type": "PRES_VIS", "word": "carriage", "wordID": 247, "conditions": [18, 1200, "v", 18000], "trial": 1, "serialpos": 0, "trial_type": "single-stim", "trial_index": 55, "time_elapsed": 294910, "internal_node_id": "0.0-37.0"}}, {"uniqueid": "MTK0220:3JMSRU9HQJ1J0V1MK2M82DCZM70VEK", "current_trial": 56, "dateTime": 1509553952312, "trialdata": {"rt": -1, "stimulus": "<p id=\"stim\">PICNIC</p>", "key_press": -1, "type": "PRES_VIS", "word": "picnic", "wordID": 1059, "conditions": [18, 1200, "v", 18000], "trial": 1, "serialpos": 1, "trial_type": "single-stim", "trial_index": 56, "time_elapsed": 297294, "internal_node_id": "0.0-38.0"}}, {"uniqueid": "MTK0220:3JMSRU9HQJ1J0V1MK2M82DCZM70VEK", "current_trial": 57, "dateTime": 1509553954617, "trialdata": {"rt": -1, "stimulus": "<p id=\"stim\">JAPAN</p>", "key_press": -1, "type": "PRES_VIS", "word": "japan", "wordID": 748, "conditions": [18, 1200, "v", 18000], "trial": 1, "serialpos": 2, "trial_type": "single-stim", "trial_index": 57, "time_elapsed": 299599, "internal_node_id": "0.0-39.0"}}, {"uniqueid": "MTK0220:3JMSRU9HQJ1J0V1MK2M82DCZM70VEK", "current_trial": 58, "dateTime": 1509553957021, "trialdata": {"rt": -1, "stimulus": "<p id=\"stim\">CATCHER</p>", "key_press": -1, "type": "PRES_VIS", "word": "catcher", "wordID": 257, "conditions": [18, 1200, "v", 18000], "trial": 1, "serialpos": 3, "trial_type": "single-stim", "trial_index": 58, "time_elapsed": 302003, "internal_node_id": "0.0-40.0"}}, {"uniqueid": "MTK0220:3JMSRU9HQJ1J0V1MK2M82DCZM70VEK", "current_trial": 59, "dateTime": 1509553959406, "trialdata": {"rt": -1, "stimulus": "<p id=\"stim\">ROBBER</p>", "key_press": -1, "type": "PRES_VIS", "word": "robber", "wordID": 1196, "conditions": [18, 1200, "v", 18000], "trial": 1, "serialpos": 4, "trial_type": "single-stim", "trial_index": 59, "time_elapsed": 304388, "internal_node_id": "0.0-41.0"}}, {"uniqueid": "MTK0220:3JMSRU9HQJ1J0V1MK2M82DCZM70VEK", "current_trial": 60, "dateTime": 1509553961660, "trialdata": {"rt": -1, "stimulus": "<p id=\"stim\">MASK</p>", "key_press": -1, "type": "PRES_VIS", "word": "mask", "wordID": 875, "conditions": [18, 1200, "v", 18000], "trial": 1, "serialpos": 5, "trial_type": "single-stim", "trial_index": 60, "time_elapsed": 306642, "internal_node_id": "0.0-42.0"}}, {"uniqueid": "MTK0220:3JMSRU9HQJ1J0V1MK2M82DCZM70VEK", "current_trial": 61, "dateTime": 1509553963763, "trialdata": {"rt": -1, "stimulus": "<p id=\"stim\">BRICK</p>", "key_press": -1, "type": "PRES_VIS", "word": "brick", "wordID": 171, "conditions": [18, 1200, "v", 18000], "trial": 1, "serialpos": 6, "trial_type": "single-stim", "trial_index": 61, "time_elapsed": 308745, "internal_node_id": "0.0-43.0"}}, {"uniqueid": "MTK0220:3JMSRU9HQJ1J0V1MK2M82DCZM70VEK", "current_trial": 62, "dateTime": 1509553965875, "trialdata": {"rt": -1, "stimulus": "<p id=\"stim\">RIVER</p>", "key_press": -1, "type": "PRES_VIS", "word": "river", "wordID": 1193, "conditions": [18, 1200, "v", 18000], "trial": 1, "serialpos": 7, "trial_type": "single-stim", "trial_index": 62, "time_elapsed": 310857, "internal_node_id": "0.0-44.0"}}, {"uniqueid": "MTK0220:3JMSRU9HQJ1J0V1MK2M82DCZM70VEK", "current_trial": 63, "dateTime": 1509553968148, "trialdata": {"rt": -1, "stimulus": "<p id=\"stim\">WRIST</p>", "key_press": -1, "type": "PRES_VIS", "word": "wrist", "wordID": 1625, "conditions": [18, 1200, "v", 18000], "trial": 1, "serialpos": 8, "trial_type": "single-stim", "trial_index": 63, "time_elapsed": 313130, "internal_node_id": "0.0-45.0"}}, {"uniqueid": "MTK0220:3JMSRU9HQJ1J0V1MK2M82DCZM70VEK", "current_trial": 64, "dateTime": 1509553970444, "trialdata": {"rt": -1, "stimulus": "<p id=\"stim\">HERO</p>", "key_press": -1, "type": "PRES_VIS", "word": "hero", "wordID": 705, "conditions": [18, 1200, "v", 18000], "trial": 1, "serialpos": 9, "trial_type": "single-stim", "trial_index": 64, "time_elapsed": 315426, "internal_node_id": "0.0-46.0"}}, {"uniqueid": "MTK0220:3JMSRU9HQJ1J0V1MK2M82DCZM70VEK", "current_trial": 65, "dateTime": 1509553972744, "trialdata": {"rt": -1, "stimulus": "<p id=\"stim\">KITCHEN</p>", "key_press": -1, "type": "PRES_VIS", "word": "kitchen", "wordID": 777, "conditions": [18, 1200, "v", 18000], "trial": 1, "serialpos": 10, "trial_type": "single-stim", "trial_index": 65, "time_elapsed": 317726, "internal_node_id": "0.0-47.0"}}, {"uniqueid": "MTK0220:3JMSRU9HQJ1J0V1MK2M82DCZM70VEK", "current_trial": 66, "dateTime": 1509553974915, "trialdata": {"rt": -1, "stimulus": "<p id=\"stim\">FLASK</p>", "key_press": -1, "type": "PRES_VIS", "word": "flask", "wordID": 575, "conditions": [18, 1200, "v", 18000], "trial": 1, "serialpos": 11, "trial_type": "single-stim", "trial_index": 66, "time_elapsed": 319897, "internal_node_id": "0.0-48.0"}}, {"uniqueid": "MTK0220:3JMSRU9HQJ1J0V1MK2M82DCZM70VEK", "current_trial": 67, "dateTime": 1509553977142, "trialdata": {"rt": -1, "stimulus": "<p id=\"stim\">JUGGLER</p>", "key_press": -1, "type": "PRES_VIS", "word": "juggler", "wordID": 762, "conditions": [18, 1200, "v", 18000], "trial": 1, "serialpos": 12, "trial_type": "single-stim", "trial_index": 67, "time_elapsed": 322124, "internal_node_id": "0.0-49.0"}}, {"uniqueid": "MTK0220:3JMSRU9HQJ1J0V1MK2M82DCZM70VEK", "current_trial": 68, "dateTime": 1509553979213, "trialdata": {"rt": -1, "stimulus": "<p id=\"stim\">RECORD</p>", "key_press": -1, "type": "PRES_VIS", "word": "record", "wordID": 1175, "conditions": [18, 1200, "v", 18000], "trial": 1, "serialpos": 13, "trial_type": "single-stim", "trial_index": 68, "time_elapsed": 324191, "internal_node_id": "0.0-50.0"}}, {"uniqueid": "MTK0220:3JMSRU9HQJ1J0V1MK2M82DCZM70VEK", "current_trial": 69, "dateTime": 1509553981475, "trialdata": {"rt": -1, "stimulus": "<p id=\"stim\">BANJO</p>", "key_press": -1, "type": "PRES_VIS", "word": "banjo", "wordID": 81, "conditions": [18, 1200, "v", 18000], "trial": 1, "serialpos": 14, "trial_type": "single-stim", "trial_index": 69, "time_elapsed": 326457, "internal_node_id": "0.0-51.0"}}, {"uniqueid": "MTK0220:3JMSRU9HQJ1J0V1MK2M82DCZM70VEK", "current_trial": 70, "dateTime": 1509553983655, "trialdata": {"rt": -1, "stimulus": "<p id=\"stim\">KLEENEX</p>", "key_press": -1, "type": "PRES_VIS", "word": "kleenex", "wordID": 781, "conditions": [18, 1200, "v", 18000], "trial": 1, "serialpos": 15, "trial_type": "single-stim", "trial_index": 70, "time_elapsed": 328637, "internal_node_id": "0.0-52.0"}}, {"uniqueid": "MTK0220:3JMSRU9HQJ1J0V1MK2M82DCZM70VEK", "current_trial": 71, "dateTime": 1509553986009, "trialdata": {"rt": -1, "stimulus": "<p id=\"stim\">TRIBE</p>", "key_press": -1, "type": "PRES_VIS", "word": "tribe", "wordID": 1504, "conditions": [18, 1200, "v", 18000], "trial": 1, "serialpos": 16, "trial_type": "single-stim", "trial_index": 71, "time_elapsed": 330991, "internal_node_id": "0.0-53.0"}}, {"uniqueid": "MTK0220:3JMSRU9HQJ1J0V1MK2M82DCZM70VEK", "current_trial": 72, "dateTime": 1509553988312, "trialdata": {"rt": -1, "stimulus": "<p id=\"stim\">COUNTY</p>", "key_press": -1, "type": "PRES_VIS", "word": "county", "wordID": 388, "conditions": [18, 1200, "v", 18000], "trial": 1, "serialpos": 17, "trial_type": "single-stim", "trial_index": 72, "time_elapsed": 333294, "internal_node_id": "0.0-54.0"}}, {"uniqueid": "MTK0220:3JMSRU9HQJ1J0V1MK2M82DCZM70VEK", "current_trial": 73, "dateTime": 1509553990530, "trialdata": {"rt": -1, "stimulus": "", "key_press": -1, "type": "PRE_RECALL_DELAY", "trial_type": "single-stim", "trial_index": 73, "time_elapsed": 335512, "internal_node_id": "0.0-55.0-0.0"}}, {"uniqueid": "MTK0220:3JMSRU9HQJ1J0V1MK2M82DCZM70VEK", "current_trial": 74, "dateTime": 1509553991033, "trialdata": {"rt": -1000, "stimulus": "/static/audio/400Hz.wav", "key_press": -1, "type": "PRE_RECALL_ALERT", "trial_type": "single-audio", "trial_index": 74, "time_elapsed": 336015, "internal_node_id": "0.0-56.0"}}, {"uniqueid": "MTK0220:3JMSRU9HQJ1J0V1MK2M82DCZM70VEK", "current_trial": 75, "dateTime": 1509554051045, "trialdata": {"rt": [2579, 5115, 6961, 9822, 21196, 22705], "recwords": ["tribe", "county", "japan", "catcher", "thief", "mask"], "type": "FREE_RECALL", "conditions": [18, 1200, "v", 18000], "trial": 1, "trial_type": "free-recall", "trial_index": 75, "time_elapsed": 396023, "internal_node_id": "0.0-57.0-0.0"}}, {"uniqueid": "MTK0220:3JMSRU9HQJ1J0V1MK2M82DCZM70VEK", "current_trial": 76, "dateTime": 1509554056422, "trialdata": {"rt": 3373, "key_press": 32, "type": "INSTRUCTIONS", "trial_type": "text", "trial_index": 76, "time_elapsed": 401404, "internal_node_id": "0.0-58.0"}}, {"uniqueid": "MTK0220:3JMSRU9HQJ1J0V1MK2M82DCZM70VEK", "current_trial": 77, "dateTime": 1509554081431, "trialdata": {"rt": [3538, 5298, 7664, 8993, 10856, 12604, 14444, 16553, 18479, 21428, 23969], "responses": ["18", "21", "9", "12", "13", "14", "17", "9", "13", "20", "16"], "num1": [9, 3, 3, 5, 2, 8, 7, 2, 1, 6, 1, 7], "num2": [5, 9, 2, 2, 4, 2, 7, 6, 8, 7, 9, 6], "num3": [4, 9, 4, 5, 7, 4, 3, 1, 4, 7, 6, 3], "type": "DISTRACTOR", "conditions": [24, 1600, "a", 24000], "trial": 2, "trial_type": "math-distractor", "trial_index": 77, "time_elapsed": 426413, "internal_node_id": "0.0-59.0"}}, {"uniqueid": "MTK0220:3JMSRU9HQJ1J0V1MK2M82DCZM70VEK", "current_trial": 78, "dateTime": 1509554084439, "trialdata": {"rt": -1, "stimulus": "<p id=\"stim\">10</p>", "key_press": -1, "trial_type": "single-stim", "trial_index": 78, "time_elapsed": 429421, "internal_node_id": "0.0-60.0-0.0"}}, {"uniqueid": "MTK0220:3JMSRU9HQJ1J0V1MK2M82DCZM70VEK", "current_trial": 79, "dateTime": 1509554085444, "trialdata": {"rt": -1, "stimulus": "<p id=\"stim\">9</p>", "key_press": -1, "trial_type": "single-stim", "trial_index": 79, "time_elapsed": 430426, "internal_node_id": "0.0-60.0-1.0"}}, {"uniqueid": "MTK0220:3JMSRU9HQJ1J0V1MK2M82DCZM70VEK", "current_trial": 80, "dateTime": 1509554086449, "trialdata": {"rt": -1, "stimulus": "<p id=\"stim\">8</p>", "key_press": -1, "trial_type": "single-stim", "trial_index": 80, "time_elapsed": 431431, "internal_node_id": "0.0-60.0-2.0"}}, {"uniqueid": "MTK0220:3JMSRU9HQJ1J0V1MK2M82DCZM70VEK", "current_trial": 81, "dateTime": 1509554087453, "trialdata": {"rt": -1, "stimulus": "<p id=\"stim\">7</p>", "key_press": -1, "trial_type": "single-stim", "trial_index": 81, "time_elapsed": 432435, "internal_node_id": "0.0-60.0-3.0"}}, {"uniqueid": "MTK0220:3JMSRU9HQJ1J0V1MK2M82DCZM70VEK", "current_trial": 82, "dateTime": 1509554088456, "trialdata": {"rt": -1, "stimulus": "<p id=\"stim\">6</p>", "key_press": -1, "trial_type": "single-stim", "trial_index": 82, "time_elapsed": 433438, "internal_node_id": "0.0-60.0-4.0"}}, {"uniqueid": "MTK0220:3JMSRU9HQJ1J0V1MK2M82DCZM70VEK", "current_trial": 83, "dateTime": 1509554089459, "trialdata": {"rt": -1, "stimulus": "<p id=\"stim\">5</p>", "key_press": -1, "trial_type": "single-stim", "trial_index": 83, "time_elapsed": 434441, "internal_node_id": "0.0-60.0-5.0"}}, {"uniqueid": "MTK0220:3JMSRU9HQJ1J0V1MK2M82DCZM70VEK", "current_trial": 84, "dateTime": 1509554090464, "trialdata": {"rt": -1, "stimulus": "<p id=\"stim\">4</p>", "key_press": -1, "trial_type": "single-stim", "trial_index": 84, "time_elapsed": 435446, "internal_node_id": "0.0-60.0-6.0"}}, {"uniqueid": "MTK0220:3JMSRU9HQJ1J0V1MK2M82DCZM70VEK", "current_trial": 85, "dateTime": 1509554091468, "trialdata": {"rt": -1, "stimulus": "<p id=\"stim\">3</p>", "key_press": -1, "trial_type": "single-stim", "trial_index": 85, "time_elapsed": 436450, "internal_node_id": "0.0-60.0-7.0"}}, {"uniqueid": "MTK0220:3JMSRU9HQJ1J0V1MK2M82DCZM70VEK", "current_trial": 86, "dateTime": 1509554092473, "trialdata": {"rt": -1, "stimulus": "<p id=\"stim\">2</p>", "key_press": -1, "trial_type": "single-stim", "trial_index": 86, "time_elapsed": 437455, "internal_node_id": "0.0-60.0-8.0"}}, {"uniqueid": "MTK0220:3JMSRU9HQJ1J0V1MK2M82DCZM70VEK", "current_trial": 87, "dateTime": 1509554093478, "trialdata": {"rt": -1, "stimulus": "<p id=\"stim\">1</p>", "key_press": -1, "trial_type": "single-stim", "trial_index": 87, "time_elapsed": 438460, "internal_node_id": "0.0-60.0-9.0"}}, {"uniqueid": "MTK0220:3JMSRU9HQJ1J0V1MK2M82DCZM70VEK", "current_trial": 88, "dateTime": 1509554094980, "trialdata": {"rt": -1, "stimulus": "<p id=\"stim\">+</p>", "key_press": -1, "type": "FIXATION", "trial_type": "single-stim", "trial_index": 88, "time_elapsed": 439962, "internal_node_id": "0.0-61.0-0.0"}}, {"uniqueid": "MTK0220:3JMSRU9HQJ1J0V1MK2M82DCZM70VEK", "current_trial": 89, "dateTime": 1509554097678, "trialdata": {"rt": -1000, "stimulus": "/static/audio/wordpool/FLUTE.wav", "key_press": -1, "type": "PRES_AUD", "word": "flute", "wordID": 584, "conditions": [24, 1600, "a", 24000], "trial": 2, "serialpos": 0, "trial_type": "single-audio", "trial_index": 89, "time_elapsed": 442660, "internal_node_id": "0.0-62.0"}}, {"uniqueid": "MTK0220:3JMSRU9HQJ1J0V1MK2M82DCZM70VEK", "current_trial": 90, "dateTime": 1509554100280, "trialdata": {"rt": -1000, "stimulus": "/static/audio/wordpool/GRAPE.wav", "key_press": -1, "type": "PRES_AUD", "word": "grape", "wordID": 653, "conditions": [24, 1600, "a", 24000], "trial": 2, "serialpos": 1, "trial_type": "single-audio", "trial_index": 90, "time_elapsed": 445262, "internal_node_id": "0.0-63.0"}}, {"uniqueid": "MTK0220:3JMSRU9HQJ1J0V1MK2M82DCZM70VEK", "current_trial": 91, "dateTime": 1509554102797, "trialdata": {"rt": -1000, "stimulus": "/static/audio/wordpool/BARLEY.wav", "key_press": -1, "type": "PRES_AUD", "word": "barley", "wordID": 87, "conditions": [24, 1600, "a", 24000], "trial": 2, "serialpos": 2, "trial_type": "single-audio", "trial_index": 91, "time_elapsed": 447779, "internal_node_id": "0.0-64.0"}}, {"uniqueid": "MTK0220:3JMSRU9HQJ1J0V1MK2M82DCZM70VEK", "current_trial": 92, "dateTime": 1509554105591, "trialdata": {"rt": -1000, "stimulus": "/static/audio/wordpool/PEBBLE.wav", "key_press": -1, "type": "PRES_AUD", "word": "pebble", "wordID": 1034, "conditions": [24, 1600, "a", 24000], "trial": 2, "serialpos": 3, "trial_type": "single-audio", "trial_index": 92, "time_elapsed": 450573, "internal_node_id": "0.0-65.0"}}, {"uniqueid": "MTK0220:3JMSRU9HQJ1J0V1MK2M82DCZM70VEK", "current_trial": 93, "dateTime": 1509554108357, "trialdata": {"rt": -1000, "stimulus": "/static/audio/wordpool/SHERIFF.wav", "key_press": -1, "type": "PRES_AUD", "word": "sheriff", "wordID": 1283, "conditions": [24, 1600, "a", 24000], "trial": 2, "serialpos": 4, "trial_type": "single-audio", "trial_index": 93, "time_elapsed": 453339, "internal_node_id": "0.0-66.0"}}, {"uniqueid": "MTK0220:3JMSRU9HQJ1J0V1MK2M82DCZM70VEK", "current_trial": 94, "dateTime": 1509554111084, "trialdata": {"rt": -1000, "stimulus": "/static/audio/wordpool/BURGLAR.wav", "key_press": -1, "type": "PRES_AUD", "word": "burglar", "wordID": 199, "conditions": [24, 1600, "a", 24000], "trial": 2, "serialpos": 5, "trial_type": "single-audio", "trial_index": 94, "time_elapsed": 456066, "internal_node_id": "0.0-67.0"}}, {"uniqueid": "MTK0220:3JMSRU9HQJ1J0V1MK2M82DCZM70VEK", "current_trial": 95, "dateTime": 1509554113581, "trialdata": {"rt": -1000, "stimulus": "/static/audio/wordpool/EUROPE.wav", "key_press": -1, "type": "PRES_AUD", "word": "europe", "wordID": 540, "conditions": [24, 1600, "a", 24000], "trial": 2, "serialpos": 6, "trial_type": "single-audio", "trial_index": 95, "time_elapsed": 458563, "internal_node_id": "0.0-68.0"}}, {"uniqueid": "MTK0220:3JMSRU9HQJ1J0V1MK2M82DCZM70VEK", "current_trial": 96, "dateTime": 1509554116193, "trialdata": {"rt": -1000, "stimulus": "/static/audio/wordpool/PARROT.wav", "key_press": -1, "type": "PRES_AUD", "word": "parrot", "wordID": 1014, "conditions": [24, 1600, "a", 24000], "trial": 2, "serialpos": 7, "trial_type": "single-audio", "trial_index": 96, "time_elapsed": 461174, "internal_node_id": "0.0-69.0"}}, {"uniqueid": "MTK0220:3JMSRU9HQJ1J0V1MK2M82DCZM70VEK", "current_trial": 97, "dateTime": 1509554118705, "trialdata": {"rt": -1000, "stimulus": "/static/audio/wordpool/SISTER.wav", "key_press": -1, "type": "PRES_AUD", "word": "sister", "wordID": 1311, "conditions": [24, 1600, "a", 24000], "trial": 2, "serialpos": 8, "trial_type": "single-audio", "trial_index": 97, "time_elapsed": 463687, "internal_node_id": "0.0-70.0"}}, {"uniqueid": "MTK0220:3JMSRU9HQJ1J0V1MK2M82DCZM70VEK", "current_trial": 98, "dateTime": 1509554121274, "trialdata": {"rt": -1000, "stimulus": "/static/audio/wordpool/PRINCESS.wav", "key_press": -1, "type": "PRES_AUD", "word": "princess", "wordID": 1124, "conditions": [24, 1600, "a", 24000], "trial": 2, "serialpos": 9, "trial_type": "single-audio", "trial_index": 98, "time_elapsed": 466256, "internal_node_id": "0.0-71.0"}}, {"uniqueid": "MTK0220:3JMSRU9HQJ1J0V1MK2M82DCZM70VEK", "current_trial": 99, "dateTime": 1509554124046, "trialdata": {"rt": -1000, "stimulus": "/static/audio/wordpool/EGYPT.wav", "key_press": -1, "type": "PRES_AUD", "word": "egypt", "wordID": 518, "conditions": [24, 1600, "a", 24000], "trial": 2, "serialpos": 10, "trial_type": "single-audio", "trial_index": 99, "time_elapsed": 469028, "internal_node_id": "0.0-72.0"}}, {"uniqueid": "MTK0220:3JMSRU9HQJ1J0V1MK2M82DCZM70VEK", "current_trial": 100, "dateTime": 1509554126558, "trialdata": {"rt": -1000, "stimulus": "/static/audio/wordpool/SPOOL.wav", "key_press": -1, "type": "PRES_AUD", "word": "spool", "wordID": 1355, "conditions": [24, 1600, "a", 24000], "trial": 2, "serialpos": 11, "trial_type": "single-audio", "trial_index": 100, "time_elapsed": 471540, "internal_node_id": "0.0-73.0"}}, {"uniqueid": "MTK0220:3JMSRU9HQJ1J0V1MK2M82DCZM70VEK", "current_trial": 101, "dateTime": 1509554129304, "trialdata": {"rt": -1000, "stimulus": "/static/audio/wordpool/TURKEY.wav", "key_press": -1, "type": "PRES_AUD", "word": "turkey", "wordID": 1519, "conditions": [24, 1600, "a", 24000], "trial": 2, "serialpos": 12, "trial_type": "single-audio", "trial_index": 101, "time_elapsed": 474286, "internal_node_id": "0.0-74.0"}}, {"uniqueid": "MTK0220:3JMSRU9HQJ1J0V1MK2M82DCZM70VEK", "current_trial": 102, "dateTime": 1509554131898, "trialdata": {"rt": -1000, "stimulus": "/static/audio/wordpool/MAILBOX.wav", "key_press": -1, "type": "PRES_AUD", "word": "mailbox", "wordID": 856, "conditions": [24, 1600, "a", 24000], "trial": 2, "serialpos": 13, "trial_type": "single-audio", "trial_index": 102, "time_elapsed": 476880, "internal_node_id": "0.0-75.0"}}, {"uniqueid": "MTK0220:3JMSRU9HQJ1J0V1MK2M82DCZM70VEK", "current_trial": 103, "dateTime": 1509554134476, "trialdata": {"rt": -1000, "stimulus": "/static/audio/wordpool/PUDDLE.wav", "key_press": -1, "type": "PRES_AUD", "word": "puddle", "wordID": 1139, "conditions": [24, 1600, "a", 24000], "trial": 2, "serialpos": 14, "trial_type": "single-audio", "trial_index": 103, "time_elapsed": 479458, "internal_node_id": "0.0-76.0"}}, {"uniqueid": "MTK0220:3JMSRU9HQJ1J0V1MK2M82DCZM70VEK", "current_trial": 104, "dateTime": 1509554137277, "trialdata": {"rt": -1000, "stimulus": "/static/audio/wordpool/QUAIL.wav", "key_press": -1, "type": "PRES_AUD", "word": "quail", "wordID": 1146, "conditions": [24, 1600, "a", 24000], "trial": 2, "serialpos": 15, "trial_type": "single-audio", "trial_index": 104, "time_elapsed": 482259, "internal_node_id": "0.0-77.0"}}, {"uniqueid": "MTK0220:3JMSRU9HQJ1J0V1MK2M82DCZM70VEK", "current_trial": 105, "dateTime": 1509554139817, "trialdata": {"rt": -1000, "stimulus": "/static/audio/wordpool/CABBAGE.wav", "key_press": -1, "type": "PRES_AUD", "word": "cabbage", "wordID": 209, "conditions": [24, 1600, "a", 24000], "trial": 2, "serialpos": 16, "trial_type": "single-audio", "trial_index": 105, "time_elapsed": 484799, "internal_node_id": "0.0-78.0"}}, {"uniqueid": "MTK0220:3JMSRU9HQJ1J0V1MK2M82DCZM70VEK", "current_trial": 106, "dateTime": 1509554142567, "trialdata": {"rt": -1000, "stimulus": "/static/audio/wordpool/PARSLEY.wav", "key_press": -1, "type": "PRES_AUD", "word": "parsley", "wordID": 1015, "conditions": [24, 1600, "a", 24000], "trial": 2, "serialpos": 17, "trial_type": "single-audio", "trial_index": 106, "time_elapsed": 487549, "internal_node_id": "0.0-79.0"}}, {"uniqueid": "MTK0220:3JMSRU9HQJ1J0V1MK2M82DCZM70VEK", "current_trial": 107, "dateTime": 1509554145273, "trialdata": {"rt": -1000, "stimulus": "/static/audio/wordpool/FRECKLE.wav", "key_press": -1, "type": "PRES_AUD", "word": "freckle", "wordID": 601, "conditions": [24, 1600, "a", 24000], "trial": 2, "serialpos": 18, "trial_type": "single-audio", "trial_index": 107, "time_elapsed": 490255, "internal_node_id": "0.0-80.0"}}, {"uniqueid": "MTK0220:3JMSRU9HQJ1J0V1MK2M82DCZM70VEK", "current_trial": 108, "dateTime": 1509554148061, "trialdata": {"rt": -1000, "stimulus": "/static/audio/wordpool/GARDEN.wav", "key_press": -1, "type": "PRES_AUD", "word": "garden", "wordID": 622, "conditions": [24, 1600, "a", 24000], "trial": 2, "serialpos": 19, "trial_type": "single-audio", "trial_index": 108, "time_elapsed": 493043, "internal_node_id": "0.0-81.0"}}, {"uniqueid": "MTK0220:3JMSRU9HQJ1J0V1MK2M82DCZM70VEK", "current_trial": 109, "dateTime": 1509554150583, "trialdata": {"rt": -1000, "stimulus": "/static/audio/wordpool/FRIEND.wav", "key_press": -1, "type": "PRES_AUD", "word": "friend", "wordID": 605, "conditions": [24, 1600, "a", 24000], "trial": 2, "serialpos": 20, "trial_type": "single-audio", "trial_index": 109, "time_elapsed": 495565, "internal_node_id": "0.0-82.0"}}, {"uniqueid": "MTK0220:3JMSRU9HQJ1J0V1MK2M82DCZM70VEK", "current_trial": 110, "dateTime": 1509554153243, "trialdata": {"rt": -1000, "stimulus": "/static/audio/wordpool/COBRA.wav", "key_press": -1, "type": "PRES_AUD", "word": "cobra", "wordID": 335, "conditions": [24, 1600, "a", 24000], "trial": 2, "serialpos": 21, "trial_type": "single-audio", "trial_index": 110, "time_elapsed": 498224, "internal_node_id": "0.0-83.0"}}, {"uniqueid": "MTK0220:3JMSRU9HQJ1J0V1MK2M82DCZM70VEK", "current_trial": 111, "dateTime": 1509554155858, "trialdata": {"rt": -1000, "stimulus": "/static/audio/wordpool/SOFTBALL.wav", "key_press": -1, "type": "PRES_AUD", "word": "softball", "wordID": 1342, "conditions": [24, 1600, "a", 24000], "trial": 2, "serialpos": 22, "trial_type": "single-audio", "trial_index": 111, "time_elapsed": 500840, "internal_node_id": "0.0-84.0"}}, {"uniqueid": "MTK0220:3JMSRU9HQJ1J0V1MK2M82DCZM70VEK", "current_trial": 112, "dateTime": 1509554158284, "trialdata": {"rt": -1000, "stimulus": "/static/audio/wordpool/PANTHER.wav", "key_press": -1, "type": "PRES_AUD", "word": "panther", "wordID": 1008, "conditions": [24, 1600, "a", 24000], "trial": 2, "serialpos": 23, "trial_type": "single-audio", "trial_index": 112, "time_elapsed": 503266, "internal_node_id": "0.0-85.0"}}, {"uniqueid": "MTK0220:3JMSRU9HQJ1J0V1MK2M82DCZM70VEK", "current_trial": 113, "dateTime": 1509554159575, "trialdata": {"rt": -1, "stimulus": "", "key_press": -1, "type": "PRE_RECALL_DELAY", "trial_type": "single-stim", "trial_index": 113, "time_elapsed": 504557, "internal_node_id": "0.0-86.0-0.0"}}, {"uniqueid": "MTK0220:3JMSRU9HQJ1J0V1MK2M82DCZM70VEK", "current_trial": 114, "dateTime": 1509554160077, "trialdata": {"rt": -1000, "stimulus": "/static/audio/400Hz.wav", "key_press": -1, "type": "PRE_RECALL_ALERT", "trial_type": "single-audio", "trial_index": 114, "time_elapsed": 505059, "internal_node_id": "0.0-87.0"}}, {"uniqueid": "MTK0220:3JMSRU9HQJ1J0V1MK2M82DCZM70VEK", "current_trial": 115, "dateTime": 1509554220085, "trialdata": {"rt": [2479, 4649, 6757, 12291, 14581, 19418, 39465, 43964], "recwords": ["freckle", "softball", "sheriff", "burglar", "mailbox", "turkey", "pamper", "parsley"], "type": "FREE_RECALL", "conditions": [24, 1600, "a", 24000], "trial": 2, "trial_type": "free-recall", "trial_index": 115, "time_elapsed": 565063, "internal_node_id": "0.0-88.0-0.0"}}, {"uniqueid": "MTK0220:3JMSRU9HQJ1J0V1MK2M82DCZM70VEK", "current_trial": 116, "dateTime": 1509554224465, "trialdata": {"rt": 2376, "key_press": 32, "type": "INSTRUCTIONS", "trial_type": "text", "trial_index": 116, "time_elapsed": 569447, "internal_node_id": "0.0-89.0"}}, {"uniqueid": "MTK0220:3JMSRU9HQJ1J0V1MK2M82DCZM70VEK", "current_trial": 117, "dateTime": 1509554250473, "trialdata": {"rt": [3894, 5731, 7907, 9920, 11924, 14274, 17281, 18978, 20549, 22924], "responses": ["14", "14", "15", "16", "15", "12", "16", "16", "13", "14"], "num1": [8, 3, 6, 2, 4, 5, 5, 2, 3, 6, 9], "num2": [3, 5, 3, 5, 2, 2, 6, 8, 9, 2, 4], "num3": [3, 6, 6, 9, 9, 5, 5, 6, 1, 6, 2], "type": "DISTRACTOR", "conditions": [24, 800, "v", 24000], "trial": 3, "trial_type": "math-distractor", "trial_index": 117, "time_elapsed": 595455, "internal_node_id": "0.0-90.0"}}, {"uniqueid": "MTK0220:3JMSRU9HQJ1J0V1MK2M82DCZM70VEK", "current_trial": 118, "dateTime": 1509554253478, "trialdata": {"rt": -1, "stimulus": "<p id=\"stim\">10</p>", "key_press": -1, "trial_type": "single-stim", "trial_index": 118, "time_elapsed": 598460, "internal_node_id": "0.0-91.0-0.0"}}, {"uniqueid": "MTK0220:3JMSRU9HQJ1J0V1MK2M82DCZM70VEK", "current_trial": 119, "dateTime": 1509554254484, "trialdata": {"rt": -1, "stimulus": "<p id=\"stim\">9</p>", "key_press": -1, "trial_type": "single-stim", "trial_index": 119, "time_elapsed": 599466, "internal_node_id": "0.0-91.0-1.0"}}, {"uniqueid": "MTK0220:3JMSRU9HQJ1J0V1MK2M82DCZM70VEK", "current_trial": 120, "dateTime": 1509554255488, "trialdata": {"rt": -1, "stimulus": "<p id=\"stim\">8</p>", "key_press": -1, "trial_type": "single-stim", "trial_index": 120, "time_elapsed": 600470, "internal_node_id": "0.0-91.0-2.0"}}, {"uniqueid": "MTK0220:3JMSRU9HQJ1J0V1MK2M82DCZM70VEK", "current_trial": 121, "dateTime": 1509554256490, "trialdata": {"rt": -1, "stimulus": "<p id=\"stim\">7</p>", "key_press": -1, "trial_type": "single-stim", "trial_index": 121, "time_elapsed": 601472, "internal_node_id": "0.0-91.0-3.0"}}, {"uniqueid": "MTK0220:3JMSRU9HQJ1J0V1MK2M82DCZM70VEK", "current_trial": 122, "dateTime": 1509554257494, "trialdata": {"rt": -1, "stimulus": "<p id=\"stim\">6</p>", "key_press": -1, "trial_type": "single-stim", "trial_index": 122, "time_elapsed": 602476, "internal_node_id": "0.0-91.0-4.0"}}, {"uniqueid": "MTK0220:3JMSRU9HQJ1J0V1MK2M82DCZM70VEK", "current_trial": 123, "dateTime": 1509554258498, "trialdata": {"rt": -1, "stimulus": "<p id=\"stim\">5</p>", "key_press": -1, "trial_type": "single-stim", "trial_index": 123, "time_elapsed": 603480, "internal_node_id": "0.0-91.0-5.0"}}, {"uniqueid": "MTK0220:3JMSRU9HQJ1J0V1MK2M82DCZM70VEK", "current_trial": 124, "dateTime": 1509554259502, "trialdata": {"rt": -1, "stimulus": "<p id=\"stim\">4</p>", "key_press": -1, "trial_type": "single-stim", "trial_index": 124, "time_elapsed": 604484, "internal_node_id": "0.0-91.0-6.0"}}, {"uniqueid": "MTK0220:3JMSRU9HQJ1J0V1MK2M82DCZM70VEK", "current_trial": 125, "dateTime": 1509554260503, "trialdata": {"rt": -1, "stimulus": "<p id=\"stim\">3</p>", "key_press": -1, "trial_type": "single-stim", "trial_index": 125, "time_elapsed": 605485, "internal_node_id": "0.0-91.0-7.0"}}, {"uniqueid": "MTK0220:3JMSRU9HQJ1J0V1MK2M82DCZM70VEK", "current_trial": 126, "dateTime": 1509554261508, "trialdata": {"rt": -1, "stimulus": "<p id=\"stim\">2</p>", "key_press": -1, "trial_type": "single-stim", "trial_index": 126, "time_elapsed": 606490, "internal_node_id": "0.0-91.0-8.0"}}, {"uniqueid": "MTK0220:3JMSRU9HQJ1J0V1MK2M82DCZM70VEK", "current_trial": 127, "dateTime": 1509554262511, "trialdata": {"rt": -1, "stimulus": "<p id=\"stim\">1</p>", "key_press": -1, "trial_type": "single-stim", "trial_index": 127, "time_elapsed": 607493, "internal_node_id": "0.0-91.0-9.0"}}, {"uniqueid": "MTK0220:3JMSRU9HQJ1J0V1MK2M82DCZM70VEK", "current_trial": 128, "dateTime": 1509554264014, "trialdata": {"rt": -1, "stimulus": "<p id=\"stim\">+</p>", "key_press": -1, "type": "FIXATION", "trial_type": "single-stim", "trial_index": 128, "time_elapsed": 608996, "internal_node_id": "0.0-92.0-0.0"}}, {"uniqueid": "MTK0220:3JMSRU9HQJ1J0V1MK2M82DCZM70VEK", "current_trial": 129, "dateTime": 1509554264818, "trialdata": {"rt": -1, "stimulus": "<p id=\"stim\">CRAB</p>", "key_press": -1, "type": "PRES_VIS", "word": "crab", "wordID": 396, "conditions": [24, 800, "v", 24000], "trial": 3, "serialpos": 0, "trial_type": "single-stim", "trial_index": 129, "time_elapsed": 609800, "internal_node_id": "0.0-93.0"}}, {"uniqueid": "MTK0220:3JMSRU9HQJ1J0V1MK2M82DCZM70VEK", "current_trial": 130, "dateTime": 1509554266611, "trialdata": {"rt": -1, "stimulus": "<p id=\"stim\">LUMBER</p>", "key_press": -1, "type": "PRES_VIS", "word": "lumber", "wordID": 847, "conditions": [24, 800, "v", 24000], "trial": 3, "serialpos": 1, "trial_type": "single-stim", "trial_index": 130, "time_elapsed": 611593, "internal_node_id": "0.0-94.0"}}, {"uniqueid": "MTK0220:3JMSRU9HQJ1J0V1MK2M82DCZM70VEK", "current_trial": 131, "dateTime": 1509554268427, "trialdata": {"rt": -1, "stimulus": "<p id=\"stim\">CHURCH</p>", "key_press": -1, "type": "PRES_VIS", "word": "church", "wordID": 306, "conditions": [24, 800, "v", 24000], "trial": 3, "serialpos": 2, "trial_type": "single-stim", "trial_index": 131, "time_elapsed": 613409, "internal_node_id": "0.0-95.0"}}, {"uniqueid": "MTK0220:3JMSRU9HQJ1J0V1MK2M82DCZM70VEK", "current_trial": 132, "dateTime": 1509554270217, "trialdata": {"rt": -1, "stimulus": "<p id=\"stim\">CLAM</p>", "key_press": -1, "type": "PRES_VIS", "word": "clam", "wordID": 314, "conditions": [24, 800, "v", 24000], "trial": 3, "serialpos": 3, "trial_type": "single-stim", "trial_index": 132, "time_elapsed": 615199, "internal_node_id": "0.0-96.0"}}, {"uniqueid": "MTK0220:3JMSRU9HQJ1J0V1MK2M82DCZM70VEK", "current_trial": 133, "dateTime": 1509554272070, "trialdata": {"rt": -1, "stimulus": "<p id=\"stim\">LIGHTNING</p>", "key_press": -1, "type": "PRES_VIS", "word": "lightning", "wordID": 819, "conditions": [24, 800, "v", 24000], "trial": 3, "serialpos": 4, "trial_type": "single-stim", "trial_index": 133, "time_elapsed": 617052, "internal_node_id": "0.0-97.0"}}, {"uniqueid": "MTK0220:3JMSRU9HQJ1J0V1MK2M82DCZM70VEK", "current_trial": 134, "dateTime": 1509554273731, "trialdata": {"rt": -1, "stimulus": "<p id=\"stim\">TROMBONE</p>", "key_press": -1, "type": "PRES_VIS", "word": "trombone", "wordID": 1507, "conditions": [24, 800, "v", 24000], "trial": 3, "serialpos": 5, "trial_type": "single-stim", "trial_index": 134, "time_elapsed": 618713, "internal_node_id": "0.0-98.0"}}, {"uniqueid": "MTK0220:3JMSRU9HQJ1J0V1MK2M82DCZM70VEK", "current_trial": 135, "dateTime": 1509554275515, "trialdata": {"rt": -1, "stimulus": "<p id=\"stim\">GUITAR</p>", "key_press": -1, "type": "PRES_VIS", "word": "guitar", "wordID": 669, "conditions": [24, 800, "v", 24000], "trial": 3, "serialpos": 6, "trial_type": "single-stim", "trial_index": 135, "time_elapsed": 620497, "internal_node_id": "0.0-99.0"}}, {"uniqueid": "MTK0220:3JMSRU9HQJ1J0V1MK2M82DCZM70VEK", "current_trial": 136, "dateTime": 1509554277300, "trialdata": {"rt": -1, "stimulus": "<p id=\"stim\">PREACHER</p>", "key_press": -1, "type": "PRES_VIS", "word": "preacher", "wordID": 1118, "conditions": [24, 800, "v", 24000], "trial": 3, "serialpos": 7, "trial_type": "single-stim", "trial_index": 136, "time_elapsed": 622282, "internal_node_id": "0.0-100.0"}}, {"uniqueid": "MTK0220:3JMSRU9HQJ1J0V1MK2M82DCZM70VEK", "current_trial": 137, "dateTime": 1509554279192, "trialdata": {"rt": -1, "stimulus": "<p id=\"stim\">BASEMENT</p>", "key_press": -1, "type": "PRES_VIS", "word": "basement", "wordID": 93, "conditions": [24, 800, "v", 24000], "trial": 3, "serialpos": 8, "trial_type": "single-stim", "trial_index": 137, "time_elapsed": 624174, "internal_node_id": "0.0-101.0"}}, {"uniqueid": "MTK0220:3JMSRU9HQJ1J0V1MK2M82DCZM70VEK", "current_trial": 138, "dateTime": 1509554280866, "trialdata": {"rt": -1, "stimulus": "<p id=\"stim\">LABEL</p>", "key_press": -1, "type": "PRES_VIS", "word": "label", "wordID": 789, "conditions": [24, 800, "v", 24000], "trial": 3, "serialpos": 9, "trial_type": "single-stim", "trial_index": 138, "time_elapsed": 625848, "internal_node_id": "0.0-102.0"}}, {"uniqueid": "MTK0220:3JMSRU9HQJ1J0V1MK2M82DCZM70VEK", "current_trial": 139, "dateTime": 1509554282645, "trialdata": {"rt": -1, "stimulus": "<p id=\"stim\">BUTCHER</p>", "key_press": -1, "type": "PRES_VIS", "word": "butcher", "wordID": 202, "conditions": [24, 800, "v", 24000], "trial": 3, "serialpos": 10, "trial_type": "single-stim", "trial_index": 139, "time_elapsed": 627627, "internal_node_id": "0.0-103.0"}}, {"uniqueid": "MTK0220:3JMSRU9HQJ1J0V1MK2M82DCZM70VEK", "current_trial": 140, "dateTime": 1509554284567, "trialdata": {"rt": -1, "stimulus": "<p id=\"stim\">NOTEBOOK</p>", "key_press": -1, "type": "PRES_VIS", "word": "notebook", "wordID": 958, "conditions": [24, 800, "v", 24000], "trial": 3, "serialpos": 11, "trial_type": "single-stim", "trial_index": 140, "time_elapsed": 629549, "internal_node_id": "0.0-104.0"}}, {"uniqueid": "MTK0220:3JMSRU9HQJ1J0V1MK2M82DCZM70VEK", "current_trial": 141, "dateTime": 1509554286248, "trialdata": {"rt": -1, "stimulus": "<p id=\"stim\">SCRIBBLE</p>", "key_press": -1, "type": "PRES_VIS", "word": "scribble", "wordID": 1255, "conditions": [24, 800, "v", 24000], "trial": 3, "serialpos": 12, "trial_type": "single-stim", "trial_index": 141, "time_elapsed": 631230, "internal_node_id": "0.0-105.0"}}, {"uniqueid": "MTK0220:3JMSRU9HQJ1J0V1MK2M82DCZM70VEK", "current_trial": 142, "dateTime": 1509554288099, "trialdata": {"rt": -1, "stimulus": "<p id=\"stim\">OYSTER</p>", "key_press": -1, "type": "PRES_VIS", "word": "oyster", "wordID": 994, "conditions": [24, 800, "v", 24000], "trial": 3, "serialpos": 13, "trial_type": "single-stim", "trial_index": 142, "time_elapsed": 633081, "internal_node_id": "0.0-106.0"}}, {"uniqueid": "MTK0220:3JMSRU9HQJ1J0V1MK2M82DCZM70VEK", "current_trial": 143, "dateTime": 1509554290024, "trialdata": {"rt": -1, "stimulus": "<p id=\"stim\">POLICE</p>", "key_press": -1, "type": "PRES_VIS", "word": "police", "wordID": 1097, "conditions": [24, 800, "v", 24000], "trial": 3, "serialpos": 14, "trial_type": "single-stim", "trial_index": 143, "time_elapsed": 635006, "internal_node_id": "0.0-107.0"}}, {"uniqueid": "MTK0220:3JMSRU9HQJ1J0V1MK2M82DCZM70VEK", "current_trial": 144, "dateTime": 1509554291640, "trialdata": {"rt": -1, "stimulus": "<p id=\"stim\">PATROL</p>", "key_press": -1, "type": "PRES_VIS", "word": "patrol", "wordID": 1026, "conditions": [24, 800, "v", 24000], "trial": 3, "serialpos": 15, "trial_type": "single-stim", "trial_index": 144, "time_elapsed": 636622, "internal_node_id": "0.0-108.0"}}, {"uniqueid": "MTK0220:3JMSRU9HQJ1J0V1MK2M82DCZM70VEK", "current_trial": 145, "dateTime": 1509554293543, "trialdata": {"rt": -1, "stimulus": "<p id=\"stim\">RACKET</p>", "key_press": -1, "type": "PRES_VIS", "word": "racket", "wordID": 1154, "conditions": [24, 800, "v", 24000], "trial": 3, "serialpos": 16, "trial_type": "single-stim", "trial_index": 145, "time_elapsed": 638525, "internal_node_id": "0.0-109.0"}}, {"uniqueid": "MTK0220:3JMSRU9HQJ1J0V1MK2M82DCZM70VEK", "current_trial": 146, "dateTime": 1509554295181, "trialdata": {"rt": -1, "stimulus": "<p id=\"stim\">SCALLOP</p>", "key_press": -1, "type": "PRES_VIS", "word": "scallop", "wordID": 1241, "conditions": [24, 800, "v", 24000], "trial": 3, "serialpos": 17, "trial_type": "single-stim", "trial_index": 146, "time_elapsed": 640163, "internal_node_id": "0.0-110.0"}}, {"uniqueid": "MTK0220:3JMSRU9HQJ1J0V1MK2M82DCZM70VEK", "current_trial": 147, "dateTime": 1509554297109, "trialdata": {"rt": -1, "stimulus": "<p id=\"stim\">SALT</p>", "key_press": -1, "type": "PRES_VIS", "word": "salt", "wordID": 1228, "conditions": [24, 800, "v", 24000], "trial": 3, "serialpos": 18, "trial_type": "single-stim", "trial_index": 147, "time_elapsed": 642091, "internal_node_id": "0.0-111.0"}}, {"uniqueid": "MTK0220:3JMSRU9HQJ1J0V1MK2M82DCZM70VEK", "current_trial": 148, "dateTime": 1509554298729, "trialdata": {"rt": -1, "stimulus": "<p id=\"stim\">FRUIT</p>", "key_press": -1, "type": "PRES_VIS", "word": "fruit", "wordID": 609, "conditions": [24, 800, "v", 24000], "trial": 3, "serialpos": 19, "trial_type": "single-stim", "trial_index": 148, "time_elapsed": 643711, "internal_node_id": "0.0-112.0"}}, {"uniqueid": "MTK0220:3JMSRU9HQJ1J0V1MK2M82DCZM70VEK", "current_trial": 149, "dateTime": 1509554300723, "trialdata": {"rt": -1, "stimulus": "<p id=\"stim\">MATTRESS</p>", "key_press": -1, "type": "PRES_VIS", "word": "mattress", "wordID": 878, "conditions": [24, 800, "v", 24000], "trial": 3, "serialpos": 20, "trial_type": "single-stim", "trial_index": 149, "time_elapsed": 645705, "internal_node_id": "0.0-113.0"}}, {"uniqueid": "MTK0220:3JMSRU9HQJ1J0V1MK2M82DCZM70VEK", "current_trial": 150, "dateTime": 1509554302697, "trialdata": {"rt": -1, "stimulus": "<p id=\"stim\">ONION</p>", "key_press": -1, "type": "PRES_VIS", "word": "onion", "wordID": 976, "conditions": [24, 800, "v", 24000], "trial": 3, "serialpos": 21, "trial_type": "single-stim", "trial_index": 150, "time_elapsed": 647679, "internal_node_id": "0.0-114.0"}}, {"uniqueid": "MTK0220:3JMSRU9HQJ1J0V1MK2M82DCZM70VEK", "current_trial": 151, "dateTime": 1509554304365, "trialdata": {"rt": -1, "stimulus": "<p id=\"stim\">CONVICT</p>", "key_press": -1, "type": "PRES_VIS", "word": "convict", "wordID": 370, "conditions": [24, 800, "v", 24000], "trial": 3, "serialpos": 22, "trial_type": "single-stim", "trial_index": 151, "time_elapsed": 649347, "internal_node_id": "0.0-115.0"}}, {"uniqueid": "MTK0220:3JMSRU9HQJ1J0V1MK2M82DCZM70VEK", "current_trial": 152, "dateTime": 1509554306250, "trialdata": {"rt": -1, "stimulus": "<p id=\"stim\">MARS</p>", "key_press": -1, "type": "PRES_VIS", "word": "mars", "wordID": 872, "conditions": [24, 800, "v", 24000], "trial": 3, "serialpos": 23, "trial_type": "single-stim", "trial_index": 152, "time_elapsed": 651232, "internal_node_id": "0.0-116.0"}}, {"uniqueid": "MTK0220:3JMSRU9HQJ1J0V1MK2M82DCZM70VEK", "current_trial": 153, "dateTime": 1509554308521, "trialdata": {"rt": -1, "stimulus": "", "key_press": -1, "type": "PRE_RECALL_DELAY", "trial_type": "single-stim", "trial_index": 153, "time_elapsed": 653503, "internal_node_id": "0.0-117.0-0.0"}}, {"uniqueid": "MTK0220:3JMSRU9HQJ1J0V1MK2M82DCZM70VEK", "current_trial": 154, "dateTime": 1509554309025, "trialdata": {"rt": -1000, "stimulus": "/static/audio/400Hz.wav", "key_press": -1, "type": "PRE_RECALL_ALERT", "trial_type": "single-audio", "trial_index": 154, "time_elapsed": 654007, "internal_node_id": "0.0-118.0"}}, {"uniqueid": "MTK0220:3JMSRU9HQJ1J0V1MK2M82DCZM70VEK", "current_trial": 155, "dateTime": 1509554369040, "trialdata": {"rt": [2329, 4956, 6670, 8208, 10425, 13837, 18064, 22543, 24275, 26938, 28432, 58490], "recwords": ["mars", "convict", "police", "patrol", "church", "basement", "preacher", "salt", "onion", "oyster", "crab", "scallops"], "type": "FREE_RECALL", "conditions": [24, 800, "v", 24000], "trial": 3, "trial_type": "free-recall", "trial_index": 155, "time_elapsed": 714014, "internal_node_id": "0.0-119.0-0.0"}}, {"uniqueid": "MTK0220:3JMSRU9HQJ1J0V1MK2M82DCZM70VEK", "current_trial": 156, "dateTime": 1509554373019, "trialdata": {"rt": 1975, "key_press": 32, "type": "INSTRUCTIONS", "trial_type": "text", "trial_index": 156, "time_elapsed": 718001, "internal_node_id": "0.0-120.0"}}, {"uniqueid": "MTK0220:3JMSRU9HQJ1J0V1MK2M82DCZM70VEK", "current_trial": 157, "dateTime": 1509554387032, "trialdata": {"rt": [1759, 4342, 9028], "responses": ["7", "19", "13"], "num1": [3, 9, 7, 7], "num2": [1, 1, 3, 6], "num3": [3, 9, 3, 1], "type": "DISTRACTOR", "conditions": [24, 800, "v", 12000], "trial": 4, "trial_type": "math-distractor", "trial_index": 157, "time_elapsed": 732014, "internal_node_id": "0.0-121.0"}}, {"uniqueid": "MTK0220:3JMSRU9HQJ1J0V1MK2M82DCZM70VEK", "current_trial": 158, "dateTime": 1509554390036, "trialdata": {"rt": -1, "stimulus": "<p id=\"stim\">10</p>", "key_press": -1, "trial_type": "single-stim", "trial_index": 158, "time_elapsed": 735018, "internal_node_id": "0.0-122.0-0.0"}}, {"uniqueid": "MTK0220:3JMSRU9HQJ1J0V1MK2M82DCZM70VEK", "current_trial": 159, "dateTime": 1509554391040, "trialdata": {"rt": -1, "stimulus": "<p id=\"stim\">9</p>", "key_press": -1, "trial_type": "single-stim", "trial_index": 159, "time_elapsed": 736022, "internal_node_id": "0.0-122.0-1.0"}}, {"uniqueid": "MTK0220:3JMSRU9HQJ1J0V1MK2M82DCZM70VEK", "current_trial": 160, "dateTime": 1509554392044, "trialdata": {"rt": -1, "stimulus": "<p id=\"stim\">8</p>", "key_press": -1, "trial_type": "single-stim", "trial_index": 160, "time_elapsed": 737026, "internal_node_id": "0.0-122.0-2.0"}}, {"uniqueid": "MTK0220:3JMSRU9HQJ1J0V1MK2M82DCZM70VEK", "current_trial": 161, "dateTime": 1509554393048, "trialdata": {"rt": -1, "stimulus": "<p id=\"stim\">7</p>", "key_press": -1, "trial_type": "single-stim", "trial_index": 161, "time_elapsed": 738030, "internal_node_id": "0.0-122.0-3.0"}}, {"uniqueid": "MTK0220:3JMSRU9HQJ1J0V1MK2M82DCZM70VEK", "current_trial": 162, "dateTime": 1509554394053, "trialdata": {"rt": -1, "stimulus": "<p id=\"stim\">6</p>", "key_press": -1, "trial_type": "single-stim", "trial_index": 162, "time_elapsed": 739035, "internal_node_id": "0.0-122.0-4.0"}}, {"uniqueid": "MTK0220:3JMSRU9HQJ1J0V1MK2M82DCZM70VEK", "current_trial": 163, "dateTime": 1509554395058, "trialdata": {"rt": -1, "stimulus": "<p id=\"stim\">5</p>", "key_press": -1, "trial_type": "single-stim", "trial_index": 163, "time_elapsed": 740040, "internal_node_id": "0.0-122.0-5.0"}}, {"uniqueid": "MTK0220:3JMSRU9HQJ1J0V1MK2M82DCZM70VEK", "current_trial": 164, "dateTime": 1509554396061, "trialdata": {"rt": -1, "stimulus": "<p id=\"stim\">4</p>", "key_press": -1, "trial_type": "single-stim", "trial_index": 164, "time_elapsed": 741043, "internal_node_id": "0.0-122.0-6.0"}}, {"uniqueid": "MTK0220:3JMSRU9HQJ1J0V1MK2M82DCZM70VEK", "current_trial": 165, "dateTime": 1509554397066, "trialdata": {"rt": -1, "stimulus": "<p id=\"stim\">3</p>", "key_press": -1, "trial_type": "single-stim", "trial_index": 165, "time_elapsed": 742048, "internal_node_id": "0.0-122.0-7.0"}}, {"uniqueid": "MTK0220:3JMSRU9HQJ1J0V1MK2M82DCZM70VEK", "current_trial": 166, "dateTime": 1509554398068, "trialdata": {"rt": -1, "stimulus": "<p id=\"stim\">2</p>", "key_press": -1, "trial_type": "single-stim", "trial_index": 166, "time_elapsed": 743050, "internal_node_id": "0.0-122.0-8.0"}}, {"uniqueid": "MTK0220:3JMSRU9HQJ1J0V1MK2M82DCZM70VEK", "current_trial": 167, "dateTime": 1509554399072, "trialdata": {"rt": -1, "stimulus": "<p id=\"stim\">1</p>", "key_press": -1, "trial_type": "single-stim", "trial_index": 167, "time_elapsed": 744054, "internal_node_id": "0.0-122.0-9.0"}}, {"uniqueid": "MTK0220:3JMSRU9HQJ1J0V1MK2M82DCZM70VEK", "current_trial": 168, "dateTime": 1509554400577, "trialdata": {"rt": -1, "stimulus": "<p id=\"stim\">+</p>", "key_press": -1, "type": "FIXATION", "trial_type": "single-stim", "trial_index": 168, "time_elapsed": 745559, "internal_node_id": "0.0-123.0-0.0"}}, {"uniqueid": "MTK0220:3JMSRU9HQJ1J0V1MK2M82DCZM70VEK", "current_trial": 169, "dateTime": 1509554401380, "trialdata": {"rt": -1, "stimulus": "<p id=\"stim\">CRATER</p>", "key_press": -1, "type": "PRES_VIS", "word": "crater", "wordID": 399, "conditions": [24, 800, "v", 12000], "trial": 4, "serialpos": 0, "trial_type": "single-stim", "trial_index": 169, "time_elapsed": 746362, "internal_node_id": "0.0-124.0"}}, {"uniqueid": "MTK0220:3JMSRU9HQJ1J0V1MK2M82DCZM70VEK", "current_trial": 170, "dateTime": 1509554403004, "trialdata": {"rt": -1, "stimulus": "<p id=\"stim\">DRESS</p>", "key_press": -1, "type": "PRES_VIS", "word": "dress", "wordID": 494, "conditions": [24, 800, "v", 12000], "trial": 4, "serialpos": 1, "trial_type": "single-stim", "trial_index": 170, "time_elapsed": 747986, "internal_node_id": "0.0-125.0"}}, {"uniqueid": "MTK0220:3JMSRU9HQJ1J0V1MK2M82DCZM70VEK", "current_trial": 171, "dateTime": 1509554404786, "trialdata": {"rt": -1, "stimulus": "<p id=\"stim\">SEAFOOD</p>", "key_press": -1, "type": "PRES_VIS", "word": "seafood", "wordID": 1259, "conditions": [24, 800, "v", 12000], "trial": 4, "serialpos": 2, "trial_type": "single-stim", "trial_index": 171, "time_elapsed": 749768, "internal_node_id": "0.0-126.0"}}, {"uniqueid": "MTK0220:3JMSRU9HQJ1J0V1MK2M82DCZM70VEK", "current_trial": 172, "dateTime": 1509554406653, "trialdata": {"rt": -1, "stimulus": "<p id=\"stim\">PIGEON</p>", "key_press": -1, "type": "PRES_VIS", "word": "pigeon", "wordID": 1064, "conditions": [24, 800, "v", 12000], "trial": 4, "serialpos": 3, "trial_type": "single-stim", "trial_index": 172, "time_elapsed": 751635, "internal_node_id": "0.0-127.0"}}, {"uniqueid": "MTK0220:3JMSRU9HQJ1J0V1MK2M82DCZM70VEK", "current_trial": 173, "dateTime": 1509554408386, "trialdata": {"rt": -1, "stimulus": "<p id=\"stim\">CHIPMUNK</p>", "key_press": -1, "type": "PRES_VIS", "word": "chipmunk", "wordID": 303, "conditions": [24, 800, "v", 12000], "trial": 4, "serialpos": 4, "trial_type": "single-stim", "trial_index": 173, "time_elapsed": 753368, "internal_node_id": "0.0-128.0"}}, {"uniqueid": "MTK0220:3JMSRU9HQJ1J0V1MK2M82DCZM70VEK", "current_trial": 174, "dateTime": 1509554410183, "trialdata": {"rt": -1, "stimulus": "<p id=\"stim\">SALMON</p>", "key_press": -1, "type": "PRES_VIS", "word": "salmon", "wordID": 1226, "conditions": [24, 800, "v", 12000], "trial": 4, "serialpos": 5, "trial_type": "single-stim", "trial_index": 174, "time_elapsed": 755165, "internal_node_id": "0.0-129.0"}}, {"uniqueid": "MTK0220:3JMSRU9HQJ1J0V1MK2M82DCZM70VEK", "current_trial": 175, "dateTime": 1509554411925, "trialdata": {"rt": -1, "stimulus": "<p id=\"stim\">CUPBOARD</p>", "key_press": -1, "type": "PRES_VIS", "word": "cupboard", "wordID": 424, "conditions": [24, 800, "v", 12000], "trial": 4, "serialpos": 6, "trial_type": "single-stim", "trial_index": 175, "time_elapsed": 756907, "internal_node_id": "0.0-130.0"}}, {"uniqueid": "MTK0220:3JMSRU9HQJ1J0V1MK2M82DCZM70VEK", "current_trial": 176, "dateTime": 1509554413730, "trialdata": {"rt": -1, "stimulus": "<p id=\"stim\">DRESSER</p>", "key_press": -1, "type": "PRES_VIS", "word": "dresser", "wordID": 495, "conditions": [24, 800, "v", 12000], "trial": 4, "serialpos": 7, "trial_type": "single-stim", "trial_index": 176, "time_elapsed": 758712, "internal_node_id": "0.0-131.0"}}, {"uniqueid": "MTK0220:3JMSRU9HQJ1J0V1MK2M82DCZM70VEK", "current_trial": 177, "dateTime": 1509554415389, "trialdata": {"rt": -1, "stimulus": "<p id=\"stim\">PASTA</p>", "key_press": -1, "type": "PRES_VIS", "word": "pasta", "wordID": 1020, "conditions": [24, 800, "v", 12000], "trial": 4, "serialpos": 8, "trial_type": "single-stim", "trial_index": 177, "time_elapsed": 760371, "internal_node_id": "0.0-132.0"}}, {"uniqueid": "MTK0220:3JMSRU9HQJ1J0V1MK2M82DCZM70VEK", "current_trial": 178, "dateTime": 1509554417220, "trialdata": {"rt": -1, "stimulus": "<p id=\"stim\">ZEBRA</p>", "key_press": -1, "type": "PRES_VIS", "word": "zebra", "wordID": 1634, "conditions": [24, 800, "v", 12000], "trial": 4, "serialpos": 9, "trial_type": "single-stim", "trial_index": 178, "time_elapsed": 762202, "internal_node_id": "0.0-133.0"}}, {"uniqueid": "MTK0220:3JMSRU9HQJ1J0V1MK2M82DCZM70VEK", "current_trial": 179, "dateTime": 1509554419009, "trialdata": {"rt": -1, "stimulus": "<p id=\"stim\">SUPPER</p>", "key_press": -1, "type": "PRES_VIS", "word": "supper", "wordID": 1410, "conditions": [24, 800, "v", 12000], "trial": 4, "serialpos": 10, "trial_type": "single-stim", "trial_index": 179, "time_elapsed": 763991, "internal_node_id": "0.0-134.0"}}, {"uniqueid": "MTK0220:3JMSRU9HQJ1J0V1MK2M82DCZM70VEK", "current_trial": 180, "dateTime": 1509554420645, "trialdata": {"rt": -1, "stimulus": "<p id=\"stim\">PATIENT</p>", "key_press": -1, "type": "PRES_VIS", "word": "patient", "wordID": 1023, "conditions": [24, 800, "v", 12000], "trial": 4, "serialpos": 11, "trial_type": "single-stim", "trial_index": 180, "time_elapsed": 765627, "internal_node_id": "0.0-135.0"}}, {"uniqueid": "MTK0220:3JMSRU9HQJ1J0V1MK2M82DCZM70VEK", "current_trial": 181, "dateTime": 1509554422545, "trialdata": {"rt": -1, "stimulus": "<p id=\"stim\">TURTLE</p>", "key_press": -1, "type": "PRES_VIS", "word": "turtle", "wordID": 1521, "conditions": [24, 800, "v", 12000], "trial": 4, "serialpos": 12, "trial_type": "single-stim", "trial_index": 181, "time_elapsed": 767527, "internal_node_id": "0.0-136.0"}}, {"uniqueid": "MTK0220:3JMSRU9HQJ1J0V1MK2M82DCZM70VEK", "current_trial": 182, "dateTime": 1509554424207, "trialdata": {"rt": -1, "stimulus": "<p id=\"stim\">ITEM</p>", "key_press": -1, "type": "PRES_VIS", "word": "item", "wordID": 745, "conditions": [24, 800, "v", 12000], "trial": 4, "serialpos": 13, "trial_type": "single-stim", "trial_index": 182, "time_elapsed": 769189, "internal_node_id": "0.0-137.0"}}, {"uniqueid": "MTK0220:3JMSRU9HQJ1J0V1MK2M82DCZM70VEK", "current_trial": 183, "dateTime": 1509554426153, "trialdata": {"rt": -1, "stimulus": "<p id=\"stim\">KIDNEY</p>", "key_press": -1, "type": "PRES_VIS", "word": "kidney", "wordID": 775, "conditions": [24, 800, "v", 12000], "trial": 4, "serialpos": 14, "trial_type": "single-stim", "trial_index": 183, "time_elapsed": 771135, "internal_node_id": "0.0-138.0"}}, {"uniqueid": "MTK0220:3JMSRU9HQJ1J0V1MK2M82DCZM70VEK", "current_trial": 184, "dateTime": 1509554428131, "trialdata": {"rt": -1, "stimulus": "<p id=\"stim\">PORK</p>", "key_press": -1, "type": "PRES_VIS", "word": "pork", "wordID": 1107, "conditions": [24, 800, "v", 12000], "trial": 4, "serialpos": 15, "trial_type": "single-stim", "trial_index": 184, "time_elapsed": 773113, "internal_node_id": "0.0-139.0"}}, {"uniqueid": "MTK0220:3JMSRU9HQJ1J0V1MK2M82DCZM70VEK", "current_trial": 185, "dateTime": 1509554430060, "trialdata": {"rt": -1, "stimulus": "<p id=\"stim\">DONKEY</p>", "key_press": -1, "type": "PRES_VIS", "word": "donkey", "wordID": 483, "conditions": [24, 800, "v", 12000], "trial": 4, "serialpos": 16, "trial_type": "single-stim", "trial_index": 185, "time_elapsed": 775042, "internal_node_id": "0.0-140.0"}}, {"uniqueid": "MTK0220:3JMSRU9HQJ1J0V1MK2M82DCZM70VEK", "current_trial": 186, "dateTime": 1509554431700, "trialdata": {"rt": -1, "stimulus": "<p id=\"stim\">CAMEL</p>", "key_press": -1, "type": "PRES_VIS", "word": "camel", "wordID": 222, "conditions": [24, 800, "v", 12000], "trial": 4, "serialpos": 17, "trial_type": "single-stim", "trial_index": 186, "time_elapsed": 776682, "internal_node_id": "0.0-141.0"}}, {"uniqueid": "MTK0220:3JMSRU9HQJ1J0V1MK2M82DCZM70VEK", "current_trial": 187, "dateTime": 1509554433550, "trialdata": {"rt": -1, "stimulus": "<p id=\"stim\">BANQUET</p>", "key_press": -1, "type": "PRES_VIS", "word": "banquet", "wordID": 85, "conditions": [24, 800, "v", 12000], "trial": 4, "serialpos": 18, "trial_type": "single-stim", "trial_index": 187, "time_elapsed": 778532, "internal_node_id": "0.0-142.0"}}, {"uniqueid": "MTK0220:3JMSRU9HQJ1J0V1MK2M82DCZM70VEK", "current_trial": 188, "dateTime": 1509554435549, "trialdata": {"rt": -1, "stimulus": "<p id=\"stim\">FLEET</p>", "key_press": -1, "type": "PRES_VIS", "word": "fleet", "wordID": 577, "conditions": [24, 800, "v", 12000], "trial": 4, "serialpos": 19, "trial_type": "single-stim", "trial_index": 188, "time_elapsed": 780531, "internal_node_id": "0.0-143.0"}}, {"uniqueid": "MTK0220:3JMSRU9HQJ1J0V1MK2M82DCZM70VEK", "current_trial": 189, "dateTime": 1509554437308, "trialdata": {"rt": -1, "stimulus": "<p id=\"stim\">SUSPECT</p>", "key_press": -1, "type": "PRES_VIS", "word": "suspect", "wordID": 1414, "conditions": [24, 800, "v", 12000], "trial": 4, "serialpos": 20, "trial_type": "single-stim", "trial_index": 189, "time_elapsed": 782290, "internal_node_id": "0.0-144.0"}}, {"uniqueid": "MTK0220:3JMSRU9HQJ1J0V1MK2M82DCZM70VEK", "current_trial": 190, "dateTime": 1509554439069, "trialdata": {"rt": -1, "stimulus": "<p id=\"stim\">WITNESS</p>", "key_press": -1, "type": "PRES_VIS", "word": "witness", "wordID": 1617, "conditions": [24, 800, "v", 12000], "trial": 4, "serialpos": 21, "trial_type": "single-stim", "trial_index": 190, "time_elapsed": 784051, "internal_node_id": "0.0-145.0"}}, {"uniqueid": "MTK0220:3JMSRU9HQJ1J0V1MK2M82DCZM70VEK", "current_trial": 191, "dateTime": 1509554440996, "trialdata": {"rt": -1, "stimulus": "<p id=\"stim\">FLIPPER</p>", "key_press": -1, "type": "PRES_VIS", "word": "flipper", "wordID": 579, "conditions": [24, 800, "v", 12000], "trial": 4, "serialpos": 22, "trial_type": "single-stim", "trial_index": 191, "time_elapsed": 785978, "internal_node_id": "0.0-146.0"}}, {"uniqueid": "MTK0220:3JMSRU9HQJ1J0V1MK2M82DCZM70VEK", "current_trial": 192, "dateTime": 1509554442715, "trialdata": {"rt": -1, "stimulus": "<p id=\"stim\">MARROW</p>", "key_press": -1, "type": "PRES_VIS", "word": "marrow", "wordID": 871, "conditions": [24, 800, "v", 12000], "trial": 4, "serialpos": 23, "trial_type": "single-stim", "trial_index": 192, "time_elapsed": 787697, "internal_node_id": "0.0-147.0"}}, {"uniqueid": "MTK0220:3JMSRU9HQJ1J0V1MK2M82DCZM70VEK", "current_trial": 193, "dateTime": 1509554444933, "trialdata": {"rt": -1, "stimulus": "", "key_press": -1, "type": "PRE_RECALL_DELAY", "trial_type": "single-stim", "trial_index": 193, "time_elapsed": 789915, "internal_node_id": "0.0-148.0-0.0"}}, {"uniqueid": "MTK0220:3JMSRU9HQJ1J0V1MK2M82DCZM70VEK", "current_trial": 194, "dateTime": 1509554445440, "trialdata": {"rt": -1000, "stimulus": "/static/audio/400Hz.wav", "key_press": -1, "type": "PRE_RECALL_ALERT", "trial_type": "single-audio", "trial_index": 194, "time_elapsed": 790421, "internal_node_id": "0.0-149.0"}}, {"uniqueid": "MTK0220:3JMSRU9HQJ1J0V1MK2M82DCZM70VEK", "current_trial": 195, "dateTime": 1509554505449, "trialdata": {"rt": [2208, 4082, 5588, 8113, 11574, 17837], "recwords": ["marrow", "witness", "supper", "salmon", "item", "seafood"], "type": "FREE_RECALL", "conditions": [24, 800, "v", 12000], "trial": 4, "trial_type": "free-recall", "trial_index": 195, "time_elapsed": 850427, "internal_node_id": "0.0-150.0-0.0"}}, {"uniqueid": "MTK0220:3JMSRU9HQJ1J0V1MK2M82DCZM70VEK", "current_trial": 196, "dateTime": 1509554510166, "trialdata": {"rt": 2710, "key_press": 32, "type": "INSTRUCTIONS", "trial_type": "text", "trial_index": 196, "time_elapsed": 855148, "internal_node_id": "0.0-151.0"}}, {"uniqueid": "MTK0220:3JMSRU9HQJ1J0V1MK2M82DCZM70VEK", "current_trial": 197, "dateTime": 1509554524177, "trialdata": {"rt": [4162, 6722, 9671], "responses": ["14", "18", "10"], "num1": [4, 1, 3, 8], "num2": [2, 9, 4, 4], "num3": [8, 8, 3, 5], "type": "DISTRACTOR", "conditions": [12, 800, "v", 12000], "trial": 5, "trial_type": "math-distractor", "trial_index": 197, "time_elapsed": 869159, "internal_node_id": "0.0-152.0"}}, {"uniqueid": "MTK0220:3JMSRU9HQJ1J0V1MK2M82DCZM70VEK", "current_trial": 198, "dateTime": 1509554527181, "trialdata": {"rt": -1, "stimulus": "<p id=\"stim\">10</p>", "key_press": -1, "trial_type": "single-stim", "trial_index": 198, "time_elapsed": 872163, "internal_node_id": "0.0-153.0-0.0"}}, {"uniqueid": "MTK0220:3JMSRU9HQJ1J0V1MK2M82DCZM70VEK", "current_trial": 199, "dateTime": 1509554528186, "trialdata": {"rt": -1, "stimulus": "<p id=\"stim\">9</p>", "key_press": -1, "trial_type": "single-stim", "trial_index": 199, "time_elapsed": 873168, "internal_node_id": "0.0-153.0-1.0"}}, {"uniqueid": "MTK0220:3JMSRU9HQJ1J0V1MK2M82DCZM70VEK", "current_trial": 200, "dateTime": 1509554529191, "trialdata": {"rt": -1, "stimulus": "<p id=\"stim\">8</p>", "key_press": -1, "trial_type": "single-stim", "trial_index": 200, "time_elapsed": 874173, "internal_node_id": "0.0-153.0-2.0"}}, {"uniqueid": "MTK0220:3JMSRU9HQJ1J0V1MK2M82DCZM70VEK", "current_trial": 201, "dateTime": 1509554530195, "trialdata": {"rt": -1, "stimulus": "<p id=\"stim\">7</p>", "key_press": -1, "trial_type": "single-stim", "trial_index": 201, "time_elapsed": 875177, "internal_node_id": "0.0-153.0-3.0"}}, {"uniqueid": "MTK0220:3JMSRU9HQJ1J0V1MK2M82DCZM70VEK", "current_trial": 202, "dateTime": 1509554531200, "trialdata": {"rt": -1, "stimulus": "<p id=\"stim\">6</p>", "key_press": -1, "trial_type": "single-stim", "trial_index": 202, "time_elapsed": 876182, "internal_node_id": "0.0-153.0-4.0"}}, {"uniqueid": "MTK0220:3JMSRU9HQJ1J0V1MK2M82DCZM70VEK", "current_trial": 203, "dateTime": 1509554532203, "trialdata": {"rt": -1, "stimulus": "<p id=\"stim\">5</p>", "key_press": -1, "trial_type": "single-stim", "trial_index": 203, "time_elapsed": 877185, "internal_node_id": "0.0-153.0-5.0"}}, {"uniqueid": "MTK0220:3JMSRU9HQJ1J0V1MK2M82DCZM70VEK", "current_trial": 204, "dateTime": 1509554533207, "trialdata": {"rt": -1, "stimulus": "<p id=\"stim\">4</p>", "key_press": -1, "trial_type": "single-stim", "trial_index": 204, "time_elapsed": 878189, "internal_node_id": "0.0-153.0-6.0"}}, {"uniqueid": "MTK0220:3JMSRU9HQJ1J0V1MK2M82DCZM70VEK", "current_trial": 205, "dateTime": 1509554534212, "trialdata": {"rt": -1, "stimulus": "<p id=\"stim\">3</p>", "key_press": -1, "trial_type": "single-stim", "trial_index": 205, "time_elapsed": 879194, "internal_node_id": "0.0-153.0-7.0"}}, {"uniqueid": "MTK0220:3JMSRU9HQJ1J0V1MK2M82DCZM70VEK", "current_trial": 206, "dateTime": 1509554535215, "trialdata": {"rt": -1, "stimulus": "<p id=\"stim\">2</p>", "key_press": -1, "trial_type": "single-stim", "trial_index": 206, "time_elapsed": 880197, "internal_node_id": "0.0-153.0-8.0"}}, {"uniqueid": "MTK0220:3JMSRU9HQJ1J0V1MK2M82DCZM70VEK", "current_trial": 207, "dateTime": 1509554536219, "trialdata": {"rt": -1, "stimulus": "<p id=\"stim\">1</p>", "key_press": -1, "trial_type": "single-stim", "trial_index": 207, "time_elapsed": 881201, "internal_node_id": "0.0-153.0-9.0"}}, {"uniqueid": "MTK0220:3JMSRU9HQJ1J0V1MK2M82DCZM70VEK", "current_trial": 208, "dateTime": 1509554537724, "trialdata": {"rt": -1, "stimulus": "<p id=\"stim\">+</p>", "key_press": -1, "type": "FIXATION", "trial_type": "single-stim", "trial_index": 208, "time_elapsed": 882706, "internal_node_id": "0.0-154.0-0.0"}}, {"uniqueid": "MTK0220:3JMSRU9HQJ1J0V1MK2M82DCZM70VEK", "current_trial": 209, "dateTime": 1509554538528, "trialdata": {"rt": -1, "stimulus": "<p id=\"stim\">TRUCK</p>", "key_press": -1, "type": "PRES_VIS", "word": "truck", "wordID": 1511, "conditions": [12, 800, "v", 12000], "trial": 5, "serialpos": 0, "trial_type": "single-stim", "trial_index": 209, "time_elapsed": 883510, "internal_node_id": "0.0-155.0"}}, {"uniqueid": "MTK0220:3JMSRU9HQJ1J0V1MK2M82DCZM70VEK", "current_trial": 210, "dateTime": 1509554540397, "trialdata": {"rt": -1, "stimulus": "<p id=\"stim\">TUTU</p>", "key_press": -1, "type": "PRES_VIS", "word": "tutu", "wordID": 1523, "conditions": [12, 800, "v", 12000], "trial": 5, "serialpos": 1, "trial_type": "single-stim", "trial_index": 210, "time_elapsed": 885379, "internal_node_id": "0.0-156.0"}}, {"uniqueid": "MTK0220:3JMSRU9HQJ1J0V1MK2M82DCZM70VEK", "current_trial": 211, "dateTime": 1509554542094, "trialdata": {"rt": -1, "stimulus": "<p id=\"stim\">BARREL</p>", "key_press": -1, "type": "PRES_VIS", "word": "barrel", "wordID": 90, "conditions": [12, 800, "v", 12000], "trial": 5, "serialpos": 2, "trial_type": "single-stim", "trial_index": 211, "time_elapsed": 887076, "internal_node_id": "0.0-157.0"}}, {"uniqueid": "MTK0220:3JMSRU9HQJ1J0V1MK2M82DCZM70VEK", "current_trial": 212, "dateTime": 1509554543854, "trialdata": {"rt": -1, "stimulus": "<p id=\"stim\">SHORTS</p>", "key_press": -1, "type": "PRES_VIS", "word": "shorts", "wordID": 1292, "conditions": [12, 800, "v", 12000], "trial": 5, "serialpos": 3, "trial_type": "single-stim", "trial_index": 212, "time_elapsed": 888836, "internal_node_id": "0.0-158.0"}}, {"uniqueid": "MTK0220:3JMSRU9HQJ1J0V1MK2M82DCZM70VEK", "current_trial": 213, "dateTime": 1509554545537, "trialdata": {"rt": -1, "stimulus": "<p id=\"stim\">PIANO</p>", "key_press": -1, "type": "PRES_VIS", "word": "piano", "wordID": 1056, "conditions": [12, 800, "v", 12000], "trial": 5, "serialpos": 4, "trial_type": "single-stim", "trial_index": 213, "time_elapsed": 890519, "internal_node_id": "0.0-159.0"}}, {"uniqueid": "MTK0220:3JMSRU9HQJ1J0V1MK2M82DCZM70VEK", "current_trial": 214, "dateTime": 1509554547371, "trialdata": {"rt": -1, "stimulus": "<p id=\"stim\">HANDBAG</p>", "key_press": -1, "type": "PRES_VIS", "word": "handbag", "wordID": 683, "conditions": [12, 800, "v", 12000], "trial": 5, "serialpos": 5, "trial_type": "single-stim", "trial_index": 214, "time_elapsed": 892353, "internal_node_id": "0.0-160.0"}}, {"uniqueid": "MTK0220:3JMSRU9HQJ1J0V1MK2M82DCZM70VEK", "current_trial": 215, "dateTime": 1509554549022, "trialdata": {"rt": -1, "stimulus": "<p id=\"stim\">AIRPORT</p>", "key_press": -1, "type": "PRES_VIS", "word": "airport", "wordID": 12, "conditions": [12, 800, "v", 12000], "trial": 5, "serialpos": 6, "trial_type": "single-stim", "trial_index": 215, "time_elapsed": 894004, "internal_node_id": "0.0-161.0"}}, {"uniqueid": "MTK0220:3JMSRU9HQJ1J0V1MK2M82DCZM70VEK", "current_trial": 216, "dateTime": 1509554550945, "trialdata": {"rt": -1, "stimulus": "<p id=\"stim\">GAVEL</p>", "key_press": -1, "type": "PRES_VIS", "word": "gavel", "wordID": 626, "conditions": [12, 800, "v", 12000], "trial": 5, "serialpos": 7, "trial_type": "single-stim", "trial_index": 216, "time_elapsed": 895927, "internal_node_id": "0.0-162.0"}}, {"uniqueid": "MTK0220:3JMSRU9HQJ1J0V1MK2M82DCZM70VEK", "current_trial": 217, "dateTime": 1509554552894, "trialdata": {"rt": -1, "stimulus": "<p id=\"stim\">COMPASS</p>", "key_press": -1, "type": "PRES_VIS", "word": "compass", "wordID": 357, "conditions": [12, 800, "v", 12000], "trial": 5, "serialpos": 8, "trial_type": "single-stim", "trial_index": 217, "time_elapsed": 897876, "internal_node_id": "0.0-163.0"}}, {"uniqueid": "MTK0220:3JMSRU9HQJ1J0V1MK2M82DCZM70VEK", "current_trial": 218, "dateTime": 1509554554556, "trialdata": {"rt": -1, "stimulus": "<p id=\"stim\">PEANUT</p>", "key_press": -1, "type": "PRES_VIS", "word": "peanut", "wordID": 1031, "conditions": [12, 800, "v", 12000], "trial": 5, "serialpos": 9, "trial_type": "single-stim", "trial_index": 218, "time_elapsed": 899538, "internal_node_id": "0.0-164.0"}}, {"uniqueid": "MTK0220:3JMSRU9HQJ1J0V1MK2M82DCZM70VEK", "current_trial": 219, "dateTime": 1509554556402, "trialdata": {"rt": -1, "stimulus": "<p id=\"stim\">PECAN</p>", "key_press": -1, "type": "PRES_VIS", "word": "pecan", "wordID": 1035, "conditions": [12, 800, "v", 12000], "trial": 5, "serialpos": 10, "trial_type": "single-stim", "trial_index": 219, "time_elapsed": 901384, "internal_node_id": "0.0-165.0"}}, {"uniqueid": "MTK0220:3JMSRU9HQJ1J0V1MK2M82DCZM70VEK", "current_trial": 220, "dateTime": 1509554558374, "trialdata": {"rt": -1, "stimulus": "<p id=\"stim\">GALLON</p>", "key_press": -1, "type": "PRES_VIS", "word": "gallon", "wordID": 617, "conditions": [12, 800, "v", 12000], "trial": 5, "serialpos": 11, "trial_type": "single-stim", "trial_index": 220, "time_elapsed": 903356, "internal_node_id": "0.0-166.0"}}, {"uniqueid": "MTK0220:3JMSRU9HQJ1J0V1MK2M82DCZM70VEK", "current_trial": 221, "dateTime": 1509554560636, "trialdata": {"rt": -1, "stimulus": "", "key_press": -1, "type": "PRE_RECALL_DELAY", "trial_type": "single-stim", "trial_index": 221, "time_elapsed": 905618, "internal_node_id": "0.0-167.0-0.0"}}, {"uniqueid": "MTK0220:3JMSRU9HQJ1J0V1MK2M82DCZM70VEK", "current_trial": 222, "dateTime": 1509554561140, "trialdata": {"rt": -1000, "stimulus": "/static/audio/400Hz.wav", "key_press": -1, "type": "PRE_RECALL_ALERT", "trial_type": "single-audio", "trial_index": 222, "time_elapsed": 906121, "internal_node_id": "0.0-168.0"}}, {"uniqueid": "MTK0220:3JMSRU9HQJ1J0V1MK2M82DCZM70VEK", "current_trial": 223, "dateTime": 1509554621149, "trialdata": {"rt": [2622, 4553, 12431, 14489, 16826, 19299, 22330], "recwords": ["gallon", "peanut", "pecan", "gavel", "tutu", "handbag", "airplane"], "type": "FREE_RECALL", "conditions": [12, 800, "v", 12000], "trial": 5, "trial_type": "free-recall", "trial_index": 223, "time_elapsed": 966123, "internal_node_id": "0.0-169.0-0.0"}}, {"uniqueid": "MTK0220:3JMSRU9HQJ1J0V1MK2M82DCZM70VEK", "current_trial": 224, "dateTime": 1509554625360, "trialdata": {"rt": 2207, "key_press": 32, "type": "INSTRUCTIONS", "trial_type": "text", "trial_index": 224, "time_elapsed": 970342, "internal_node_id": "0.0-170.0"}}, {"uniqueid": "MTK0220:3JMSRU9HQJ1J0V1MK2M82DCZM70VEK", "current_trial": 225, "dateTime": 1509554639370, "trialdata": {"rt": [3308, 6567, 8963, 11105], "responses": ["21", "14", "16", "23"], "num1": [8, 1, 4, 6, 7], "num2": [8, 6, 3, 9, 6], "num3": [5, 7, 9, 8, 6], "type": "DISTRACTOR", "conditions": [24, 800, "a", 12000], "trial": 6, "trial_type": "math-distractor", "trial_index": 225, "time_elapsed": 984352, "internal_node_id": "0.0-171.0"}}, {"uniqueid": "MTK0220:3JMSRU9HQJ1J0V1MK2M82DCZM70VEK", "current_trial": 226, "dateTime": 1509554642380, "trialdata": {"rt": -1, "stimulus": "<p id=\"stim\">10</p>", "key_press": -1, "trial_type": "single-stim", "trial_index": 226, "time_elapsed": 987362, "internal_node_id": "0.0-172.0-0.0"}}, {"uniqueid": "MTK0220:3JMSRU9HQJ1J0V1MK2M82DCZM70VEK", "current_trial": 227, "dateTime": 1509554643385, "trialdata": {"rt": -1, "stimulus": "<p id=\"stim\">9</p>", "key_press": -1, "trial_type": "single-stim", "trial_index": 227, "time_elapsed": 988367, "internal_node_id": "0.0-172.0-1.0"}}, {"uniqueid": "MTK0220:3JMSRU9HQJ1J0V1MK2M82DCZM70VEK", "current_trial": 228, "dateTime": 1509554644388, "trialdata": {"rt": -1, "stimulus": "<p id=\"stim\">8</p>", "key_press": -1, "trial_type": "single-stim", "trial_index": 228, "time_elapsed": 989370, "internal_node_id": "0.0-172.0-2.0"}}, {"uniqueid": "MTK0220:3JMSRU9HQJ1J0V1MK2M82DCZM70VEK", "current_trial": 229, "dateTime": 1509554645391, "trialdata": {"rt": -1, "stimulus": "<p id=\"stim\">7</p>", "key_press": -1, "trial_type": "single-stim", "trial_index": 229, "time_elapsed": 990373, "internal_node_id": "0.0-172.0-3.0"}}, {"uniqueid": "MTK0220:3JMSRU9HQJ1J0V1MK2M82DCZM70VEK", "current_trial": 230, "dateTime": 1509554646393, "trialdata": {"rt": -1, "stimulus": "<p id=\"stim\">6</p>", "key_press": -1, "trial_type": "single-stim", "trial_index": 230, "time_elapsed": 991375, "internal_node_id": "0.0-172.0-4.0"}}, {"uniqueid": "MTK0220:3JMSRU9HQJ1J0V1MK2M82DCZM70VEK", "current_trial": 231, "dateTime": 1509554647394, "trialdata": {"rt": -1, "stimulus": "<p id=\"stim\">5</p>", "key_press": -1, "trial_type": "single-stim", "trial_index": 231, "time_elapsed": 992376, "internal_node_id": "0.0-172.0-5.0"}}, {"uniqueid": "MTK0220:3JMSRU9HQJ1J0V1MK2M82DCZM70VEK", "current_trial": 232, "dateTime": 1509554648399, "trialdata": {"rt": -1, "stimulus": "<p id=\"stim\">4</p>", "key_press": -1, "trial_type": "single-stim", "trial_index": 232, "time_elapsed": 993381, "internal_node_id": "0.0-172.0-6.0"}}, {"uniqueid": "MTK0220:3JMSRU9HQJ1J0V1MK2M82DCZM70VEK", "current_trial": 233, "dateTime": 1509554649401, "trialdata": {"rt": -1, "stimulus": "<p id=\"stim\">3</p>", "key_press": -1, "trial_type": "single-stim", "trial_index": 233, "time_elapsed": 994383, "internal_node_id": "0.0-172.0-7.0"}}, {"uniqueid": "MTK0220:3JMSRU9HQJ1J0V1MK2M82DCZM70VEK", "current_trial": 234, "dateTime": 1509554650406, "trialdata": {"rt": -1, "stimulus": "<p id=\"stim\">2</p>", "key_press": -1, "trial_type": "single-stim", "trial_index": 234, "time_elapsed": 995388, "internal_node_id": "0.0-172.0-8.0"}}, {"uniqueid": "MTK0220:3JMSRU9HQJ1J0V1MK2M82DCZM70VEK", "current_trial": 235, "dateTime": 1509554651408, "trialdata": {"rt": -1, "stimulus": "<p id=\"stim\">1</p>", "key_press": -1, "trial_type": "single-stim", "trial_index": 235, "time_elapsed": 996390, "internal_node_id": "0.0-172.0-9.0"}}, {"uniqueid": "MTK0220:3JMSRU9HQJ1J0V1MK2M82DCZM70VEK", "current_trial": 236, "dateTime": 1509554652912, "trialdata": {"rt": -1, "stimulus": "<p id=\"stim\">+</p>", "key_press": -1, "type": "FIXATION", "trial_type": "single-stim", "trial_index": 236, "time_elapsed": 997894, "internal_node_id": "0.0-173.0-0.0"}}, {"uniqueid": "MTK0220:3JMSRU9HQJ1J0V1MK2M82DCZM70VEK", "current_trial": 237, "dateTime": 1509554654774, "trialdata": {"rt": -1000, "stimulus": "/static/audio/wordpool/APPLE.wav", "key_press": -1, "type": "PRES_AUD", "word": "apple", "wordID": 32, "conditions": [24, 800, "a", 12000], "trial": 6, "serialpos": 0, "trial_type": "single-audio", "trial_index": 237, "time_elapsed": 999756, "internal_node_id": "0.0-174.0"}}, {"uniqueid": "MTK0220:3JMSRU9HQJ1J0V1MK2M82DCZM70VEK", "current_trial": 238, "dateTime": 1509554656648, "trialdata": {"rt": -1000, "stimulus": "/static/audio/wordpool/SLIME.wav", "key_press": -1, "type": "PRES_AUD", "word": "slime", "wordID": 1326, "conditions": [24, 800, "a", 12000], "trial": 6, "serialpos": 1, "trial_type": "single-audio", "trial_index": 238, "time_elapsed": 1001630, "internal_node_id": "0.0-175.0"}}, {"uniqueid": "MTK0220:3JMSRU9HQJ1J0V1MK2M82DCZM70VEK", "current_trial": 239, "dateTime": 1509554658494, "trialdata": {"rt": -1000, "stimulus": "/static/audio/wordpool/SEAGULL.wav", "key_press": -1, "type": "PRES_AUD", "word": "seagull", "wordID": 1260, "conditions": [24, 800, "a", 12000], "trial": 6, "serialpos": 2, "trial_type": "single-audio", "trial_index": 239, "time_elapsed": 1003476, "internal_node_id": "0.0-176.0"}}, {"uniqueid": "MTK0220:3JMSRU9HQJ1J0V1MK2M82DCZM70VEK", "current_trial": 240, "dateTime": 1509554660424, "trialdata": {"rt": -1000, "stimulus": "/static/audio/wordpool/GIFT.wav", "key_press": -1, "type": "PRES_AUD", "word": "gift", "wordID": 634, "conditions": [24, 800, "a", 12000], "trial": 6, "serialpos": 3, "trial_type": "single-audio", "trial_index": 240, "time_elapsed": 1005406, "internal_node_id": "0.0-177.0"}}, {"uniqueid": "MTK0220:3JMSRU9HQJ1J0V1MK2M82DCZM70VEK", "current_trial": 241, "dateTime": 1509554662285, "trialdata": {"rt": -1000, "stimulus": "/static/audio/wordpool/COUNTRY.wav", "key_press": -1, "type": "PRES_AUD", "word": "country", "wordID": 387, "conditions": [24, 800, "a", 12000], "trial": 6, "serialpos": 4, "trial_type": "single-audio", "trial_index": 241, "time_elapsed": 1007267, "internal_node_id": "0.0-178.0"}}, {"uniqueid": "MTK0220:3JMSRU9HQJ1J0V1MK2M82DCZM70VEK", "current_trial": 242, "dateTime": 1509554664257, "trialdata": {"rt": -1000, "stimulus": "/static/audio/wordpool/BACON.wav", "key_press": -1, "type": "PRES_AUD", "word": "bacon", "wordID": 66, "conditions": [24, 800, "a", 12000], "trial": 6, "serialpos": 5, "trial_type": "single-audio", "trial_index": 242, "time_elapsed": 1009239, "internal_node_id": "0.0-179.0"}}, {"uniqueid": "MTK0220:3JMSRU9HQJ1J0V1MK2M82DCZM70VEK", "current_trial": 243, "dateTime": 1509554665863, "trialdata": {"rt": -1000, "stimulus": "/static/audio/wordpool/BLADE.wav", "key_press": -1, "type": "PRES_AUD", "word": "blade", "wordID": 133, "conditions": [24, 800, "a", 12000], "trial": 6, "serialpos": 6, "trial_type": "single-audio", "trial_index": 243, "time_elapsed": 1010845, "internal_node_id": "0.0-180.0"}}, {"uniqueid": "MTK0220:3JMSRU9HQJ1J0V1MK2M82DCZM70VEK", "current_trial": 244, "dateTime": 1509554667647, "trialdata": {"rt": -1000, "stimulus": "/static/audio/wordpool/WORLD.wav", "key_press": -1, "type": "PRES_AUD", "word": "world", "wordID": 1621, "conditions": [24, 800, "a", 12000], "trial": 6, "serialpos": 7, "trial_type": "single-audio", "trial_index": 244, "time_elapsed": 1012629, "internal_node_id": "0.0-181.0"}}, {"uniqueid": "MTK0220:3JMSRU9HQJ1J0V1MK2M82DCZM70VEK", "current_trial": 245, "dateTime": 1509554669568, "trialdata": {"rt": -1000, "stimulus": "/static/audio/wordpool/GIRL.wav", "key_press": -1, "type": "PRES_AUD", "word": "girl", "wordID": 636, "conditions": [24, 800, "a", 12000], "trial": 6, "serialpos": 8, "trial_type": "single-audio", "trial_index": 245, "time_elapsed": 1014550, "internal_node_id": "0.0-182.0"}}, {"uniqueid": "MTK0220:3JMSRU9HQJ1J0V1MK2M82DCZM70VEK", "current_trial": 246, "dateTime": 1509554671298, "trialdata": {"rt": -1000, "stimulus": "/static/audio/wordpool/CHILD.wav", "key_press": -1, "type": "PRES_AUD", "word": "child", "wordID": 298, "conditions": [24, 800, "a", 12000], "trial": 6, "serialpos": 9, "trial_type": "single-audio", "trial_index": 246, "time_elapsed": 1016280, "internal_node_id": "0.0-183.0"}}, {"uniqueid": "MTK0220:3JMSRU9HQJ1J0V1MK2M82DCZM70VEK", "current_trial": 247, "dateTime": 1509554673012, "trialdata": {"rt": -1000, "stimulus": "/static/audio/wordpool/FREEZER.wav", "key_press": -1, "type": "PRES_AUD", "word": "freezer", "wordID": 603, "conditions": [24, 800, "a", 12000], "trial": 6, "serialpos": 10, "trial_type": "single-audio", "trial_index": 247, "time_elapsed": 1017994, "internal_node_id": "0.0-184.0"}}, {"uniqueid": "MTK0220:3JMSRU9HQJ1J0V1MK2M82DCZM70VEK", "current_trial": 248, "dateTime": 1509554674675, "trialdata": {"rt": -1000, "stimulus": "/static/audio/wordpool/HOUND.wav", "key_press": -1, "type": "PRES_AUD", "word": "hound", "wordID": 723, "conditions": [24, 800, "a", 12000], "trial": 6, "serialpos": 11, "trial_type": "single-audio", "trial_index": 248, "time_elapsed": 1019657, "internal_node_id": "0.0-185.0"}}, {"uniqueid": "MTK0220:3JMSRU9HQJ1J0V1MK2M82DCZM70VEK", "current_trial": 249, "dateTime": 1509554676545, "trialdata": {"rt": -1000, "stimulus": "/static/audio/wordpool/LODGE.wav", "key_press": -1, "type": "PRES_AUD", "word": "lodge", "wordID": 838, "conditions": [24, 800, "a", 12000], "trial": 6, "serialpos": 12, "trial_type": "single-audio", "trial_index": 249, "time_elapsed": 1021527, "internal_node_id": "0.0-186.0"}}, {"uniqueid": "MTK0220:3JMSRU9HQJ1J0V1MK2M82DCZM70VEK", "current_trial": 250, "dateTime": 1509554678285, "trialdata": {"rt": -1000, "stimulus": "/static/audio/wordpool/GLOVE.wav", "key_press": -1, "type": "PRES_AUD", "word": "glove", "wordID": 641, "conditions": [24, 800, "a", 12000], "trial": 6, "serialpos": 13, "trial_type": "single-audio", "trial_index": 250, "time_elapsed": 1023267, "internal_node_id": "0.0-187.0"}}, {"uniqueid": "MTK0220:3JMSRU9HQJ1J0V1MK2M82DCZM70VEK", "current_trial": 251, "dateTime": 1509554680076, "trialdata": {"rt": -1000, "stimulus": "/static/audio/wordpool/WASHER.wav", "key_press": -1, "type": "PRES_AUD", "word": "washer", "wordID": 1591, "conditions": [24, 800, "a", 12000], "trial": 6, "serialpos": 14, "trial_type": "single-audio", "trial_index": 251, "time_elapsed": 1025058, "internal_node_id": "0.0-188.0"}}, {"uniqueid": "MTK0220:3JMSRU9HQJ1J0V1MK2M82DCZM70VEK", "current_trial": 252, "dateTime": 1509554681923, "trialdata": {"rt": -1000, "stimulus": "/static/audio/wordpool/DONOR.wav", "key_press": -1, "type": "PRES_AUD", "word": "donor", "wordID": 484, "conditions": [24, 800, "a", 12000], "trial": 6, "serialpos": 15, "trial_type": "single-audio", "trial_index": 252, "time_elapsed": 1026905, "internal_node_id": "0.0-189.0"}}, {"uniqueid": "MTK0220:3JMSRU9HQJ1J0V1MK2M82DCZM70VEK", "current_trial": 253, "dateTime": 1509554683793, "trialdata": {"rt": -1000, "stimulus": "/static/audio/wordpool/LIZARD.wav", "key_press": -1, "type": "PRES_AUD", "word": "lizard", "wordID": 833, "conditions": [24, 800, "a", 12000], "trial": 6, "serialpos": 16, "trial_type": "single-audio", "trial_index": 253, "time_elapsed": 1028774, "internal_node_id": "0.0-190.0"}}, {"uniqueid": "MTK0220:3JMSRU9HQJ1J0V1MK2M82DCZM70VEK", "current_trial": 254, "dateTime": 1509554685443, "trialdata": {"rt": -1000, "stimulus": "/static/audio/wordpool/WHISTLE.wav", "key_press": -1, "type": "PRES_AUD", "word": "whistle", "wordID": 1605, "conditions": [24, 800, "a", 12000], "trial": 6, "serialpos": 17, "trial_type": "single-audio", "trial_index": 254, "time_elapsed": 1030425, "internal_node_id": "0.0-191.0"}}, {"uniqueid": "MTK0220:3JMSRU9HQJ1J0V1MK2M82DCZM70VEK", "current_trial": 255, "dateTime": 1509554687360, "trialdata": {"rt": -1000, "stimulus": "/static/audio/wordpool/CLOCK.wav", "key_press": -1, "type": "PRES_AUD", "word": "clock", "wordID": 324, "conditions": [24, 800, "a", 12000], "trial": 6, "serialpos": 18, "trial_type": "single-audio", "trial_index": 255, "time_elapsed": 1032341, "internal_node_id": "0.0-192.0"}}, {"uniqueid": "MTK0220:3JMSRU9HQJ1J0V1MK2M82DCZM70VEK", "current_trial": 256, "dateTime": 1509554689357, "trialdata": {"rt": -1000, "stimulus": "/static/audio/wordpool/HIKER.wav", "key_press": -1, "type": "PRES_AUD", "word": "hiker", "wordID": 707, "conditions": [24, 800, "a", 12000], "trial": 6, "serialpos": 19, "trial_type": "single-audio", "trial_index": 256, "time_elapsed": 1034339, "internal_node_id": "0.0-193.0"}}, {"uniqueid": "MTK0220:3JMSRU9HQJ1J0V1MK2M82DCZM70VEK", "current_trial": 257, "dateTime": 1509554691310, "trialdata": {"rt": -1000, "stimulus": "/static/audio/wordpool/CLIMBER.wav", "key_press": -1, "type": "PRES_AUD", "word": "climber", "wordID": 322, "conditions": [24, 800, "a", 12000], "trial": 6, "serialpos": 20, "trial_type": "single-audio", "trial_index": 257, "time_elapsed": 1036292, "internal_node_id": "0.0-194.0"}}, {"uniqueid": "MTK0220:3JMSRU9HQJ1J0V1MK2M82DCZM70VEK", "current_trial": 258, "dateTime": 1509554693037, "trialdata": {"rt": -1000, "stimulus": "/static/audio/wordpool/FOX.wav", "key_press": -1, "type": "PRES_AUD", "word": "fox", "wordID": 597, "conditions": [24, 800, "a", 12000], "trial": 6, "serialpos": 21, "trial_type": "single-audio", "trial_index": 258, "time_elapsed": 1038018, "internal_node_id": "0.0-195.0"}}, {"uniqueid": "MTK0220:3JMSRU9HQJ1J0V1MK2M82DCZM70VEK", "current_trial": 259, "dateTime": 1509554694863, "trialdata": {"rt": -1000, "stimulus": "/static/audio/wordpool/LASER.wav", "key_press": -1, "type": "PRES_AUD", "word": "laser", "wordID": 800, "conditions": [24, 800, "a", 12000], "trial": 6, "serialpos": 22, "trial_type": "single-audio", "trial_index": 259, "time_elapsed": 1039845, "internal_node_id": "0.0-196.0"}}, {"uniqueid": "MTK0220:3JMSRU9HQJ1J0V1MK2M82DCZM70VEK", "current_trial": 260, "dateTime": 1509554696563, "trialdata": {"rt": -1000, "stimulus": "/static/audio/wordpool/BRANDY.wav", "key_press": -1, "type": "PRES_AUD", "word": "brandy", "wordID": 168, "conditions": [24, 800, "a", 12000], "trial": 6, "serialpos": 23, "trial_type": "single-audio", "trial_index": 260, "time_elapsed": 1041545, "internal_node_id": "0.0-197.0"}}, {"uniqueid": "MTK0220:3JMSRU9HQJ1J0V1MK2M82DCZM70VEK", "current_trial": 261, "dateTime": 1509554697778, "trialdata": {"rt": -1, "stimulus": "", "key_press": -1, "type": "PRE_RECALL_DELAY", "trial_type": "single-stim", "trial_index": 261, "time_elapsed": 1042760, "internal_node_id": "0.0-198.0-0.0"}}, {"uniqueid": "MTK0220:3JMSRU9HQJ1J0V1MK2M82DCZM70VEK", "current_trial": 262, "dateTime": 1509554698283, "trialdata": {"rt": -1000, "stimulus": "/static/audio/400Hz.wav", "key_press": -1, "type": "PRE_RECALL_ALERT", "trial_type": "single-audio", "trial_index": 262, "time_elapsed": 1043264, "internal_node_id": "0.0-199.0"}}, {"uniqueid": "MTK0220:3JMSRU9HQJ1J0V1MK2M82DCZM70VEK", "current_trial": 263, "dateTime": 1509554758295, "trialdata": {"rt": [2196, 3900, 5741, 6826, 8717, 10752, 12319, 30216, 32301], "recwords": ["brandy", "hiker", "climber", "fox", "laser", "world", "girl", "slime", "apple"], "type": "FREE_RECALL", "conditions": [24, 800, "a", 12000], "trial": 6, "trial_type": "free-recall", "trial_index": 263, "time_elapsed": 1103269, "internal_node_id": "0.0-200.0-0.0"}}, {"uniqueid": "MTK0220:3JMSRU9HQJ1J0V1MK2M82DCZM70VEK", "current_trial": 264, "dateTime": 1509554762033, "trialdata": {"rt": 1735, "key_press": 32, "type": "INSTRUCTIONS", "trial_type": "text", "trial_index": 264, "time_elapsed": 1107015, "internal_node_id": "0.0-201.0"}}, {"uniqueid": "MTK0220:3JMSRU9HQJ1J0V1MK2M82DCZM70VEK", "current_trial": 265, "dateTime": 1509554788044, "trialdata": {"rt": [3026, 5099, 6882, 8820, 11365, 13464, 21506, 23347], "responses": ["20", "17", "9", "18", "25", "14", "13", "13"], "num1": [6, 7, 4, 5, 8, 7, 3, 6, 1], "num2": [6, 2, 1, 8, 8, 6, 9, 5, 4], "num3": [8, 8, 4, 5, 9, 1, 1, 2, 9], "type": "DISTRACTOR", "conditions": [12, 800, "v", 24000], "trial": 7, "trial_type": "math-distractor", "trial_index": 265, "time_elapsed": 1133026, "internal_node_id": "0.0-202.0"}}, {"uniqueid": "MTK0220:3JMSRU9HQJ1J0V1MK2M82DCZM70VEK", "current_trial": 266, "dateTime": 1509554791054, "trialdata": {"rt": -1, "stimulus": "<p id=\"stim\">10</p>", "key_press": -1, "trial_type": "single-stim", "trial_index": 266, "time_elapsed": 1136036, "internal_node_id": "0.0-203.0-0.0"}}, {"uniqueid": "MTK0220:3JMSRU9HQJ1J0V1MK2M82DCZM70VEK", "current_trial": 267, "dateTime": 1509554792056, "trialdata": {"rt": -1, "stimulus": "<p id=\"stim\">9</p>", "key_press": -1, "trial_type": "single-stim", "trial_index": 267, "time_elapsed": 1137038, "internal_node_id": "0.0-203.0-1.0"}}, {"uniqueid": "MTK0220:3JMSRU9HQJ1J0V1MK2M82DCZM70VEK", "current_trial": 268, "dateTime": 1509554793058, "trialdata": {"rt": -1, "stimulus": "<p id=\"stim\">8</p>", "key_press": -1, "trial_type": "single-stim", "trial_index": 268, "time_elapsed": 1138040, "internal_node_id": "0.0-203.0-2.0"}}, {"uniqueid": "MTK0220:3JMSRU9HQJ1J0V1MK2M82DCZM70VEK", "current_trial": 269, "dateTime": 1509554794062, "trialdata": {"rt": -1, "stimulus": "<p id=\"stim\">7</p>", "key_press": -1, "trial_type": "single-stim", "trial_index": 269, "time_elapsed": 1139044, "internal_node_id": "0.0-203.0-3.0"}}, {"uniqueid": "