{"condition": 0, "counterbalance": 629, "assignmentId": "3YOH7BII0AEMMVTWGOXB08P48NCVKO", "workerId": "MTK0402", "hitId": "388CL5C1RJUQ1GI06XN6BNFQBHVLH9", "currenttrial": 626, "bonus": 0, "data": [{"uniqueid": "MTK0402:3YOH7BII0AEMMVTWGOXB08P48NCVKO", "current_trial": 0, "dateTime": 1510857935870, "trialdata": {"rt": 3217, "key_press": 32, "type": "INSTRUCTIONS", "trial_type": "text", "trial_index": 0, "time_elapsed": 3218, "internal_node_id": "0.0-0.0"}}, {"uniqueid": "MTK0402:3YOH7BII0AEMMVTWGOXB08P48NCVKO", "current_trial": 1, "dateTime": 1510857995975, "trialdata": {"rt": 60104, "key_press": 91, "type": "INSTRUCTIONS", "trial_type": "text", "trial_index": 1, "time_elapsed": 63323, "internal_node_id": "0.0-1.0"}}, {"uniqueid": "MTK0402:3YOH7BII0AEMMVTWGOXB08P48NCVKO", "current_trial": 2, "dateTime": 1510858000748, "trialdata": {"rt": [4767], "responses": ["ocean"], "type": "AUDIO_TEST", "trial_type": "audio-test", "trial_index": 2, "time_elapsed": 68096, "internal_node_id": "0.0-2.0"}}, {"uniqueid": "MTK0402:3YOH7BII0AEMMVTWGOXB08P48NCVKO", "current_trial": 3, "dateTime": 1510858004484, "trialdata": {"rt": [3735], "responses": ["crystal"], "type": "AUDIO_TEST", "trial_type": "audio-test", "trial_index": 3, "time_elapsed": 71832, "internal_node_id": "0.0-3.0"}}, {"uniqueid": "MTK0402:3YOH7BII0AEMMVTWGOXB08P48NCVKO", "current_trial": 4, "dateTime": 1510858006921, "trialdata": {"rt": [2434], "responses": ["spice"], "type": "AUDIO_TEST", "trial_type": "audio-test", "trial_index": 4, "time_elapsed": 74269, "internal_node_id": "0.0-4.0"}}, {"uniqueid": "MTK0402:3YOH7BII0AEMMVTWGOXB08P48NCVKO", "current_trial": 5, "dateTime": 1510858042012, "trialdata": {"rt": 34341, "responses": "{\"Q0\":\"2:30 AM\",\"Q1\":\"11:00 AM\",\"Q2\":\"4\"}", "type": "SLEEP_SURVEY", "trial_type": "survey-text", "trial_index": 5, "time_elapsed": 109360, "internal_node_id": "0.0-5.0"}}, {"uniqueid": "MTK0402:3YOH7BII0AEMMVTWGOXB08P48NCVKO", "current_trial": 6, "dateTime": 1510858069951, "trialdata": {"rt": 26939, "key_press": 175, "type": "INSTRUCTIONS", "trial_type": "text", "trial_index": 6, "time_elapsed": 137299, "internal_node_id": "0.0-6.0"}}, {"uniqueid": "MTK0402:3YOH7BII0AEMMVTWGOXB08P48NCVKO", "current_trial": 7, "dateTime": 1510858071431, "trialdata": {"rt": 980, "key_press": 20, "type": "INSTRUCTIONS", "trial_type": "text", "trial_index": 7, "time_elapsed": 138779, "internal_node_id": "0.0-7.0"}}, {"uniqueid": "MTK0402:3YOH7BII0AEMMVTWGOXB08P48NCVKO", "current_trial": 8, "dateTime": 1510858084715, "trialdata": {"rt": 12783, "key_press": 32, "type": "INSTRUCTIONS", "trial_type": "text", "trial_index": 8, "time_elapsed": 152063, "internal_node_id": "0.0-8.0"}}, {"uniqueid": "MTK0402:3YOH7BII0AEMMVTWGOXB08P48NCVKO", "current_trial": 9, "dateTime": 1510858103719, "trialdata": {"rt": [4163, 5319, 6686, 9441, 11532, 12964, 15563], "responses": ["9", "3", "7", "22", "14", "5", "16"], "num1": [2, 1, 1, 6, 1, 3, 4, 7], "num2": [4, 1, 1, 9, 7, 1, 3, 9], "num3": [3, 1, 5, 7, 6, 1, 9, 8], "type": "DISTRACTOR", "conditions": [18, 1200, "v", 18000], "trial": 0, "trial_type": "math-distractor", "trial_index": 9, "time_elapsed": 171067, "internal_node_id": "0.0-9.0"}}, {"uniqueid": "MTK0402:3YOH7BII0AEMMVTWGOXB08P48NCVKO", "current_trial": 10, "dateTime": 1510858106720, "trialdata": {"rt": -1, "stimulus": "<p id=\"stim\">10</p>", "key_press": -1, "trial_type": "single-stim", "trial_index": 10, "time_elapsed": 174068, "internal_node_id": "0.0-10.0-0.0"}}, {"uniqueid": "MTK0402:3YOH7BII0AEMMVTWGOXB08P48NCVKO", "current_trial": 11, "dateTime": 1510858107721, "trialdata": {"rt": -1, "stimulus": "<p id=\"stim\">9</p>", "key_press": -1, "trial_type": "single-stim", "trial_index": 11, "time_elapsed": 175069, "internal_node_id": "0.0-10.0-1.0"}}, {"uniqueid": "MTK0402:3YOH7BII0AEMMVTWGOXB08P48NCVKO", "current_trial": 12, "dateTime": 1510858108722, "trialdata": {"rt": -1, "stimulus": "<p id=\"stim\">8</p>", "key_press": -1, "trial_type": "single-stim", "trial_index": 12, "time_elapsed": 176070, "internal_node_id": "0.0-10.0-2.0"}}, {"uniqueid": "MTK0402:3YOH7BII0AEMMVTWGOXB08P48NCVKO", "current_trial": 13, "dateTime": 1510858109722, "trialdata": {"rt": 585, "stimulus": "<p id=\"stim\">7</p>", "key_press": 20, "trial_type": "single-stim", "trial_index": 13, "time_elapsed": 177070, "internal_node_id": "0.0-10.0-3.0"}}, {"uniqueid": "MTK0402:3YOH7BII0AEMMVTWGOXB08P48NCVKO", "current_trial": 14, "dateTime": 1510858110723, "trialdata": {"rt": -1, "stimulus": "<p id=\"stim\">6</p>", "key_press": -1, "trial_type": "single-stim", "trial_index": 14, "time_elapsed": 178071, "internal_node_id": "0.0-10.0-4.0"}}, {"uniqueid": "MTK0402:3YOH7BII0AEMMVTWGOXB08P48NCVKO", "current_trial": 15, "dateTime": 1510858111723, "trialdata": {"rt": -1, "stimulus": "<p id=\"stim\">5</p>", "key_press": -1, "trial_type": "single-stim", "trial_index": 15, "time_elapsed": 179071, "internal_node_id": "0.0-10.0-5.0"}}, {"uniqueid": "MTK0402:3YOH7BII0AEMMVTWGOXB08P48NCVKO", "current_trial": 16, "dateTime": 1510858112725, "trialdata": {"rt": -1, "stimulus": "<p id=\"stim\">4</p>", "key_press": -1, "trial_type": "single-stim", "trial_index": 16, "time_elapsed": 180073, "internal_node_id": "0.0-10.0-6.0"}}, {"uniqueid": "MTK0402:3YOH7BII0AEMMVTWGOXB08P48NCVKO", "current_trial": 17, "dateTime": 1510858113726, "trialdata": {"rt": -1, "stimulus": "<p id=\"stim\">3</p>", "key_press": -1, "trial_type": "single-stim", "trial_index": 17, "time_elapsed": 181074, "internal_node_id": "0.0-10.0-7.0"}}, {"uniqueid": "MTK0402:3YOH7BII0AEMMVTWGOXB08P48NCVKO", "current_trial": 18, "dateTime": 1510858114727, "trialdata": {"rt": -1, "stimulus": "<p id=\"stim\">2</p>", "key_press": -1, "trial_type": "single-stim", "trial_index": 18, "time_elapsed": 182075, "internal_node_id": "0.0-10.0-8.0"}}, {"uniqueid": "MTK0402:3YOH7BII0AEMMVTWGOXB08P48NCVKO", "current_trial": 19, "dateTime": 1510858115728, "trialdata": {"rt": -1, "stimulus": "<p id=\"stim\">1</p>", "key_press": -1, "trial_type": "single-stim", "trial_index": 19, "time_elapsed": 183076, "internal_node_id": "0.0-10.0-9.0"}}, {"uniqueid": "MTK0402:3YOH7BII0AEMMVTWGOXB08P48NCVKO", "current_trial": 20, "dateTime": 1510858117228, "trialdata": {"rt": -1, "stimulus": "<p id=\"stim\">+</p>", "key_press": -1, "type": "FIXATION", "trial_type": "single-stim", "trial_index": 20, "time_elapsed": 184576, "internal_node_id": "0.0-11.0-0.0"}}, {"uniqueid": "MTK0402:3YOH7BII0AEMMVTWGOXB08P48NCVKO", "current_trial": 21, "dateTime": 1510858118428, "trialdata": {"rt": -1, "stimulus": "<p id=\"stim\">KLEENEX</p>", "key_press": -1, "type": "PRES_VIS", "word": "kleenex", "wordID": 781, "conditions": [18, 1200, "v", 18000], "trial": 0, "serialpos": 0, "trial_type": "single-stim", "trial_index": 21, "time_elapsed": 185776, "internal_node_id": "0.0-12.0"}}, {"uniqueid": "MTK0402:3YOH7BII0AEMMVTWGOXB08P48NCVKO", "current_trial": 22, "dateTime": 1510858120538, "trialdata": {"rt": -1, "stimulus": "<p id=\"stim\">COFFEE</p>", "key_press": -1, "type": "PRES_VIS", "word": "coffee", "wordID": 340, "conditions": [18, 1200, "v", 18000], "trial": 0, "serialpos": 1, "trial_type": "single-stim", "trial_index": 22, "time_elapsed": 187886, "internal_node_id": "0.0-13.0"}}, {"uniqueid": "MTK0402:3YOH7BII0AEMMVTWGOXB08P48NCVKO", "current_trial": 23, "dateTime": 1510858122742, "trialdata": {"rt": -1, "stimulus": "<p id=\"stim\">NURSE</p>", "key_press": -1, "type": "PRES_VIS", "word": "nurse", "wordID": 962, "conditions": [18, 1200, "v", 18000], "trial": 0, "serialpos": 2, "trial_type": "single-stim", "trial_index": 23, "time_elapsed": 190090, "internal_node_id": "0.0-14.0"}}, {"uniqueid": "MTK0402:3YOH7BII0AEMMVTWGOXB08P48NCVKO", "current_trial": 24, "dateTime": 1510858124884, "trialdata": {"rt": -1, "stimulus": "<p id=\"stim\">RECORD</p>", "key_press": -1, "type": "PRES_VIS", "word": "record", "wordID": 1175, "conditions": [18, 1200, "v", 18000], "trial": 0, "serialpos": 3, "trial_type": "single-stim", "trial_index": 24, "time_elapsed": 192232, "internal_node_id": "0.0-15.0"}}, {"uniqueid": "MTK0402:3YOH7BII0AEMMVTWGOXB08P48NCVKO", "current_trial": 25, "dateTime": 1510858127064, "trialdata": {"rt": -1, "stimulus": "<p id=\"stim\">FLASK</p>", "key_press": -1, "type": "PRES_VIS", "word": "flask", "wordID": 575, "conditions": [18, 1200, "v", 18000], "trial": 0, "serialpos": 4, "trial_type": "single-stim", "trial_index": 25, "time_elapsed": 194412, "internal_node_id": "0.0-16.0"}}, {"uniqueid": "MTK0402:3YOH7BII0AEMMVTWGOXB08P48NCVKO", "current_trial": 26, "dateTime": 1510858129260, "trialdata": {"rt": -1, "stimulus": "<p id=\"stim\">COLLEGE</p>", "key_press": -1, "type": "PRES_VIS", "word": "college", "wordID": 345, "conditions": [18, 1200, "v", 18000], "trial": 0, "serialpos": 5, "trial_type": "single-stim", "trial_index": 26, "time_elapsed": 196608, "internal_node_id": "0.0-17.0"}}, {"uniqueid": "MTK0402:3YOH7BII0AEMMVTWGOXB08P48NCVKO", "current_trial": 27, "dateTime": 1510858131636, "trialdata": {"rt": -1, "stimulus": "<p id=\"stim\">MISSILE</p>", "key_press": -1, "type": "PRES_VIS", "word": "missile", "wordID": 899, "conditions": [18, 1200, "v", 18000], "trial": 0, "serialpos": 6, "trial_type": "single-stim", "trial_index": 27, "time_elapsed": 198984, "internal_node_id": "0.0-18.0"}}, {"uniqueid": "MTK0402:3YOH7BII0AEMMVTWGOXB08P48NCVKO", "current_trial": 28, "dateTime": 1510858133893, "trialdata": {"rt": -1, "stimulus": "<p id=\"stim\">SWORD</p>", "key_press": -1, "type": "PRES_VIS", "word": "sword", "wordID": 1422, "conditions": [18, 1200, "v", 18000], "trial": 0, "serialpos": 7, "trial_type": "single-stim", "trial_index": 28, "time_elapsed": 201241, "internal_node_id": "0.0-19.0"}}, {"uniqueid": "MTK0402:3YOH7BII0AEMMVTWGOXB08P48NCVKO", "current_trial": 29, "dateTime": 1510858136276, "trialdata": {"rt": -1, "stimulus": "<p id=\"stim\">PENGUIN</p>", "key_press": -1, "type": "PRES_VIS", "word": "penguin", "wordID": 1043, "conditions": [18, 1200, "v", 18000], "trial": 0, "serialpos": 8, "trial_type": "single-stim", "trial_index": 29, "time_elapsed": 203624, "internal_node_id": "0.0-20.0"}}, {"uniqueid": "MTK0402:3YOH7BII0AEMMVTWGOXB08P48NCVKO", "current_trial": 30, "dateTime": 1510858138448, "trialdata": {"rt": -1, "stimulus": "<p id=\"stim\">FIREMAN</p>", "key_press": -1, "type": "PRES_VIS", "word": "fireman", "wordID": 568, "conditions": [18, 1200, "v", 18000], "trial": 0, "serialpos": 9, "trial_type": "single-stim", "trial_index": 30, "time_elapsed": 205796, "internal_node_id": "0.0-21.0"}}, {"uniqueid": "MTK0402:3YOH7BII0AEMMVTWGOXB08P48NCVKO", "current_trial": 31, "dateTime": 1510858140454, "trialdata": {"rt": -1, "stimulus": "<p id=\"stim\">CELLAR</p>", "key_press": -1, "type": "PRES_VIS", "word": "cellar", "wordID": 266, "conditions": [18, 1200, "v", 18000], "trial": 0, "serialpos": 10, "trial_type": "single-stim", "trial_index": 31, "time_elapsed": 207802, "internal_node_id": "0.0-22.0"}}, {"uniqueid": "MTK0402:3YOH7BII0AEMMVTWGOXB08P48NCVKO", "current_trial": 32, "dateTime": 1510858142521, "trialdata": {"rt": -1, "stimulus": "<p id=\"stim\">ANKLE</p>", "key_press": -1, "type": "PRES_VIS", "word": "ankle", "wordID": 23, "conditions": [18, 1200, "v", 18000], "trial": 0, "serialpos": 11, "trial_type": "single-stim", "trial_index": 32, "time_elapsed": 209869, "internal_node_id": "0.0-23.0"}}, {"uniqueid": "MTK0402:3YOH7BII0AEMMVTWGOXB08P48NCVKO", "current_trial": 33, "dateTime": 1510858144536, "trialdata": {"rt": -1, "stimulus": "<p id=\"stim\">HERO</p>", "key_press": -1, "type": "PRES_VIS", "word": "hero", "wordID": 705, "conditions": [18, 1200, "v", 18000], "trial": 0, "serialpos": 12, "trial_type": "single-stim", "trial_index": 33, "time_elapsed": 211884, "internal_node_id": "0.0-24.0"}}, {"uniqueid": "MTK0402:3YOH7BII0AEMMVTWGOXB08P48NCVKO", "current_trial": 34, "dateTime": 1510858146825, "trialdata": {"rt": -1, "stimulus": "<p id=\"stim\">PROTON</p>", "key_press": -1, "type": "PRES_VIS", "word": "proton", "wordID": 1131, "conditions": [18, 1200, "v", 18000], "trial": 0, "serialpos": 13, "trial_type": "single-stim", "trial_index": 34, "time_elapsed": 214173, "internal_node_id": "0.0-25.0"}}, {"uniqueid": "MTK0402:3YOH7BII0AEMMVTWGOXB08P48NCVKO", "current_trial": 35, "dateTime": 1510858148845, "trialdata": {"rt": -1, "stimulus": "<p id=\"stim\">MARSH</p>", "key_press": -1, "type": "PRES_VIS", "word": "marsh", "wordID": 873, "conditions": [18, 1200, "v", 18000], "trial": 0, "serialpos": 14, "trial_type": "single-stim", "trial_index": 35, "time_elapsed": 216193, "internal_node_id": "0.0-26.0"}}, {"uniqueid": "MTK0402:3YOH7BII0AEMMVTWGOXB08P48NCVKO", "current_trial": 36, "dateTime": 1510858151110, "trialdata": {"rt": -1, "stimulus": "<p id=\"stim\">VENUS</p>", "key_press": -1, "type": "PRES_VIS", "word": "venus", "wordID": 1556, "conditions": [18, 1200, "v", 18000], "trial": 0, "serialpos": 15, "trial_type": "single-stim", "trial_index": 36, "time_elapsed": 218458, "internal_node_id": "0.0-27.0"}}, {"uniqueid": "MTK0402:3YOH7BII0AEMMVTWGOXB08P48NCVKO", "current_trial": 37, "dateTime": 1510858153451, "trialdata": {"rt": -1, "stimulus": "<p id=\"stim\">NOVEL</p>", "key_press": -1, "type": "PRES_VIS", "word": "novel", "wordID": 959, "conditions": [18, 1200, "v", 18000], "trial": 0, "serialpos": 16, "trial_type": "single-stim", "trial_index": 37, "time_elapsed": 220799, "internal_node_id": "0.0-28.0"}}, {"uniqueid": "MTK0402:3YOH7BII0AEMMVTWGOXB08P48NCVKO", "current_trial": 38, "dateTime": 1510858155742, "trialdata": {"rt": -1, "stimulus": "<p id=\"stim\">SUITCASE</p>", "key_press": -1, "type": "PRES_VIS", "word": "suitcase", "wordID": 1402, "conditions": [18, 1200, "v", 18000], "trial": 0, "serialpos": 17, "trial_type": "single-stim", "trial_index": 38, "time_elapsed": 223090, "internal_node_id": "0.0-29.0"}}, {"uniqueid": "MTK0402:3YOH7BII0AEMMVTWGOXB08P48NCVKO", "current_trial": 39, "dateTime": 1510858158091, "trialdata": {"rt": -1, "stimulus": "", "key_press": -1, "type": "PRE_RECALL_DELAY", "trial_type": "single-stim", "trial_index": 39, "time_elapsed": 225439, "internal_node_id": "0.0-30.0-0.0"}}, {"uniqueid": "MTK0402:3YOH7BII0AEMMVTWGOXB08P48NCVKO", "current_trial": 40, "dateTime": 1510858158591, "trialdata": {"rt": -1000, "stimulus": "/static/audio/400Hz.wav", "key_press": -1, "type": "PRE_RECALL_ALERT", "trial_type": "single-audio", "trial_index": 40, "time_elapsed": 225939, "internal_node_id": "0.0-31.0"}}, {"uniqueid": "MTK0402:3YOH7BII0AEMMVTWGOXB08P48NCVKO", "current_trial": 41, "dateTime": 1510858218593, "trialdata": {"rt": [3991, 4964, 5746, 6568, 7206, 8404, 10491, 10957, 11250, 11452, 11614, 11783, 11943, 47888, 55639, 57112, 57782, 59260], "recwords": ["kleenex", "coffee", "nurse", "college", "sword", "ankle", "", "", "", "", "", "", "", "penguin", "", "", "", ""], "type": "FREE_RECALL", "conditions": [18, 1200, "v", 18000], "trial": 0, "trial_type": "free-recall", "trial_index": 41, "time_elapsed": 285940, "internal_node_id": "0.0-32.0-0.0"}}, {"uniqueid": "MTK0402:3YOH7BII0AEMMVTWGOXB08P48NCVKO", "current_trial": 42, "dateTime": 1510858221946, "trialdata": {"rt": 1352, "key_press": 32, "type": "INSTRUCTIONS", "trial_type": "text", "trial_index": 42, "time_elapsed": 289294, "internal_node_id": "0.0-33.0"}}, {"uniqueid": "MTK0402:3YOH7BII0AEMMVTWGOXB08P48NCVKO", "current_trial": 43, "dateTime": 1510858241947, "trialdata": {"rt": [2675, 4251, 6017, 8247, 10207, 12082, 13901, 15453, 15602], "responses": ["10", "10", "8", "19", "15", "15", "20", "13", ""], "num1": [2, 4, 1, 6, 8, 7, 8, 6, 6, 1], "num2": [1, 1, 1, 7, 4, 7, 8, 4, 5, 5], "num3": [7, 5, 6, 6, 3, 1, 4, 3, 9, 8], "type": "DISTRACTOR", "conditions": [18, 1200, "a", 18000], "trial": 1, "trial_type": "math-distractor", "trial_index": 43, "time_elapsed": 309295, "internal_node_id": "0.0-34.0"}}, {"uniqueid": "MTK0402:3YOH7BII0AEMMVTWGOXB08P48NCVKO", "current_trial": 44, "dateTime": 1510858244948, "trialdata": {"rt": -1, "stimulus": "<p id=\"stim\">10</p>", "key_press": -1, "trial_type": "single-stim", "trial_index": 44, "time_elapsed": 312296, "internal_node_id": "0.0-35.0-0.0"}}, {"uniqueid": "MTK0402:3YOH7BII0AEMMVTWGOXB08P48NCVKO", "current_trial": 45, "dateTime": 1510858245948, "trialdata": {"rt": -1, "stimulus": "<p id=\"stim\">9</p>", "key_press": -1, "trial_type": "single-stim", "trial_index": 45, "time_elapsed": 313296, "internal_node_id": "0.0-35.0-1.0"}}, {"uniqueid": "MTK0402:3YOH7BII0AEMMVTWGOXB08P48NCVKO", "current_trial": 46, "dateTime": 1510858246948, "trialdata": {"rt": -1, "stimulus": "<p id=\"stim\">8</p>", "key_press": -1, "trial_type": "single-stim", "trial_index": 46, "time_elapsed": 314296, "internal_node_id": "0.0-35.0-2.0"}}, {"uniqueid": "MTK0402:3YOH7BII0AEMMVTWGOXB08P48NCVKO", "current_trial": 47, "dateTime": 1510858247948, "trialdata": {"rt": -1, "stimulus": "<p id=\"stim\">7</p>", "key_press": -1, "trial_type": "single-stim", "trial_index": 47, "time_elapsed": 315296, "internal_node_id": "0.0-35.0-3.0"}}, {"uniqueid": "MTK0402:3YOH7BII0AEMMVTWGOXB08P48NCVKO", "current_trial": 48, "dateTime": 1510858248948, "trialdata": {"rt": -1, "stimulus": "<p id=\"stim\">6</p>", "key_press": -1, "trial_type": "single-stim", "trial_index": 48, "time_elapsed": 316296, "internal_node_id": "0.0-35.0-4.0"}}, {"uniqueid": "MTK0402:3YOH7BII0AEMMVTWGOXB08P48NCVKO", "current_trial": 49, "dateTime": 1510858249948, "trialdata": {"rt": -1, "stimulus": "<p id=\"stim\">5</p>", "key_press": -1, "trial_type": "single-stim", "trial_index": 49, "time_elapsed": 317296, "internal_node_id": "0.0-35.0-5.0"}}, {"uniqueid": "MTK0402:3YOH7BII0AEMMVTWGOXB08P48NCVKO", "current_trial": 50, "dateTime": 1510858250948, "trialdata": {"rt": -1, "stimulus": "<p id=\"stim\">4</p>", "key_press": -1, "trial_type": "single-stim", "trial_index": 50, "time_elapsed": 318296, "internal_node_id": "0.0-35.0-6.0"}}, {"uniqueid": "MTK0402:3YOH7BII0AEMMVTWGOXB08P48NCVKO", "current_trial": 51, "dateTime": 1510858251948, "trialdata": {"rt": -1, "stimulus": "<p id=\"stim\">3</p>", "key_press": -1, "trial_type": "single-stim", "trial_index": 51, "time_elapsed": 319296, "internal_node_id": "0.0-35.0-7.0"}}, {"uniqueid": "MTK0402:3YOH7BII0AEMMVTWGOXB08P48NCVKO", "current_trial": 52, "dateTime": 1510858252948, "trialdata": {"rt": -1, "stimulus": "<p id=\"stim\">2</p>", "key_press": -1, "trial_type": "single-stim", "trial_index": 52, "time_elapsed": 320296, "internal_node_id": "0.0-35.0-8.0"}}, {"uniqueid": "MTK0402:3YOH7BII0AEMMVTWGOXB08P48NCVKO", "current_trial": 53, "dateTime": 1510858253949, "trialdata": {"rt": -1, "stimulus": "<p id=\"stim\">1</p>", "key_press": -1, "trial_type": "single-stim", "trial_index": 53, "time_elapsed": 321297, "internal_node_id": "0.0-35.0-9.0"}}, {"uniqueid": "MTK0402:3YOH7BII0AEMMVTWGOXB08P48NCVKO", "current_trial": 54, "dateTime": 1510858255449, "trialdata": {"rt": -1, "stimulus": "<p id=\"stim\">+</p>", "key_press": -1, "type": "FIXATION", "trial_type": "single-stim", "trial_index": 54, "time_elapsed": 322797, "internal_node_id": "0.0-36.0-0.0"}}, {"uniqueid": "MTK0402:3YOH7BII0AEMMVTWGOXB08P48NCVKO", "current_trial": 55, "dateTime": 1510858257494, "trialdata": {"rt": -1000, "stimulus": "/static/audio/wordpool/CHEMIST.wav", "key_press": -1, "type": "PRES_AUD", "word": "chemist", "wordID": 291, "conditions": [18, 1200, "a", 18000], "trial": 1, "serialpos": 0, "trial_type": "single-audio", "trial_index": 55, "time_elapsed": 324842, "internal_node_id": "0.0-37.0"}}, {"uniqueid": "MTK0402:3YOH7BII0AEMMVTWGOXB08P48NCVKO", "current_trial": 56, "dateTime": 1510858259799, "trialdata": {"rt": -1000, "stimulus": "/static/audio/wordpool/BROOK.wav", "key_press": -1, "type": "PRES_AUD", "word": "brook", "wordID": 176, "conditions": [18, 1200, "a", 18000], "trial": 1, "serialpos": 1, "trial_type": "single-audio", "trial_index": 56, "time_elapsed": 327147, "internal_node_id": "0.0-38.0"}}, {"uniqueid": "MTK0402:3YOH7BII0AEMMVTWGOXB08P48NCVKO", "current_trial": 57, "dateTime": 1510858261935, "trialdata": {"rt": -1000, "stimulus": "/static/audio/wordpool/JUDGE.wav", "key_press": -1, "type": "PRES_AUD", "word": "judge", "wordID": 760, "conditions": [18, 1200, "a", 18000], "trial": 1, "serialpos": 2, "trial_type": "single-audio", "trial_index": 57, "time_elapsed": 329283, "internal_node_id": "0.0-39.0"}}, {"uniqueid": "MTK0402:3YOH7BII0AEMMVTWGOXB08P48NCVKO", "current_trial": 58, "dateTime": 1510858263982, "trialdata": {"rt": -1000, "stimulus": "/static/audio/wordpool/PARSLEY.wav", "key_press": -1, "type": "PRES_AUD", "word": "parsley", "wordID": 1015, "conditions": [18, 1200, "a", 18000], "trial": 1, "serialpos": 3, "trial_type": "single-audio", "trial_index": 58, "time_elapsed": 331330, "internal_node_id": "0.0-40.0"}}, {"uniqueid": "MTK0402:3YOH7BII0AEMMVTWGOXB08P48NCVKO", "current_trial": 59, "dateTime": 1510858266077, "trialdata": {"rt": -1000, "stimulus": "/static/audio/wordpool/PLATE.wav", "key_press": -1, "type": "PRES_AUD", "word": "plate", "wordID": 1085, "conditions": [18, 1200, "a", 18000], "trial": 1, "serialpos": 4, "trial_type": "single-audio", "trial_index": 59, "time_elapsed": 333425, "internal_node_id": "0.0-41.0"}}, {"uniqueid": "MTK0402:3YOH7BII0AEMMVTWGOXB08P48NCVKO", "current_trial": 60, "dateTime": 1510858268317, "trialdata": {"rt": -1000, "stimulus": "/static/audio/wordpool/OINTMENT.wav", "key_press": -1, "type": "PRES_AUD", "word": "ointment", "wordID": 973, "conditions": [18, 1200, "a", 18000], "trial": 1, "serialpos": 5, "trial_type": "single-audio", "trial_index": 60, "time_elapsed": 335665, "internal_node_id": "0.0-42.0"}}, {"uniqueid": "MTK0402:3YOH7BII0AEMMVTWGOXB08P48NCVKO", "current_trial": 61, "dateTime": 1510858270628, "trialdata": {"rt": -1000, "stimulus": "/static/audio/wordpool/VICTIM.wav", "key_press": -1, "type": "PRES_AUD", "word": "victim", "wordID": 1561, "conditions": [18, 1200, "a", 18000], "trial": 1, "serialpos": 6, "trial_type": "single-audio", "trial_index": 61, "time_elapsed": 337976, "internal_node_id": "0.0-43.0"}}, {"uniqueid": "MTK0402:3YOH7BII0AEMMVTWGOXB08P48NCVKO", "current_trial": 62, "dateTime": 1510858272855, "trialdata": {"rt": -1000, "stimulus": "/static/audio/wordpool/OUTLAW.wav", "key_press": -1, "type": "PRES_AUD", "word": "outlaw", "wordID": 988, "conditions": [18, 1200, "a", 18000], "trial": 1, "serialpos": 7, "trial_type": "single-audio", "trial_index": 62, "time_elapsed": 340203, "internal_node_id": "0.0-44.0"}}, {"uniqueid": "MTK0402:3YOH7BII0AEMMVTWGOXB08P48NCVKO", "current_trial": 63, "dateTime": 1510858275076, "trialdata": {"rt": -1000, "stimulus": "/static/audio/wordpool/SHOULDER.wav", "key_press": -1, "type": "PRES_AUD", "word": "shoulder", "wordID": 1293, "conditions": [18, 1200, "a", 18000], "trial": 1, "serialpos": 8, "trial_type": "single-audio", "trial_index": 63, "time_elapsed": 342424, "internal_node_id": "0.0-45.0"}}, {"uniqueid": "MTK0402:3YOH7BII0AEMMVTWGOXB08P48NCVKO", "current_trial": 64, "dateTime": 1510858277109, "trialdata": {"rt": -1000, "stimulus": "/static/audio/wordpool/MAILMAN.wav", "key_press": -1, "type": "PRES_AUD", "word": "mailman", "wordID": 857, "conditions": [18, 1200, "a", 18000], "trial": 1, "serialpos": 9, "trial_type": "single-audio", "trial_index": 64, "time_elapsed": 344457, "internal_node_id": "0.0-46.0"}}, {"uniqueid": "MTK0402:3YOH7BII0AEMMVTWGOXB08P48NCVKO", "current_trial": 65, "dateTime": 1510858279452, "trialdata": {"rt": -1000, "stimulus": "/static/audio/wordpool/DENIM.wav", "key_press": -1, "type": "PRES_AUD", "word": "denim", "wordID": 445, "conditions": [18, 1200, "a", 18000], "trial": 1, "serialpos": 10, "trial_type": "single-audio", "trial_index": 65, "time_elapsed": 346800, "internal_node_id": "0.0-47.0"}}, {"uniqueid": "MTK0402:3YOH7BII0AEMMVTWGOXB08P48NCVKO", "current_trial": 66, "dateTime": 1510858281467, "trialdata": {"rt": -1000, "stimulus": "/static/audio/wordpool/OZONE.wav", "key_press": -1, "type": "PRES_AUD", "word": "ozone", "wordID": 995, "conditions": [18, 1200, "a", 18000], "trial": 1, "serialpos": 11, "trial_type": "single-audio", "trial_index": 66, "time_elapsed": 348815, "internal_node_id": "0.0-48.0"}}, {"uniqueid": "MTK0402:3YOH7BII0AEMMVTWGOXB08P48NCVKO", "current_trial": 67, "dateTime": 1510858283720, "trialdata": {"rt": -1000, "stimulus": "/static/audio/wordpool/GANGSTER.wav", "key_press": -1, "type": "PRES_AUD", "word": "gangster", "wordID": 619, "conditions": [18, 1200, "a", 18000], "trial": 1, "serialpos": 12, "trial_type": "single-audio", "trial_index": 67, "time_elapsed": 351068, "internal_node_id": "0.0-49.0"}}, {"uniqueid": "MTK0402:3YOH7BII0AEMMVTWGOXB08P48NCVKO", "current_trial": 68, "dateTime": 1510858285860, "trialdata": {"rt": -1000, "stimulus": "/static/audio/wordpool/GRAPE.wav", "key_press": -1, "type": "PRES_AUD", "word": "grape", "wordID": 653, "conditions": [18, 1200, "a", 18000], "trial": 1, "serialpos": 13, "trial_type": "single-audio", "trial_index": 68, "time_elapsed": 353207, "internal_node_id": "0.0-50.0"}}, {"uniqueid": "MTK0402:3YOH7BII0AEMMVTWGOXB08P48NCVKO", "current_trial": 69, "dateTime": 1510858288060, "trialdata": {"rt": -1000, "stimulus": "/static/audio/wordpool/SPARROW.wav", "key_press": -1, "type": "PRES_AUD", "word": "sparrow", "wordID": 1346, "conditions": [18, 1200, "a", 18000], "trial": 1, "serialpos": 14, "trial_type": "single-audio", "trial_index": 69, "time_elapsed": 355408, "internal_node_id": "0.0-51.0"}}, {"uniqueid": "MTK0402:3YOH7BII0AEMMVTWGOXB08P48NCVKO", "current_trial": 70, "dateTime": 1510858290110, "trialdata": {"rt": -1000, "stimulus": "/static/audio/wordpool/BUCKET.wav", "key_press": -1, "type": "PRES_AUD", "word": "bucket", "wordID": 183, "conditions": [18, 1200, "a", 18000], "trial": 1, "serialpos": 15, "trial_type": "single-audio", "trial_index": 70, "time_elapsed": 357458, "internal_node_id": "0.0-52.0"}}, {"uniqueid": "MTK0402:3YOH7BII0AEMMVTWGOXB08P48NCVKO", "current_trial": 71, "dateTime": 1510858292346, "trialdata": {"rt": -1000, "stimulus": "/static/audio/wordpool/LAGOON.wav", "key_press": -1, "type": "PRES_AUD", "word": "lagoon", "wordID": 794, "conditions": [18, 1200, "a", 18000], "trial": 1, "serialpos": 16, "trial_type": "single-audio", "trial_index": 71, "time_elapsed": 359694, "internal_node_id": "0.0-53.0"}}, {"uniqueid": "MTK0402:3YOH7BII0AEMMVTWGOXB08P48NCVKO", "current_trial": 72, "dateTime": 1510858294666, "trialdata": {"rt": -1000, "stimulus": "/static/audio/wordpool/SCRIBBLE.wav", "key_press": -1, "type": "PRES_AUD", "word": "scribble", "wordID": 1255, "conditions": [18, 1200, "a", 18000], "trial": 1, "serialpos": 17, "trial_type": "single-audio", "trial_index": 72, "time_elapsed": 362014, "internal_node_id": "0.0-54.0"}}, {"uniqueid": "MTK0402:3YOH7BII0AEMMVTWGOXB08P48NCVKO", "current_trial": 73, "dateTime": 1510858296018, "trialdata": {"rt": -1, "stimulus": "", "key_press": -1, "type": "PRE_RECALL_DELAY", "trial_type": "single-stim", "trial_index": 73, "time_elapsed": 363366, "internal_node_id": "0.0-55.0-0.0"}}, {"uniqueid": "MTK0402:3YOH7BII0AEMMVTWGOXB08P48NCVKO", "current_trial": 74, "dateTime": 1510858296518, "trialdata": {"rt": -1000, "stimulus": "/static/audio/400Hz.wav", "key_press": -1, "type": "PRE_RECALL_ALERT", "trial_type": "single-audio", "trial_index": 74, "time_elapsed": 363866, "internal_node_id": "0.0-56.0"}}, {"uniqueid": "MTK0402:3YOH7BII0AEMMVTWGOXB08P48NCVKO", "current_trial": 75, "dateTime": 1510858356521, "trialdata": {"rt": [2838, 3767, 4469, 5314, 6231, 7707, 8623, 24227], "recwords": ["chemist", "victim", "outlaw", "shoulder", "celery", "grape", "victim", "gangster"], "type": "FREE_RECALL", "conditions": [18, 1200, "a", 18000], "trial": 1, "trial_type": "free-recall", "trial_index": 75, "time_elapsed": 423868, "internal_node_id": "0.0-57.0-0.0"}}, {"uniqueid": "MTK0402:3YOH7BII0AEMMVTWGOXB08P48NCVKO", "current_trial": 76, "dateTime": 1510858361562, "trialdata": {"rt": 3039, "key_press": 32, "type": "INSTRUCTIONS", "trial_type": "text", "trial_index": 76, "time_elapsed": 428908, "internal_node_id": "0.0-58.0"}}, {"uniqueid": "MTK0402:3YOH7BII0AEMMVTWGOXB08P48NCVKO", "current_trial": 77, "dateTime": 1510858386563, "trialdata": {"rt": [2460, 4250, 6011, 7176, 9311, 11412, 13503, 15174, 16745, 17730, 19361, 21260, 23214], "responses": ["10", "13", "13", "7", "19", "8", "15", "12", "10", "6", "22", "18", "141"], "num1": [5, 8, 3, 1, 6, 3, 6, 6, 1, 4, 9, 6, 1, 2], "num2": [2, 3, 6, 5, 5, 2, 2, 2, 5, 1, 9, 5, 5, 4], "num3": [3, 2, 4, 1, 8, 3, 7, 4, 4, 1, 4, 7, 8, 4], "type": "DISTRACTOR", "conditions": [24, 800, "v", 24000], "trial": 2, "trial_type": "math-distractor", "trial_index": 77, "time_elapsed": 453911, "internal_node_id": "0.0-59.0"}}, {"uniqueid": "MTK0402:3YOH7BII0AEMMVTWGOXB08P48NCVKO", "current_trial": 78, "dateTime": 1510858389565, "trialdata": {"rt": -1, "stimulus": "<p id=\"stim\">10</p>", "key_press": -1, "trial_type": "single-stim", "trial_index": 78, "time_elapsed": 456913, "internal_node_id": "0.0-60.0-0.0"}}, {"uniqueid": "MTK0402:3YOH7BII0AEMMVTWGOXB08P48NCVKO", "current_trial": 79, "dateTime": 1510858390565, "trialdata": {"rt": -1, "stimulus": "<p id=\"stim\">9</p>", "key_press": -1, "trial_type": "single-stim", "trial_index": 79, "time_elapsed": 457913, "internal_node_id": "0.0-60.0-1.0"}}, {"uniqueid": "MTK0402:3YOH7BII0AEMMVTWGOXB08P48NCVKO", "current_trial": 80, "dateTime": 1510858391565, "trialdata": {"rt": -1, "stimulus": "<p id=\"stim\">8</p>", "key_press": -1, "trial_type": "single-stim", "trial_index": 80, "time_elapsed": 458913, "internal_node_id": "0.0-60.0-2.0"}}, {"uniqueid": "MTK0402:3YOH7BII0AEMMVTWGOXB08P48NCVKO", "current_trial": 81, "dateTime": 1510858392565, "trialdata": {"rt": -1, "stimulus": "<p id=\"stim\">7</p>", "key_press": -1, "trial_type": "single-stim", "trial_index": 81, "time_elapsed": 459913, "internal_node_id": "0.0-60.0-3.0"}}, {"uniqueid": "MTK0402:3YOH7BII0AEMMVTWGOXB08P48NCVKO", "current_trial": 82, "dateTime": 1510858393565, "trialdata": {"rt": -1, "stimulus": "<p id=\"stim\">6</p>", "key_press": -1, "trial_type": "single-stim", "trial_index": 82, "time_elapsed": 460913, "internal_node_id": "0.0-60.0-4.0"}}, {"uniqueid": "MTK0402:3YOH7BII0AEMMVTWGOXB08P48NCVKO", "current_trial": 83, "dateTime": 1510858394566, "trialdata": {"rt": -1, "stimulus": "<p id=\"stim\">5</p>", "key_press": -1, "trial_type": "single-stim", "trial_index": 83, "time_elapsed": 461914, "internal_node_id": "0.0-60.0-5.0"}}, {"uniqueid": "MTK0402:3YOH7BII0AEMMVTWGOXB08P48NCVKO", "current_trial": 84, "dateTime": 1510858395568, "trialdata": {"rt": -1, "stimulus": "<p id=\"stim\">4</p>", "key_press": -1, "trial_type": "single-stim", "trial_index": 84, "time_elapsed": 462915, "internal_node_id": "0.0-60.0-6.0"}}, {"uniqueid": "MTK0402:3YOH7BII0AEMMVTWGOXB08P48NCVKO", "current_trial": 85, "dateTime": 1510858396568, "trialdata": {"rt": -1, "stimulus": "<p id=\"stim\">3</p>", "key_press": -1, "trial_type": "single-stim", "trial_index": 85, "time_elapsed": 463916, "internal_node_id": "0.0-60.0-7.0"}}, {"uniqueid": "MTK0402:3YOH7BII0AEMMVTWGOXB08P48NCVKO", "current_trial": 86, "dateTime": 1510858397568, "trialdata": {"rt": -1, "stimulus": "<p id=\"stim\">2</p>", "key_press": -1, "trial_type": "single-stim", "trial_index": 86, "time_elapsed": 464916, "internal_node_id": "0.0-60.0-8.0"}}, {"uniqueid": "MTK0402:3YOH7BII0AEMMVTWGOXB08P48NCVKO", "current_trial": 87, "dateTime": 1510858398568, "trialdata": {"rt": -1, "stimulus": "<p id=\"stim\">1</p>", "key_press": -1, "trial_type": "single-stim", "trial_index": 87, "time_elapsed": 465916, "internal_node_id": "0.0-60.0-9.0"}}, {"uniqueid": "MTK0402:3YOH7BII0AEMMVTWGOXB08P48NCVKO", "current_trial": 88, "dateTime": 1510858400068, "trialdata": {"rt": -1, "stimulus": "<p id=\"stim\">+</p>", "key_press": -1, "type": "FIXATION", "trial_type": "single-stim", "trial_index": 88, "time_elapsed": 467416, "internal_node_id": "0.0-61.0-0.0"}}, {"uniqueid": "MTK0402:3YOH7BII0AEMMVTWGOXB08P48NCVKO", "current_trial": 89, "dateTime": 1510858400868, "trialdata": {"rt": -1, "stimulus": "<p id=\"stim\">DRILL</p>", "key_press": -1, "type": "PRES_VIS", "word": "drill", "wordID": 496, "conditions": [24, 800, "v", 24000], "trial": 2, "serialpos": 0, "trial_type": "single-stim", "trial_index": 89, "time_elapsed": 468216, "internal_node_id": "0.0-62.0"}}, {"uniqueid": "MTK0402:3YOH7BII0AEMMVTWGOXB08P48NCVKO", "current_trial": 90, "dateTime": 1510858402631, "trialdata": {"rt": -1, "stimulus": "<p id=\"stim\">BADGE</p>", "key_press": -1, "type": "PRES_VIS", "word": "badge", "wordID": 67, "conditions": [24, 800, "v", 24000], "trial": 2, "serialpos": 1, "trial_type": "single-stim", "trial_index": 90, "time_elapsed": 469979, "internal_node_id": "0.0-63.0"}}, {"uniqueid": "MTK0402:3YOH7BII0AEMMVTWGOXB08P48NCVKO", "current_trial": 91, "dateTime": 1510858404483, "trialdata": {"rt": -1, "stimulus": "<p id=\"stim\">STICKER</p>", "key_press": -1, "type": "PRES_VIS", "word": "sticker", "wordID": 1381, "conditions": [24, 800, "v", 24000], "trial": 2, "serialpos": 2, "trial_type": "single-stim", "trial_index": 91, "time_elapsed": 471831, "internal_node_id": "0.0-64.0"}}, {"uniqueid": "MTK0402:3YOH7BII0AEMMVTWGOXB08P48NCVKO", "current_trial": 92, "dateTime": 1510858406409, "trialdata": {"rt": -1, "stimulus": "<p id=\"stim\">DRUG</p>", "key_press": -1, "type": "PRES_VIS", "word": "drug", "wordID": 500, "conditions": [24, 800, "v", 24000], "trial": 2, "serialpos": 3, "trial_type": "single-stim", "trial_index": 92, "time_elapsed": 473757, "internal_node_id": "0.0-65.0"}}, {"uniqueid": "MTK0402:3YOH7BII0AEMMVTWGOXB08P48NCVKO", "current_trial": 93, "dateTime": 1510858408085, "trialdata": {"rt": -1, "stimulus": "<p id=\"stim\">POWDER</p>", "key_press": -1, "type": "PRES_VIS", "word": "powder", "wordID": 1116, "conditions": [24, 800, "v", 24000], "trial": 2, "serialpos": 4, "trial_type": "single-stim", "trial_index": 93, "time_elapsed": 475433, "internal_node_id": "0.0-66.0"}}, {"uniqueid": "MTK0402:3YOH7BII0AEMMVTWGOXB08P48NCVKO", "current_trial": 94, "dateTime": 1510858409838, "trialdata": {"rt": -1, "stimulus": "<p id=\"stim\">CIGAR</p>", "key_press": -1, "type": "PRES_VIS", "word": "cigar", "wordID": 307, "conditions": [24, 800, "v", 24000], "trial": 2, "serialpos": 5, "trial_type": "single-stim", "trial_index": 94, "time_elapsed": 477186, "internal_node_id": "0.0-67.0"}}, {"uniqueid": "MTK0402:3YOH7BII0AEMMVTWGOXB08P48NCVKO", "current_trial": 95, "dateTime": 1510858411713, "trialdata": {"rt": -1, "stimulus": "<p id=\"stim\">SHIRT</p>", "key_press": -1, "type": "PRES_VIS", "word": "shirt", "wordID": 1286, "conditions": [24, 800, "v", 24000], "trial": 2, "serialpos": 6, "trial_type": "single-stim", "trial_index": 95, "time_elapsed": 479061, "internal_node_id": "0.0-68.0"}}, {"uniqueid": "MTK0402:3YOH7BII0AEMMVTWGOXB08P48NCVKO", "current_trial": 96, "dateTime": 1510858413672, "trialdata": {"rt": -1, "stimulus": "<p id=\"stim\">GROUND</p>", "key_press": -1, "type": "PRES_VIS", "word": "ground", "wordID": 665, "conditions": [24, 800, "v", 24000], "trial": 2, "serialpos": 7, "trial_type": "single-stim", "trial_index": 96, "time_elapsed": 481020, "internal_node_id": "0.0-69.0"}}, {"uniqueid": "MTK0402:3YOH7BII0AEMMVTWGOXB08P48NCVKO", "current_trial": 97, "dateTime": 1510858415535, "trialdata": {"rt": -1, "stimulus": "<p id=\"stim\">CABBAGE</p>", "key_press": -1, "type": "PRES_VIS", "word": "cabbage", "wordID": 209, "conditions": [24, 800, "v", 24000], "trial": 2, "serialpos": 8, "trial_type": "single-stim", "trial_index": 97, "time_elapsed": 482883, "internal_node_id": "0.0-70.0"}}, {"uniqueid": "MTK0402:3YOH7BII0AEMMVTWGOXB08P48NCVKO", "current_trial": 98, "dateTime": 1510858417316, "trialdata": {"rt": -1, "stimulus": "<p id=\"stim\">LETTUCE</p>", "key_press": -1, "type": "PRES_VIS", "word": "lettuce", "wordID": 813, "conditions": [24, 800, "v", 24000], "trial": 2, "serialpos": 9, "trial_type": "single-stim", "trial_index": 98, "time_elapsed": 484664, "internal_node_id": "0.0-71.0"}}, {"uniqueid": "MTK0402:3YOH7BII0AEMMVTWGOXB08P48NCVKO", "current_trial": 99, "dateTime": 1510858419145, "trialdata": {"rt": -1, "stimulus": "<p id=\"stim\">CROWN</p>", "key_press": -1, "type": "PRES_VIS", "word": "crown", "wordID": 414, "conditions": [24, 800, "v", 24000], "trial": 2, "serialpos": 10, "trial_type": "single-stim", "trial_index": 99, "time_elapsed": 486493, "internal_node_id": "0.0-72.0"}}, {"uniqueid": "MTK0402:3YOH7BII0AEMMVTWGOXB08P48NCVKO", "current_trial": 100, "dateTime": 1510858420911, "trialdata": {"rt": -1, "stimulus": "<p id=\"stim\">RADISH</p>", "key_press": -1, "type": "PRES_VIS", "word": "radish", "wordID": 1157, "conditions": [24, 800, "v", 24000], "trial": 2, "serialpos": 11, "trial_type": "single-stim", "trial_index": 100, "time_elapsed": 488259, "internal_node_id": "0.0-73.0"}}, {"uniqueid": "MTK0402:3YOH7BII0AEMMVTWGOXB08P48NCVKO", "current_trial": 101, "dateTime": 1510858422765, "trialdata": {"rt": -1, "stimulus": "<p id=\"stim\">FEMALE</p>", "key_press": -1, "type": "PRES_VIS", "word": "female", "wordID": 558, "conditions": [24, 800, "v", 24000], "trial": 2, "serialpos": 12, "trial_type": "single-stim", "trial_index": 101, "time_elapsed": 490113, "internal_node_id": "0.0-74.0"}}, {"uniqueid": "MTK0402:3YOH7BII0AEMMVTWGOXB08P48NCVKO", "current_trial": 102, "dateTime": 1510858424498, "trialdata": {"rt": -1, "stimulus": "<p id=\"stim\">CANAL</p>", "key_press": -1, "type": "PRES_VIS", "word": "canal", "wordID": 225, "conditions": [24, 800, "v", 24000], "trial": 2, "serialpos": 13, "trial_type": "single-stim", "trial_index": 102, "time_elapsed": 491846, "internal_node_id": "0.0-75.0"}}, {"uniqueid": "MTK0402:3YOH7BII0AEMMVTWGOXB08P48NCVKO", "current_trial": 103, "dateTime": 1510858426443, "trialdata": {"rt": -1, "stimulus": "<p id=\"stim\">JELLY</p>", "key_press": -1, "type": "PRES_VIS", "word": "jelly", "wordID": 754, "conditions": [24, 800, "v", 24000], "trial": 2, "serialpos": 14, "trial_type": "single-stim", "trial_index": 103, "time_elapsed": 493791, "internal_node_id": "0.0-76.0"}}, {"uniqueid": "MTK0402:3YOH7BII0AEMMVTWGOXB08P48NCVKO", "current_trial": 104, "dateTime": 1510858428227, "trialdata": {"rt": -1, "stimulus": "<p id=\"stim\">BUNNY</p>", "key_press": -1, "type": "PRES_VIS", "word": "bunny", "wordID": 197, "conditions": [24, 800, "v", 24000], "trial": 2, "serialpos": 15, "trial_type": "single-stim", "trial_index": 104, "time_elapsed": 495575, "internal_node_id": "0.0-77.0"}}, {"uniqueid": "MTK0402:3YOH7BII0AEMMVTWGOXB08P48NCVKO", "current_trial": 105, "dateTime": 1510858429964, "trialdata": {"rt": -1, "stimulus": "<p id=\"stim\">CREATURE</p>", "key_press": -1, "type": "PRES_VIS", "word": "creature", "wordID": 402, "conditions": [24, 800, "v", 24000], "trial": 2, "serialpos": 16, "trial_type": "single-stim", "trial_index": 105, "time_elapsed": 497312, "internal_node_id": "0.0-78.0"}}, {"uniqueid": "MTK0402:3YOH7BII0AEMMVTWGOXB08P48NCVKO", "current_trial": 106, "dateTime": 1510858431634, "trialdata": {"rt": -1, "stimulus": "<p id=\"stim\">GAZELLE</p>", "key_press": -1, "type": "PRES_VIS", "word": "gazelle", "wordID": 627, "conditions": [24, 800, "v", 24000], "trial": 2, "serialpos": 17, "trial_type": "single-stim", "trial_index": 106, "time_elapsed": 498982, "internal_node_id": "0.0-79.0"}}, {"uniqueid": "MTK0402:3YOH7BII0AEMMVTWGOXB08P48NCVKO", "current_trial": 107, "dateTime": 1510858433383, "trialdata": {"rt": -1, "stimulus": "<p id=\"stim\">WAITER</p>", "key_press": -1, "type": "PRES_VIS", "word": "waiter", "wordID": 1579, "conditions": [24, 800, "v", 24000], "trial": 2, "serialpos": 18, "trial_type": "single-stim", "trial_index": 107, "time_elapsed": 500731, "internal_node_id": "0.0-80.0"}}, {"uniqueid": "MTK0402:3YOH7BII0AEMMVTWGOXB08P48NCVKO", "current_trial": 108, "dateTime": 1510858435207, "trialdata": {"rt": -1, "stimulus": "<p id=\"stim\">LIVER</p>", "key_press": -1, "type": "PRES_VIS", "word": "liver", "wordID": 832, "conditions": [24, 800, "v", 24000], "trial": 2, "serialpos": 19, "trial_type": "single-stim", "trial_index": 108, "time_elapsed": 502555, "internal_node_id": "0.0-81.0"}}, {"uniqueid": "MTK0402:3YOH7BII0AEMMVTWGOXB08P48NCVKO", "current_trial": 109, "dateTime": 1510858436868, "trialdata": {"rt": -1, "stimulus": "<p id=\"stim\">STUDENT</p>", "key_press": -1, "type": "PRES_VIS", "word": "student", "wordID": 1394, "conditions": [24, 800, "v", 24000], "trial": 2, "serialpos": 20, "trial_type": "single-stim", "trial_index": 109, "time_elapsed": 504216, "internal_node_id": "0.0-82.0"}}, {"uniqueid": "MTK0402:3YOH7BII0AEMMVTWGOXB08P48NCVKO", "current_trial": 110, "dateTime": 1510858438558, "trialdata": {"rt": -1, "stimulus": "<p id=\"stim\">CASHIER</p>", "key_press": -1, "type": "PRES_VIS", "word": "cashier", "wordID": 253, "conditions": [24, 800, "v", 24000], "trial": 2, "serialpos": 21, "trial_type": "single-stim", "trial_index": 110, "time_elapsed": 505906, "internal_node_id": "0.0-83.0"}}, {"uniqueid": "MTK0402:3YOH7BII0AEMMVTWGOXB08P48NCVKO", "current_trial": 111, "dateTime": 1510858440265, "trialdata": {"rt": -1, "stimulus": "<p id=\"stim\">LOVER</p>", "key_press": -1, "type": "PRES_VIS", "word": "lover", "wordID": 845, "conditions": [24, 800, "v", 24000], "trial": 2, "serialpos": 22, "trial_type": "single-stim", "trial_index": 111, "time_elapsed": 507613, "internal_node_id": "0.0-84.0"}}, {"uniqueid": "MTK0402:3YOH7BII0AEMMVTWGOXB08P48NCVKO", "current_trial": 112, "dateTime": 1510858441874, "trialdata": {"rt": -1, "stimulus": "<p id=\"stim\">BOYFRIEND</p>", "key_press": -1, "type": "PRES_VIS", "word": "boyfriend", "wordID": 161, "conditions": [24, 800, "v", 24000], "trial": 2, "serialpos": 23, "trial_type": "single-stim", "trial_index": 112, "time_elapsed": 509222, "internal_node_id": "0.0-85.0"}}, {"uniqueid": "MTK0402:3YOH7BII0AEMMVTWGOXB08P48NCVKO", "current_trial": 113, "dateTime": 1510858444106, "trialdata": {"rt": -1, "stimulus": "", "key_press": -1, "type": "PRE_RECALL_DELAY", "trial_type": "single-stim", "trial_index": 113, "time_elapsed": 511454, "internal_node_id": "0.0-86.0-0.0"}}, {"uniqueid": "MTK0402:3YOH7BII0AEMMVTWGOXB08P48NCVKO", "current_trial": 114, "dateTime": 1510858444606, "trialdata": {"rt": -1000, "stimulus": "/static/audio/400Hz.wav", "key_press": -1, "type": "PRE_RECALL_ALERT", "trial_type": "single-audio", "trial_index": 114, "time_elapsed": 511954, "internal_node_id": "0.0-87.0"}}, {"uniqueid": "MTK0402:3YOH7BII0AEMMVTWGOXB08P48NCVKO", "current_trial": 115, "dateTime": 1510858504609, "trialdata": {"rt": [734, 1722, 3013, 4352, 5644, 11176, 12338], "recwords": ["drug", "bunny", "powder", "liver", "student", "creature", "water"], "type": "FREE_RECALL", "conditions": [24, 800, "v", 24000], "trial": 2, "trial_type": "free-recall", "trial_index": 115, "time_elapsed": 571955, "internal_node_id": "0.0-88.0-0.0"}}, {"uniqueid": "MTK0402:3YOH7BII0AEMMVTWGOXB08P48NCVKO", "current_trial": 116, "dateTime": 1510858507801, "trialdata": {"rt": 1191, "key_press": 13, "type": "INSTRUCTIONS", "trial_type": "text", "trial_index": 116, "time_elapsed": 575149, "internal_node_id": "0.0-89.0"}}, {"uniqueid": "MTK0402:3YOH7BII0AEMMVTWGOXB08P48NCVKO", "current_trial": 117, "dateTime": 1510858521802, "trialdata": {"rt": [3430, 6450, 8546, 10235, 11960], "responses": ["18", "13", "17", "11", "19"], "num1": [2, 8, 9, 7, 6, 5], "num2": [7, 1, 6, 3, 9, 5], "num3": [9, 4, 2, 1, 4, 5], "type": "DISTRACTOR", "conditions": [24, 800, "v", 12000], "trial": 3, "trial_type": "math-distractor", "trial_index": 117, "time_elapsed": 589150, "internal_node_id": "0.0-90.0"}}, {"uniqueid": "MTK0402:3YOH7BII0AEMMVTWGOXB08P48NCVKO", "current_trial": 118, "dateTime": 1510858524805, "trialdata": {"rt": -1, "stimulus": "<p id=\"stim\">10</p>", "key_press": -1, "trial_type": "single-stim", "trial_index": 118, "time_elapsed": 592153, "internal_node_id": "0.0-91.0-0.0"}}, {"uniqueid": "MTK0402:3YOH7BII0AEMMVTWGOXB08P48NCVKO", "current_trial": 119, "dateTime": 1510858525806, "trialdata": {"rt": -1, "stimulus": "<p id=\"stim\">9</p>", "key_press": -1, "trial_type": "single-stim", "trial_index": 119, "time_elapsed": 593154, "internal_node_id": "0.0-91.0-1.0"}}, {"uniqueid": "MTK0402:3YOH7BII0AEMMVTWGOXB08P48NCVKO", "current_trial": 120, "dateTime": 1510858526807, "trialdata": {"rt": -1, "stimulus": "<p id=\"stim\">8</p>", "key_press": -1, "trial_type": "single-stim", "trial_index": 120, "time_elapsed": 594155, "internal_node_id": "0.0-91.0-2.0"}}, {"uniqueid": "MTK0402:3YOH7BII0AEMMVTWGOXB08P48NCVKO", "current_trial": 121, "dateTime": 1510858527808, "trialdata": {"rt": -1, "stimulus": "<p id=\"stim\">7</p>", "key_press": -1, "trial_type": "single-stim", "trial_index": 121, "time_elapsed": 595156, "internal_node_id": "0.0-91.0-3.0"}}, {"uniqueid": "MTK0402:3YOH7BII0AEMMVTWGOXB08P48NCVKO", "current_trial": 122, "dateTime": 1510858528808, "trialdata": {"rt": 868, "stimulus": "<p id=\"stim\">6</p>", "key_press": 175, "trial_type": "single-stim", "trial_index": 122, "time_elapsed": 596156, "internal_node_id": "0.0-91.0-4.0"}}, {"uniqueid": "MTK0402:3YOH7BII0AEMMVTWGOXB08P48NCVKO", "current_trial": 123, "dateTime": 1510858529809, "trialdata": {"rt": 67, "stimulus": "<p id=\"stim\">5</p>", "key_press": 175, "trial_type": "single-stim", "trial_index": 123, "time_elapsed": 597157, "internal_node_id": "0.0-91.0-5.0"}}, {"uniqueid": "MTK0402:3YOH7BII0AEMMVTWGOXB08P48NCVKO", "current_trial": 124, "dateTime": 1510858530810, "trialdata": {"rt": 417, "stimulus": "<p id=\"stim\">4</p>", "key_press": 175, "trial_type": "single-stim", "trial_index": 124, "time_elapsed": 598158, "internal_node_id": "0.0-91.0-6.0"}}, {"uniqueid": "MTK0402:3YOH7BII0AEMMVTWGOXB08P48NCVKO", "current_trial": 125, "dateTime": 1510858531810, "trialdata": {"rt": -1, "stimulus": "<p id=\"stim\">3</p>", "key_press": -1, "trial_type": "single-stim", "trial_index": 125, "time_elapsed": 599158, "internal_node_id": "0.0-91.0-7.0"}}, {"uniqueid": "MTK0402:3YOH7BII0AEMMVTWGOXB08P48NCVKO", "current_trial": 126, "dateTime": 1510858532811, "trialdata": {"rt": -1, "stimulus": "<p id=\"stim\">2</p>", "key_press": -1, "trial_type": "single-stim", "trial_index": 126, "time_elapsed": 600159, "internal_node_id": "0.0-91.0-8.0"}}, {"uniqueid": "MTK0402:3YOH7BII0AEMMVTWGOXB08P48NCVKO", "current_trial": 127, "dateTime": 1510858533812, "trialdata": {"rt": -1, "stimulus": "<p id=\"stim\">1</p>", "key_press": -1, "trial_type": "single-stim", "trial_index": 127, "time_elapsed": 601160, "internal_node_id": "0.0-91.0-9.0"}}, {"uniqueid": "MTK0402:3YOH7BII0AEMMVTWGOXB08P48NCVKO", "current_trial": 128, "dateTime": 1510858535312, "trialdata": {"rt": -1, "stimulus": "<p id=\"stim\">+</p>", "key_press": -1, "type": "FIXATION", "trial_type": "single-stim", "trial_index": 128, "time_elapsed": 602660, "internal_node_id": "0.0-92.0-0.0"}}, {"uniqueid": "MTK0402:3YOH7BII0AEMMVTWGOXB08P48NCVKO", "current_trial": 129, "dateTime": 1510858536113, "trialdata": {"rt": -1, "stimulus": "<p id=\"stim\">BROTHER</p>", "key_press": -1, "type": "PRES_VIS", "word": "brother", "wordID": 178, "conditions": [24, 800, "v", 12000], "trial": 3, "serialpos": 0, "trial_type": "single-stim", "trial_index": 129, "time_elapsed": 603461, "internal_node_id": "0.0-93.0"}}, {"uniqueid": "MTK0402:3YOH7BII0AEMMVTWGOXB08P48NCVKO", "current_trial": 130, "dateTime": 1510858537970, "trialdata": {"rt": -1, "stimulus": "<p id=\"stim\">SMOG</p>", "key_press": -1, "type": "PRES_VIS", "word": "smog", "wordID": 1329, "conditions": [24, 800, "v", 12000], "trial": 3, "serialpos": 1, "trial_type": "single-stim", "trial_index": 130, "time_elapsed": 605318, "internal_node_id": "0.0-94.0"}}, {"uniqueid": "MTK0402:3YOH7BII0AEMMVTWGOXB08P48NCVKO", "current_trial": 131, "dateTime": 1510858539728, "trialdata": {"rt": -1, "stimulus": "<p id=\"stim\">ELBOW</p>", "key_press": -1, "type": "PRES_VIS", "word": "elbow", "wordID": 519, "conditions": [24, 800, "v", 12000], "trial": 3, "serialpos": 2, "trial_type": "single-stim", "trial_index": 131, "time_elapsed": 607076, "internal_node_id": "0.0-95.0"}}, {"uniqueid": "MTK0402:3YOH7BII0AEMMVTWGOXB08P48NCVKO", "current_trial": 132, "dateTime": 1510858541727, "trialdata": {"rt": -1, "stimulus": "<p id=\"stim\">WRIST</p>", "key_press": -1, "type": "PRES_VIS", "word": "wrist", "wordID": 1625, "conditions": [24, 800, "v", 12000], "trial": 3, "serialpos": 3, "trial_type": "single-stim", "trial_index": 132, "time_elapsed": 609075, "internal_node_id": "0.0-96.0"}}, {"uniqueid": "MTK0402:3YOH7BII0AEMMVTWGOXB08P48NCVKO", "current_trial": 133, "dateTime": 1510858543360, "trialdata": {"rt": -1, "stimulus": "<p id=\"stim\">CLOTHES</p>", "key_press": -1, "type": "PRES_VIS", "word": "clothes", "wordID": 326, "conditions": [24, 800, "v", 12000], "trial": 3, "serialpos": 4, "trial_type": "single-stim", "trial_index": 133, "time_elapsed": 610708, "internal_node_id": "0.0-97.0"}}, {"uniqueid": "MTK0402:3YOH7BII0AEMMVTWGOXB08P48NCVKO", "current_trial": 134, "dateTime": 1510858545276, "trialdata": {"rt": -1, "stimulus": "<p id=\"stim\">NAPKIN</p>", "key_press": -1, "type": "PRES_VIS", "word": "napkin", "wordID": 936, "conditions": [24, 800, "v", 12000], "trial": 3, "serialpos": 5, "trial_type": "single-stim", "trial_index": 134, "time_elapsed": 612624, "internal_node_id": "0.0-98.0"}}, {"uniqueid": "MTK0402:3YOH7BII0AEMMVTWGOXB08P48NCVKO", "current_trial": 135, "dateTime": 1510858547242, "trialdata": {"rt": -1, "stimulus": "<p id=\"stim\">SNACK</p>", "key_press": -1, "type": "PRES_VIS", "word": "snack", "wordID": 1330, "conditions": [24, 800, "v", 12000], "trial": 3, "serialpos": 6, "trial_type": "single-stim", "trial_index": 135, "time_elapsed": 614590, "internal_node_id": "0.0-99.0"}}, {"uniqueid": "MTK0402:3YOH7BII0AEMMVTWGOXB08P48NCVKO", "current_trial": 136, "dateTime": 1510858548979, "trialdata": {"rt": -1, "stimulus": "<p id=\"stim\">TUBA</p>", "key_press": -1, "type": "PRES_VIS", "word": "tuba", "wordID": 1514, "conditions": [24, 800, "v", 12000], "trial": 3, "serialpos": 7, "trial_type": "single-stim", "trial_index": 136, "time_elapsed": 616327, "internal_node_id": "0.0-100.0"}}, {"uniqueid": "MTK0402:3YOH7BII0AEMMVTWGOXB08P48NCVKO", "current_trial": 137, "dateTime": 1510858550711, "trialdata": {"rt": -1, "stimulus": "<p id=\"stim\">NIGHTGOWN</p>", "key_press": -1, "type": "PRES_VIS", "word": "nightgown", "wordID": 952, "conditions": [24, 800, "v", 12000], "trial": 3, "serialpos": 8, "trial_type": "single-stim", "trial_index": 137, "time_elapsed": 618059, "internal_node_id": "0.0-101.0"}}, {"uniqueid": "MTK0402:3YOH7BII0AEMMVTWGOXB08P48NCVKO", "current_trial": 138, "dateTime": 1510858552697, "trialdata": {"rt": -1, "stimulus": "<p id=\"stim\">RUG</p>", "key_press": -1, "type": "PRES_VIS", "word": "rug", "wordID": 1214, "conditions": [24, 800, "v", 12000], "trial": 3, "serialpos": 9, "trial_type": "single-stim", "trial_index": 138, "time_elapsed": 620045, "internal_node_id": "0.0-102.0"}}, {"uniqueid": "MTK0402:3YOH7BII0AEMMVTWGOXB08P48NCVKO", "current_trial": 139, "dateTime": 1510858554477, "trialdata": {"rt": -1, "stimulus": "<p id=\"stim\">SHOVEL</p>", "key_press": -1, "type": "PRES_VIS", "word": "shovel", "wordID": 1294, "conditions": [24, 800, "v", 12000], "trial": 3, "serialpos": 10, "trial_type": "single-stim", "trial_index": 139, "time_elapsed": 621825, "internal_node_id": "0.0-103.0"}}, {"uniqueid": "MTK0402:3YOH7BII0AEMMVTWGOXB08P48NCVKO", "current_trial": 140, "dateTime": 1510858556368, "trialdata": {"rt": -1, "stimulus": "<p id=\"stim\">DENTIST</p>", "key_press": -1, "type": "PRES_VIS", "word": "dentist", "wordID": 446, "conditions": [24, 800, "v", 12000], "trial": 3, "serialpos": 11, "trial_type": "single-stim", "trial_index": 140, "time_elapsed": 623716, "internal_node_id": "0.0-104.0"}}, {"uniqueid": "MTK0402:3YOH7BII0AEMMVTWGOXB08P48NCVKO", "current_trial": 141, "dateTime": 1510858558199, "trialdata": {"rt": -1, "stimulus": "<p id=\"stim\">SIDEWALK</p>", "key_press": -1, "type": "PRES_VIS", "word": "sidewalk", "wordID": 1302, "conditions": [24, 800, "v", 12000], "trial": 3, "serialpos": 12, "trial_type": "single-stim", "trial_index": 141, "time_elapsed": 625547, "internal_node_id": "0.0-105.0"}}, {"uniqueid": "MTK0402:3YOH7BII0AEMMVTWGOXB08P48NCVKO", "current_trial": 142, "dateTime": 1510858559984, "trialdata": {"rt": -1, "stimulus": "<p id=\"stim\">CUPBOARD</p>", "key_press": -1, "type": "PRES_VIS", "word": "cupboard", "wordID": 424, "conditions": [24, 800, "v", 12000], "trial": 3, "serialpos": 13, "trial_type": "single-stim", "trial_index": 142, "time_elapsed": 627332, "internal_node_id": "0.0-106.0"}}, {"uniqueid": "MTK0402:3YOH7BII0AEMMVTWGOXB08P48NCVKO", "current_trial": 143, "dateTime": 1510858561751, "trialdata": {"rt": -1, "stimulus": "<p id=\"stim\">WRENCH</p>", "key_press": -1, "type": "PRES_VIS", "word": "wrench", "wordID": 1624, "conditions": [24, 800, "v", 12000], "trial": 3, "serialpos": 14, "trial_type": "single-stim", "trial_index": 143, "time_elapsed": 629099, "internal_node_id": "0.0-107.0"}}, {"uniqueid": "MTK0402:3YOH7BII0AEMMVTWGOXB08P48NCVKO", "current_trial": 144, "dateTime": 1510858563676, "trialdata": {"rt": -1, "stimulus": "<p id=\"stim\">DOUGHNUT</p>", "key_press": -1, "type": "PRES_VIS", "word": "doughnut", "wordID": 489, "conditions": [24, 800, "v", 12000], "trial": 3, "serialpos": 15, "trial_type": "single-stim", "trial_index": 144, "time_elapsed": 631024, "internal_node_id": "0.0-108.0"}}, {"uniqueid": "MTK0402:3YOH7BII0AEMMVTWGOXB08P48NCVKO", "current_trial": 145, "dateTime": 1510858565342, "trialdata": {"rt": -1, "stimulus": "<p id=\"stim\">EMPIRE</p>", "key_press": -1, "type": "PRES_VIS", "word": "empire", "wordID": 529, "conditions": [24, 800, "v", 12000], "trial": 3, "serialpos": 16, "trial_type": "single-stim", "trial_index": 145, "time_elapsed": 632690, "internal_node_id": "0.0-109.0"}}, {"uniqueid": "MTK0402:3YOH7BII0AEMMVTWGOXB08P48NCVKO", "current_trial": 146, "dateTime": 1510858567067, "trialdata": {"rt": -1, "stimulus": "<p id=\"stim\">SIBLING</p>", "key_press": -1, "type": "PRES_VIS", "word": "sibling", "wordID": 1300, "conditions": [24, 800, "v", 12000], "trial": 3, "serialpos": 17, "trial_type": "single-stim", "trial_index": 146, "time_elapsed": 634415, "internal_node_id": "0.0-110.0"}}, {"uniqueid": "MTK0402:3YOH7BII0AEMMVTWGOXB08P48NCVKO", "current_trial": 147, "dateTime": 1510858568989, "trialdata": {"rt": -1, "stimulus": "<p id=\"stim\">BLOCKADE</p>", "key_press": -1, "type": "PRES_VIS", "word": "blockade", "wordID": 136, "conditions": [24, 800, "v", 12000], "trial": 3, "serialpos": 18, "trial_type": "single-stim", "trial_index": 147, "time_elapsed": 636337, "internal_node_id": "0.0-111.0"}}, {"uniqueid": "MTK0402:3YOH7BII0AEMMVTWGOXB08P48NCVKO", "current_trial": 148, "dateTime": 1510858570695, "trialdata": {"rt": -1, "stimulus": "<p id=\"stim\">POLICE</p>", "key_press": -1, "type": "PRES_VIS", "word": "police", "wordID": 1097, "conditions": [24, 800, "v", 12000], "trial": 3, "serialpos": 19, "trial_type": "single-stim", "trial_index": 148, "time_elapsed": 638043, "internal_node_id": "0.0-112.0"}}, {"uniqueid": "MTK0402:3YOH7BII0AEMMVTWGOXB08P48NCVKO", "current_trial": 149, "dateTime": 1510858572337, "trialdata": {"rt": -1, "stimulus": "<p id=\"stim\">PATROL</p>", "key_press": -1, "type": "PRES_VIS", "word": "patrol", "wordID": 1026, "conditions": [24, 800, "v", 12000], "trial": 3, "serialpos": 20, "trial_type": "single-stim", "trial_index": 149, "time_elapsed": 639685, "internal_node_id": "0.0-113.0"}}, {"uniqueid": "MTK0402:3YOH7BII0AEMMVTWGOXB08P48NCVKO", "current_trial": 150, "dateTime": 1510858573960, "trialdata": {"rt": -1, "stimulus": "<p id=\"stim\">PLAZA</p>", "key_press": -1, "type": "PRES_VIS", "word": "plaza", "wordID": 1087, "conditions": [24, 800, "v", 12000], "trial": 3, "serialpos": 21, "trial_type": "single-stim", "trial_index": 150, "time_elapsed": 641308, "internal_node_id": "0.0-114.0"}}, {"uniqueid": "MTK0402:3YOH7BII0AEMMVTWGOXB08P48NCVKO", "current_trial": 151, "dateTime": 1510858575597, "trialdata": {"rt": -1, "stimulus": "<p id=\"stim\">ROCKET</p>", "key_press": -1, "type": "PRES_VIS", "word": "rocket", "wordID": 1201, "conditions": [24, 800, "v", 12000], "trial": 3, "serialpos": 22, "trial_type": "single-stim", "trial_index": 151, "time_elapsed": 642945, "internal_node_id": "0.0-115.0"}}, {"uniqueid": "MTK0402:3YOH7BII0AEMMVTWGOXB08P48NCVKO", "current_trial": 152, "dateTime": 1510858577354, "trialdata": {"rt": -1, "stimulus": "<p id=\"stim\">WARDROBE</p>", "key_press": -1, "type": "PRES_VIS", "word": "wardrobe", "wordID": 1586, "conditions": [24, 800, "v", 12000], "trial": 3, "serialpos": 23, "trial_type": "single-stim", "trial_index": 152, "time_elapsed": 644702, "internal_node_id": "0.0-116.0"}}, {"uniqueid": "MTK0402:3YOH7BII0AEMMVTWGOXB08P48NCVKO", "current_trial": 153, "dateTime": 1510858579544, "trialdata": {"rt": 517, "stimulus": "", "key_press": 20, "type": "PRE_RECALL_DELAY", "trial_type": "single-stim", "trial_index": 153, "time_elapsed": 646892, "internal_node_id": "0.0-117.0-0.0"}}, {"uniqueid": "MTK0402:3YOH7BII0AEMMVTWGOXB08P48NCVKO", "current_trial": 154, "dateTime": 1510858580044, "trialdata": {"rt": -1000, "stimulus": "/static/audio/400Hz.wav", "key_press": -1, "type": "PRE_RECALL_ALERT", "trial_type": "single-audio", "trial_index": 154, "time_elapsed": 647392, "internal_node_id": "0.0-118.0"}}, {"uniqueid": "MTK0402:3YOH7BII0AEMMVTWGOXB08P48NCVKO", "current_trial": 155, "dateTime": 1510858640045, "trialdata": {"rt": [1591, 2661, 4301, 5886, 7050, 8372, 12878], "recwords": ["empire", "police", "wardrobe", "elbow", "wrist", "brother", "patrol"], "type": "FREE_RECALL", "conditions": [24, 800, "v", 12000], "trial": 3, "trial_type": "free-recall", "trial_index": 155, "time_elapsed": 707392, "internal_node_id": "0.0-119.0-0.0"}}, {"uniqueid": "MTK0402:3YOH7BII0AEMMVTWGOXB08P48NCVKO", "current_trial": 156, "dateTime": 1510858668654, "trialdata": {"rt": 26609, "key_press": 32, "type": "INSTRUCTIONS", "trial_type": "text", "trial_index": 156, "time_elapsed": 736002, "internal_node_id": "0.0-120.0"}}, {"uniqueid": "MTK0402:3YOH7BII0AEMMVTWGOXB08P48NCVKO", "current_trial": 157, "dateTime": 1510858682655, "trialdata": {"rt": [2488, 3979, 5597, 7615, 9223, 10375], "responses": ["20", "7", "14", "14", "20", "10"], "num1": [4, 3, 2, 8, 2, 1, 7], "num2": [7, 1, 6, 5, 9, 1, 9], "num3": [9, 3, 6, 1, 9, 8, 1], "type": "DISTRACTOR", "conditions": [24, 800, "a", 12000], "trial": 4, "trial_type": "math-distractor", "trial_index": 157, "time_elapsed": 750003, "internal_node_id": "0.0-121.0"}}, {"uniqueid": "MTK0402:3YOH7BII0AEMMVTWGOXB08P48NCVKO", "current_trial": 158, "dateTime": 1510858685657, "trialdata": {"rt": -1, "stimulus": "<p id=\"stim\">10</p>", "key_press": -1, "trial_type": "single-stim", "trial_index": 158, "time_elapsed": 753005, "internal_node_id": "0.0-122.0-0.0"}}, {"uniqueid": "MTK0402:3YOH7BII0AEMMVTWGOXB08P48NCVKO", "current_trial": 159, "dateTime": 1510858686657, "trialdata": {"rt": -1, "stimulus": "<p id=\"stim\">9</p>", "key_press": -1, "trial_type": "single-stim", "trial_index": 159, "time_elapsed": 754005, "internal_node_id": "0.0-122.0-1.0"}}, {"uniqueid": "MTK0402:3YOH7BII0AEMMVTWGOXB08P48NCVKO", "current_trial": 160, "dateTime": 1510858687657, "trialdata": {"rt": -1, "stimulus": "<p id=\"stim\">8</p>", "key_press": -1, "trial_type": "single-stim", "trial_index": 160, "time_elapsed": 755005, "internal_node_id": "0.0-122.0-2.0"}}, {"uniqueid": "MTK0402:3YOH7BII0AEMMVTWGOXB08P48NCVKO", "current_trial": 161, "dateTime": 1510858688658, "trialdata": {"rt": -1, "stimulus": "<p id=\"stim\">7</p>", "key_press": -1, "trial_type": "single-stim", "trial_index": 161, "time_elapsed": 756006, "internal_node_id": "0.0-122.0-3.0"}}, {"uniqueid": "MTK0402:3YOH7BII0AEMMVTWGOXB08P48NCVKO", "current_trial": 162, "dateTime": 1510858689659, "trialdata": {"rt": -1, "stimulus": "<p id=\"stim\">6</p>", "key_press": -1, "trial_type": "single-stim", "trial_index": 162, "time_elapsed": 757007, "internal_node_id": "0.0-122.0-4.0"}}, {"uniqueid": "MTK0402:3YOH7BII0AEMMVTWGOXB08P48NCVKO", "current_trial": 163, "dateTime": 1510858690660, "trialdata": {"rt": -1, "stimulus": "<p id=\"stim\">5</p>", "key_press": -1, "trial_type": "single-stim", "trial_index": 163, "time_elapsed": 758008, "internal_node_id": "0.0-122.0-5.0"}}, {"uniqueid": "MTK0402:3YOH7BII0AEMMVTWGOXB08P48NCVKO", "current_trial": 164, "dateTime": 1510858691660, "trialdata": {"rt": -1, "stimulus": "<p id=\"stim\">4</p>", "key_press": -1, "trial_type": "single-stim", "trial_index": 164, "time_elapsed": 759008, "internal_node_id": "0.0-122.0-6.0"}}, {"uniqueid": "MTK0402:3YOH7BII0AEMMVTWGOXB08P48NCVKO", "current_trial": 165, "dateTime": 1510858692660, "trialdata": {"rt": -1, "stimulus": "<p id=\"stim\">3</p>", "key_press": -1, "trial_type": "single-stim", "trial_index": 165, "time_elapsed": 760008, "internal_node_id": "0.0-122.0-7.0"}}, {"uniqueid": "MTK0402:3YOH7BII0AEMMVTWGOXB08P48NCVKO", "current_trial": 166, "dateTime": 1510858693661, "trialdata": {"rt": -1, "stimulus": "<p id=\"stim\">2</p>", "key_press": -1, "trial_type": "single-stim", "trial_index": 166, "time_elapsed": 761009, "internal_node_id": "0.0-122.0-8.0"}}, {"uniqueid": "MTK0402:3YOH7BII0AEMMVTWGOXB08P48NCVKO", "current_trial": 167, "dateTime": 1510858694662, "trialdata": {"rt": -1, "stimulus": "<p id=\"stim\">1</p>", "key_press": -1, "trial_type": "single-stim", "trial_index": 167, "time_elapsed": 762010, "internal_node_id": "0.0-122.0-9.0"}}, {"uniqueid": "MTK0402:3YOH7BII0AEMMVTWGOXB08P48NCVKO", "current_trial": 168, "dateTime": 1510858696162, "trialdata": {"rt": -1, "stimulus": "<p id=\"stim\">+</p>", "key_press": -1, "type": "FIXATION", "trial_type": "single-stim", "trial_index": 168, "time_elapsed": 763510, "internal_node_id": "0.0-123.0-0.0"}}, {"uniqueid": "MTK0402:3YOH7BII0AEMMVTWGOXB08P48NCVKO", "current_trial": 169, "dateTime": 1510858697799, "trialdata": {"rt": -1000, "stimulus": "/static/audio/wordpool/SALAD.wav", "key_press": -1, "type": "PRES_AUD", "word": "salad", "wordID": 1223, "conditions": [24, 800, "a", 12000], "trial": 4, "serialpos": 0, "trial_type": "single-audio", "trial_index": 169, "time_elapsed": 765147, "internal_node_id": "0.0-124.0"}}, {"uniqueid": "MTK0402:3YOH7BII0AEMMVTWGOXB08P48NCVKO", "current_trial": 170, "dateTime": 1510858699543, "trialdata": {"rt": -1000, "stimulus": "/static/audio/wordpool/SERVANT.wav", "key_press": -1, "type": "PRES_AUD", "word": "servant", "wordID": 1270, "conditions": [24, 800, "a", 12000], "trial": 4, "serialpos": 1, "trial_type": "single-audio", "trial_index": 170, "time_elapsed": 766891, "internal_node_id": "0.0-125.0"}}, {"uniqueid": "MTK0402:3YOH7BII0AEMMVTWGOXB08P48NCVKO", "current_trial": 171, "dateTime": 1510858701496, "trialdata": {"rt": -1000, "stimulus": "/static/audio/wordpool/TOASTER.wav", "key_press": -1, "type": "PRES_AUD", "word": "toaster", "wordID": 1471, "conditions": [24, 800, "a", 12000], "trial": 4, "serialpos": 2, "trial_type": "single-audio", "trial_index": 171, "time_elapsed": 768844, "internal_node_id": "0.0-126.0"}}, {"uniqueid": "MTK0402:3YOH7BII0AEMMVTWGOXB08P48NCVKO", "current_trial": 172, "dateTime": 1510858703279, "trialdata": {"rt": -1000, "stimulus": "/static/audio/wordpool/DONKEY.wav", "key_press": -1, "type": "PRES_AUD", "word": "donkey", "wordID": 483, "conditions": [24, 800, "a", 12000], "trial": 4, "serialpos": 3, "trial_type": "single-audio", "trial_index": 172, "time_elapsed": 770627, "internal_node_id": "0.0-127.0"}}, {"uniqueid": "MTK0402:3YOH7BII0AEMMVTWGOXB08P48NCVKO", "current_trial": 173, "dateTime": 1510858705170, "trialdata": {"rt": -1000, "stimulus": "/static/audio/wordpool/CRAB.wav", "key_press": -1, "type": "PRES_AUD", "word": "crab", "wordID": 396, "conditions": [24, 800, "a", 12000], "trial": 4, "serialpos": 4, "trial_type": "single-audio", "trial_index": 173, "time_elapsed": 772518, "internal_node_id": "0.0-128.0"}}, {"uniqueid": "MTK0402:3YOH7BII0AEMMVTWGOXB08P48NCVKO", "current_trial": 174, "dateTime": 1510858706922, "trialdata": {"rt": -1000, "stimulus": "/static/audio/wordpool/HORNET.wav", "key_press": -1, "type": "PRES_AUD", "word": "hornet", "wordID": 717, "conditions": [24, 800, "a", 12000], "trial": 4, "serialpos": 5, "trial_type": "single-audio", "trial_index": 174, "time_elapsed": 774270, "internal_node_id": "0.0-129.0"}}, {"uniqueid": "MTK0402:3YOH7BII0AEMMVTWGOXB08P48NCVKO", "current_trial": 175, "dateTime": 1510858708753, "trialdata": {"rt": -1000, "stimulus": "/static/audio/wordpool/CAMEL.wav", "key_press": -1, "type": "PRES_AUD", "word": "camel", "wordID": 222, "conditions": [24, 800, "a", 12000], "trial": 4, "serialpos": 6, "trial_type": "single-audio", "trial_index": 175, "time_elapsed": 776101, "internal_node_id": "0.0-130.0"}}, {"uniqueid": "MTK0402:3YOH7BII0AEMMVTWGOXB08P48NCVKO", "current_trial": 176, "dateTime": 1510858710732, "trialdata": {"rt": -1000, "stimulus": "/static/audio/wordpool/BARLEY.wav", "key_press": -1, "type": "PRES_AUD", "word": "barley", "wordID": 87, "conditions": [24, 800, "a", 12000], "trial": 4, "serialpos": 7, "trial_type": "single-audio", "trial_index": 176, "time_elapsed": 778080, "internal_node_id": "0.0-131.0"}}, {"uniqueid": "MTK0402:3YOH7BII0AEMMVTWGOXB08P48NCVKO", "current_trial": 177, "dateTime": 1510858712675, "trialdata": {"rt": -1000, "stimulus": "/static/audio/wordpool/LIGHTNING.wav", "key_press": -1, "type": "PRES_AUD", "word": "lightning", "wordID": 819, "conditions": [24, 800, "a", 12000], "trial": 4, "serialpos": 8, "trial_type": "single-audio", "trial_index": 177, "time_elapsed": 780023, "internal_node_id": "0.0-132.0"}}, {"uniqueid": "MTK0402:3YOH7BII0AEMMVTWGOXB08P48NCVKO", "current_trial": 178, "dateTime": 1510858714283, "trialdata": {"rt": -1000, "stimulus": "/static/audio/wordpool/PIZZA.wav", "key_press": -1, "type": "PRES_AUD", "word": "pizza", "wordID": 1078, "conditions": [24, 800, "a", 12000], "trial": 4, "serialpos": 9, "trial_type": "single-audio", "trial_index": 178, "time_elapsed": 781631, "internal_node_id": "0.0-133.0"}}, {"uniqueid": "MTK0402:3YOH7BII0AEMMVTWGOXB08P48NCVKO", "current_trial": 179, "dateTime": 1510858715972, "trialdata": {"rt": -1000, "stimulus": "/static/audio/wordpool/PASTA.wav", "key_press": -1, "type": "PRES_AUD", "word": "pasta", "wordID": 1020, "conditions": [24, 800, "a", 12000], "trial": 4, "serialpos": 10, "trial_type": "single-audio", "trial_index": 179, "time_elapsed": 783320, "internal_node_id": "0.0-134.0"}}, {"uniqueid": "MTK0402:3YOH7BII0AEMMVTWGOXB08P48NCVKO", "current_trial": 180, "dateTime": 1510858717817, "trialdata": {"rt": -1000, "stimulus": "/static/audio/wordpool/MUFFIN.wav", "key_press": -1, "type": "PRES_AUD", "word": "muffin", "wordID": 928, "conditions": [24, 800, "a", 12000], "trial": 4, "serialpos": 11, "trial_type": "single-audio", "trial_index": 180, "time_elapsed": 785165, "internal_node_id": "0.0-135.0"}}, {"uniqueid": "MTK0402:3YOH7BII0AEMMVTWGOXB08P48NCVKO", "current_trial": 181, "dateTime": 1510858719648, "trialdata": {"rt": -1000, "stimulus": "/static/audio/wordpool/ANTLER.wav", "key_press": -1, "type": "PRES_AUD", "word": "antler", "wordID": 28, "conditions": [24, 800, "a", 12000], "trial": 4, "serialpos": 12, "trial_type": "single-audio", "trial_index": 181, "time_elapsed": 786996, "internal_node_id": "0.0-136.0"}}, {"uniqueid": "MTK0402:3YOH7BII0AEMMVTWGOXB08P48NCVKO", "current_trial": 182, "dateTime": 1510858721423, "trialdata": {"rt": -1000, "stimulus": "/static/audio/wordpool/TWISTER.wav", "key_press": -1, "type": "PRES_AUD", "word": "twister", "wordID": 1529, "conditions": [24, 800, "a", 12000], "trial": 4, "serialpos": 13, "trial_type": "single-audio", "trial_index": 182, "time_elapsed": 788771, "internal_node_id": "0.0-137.0"}}, {"uniqueid": "MTK0402:3YOH7BII0AEMMVTWGOXB08P48NCVKO", "current_trial": 183, "dateTime": 1510858723196, "trialdata": {"rt": -1000, "stimulus": "/static/audio/wordpool/LEG.wav", "key_press": -1, "type": "PRES_AUD", "word": "leg", "wordID": 808, "conditions": [24, 800, "a", 12000], "trial": 4, "serialpos": 14, "trial_type": "single-audio", "trial_index": 183, "time_elapsed": 790544, "internal_node_id": "0.0-138.0"}}, {"uniqueid": "MTK0402:3YOH7BII0AEMMVTWGOXB08P48NCVKO", "current_trial": 184, "dateTime": 1510858724984, "trialdata": {"rt": -1000, "stimulus": "/static/audio/wordpool/BOX.wav", "key_press": -1, "type": "PRES_AUD", "word": "box", "wordID": 158, "conditions": [24, 800, "a", 12000], "trial": 4, "serialpos": 15, "trial_type": "single-audio", "trial_index": 184, "time_elapsed": 792332, "internal_node_id": "0.0-139.0"}}, {"uniqueid": "MTK0402:3YOH7BII0AEMMVTWGOXB08P48NCVKO", "current_trial": 185, "dateTime": 1510858726892, "trialdata": {"rt": -1000, "stimulus": "/static/audio/wordpool/STAMP.wav", "key_press": -1, "type": "PRES_AUD", "word": "stamp", "wordID": 1369, "conditions": [24, 800, "a", 12000], "trial": 4, "serialpos": 16, "trial_type": "single-audio", "trial_index": 185, "time_elapsed": 794240, "internal_node_id": "0.0-140.0"}}, {"uniqueid": "MTK0402:3YOH7BII0AEMMVTWGOXB08P48NCVKO", "current_trial": 186, "dateTime": 1510858728708, "trialdata": {"rt": -1000, "stimulus": "/static/audio/wordpool/EGYPT.wav", "key_press": -1, "type": "PRES_AUD", "word": "egypt", "wordID": 518, "conditions": [24, 800, "a", 12000], "trial": 4, "serialpos": 17, "trial_type": "single-audio", "trial_index": 186, "time_elapsed": 796056, "internal_node_id": "0.0-141.0"}}, {"uniqueid": "MTK0402:3YOH7BII0AEMMVTWGOXB08P48NCVKO", "current_trial": 187, "dateTime": 1510858730519, "trialdata": {"rt": -1000, "stimulus": "/static/audio/wordpool/FRANCE.wav", "key_press": -1, "type": "PRES_AUD", "word": "france", "wordID": 600, "conditions": [24, 800, "a", 12000], "trial": 4, "serialpos": 18, "trial_type": "single-audio", "trial_index": 187, "time_elapsed": 797867, "internal_node_id": "0.0-142.0"}}, {"uniqueid": "MTK0402:3YOH7BII0AEMMVTWGOXB08P48NCVKO", "current_trial": 188, "dateTime": 1510858732376, "trialdata": {"rt": -1000, "stimulus": "/static/audio/wordpool/JAPAN.wav", "key_press": -1, "type": "PRES_AUD", "word": "japan", "wordID": 748, "conditions": [24, 800, "a", 12000], "trial": 4, "serialpos": 19, "trial_type": "single-audio", "trial_index": 188, "time_elapsed": 799724, "internal_node_id": "0.0-143.0"}}, {"uniqueid": "MTK0402:3YOH7BII0AEMMVTWGOXB08P48NCVKO", "current_trial": 189, "dateTime": 1510858734256, "trialdata": {"rt": -1000, "stimulus": "/static/audio/wordpool/BEAKER.wav", "key_press": -1, "type": "PRES_AUD", "word": "beaker", "wordID": 103, "conditions": [24, 800, "a", 12000], "trial": 4, "serialpos": 20, "trial_type": "single-audio", "trial_index": 189, "time_elapsed": 801604, "internal_node_id": "0.0-144.0"}}, {"uniqueid": "MTK0402:3YOH7BII0AEMMVTWGOXB08P48NCVKO", "current_trial": 190, "dateTime": 1510858736241, "trialdata": {"rt": -1000, "stimulus": "/static/audio/wordpool/FLASHLIGHT.wav", "key_press": -1, "type": "PRES_AUD", "word": "flashlight", "wordID": 574, "conditions": [24, 800, "a", 12000], "trial": 4, "serialpos": 21, "trial_type": "single-audio", "trial_index": 190, "time_elapsed": 803589, "internal_node_id": "0.0-145.0"}}, {"uniqueid": "MTK0402:3YOH7BII0AEMMVTWGOXB08P48NCVKO", "current_trial": 191, "dateTime": 1510858738008, "trialdata": {"rt": -1000, "stimulus": "/static/audio/wordpool/EUROPE.wav", "key_press": -1, "type": "PRES_AUD", "word": "europe", "wordID": 540, "conditions": [24, 800, "a", 12000], "trial": 4, "serialpos": 22, "trial_type": "single-audio", "trial_index": 191, "time_elapsed": 805356, "internal_node_id": "0.0-146.0"}}, {"uniqueid": "MTK0402:3YOH7BII0AEMMVTWGOXB08P48NCVKO", "current_trial": 192, "dateTime": 1510858739868, "trialdata": {"rt": -1000, "stimulus": "/static/audio/wordpool/FRECKLE.wav", "key_press": -1, "type": "PRES_AUD", "word": "freckle", "wordID": 601, "conditions": [24, 800, "a", 12000], "trial": 4, "serialpos": 23, "trial_type": "single-audio", "trial_index": 192, "time_elapsed": 807216, "internal_node_id": "0.0-147.0"}}, {"uniqueid": "MTK0402:3YOH7BII0AEMMVTWGOXB08P48NCVKO", "current_trial": 193, "dateTime": 1510858741123, "trialdata": {"rt": -1, "stimulus": "", "key_press": -1, "type": "PRE_RECALL_DELAY", "trial_type": "single-stim", "trial_index": 193, "time_elapsed": 808471, "internal_node_id": "0.0-148.0-0.0"}}, {"uniqueid": "MTK0402:3YOH7BII0AEMMVTWGOXB08P48NCVKO", "current_trial": 194, "dateTime": 1510858741623, "trialdata": {"rt": -1000, "stimulus": "/static/audio/400Hz.wav", "key_press": -1, "type": "PRE_RECALL_ALERT", "trial_type": "single-audio", "trial_index": 194, "time_elapsed": 808971, "internal_node_id": "0.0-149.0"}}, {"uniqueid": "MTK0402:3YOH7BII0AEMMVTWGOXB08P48NCVKO", "current_trial": 195, "dateTime": 1510858801626, "trialdata": {"rt": [1953, 2875, 4227, 5443, 6594, 7954, 42205], "recwords": ["salad", "pizza", "egypt", "france", "europe", "frekcle", "leg"], "type": "FREE_RECALL", "conditions": [24, 800, "a", 12000], "trial": 4, "trial_type": "free-recall", "trial_index": 195, "time_elapsed": 868973, "internal_node_id": "0.0-150.0-0.0"}}, {"uniqueid": "MTK0402:3YOH7BII0AEMMVTWGOXB08P48NCVKO", "current_trial": 196, "dateTime": 1510858807700, "trialdata": {"rt": 4074, "key_press": 32, "type": "INSTRUCTIONS", "trial_type": "text", "trial_index": 196, "time_elapsed": 875048, "internal_node_id": "0.0-151.0"}}, {"uniqueid": "MTK0402:3YOH7BII0AEMMVTWGOXB08P48NCVKO", "current_trial": 197, "dateTime": 1510858833700, "trialdata": {"rt": [3317, 4796, 7269, 8851, 10176, 11681, 12697, 16077, 17974, 20496, 23908], "responses": ["20", "18", "12", "13", "10", "14", "6", "19", "7", "21", "13"], "num1": [6, 3, 6, 3, 4, 8, 4, 1, 4, 8, 2, 6], "num2": [5, 7, 1, 7, 5, 3, 2, 9, 2, 5, 4, 2], "num3": [9, 8, 5, 3, 1, 3, 2, 9, 3, 8, 7, 5], "type": "DISTRACTOR", "conditions": [12, 1600, "v", 24000], "trial": 5, "trial_type": "math-distractor", "trial_index": 197, "time_elapsed": 901048, "internal_node_id": "0.0-152.0"}}, {"uniqueid": "MTK0402:3YOH7BII0AEMMVTWGOXB08P48NCVKO", "current_trial": 198, "dateTime": 1510858836701, "trialdata": {"rt": -1, "stimulus": "<p id=\"stim\">10</p>", "key_press": -1, "trial_type": "single-stim", "trial_index": 198, "time_elapsed": 904049, "internal_node_id": "0.0-153.0-0.0"}}, {"uniqueid": "MTK0402:3YOH7BII0AEMMVTWGOXB08P48NCVKO", "current_trial": 199, "dateTime": 1510858837702, "trialdata": {"rt": -1, "stimulus": "<p id=\"stim\">9</p>", "key_press": -1, "trial_type": "single-stim", "trial_index": 199, "time_elapsed": 905050, "internal_node_id": "0.0-153.0-1.0"}}, {"uniqueid": "MTK0402:3YOH7BII0AEMMVTWGOXB08P48NCVKO", "current_trial": 200, "dateTime": 1510858838703, "trialdata": {"rt": -1, "stimulus": "<p id=\"stim\">8</p>", "key_press": -1, "trial_type": "single-stim", "trial_index": 200, "time_elapsed": 906051, "internal_node_id": "0.0-153.0-2.0"}}, {"uniqueid": "MTK0402:3YOH7BII0AEMMVTWGOXB08P48NCVKO", "current_trial": 201, "dateTime": 1510858839704, "trialdata": {"rt": -1, "stimulus": "<p id=\"stim\">7</p>", "key_press": -1, "trial_type": "single-stim", "trial_index": 201, "time_elapsed": 907052, "internal_node_id": "0.0-153.0-3.0"}}, {"uniqueid": "MTK0402:3YOH7BII0AEMMVTWGOXB08P48NCVKO", "current_trial": 202, "dateTime": 1510858840704, "trialdata": {"rt": -1, "stimulus": "<p id=\"stim\">6</p>", "key_press": -1, "trial_type": "single-stim", "trial_index": 202, "time_elapsed": 908052, "internal_node_id": "0.0-153.0-4.0"}}, {"uniqueid": "MTK0402:3YOH7BII0AEMMVTWGOXB08P48NCVKO", "current_trial": 203, "dateTime": 1510858841705, "trialdata": {"rt": -1, "stimulus": "<p id=\"stim\">5</p>", "key_press": -1, "trial_type": "single-stim", "trial_index": 203, "time_elapsed": 909053, "internal_node_id": "0.0-153.0-5.0"}}, {"uniqueid": "MTK0402:3YOH7BII0AEMMVTWGOXB08P48NCVKO", "current_trial": 204, "dateTime": 1510858842706, "trialdata": {"rt": -1, "stimulus": "<p id=\"stim\">4</p>", "key_press": -1, "trial_type": "single-stim", "trial_index": 204, "time_elapsed": 910054, "internal_node_id": "0.0-153.0-6.0"}}, {"uniqueid": "MTK0402:3YOH7BII0AEMMVTWGOXB08P48NCVKO", "current_trial": 205, "dateTime": 1510858843707, "trialdata": {"rt": -1, "stimulus": "<p id=\"stim\">3</p>", "key_press": -1, "trial_type": "single-stim", "trial_index": 205, "time_elapsed": 911055, "internal_node_id": "0.0-153.0-7.0"}}, {"uniqueid": "MTK0402:3YOH7BII0AEMMVTWGOXB08P48NCVKO", "current_trial": 206, "dateTime": 1510858844708, "trialdata": {"rt": -1, "stimulus": "<p id=\"stim\">2</p>", "key_press": -1, "trial_type": "single-stim", "trial_index": 206, "time_elapsed": 912056, "internal_node_id": "0.0-153.0-8.0"}}, {"uniqueid": "MTK0402:3YOH7BII0AEMMVTWGOXB08P48NCVKO", "current_trial": 207, "dateTime": 1510858845708, "trialdata": {"rt": -1, "stimulus": "<p id=\"stim\">1</p>", "key_press": -1, "trial_type": "single-stim", "trial_index": 207, "time_elapsed": 913056, "internal_node_id": "0.0-153.0-9.0"}}, {"uniqueid": "MTK0402:3YOH7BII0AEMMVTWGOXB08P48NCVKO", "current_trial": 208, "dateTime": 1510858847209, "trialdata": {"rt": -1, "stimulus": "<p id=\"stim\">+</p>", "key_press": -1, "type": "FIXATION", "trial_type": "single-stim", "trial_index": 208, "time_elapsed": 914557, "internal_node_id": "0.0-154.0-0.0"}}, {"uniqueid": "MTK0402:3YOH7BII0AEMMVTWGOXB08P48NCVKO", "current_trial": 209, "dateTime": 1510858848810, "trialdata": {"rt": -1, "stimulus": "<p id=\"stim\">SPOOL</p>", "key_press": -1, "type": "PRES_VIS", "word": "spool", "wordID": 1355, "conditions": [12, 1600, "v", 24000], "trial": 5, "serialpos": 0, "trial_type": "single-stim", "trial_index": 209, "time_elapsed": 916158, "internal_node_id": "0.0-155.0"}}, {"uniqueid": "MTK0402:3YOH7BII0AEMMVTWGOXB08P48NCVKO", "current_trial": 210, "dateTime": 1510858851565, "trialdata": {"rt": -1, "stimulus": "<p id=\"stim\">ROD</p>", "key_press": -1, "type": "PRES_VIS", "word": "rod", "wordID": 1202, "conditions": [12, 1600, "v", 24000], "trial": 5, "serialpos": 1, "trial_type": "single-stim", "trial_index": 210, "time_elapsed": 918913, "internal_node_id": "0.0-156.0"}}, {"uniqueid": "MTK0402:3YOH7BII0AEMMVTWGOXB08P48NCVKO", "current_trial": 211, "dateTime": 1510858854325, "trialdata": {"rt": -1, "stimulus": "<p id=\"stim\">BODY</p>", "key_press": -1, "type": "PRES_VIS", "word": "body", "wordID": 144, "conditions": [12, 1600, "v", 24000], "trial": 5, "serialpos": 2, "trial_type": "single-stim", "trial_index": 211, "time_elapsed": 921673, "internal_node_id": "0.0-157.0"}}, {"uniqueid": "MTK0402:3YOH7BII0AEMMVTWGOXB08P48NCVKO", "current_trial": 212, "dateTime": 1510858856798, "trialdata": {"rt": -1, "stimulus": "<p id=\"stim\">TRENCH</p>", "key_press": -1, "type": "PRES_VIS", "word": "trench", "wordID": 1502, "conditions": [12, 1600, "v", 24000], "trial": 5, "serialpos": 3, "trial_type": "single-stim", "trial_index": 212, "time_elapsed": 924146, "internal_node_id": "0.0-158.0"}}, {"uniqueid": "MTK0402:3YOH7BII0AEMMVTWGOXB08P48NCVKO", "current_trial": 213, "dateTime": 1510858859289, "trialdata": {"rt": -1, "stimulus": "<p id=\"stim\">FIREPLACE</p>", "key_press": -1, "type": "PRES_VIS", "word": "fireplace", "wordID": 569, "conditions": [12, 1600, "v", 24000], "trial": 5, "serialpos": 4, "trial_type": "single-stim", "trial_index": 213, "time_elapsed": 926637, "internal_node_id": "0.0-159.0"}}, {"uniqueid": "MTK0402:3YOH7BII0AEMMVTWGOXB08P48NCVKO", "current_trial": 214, "dateTime": 1510858861857, "trialdata": {"rt": -1, "stimulus": "<p id=\"stim\">DRIVER</p>", "key_press": -1, "type": "PRES_VIS", "word": "driver", "wordID": 498, "conditions": [12, 1600, "v", 24000], "trial": 5, "serialpos": 5, "trial_type": "single-stim", "trial_index": 214, "time_elapsed": 929205, "internal_node_id": "0.0-160.0"}}, {"uniqueid": "MTK0402:3YOH7BII0AEMMVTWGOXB08P48NCVKO", "current_trial": 215, "dateTime": 1510858864656, "trialdata": {"rt": -1, "stimulus": "<p id=\"stim\">DINER</p>", "key_press": -1, "type": "PRES_VIS", "word": "diner", "wordID": 466, "conditions": [12, 1600, "v", 24000], "trial": 5, "serialpos": 6, "trial_type": "single-stim", "trial_index": 215, "time_elapsed": 932004, "internal_node_id": "0.0-161.0"}}, {"uniqueid": "MTK0402:3YOH7BII0AEMMVTWGOXB08P48NCVKO", "current_trial": 216, "dateTime": 1510858867227, "trialdata": {"rt": -1, "stimulus": "<p id=\"stim\">STOVE</p>", "key_press": -1, "type": "PRES_VIS", "word": "stove", "wordID": 1387, "conditions": [12, 1600, "v", 24000], "trial": 5, "serialpos": 7, "trial_type": "single-stim", "trial_index": 216, "time_elapsed": 934574, "internal_node_id": "0.0-162.0"}}, {"uniqueid": "MTK0402:3YOH7BII0AEMMVTWGOXB08P48NCVKO", "current_trial": 217, "dateTime": 1510858869995, "trialdata": {"rt": -1, "stimulus": "<p id=\"stim\">PLASTER</p>", "key_press": -1, "type": "PRES_VIS", "word": "plaster", "wordID": 1084, "conditions": [12, 1600, "v", 24000], "trial": 5, "serialpos": 8, "trial_type": "single-stim", "trial_index": 217, "time_elapsed": 937343, "internal_node_id": "0.0-163.0"}}, {"uniqueid": "MTK0402:3YOH7BII0AEMMVTWGOXB08P48NCVKO", "current_trial": 218, "dateTime": 1510858872749, "trialdata": {"rt": -1, "stimulus": "<p id=\"stim\">ATLAS</p>", "key_press": -1, "type": "PRES_VIS", "word": "atlas", "wordID": 52, "conditions": [12, 1600, "v", 24000], "trial": 5, "serialpos": 9, "trial_type": "single-stim", "trial_index": 218, "time_elapsed": 940097, "internal_node_id": "0.0-164.0"}}, {"uniqueid": "MTK0402:3YOH7BII0AEMMVTWGOXB08P48NCVKO", "current_trial": 219, "dateTime": 1510858875199, "trialdata": {"rt": -1, "stimulus": "<p id=\"stim\">HELMET</p>", "key_press": -1, "type": "PRES_VIS", "word": "helmet", "wordID": 701, "conditions": [12, 1600, "v", 24000], "trial": 5, "serialpos": 10, "trial_type": "single-stim", "trial_index": 219, "time_elapsed": 942547, "internal_node_id": "0.0-165.0"}}, {"uniqueid": "MTK0402:3YOH7BII0AEMMVTWGOXB08P48NCVKO", "current_trial": 220, "dateTime": 1510858877692, "trialdata": {"rt": -1, "stimulus": "<p id=\"stim\">CANDY</p>", "key_press": -1, "type": "PRES_VIS", "word": "candy", "wordID": 229, "conditions": [12, 1600, "v", 24000], "trial": 5, "serialpos": 11, "trial_type": "single-stim", "trial_index": 220, "time_elapsed": 945040, "internal_node_id": "0.0-166.0"}}, {"uniqueid": "MTK0402:3YOH7BII0AEMMVTWGOXB08P48NCVKO", "current_trial": 221, "dateTime": 1510858879796, "trialdata": {"rt": -1, "stimulus": "", "key_press": -1, "type": "PRE_RECALL_DELAY", "trial_type": "single-stim", "trial_index": 221, "time_elapsed": 947144, "internal_node_id": "0.0-167.0-0.0"}}, {"uniqueid": "MTK0402:3YOH7BII0AEMMVTWGOXB08P48NCVKO", "current_trial": 222, "dateTime": 1510858880296, "trialdata": {"rt": -1000, "stimulus": "/static/audio/400Hz.wav", "key_press": -1, "type": "PRE_RECALL_ALERT", "trial_type": "single-audio", "trial_index": 222, "time_elapsed": 947644, "internal_node_id": "0.0-168.0"}}, {"uniqueid": "MTK0402:3YOH7BII0AEMMVTWGOXB08P48NCVKO", "current_trial": 223, "dateTime": 1510858940297, "trialdata": {"rt": [1526, 2133, 2760, 3355, 4380, 14801], "recwords": ["spool", "rod", "candy", "body", "trench", "atlas"], "type": "FREE_RECALL", "conditions": [12, 1600, "v", 24000], "trial": 5, "trial_type": "free-recall", "trial_index": 223, "time_elapsed": 1007644, "internal_node_id": "0.0-169.0-0.0"}}, {"uniqueid": "MTK0402:3YOH7BII0AEMMVTWGOXB08P48NCVKO", "current_trial": 224, "dateTime": 1510858943575, "trialdata": {"rt": 1278, "key_press": 32, "type": "INSTRUCTIONS", "trial_type": "text", "trial_index": 224, "time_elapsed": 1010923, "internal_node_id": "0.0-170.0"}}, {"uniqueid": "MTK0402:3YOH7BII0AEMMVTWGOXB08P48NCVKO", "current_trial": 225, "dateTime": 1510858957578, "trialdata": {"rt": [2125, 4377, 6486, 8862, 11017], "responses": ["17", "17", "13", "10", "17"], "num1": [1, 6, 5, 5, 4, 2], "num2": [8, 5, 3, 2, 7, 2], "num3": [8, 6, 5, 3, 6, 3], "type": "DISTRACTOR", "conditions": [12, 800, "v", 12000], "trial": 6, "trial_type": "math-distractor", "trial_index": 225, "time_elapsed": 1024926, "internal_node_id": "0.0-171.0"}}, {"uniqueid": "MTK0402:3YOH7BII0AEMMVTWGOXB08P48NCVKO", "current_trial": 226, "dateTime": 1510858960578, "trialdata": {"rt": -1, "stimulus": "<p id=\"stim\">10</p>", "key_press": -1, "trial_type": "single-stim", "trial_index": 226, "time_elapsed": 1027926, "internal_node_id": "0.0-172.0-0.0"}}, {"uniqueid": "MTK0402:3YOH7BII0AEMMVTWGOXB08P48NCVKO", "current_trial": 227, "dateTime": 1510858961579, "trialdata": {"rt": -1, "stimulus": "<p id=\"stim\">9</p>", "key_press": -1, "trial_type": "single-stim", "trial_index": 227, "time_elapsed": 1028927, "internal_node_id": "0.0-172.0-1.0"}}, {"uniqueid": "MTK0402:3YOH7BII0AEMMVTWGOXB08P48NCVKO", "current_trial": 228, "dateTime": 1510858962580, "trialdata": {"rt": -1, "stimulus": "<p id=\"stim\">8</p>", "key_press": -1, "trial_type": "single-stim", "trial_index": 228, "time_elapsed": 1029928, "internal_node_id": "0.0-172.0-2.0"}}, {"uniqueid": "MTK0402:3YOH7BII0AEMMVTWGOXB08P48NCVKO", "current_trial": 229, "dateTime": 1510858963580, "trialdata": {"rt": -1, "stimulus": "<p id=\"stim\">7</p>", "key_press": -1, "trial_type": "single-stim", "trial_index": 229, "time_elapsed": 1030928, "internal_node_id": "0.0-172.0-3.0"}}, {"uniqueid": "MTK0402:3YOH7BII0AEMMVTWGOXB08P48NCVKO", "current_trial": 230, "dateTime": 1510858964580, "trialdata": {"rt": -1, "stimulus": "<p id=\"stim\">6</p>", "key_press": -1, "trial_type": "single-stim", "trial_index": 230, "time_elapsed": 1031928, "internal_node_id": "0.0-172.0-4.0"}}, {"uniqueid": "MTK0402:3YOH7BII0AEMMVTWGOXB08P48NCVKO", "current_trial": 231, "dateTime": 1510858965580, "trialdata": {"rt": -1, "stimulus": "<p id=\"stim\">5</p>", "key_press": -1, "trial_type": "single-stim", "trial_index": 231, "time_elapsed": 1032928, "internal_node_id": "0.0-172.0-5.0"}}, {"uniqueid": "MTK0402:3YOH7BII0AEMMVTWGOXB08P48NCVKO", "current_trial": 232, "dateTime": 1510858966580, "trialdata": {"rt": -1, "stimulus": "<p id=\"stim\">4</p>", "key_press": -1, "trial_type": "single-stim", "trial_index": 232, "time_elapsed": 1033928, "internal_node_id": "0.0-172.0-6.0"}}, {"uniqueid": "MTK0402:3YOH7BII0AEMMVTWGOXB08P48NCVKO", "current_trial": 233, "dateTime": 1510858967581, "trialdata": {"rt": -1, "stimulus": "<p id=\"stim\">3</p>", "key_press": -1, "trial_type": "single-stim", "trial_index": 233, "time_elapsed": 1034929, "internal_node_id": "0.0-172.0-7.0"}}, {"uniqueid": "MTK0402:3YOH7BII0AEMMVTWGOXB08P48NCVKO", "current_trial": 234, "dateTime": 1510858968582, "trialdata": {"rt": -1, "stimulus": "<p id=\"stim\">2</p>", "key_press": -1, "trial_type": "single-stim", "trial_index": 234, "time_elapsed": 1035930, "internal_node_id": "0.0-172.0-8.0"}}, {"uniqueid": "MTK0402:3YOH7BII0AEMMVTWGOXB08P48NCVKO", "current_trial": 235, "dateTime": 1510858969582, "trialdata": {"rt": -1, "stimulus": "<p id=\"stim\">1</p>", "key_press": -1, "trial_type": "single-stim", "trial_index": 235, "time_elapsed": 1036930, "internal_node_id": "0.0-172.0-9.0"}}, {"uniqueid": "MTK0402:3YOH7BII0AEMMVTWGOXB08P48NCVKO", "current_trial": 236, "dateTime": 1510858971082, "trialdata": {"rt": -1, "stimulus": "<p id=\"stim\">+</p>", "key_press": -1, "type": "FIXATION", "trial_type": "single-stim", "trial_index": 236, "time_elapsed": 1038430, "internal_node_id": "0.0-173.0-0.0"}}, {"uniqueid": "MTK0402:3YOH7BII0AEMMVTWGOXB08P48NCVKO", "current_trial": 237, "dateTime": 1510858971882, "trialdata": {"rt": -1, "stimulus": "<p id=\"stim\">WIFE</p>", "key_press": -1, "type": "PRES_VIS", "word": "wife", "wordID": 1608, "conditions": [12, 800, "v", 12000], "trial": 6, "serialpos": 0, "trial_type": "single-stim", "trial_index": 237, "time_elapsed": 1039230, "internal_node_id": "0.0-174.0"}}, {"uniqueid": "MTK0402:3YOH7BII0AEMMVTWGOXB08P48NCVKO", "current_trial": 238, "dateTime": 1510858973809, "trialdata": {"rt": -1, "stimulus": "<p id=\"stim\">SKILLET</p>", "key_press": -1, "type": "PRES_VIS", "word": "skillet", "wordID": 1316, "conditions": [12, 800, "v", 12000], "trial": 6, "serialpos": 1, "trial_type": "single-stim", "trial_index": 238, "time_elapsed": 1041157, "internal_node_id": "0.0-175.0"}}, {"uniqueid": "MTK0402:3YOH7BII0AEMMVTWGOXB08P48NCVKO", "current_trial": 239, "dateTime": 1510858975796, "trialdata": {"rt": -1, "stimulus": "<p id=\"stim\">SALMON</p>", "key_press": -1, "type": "PRES_VIS", "word": "salmon", "wordID": 1226, "conditions": [12, 800, "v", 12000], "trial": 6, "serialpos": 2, "trial_type": "single-stim", "trial_index": 239, "time_elapsed": 1043144, "internal_node_id": "0.0-176.0"}}, {"uniqueid": "MTK0402:3YOH7BII0AEMMVTWGOXB08P48NCVKO", "current_trial": 240, "dateTime": 1510858977546, "trialdata": {"rt": -1, "stimulus": "<p id=\"stim\">SCALLOP</p>", "key_press": -1, "type": "PRES_VIS", "word": "scallop", "wordID": 1241, "conditions": [12, 800, "v", 12000], "trial": 6, "serialpos": 3, "trial_type": "single-stim", "trial_index": 240, "time_elapsed": 1044894, "internal_node_id": "0.0-177.0"}}, {"uniqueid": "MTK0402:3YOH7BII0AEMMVTWGOXB08P48NCVKO", "current_trial": 241, "dateTime": 1510858979343, "trialdata": {"rt": -1, "stimulus": "<p id=\"stim\">SPOON</p>", "key_press": -1, "type": "PRES_VIS", "word": "spoon", "wordID": 1356, "conditions": [12, 800, "v", 12000], "trial": 6, "serialpos": 4, "trial_type": "single-stim", "trial_index": 241, "time_elapsed": 1046691, "internal_node_id": "0.0-178.0"}}, {"uniqueid": "MTK0402:3YOH7BII0AEMMVTWGOXB08P48NCVKO", "current_trial": 242, "dateTime": 1510858981033, "trialdata": {"rt": -1, "stimulus": "<p id=\"stim\">KIDNEY</p>", "key_press": -1, "type": "PRES_VIS", "word": "kidney", "wordID": 775, "conditions": [12, 800, "v", 12000], "trial": 6, "serialpos": 5, "trial_type": "single-stim", "trial_index": 242, "time_elapsed": 1048381, "internal_node_id": "0.0-179.0"}}, {"uniqueid": "MTK0402:3YOH7BII0AEMMVTWGOXB08P48NCVKO", "current_trial": 243, "dateTime": 1510858982647, "trialdata": {"rt": -1, "stimulus": "<p id=\"stim\">SHELF</p>", "key_press": -1, "type": "PRES_VIS", "word": "shelf", "wordID": 1279, "conditions": [12, 800, "v", 12000], "trial": 6, "serialpos": 6, "trial_type": "single-stim", "trial_index": 243, "time_elapsed": 1049995, "internal_node_id": "0.0-180.0"}}, {"uniqueid": "MTK0402:3YOH7BII0AEMMVTWGOXB08P48NCVKO", "current_trial": 244, "dateTime": 1510858984618, "trialdata": {"rt": -1, "stimulus": "<p id=\"stim\">LABEL</p>", "key_press": -1, "type": "PRES_VIS", "word": "label", "wordID": 789, "conditions": [12, 800, "v", 12000], "trial": 6, "serialpos": 7, "trial_type": "single-stim", "trial_index": 244, "time_elapsed": 1051966, "internal_node_id": "0.0-181.0"}}, {"uniqueid": "MTK0402:3YOH7BII0AEMMVTWGOXB08P48NCVKO", "current_trial": 245, "dateTime": 1510858986327, "trialdata": {"rt": -1, "stimulus": "<p id=\"stim\">PISTOL</p>", "key_press": -1, "type": "PRES_VIS", "word": "pistol", "wordID": 1074, "conditions": [12, 800, "v", 12000], "trial": 6, "serialpos": 8, "trial_type": "single-stim", "trial_index": 245, "time_elapsed": 1053675, "internal_node_id": "0.0-182.0"}}, {"uniqueid": "MTK0402:3YOH7BII0AEMMVTWGOXB08P48NCVKO", "current_trial": 246, "dateTime": 1510858988159, "trialdata": {"rt": -1, "stimulus": "<p id=\"stim\">MASK</p>", "key_press": -1, "type": "PRES_VIS", "word": "mask", "wordID": 875, "conditions": [12, 800, "v", 12000], "trial": 6, "serialpos": 9, "trial_type": "single-stim", "trial_index": 246, "time_elapsed": 1055507, "internal_node_id": "0.0-183.0"}}, {"uniqueid": "MTK0402:3YOH7BII0AEMMVTWGOXB08P48NCVKO", "current_trial": 247, "dateTime": 1510858990040, "trialdata": {"rt": -1, "stimulus": "<p id=\"stim\">COTTAGE</p>", "key_press": -1, "type": "PRES_VIS", "word": "cottage", "wordID": 383, "conditions": [12, 800, "v", 12000], "trial": 6, "serialpos": 10, "trial_type": "single-stim", "trial_index": 247, "time_elapsed": 1057388, "internal_node_id": "0.0-184.0"}}, {"uniqueid": "MTK0402:3YOH7BII0AEMMVTWGOXB08P48NCVKO", "current_trial": 248, "dateTime": 1510858991892, "trialdata": {"rt": -1, "stimulus": "<p id=\"stim\">RABBIT</p>", "key_press": -1, "type": "PRES_VIS", "word": "rabbit", "wordID": 1151, "conditions": [12, 800, "v", 12000], "trial": 6, "serialpos": 11, "trial_type": "single-stim", "trial_index": 248, "time_elapsed": 1059240, "internal_node_id": "0.0-185.0"}}, {"uniqueid": "MTK0402:3YOH7BII0AEMMVTWGOXB08P48NCVKO", "current_trial": 249, "dateTime": 1510858994449, "trialdata": {"rt": -1, "stimulus": "", "key_press": -1, "type": "PRE_RECALL_DELAY", "trial_type": "single-stim", "trial_index": 249, "time_elapsed": 1061797, "internal_node_id": "0.0-186.0-0.0"}}, {"uniqueid": "MTK0402:3YOH7BII0AEMMVTWGOXB08P48NCVKO", "current_trial": 250, "dateTime": 1510858994949, "trialdata": {"rt": -1000, "stimulus": "/static/audio/400Hz.wav", "key_press": -1, "type": "PRE_RECALL_ALERT", "trial_type": "single-audio", "trial_index": 250, "time_elapsed": 1062297, "internal_node_id": "0.0-187.0"}}, {"uniqueid": "MTK0402:3YOH7BII0AEMMVTWGOXB08P48NCVKO", "current_trial": 251, "dateTime": 1510859054950, "trialdata": {"rt": [1862, 2726, 3913, 5067, 6762], "recwords": ["wife", "skillet", "scallop", "spoon", "shelf"], "type": "FREE_RECALL", "conditions": [12, 800, "v", 12000], "trial": 6, "trial_type": "free-recall", "trial_index": 251, "time_elapsed": 1122297, "internal_node_id": "0.0-188.0-0.0"}}, {"uniqueid": "MTK0402:3YOH7BII0AEMMVTWGOXB08P48NCVKO", "current_trial": 252, "dateTime": 1510859057980, "trialdata": {"rt": 1030, "key_press": 32, "type": "INSTRUCTIONS", "trial_type": "text", "trial_index": 252, "time_elapsed": 1125328, "internal_node_id": "0.0-189.0"}}, {"uniqueid": "MTK0402:3YOH7BII0AEMMVTWGOXB08P48NCVKO", "current_trial": 253, "dateTime": 1510859083980, "trialdata": {"rt": [3032, 5309, 7674, 12291, 14130, 16956, 19165, 21778], "responses": ["17", "17", "14", "17", "12", "12", "14", "19"], "num1": [7, 4, 5, 2, 6, 1, 3, 6, 2], "num2": [4, 5, 7, 8, 5, 7, 8, 5, 7], "num3": [6, 8, 2, 7, 1, 4, 3, 8, 5], "type": "DISTRACTOR", "conditions": [24, 1600, "v", 24000], "trial": 7, "trial_type": "math-distractor", "trial_index": 253, "time_elapsed": 1151328, "internal_node_id": "0.0-190.0"}}, {"uniqueid": "MTK0402:3YOH7BII0AEMMVTWGOXB08P48NCVKO", "current_trial": 254, "dateTime": 1510859086980, "trialdata": {"rt": -1, "stimulus": "<p id=\"stim\">10</p>", "key_press": -1, "trial_type": "single-stim", "trial_index": 254, "time_elapsed": 1154328, "internal_node_id": "0.0-191.0-0.0"}}, {"uniqueid": "MTK0402:3YOH7BII0AEMMVTWGOXB08P48NCVKO", "current_trial": 255, "dateTime": 1510859087981, "trialdata": {"rt": -1, "stimulus": "<p id=\"stim\">9</p>", "key_press": -1, "trial_type": "single-stim", "trial_index": 255, "time_elapsed": 1155329, "internal_node_id": "0.0-191.0-1.0"}}, {"uniqueid": "MTK0402:3YOH7BII0AEMMVTWGOXB08P48NCVKO", "current_trial": 256, "dateTime": 1510859088982, "trialdata": {"rt": -1, "stimulus": "<p id=\"stim\">8</p>", "key_press": -1, "trial_type": "single-stim", "trial_index": 256, "time_elapsed": 1156330, "internal_node_id": "0.0-191.0-2.0"}}, {"uniqueid": "MTK0402:3YOH7BII0AEMMVTWGOXB08P48NCVKO", "current_trial": 257, "dateTime": 1510859089982, "trialdata": {"rt": -1, "stimulus": "<p id=\"stim\">7</p>", "key_press": -1, "trial_type": "single-stim", "trial_index": 257, "time_elapsed": 1157330, "internal_node_id": "0.0-191.0-3.0"}}, {"uniqueid": "MTK0402:3YOH7BII0AEMMVTWGOXB08P48NCVKO", "current_trial": 258, "dateTime": 1510859090982, "trialdata": {"rt": -1, "stimulus": "<p id=\"stim\">6</p>", "key_press": -1, "trial_type": "single-stim", "trial_index": 258, "time_elapsed": 1158330, "internal_node_id": "0.0-191.0-4.0"}}, {"uniqueid": "MTK0402:3YOH7BII0AEMMVTWGOXB08P48NCVKO", "current_trial": 259, "dateTime": 1510859091982, "trialdata": {"rt": -1, "stimulus": "<p id=\"stim\">5</p>", "key_press": -1, "trial_type": "single-stim", "trial_index": 259, "time_elapsed": 1159330, "internal_node_id": "0.0-191.0-5.0"}}, {"uniqueid": "MTK0402:3YOH7BII0AEMMVTWGOXB08P48NCVKO", "current_trial": 260, "dateTime": 1510859092982, "trialdata": {"rt": -1, "stimulus": "<p id=\"stim\">4</p>", "key_press": -1, "trial_type": "single-stim", "trial_index": 260, "time_elapsed": 1160330, "internal_node_id": "0.0-191.0-6.0"}}, {"uniqueid": "MTK0402:3YOH7BII0AEMMVTWGOXB08P48NCVKO", "current_trial": 261, "dateTime": 1510859093983, "trialdata": {"rt": -1, "stimulus": "<p id=\"stim\">3</p>", "key_press": -1, "trial_type": "single-stim", "trial_index": 261, "time_elapsed": 1161331, "internal_node_id": "0.0-191.0-7.0"}}, {"uniqueid": "MTK0402:3YOH7BII0AEMMVTWGOXB08P48NCVKO", "current_trial": 262, "dateTime": 1510859094983, "trialdata": {"rt": -1, "stimulus": "<p id=\"stim\">2</p>", "key_press": -1, "trial_type": "single-stim", "trial_index": 262, "time_elapsed": 1162331, "internal_node_id": "0.0-191.0-8.0"}}, {"uniqueid": "MTK0402:3YOH7BII0AEMMVTWGOXB08P48NCVKO", "current_trial": 263, "dateTime": 1510859095983, "trialdata": {"rt": -1, "stimulus": "<p id=\"stim\">1</p>", "key_press": -1, "trial_type": "single-stim", "trial_index": 263, "time_elapsed": 1163331, "internal_node_id": "0.0-191.0-9.0"}}, {"uniqueid": "MTK0402:3YOH7BII0AEMMVTWGOXB08P48NCVKO", "current_trial": 264, "dateTime": 1510859097484, "trialdata": {"rt": -1, "stimulus": "<p id=\"stim\">+</p>", "key_press": -1, "type": "FIXATION", "trial_type": "single-stim", "trial_index": 264, "time_elapsed": 1164832, "internal_node_id": "0.0-192.0-0.0"}}, {"uniqueid": "MTK0402:3YOH7BII0AEMMVTWGOXB08P48NCVKO", "current_trial": 265, "dateTime": 1510859099084, "trialdata": {"rt": -1, "stimulus": "<p id=\"stim\">POPCORN</p>", "key_press": -1, "type": "PRES_VIS", "word": "popcorn", "wordID": 1103, "conditions": [24, 1600, "v", 24000], "trial": 7, "serialpos": 0, "trial_type": "single-stim", "trial_index": 265, "time_elapsed": 1166432, "internal_node_id": "0.0-193.0"}}, {"uniqueid": "MTK0402:3YOH7BII0AEMMVTWGOXB08P48NCVKO", "current_trial": 266, "dateTime": 1510859101824, "trialdata": {"rt": -1, "stimulus": "<p id=\"stim\">PUPPY</p>", "key_press": -1, "type": "PRES_VIS", "word": "puppy", "wordID": 1143, "conditions": [24, 1600, "v", 24000], "trial": 7, "serialpos": 1, "trial_type": "single-stim", "trial_index": 266, "time_elapsed": 1169172, "internal_node_id": "0.0-194.0"}}, {"uniqueid": "MTK0402:3YOH7BII0AEMMVTWGOXB08P48NCVKO", "current_trial": 267, "dateTime": 1510859104599, "trialdata": {"rt": -1, "stimulus": "<p id=\"stim\">BLOUSE</p>", "key_press": -1, "type": "PRES_VIS", "word": "blouse", "wordID": 138, "conditions": [24, 1600, "v", 24000], "trial": 7, "serialpos": 2, "trial_type": "single-stim", "trial_index": 267, "time_elapsed": 1171947, "internal_node_id": "0.0-195.0"}}, {"uniqueid": "MTK0402:3YOH7BII0AEMMVTWGOXB08P48NCVKO", "current_trial": 268, "dateTime": 1510859107195, "trialdata": {"rt": -1, "stimulus": "<p id=\"stim\">THREAD</p>", "key_press": -1, "type": "PRES_VIS", "word": "thread", "wordID": 1459, "conditions": [24, 1600, "v", 24000], "trial": 7, "serialpos": 3, "trial_type": "single-stim", "trial_index": 268, "time_elapsed": 1174543, "internal_node_id": "0.0-196.0"}}, {"uniqueid": "MTK0402:3YOH7BII0AEMMVTWGOXB08P48NCVKO", "current_trial": 269, "dateTime": 1510859109870, "trialdata": {"rt": -1, "stimulus": "<p id=\"stim\">COOK</p>", "key_press": -1, "type": "PRES_VIS", "word": "cook", "wordID": 371, "conditions": [24, 1600, "v", 24000], "trial": 7, "serialpos": 4, "trial_type": "single-stim", "trial_index": 269, "time_elapsed": 1177218, "internal_node_id": "0.0-197.0"}}, {"uniqueid": "MTK0402:3YOH7BII0AEMMVTWGOXB08P48NCVKO", "current_trial": 270, "dateTime": 1510859112538, "trialdata": {"rt": -1, "stimulus": "<p id=\"stim\">KNAPSACK</p>", "key_press": -1, "type": "PRES_VIS", "word": "knapsack", "wordID": 782, "conditions": [24, 1600, "v", 24000], "trial": 7, "serialpos": 5, "trial_type": "single-stim", "trial_index": 270, "time_elapsed": 1179886, "internal_node_id": "0.0-198.0"}}, {"uniqueid": "MTK0402:3YOH7BII0AEMMVTWGOXB08P48NCVKO", "current_trial": 271, "dateTime": 1510859115092, "trialdata": {"rt": -1, "stimulus": "<p id=\"stim\">BRIEFCASE</p>", "key_press": -1, "type": "PRES_VIS", "word": "briefcase", "wordID": 174, "conditions": [24, 1600, "v", 24000], "trial": 7, "serialpos": 6, "trial_type": "single-stim", "trial_index": 271, "time_elapsed": 1182440, "internal_node_id": "0.