{"condition": 0, "counterbalance": 985, "assignmentId": "34Z02EIMITK5WDI370NEG6MAX42T0C", "workerId": "MTK0434", "hitId": "3QO7EE372OUR10VRYAL66YBMQAHBQC", "currenttrial": 626, "bonus": 0, "data": [{"uniqueid": "MTK0434:34Z02EIMITK5WDI370NEG6MAX42T0C", "current_trial": 0, "dateTime": 1510867924395, "trialdata": {"rt": 1844, "key_press": 13, "type": "INSTRUCTIONS", "trial_type": "text", "trial_index": 0, "time_elapsed": 1848, "internal_node_id": "0.0-0.0"}}, {"uniqueid": "MTK0434:34Z02EIMITK5WDI370NEG6MAX42T0C", "current_trial": 1, "dateTime": 1510867943271, "trialdata": {"rt": 18874, "key_press": 13, "type": "INSTRUCTIONS", "trial_type": "text", "trial_index": 1, "time_elapsed": 20725, "internal_node_id": "0.0-1.0"}}, {"uniqueid": "MTK0434:34Z02EIMITK5WDI370NEG6MAX42T0C", "current_trial": 2, "dateTime": 1510867951664, "trialdata": {"rt": [8383], "responses": ["ocean"], "type": "AUDIO_TEST", "trial_type": "audio-test", "trial_index": 2, "time_elapsed": 29118, "internal_node_id": "0.0-2.0"}}, {"uniqueid": "MTK0434:34Z02EIMITK5WDI370NEG6MAX42T0C", "current_trial": 3, "dateTime": 1510867958121, "trialdata": {"rt": [6448], "responses": ["crystal"], "type": "AUDIO_TEST", "trial_type": "audio-test", "trial_index": 3, "time_elapsed": 35575, "internal_node_id": "0.0-3.0"}}, {"uniqueid": "MTK0434:34Z02EIMITK5WDI370NEG6MAX42T0C", "current_trial": 4, "dateTime": 1510867964551, "trialdata": {"rt": [6422], "responses": ["spice"], "type": "AUDIO_TEST", "trial_type": "audio-test", "trial_index": 4, "time_elapsed": 42004, "internal_node_id": "0.0-4.0"}}, {"uniqueid": "MTK0434:34Z02EIMITK5WDI370NEG6MAX42T0C", "current_trial": 5, "dateTime": 1510867981615, "trialdata": {"rt": 16309, "responses": "{\"Q0\":\"1AM\",\"Q1\":\"7AM\",\"Q2\":\"4\"}", "type": "SLEEP_SURVEY", "trial_type": "survey-text", "trial_index": 5, "time_elapsed": 59069, "internal_node_id": "0.0-5.0"}}, {"uniqueid": "MTK0434:34Z02EIMITK5WDI370NEG6MAX42T0C", "current_trial": 6, "dateTime": 1510868009256, "trialdata": {"rt": 26638, "key_press": 13, "type": "INSTRUCTIONS", "trial_type": "text", "trial_index": 6, "time_elapsed": 86709, "internal_node_id": "0.0-6.0"}}, {"uniqueid": "MTK0434:34Z02EIMITK5WDI370NEG6MAX42T0C", "current_trial": 7, "dateTime": 1510868026903, "trialdata": {"rt": 17146, "key_press": 13, "type": "INSTRUCTIONS", "trial_type": "text", "trial_index": 7, "time_elapsed": 104357, "internal_node_id": "0.0-7.0"}}, {"uniqueid": "MTK0434:34Z02EIMITK5WDI370NEG6MAX42T0C", "current_trial": 8, "dateTime": 1510868044432, "trialdata": {"rt": 17028, "key_press": 13, "type": "INSTRUCTIONS", "trial_type": "text", "trial_index": 8, "time_elapsed": 121886, "internal_node_id": "0.0-8.0"}}, {"uniqueid": "MTK0434:34Z02EIMITK5WDI370NEG6MAX42T0C", "current_trial": 9, "dateTime": 1510868063449, "trialdata": {"rt": [3551, 5431, 7183, 9903, 12054, 13566, 15711, 17950], "responses": ["14", "11", "13", "18", "20", "12", "11", "7"], "num1": [5, 3, 3, 5, 6, 8, 5, 2, 9], "num2": [4, 2, 7, 7, 7, 3, 3, 2, 1], "num3": [5, 6, 3, 6, 6, 1, 3, 3, 7], "type": "DISTRACTOR", "conditions": [18, 1200, "a", 18000], "trial": 0, "trial_type": "math-distractor", "trial_index": 9, "time_elapsed": 140903, "internal_node_id": "0.0-9.0"}}, {"uniqueid": "MTK0434:34Z02EIMITK5WDI370NEG6MAX42T0C", "current_trial": 10, "dateTime": 1510868066452, "trialdata": {"rt": -1, "stimulus": "<p id=\"stim\">10</p>", "key_press": -1, "trial_type": "single-stim", "trial_index": 10, "time_elapsed": 143906, "internal_node_id": "0.0-10.0-0.0"}}, {"uniqueid": "MTK0434:34Z02EIMITK5WDI370NEG6MAX42T0C", "current_trial": 11, "dateTime": 1510868067454, "trialdata": {"rt": -1, "stimulus": "<p id=\"stim\">9</p>", "key_press": -1, "trial_type": "single-stim", "trial_index": 11, "time_elapsed": 144908, "internal_node_id": "0.0-10.0-1.0"}}, {"uniqueid": "MTK0434:34Z02EIMITK5WDI370NEG6MAX42T0C", "current_trial": 12, "dateTime": 1510868068455, "trialdata": {"rt": -1, "stimulus": "<p id=\"stim\">8</p>", "key_press": -1, "trial_type": "single-stim", "trial_index": 12, "time_elapsed": 145909, "internal_node_id": "0.0-10.0-2.0"}}, {"uniqueid": "MTK0434:34Z02EIMITK5WDI370NEG6MAX42T0C", "current_trial": 13, "dateTime": 1510868069457, "trialdata": {"rt": -1, "stimulus": "<p id=\"stim\">7</p>", "key_press": -1, "trial_type": "single-stim", "trial_index": 13, "time_elapsed": 146911, "internal_node_id": "0.0-10.0-3.0"}}, {"uniqueid": "MTK0434:34Z02EIMITK5WDI370NEG6MAX42T0C", "current_trial": 14, "dateTime": 1510868070459, "trialdata": {"rt": -1, "stimulus": "<p id=\"stim\">6</p>", "key_press": -1, "trial_type": "single-stim", "trial_index": 14, "time_elapsed": 147913, "internal_node_id": "0.0-10.0-4.0"}}, {"uniqueid": "MTK0434:34Z02EIMITK5WDI370NEG6MAX42T0C", "current_trial": 15, "dateTime": 1510868071461, "trialdata": {"rt": -1, "stimulus": "<p id=\"stim\">5</p>", "key_press": -1, "trial_type": "single-stim", "trial_index": 15, "time_elapsed": 148915, "internal_node_id": "0.0-10.0-5.0"}}, {"uniqueid": "MTK0434:34Z02EIMITK5WDI370NEG6MAX42T0C", "current_trial": 16, "dateTime": 1510868072464, "trialdata": {"rt": -1, "stimulus": "<p id=\"stim\">4</p>", "key_press": -1, "trial_type": "single-stim", "trial_index": 16, "time_elapsed": 149918, "internal_node_id": "0.0-10.0-6.0"}}, {"uniqueid": "MTK0434:34Z02EIMITK5WDI370NEG6MAX42T0C", "current_trial": 17, "dateTime": 1510868073465, "trialdata": {"rt": -1, "stimulus": "<p id=\"stim\">3</p>", "key_press": -1, "trial_type": "single-stim", "trial_index": 17, "time_elapsed": 150919, "internal_node_id": "0.0-10.0-7.0"}}, {"uniqueid": "MTK0434:34Z02EIMITK5WDI370NEG6MAX42T0C", "current_trial": 18, "dateTime": 1510868074467, "trialdata": {"rt": -1, "stimulus": "<p id=\"stim\">2</p>", "key_press": -1, "trial_type": "single-stim", "trial_index": 18, "time_elapsed": 151921, "internal_node_id": "0.0-10.0-8.0"}}, {"uniqueid": "MTK0434:34Z02EIMITK5WDI370NEG6MAX42T0C", "current_trial": 19, "dateTime": 1510868075469, "trialdata": {"rt": -1, "stimulus": "<p id=\"stim\">1</p>", "key_press": -1, "trial_type": "single-stim", "trial_index": 19, "time_elapsed": 152923, "internal_node_id": "0.0-10.0-9.0"}}, {"uniqueid": "MTK0434:34Z02EIMITK5WDI370NEG6MAX42T0C", "current_trial": 20, "dateTime": 1510868076971, "trialdata": {"rt": -1, "stimulus": "<p id=\"stim\">+</p>", "key_press": -1, "type": "FIXATION", "trial_type": "single-stim", "trial_index": 20, "time_elapsed": 154425, "internal_node_id": "0.0-11.0-0.0"}}, {"uniqueid": "MTK0434:34Z02EIMITK5WDI370NEG6MAX42T0C", "current_trial": 21, "dateTime": 1510868079223, "trialdata": {"rt": -1000, "stimulus": "/static/audio/wordpool/OZONE.wav", "key_press": -1, "type": "PRES_AUD", "word": "ozone", "wordID": 995, "conditions": [18, 1200, "a", 18000], "trial": 0, "serialpos": 0, "trial_type": "single-audio", "trial_index": 21, "time_elapsed": 156677, "internal_node_id": "0.0-12.0"}}, {"uniqueid": "MTK0434:34Z02EIMITK5WDI370NEG6MAX42T0C", "current_trial": 22, "dateTime": 1510868081361, "trialdata": {"rt": -1000, "stimulus": "/static/audio/wordpool/LAKE.wav", "key_press": -1, "type": "PRES_AUD", "word": "lake", "wordID": 795, "conditions": [18, 1200, "a", 18000], "trial": 0, "serialpos": 1, "trial_type": "single-audio", "trial_index": 22, "time_elapsed": 158815, "internal_node_id": "0.0-13.0"}}, {"uniqueid": "MTK0434:34Z02EIMITK5WDI370NEG6MAX42T0C", "current_trial": 23, "dateTime": 1510868083395, "trialdata": {"rt": -1000, "stimulus": "/static/audio/wordpool/ORCHID.wav", "key_press": -1, "type": "PRES_AUD", "word": "orchid", "wordID": 981, "conditions": [18, 1200, "a", 18000], "trial": 0, "serialpos": 2, "trial_type": "single-audio", "trial_index": 23, "time_elapsed": 160849, "internal_node_id": "0.0-14.0"}}, {"uniqueid": "MTK0434:34Z02EIMITK5WDI370NEG6MAX42T0C", "current_trial": 24, "dateTime": 1510868085552, "trialdata": {"rt": -1000, "stimulus": "/static/audio/wordpool/COUCH.wav", "key_press": -1, "type": "PRES_AUD", "word": "couch", "wordID": 385, "conditions": [18, 1200, "a", 18000], "trial": 0, "serialpos": 3, "trial_type": "single-audio", "trial_index": 24, "time_elapsed": 163006, "internal_node_id": "0.0-15.0"}}, {"uniqueid": "MTK0434:34Z02EIMITK5WDI370NEG6MAX42T0C", "current_trial": 25, "dateTime": 1510868087567, "trialdata": {"rt": -1000, "stimulus": "/static/audio/wordpool/COTTAGE.wav", "key_press": -1, "type": "PRES_AUD", "word": "cottage", "wordID": 383, "conditions": [18, 1200, "a", 18000], "trial": 0, "serialpos": 4, "trial_type": "single-audio", "trial_index": 25, "time_elapsed": 165021, "internal_node_id": "0.0-16.0"}}, {"uniqueid": "MTK0434:34Z02EIMITK5WDI370NEG6MAX42T0C", "current_trial": 26, "dateTime": 1510868089581, "trialdata": {"rt": -1000, "stimulus": "/static/audio/wordpool/SWAMP.wav", "key_press": -1, "type": "PRES_AUD", "word": "swamp", "wordID": 1415, "conditions": [18, 1200, "a", 18000], "trial": 0, "serialpos": 5, "trial_type": "single-audio", "trial_index": 26, "time_elapsed": 167035, "internal_node_id": "0.0-17.0"}}, {"uniqueid": "MTK0434:34Z02EIMITK5WDI370NEG6MAX42T0C", "current_trial": 27, "dateTime": 1510868091794, "trialdata": {"rt": -1000, "stimulus": "/static/audio/wordpool/SPARROW.wav", "key_press": -1, "type": "PRES_AUD", "word": "sparrow", "wordID": 1346, "conditions": [18, 1200, "a", 18000], "trial": 0, "serialpos": 6, "trial_type": "single-audio", "trial_index": 27, "time_elapsed": 169248, "internal_node_id": "0.0-18.0"}}, {"uniqueid": "MTK0434:34Z02EIMITK5WDI370NEG6MAX42T0C", "current_trial": 28, "dateTime": 1510868094098, "trialdata": {"rt": -1000, "stimulus": "/static/audio/wordpool/WHISKERS.wav", "key_press": -1, "type": "PRES_AUD", "word": "whiskers", "wordID": 1604, "conditions": [18, 1200, "a", 18000], "trial": 0, "serialpos": 7, "trial_type": "single-audio", "trial_index": 28, "time_elapsed": 171551, "internal_node_id": "0.0-19.0"}}, {"uniqueid": "MTK0434:34Z02EIMITK5WDI370NEG6MAX42T0C", "current_trial": 29, "dateTime": 1510868096182, "trialdata": {"rt": -1000, "stimulus": "/static/audio/wordpool/HATCHET.wav", "key_press": -1, "type": "PRES_AUD", "word": "hatchet", "wordID": 690, "conditions": [18, 1200, "a", 18000], "trial": 0, "serialpos": 8, "trial_type": "single-audio", "trial_index": 29, "time_elapsed": 173636, "internal_node_id": "0.0-20.0"}}, {"uniqueid": "MTK0434:34Z02EIMITK5WDI370NEG6MAX42T0C", "current_trial": 30, "dateTime": 1510868098434, "trialdata": {"rt": -1000, "stimulus": "/static/audio/wordpool/MARS.wav", "key_press": -1, "type": "PRES_AUD", "word": "mars", "wordID": 872, "conditions": [18, 1200, "a", 18000], "trial": 0, "serialpos": 9, "trial_type": "single-audio", "trial_index": 30, "time_elapsed": 175888, "internal_node_id": "0.0-21.0"}}, {"uniqueid": "MTK0434:34Z02EIMITK5WDI370NEG6MAX42T0C", "current_trial": 31, "dateTime": 1510868100573, "trialdata": {"rt": -1000, "stimulus": "/static/audio/wordpool/FRIEND.wav", "key_press": -1, "type": "PRES_AUD", "word": "friend", "wordID": 605, "conditions": [18, 1200, "a", 18000], "trial": 0, "serialpos": 10, "trial_type": "single-audio", "trial_index": 31, "time_elapsed": 178027, "internal_node_id": "0.0-22.0"}}, {"uniqueid": "MTK0434:34Z02EIMITK5WDI370NEG6MAX42T0C", "current_trial": 32, "dateTime": 1510868102733, "trialdata": {"rt": -1000, "stimulus": "/static/audio/wordpool/PANTHER.wav", "key_press": -1, "type": "PRES_AUD", "word": "panther", "wordID": 1008, "conditions": [18, 1200, "a", 18000], "trial": 0, "serialpos": 11, "trial_type": "single-audio", "trial_index": 32, "time_elapsed": 180187, "internal_node_id": "0.0-23.0"}}, {"uniqueid": "MTK0434:34Z02EIMITK5WDI370NEG6MAX42T0C", "current_trial": 33, "dateTime": 1510868105052, "trialdata": {"rt": -1000, "stimulus": "/static/audio/wordpool/WINDOW.wav", "key_press": -1, "type": "PRES_AUD", "word": "window", "wordID": 1610, "conditions": [18, 1200, "a", 18000], "trial": 0, "serialpos": 12, "trial_type": "single-audio", "trial_index": 33, "time_elapsed": 182505, "internal_node_id": "0.0-24.0"}}, {"uniqueid": "MTK0434:34Z02EIMITK5WDI370NEG6MAX42T0C", "current_trial": 34, "dateTime": 1510868107318, "trialdata": {"rt": -1000, "stimulus": "/static/audio/wordpool/CHEST.wav", "key_press": -1, "type": "PRES_AUD", "word": "chest", "wordID": 294, "conditions": [18, 1200, "a", 18000], "trial": 0, "serialpos": 13, "trial_type": "single-audio", "trial_index": 34, "time_elapsed": 184772, "internal_node_id": "0.0-25.0"}}, {"uniqueid": "MTK0434:34Z02EIMITK5WDI370NEG6MAX42T0C", "current_trial": 35, "dateTime": 1510868109496, "trialdata": {"rt": -1000, "stimulus": "/static/audio/wordpool/BINDER.wav", "key_press": -1, "type": "PRES_AUD", "word": "binder", "wordID": 126, "conditions": [18, 1200, "a", 18000], "trial": 0, "serialpos": 14, "trial_type": "single-audio", "trial_index": 35, "time_elapsed": 186950, "internal_node_id": "0.0-26.0"}}, {"uniqueid": "MTK0434:34Z02EIMITK5WDI370NEG6MAX42T0C", "current_trial": 36, "dateTime": 1510868111680, "trialdata": {"rt": -1000, "stimulus": "/static/audio/wordpool/FIREPLACE.wav", "key_press": -1, "type": "PRES_AUD", "word": "fireplace", "wordID": 569, "conditions": [18, 1200, "a", 18000], "trial": 0, "serialpos": 15, "trial_type": "single-audio", "trial_index": 36, "time_elapsed": 189134, "internal_node_id": "0.0-27.0"}}, {"uniqueid": "MTK0434:34Z02EIMITK5WDI370NEG6MAX42T0C", "current_trial": 37, "dateTime": 1510868113700, "trialdata": {"rt": -1000, "stimulus": "/static/audio/wordpool/DIME.wav", "key_press": -1, "type": "PRES_AUD", "word": "dime", "wordID": 465, "conditions": [18, 1200, "a", 18000], "trial": 0, "serialpos": 16, "trial_type": "single-audio", "trial_index": 37, "time_elapsed": 191154, "internal_node_id": "0.0-28.0"}}, {"uniqueid": "MTK0434:34Z02EIMITK5WDI370NEG6MAX42T0C", "current_trial": 38, "dateTime": 1510868116028, "trialdata": {"rt": -1000, "stimulus": "/static/audio/wordpool/BEAST.wav", "key_press": -1, "type": "PRES_AUD", "word": "beast", "wordID": 107, "conditions": [18, 1200, "a", 18000], "trial": 0, "serialpos": 17, "trial_type": "single-audio", "trial_index": 38, "time_elapsed": 193482, "internal_node_id": "0.0-29.0"}}, {"uniqueid": "MTK0434:34Z02EIMITK5WDI370NEG6MAX42T0C", "current_trial": 39, "dateTime": 1510868117294, "trialdata": {"rt": -1, "stimulus": "", "key_press": -1, "type": "PRE_RECALL_DELAY", "trial_type": "single-stim", "trial_index": 39, "time_elapsed": 194748, "internal_node_id": "0.0-30.0-0.0"}}, {"uniqueid": "MTK0434:34Z02EIMITK5WDI370NEG6MAX42T0C", "current_trial": 40, "dateTime": 1510868117796, "trialdata": {"rt": -1000, "stimulus": "/static/audio/400Hz.wav", "key_press": -1, "type": "PRE_RECALL_ALERT", "trial_type": "single-audio", "trial_index": 40, "time_elapsed": 195250, "internal_node_id": "0.0-31.0"}}, {"uniqueid": "MTK0434:34Z02EIMITK5WDI370NEG6MAX42T0C", "current_trial": 41, "dateTime": 1510868177808, "trialdata": {"rt": [5217, 8056, 11312, 12584, 14368, 21072, 26936, 30064, 37448], "recwords": ["whisker", "mars", "beast", "dime", "panther", "orchad", "ches", "fireplace", "friend"], "type": "FREE_RECALL", "conditions": [18, 1200, "a", 18000], "trial": 0, "trial_type": "free-recall", "trial_index": 41, "time_elapsed": 255253, "internal_node_id": "0.0-32.0-0.0"}}, {"uniqueid": "MTK0434:34Z02EIMITK5WDI370NEG6MAX42T0C", "current_trial": 42, "dateTime": 1510868182102, "trialdata": {"rt": 2293, "key_press": 13, "type": "INSTRUCTIONS", "trial_type": "text", "trial_index": 42, "time_elapsed": 259556, "internal_node_id": "0.0-33.0"}}, {"uniqueid": "MTK0434:34Z02EIMITK5WDI370NEG6MAX42T0C", "current_trial": 43, "dateTime": 1510868202107, "trialdata": {"rt": [2540, 4620, 6932, 10093, 12764, 15700, 17868], "responses": ["21", "20", "13", "12", "23", "17", "15"], "num1": [6, 8, 2, 5, 8, 2, 5, 7], "num2": [9, 7, 6, 4, 6, 6, 4, 9], "num3": [6, 5, 5, 3, 9, 9, 6, 7], "type": "DISTRACTOR", "conditions": [18, 1200, "v", 18000], "trial": 1, "trial_type": "math-distractor", "trial_index": 43, "time_elapsed": 279560, "internal_node_id": "0.0-34.0"}}, {"uniqueid": "MTK0434:34Z02EIMITK5WDI370NEG6MAX42T0C", "current_trial": 44, "dateTime": 1510868205109, "trialdata": {"rt": -1, "stimulus": "<p id=\"stim\">10</p>", "key_press": -1, "trial_type": "single-stim", "trial_index": 44, "time_elapsed": 282563, "internal_node_id": "0.0-35.0-0.0"}}, {"uniqueid": "MTK0434:34Z02EIMITK5WDI370NEG6MAX42T0C", "current_trial": 45, "dateTime": 1510868206110, "trialdata": {"rt": -1, "stimulus": "<p id=\"stim\">9</p>", "key_press": -1, "trial_type": "single-stim", "trial_index": 45, "time_elapsed": 283564, "internal_node_id": "0.0-35.0-1.0"}}, {"uniqueid": "MTK0434:34Z02EIMITK5WDI370NEG6MAX42T0C", "current_trial": 46, "dateTime": 1510868207111, "trialdata": {"rt": -1, "stimulus": "<p id=\"stim\">8</p>", "key_press": -1, "trial_type": "single-stim", "trial_index": 46, "time_elapsed": 284565, "internal_node_id": "0.0-35.0-2.0"}}, {"uniqueid": "MTK0434:34Z02EIMITK5WDI370NEG6MAX42T0C", "current_trial": 47, "dateTime": 1510868208112, "trialdata": {"rt": -1, "stimulus": "<p id=\"stim\">7</p>", "key_press": -1, "trial_type": "single-stim", "trial_index": 47, "time_elapsed": 285566, "internal_node_id": "0.0-35.0-3.0"}}, {"uniqueid": "MTK0434:34Z02EIMITK5WDI370NEG6MAX42T0C", "current_trial": 48, "dateTime": 1510868209114, "trialdata": {"rt": -1, "stimulus": "<p id=\"stim\">6</p>", "key_press": -1, "trial_type": "single-stim", "trial_index": 48, "time_elapsed": 286568, "internal_node_id": "0.0-35.0-4.0"}}, {"uniqueid": "MTK0434:34Z02EIMITK5WDI370NEG6MAX42T0C", "current_trial": 49, "dateTime": 1510868210115, "trialdata": {"rt": -1, "stimulus": "<p id=\"stim\">5</p>", "key_press": -1, "trial_type": "single-stim", "trial_index": 49, "time_elapsed": 287569, "internal_node_id": "0.0-35.0-5.0"}}, {"uniqueid": "MTK0434:34Z02EIMITK5WDI370NEG6MAX42T0C", "current_trial": 50, "dateTime": 1510868211117, "trialdata": {"rt": -1, "stimulus": "<p id=\"stim\">4</p>", "key_press": -1, "trial_type": "single-stim", "trial_index": 50, "time_elapsed": 288570, "internal_node_id": "0.0-35.0-6.0"}}, {"uniqueid": "MTK0434:34Z02EIMITK5WDI370NEG6MAX42T0C", "current_trial": 51, "dateTime": 1510868212120, "trialdata": {"rt": -1, "stimulus": "<p id=\"stim\">3</p>", "key_press": -1, "trial_type": "single-stim", "trial_index": 51, "time_elapsed": 289573, "internal_node_id": "0.0-35.0-7.0"}}, {"uniqueid": "MTK0434:34Z02EIMITK5WDI370NEG6MAX42T0C", "current_trial": 52, "dateTime": 1510868213123, "trialdata": {"rt": -1, "stimulus": "<p id=\"stim\">2</p>", "key_press": -1, "trial_type": "single-stim", "trial_index": 52, "time_elapsed": 290576, "internal_node_id": "0.0-35.0-8.0"}}, {"uniqueid": "MTK0434:34Z02EIMITK5WDI370NEG6MAX42T0C", "current_trial": 53, "dateTime": 1510868214127, "trialdata": {"rt": -1, "stimulus": "<p id=\"stim\">1</p>", "key_press": -1, "trial_type": "single-stim", "trial_index": 53, "time_elapsed": 291578, "internal_node_id": "0.0-35.0-9.0"}}, {"uniqueid": "MTK0434:34Z02EIMITK5WDI370NEG6MAX42T0C", "current_trial": 54, "dateTime": 1510868215629, "trialdata": {"rt": -1, "stimulus": "<p id=\"stim\">+</p>", "key_press": -1, "type": "FIXATION", "trial_type": "single-stim", "trial_index": 54, "time_elapsed": 293082, "internal_node_id": "0.0-36.0-0.0"}}, {"uniqueid": "MTK0434:34Z02EIMITK5WDI370NEG6MAX42T0C", "current_trial": 55, "dateTime": 1510868216831, "trialdata": {"rt": -1, "stimulus": "<p id=\"stim\">LION</p>", "key_press": -1, "type": "PRES_VIS", "word": "lion", "wordID": 826, "conditions": [18, 1200, "v", 18000], "trial": 1, "serialpos": 0, "trial_type": "single-stim", "trial_index": 55, "time_elapsed": 294285, "internal_node_id": "0.0-37.0"}}, {"uniqueid": "MTK0434:34Z02EIMITK5WDI370NEG6MAX42T0C", "current_trial": 56, "dateTime": 1510868219064, "trialdata": {"rt": -1, "stimulus": "<p id=\"stim\">GALLON</p>", "key_press": -1, "type": "PRES_VIS", "word": "gallon", "wordID": 617, "conditions": [18, 1200, "v", 18000], "trial": 1, "serialpos": 1, "trial_type": "single-stim", "trial_index": 56, "time_elapsed": 296518, "internal_node_id": "0.0-38.0"}}, {"uniqueid": "MTK0434:34Z02EIMITK5WDI370NEG6MAX42T0C", "current_trial": 57, "dateTime": 1510868221278, "trialdata": {"rt": -1, "stimulus": "<p id=\"stim\">TOURIST</p>", "key_press": -1, "type": "PRES_VIS", "word": "tourist", "wordID": 1487, "conditions": [18, 1200, "v", 18000], "trial": 1, "serialpos": 2, "trial_type": "single-stim", "trial_index": 57, "time_elapsed": 298732, "internal_node_id": "0.0-39.0"}}, {"uniqueid": "MTK0434:34Z02EIMITK5WDI370NEG6MAX42T0C", "current_trial": 58, "dateTime": 1510868223677, "trialdata": {"rt": -1, "stimulus": "<p id=\"stim\">STAPLE</p>", "key_press": -1, "type": "PRES_VIS", "word": "staple", "wordID": 1370, "conditions": [18, 1200, "v", 18000], "trial": 1, "serialpos": 3, "trial_type": "single-stim", "trial_index": 58, "time_elapsed": 301131, "internal_node_id": "0.0-40.0"}}, {"uniqueid": "MTK0434:34Z02EIMITK5WDI370NEG6MAX42T0C", "current_trial": 59, "dateTime": 1510868226007, "trialdata": {"rt": -1, "stimulus": "<p id=\"stim\">TURNIP</p>", "key_press": -1, "type": "PRES_VIS", "word": "turnip", "wordID": 1520, "conditions": [18, 1200, "v", 18000], "trial": 1, "serialpos": 4, "trial_type": "single-stim", "trial_index": 59, "time_elapsed": 303460, "internal_node_id": "0.0-41.0"}}, {"uniqueid": "MTK0434:34Z02EIMITK5WDI370NEG6MAX42T0C", "current_trial": 60, "dateTime": 1510868228026, "trialdata": {"rt": -1, "stimulus": "<p id=\"stim\">KIDNEY</p>", "key_press": -1, "type": "PRES_VIS", "word": "kidney", "wordID": 775, "conditions": [18, 1200, "v", 18000], "trial": 1, "serialpos": 5, "trial_type": "single-stim", "trial_index": 60, "time_elapsed": 305480, "internal_node_id": "0.0-42.0"}}, {"uniqueid": "MTK0434:34Z02EIMITK5WDI370NEG6MAX42T0C", "current_trial": 61, "dateTime": 1510868230251, "trialdata": {"rt": -1, "stimulus": "<p id=\"stim\">MOTOR</p>", "key_press": -1, "type": "PRES_VIS", "word": "motor", "wordID": 921, "conditions": [18, 1200, "v", 18000], "trial": 1, "serialpos": 6, "trial_type": "single-stim", "trial_index": 61, "time_elapsed": 307705, "internal_node_id": "0.0-43.0"}}, {"uniqueid": "MTK0434:34Z02EIMITK5WDI370NEG6MAX42T0C", "current_trial": 62, "dateTime": 1510868232496, "trialdata": {"rt": -1, "stimulus": "<p id=\"stim\">PIMPLE</p>", "key_press": -1, "type": "PRES_VIS", "word": "pimple", "wordID": 1070, "conditions": [18, 1200, "v", 18000], "trial": 1, "serialpos": 7, "trial_type": "single-stim", "trial_index": 62, "time_elapsed": 309950, "internal_node_id": "0.0-44.0"}}, {"uniqueid": "MTK0434:34Z02EIMITK5WDI370NEG6MAX42T0C", "current_trial": 63, "dateTime": 1510868234634, "trialdata": {"rt": -1, "stimulus": "<p id=\"stim\">LONDON</p>", "key_press": -1, "type": "PRES_VIS", "word": "london", "wordID": 842, "conditions": [18, 1200, "v", 18000], "trial": 1, "serialpos": 8, "trial_type": "single-stim", "trial_index": 63, "time_elapsed": 312087, "internal_node_id": "0.0-45.0"}}, {"uniqueid": "MTK0434:34Z02EIMITK5WDI370NEG6MAX42T0C", "current_trial": 64, "dateTime": 1510868236746, "trialdata": {"rt": -1, "stimulus": "<p id=\"stim\">WOMAN</p>", "key_press": -1, "type": "PRES_VIS", "word": "woman", "wordID": 1619, "conditions": [18, 1200, "v", 18000], "trial": 1, "serialpos": 9, "trial_type": "single-stim", "trial_index": 64, "time_elapsed": 314200, "internal_node_id": "0.0-46.0"}}, {"uniqueid": "MTK0434:34Z02EIMITK5WDI370NEG6MAX42T0C", "current_trial": 65, "dateTime": 1510868238750, "trialdata": {"rt": -1, "stimulus": "<p id=\"stim\">SCARECROW</p>", "key_press": -1, "type": "PRES_VIS", "word": "scarecrow", "wordID": 1244, "conditions": [18, 1200, "v", 18000], "trial": 1, "serialpos": 10, "trial_type": "single-stim", "trial_index": 65, "time_elapsed": 316204, "internal_node_id": "0.0-47.0"}}, {"uniqueid": "MTK0434:34Z02EIMITK5WDI370NEG6MAX42T0C", "current_trial": 66, "dateTime": 1510868240828, "trialdata": {"rt": -1, "stimulus": "<p id=\"stim\">JAPAN</p>", "key_press": -1, "type": "PRES_VIS", "word": "japan", "wordID": 748, "conditions": [18, 1200, "v", 18000], "trial": 1, "serialpos": 11, "trial_type": "single-stim", "trial_index": 66, "time_elapsed": 318282, "internal_node_id": "0.0-48.0"}}, {"uniqueid": "MTK0434:34Z02EIMITK5WDI370NEG6MAX42T0C", "current_trial": 67, "dateTime": 1510868242857, "trialdata": {"rt": -1, "stimulus": "<p id=\"stim\">CAMEL</p>", "key_press": -1, "type": "PRES_VIS", "word": "camel", "wordID": 222, "conditions": [18, 1200, "v", 18000], "trial": 1, "serialpos": 12, "trial_type": "single-stim", "trial_index": 67, "time_elapsed": 320311, "internal_node_id": "0.0-49.0"}}, {"uniqueid": "MTK0434:34Z02EIMITK5WDI370NEG6MAX42T0C", "current_trial": 68, "dateTime": 1510868244893, "trialdata": {"rt": -1, "stimulus": "<p id=\"stim\">PADDLE</p>", "key_press": -1, "type": "PRES_VIS", "word": "paddle", "wordID": 999, "conditions": [18, 1200, "v", 18000], "trial": 1, "serialpos": 13, "trial_type": "single-stim", "trial_index": 68, "time_elapsed": 322345, "internal_node_id": "0.0-50.0"}}, {"uniqueid": "MTK0434:34Z02EIMITK5WDI370NEG6MAX42T0C", "current_trial": 69, "dateTime": 1510868247172, "trialdata": {"rt": -1, "stimulus": "<p id=\"stim\">PROTON</p>", "key_press": -1, "type": "PRES_VIS", "word": "proton", "wordID": 1131, "conditions": [18, 1200, "v", 18000], "trial": 1, "serialpos": 14, "trial_type": "single-stim", "trial_index": 69, "time_elapsed": 324626, "internal_node_id": "0.0-51.0"}}, {"uniqueid": "MTK0434:34Z02EIMITK5WDI370NEG6MAX42T0C", "current_trial": 70, "dateTime": 1510868249513, "trialdata": {"rt": -1, "stimulus": "<p id=\"stim\">SUITCASE</p>", "key_press": -1, "type": "PRES_VIS", "word": "suitcase", "wordID": 1402, "conditions": [18, 1200, "v", 18000], "trial": 1, "serialpos": 15, "trial_type": "single-stim", "trial_index": 70, "time_elapsed": 326967, "internal_node_id": "0.0-52.0"}}, {"uniqueid": "MTK0434:34Z02EIMITK5WDI370NEG6MAX42T0C", "current_trial": 71, "dateTime": 1510868251738, "trialdata": {"rt": -1, "stimulus": "<p id=\"stim\">TUBA</p>", "key_press": -1, "type": "PRES_VIS", "word": "tuba", "wordID": 1514, "conditions": [18, 1200, "v", 18000], "trial": 1, "serialpos": 16, "trial_type": "single-stim", "trial_index": 71, "time_elapsed": 329192, "internal_node_id": "0.0-53.0"}}, {"uniqueid": "MTK0434:34Z02EIMITK5WDI370NEG6MAX42T0C", "current_trial": 72, "dateTime": 1510868253894, "trialdata": {"rt": -1, "stimulus": "<p id=\"stim\">COCOON</p>", "key_press": -1, "type": "PRES_VIS", "word": "cocoon", "wordID": 338, "conditions": [18, 1200, "v", 18000], "trial": 1, "serialpos": 17, "trial_type": "single-stim", "trial_index": 72, "time_elapsed": 331348, "internal_node_id": "0.0-54.0"}}, {"uniqueid": "MTK0434:34Z02EIMITK5WDI370NEG6MAX42T0C", "current_trial": 73, "dateTime": 1510868256418, "trialdata": {"rt": -1, "stimulus": "", "key_press": -1, "type": "PRE_RECALL_DELAY", "trial_type": "single-stim", "trial_index": 73, "time_elapsed": 333872, "internal_node_id": "0.0-55.0-0.0"}}, {"uniqueid": "MTK0434:34Z02EIMITK5WDI370NEG6MAX42T0C", "current_trial": 74, "dateTime": 1510868256919, "trialdata": {"rt": -1000, "stimulus": "/static/audio/400Hz.wav", "key_press": -1, "type": "PRE_RECALL_ALERT", "trial_type": "single-audio", "trial_index": 74, "time_elapsed": 334373, "internal_node_id": "0.0-56.0"}}, {"uniqueid": "MTK0434:34Z02EIMITK5WDI370NEG6MAX42T0C", "current_trial": 75, "dateTime": 1510868316928, "trialdata": {"rt": [5771, 8533, 12787, 17612, 20500, 24219, 30556, 35531], "recwords": ["cocoon", "paddle", "pimple", "wom", "woman", "camel", "kidney", "suitcase"], "type": "FREE_RECALL", "conditions": [18, 1200, "v", 18000], "trial": 1, "trial_type": "free-recall", "trial_index": 75, "time_elapsed": 394377, "internal_node_id": "0.0-57.0-0.0"}}, {"uniqueid": "MTK0434:34Z02EIMITK5WDI370NEG6MAX42T0C", "current_trial": 76, "dateTime": 1510868341297, "trialdata": {"rt": 22362, "key_press": 13, "type": "INSTRUCTIONS", "trial_type": "text", "trial_index": 76, "time_elapsed": 418747, "internal_node_id": "0.0-58.0"}}, {"uniqueid": "MTK0434:34Z02EIMITK5WDI370NEG6MAX42T0C", "current_trial": 77, "dateTime": 1510868366302, "trialdata": {"rt": [1857, 3833, 7065, 8889, 10425, 14793, 16537, 17953, 19401, 20938, 22793], "responses": ["8", "15", "21", "16", "16", "22", "8", "5", "11", "9", "18"], "num1": [1, 2, 4, 1, 7, 6, 4, 1, 3, 1, 9, 3], "num2": [6, 6, 9, 7, 2, 7, 1, 3, 7, 6, 6, 9], "num3": [1, 8, 8, 8, 7, 9, 3, 1, 1, 2, 3, 9], "type": "DISTRACTOR", "conditions": [12, 800, "a", 24000], "trial": 2, "trial_type": "math-distractor", "trial_index": 77, "time_elapsed": 443755, "internal_node_id": "0.0-59.0"}}, {"uniqueid": "MTK0434:34Z02EIMITK5WDI370NEG6MAX42T0C", "current_trial": 78, "dateTime": 1510868369306, "trialdata": {"rt": -1, "stimulus": "<p id=\"stim\">10</p>", "key_press": -1, "trial_type": "single-stim", "trial_index": 78, "time_elapsed": 446757, "internal_node_id": "0.0-60.0-0.0"}}, {"uniqueid": "MTK0434:34Z02EIMITK5WDI370NEG6MAX42T0C", "current_trial": 79, "dateTime": 1510868370307, "trialdata": {"rt": -1, "stimulus": "<p id=\"stim\">9</p>", "key_press": -1, "trial_type": "single-stim", "trial_index": 79, "time_elapsed": 447760, "internal_node_id": "0.0-60.0-1.0"}}, {"uniqueid": "MTK0434:34Z02EIMITK5WDI370NEG6MAX42T0C", "current_trial": 80, "dateTime": 1510868371308, "trialdata": {"rt": -1, "stimulus": "<p id=\"stim\">8</p>", "key_press": -1, "trial_type": "single-stim", "trial_index": 80, "time_elapsed": 448762, "internal_node_id": "0.0-60.0-2.0"}}, {"uniqueid": "MTK0434:34Z02EIMITK5WDI370NEG6MAX42T0C", "current_trial": 81, "dateTime": 1510868372310, "trialdata": {"rt": -1, "stimulus": "<p id=\"stim\">7</p>", "key_press": -1, "trial_type": "single-stim", "trial_index": 81, "time_elapsed": 449764, "internal_node_id": "0.0-60.0-3.0"}}, {"uniqueid": "MTK0434:34Z02EIMITK5WDI370NEG6MAX42T0C", "current_trial": 82, "dateTime": 1510868373312, "trialdata": {"rt": -1, "stimulus": "<p id=\"stim\">6</p>", "key_press": -1, "trial_type": "single-stim", "trial_index": 82, "time_elapsed": 450766, "internal_node_id": "0.0-60.0-4.0"}}, {"uniqueid": "MTK0434:34Z02EIMITK5WDI370NEG6MAX42T0C", "current_trial": 83, "dateTime": 1510868374313, "trialdata": {"rt": -1, "stimulus": "<p id=\"stim\">5</p>", "key_press": -1, "trial_type": "single-stim", "trial_index": 83, "time_elapsed": 451767, "internal_node_id": "0.0-60.0-5.0"}}, {"uniqueid": "MTK0434:34Z02EIMITK5WDI370NEG6MAX42T0C", "current_trial": 84, "dateTime": 1510868375315, "trialdata": {"rt": -1, "stimulus": "<p id=\"stim\">4</p>", "key_press": -1, "trial_type": "single-stim", "trial_index": 84, "time_elapsed": 452769, "internal_node_id": "0.0-60.0-6.0"}}, {"uniqueid": "MTK0434:34Z02EIMITK5WDI370NEG6MAX42T0C", "current_trial": 85, "dateTime": 1510868376316, "trialdata": {"rt": -1, "stimulus": "<p id=\"stim\">3</p>", "key_press": -1, "trial_type": "single-stim", "trial_index": 85, "time_elapsed": 453770, "internal_node_id": "0.0-60.0-7.0"}}, {"uniqueid": "MTK0434:34Z02EIMITK5WDI370NEG6MAX42T0C", "current_trial": 86, "dateTime": 1510868377318, "trialdata": {"rt": -1, "stimulus": "<p id=\"stim\">2</p>", "key_press": -1, "trial_type": "single-stim", "trial_index": 86, "time_elapsed": 454772, "internal_node_id": "0.0-60.0-8.0"}}, {"uniqueid": "MTK0434:34Z02EIMITK5WDI370NEG6MAX42T0C", "current_trial": 87, "dateTime": 1510868378320, "trialdata": {"rt": -1, "stimulus": "<p id=\"stim\">1</p>", "key_press": -1, "trial_type": "single-stim", "trial_index": 87, "time_elapsed": 455774, "internal_node_id": "0.0-60.0-9.0"}}, {"uniqueid": "MTK0434:34Z02EIMITK5WDI370NEG6MAX42T0C", "current_trial": 88, "dateTime": 1510868379821, "trialdata": {"rt": -1, "stimulus": "<p id=\"stim\">+</p>", "key_press": -1, "type": "FIXATION", "trial_type": "single-stim", "trial_index": 88, "time_elapsed": 457275, "internal_node_id": "0.0-61.0-0.0"}}, {"uniqueid": "MTK0434:34Z02EIMITK5WDI370NEG6MAX42T0C", "current_trial": 89, "dateTime": 1510868381663, "trialdata": {"rt": -1000, "stimulus": "/static/audio/wordpool/ULCER.wav", "key_press": -1, "type": "PRES_AUD", "word": "ulcer", "wordID": 1532, "conditions": [12, 800, "a", 24000], "trial": 2, "serialpos": 0, "trial_type": "single-audio", "trial_index": 89, "time_elapsed": 459117, "internal_node_id": "0.0-62.0"}}, {"uniqueid": "MTK0434:34Z02EIMITK5WDI370NEG6MAX42T0C", "current_trial": 90, "dateTime": 1510868383430, "trialdata": {"rt": -1000, "stimulus": "/static/audio/wordpool/SHRUB.wav", "key_press": -1, "type": "PRES_AUD", "word": "shrub", "wordID": 1298, "conditions": [12, 800, "a", 24000], "trial": 2, "serialpos": 1, "trial_type": "single-audio", "trial_index": 90, "time_elapsed": 460884, "internal_node_id": "0.0-63.0"}}, {"uniqueid": "MTK0434:34Z02EIMITK5WDI370NEG6MAX42T0C", "current_trial": 91, "dateTime": 1510868385112, "trialdata": {"rt": -1000, "stimulus": "/static/audio/wordpool/LILY.wav", "key_press": -1, "type": "PRES_AUD", "word": "lily", "wordID": 820, "conditions": [12, 800, "a", 24000], "trial": 2, "serialpos": 2, "trial_type": "single-audio", "trial_index": 91, "time_elapsed": 462566, "internal_node_id": "0.0-64.0"}}, {"uniqueid": "MTK0434:34Z02EIMITK5WDI370NEG6MAX42T0C", "current_trial": 92, "dateTime": 1510868386968, "trialdata": {"rt": -1000, "stimulus": "/static/audio/wordpool/BLADE.wav", "key_press": -1, "type": "PRES_AUD", "word": "blade", "wordID": 133, "conditions": [12, 800, "a", 24000], "trial": 2, "serialpos": 3, "trial_type": "single-audio", "trial_index": 92, "time_elapsed": 464422, "internal_node_id": "0.0-65.0"}}, {"uniqueid": "MTK0434:34Z02EIMITK5WDI370NEG6MAX42T0C", "current_trial": 93, "dateTime": 1510868388846, "trialdata": {"rt": -1000, "stimulus": "/static/audio/wordpool/SCALPEL.wav", "key_press": -1, "type": "PRES_AUD", "word": "scalpel", "wordID": 1242, "conditions": [12, 800, "a", 24000], "trial": 2, "serialpos": 4, "trial_type": "single-audio", "trial_index": 93, "time_elapsed": 466300, "internal_node_id": "0.0-66.0"}}, {"uniqueid": "MTK0434:34Z02EIMITK5WDI370NEG6MAX42T0C", "current_trial": 94, "dateTime": 1510868390704, "trialdata": {"rt": -1000, "stimulus": "/static/audio/wordpool/GYMNAST.wav", "key_press": -1, "type": "PRES_AUD", "word": "gymnast", "wordID": 674, "conditions": [12, 800, "a", 24000], "trial": 2, "serialpos": 5, "trial_type": "single-audio", "trial_index": 94, "time_elapsed": 468158, "internal_node_id": "0.0-67.0"}}, {"uniqueid": "MTK0434:34Z02EIMITK5WDI370NEG6MAX42T0C", "current_trial": 95, "dateTime": 1510868392436, "trialdata": {"rt": -1000, "stimulus": "/static/audio/wordpool/COUNTY.wav", "key_press": -1, "type": "PRES_AUD", "word": "county", "wordID": 388, "conditions": [12, 800, "a", 24000], "trial": 2, "serialpos": 6, "trial_type": "single-audio", "trial_index": 95, "time_elapsed": 469890, "internal_node_id": "0.0-68.0"}}, {"uniqueid": "MTK0434:34Z02EIMITK5WDI370NEG6MAX42T0C", "current_trial": 96, "dateTime": 1510868394179, "trialdata": {"rt": -1000, "stimulus": "/static/audio/wordpool/TURTLE.wav", "key_press": -1, "type": "PRES_AUD", "word": "turtle", "wordID": 1521, "conditions": [12, 800, "a", 24000], "trial": 2, "serialpos": 7, "trial_type": "single-audio", "trial_index": 96, "time_elapsed": 471633, "internal_node_id": "0.0-69.0"}}, {"uniqueid": "MTK0434:34Z02EIMITK5WDI370NEG6MAX42T0C", "current_trial": 97, "dateTime": 1510868395934, "trialdata": {"rt": -1000, "stimulus": "/static/audio/wordpool/BANK.wav", "key_press": -1, "type": "PRES_AUD", "word": "bank", "wordID": 82, "conditions": [12, 800, "a", 24000], "trial": 2, "serialpos": 8, "trial_type": "single-audio", "trial_index": 97, "time_elapsed": 473388, "internal_node_id": "0.0-70.0"}}, {"uniqueid": "MTK0434:34Z02EIMITK5WDI370NEG6MAX42T0C", "current_trial": 98, "dateTime": 1510868397787, "trialdata": {"rt": -1000, "stimulus": "/static/audio/wordpool/TWIG.wav", "key_press": -1, "type": "PRES_AUD", "word": "twig", "wordID": 1526, "conditions": [12, 800, "a", 24000], "trial": 2, "serialpos": 9, "trial_type": "single-audio", "trial_index": 98, "time_elapsed": 475241, "internal_node_id": "0.0-71.0"}}, {"uniqueid": "MTK0434:34Z02EIMITK5WDI370NEG6MAX42T0C", "current_trial": 99, "dateTime": 1510868399402, "trialdata": {"rt": -1000, "stimulus": "/static/audio/wordpool/CANYON.wav", "key_press": -1, "type": "PRES_AUD", "word": "canyon", "wordID": 234, "conditions": [12, 800, "a", 24000], "trial": 2, "serialpos": 10, "trial_type": "single-audio", "trial_index": 99, "time_elapsed": 476856, "internal_node_id": "0.0-72.0"}}, {"uniqueid": "MTK0434:34Z02EIMITK5WDI370NEG6MAX42T0C", "current_trial": 100, "dateTime": 1510868401117, "trialdata": {"rt": -1000, "stimulus": "/static/audio/wordpool/DANCER.wav", "key_press": -1, "type": "PRES_AUD", "word": "dancer", "wordID": 436, "conditions": [12, 800, "a", 24000], "trial": 2, "serialpos": 11, "trial_type": "single-audio", "trial_index": 100, "time_elapsed": 478571, "internal_node_id": "0.0-73.0"}}, {"uniqueid": "MTK0434:34Z02EIMITK5WDI370NEG6MAX42T0C", "current_trial": 101, "dateTime": 1510868402458, "trialdata": {"rt": -1, "stimulus": "", "key_press": -1, "type": "PRE_RECALL_DELAY", "trial_type": "single-stim", "trial_index": 101, "time_elapsed": 479911, "internal_node_id": "0.0-74.0-0.0"}}, {"uniqueid": "MTK0434:34Z02EIMITK5WDI370NEG6MAX42T0C", "current_trial": 102, "dateTime": 1510868402959, "trialdata": {"rt": -1000, "stimulus": "/static/audio/400Hz.wav", "key_press": -1, "type": "PRE_RECALL_ALERT", "trial_type": "single-audio", "trial_index": 102, "time_elapsed": 480413, "internal_node_id": "0.0-75.0"}}, {"uniqueid": "MTK0434:34Z02EIMITK5WDI370NEG6MAX42T0C", "current_trial": 103, "dateTime": 1510868462970, "trialdata": {"rt": [6456, 8384, 10088, 13879, 19720, 24256, 34743, 36631], "recwords": ["dancer", "twig", "county", "ulcer", "blade", "scalpel", "turtle", "bank"], "type": "FREE_RECALL", "conditions": [12, 800, "a", 24000], "trial": 2, "trial_type": "free-recall", "trial_index": 103, "time_elapsed": 540420, "internal_node_id": "0.0-76.0-0.0"}}, {"uniqueid": "MTK0434:34Z02EIMITK5WDI370NEG6MAX42T0C", "current_trial": 104, "dateTime": 1510868470469, "trialdata": {"rt": 5497, "key_press": 13, "type": "INSTRUCTIONS", "trial_type": "text", "trial_index": 104, "time_elapsed": 547922, "internal_node_id": "0.0-77.0"}}, {"uniqueid": "MTK0434:34Z02EIMITK5WDI370NEG6MAX42T0C", "current_trial": 105, "dateTime": 1510868484472, "trialdata": {"rt": [1476, 2684, 5636, 6932, 8788, 10677], "responses": ["6", "9", "21", "10", "20", "7"], "num1": [1, 3, 9, 1, 4, 3, 6], "num2": [2, 3, 6, 1, 7, 2, 4], "num3": [3, 3, 6, 8, 9, 2, 3], "type": "DISTRACTOR", "conditions": [24, 800, "v", 12000], "trial": 3, "trial_type": "math-distractor", "trial_index": 105, "time_elapsed": 561926, "internal_node_id": "0.0-78.0"}}, {"uniqueid": "MTK0434:34Z02EIMITK5WDI370NEG6MAX42T0C", "current_trial": 106, "dateTime": 1510868487475, "trialdata": {"rt": -1, "stimulus": "<p id=\"stim\">10</p>", "key_press": -1, "trial_type": "single-stim", "trial_index": 106, "time_elapsed": 564929, "internal_node_id": "0.0-79.0-0.0"}}, {"uniqueid": "MTK0434:34Z02EIMITK5WDI370NEG6MAX42T0C", "current_trial": 107, "dateTime": 1510868488477, "trialdata": {"rt": -1, "stimulus": "<p id=\"stim\">9</p>", "key_press": -1, "trial_type": "single-stim", "trial_index": 107, "time_elapsed": 565931, "internal_node_id": "0.0-79.0-1.0"}}, {"uniqueid": "MTK0434:34Z02EIMITK5WDI370NEG6MAX42T0C", "current_trial": 108, "dateTime": 1510868489479, "trialdata": {"rt": -1, "stimulus": "<p id=\"stim\">8</p>", "key_press": -1, "trial_type": "single-stim", "trial_index": 108, "time_elapsed": 566933, "internal_node_id": "0.0-79.0-2.0"}}, {"uniqueid": "MTK0434:34Z02EIMITK5WDI370NEG6MAX42T0C", "current_trial": 109, "dateTime": 1510868490480, "trialdata": {"rt": -1, "stimulus": "<p id=\"stim\">7</p>", "key_press": -1, "trial_type": "single-stim", "trial_index": 109, "time_elapsed": 567934, "internal_node_id": "0.0-79.0-3.0"}}, {"uniqueid": "MTK0434:34Z02EIMITK5WDI370NEG6MAX42T0C", "current_trial": 110, "dateTime": 1510868491481, "trialdata": {"rt": -1, "stimulus": "<p id=\"stim\">6</p>", "key_press": -1, "trial_type": "single-stim", "trial_index": 110, "time_elapsed": 568935, "internal_node_id": "0.0-79.0-4.0"}}, {"uniqueid": "MTK0434:34Z02EIMITK5WDI370NEG6MAX42T0C", "current_trial": 111, "dateTime": 1510868492483, "trialdata": {"rt": -1, "stimulus": "<p id=\"stim\">5</p>", "key_press": -1, "trial_type": "single-stim", "trial_index": 111, "time_elapsed": 569937, "internal_node_id": "0.0-79.0-5.0"}}, {"uniqueid": "MTK0434:34Z02EIMITK5WDI370NEG6MAX42T0C", "current_trial": 112, "dateTime": 1510868493484, "trialdata": {"rt": -1, "stimulus": "<p id=\"stim\">4</p>", "key_press": -1, "trial_type": "single-stim", "trial_index": 112, "time_elapsed": 570938, "internal_node_id": "0.0-79.0-6.0"}}, {"uniqueid": "MTK0434:34Z02EIMITK5WDI370NEG6MAX42T0C", "current_trial": 113, "dateTime": 1510868494486, "trialdata": {"rt": -1, "stimulus": "<p id=\"stim\">3</p>", "key_press": -1, "trial_type": "single-stim", "trial_index": 113, "time_elapsed": 571940, "internal_node_id": "0.0-79.0-7.0"}}, {"uniqueid": "MTK0434:34Z02EIMITK5WDI370NEG6MAX42T0C", "current_trial": 114, "dateTime": 1510868495487, "trialdata": {"rt": -1, "stimulus": "<p id=\"stim\">2</p>", "key_press": -1, "trial_type": "single-stim", "trial_index": 114, "time_elapsed": 572941, "internal_node_id": "0.0-79.0-8.0"}}, {"uniqueid": "MTK0434:34Z02EIMITK5WDI370NEG6MAX42T0C", "current_trial": 115, "dateTime": 1510868496488, "trialdata": {"rt": -1, "stimulus": "<p id=\"stim\">1</p>", "key_press": -1, "trial_type": "single-stim", "trial_index": 115, "time_elapsed": 573942, "internal_node_id": "0.0-79.0-9.0"}}, {"uniqueid": "MTK0434:34Z02EIMITK5WDI370NEG6MAX42T0C", "current_trial": 116, "dateTime": 1510868497990, "trialdata": {"rt": -1, "stimulus": "<p id=\"stim\">+</p>", "key_press": -1, "type": "FIXATION", "trial_type": "single-stim", "trial_index": 116, "time_elapsed": 575444, "internal_node_id": "0.0-80.0-0.0"}}, {"uniqueid": "MTK0434:34Z02EIMITK5WDI370NEG6MAX42T0C", "current_trial": 117, "dateTime": 1510868498791, "trialdata": {"rt": -1, "stimulus": "<p id=\"stim\">BEAKER</p>", "key_press": -1, "type": "PRES_VIS", "word": "beaker", "wordID": 103, "conditions": [24, 800, "v", 12000], "trial": 3, "serialpos": 0, "trial_type": "single-stim", "trial_index": 117, "time_elapsed": 576245, "internal_node_id": "0.0-81.0"}}, {"uniqueid": "MTK0434:34Z02EIMITK5WDI370NEG6MAX42T0C", "current_trial": 118, "dateTime": 1510868500410, "trialdata": {"rt": -1, "stimulus": "<p id=\"stim\">JUNGLE</p>", "key_press": -1, "type": "PRES_VIS", "word": "jungle", "wordID": 763, "conditions": [24, 800, "v", 12000], "trial": 3, "serialpos": 1, "trial_type": "single-stim", "trial_index": 118, "time_elapsed": 577864, "internal_node_id": "0.0-82.0"}}, {"uniqueid": "MTK0434:34Z02EIMITK5WDI370NEG6MAX42T0C", "current_trial": 119, "dateTime": 1510868502332, "trialdata": {"rt": -1, "stimulus": "<p id=\"stim\">ROBBER</p>", "key_press": -1, "type": "PRES_VIS", "word": "robber", "wordID": 1196, "conditions": [24, 800, "v", 12000], "trial": 3, "serialpos": 2, "trial_type": "single-stim", "trial_index": 119, "time_elapsed": 579786, "internal_node_id": "0.0-83.0"}}, {"uniqueid": "MTK0434:34Z02EIMITK5WDI370NEG6MAX42T0C", "current_trial": 120, "dateTime": 1510868504283, "trialdata": {"rt": -1, "stimulus": "<p id=\"stim\">SPACE</p>", "key_press": -1, "type": "PRES_VIS", "word": "space", "wordID": 1344, "conditions": [24, 800, "v", 12000], "trial": 3, "serialpos": 3, "trial_type": "single-stim", "trial_index": 120, "time_elapsed": 581736, "internal_node_id": "0.0-84.0"}}, {"uniqueid": "MTK0434:34Z02EIMITK5WDI370NEG6MAX42T0C", "current_trial": 121, "dateTime": 1510868505959, "trialdata": {"rt": -1, "stimulus": "<p id=\"stim\">DASHBOARD</p>", "key_press": -1, "type": "PRES_VIS", "word": "dashboard", "wordID": 440, "conditions": [24, 800, "v", 12000], "trial": 3, "serialpos": 4, "trial_type": "single-stim", "trial_index": 121, "time_elapsed": 583413, "internal_node_id": "0.0-85.0"}}, {"uniqueid": "MTK0434:34Z02EIMITK5WDI370NEG6MAX42T0C", "current_trial": 122, "dateTime": 1510868507643, "trialdata": {"rt": -1, "stimulus": "<p id=\"stim\">KNAPSACK</p>", "key_press": -1, "type": "PRES_VIS", "word": "knapsack", "wordID": 782, "conditions": [24, 800, "v", 12000], "trial": 3, "serialpos": 5, "trial_type": "single-stim", "trial_index": 122, "time_elapsed": 585097, "internal_node_id": "0.0-86.0"}}, {"uniqueid": "MTK0434:34Z02EIMITK5WDI370NEG6MAX42T0C", "current_trial": 123, "dateTime": 1510868509313, "trialdata": {"rt": -1, "stimulus": "<p id=\"stim\">BRIEFCASE</p>", "key_press": -1, "type": "PRES_VIS", "word": "briefcase", "wordID": 174, "conditions": [24, 800, "v", 12000], "trial": 3, "serialpos": 6, "trial_type": "single-stim", "trial_index": 123, "time_elapsed": 586767, "internal_node_id": "0.0-87.0"}}, {"uniqueid": "MTK0434:34Z02EIMITK5WDI370NEG6MAX42T0C", "current_trial": 124, "dateTime": 1510868511035, "trialdata": {"rt": -1, "stimulus": "<p id=\"stim\">BURGLAR</p>", "key_press": -1, "type": "PRES_VIS", "word": "burglar", "wordID": 199, "conditions": [24, 800, "v", 12000], "trial": 3, "serialpos": 7, "trial_type": "single-stim", "trial_index": 124, "time_elapsed": 588488, "internal_node_id": "0.0-88.0"}}, {"uniqueid": "MTK0434:34Z02EIMITK5WDI370NEG6MAX42T0C", "current_trial": 125, "dateTime": 1510868512987, "trialdata": {"rt": -1, "stimulus": "<p id=\"stim\">DRILL</p>", "key_press": -1, "type": "PRES_VIS", "word": "drill", "wordID": 496, "conditions": [24, 800, "v", 12000], "trial": 3, "serialpos": 8, "trial_type": "single-stim", "trial_index": 125, "time_elapsed": 590441, "internal_node_id": "0.0-89.0"}}, {"uniqueid": "MTK0434:34Z02EIMITK5WDI370NEG6MAX42T0C", "current_trial": 126, "dateTime": 1510868514727, "trialdata": {"rt": -1, "stimulus": "<p id=\"stim\">GROUND</p>", "key_press": -1, "type": "PRES_VIS", "word": "ground", "wordID": 665, "conditions": [24, 800, "v", 12000], "trial": 3, "serialpos": 9, "trial_type": "single-stim", "trial_index": 126, "time_elapsed": 592181, "internal_node_id": "0.0-90.0"}}, {"uniqueid": "MTK0434:34Z02EIMITK5WDI370NEG6MAX42T0C", "current_trial": 127, "dateTime": 1510868516563, "trialdata": {"rt": -1, "stimulus": "<p id=\"stim\">HEADBAND</p>", "key_press": -1, "type": "PRES_VIS", "word": "headband", "wordID": 695, "conditions": [24, 800, "v", 12000], "trial": 3, "serialpos": 10, "trial_type": "single-stim", "trial_index": 127, "time_elapsed": 594017, "internal_node_id": "0.0-91.0"}}, {"uniqueid": "MTK0434:34Z02EIMITK5WDI370NEG6MAX42T0C", "current_trial": 128, "dateTime": 1510868518247, "trialdata": {"rt": -1, "stimulus": "<p id=\"stim\">SUSPECT</p>", "key_press": -1, "type": "PRES_VIS", "word": "suspect", "wordID": 1414, "conditions": [24, 800, "v", 12000], "trial": 3, "serialpos": 11, "trial_type": "single-stim", "trial_index": 128, "time_elapsed": 595701, "internal_node_id": "0.0-92.0"}}, {"uniqueid": "MTK0434:34Z02EIMITK5WDI370NEG6MAX42T0C", "current_trial": 129, "dateTime": 1510868519865, "trialdata": {"rt": -1, "stimulus": "<p id=\"stim\">TABLET</p>", "key_press": -1, "type": "PRES_VIS", "word": "tablet", "wordID": 1426, "conditions": [24, 800, "v", 12000], "trial": 3, "serialpos": 12, "trial_type": "single-stim", "trial_index": 129, "time_elapsed": 597319, "internal_node_id": "0.0-93.0"}}, {"uniqueid": "MTK0434:34Z02EIMITK5WDI370NEG6MAX42T0C", "current_trial": 130, "dateTime": 1510868521850, "trialdata": {"rt": -1, "stimulus": "<p id=\"stim\">SILK</p>", "key_press": -1, "type": "PRES_VIS", "word": "silk", "wordID": 1306, "conditions": [24, 800, "v", 12000], "trial": 3, "serialpos": 13, "trial_type": "single-stim", "trial_index": 130, "time_elapsed": 599304, "internal_node_id": "0.0-94.0"}}, {"uniqueid": "MTK0434:34Z02EIMITK5WDI370NEG6MAX42T0C", "current_trial": 131, "dateTime": 1510868523522, "trialdata": {"rt": -1, "stimulus": "<p id=\"stim\">VENUS</p>", "key_press": -1, "type": "PRES_VIS", "word": "venus", "wordID": 1556, "conditions": [24, 800, "v", 12000], "trial": 3, "serialpos": 14, "trial_type": "single-stim", "trial_index": 131, "time_elapsed": 600976, "internal_node_id": "0.0-95.0"}}, {"uniqueid": "MTK0434:34Z02EIMITK5WDI370NEG6MAX42T0C", "current_trial": 132, "dateTime": 1510868525188, "trialdata": {"rt": -1, "stimulus": "<p id=\"stim\">SUPPER</p>", "key_press": -1, "type": "PRES_VIS", "word": "supper", "wordID": 1410, "conditions": [24, 800, "v", 12000], "trial": 3, "serialpos": 15, "trial_type": "single-stim", "trial_index": 132, "time_elapsed": 602642, "internal_node_id": "0.0-96.0"}}, {"uniqueid": "MTK0434:34Z02EIMITK5WDI370NEG6MAX42T0C", "current_trial": 133, "dateTime": 1510868526968, "trialdata": {"rt": -1, "stimulus": "<p id=\"stim\">PICNIC</p>", "key_press": -1, "type": "PRES_VIS", "word": "picnic", "wordID": 1059, "conditions": [24, 800, "v", 12000], "trial": 3, "serialpos": 16, "trial_type": "single-stim", "trial_index": 133, "time_elapsed": 604422, "internal_node_id": "0.0-97.0"}}, {"uniqueid": "MTK0434:34Z02EIMITK5WDI370NEG6MAX42T0C", "current_trial": 134, "dateTime": 1510868528755, "trialdata": {"rt": -1, "stimulus": "<p id=\"stim\">SPHINX</p>", "key_press": -1, "type": "PRES_VIS", "word": "sphinx", "wordID": 1348, "conditions": [24, 800, "v", 12000], "trial": 3, "serialpos": 17, "trial_type": "single-stim", "trial_index": 134, "time_elapsed": 606209, "internal_node_id": "0.0-98.0"}}, {"uniqueid": "MTK0434:34Z02EIMITK5WDI370NEG6MAX42T0C", "current_trial": 135, "dateTime": 1510868530410, "trialdata": {"rt": -1, "stimulus": "<p id=\"stim\">PECAN</p>", "key_press": -1, "type": "PRES_VIS", "word": "pecan", "wordID": 1035, "conditions": [24, 800, "v", 12000], "trial": 3, "serialpos": 18, "trial_type": "single-stim", "trial_index": 135, "time_elapsed": 607864, "internal_node_id": "0.0-99.0"}}, {"uniqueid": "MTK0434:34Z02EIMITK5WDI370NEG6MAX42T0C", "current_trial": 136, "dateTime": 1510868532256, "trialdata": {"rt": -1, "stimulus": "<p id=\"stim\">CLAM</p>", "key_press": -1, "type": "PRES_VIS", "word": "clam", "wordID": 314, "conditions": [24, 800, "v", 12000], "trial": 3, "serialpos": 19, "trial_type": "single-stim", "trial_index": 136, "time_elapsed": 609710, "internal_node_id": "0.0-100.0"}}, {"uniqueid": "MTK0434:34Z02EIMITK5WDI370NEG6MAX42T0C", "current_trial": 137, "dateTime": 1510868533864, "trialdata": {"rt": -1, "stimulus": "<p id=\"stim\">TEMPLE</p>", "key_press": -1, "type": "PRES_VIS", "word": "temple", "wordID": 1447, "conditions": [24, 800, "v", 12000], "trial": 3, "serialpos": 20, "trial_type": "single-stim", "trial_index": 137, "time_elapsed": 611318, "internal_node_id": "0.0-101.0"}}, {"uniqueid": "MTK0434:34Z02EIMITK5WDI370NEG6MAX42T0C", "current_trial": 138, "dateTime": 1510868535777, "trialdata": {"rt": -1, "stimulus": "<p id=\"stim\">MISTER</p>", "key_press": -1, "type": "PRES_VIS", "word": "mister", "wordID": 900, "conditions": [24, 800, "v", 12000], "trial": 3, "serialpos": 21, "trial_type": "single-stim", "trial_index": 138, "time_elapsed": 613231, "internal_node_id": "0.0-102.0"}}, {"uniqueid": "MTK0434:34Z02EIMITK5WDI370NEG6MAX42T0C", "current_trial": 139, "dateTime": 1510868537522, "trialdata": {"rt": -1, "stimulus": "<p id=\"stim\">PEANUT</p>", "key_press": -1, "type": "PRES_VIS", "word": "peanut", "wordID": 1031, "conditions": [24, 800, "v", 12000], "trial": 3, "serialpos": 22, "trial_type": "single-stim", "trial_index": 139, "time_elapsed": 614975, "internal_node_id": "0.0-103.0"}}, {"uniqueid": "MTK0434:34Z02EIMITK5WDI370NEG6MAX42T0C", "current_trial": 140, "dateTime": 1510868539192, "trialdata": {"rt": -1, "stimulus": "<p id=\"stim\">PIZZA</p>", "key_press": -1, "type": "PRES_VIS", "word": "pizza", "wordID": 1078, "conditions": [24, 800, "v", 12000], "trial": 3, "serialpos": 23, "trial_type": "single-stim", "trial_index": 140, "time_elapsed": 616646, "internal_node_id": "0.0-104.0"}}, {"uniqueid": "MTK0434:34Z02EIMITK5WDI370NEG6MAX42T0C", "current_trial": 141, "dateTime": 1510868541500, "trialdata": {"rt": -1, "stimulus": "", "key_press": -1, "type": "PRE_RECALL_DELAY", "trial_type": "single-stim", "trial_index": 141, "time_elapsed": 618954, "internal_node_id": "0.0-105.0-0.0"}}, {"uniqueid": "MTK0434:34Z02EIMITK5WDI370NEG6MAX42T0C", "current_trial": 142, "dateTime": 1510868542001, "trialdata": {"rt": -1000, "stimulus": "/static/audio/400Hz.wav", "key_press": -1, "type": "PRE_RECALL_ALERT", "trial_type": "single-audio", "trial_index": 142, "time_elapsed": 619455, "internal_node_id": "0.0-106.0"}}, {"uniqueid": "MTK0434:34Z02EIMITK5WDI370NEG6MAX42T0C", "current_trial": 143, "dateTime": 1510868602008, "trialdata": {"rt": [9913, 13089, 17018, 21761, 26289, 31953, 35193, 38857, 42857], "recwords": ["pizza", "sphinx", "temple", "calm", "beaker", "peanut", "picnic", "silk", "drill"], "type": "FREE_RECALL", "conditions": [24, 800, "v", 12000], "trial": 3, "trial_type": "free-recall", "trial_index": 143, "time_elapsed": 679458, "internal_node_id": "0.0-107.0-0.0"}}, {"uniqueid": "MTK0434:34Z02EIMITK5WDI370NEG6MAX42T0C", "current_trial": 144, "dateTime": 1510868619644, "trialdata": {"rt": 15635, "key_press": 13, "type": "INSTRUCTIONS", "trial_type": "text", "trial_index": 144, "time_elapsed": 697098, "internal_node_id": "0.0-108.0"}}, {"uniqueid": "MTK0434:34Z02EIMITK5WDI370NEG6MAX42T0C", "current_trial": 145, "dateTime": 1510868633649, "trialdata": {"rt": [2708, 4813, 6941, 8957, 11525], "responses": ["18", "8", "16", "18", "13"], "num1": [6, 3, 8, 3, 6, 9], "num2": [5, 2, 7, 6, 3, 1], "num3": [7, 3, 1, 9, 4, 7], "type": "DISTRACTOR", "conditions": [12, 1600, "v", 12000], "trial": 4, "trial_type": "math-distractor", "trial_index": 145, "time_elapsed": 711102, "internal_node_id": "0.0-109.0"}}, {"uniqueid": "MTK0434:34Z02EIMITK5WDI370NEG6MAX42T0C", "current_trial": 146, "dateTime": 1510868636650, "trialdata": {"rt": -1, "stimulus": "<p id=\"stim\">10</p>", "key_press": -1, "trial_type": "single-stim", "trial_index": 146, "time_elapsed": 714104, "internal_node_id": "0.0-110.0-0.0"}}, {"uniqueid": "MTK0434:34Z02EIMITK5WDI370NEG6MAX42T0C", "current_trial": 147, "dateTime": 1510868637652, "trialdata": {"rt": -1, "stimulus": "<p id=\"stim\">9</p>", "key_press": -1, "trial_type": "single-stim", "trial_index": 147, "time_elapsed": 715106, "internal_node_id": "0.0-110.0-1.0"}}, {"uniqueid": "MTK0434:34Z02EIMITK5WDI370NEG6MAX42T0C", "current_trial": 148, "dateTime": 1510868638654, "trialdata": {"rt": -1, "stimulus": "<p id=\"stim\">8</p>", "key_press": -1, "trial_type": "single-stim", "trial_index": 148, "time_elapsed": 716108, "internal_node_id": "0.0-110.0-2.0"}}, {"uniqueid": "MTK0434:34Z02EIMITK5WDI370NEG6MAX42T0C", "current_trial": 149, "dateTime": 1510868639655, "trialdata": {"rt": -1, "stimulus": "<p id=\"stim\">7</p>", "key_press": -1, "trial_type": "single-stim", "trial_index": 149, "time_elapsed": 717109, "internal_node_id": "0.0-110.0-3.0"}}, {"uniqueid": "MTK0434:34Z02EIMITK5WDI370NEG6MAX42T0C", "current_trial": 150, "dateTime": 1510868640657, "trialdata": {"rt": -1, "stimulus": "<p id=\"stim\">6</p>", "key_press": -1, "trial_type": "single-stim", "trial_index": 150, "time_elapsed": 718110, "internal_node_id": "0.0-110.0-4.0"}}, {"uniqueid": "MTK0434:34Z02EIMITK5WDI370NEG6MAX42T0C", "current_trial": 151, "dateTime": 1510868641658, "trialdata": {"rt": -1, "stimulus": "<p id=\"stim\">5</p>", "key_press": -1, "trial_type": "single-stim", "trial_index": 151, "time_elapsed": 719112, "internal_node_id": "0.0-110.0-5.0"}}, {"uniqueid": "MTK0434:34Z02EIMITK5WDI370NEG6MAX42T0C", "current_trial": 152, "dateTime": 1510868642659, "trialdata": {"rt": -1, "stimulus": "<p id=\"stim\">4</p>", "key_press": -1, "trial_type": "single-stim", "trial_index": 152, "time_elapsed": 720113, "internal_node_id": "0.0-110.0-6.0"}}, {"uniqueid": "MTK0434:34Z02EIMITK5WDI370NEG6MAX42T0C", "current_trial": 153, "dateTime": 1510868643660, "trialdata": {"rt": -1, "stimulus": "<p id=\"stim\">3</p>", "key_press": -1, "trial_type": "single-stim", "trial_index": 153, "time_elapsed": 721114, "internal_node_id": "0.0-110.0-7.0"}}, {"uniqueid": "MTK0434:34Z02EIMITK5WDI370NEG6MAX42T0C", "current_trial": 154, "dateTime": 1510868644662, "trialdata": {"rt": -1, "stimulus": "<p id=\"stim\">2</p>", "key_press": -1, "trial_type": "single-stim", "trial_index": 154, "time_elapsed": 722116, "internal_node_id": "0.0-110.0-8.0"}}, {"uniqueid": "MTK0434:34Z02EIMITK5WDI370NEG6MAX42T0C", "current_trial": 155, "dateTime": 1510868645664, "trialdata": {"rt": -1, "stimulus": "<p id=\"stim\">1</p>", "key_press": -1, "trial_type": "single-stim", "trial_index": 155, "time_elapsed": 723118, "internal_node_id": "0.0-110.0-9.0"}}, {"uniqueid": "MTK0434:34Z02EIMITK5WDI370NEG6MAX42T0C", "current_trial": 156, "dateTime": 1510868647165, "trialdata": {"rt": -1, "stimulus": "<p id=\"stim\">+</p>", "key_press": -1, "type": "FIXATION", "trial_type": "single-stim", "trial_index": 156, "time_elapsed": 724619, "internal_node_id": "0.0-111.0-0.0"}}, {"uniqueid": "MTK0434:34Z02EIMITK5WDI370NEG6MAX42T0C", "current_trial": 157, "dateTime": 1510868648768, "trialdata": {"rt": -1, "stimulus": "<p id=\"stim\">BLENDER</p>", "key_press": -1, "type": "PRES_VIS", "word": "blender", "wordID": 135, "conditions": [12, 1600, "v", 12000], "trial": 4, "serialpos": 0, "trial_type": "single-stim", "trial_index": 157, "time_elapsed": 726221, "internal_node_id": "0.0-112.0"}}, {"uniqueid": "MTK0434:34Z02EIMITK5WDI370NEG6MAX42T0C", "current_trial": 158, "dateTime": 1510868651297, "trialdata": {"rt": -1, "stimulus": "<p id=\"stim\">FLIPPER</p>", "key_press": -1, "type": "PRES_VIS", "word": "flipper", "wordID": 579, "conditions": [12, 1600, "v", 12000], "trial": 4, "serialpos": 1, "trial_type": "single-stim", "trial_index": 158, "time_elapsed": 728751, "internal_node_id": "0.0-113.0"}}, {"uniqueid": "MTK0434:34Z02EIMITK5WDI370NEG6MAX42T0C", "current_trial": 159, "dateTime": 1510868653936, "trialdata": {"rt": -1, "stimulus": "<p id=\"stim\">LAGOON</p>", "key_press": -1, "type": "PRES_VIS", "word": "lagoon", "wordID": 794, "conditions": [12, 1600, "v", 12000], "trial": 4, "serialpos": 2, "trial_type": "single-stim", "trial_index": 159, "time_elapsed": 731390, "internal_node_id": "0.0-114.0"}}, {"uniqueid": "MTK0434:34Z02EIMITK5WDI370NEG6MAX42T0C", "current_trial": 160, "dateTime": 1510868656344, "trialdata": {"rt": -1, "stimulus": "<p id=\"stim\">SLIME</p>", "key_press": -1, "type": "PRES_VIS", "word": "slime", "wordID": 1326, "conditions": [12, 1600, "v", 12000], "trial": 4, "serialpos": 3, "trial_type": "single-stim", "trial_index": 160, "time_elapsed": 733798, "internal_node_id": "0.0-115.0"}}, {"uniqueid": "MTK0434:34Z02EIMITK5WDI370NEG6MAX42T0C", "current_trial": 161, "dateTime": 1510868659094, "trialdata": {"rt": -1, "stimulus": "<p id=\"stim\">DUSTPAN</p>", "key_press": -1, "type": "PRES_VIS", "word": "dustpan", "wordID": 508, "conditions": [12, 1600, "v", 12000], "trial": 4, "serialpos": 4, "trial_type": "single-stim", "trial_index": 161, "time_elapsed": 736548, "internal_node_id": "0.0-116.0"}}, {"uniqueid": "MTK0434:34Z02EIMITK5WDI370NEG6MAX42T0C", "current_trial": 162, "dateTime": 1510868661856, "trialdata": {"rt": -1, "stimulus": "<p id=\"stim\">TEACHER</p>", "key_press": -1, "type": "PRES_VIS", "word": "teacher", "wordID": 1439, "conditions": [12, 1600, "v", 12000], "trial": 4, "serialpos": 5, "trial_type": "single-stim", "trial_index": 162, "time_elapsed": 739310, "internal_node_id": "0.0-117.0"}}, {"uniqueid": "MTK0434:34Z02EIMITK5WDI370NEG6MAX42T0C", "current_trial": 163, "dateTime": 1510868664606, "trialdata": {"rt": -1, "stimulus": "<p id=\"stim\">STUDENT</p>", "key_press": -1, "type": "PRES_VIS", "word": "student", "wordID": 1394, "conditions": [12, 1600, "v", 12000], "trial": 4, "serialpos": 6, "trial_type": "single-stim", "trial_index": 163, "time_elapsed": 742060, "internal_node_id": "0.0-118.0"}}, {"uniqueid": "MTK0434:34Z02EIMITK5WDI370NEG6MAX42T0C", "current_trial": 164, "dateTime": 1510868667356, "trialdata": {"rt": -1, "stimulus": "<p id=\"stim\">BOUQUET</p>", "key_press": -1, "type": "PRES_VIS", "word": "bouquet", "wordID": 156, "conditions": [12, 1600, "v", 12000], "trial": 4, "serialpos": 7, "trial_type": "single-stim", "trial_index": 164, "time_elapsed": 744810, "internal_node_id": "0.0-119.0"}}, {"uniqueid": "MTK0434:34Z02EIMITK5WDI370NEG6MAX42T0C", "current_trial": 165, "dateTime": 1510868670011, "trialdata": {"rt": -1, "stimulus": "<p id=\"stim\">ISLAND</p>", "key_press": -1, "type": "PRES_VIS", "word": "island", "wordID": 744, "conditions": [12, 1600, "v", 12000], "trial": 4, "serialpos": 8, "trial_type": "single-stim", "trial_index": 165, "time_elapsed": 747465, "internal_node_id": "0.0-120.0"}}, {"uniqueid": "MTK0434:34Z02EIMITK5WDI370NEG6MAX42T0C", "current_trial": 166, "dateTime": 1510868672744, "trialdata": {"rt": -1, "stimulus": "<p id=\"stim\">SKILLET</p>", "key_press": -1, "type": "PRES_VIS", "word": "skillet", "wordID": 1316, "conditions": [12, 1600, "v", 12000], "trial": 4, "serialpos": 9, "trial_type": "single-stim", "trial_index": 166, "time_elapsed": 750198, "internal_node_id": "0.0-121.0"}}, {"uniqueid": "MTK0434:34Z02EIMITK5WDI370NEG6MAX42T0C", "current_trial": 167, "dateTime": 1510868675257, "trialdata": {"rt": -1, "stimulus": "<p id=\"stim\">FEMALE</p>", "key_press": -1, "type": "PRES_VIS", "word": "female", "wordID": 558, "conditions": [12, 1600, "v", 12000], "trial": 4, "serialpos": 10, "trial_type": "single-stim", "trial_index": 167, "time_elapsed": 752711, "internal_node_id": "0.0-122.0"}}, {"uniqueid": "MTK0434:34Z02EIMITK5WDI370NEG6MAX42T0C", "current_trial": 168, "dateTime": 1510868677777, "trialdata": {"rt": -1, "stimulus": "<p id=\"stim\">DRESSER</p>", "key_press": -1, "type": "PRES_VIS", "word": "dresser", "wordID": 495, "conditions": [12, 1600, "v", 12000], "trial": 4, "serialpos": 11, "trial_type": "single-stim", "trial_index": 168, "time_elapsed": 755230, "internal_node_id": "0.0-123.0"}}, {"uniqueid": "MTK0434:34Z02EIMITK5WDI370NEG6MAX42T0C", "current_trial": 169, "dateTime": 1510868680107, "trialdata": {"rt": -1, "stimulus": "", "key_press": -1, "type": "PRE_RECALL_DELAY", "trial_type": "single-stim", "trial_index": 169, "time_elapsed": 757561, "internal_node_id": "0.0-124.0-0.0"}}, {"uniqueid": "MTK0434:34Z02EIMITK5WDI370NEG6MAX42T0C", "current_trial": 170, "dateTime": 1510868680610, "trialdata": {"rt": -1000, "stimulus": "/static/audio/400Hz.wav", "key_press": -1, "type": "PRE_RECALL_ALERT", "trial_type": "single-audio", "trial_index": 170, "time_elapsed": 758064, "internal_node_id": "0.0-125.0"}}, {"uniqueid": "MTK0434:34Z02EIMITK5WDI370NEG6MAX42T0C", "current_trial": 171, "dateTime": 1510868740615, "trialdata": {"rt": [3928, 5568, 8975, 11560, 13672, 16887, 20824, 24216, 32303], "recwords": ["skillet", "female", "dresser", "teacher", "student", "bouquet", "lagoon", "dustpan", "island"], "type": "FREE_RECALL", "conditions": [12, 1600, "v", 12000], "trial": 4, "trial_type": "free-recall", "trial_index": 171, "time_elapsed": 818066, "internal_node_id": "0.0-126.0-0.0"}}, {"uniqueid": "MTK0434:34Z02EIMITK5WDI370NEG6MAX42T0C", "current_trial": 172, "dateTime": 1510868760092, "trialdata": {"rt": 17475, "key_press": 13, "type": "INSTRUCTIONS", "trial_type": "text", "trial_index": 172, "time_elapsed": 837546, "internal_node_id": "0.0-127.0"}}, {"uniqueid": "MTK0434:34Z02EIMITK5WDI370NEG6MAX42T0C", "current_trial": 173, "dateTime": 1510868786096, "trialdata": {"rt": [1764, 3596, 5076, 7004, 9460, 11348, 13251, 15004, 17484, 19380, 21244, 23038], "responses": ["8", "15", "8", "27", "15", "21", "14", "14", "15", "16", "15", "12"], "num1": [1, 7, 2, 9, 4, 7, 3, 4, 5, 3, 4, 2, 8], "num2": [1, 2, 3, 9, 2, 5, 3, 2, 1, 5, 3, 2, 5], "num3": [6, 6, 3, 9, 9, 9, 8, 8, 9, 8, 8, 8, 8], "type": "DISTRACTOR", "conditions": [12, 800, "v", 24000], "trial": 5, "trial_type": "math-distractor", "trial_index": 173, "time_elapsed": 863550, "internal_node_id": "0.0-128.0"}}, {"uniqueid": "MTK0434:34Z02EIMITK5WDI370NEG6MAX42T0C", "current_trial": 174, "dateTime": 1510868789098, "trialdata": {"rt": -1, "stimulus": "<p id=\"stim\">10</p>", "key_press": -1, "trial_type": "single-stim", "trial_index": 174, "time_elapsed": 866552, "internal_node_id": "0.0-129.0-0.0"}}, {"uniqueid": "MTK0434:34Z02EIMITK5WDI370NEG6MAX42T0C", "current_trial": 175, "dateTime": 1510868790099, "trialdata": {"rt": -1, "stimulus": "<p id=\"stim\">9</p>", "key_press": -1, "trial_type": "single-stim", "trial_index": 175, "time_elapsed": 867553, "internal_node_id": "0.0-129.0-1.0"}}, {"uniqueid": "MTK0434:34Z02EIMITK5WDI370NEG6MAX42T0C", "current_trial": 176, "dateTime": 1510868791101, "trialdata": {"rt": -1, "stimulus": "<p id=\"stim\">8</p>", "key_press": -1, "trial_type": "single-stim", "trial_index": 176, "time_elapsed": 868555, "internal_node_id": "0.0-129.0-2.0"}}, {"uniqueid": "MTK0434:34Z02EIMITK5WDI370NEG6MAX42T0C", "current_trial": 177, "dateTime": 1510868792102, "trialdata": {"rt": -1, "stimulus": "<p id=\"stim\">7</p>", "key_press": -1, "trial_type": "single-stim", "trial_index": 177, "time_elapsed": 869556, "internal_node_id": "0.0-129.0-3.0"}}, {"uniqueid": "MTK0434:34Z02EIMITK5WDI370NEG6MAX42T0C", "current_trial": 178, "dateTime": 1510868793105, "trialdata": {"rt": -1, "stimulus": "<p id=\"stim\">6</p>", "key_press": -1, "trial_type": "single-stim", "trial_index": 178, "time_elapsed": 870557, "internal_node_id": "0.0-129.0-4.0"}}, {"uniqueid": "MTK0434:34Z02EIMITK5WDI370NEG6MAX42T0C", "current_trial": 179, "dateTime": 1510868794106, "trialdata": {"rt": -1, "stimulus": "<p id=\"stim\">5</p>", "key_press": -1, "trial_type": "single-stim", "trial_index": 179, "time_elapsed": 871560, "internal_node_id": "0.0-129.0-5.0"}}, {"uniqueid": "MTK0434:34Z02EIMITK5WDI370NEG6MAX42T0C", "current_trial": 180, "dateTime": 1510868795108, "trialdata": {"rt": -1, "stimulus": "<p id=\"stim\">4</p>", "key_press": -1, "trial_type": "single-stim", "trial_index": 180, "time_elapsed": 872562, "internal_node_id": "0.0-129.0-6.0"}}, {"uniqueid": "MTK0434:34Z02EIMITK5WDI370NEG6MAX42T0C", "current_trial": 181, "dateTime": 1510868796109, "trialdata": {"rt": -1, "stimulus": "<p id=\"stim\">3</p>", "key_press": -1, "trial_type": "single-stim", "trial_index": 181, "time_elapsed": 873563, "internal_node_id": "0.0-129.0-7.0"}}, {"uniqueid": "MTK0434:34Z02EIMITK5WDI370NEG6MAX42T0C", "current_trial": 182, "dateTime": 1510868797110, "trialdata": {"rt": -1, "stimulus": "<p id=\"stim\">2</p>", "key_press": -1, "trial_type": "single-stim", "trial_index": 182, "time_elapsed": 874564, "internal_node_id": "0.0-129.0-8.0"}}, {"uniqueid": "MTK0434:34Z02EIMITK5WDI370NEG6MAX42T0C", "current_trial": 183, "dateTime": 1510868798112, "trialdata": {"rt": -1, "stimulus": "<p id=\"stim\">1</p>", "key_press": -1, "trial_type": "single-stim", "trial_index": 183, "time_elapsed": 875566, "internal_node_id": "0.0-129.0-9.0"}}, {"uniqueid": "MTK0434:34Z02EIMITK5WDI370NEG6MAX42T0C", "current_trial": 184, "dateTime": 1510868799613, "trialdata": {"rt": -1, "stimulus": "<p id=\"stim\">+</p>", "key_press": -1, "type": "FIXATION", "trial_type": "single-stim", "trial_index": 184, "time_elapsed": 877067, "internal_node_id": "0.0-130.0-0.0"}}, {"uniqueid": "MTK0434:34Z02EIMITK5WDI370NEG6MAX42T0C", "current_trial": 185, "dateTime": 1510868800415, "trialdata": {"rt": -1, "stimulus": "<p id=\"stim\">THREAD</p>", "key_press": -1, "type": "PRES_VIS", "word": "thread", "wordID": 1459, "conditions": [12, 800, "v", 24000], "trial": 5, "serialpos": 0, "trial_type": "single-stim", "trial_index": 185, "time_elapsed": 877869, "internal_node_id": "0.0-131.0"}}, {"uniqueid": "MTK0434:34Z02EIMITK5WDI370NEG6MAX42T0C", "current_trial": 186, "dateTime": 1510868802262, "trialdata": {"rt": -1, "stimulus": "<p id=\"stim\">SERVANT</p>", "key_press": -1, "type": "PRES_VIS", "word": "servant", "wordID": 1270, "conditions": [12, 800, "v", 24000], "trial": 5, "serialpos": 1, "trial_type": "single-stim", "trial_index": 186, "time_elapsed": 879716, "internal_node_id": "0.0-132.0"}}, {"uniqueid": "MTK0434:34Z02EIMITK5WDI370NEG6MAX42T0C", "current_trial": 187, "dateTime": 1510868804263, "trialdata": {"rt": -1, "stimulus": "<p id=\"stim\">HEART</p>", "key_press": -1, "type": "PRES_VIS", "word": "heart", "wordID": 696, "conditions": [12, 800, "v", 24000], "trial": 5, "serialpos": 2, "trial_type": "single-stim", "trial_index": 187, "time_elapsed": 881716, "internal_node_id": "0.0-133.0"}}, {"uniqueid": "MTK0434:34Z02EIMITK5WDI370NEG6MAX42T0C", "current_trial": 188, "dateTime": 1510868805903, "trialdata": {"rt": -1, "stimulus": "<p id=\"stim\">ICING</p>", "key_press": -1, "type": "PRES_VIS", "word": "icing", "wordID": 731, "conditions": [12, 800, "v", 24000], "trial": 5, "serialpos": 3, "trial_type": "single-stim", "trial_index": 188, "time_elapsed": 883357, "internal_node_id": "0.0-134.0"}}, {"uniqueid": "MTK0434:34Z02EIMITK5WDI370NEG6MAX42T0C", "current_trial": 189, "dateTime": 1510868807806, "trialdata": {"rt": -1, "stimulus": "<p id=\"stim\">BUBBLE</p>", "key_press": -1, "type": "PRES_VIS", "word": "bubble", "wordID": 182, "conditions": [12, 800, "v", 24000], "trial": 5, "serialpos": 4, "trial_type": "single-stim", "trial_index": 189, "time_elapsed": 885260, "internal_node_id": "0.0-135.0"}}, {"uniqueid": "MTK0434:34Z02EIMITK5WDI370NEG6MAX42T0C", "current_trial": 190, "dateTime": 1510868809685, "trialdata": {"rt": -1, "stimulus": "<p id=\"stim\">FIDDLE</p>", "key_press": -1, "type": "PRES_VIS", "word": "fiddle", "wordID": 560, "conditions": [12, 800, "v", 24000], "trial": 5, "serialpos": 5, "trial_type": "single-stim", "trial_index": 190, "time_elapsed": 887139, "internal_node_id": "0.0-136.0"}}, {"uniqueid": "MTK0434:34Z02EIMITK5WDI370NEG6MAX42T0C", "current_trial": 191, "dateTime": 1510868811449, "trialdata": {"rt": -1, "stimulus": "<p id=\"stim\">PISTOL</p>", "key_press": -1, "type": "PRES_VIS", "word": "pistol", "wordID": 1074, "conditions": [12, 800, "v", 24000], "trial": 5, "serialpos": 6, "trial_type": "single-stim", "trial_index": 191, "time_elapsed": 888902, "internal_node_id": "0.0-137.0"}}, {"uniqueid": "MTK0434:34Z02EIMITK5WDI370NEG6MAX42T0C", "current_trial": 192, "dateTime": 1510868813082, "trialdata": {"rt": -1, "stimulus": "<p id=\"stim\">BROOK</p>", "key_press": -1, "type": "PRES_VIS", "word": "brook", "wordID": 176, "conditions": [12, 800, "v", 24000], "trial": 5, "serialpos": 7, "trial_type": "single-stim", "trial_index": 192, "time_elapsed": 890535, "internal_node_id": "0.0-138.0"}}, {"uniqueid": "MTK0434:34Z02EIMITK5WDI370NEG6MAX42T0C", "current_trial": 193, "dateTime": 1510868815024, "trialdata": {"rt": -1, "stimulus": "<p id=\"stim\">RIVER</p>", "key_press": -1, "type": "PRES_VIS", "word": "river", "wordID": 1193, "conditions": [12, 800, "v", 24000], "trial": 5, "serialpos": 8, "trial_type": "single-stim", "trial_index": 193, "time_elapsed": 892477, "internal_node_id": "0.0-139.0"}}, {"uniqueid": "MTK0434:34Z02EIMITK5WDI370NEG6MAX42T0C", "current_trial": 194, "dateTime": 1510868816873, "trialdata": {"rt": -1, "stimulus": "<p id=\"stim\">TROMBONE</p>", "key_press": -1, "type": "PRES_VIS", "word": "trombone", "wordID": 1507, "conditions": [12, 800, "v", 24000], "trial": 5, "serialpos": 9, "trial_type": "single-stim", "trial_index": 194, "time_elapsed": 894327, "internal_node_id": "0.0-140.0"}}, {"uniqueid": "MTK0434:34Z02EIMITK5WDI370NEG6MAX42T0C", "current_trial": 195, "dateTime": 1510868818756, "trialdata": {"rt": -1, "stimulus": "<p id=\"stim\">HELMET</p>", "key_press": -1, "type": "PRES_VIS", "word": "helmet", "wordID": 701, "conditions": [12, 800, "v", 24000], "trial": 5, "serialpos": 10, "trial_type": "single-stim", "trial_index": 195, "time_elapsed": 896210, "internal_node_id": "0.0-141.0"}}, {"uniqueid": "MTK0434:34Z02EIMITK5WDI370NEG6MAX42T0C", "current_trial": 196, "dateTime": 1510868820729, "trialdata": {"rt": -1, "stimulus": "<p id=\"stim\">RECORD</p>", "key_press": -1, "type": "PRES_VIS", "word": "record", "wordID": 1175, "conditions": [12, 800, "v", 24000], "trial": 5, "serialpos": 11, "trial_type": "single-stim", "trial_index": 196, "time_elapsed": 898182, "internal_node_id": "0.0-142.0"}}, {"uniqueid": "MTK0434:34Z02EIMITK5WDI370NEG6MAX42T0C", "current_trial": 197, "dateTime": 1510868822959, "trialdata": {"rt": -1, "stimulus": "", "key_press": -1, "type": "PRE_RECALL_DELAY", "trial_type": "single-stim", "trial_index": 197, "time_elapsed": 900413, "internal_node_id": "0.0-143.0-0.0"}}, {"uniqueid": "MTK0434:34Z02EIMITK5WDI370NEG6MAX42T0C", "current_trial": 198, "dateTime": 1510868823461, "trialdata": {"rt": -1000, "stimulus": "/static/audio/400Hz.wav", "key_press": -1, "type": "PRE_RECALL_ALERT", "trial_type": "single-audio", "trial_index": 198, "time_elapsed": 900915, "internal_node_id": "0.0-144.0"}}, {"uniqueid": "MTK0434:34Z02EIMITK5WDI370NEG6MAX42T0C", "current_trial": 199, "dateTime": 1510868883469, "trialdata": {"rt": [4428, 6236, 16668, 18876, 22933], "recwords": ["helmet", "record", "pistol", "bubble", "thread"], "type": "FREE_RECALL", "conditions": [12, 800, "v", 24000], "trial": 5, "trial_type": "free-recall", "trial_index": 199, "time_elapsed": 960918, "internal_node_id": "0.0-145.0-0.0"}}, {"uniqueid": "MTK0434:34Z02EIMITK5WDI370NEG6MAX42T0C", "current_trial": 200, "dateTime": 1510869793003, "trialdata": {"rt": 907530, "key_press": 13, "type": "INSTRUCTIONS", "trial_type": "text", "trial_index": 200, "time_elapsed": 1870455, "internal_node_id": "0.0-146.0"}}, {"uniqueid": "MTK0434:34Z02EIMITK5WDI370NEG6MAX42T0C", "current_trial": 201, "dateTime": 1510869807011, "trialdata": {"rt": [2684, 4308, 6517, 8508, 10318], "responses": ["16", "13", "17", "12", "12"], "num1": [9, 8, 9, 2, 5, 3], "num2": [4, 1, 5, 4, 2, 4], "num3": [3, 4, 3, 6, 5, 6], "type": "DISTRACTOR", "conditions": [24, 1600, "v", 12000], "trial": 6, "trial_type": "math-distractor", "trial_index": 201, "time_elapsed": 1884465, "internal_node_id": "0.0-147.0"}}, {"uniqueid": "MTK0434:34Z02EIMITK5WDI370NEG6MAX42T0C", "current_trial": 202, "dateTime": 1510869810016, "trialdata": {"rt": -1, "stimulus": "<p id=\"stim\">10</p>", "key_press": -1, "trial_type": "single-stim", "trial_index": 202, "time_elapsed": 1887469, "internal_node_id": "0.0-148.0-0.0"}}, {"uniqueid": "MTK0434:34Z02EIMITK5WDI370NEG6MAX42T0C", "current_trial": 203, "dateTime": 1510869811018, "trialdata": {"rt": -1, "stimulus": "<p id=\"stim\">9</p>", "key_press": -1, "trial_type": "single-stim", "trial_index": 203, "time_elapsed": 1888472, "internal_node_id": "0.0-148.0-1.0"}}, {"uniqueid": "MTK0434:34Z02EIMITK5WDI370NEG6MAX42T0C", "current_trial": 204, "dateTime": 1510869812019, "trialdata": {"rt": -1, "stimulus": "<p id=\"stim\">8</p>", "key_press": -1, "trial_type": "single-stim", "trial_index": 204, "time_elapsed": 1889473, "internal_node_id": "0.0-148.0-2.0"}}, {"uniqueid": "MTK0434:34Z02EIMITK5WDI370NEG6MAX42T0C", "current_trial": 205, "dateTime": 1510869813020, "trialdata": {"rt": -1, "stimulus": "<p id=\"stim\">7</p>", "key_press": -1, "trial_type": "single-stim", "trial_index": 205, "time_elapsed": 1890474, "internal_node_id": "0.0-148.0-3.0"}}, {"uniqueid": "MTK0434:34Z02EIMITK5WDI370NEG6MAX42T0C", "current_trial": 206, "dateTime": 1510869814022, "trialdata": {"rt": -1, "stimulus": "<p id=\"stim\">6</p>", "key_press": -1, "trial_type": "single-stim", "trial_index": 206, "time_elapsed": 1891476, "internal_node_id": "0.0-148.0-4.0"}}, {"uniqueid": "MTK0434:34Z02EIMITK5WDI370NEG6MAX42T0C", "current_trial": 207, "dateTime": 1510869815024, "trialdata": {"rt": -1, "stimulus": "<p id=\"stim\">5</p>", "key_press": -1, "trial_type": "single-stim", "trial_index": 207, "time_elapsed": 1892478, "internal_node_id": "0.0-148.0-5.0"}}, {"uniqueid": "MTK0434:34Z02EIMITK5WDI370NEG6MAX42T0C", "current_trial": 208, "dateTime": 1510869816025, "trialdata": {"rt": -1, "stimulus": "<p id=\"stim\">4</p>", "key_press": -1, "trial_type": "single-stim", "trial_index": 208, "time_elapsed": 1893479, "internal_node_id": "0.0-148.0-6.0"}}, {"uniqueid": "MTK0434:34Z02EIMITK5WDI370NEG6MAX42T0C", "current_trial": 209, "dateTime": 1510869817027, "trialdata": {"rt": -1, "stimulus": "<p id=\"stim\">3</p>", "key_press": -1, "trial_type": "single-stim", "trial_index": 209, "time_elapsed": 1894481, "internal_node_id": "0.0-148.0-7.0"}}, {"uniqueid": "MTK0434:34Z02EIMITK5WDI370NEG6MAX42T0C", "current_trial": 210, "dateTime": 1510869818029, "trialdata": {"rt": -1, "stimulus": "<p id=\"stim\">2</p>", "key_press": -1, "trial_type": "single-stim", "trial_index": 210, "time_elapsed": 1895483, "internal_node_id": "0.0-148.0-8.0"}}, {"uniqueid": "MTK0434:34Z02EIMITK5WDI370NEG6MAX42T0C", "current_trial": 211, "dateTime": 1510869819031, "trialdata": {"rt": -1, "stimulus": "<p id=\"stim\">1</p>", "key_press": -1, "trial_type": "single-stim", "trial_index": 211, "time_elapsed": 1896484, "internal_node_id": "0.0-148.0-9.0"}}, {"uniqueid": "MTK0434:34Z02EIMITK5WDI370NEG6MAX42T0C", "current_trial": 212, "dateTime": 1510869820533, "trialdata": {"rt": -1, "stimulus": "<p id=\"stim\">+</p>", "key_press": -1, "type": "FIXATION", "trial_type": "single-stim", "trial_index": 212, "time_elapsed": 1897986, "internal_node_id": "0.0-149.0-0.0"}}, {"uniqueid": "MTK0434:34Z02EIMITK5WDI370NEG6MAX42T0C", "current_trial": 213, "dateTime": 1510869822139, "trialdata": {"rt": -1, "stimulus": "<p id=\"stim\">TUTU</p>", "key_press": -1, "type": "PRES_VIS", "word": "tutu", "wordID": 1523, "conditions": [24, 1600, "v", 12000], "trial": 6, "serialpos": 0, "trial_type": "single-stim", "trial_index": 213, "time_elapsed": 1899592, "internal_node_id": "0.0-150.0"}}, {"uniqueid": "MTK0434:34Z02EIMITK5WDI370NEG6MAX42T0C", "current_trial": 214, "dateTime": 1510869824745, "trialdata": {"rt": -1, "stimulus": "<p id=\"stim\">RADISH</p>", "key_press": -1, "type": "PRES_VIS", "word": "radish", "wordID": 1157, "conditions": [24, 1600, "v", 12000], "trial": 6, "serialpos": 1, "trial_type": "single-stim", "trial_index": 214, "time_elapsed": 1902199, "internal_node_id": "0.0-151.0"}}, {"uniqueid": "MTK0434:34Z02EIMITK5WDI370NEG6MAX42T0C", "current_trial": 215, "dateTime": 1510869827357, "trialdata": {"rt": -1, "stimulus": "<p id=\"stim\">CAPTIVE</p>", "key_press": -1, "type": "PRES_VIS", "word": "captive", "wordID": 239, "conditions": [24, 1600, "v", 12000], "trial": 6, "serialpos": 2, "trial_type": "single-stim", "trial_index": 215, "time_elapsed": 1904810, "internal_node_id": "0.0-152.0"}}, {"uniqueid": "MTK0434:34Z02EIMITK5WDI370NEG6MAX42T0C", "current_trial": 216, "dateTime": 1510869829995, "trialdata": {"rt": -1, "stimulus": "<p id=\"stim\">HIGHWAY</p>", "key_press": -1, "type": "PRES_VIS", "word": "highway", "wordID": 706, "conditions": [24, 1600, "v", 12000], "trial": 6, "serialpos": 3, "trial_type": "single-stim", "trial_index": 216, "time_elapsed": 1907449, "internal_node_id": "0.0-153.0"}}, {"uniqueid": "MTK0434:34Z02EIMITK5WDI370NEG6MAX42T0C", "current_trial": 217, "dateTime": 1510869832452, "trialdata": {"rt": -1, "stimulus": "<p id=\"stim\">CHILD</p>", "key_press": -1, "type": "PRES_VIS", "word": "child", "wordID": 298, "conditions": [24, 1600, "v", 12000], "trial": 6, "serialpos": 4, "trial_type": "single-stim", "trial_index": 217, "time_elapsed": 1909906, "internal_node_id": "0.0-154.0"}}, {"uniqueid": "MTK0434:34Z02EIMITK5WDI370NEG6MAX42T0C", "current_trial": 218, "dateTime": 1510869835068, "trialdata": {"rt": -1, "stimulus": "<p id=\"stim\">MARKER</p>", "key_press": -1, "type": "PRES_VIS", "word": "marker", "wordID": 869, "conditions": [24, 1600, "v", 12000], "trial": 6, "serialpos": 5, "trial_type": "single-stim", "trial_index": 218, "time_elapsed": 1912521, "internal_node_id": "0.0-155.0"}}, {"uniqueid": "MTK0434:34Z02EIMITK5WDI370NEG6MAX42T0C", "current_trial": 219, "dateTime": 1510869837645, "trialdata": {"rt": -1, "stimulus": "<p id=\"stim\">DINER</p>", "key_press": -1, "type": "PRES_VIS", "word": "diner", "wordID": 466, "conditions": [24, 1600, "v", 12000], "trial": 6, "serialpos": 6, "trial_type": "single-stim", "trial_index": 219, "time_elapsed": 1915099, "internal_node_id": "0.0-156.0"}}, {"uniqueid": "MTK0434:34Z02EIMITK5WDI370NEG6MAX42T0C", "current_trial": 220, "dateTime": 1510869840244, "trialdata": {"rt": -1, "stimulus": "<p id=\"stim\">SANDWICH</p>", "key_press": -1, "type": "PRES_VIS", "word": "sandwich", "wordID": 1231, "conditions": [24, 1600, "v", 12000], "trial": 6, "serialpos": 7, "trial_type": "single-stim", "trial_index": 220, "time_elapsed": 1917698, "internal_node_id": "0.0-157.0"}}, {"uniqueid": "MTK0434:34Z02EIMITK5WDI370NEG6MAX42T0C", "current_trial": 221, "dateTime": 1510869842983, "trialdata": {"rt": -1, "stimulus": "<p id=\"stim\">LETTUCE</p>", "key_press": -1, "type": "PRES_VIS", "word": "lettuce", "wordID": 813, "conditions": [24, 1600, "v", 12000], "trial": 6, "serialpos": 8, "trial_type": "single-stim", "trial_index": 221, "time_elapsed": 1920437, "internal_node_id": "0.0-158.0"}}, {"uniqueid": "MTK0434:34Z02EIMITK5WDI370NEG6MAX42T0C", "current_trial": 222, "dateTime": 1510869845618, "trialdata": {"rt": -1, "stimulus": "<p id=\"stim\">SNACK</p>", "key_press": -1, "type": "PRES_VIS", "word": "snack", "wordID": 1330, "conditions": [24, 1600, "v", 12000], "trial": 6, "serialpos": 9, "trial_type": "single-stim", "trial_index": 222, "time_elapsed": 1923072, "internal_node_id": "0.0-159.0"}}, {"uniqueid": "MTK0434:34Z02EIMITK5WDI370NEG6MAX42T0C", "current_trial": 223, "dateTime": 1510869848197, "trialdata": {"rt": -1, "stimulus": "<p id=\"stim\">ROOSTER</p>", "key_press": -1, "type": "PRES_VIS", "word": "rooster", "wordID": 1208, "conditions": [24, 1600, "v", 12000], "trial": 6, "serialpos": 10, "trial_type": "single-stim", "trial_index": 223, "time_elapsed": 1925650, "internal_node_id": "0.0-160.0"}}, {"uniqueid": "MTK0434:34Z02EIMITK5WDI370NEG6MAX42T0C", "current_trial": 224, "dateTime": 1510869850610, "trialdata": {"rt": -1, "stimulus": "<p id=\"stim\">DONKEY</p>", "key_press": -1, "type": "PRES_VIS", "word": "donkey", "wordID": 483, "conditions": [24, 1600, "v", 12000], "trial": 6, "serialpos": 11, "trial_type": "single-stim", "trial_index": 224, "time_elapsed": 1928064, "internal_node_id": "0.0-161.0"}}, {"uniqueid": "MTK0434:34Z02EIMITK5WDI370NEG6MAX42T0C", "current_trial": 225, "dateTime": 1510869853338, "trialdata": {"rt": -1, "stimulus": "<p id=\"stim\">PASTRY</p>", "key_press": -1, "type": "PRES_VIS", "word": "pastry", "wordID": 1021, "conditions": [24, 1600, "v", 12000], "trial": 6, "serialpos": 12, "trial_type": "single-stim", "trial_index": 225, "time_elapsed": 1930791, "internal_node_id": "0.0-162.0"}}, {"uniqueid": "MTK0434:34Z02EIMITK5WDI370NEG6MAX42T0C", "current_trial": 226, "dateTime": 1510869855801, "trialdata": {"rt": -1, "stimulus": "<p id=\"stim\">DOUGHNUT</p>", "key_press": -1, "type": "PRES_VIS", "word": "doughnut", "wordID": 489, "conditions": [24, 1600, "v", 12000], "trial": 6, "serialpos": 13, "trial_type": "single-stim", "trial_index": 226, "time_elapsed": 1933255, "internal_node_id": "0.0-163.0"}}, {"uniqueid": "MTK0434:34Z02EIMITK5WDI370NEG6MAX42T0C", "current_trial": 227, "dateTime": 1510869858309, "trialdata": {"rt": -1, "stimulus": "<p id=\"stim\">HONEY</p>", "key_press": -1, "type": "PRES_VIS", "word": "honey", "wordID": 712, "conditions": [24, 1600, "v", 12000], "trial": 6, "serialpos": 14, "trial_type": "single-stim", "trial_index": 227, "time_elapsed": 1935763, "internal_node_id": "0.0-164.0"}}, {"uniqueid": "MTK0434:34Z02EIMITK5WDI370NEG6MAX42T0C", "current_trial": 228, "dateTime": 1510869860875, "trialdata": {"rt": -1, "stimulus": "<p id=\"stim\">EXPERT</p>", "key_press": -1, "type": "PRES_VIS", "word": "expert", "wordID": 542, "conditions": [24, 1600, "v", 12000], "trial": 6, "serialpos": 15, "trial_type": "single-stim", "trial_index": 228, "time_elapsed": 1938328, "internal_node_id": "0.0-165.0"}}, {"uniqueid": "MTK0434:34Z02EIMITK5WDI370NEG6MAX42T0C", "current_trial": 229, "dateTime": 1510869863378, "trialdata": {"rt": -1, "stimulus": "<p id=\"stim\">PASTA</p>", "key_press": -1, "type": "PRES_VIS", "word": "pasta", "wordID": 1020, "conditions": [24, 1600, "v", 12000], "trial": 6, "serialpos": 16, "trial_type": "single-stim", "trial_index": 229, "time_elapsed": 1940831, "internal_node_id": "0.0-166.0"}}, {"uniqueid": "MTK0434:34Z02EIMITK5WDI370NEG6MAX42T0C", "current_trial": 230, "dateTime": 1510869865922, "trialdata": {"rt": -1, "stimulus": "<p id=\"stim\">ANTLER</p>", "key_press": -1, "type": "PRES_VIS", "word": "antler", "wordID": 28, "conditions": [24, 1600, "v", 12000], "trial": 6, "serialpos": 17, "trial_type": "single-stim", "trial_index": 230, "time_elapsed": 1943376, "internal_node_id": "0.0-167.0"}}, {"uniqueid": "MTK0434:34Z02EIMITK5WDI370NEG6MAX42T0C", "current_trial": 231, "dateTime": 1510869868497, "trialdata": {"rt": -1, "stimulus": "<p id=\"stim\">MILK</p>", "key_press": -1, "type": "PRES_VIS", "word": "milk", "wordID": 894, "conditions": [24, 1600, "v", 12000], "trial": 6, "serialpos": 18, "trial_type": "single-stim", "trial_index": 231, "time_elapsed": 1945951, "internal_node_id": "0.0-168.0"}}, {"uniqueid": "MTK0434:34Z02EIMITK5WDI370NEG6MAX42T0C", "current_trial": 232, "dateTime": 1510869871039, "trialdata": {"rt": -1, "stimulus": "<p id=\"stim\">PORK</p>", "key_press": -1, "type": "PRES_VIS", "word": "pork", "wordID": 1107, "conditions": [24, 1600, "v", 12000], "trial": 6, "serialpos": 19, "trial_type": "single-stim", "trial_index": 232, "time_elapsed": 1948493, "internal_node_id": "0.0-169.0"}}, {"uniqueid": "MTK0434:34Z02EIMITK5WDI370NEG6MAX42T0C", "current_trial": 233, "dateTime": 1510869873548, "trialdata": {"rt": -1, "stimulus": "<p id=\"stim\">MONEY</p>", "key_press": -1, "type": "PRES_VIS", "word": "money", "wordID": 907, "conditions": [24, 1600, "v", 12000], "trial": 6, "serialpos": 20, "trial_type": "single-stim", "trial_index": 233, "time_elapsed": 1951002, "internal_node_id": "0.0-170.0"}}, {"uniqueid": "MTK0434:34Z02EIMITK5WDI370NEG6MAX42T0C", "current_trial": 234, "dateTime": 1510869876120, "trialdata": {"rt": -1, "stimulus": "<p id=\"stim\">COIN</p>", "key_press": -1, "type": "PRES_VIS", "word": "coin", "wordID": 342, "conditions": [24, 1600, "v", 12000], "trial": 6, "serialpos": 21, "trial_type": "single-stim", "trial_index": 234, "time_elapsed": 1953573, "internal_node_id": "0.0-171.0"}}, {"uniqueid": "MTK0434:34Z02EIMITK5WDI370NEG6MAX42T0C", "current_trial": 235, "dateTime": 1510869878702, "trialdata": {"rt": -1, "stimulus": "<p id=\"stim\">LODGE</p>", "key_press": -1, "type": "PRES_VIS", "word": "lodge", "wordID": 838, "conditions": [24, 1600, "v", 12000], "trial": 6, "serialpos": 22, "trial_type": "single-stim", "trial_index": 235, "time_elapsed": 1956156, "internal_node_id": "0.0-172.0"}}, {"uniqueid": "MTK0434:34Z02EIMITK5WDI370NEG6MAX42T0C", "current_trial": 236, "dateTime": 1510869881393, "trialdata": {"rt": -1, "stimulus": "<p id=\"stim\">KETCHUP</p>", "key_press": -1, "type": "PRES_VIS", "word": "ketchup", "wordID": 770, "conditions": [24, 1600, "v", 12000], "trial": 6, "serialpos": 23, "trial_type": "single-stim", "trial_index": 236, "time_elapsed": 1958846, "internal_node_id": "0.0-173.0"}}, {"uniqueid": "MTK0434:34Z02EIMITK5WDI370NEG6MAX42T0C", "current_trial": 237, "dateTime": 1510869883628, "trialdata": {"rt": -1, "stimulus": "", "key_press": -1, "type": "PRE_RECALL_DELAY", "trial_type": "single-stim", "trial_index": 237, "time_elapsed": 1961081, "internal_node_id": "0.0-174.0-0.0"}}, {"uniqueid": "MTK0434:34Z02EIMITK5WDI370NEG6MAX42T0C", "current_trial": 238, "dateTime": 1510869884132, "trialdata": {"rt": -1000, "stimulus": "/static/audio/400Hz.wav", "key_press": -1, "type": "PRE_RECALL_ALERT", "trial_type": "single-audio", "trial_index": 238, "time_elapsed": 1961585, "internal_node_id": "0.0-175.0"}}, {"uniqueid": "MTK0434:34Z02EIMITK5WDI370NEG6MAX42T0C", "current_trial": 239, "dateTime": 1510869944160, "trialdata": {"rt": [6059, 12697, 17745, 21122, 25169, 27209, 31073, 33833, 44073, 47985], "recwords": ["ketchup", "lodge", "rooster", "donkey", "sandwich", "lettuce", "radish", "tutu", "pasta", "antler"], "type": "FREE_RECALL", "conditions": [24, 1600, "v", 12000], "trial": 6, "trial_type": "free-recall", "trial_index": 239, "time_elapsed": 2021596, "internal_node_id": "0.0-176.0-0.0"}}, {"uniqueid": "MTK0434:34Z02EIMITK5WDI370NEG6MAX42T0C", "current_trial": 240, "dateTime": 1510869957654, "trialdata": {"rt": 11491, "key_press": 13, "type": "INSTRUCTIONS", "trial_type": "text", "trial_index": 240, "time_elapsed": 2035107, "internal_node_id": "0.0-177.0"}}, {"uniqueid": "MTK0434:34Z02EIMITK5WDI370NEG6MAX42T0C", "current_trial": 241, "dateTime": 1510869971657, "trialdata": {"rt": [2357, 4660, 6373, 7964], "responses": ["15", "19", "12", "12"], "num1": [5, 9, 2, 2, 8], "num2": [2, 7, 9, 6, 8], "num3": [8, 3, 1, 4, 6], "type": "DISTRACTOR", "conditions": [24, 1600, "a", 12000], "trial": 7, "trial_type": "math-distractor", "trial_index": 241, "time_elapsed": 2049111, "internal_node_id": "0.0-178.0"}}, {"uniqueid": "MTK0434:34Z02EIMITK5WDI370NEG6MAX42T0C", "current_trial": 242, "dateTime": 1510869974660, "trialdata": {"rt": -1, "stimulus": "<p id=\"stim\">10</p>", "key_press": -1, "trial_type": "single-stim", "trial_index": 242, "time_elapsed": 2052114, "internal_node_id": "0.0-179.0-0.0"}}, {"uniqueid": "MTK0434:34Z02EIMITK5WDI370NEG6MAX42T0C", "current_trial": 243, "dateTime": 1510869975661, "trialdata": {"rt": -1, "stimulus": "<p id=\"stim\">9</p>", "key_press": -1, "trial_type": "single-stim", "trial_index": 243, "time_elapsed": 2053115, "internal_node_id": "0.0-179.0-1.0"}}, {"uniqueid": "MTK0434:34Z02EIMITK5WDI370NEG6MAX42T0C", "current_trial": 244, "dateTime": 1510869976665, "trialdata": {"rt": -1, "stimulus": "<p id=\"stim\">8</p>", "key_press": -1, "trial_type": "single-stim", "trial_index": 244, "time_elapsed": 2054118, "internal_node_id": "0.0-179.0-2.0"}}, {"uniqueid": "MTK0434:34Z02EIMITK5WDI370NEG6MAX42T0C", "current_trial": 245, "dateTime": 1510869977667, "trialdata": {"rt": -1, "stimulus": "<p id=\"stim\">7</p>", "key_press": -1, "trial_type": "single-stim", "trial_index": 245, "time_elapsed": 2055121, "internal_node_id": "0.0-179.0-3.0"}}, {"uniqueid": "MTK0434:34Z02EIMITK5WDI370NEG6MAX42T0C", "current_trial": 246, "dateTime": 1510869978668, "trialdata": {"rt": -1, "stimulus": "<p id=\"stim\">6</p>", "key_press": -1, "trial_type": "single-stim", "trial_index": 246, "time_elapsed": 2056122, "internal_node_id": "0.0-179.0-4.0"}}, {"uniqueid": "MTK0434:34Z02EIMITK5WDI370NEG6MAX42T0C", "current_trial": 247, "dateTime": 1510869979670, "trialdata": {"rt": -1, "stimulus": "<p id=\"stim\">5</p>", "key_press": -1, "trial_type": "single-stim", "trial_index": 247, "time_elapsed": 2057124, "internal_node_id": "0.0-179.0-5.0"}}, {"uniqueid": "MTK0434:34Z02EIMITK5WDI370NEG6MAX42T0C", "current_trial": 248, "dateTime": 1510869980673, "trialdata": {"rt": -1, "stimulus": "<p id=\"stim\">4</p>", "key_press": -1, "trial_type": "single-stim", "trial_index": 248, "time_elapsed": 2058127, "internal_node_id": "0.0-179.0-6.0"}}, {"uniqueid": "MTK0434:34Z02EIMITK5WDI370NEG6MAX42T0C", "current_trial": 249, "dateTime": 1510869981676, "trialdata": {"rt": -1, "stimulus": "<p id=\"stim\">3</p>", "key_press": -1, "trial_type": "single-stim", "trial_index": 249, "time_elapsed": 2059130, "internal_node_id": "0.0-179.0-7.0"}}, {"uniqueid": "MTK0434:34Z02EIMITK5WDI370NEG6MAX42T0C", "current_trial": 250, "dateTime": 1510869982679, "trialdata": {"rt": -1, "stimulus": "<p id=\"stim\">2</p>", "key_press": -1, "trial_type": "single-stim", "trial_index": 250, "time_elapsed": 2060133, "internal_node_id": "0.0-179.0-8.0"}}, {"uniqueid": "MTK0434:34Z02EIMITK5WDI370NEG6MAX42T0C", "current_trial": 251, "dateTime": 1510869983682, "trialdata": {"rt": -1, "stimulus": "<p id=\"stim\">1</p>", "key_press": -1, "trial_type": "single-stim", "trial_index": 251, "time_elapsed": 2061134, "internal_node_id": "0.0-179.0-9.0"}}, {"uniqueid": "MTK0434:34Z02EIMITK5WDI370NEG6MAX42T0C", "current_trial": 252, "dateTime": 1510869985184, "trialdata": {"rt": -1, "stimulus": "<p id=\"stim\">+</p>", "key_press": -1, "type": "FIXATION", "trial_type": "single-stim", "trial_index": 252, "time_elapsed": 2062638, "internal_node_id": "0.0-180.0-0.0"}}, {"uniqueid": "MTK0434:34Z02EIMITK5WDI370NEG6MAX42T0C", "current_trial": 253, "dateTime": 1510869987696, "trialdata": {"rt": -1000, "stimulus": "/static/audio/wordpool/MATTRESS.wav", "key_press": -1, "type": "PRES_AUD", "word": "mattress", "wordID": 878, "conditions": [24, 1600, "a", 12000], "trial": 7, "serialpos": 0, "trial_type": "single-audio", "trial_index": 253, "time_elapsed": 2065150, "internal_node_id": "0.0-181.0"}}, {"uniqueid": "MTK0434:34Z02EIMITK5WDI370NEG6MAX42T0C", "current_trial": 254, "dateTime": 1510869990451, "trialdata": {"rt": -1000, "stimulus": "/static/audio/wordpool/TREAT.wav", "key_press": -1, "type": "PRES_AUD", "word": "treat", "wordID": 1500, "conditions": [24, 1600, "a", 12000], "trial": 7, "serialpos": 1, "trial_type": "single-audio", "trial_index": 254, "time_elapsed": 2067905, "internal_node_id": "0.0-182.0"}}, {"uniqueid": "MTK0434:34Z02EIMITK5WDI370NEG6MAX42T0C", "current_trial": 255, "dateTime": 1510869993154, "trialdata": {"rt": -1000, "stimulus": "/static/audio/wordpool/COOK.wav", "key_press": -1, "type": "PRES_AUD", "word": "cook", "wordID": 371, "conditions": [24, 1600, "a", 12000], "trial": 7, "serialpos": 2, "trial_type": "single-audio", "trial_index": 255, "time_elapsed": 2070607, "internal_node_id": "0.0-183.0"}}, {"uniqueid": "MTK0434:34Z02EIMITK5WDI370NEG6MAX42T0C", "current_trial": 256, "dateTime": 1510869995787, "trialdata": {"rt": -1000, "stimulus": "/static/audio/wordpool/PERCH.wav", "key_press": -1, "type": "PRES_AUD", "word": "perch", "wordID": 1047, "conditions": [24, 1600, "a", 12000], "trial": 7, "serialpos": 3, "trial_type": "single-audio", "trial_index": 256, "time_elapsed": 2073240, "internal_node_id": "0.0-184.0"}}, {"uniqueid": "MTK0434:34Z02EIMITK5WDI370NEG6MAX42T0C", "current_trial": 257, "dateTime": 1510869998413, "trialdata": {"rt": -1000, "stimulus": "/static/audio/wordpool/CRIB.wav", "key_press": -1, "type": "PRES_AUD", "word": "crib", "wordID": 406, "conditions": [24, 1600, "a", 12000], "trial": 7, "serialpos": 4, "trial_type": "single-audio", "trial_index": 257, "time_elapsed": 2075867, "internal_node_id": "0.0-185.0"}}, {"uniqueid": "MTK0434:34Z02EIMITK5WDI370NEG6MAX42T0C", "current_trial": 258, "dateTime": 1510870001151, "trialdata": {"rt": -1000, "stimulus": "/static/audio/wordpool/CELLAR.wav", "key_press": -1, "type": "PRES_AUD", "word": "cellar", "wordID": 266, "conditions": [24, 1600, "a", 12000], "trial": 7, "serialpos": 5, "trial_type": "single-audio", "trial_index": 258, "time_elapsed": 2078605, "internal_node_id": "0.0-186.0"}}, {"uniqueid": "MTK0434:34Z02EIMITK5WDI370NEG6MAX42T0C", "current_trial": 259, "dateTime": 1510870003892, "trialdata": {"rt": -1000, "stimulus": "/static/audio/wordpool/TART.wav", "key_press": -1, "type": "PRES_AUD", "word": "tart", "wordID": 1435, "conditions": [24, 1600, "a", 12000], "trial": 7, "serialpos": 6, "trial_type": "single-audio", "trial_index": 259, "time_elapsed": 2081345, "internal_node_id": "0.0-187.0"}}, {"uniqueid": "MTK0434:34Z02EIMITK5WDI370NEG6MAX42T0C", "current_trial": 260, "dateTime": 1510870006585, "trialdata": {"rt": -1000, "stimulus": "/static/audio/wordpool/SADDLE.wav", "key_press": -1, "type": "PRES_AUD", "word": "saddle", "wordID": 1220, "conditions": [24, 1600, "a", 12000], "trial": 7, "serialpos": 7, "trial_type": "single-audio", "trial_index": 260, "time_elapsed": 2084039, "internal_node_id": "0.0-188.0"}}, {"uniqueid": "MTK0434:34Z02EIMITK5WDI370NEG6MAX42T0C", "current_trial": 261, "dateTime": 1510870009005, "trialdata": {"rt": -1000, "stimulus": "/static/audio/wordpool/SNAKE.wav", "key_press": -1, "type": "PRES_AUD", "word": "snake", "wordID": 1332, "conditions": [24, 1600, "a", 12000], "trial": 7, "serialpos": 8, "trial_type": "single-audio", "trial_index": 261, "time_elapsed": 2086459, "internal_node_id": "0.0-189.0"}}, {"uniqueid": "MTK0434:34Z02EIMITK5WDI370NEG6MAX42T0C", "current_trial": 262, "dateTime": 1510870011535, "trialdata": {"rt": -1000, "stimulus": "/static/audio/wordpool/POSSUM.wav", "key_press": -1, "type": "PRES_AUD", "word": "possum", "wordID": 1111, "conditions": [24, 1600, "a", 12000], "trial": 7, "serialpos": 9, "trial_type": "single-audio", "trial_index": 262, "time_elapsed": 2088989, "internal_node_id": "0.0-190.0"}}, {"uniqueid": "MTK0434:34Z02EIMITK5WDI370NEG6MAX42T0C", "current_trial": 263, "dateTime": 1510870014139, "trialdata": {"rt": -1000, "stimulus": "/static/audio/wordpool/ACTOR.wav", "key_press": -1, "type": "PRES_AUD", "word": "actor", "wordID": 4, "conditions": [24, 1600, "a", 12000], "trial": 7, "serialpos": 10, "trial_type": "single-audio", "trial_index": 263, "time_elapsed": 2091593, "internal_node_id": "0.0-191.0"}}, {"uniqueid": "MTK0434:34Z02EIMITK5WDI370NEG6MAX42T0C", "current_trial": 264, "dateTime": 1510870016930, "trialdata": {"rt": -1000, "stimulus": "/static/audio/wordpool/DOLPHIN.wav", "key_press": -1, "type": "PRES_AUD", "word": "dolphin", "wordID": 482, "conditions": [24, 1600, "a", 12000], "trial": 7, "serialpos": 11, "trial_type": "single-audio", "trial_index": 264, "time_elapsed": 2094384, "internal_node_id": "0.0-192.0"}}, {"uniqueid": "MTK0434:34Z02EIMITK5WDI370NEG6MAX42T0C", "current_trial": 265, "dateTime": 1510870019341, "trialdata": {"rt": -1000, "stimulus": "/static/audio/wordpool/HORNET.wav", "key_press": -1, "type": "PRES_AUD", "word": "hornet", "wordID": 717, "conditions": [24, 1600, "a", 12000], "trial": 7, "serialpos": 12, "trial_type": "single-audio", "trial_index": 265, "time_elapsed": 2096795, "internal_node_id": "0.0-193.0"}}, {"uniqueid": "MTK0434:34Z02EIMITK5WDI370NEG6MAX42T0C", "current_trial": 266, "dateTime": 1510870022086, "trialdata": {"rt": -1000, "stimulus": "/static/audio/wordpool/BABY.wav", "key_press": -1, "type": "PRES_AUD", "word": "baby", "wordID": 63, "conditions": [24, 1600, "a", 12000], "trial": 7, "serialpos": 13, "trial_type": "single-audio", "trial_index": 266, "time_elapsed": 2099540, "internal_node_id": "0.0-194.0"}}, {"uniqueid": "MTK0434:34Z02EIMITK5WDI370NEG6MAX42T0C", "current_trial": 267, "dateTime": 1510870024763, "trialdata": {"rt": -1000, "stimulus": "/static/audio/wordpool/UNCLE.wav", "key_press": -1, "type": "PRES_AUD", "word": "uncle", "wordID": 1535, "conditions": [24, 1600, "a", 12000], "trial": 7, "serialpos": 14, "trial_type": "single-audio", "trial_index": 267, "time_elapsed": 2102217, "internal_node_id": "0.0-195.0"}}, {"uniqueid": "MTK0434:34Z02EIMITK5WDI370NEG6MAX42T0C", "current_trial": 268, "dateTime": 1510870027203, "trialdata": {"rt": -1000, "stimulus": "/static/audio/wordpool/CABBAGE.wav", "key_press": -1, "type": "PRES_AUD", "word": "cabbage", "wordID": 209, "conditions": [24, 1600, "a", 12000], "trial": 7, "serialpos": 15, "trial_type": "single-audio", "trial_index": 268, "time_elapsed": 2104657, "internal_node_id": "0.0-196.0"}}, {"uniqueid": "MTK0434:34Z02EIMITK5WDI370NEG6MAX42T0C", "current_trial": 269, "dateTime": 1510870029756, "trialdata": {"rt": -1000, "stimulus": "/static/audio/wordpool/DRIVER.wav", "key_press": -1, "type": "PRES_AUD", "word": "driver", "wordID": 498, "conditions": [24, 1600, "a", 12000], "trial": 7, "serialpos": 16, "trial_type": "single-audio", "trial_index": 269, "time_elapsed": 2107210, "internal_node_id": "0.0-197.0"}}, {"uniqueid": "MTK0434:34Z02EIMITK5WDI370NEG6MAX42T0C", "current_trial": 270, "dateTime": 1510870032456, "trialdata": {"rt": -1000, "stimulus": "/static/audio/wordpool/STALLION.wav", "key_press": -1, "type": "PRES_AUD", "word": "stallion", "wordID": 1368, "conditions": [24, 1600, "a", 12000], "trial": 7, "serialpos": 17, "trial_type": "single-audio", "trial_index": 270, "time_elapsed": 2109909, "internal_node_id": "0.0-198.0"}}, {"uniqueid": "MTK0434:34Z02EIMITK5WDI370NEG6MAX42T0C", "current_trial": 271, "dateTime": 1510870034939, "trialdata": {"rt": -1000, "stimulus": "/static/audio/wordpool/INFANT.wav", "key_press": -1, "type": "PRES_AUD", "word": "infant", "wordID": 736, "conditions": [24, 1600, "a", 12000], "trial": 7, "serialpos": 18, "trial_type": "single-audi