{"condition": 0, "counterbalance": 715, "assignmentId": "37FMASSAYDYG7M52B4LZMGGKCHUBIP", "workerId": "MTK0327", "hitId": "3MDKGGG61QUYN46OJNYT0N0HWDBT6N", "currenttrial": 628, "bonus": 0, "data": [{"uniqueid": "MTK0327:37FMASSAYDYG7M52B4LZMGGKCHUBIP", "current_trial": 0, "dateTime": 1510707138892, "trialdata": {"rt": 103126, "key_press": 39, "type": "INSTRUCTIONS", "trial_type": "text", "trial_index": 0, "time_elapsed": 103134, "internal_node_id": "0.0-0.0"}}, {"uniqueid": "MTK0327:37FMASSAYDYG7M52B4LZMGGKCHUBIP", "current_trial": 1, "dateTime": 1510707148812, "trialdata": {"rt": 9916, "key_press": 39, "type": "INSTRUCTIONS", "trial_type": "text", "trial_index": 1, "time_elapsed": 113055, "internal_node_id": "0.0-1.0"}}, {"uniqueid": "MTK0327:37FMASSAYDYG7M52B4LZMGGKCHUBIP", "current_trial": 2, "dateTime": 1510707155918, "trialdata": {"rt": [6865], "responses": ["ocean"], "type": "AUDIO_TEST", "trial_type": "audio-test", "trial_index": 2, "time_elapsed": 120162, "internal_node_id": "0.0-2.0"}}, {"uniqueid": "MTK0327:37FMASSAYDYG7M52B4LZMGGKCHUBIP", "current_trial": 3, "dateTime": 1510707172685, "trialdata": {"rt": [16722], "responses": ["crystal"], "type": "AUDIO_TEST", "trial_type": "audio-test", "trial_index": 3, "time_elapsed": 136929, "internal_node_id": "0.0-3.0"}}, {"uniqueid": "MTK0327:37FMASSAYDYG7M52B4LZMGGKCHUBIP", "current_trial": 4, "dateTime": 1510707183149, "trialdata": {"rt": [10419], "responses": ["spice"], "type": "AUDIO_TEST", "trial_type": "audio-test", "trial_index": 4, "time_elapsed": 147393, "internal_node_id": "0.0-4.0"}}, {"uniqueid": "MTK0327:37FMASSAYDYG7M52B4LZMGGKCHUBIP", "current_trial": 5, "dateTime": 1510707208158, "trialdata": {"rt": 24247, "responses": "{\"Q0\":\"11pm\",\"Q1\":\"5:30am\",\"Q2\":\"3\"}", "type": "SLEEP_SURVEY", "trial_type": "survey-text", "trial_index": 5, "time_elapsed": 172401, "internal_node_id": "0.0-5.0"}}, {"uniqueid": "MTK0327:37FMASSAYDYG7M52B4LZMGGKCHUBIP", "current_trial": 6, "dateTime": 1510707211410, "trialdata": {"rt": 2246, "key_press": 33, "type": "INSTRUCTIONS", "trial_type": "text", "trial_index": 6, "time_elapsed": 175653, "internal_node_id": "0.0-6.0"}}, {"uniqueid": "MTK0327:37FMASSAYDYG7M52B4LZMGGKCHUBIP", "current_trial": 7, "dateTime": 1510707226785, "trialdata": {"rt": 14865, "key_press": 39, "type": "INSTRUCTIONS", "trial_type": "text", "trial_index": 7, "time_elapsed": 191029, "internal_node_id": "0.0-7.0"}}, {"uniqueid": "MTK0327:37FMASSAYDYG7M52B4LZMGGKCHUBIP", "current_trial": 8, "dateTime": 1510707233859, "trialdata": {"rt": 6569, "key_press": 39, "type": "INSTRUCTIONS", "trial_type": "text", "trial_index": 8, "time_elapsed": 198102, "internal_node_id": "0.0-8.0"}}, {"uniqueid": "MTK0327:37FMASSAYDYG7M52B4LZMGGKCHUBIP", "current_trial": 9, "dateTime": 1510707252883, "trialdata": {"rt": [2507, 9848, 12473, 16292], "responses": ["10", "10", "13", "13"], "num1": [2, 2, 4, 1, 6], "num2": [6, 6, 7, 4, 5], "num3": [2, 2, 2, 8, 9], "type": "DISTRACTOR", "conditions": [18, 1200, "v", 18000], "trial": 0, "trial_type": "math-distractor", "trial_index": 9, "time_elapsed": 217126, "internal_node_id": "0.0-9.0"}}, {"uniqueid": "MTK0327:37FMASSAYDYG7M52B4LZMGGKCHUBIP", "current_trial": 10, "dateTime": 1510707255939, "trialdata": {"rt": -1, "stimulus": "<p id=\"stim\">10</p>", "key_press": -1, "trial_type": "single-stim", "trial_index": 10, "time_elapsed": 220182, "internal_node_id": "0.0-10.0-0.0"}}, {"uniqueid": "MTK0327:37FMASSAYDYG7M52B4LZMGGKCHUBIP", "current_trial": 11, "dateTime": 1510707256952, "trialdata": {"rt": -1, "stimulus": "<p id=\"stim\">9</p>", "key_press": -1, "trial_type": "single-stim", "trial_index": 11, "time_elapsed": 221196, "internal_node_id": "0.0-10.0-1.0"}}, {"uniqueid": "MTK0327:37FMASSAYDYG7M52B4LZMGGKCHUBIP", "current_trial": 12, "dateTime": 1510707258008, "trialdata": {"rt": -1, "stimulus": "<p id=\"stim\">8</p>", "key_press": -1, "trial_type": "single-stim", "trial_index": 12, "time_elapsed": 222251, "internal_node_id": "0.0-10.0-2.0"}}, {"uniqueid": "MTK0327:37FMASSAYDYG7M52B4LZMGGKCHUBIP", "current_trial": 13, "dateTime": 1510707259027, "trialdata": {"rt": -1, "stimulus": "<p id=\"stim\">7</p>", "key_press": -1, "trial_type": "single-stim", "trial_index": 13, "time_elapsed": 223271, "internal_node_id": "0.0-10.0-3.0"}}, {"uniqueid": "MTK0327:37FMASSAYDYG7M52B4LZMGGKCHUBIP", "current_trial": 14, "dateTime": 1510707260060, "trialdata": {"rt": -1, "stimulus": "<p id=\"stim\">6</p>", "key_press": -1, "trial_type": "single-stim", "trial_index": 14, "time_elapsed": 224304, "internal_node_id": "0.0-10.0-4.0"}}, {"uniqueid": "MTK0327:37FMASSAYDYG7M52B4LZMGGKCHUBIP", "current_trial": 15, "dateTime": 1510707261079, "trialdata": {"rt": -1, "stimulus": "<p id=\"stim\">5</p>", "key_press": -1, "trial_type": "single-stim", "trial_index": 15, "time_elapsed": 225323, "internal_node_id": "0.0-10.0-5.0"}}, {"uniqueid": "MTK0327:37FMASSAYDYG7M52B4LZMGGKCHUBIP", "current_trial": 16, "dateTime": 1510707262105, "trialdata": {"rt": -1, "stimulus": "<p id=\"stim\">4</p>", "key_press": -1, "trial_type": "single-stim", "trial_index": 16, "time_elapsed": 226348, "internal_node_id": "0.0-10.0-6.0"}}, {"uniqueid": "MTK0327:37FMASSAYDYG7M52B4LZMGGKCHUBIP", "current_trial": 17, "dateTime": 1510707263121, "trialdata": {"rt": -1, "stimulus": "<p id=\"stim\">3</p>", "key_press": -1, "trial_type": "single-stim", "trial_index": 17, "time_elapsed": 227365, "internal_node_id": "0.0-10.0-7.0"}}, {"uniqueid": "MTK0327:37FMASSAYDYG7M52B4LZMGGKCHUBIP", "current_trial": 18, "dateTime": 1510707264165, "trialdata": {"rt": -1, "stimulus": "<p id=\"stim\">2</p>", "key_press": -1, "trial_type": "single-stim", "trial_index": 18, "time_elapsed": 228408, "internal_node_id": "0.0-10.0-8.0"}}, {"uniqueid": "MTK0327:37FMASSAYDYG7M52B4LZMGGKCHUBIP", "current_trial": 19, "dateTime": 1510707265196, "trialdata": {"rt": -1, "stimulus": "<p id=\"stim\">1</p>", "key_press": -1, "trial_type": "single-stim", "trial_index": 19, "time_elapsed": 229440, "internal_node_id": "0.0-10.0-9.0"}}, {"uniqueid": "MTK0327:37FMASSAYDYG7M52B4LZMGGKCHUBIP", "current_trial": 20, "dateTime": 1510707266699, "trialdata": {"rt": -1, "stimulus": "<p id=\"stim\">+</p>", "key_press": -1, "type": "FIXATION", "trial_type": "single-stim", "trial_index": 20, "time_elapsed": 230943, "internal_node_id": "0.0-11.0-0.0"}}, {"uniqueid": "MTK0327:37FMASSAYDYG7M52B4LZMGGKCHUBIP", "current_trial": 21, "dateTime": 1510707267901, "trialdata": {"rt": -1, "stimulus": "<p id=\"stim\">CRAYON</p>", "key_press": -1, "type": "PRES_VIS", "word": "crayon", "wordID": 400, "conditions": [18, 1200, "v", 18000], "trial": 0, "serialpos": 0, "trial_type": "single-stim", "trial_index": 21, "time_elapsed": 232145, "internal_node_id": "0.0-12.0"}}, {"uniqueid": "MTK0327:37FMASSAYDYG7M52B4LZMGGKCHUBIP", "current_trial": 22, "dateTime": 1510707270172, "trialdata": {"rt": -1, "stimulus": "<p id=\"stim\">PROTON</p>", "key_press": -1, "type": "PRES_VIS", "word": "proton", "wordID": 1131, "conditions": [18, 1200, "v", 18000], "trial": 0, "serialpos": 1, "trial_type": "single-stim", "trial_index": 22, "time_elapsed": 234415, "internal_node_id": "0.0-13.0"}}, {"uniqueid": "MTK0327:37FMASSAYDYG7M52B4LZMGGKCHUBIP", "current_trial": 23, "dateTime": 1510707272524, "trialdata": {"rt": -1, "stimulus": "<p id=\"stim\">HARP</p>", "key_press": -1, "type": "PRES_VIS", "word": "harp", "wordID": 688, "conditions": [18, 1200, "v", 18000], "trial": 0, "serialpos": 2, "trial_type": "single-stim", "trial_index": 23, "time_elapsed": 236768, "internal_node_id": "0.0-14.0"}}, {"uniqueid": "MTK0327:37FMASSAYDYG7M52B4LZMGGKCHUBIP", "current_trial": 24, "dateTime": 1510707277605, "trialdata": {"rt": -1, "stimulus": "<p id=\"stim\">WIFE</p>", "key_press": -1, "type": "PRES_VIS", "word": "wife", "wordID": 1608, "conditions": [18, 1200, "v", 18000], "trial": 0, "serialpos": 3, "trial_type": "single-stim", "trial_index": 24, "time_elapsed": 241849, "internal_node_id": "0.0-15.0"}}, {"uniqueid": "MTK0327:37FMASSAYDYG7M52B4LZMGGKCHUBIP", "current_trial": 25, "dateTime": 1510707279649, "trialdata": {"rt": -1, "stimulus": "<p id=\"stim\">CRATER</p>", "key_press": -1, "type": "PRES_VIS", "word": "crater", "wordID": 399, "conditions": [18, 1200, "v", 18000], "trial": 0, "serialpos": 4, "trial_type": "single-stim", "trial_index": 25, "time_elapsed": 243893, "internal_node_id": "0.0-16.0"}}, {"uniqueid": "MTK0327:37FMASSAYDYG7M52B4LZMGGKCHUBIP", "current_trial": 26, "dateTime": 1510707281990, "trialdata": {"rt": -1, "stimulus": "<p id=\"stim\">RAFT</p>", "key_press": -1, "type": "PRES_VIS", "word": "raft", "wordID": 1158, "conditions": [18, 1200, "v", 18000], "trial": 0, "serialpos": 5, "trial_type": "single-stim", "trial_index": 26, "time_elapsed": 246234, "internal_node_id": "0.0-17.0"}}, {"uniqueid": "MTK0327:37FMASSAYDYG7M52B4LZMGGKCHUBIP", "current_trial": 27, "dateTime": 1510707284168, "trialdata": {"rt": -1, "stimulus": "<p id=\"stim\">BLACKBOARD</p>", "key_press": -1, "type": "PRES_VIS", "word": "blackboard", "wordID": 132, "conditions": [18, 1200, "v", 18000], "trial": 0, "serialpos": 6, "trial_type": "single-stim", "trial_index": 27, "time_elapsed": 248412, "internal_node_id": "0.0-18.0"}}, {"uniqueid": "MTK0327:37FMASSAYDYG7M52B4LZMGGKCHUBIP", "current_trial": 28, "dateTime": 1510707286337, "trialdata": {"rt": -1, "stimulus": "<p id=\"stim\">LAKE</p>", "key_press": -1, "type": "PRES_VIS", "word": "lake", "wordID": 795, "conditions": [18, 1200, "v", 18000], "trial": 0, "serialpos": 7, "trial_type": "single-stim", "trial_index": 28, "time_elapsed": 250581, "internal_node_id": "0.0-19.0"}}, {"uniqueid": "MTK0327:37FMASSAYDYG7M52B4LZMGGKCHUBIP", "current_trial": 29, "dateTime": 1510707288468, "trialdata": {"rt": -1, "stimulus": "<p id=\"stim\">TERMITE</p>", "key_press": -1, "type": "PRES_VIS", "word": "termite", "wordID": 1450, "conditions": [18, 1200, "v", 18000], "trial": 0, "serialpos": 8, "trial_type": "single-stim", "trial_index": 29, "time_elapsed": 252712, "internal_node_id": "0.0-20.0"}}, {"uniqueid": "MTK0327:37FMASSAYDYG7M52B4LZMGGKCHUBIP", "current_trial": 30, "dateTime": 1510707290711, "trialdata": {"rt": -1, "stimulus": "<p id=\"stim\">GARBAGE</p>", "key_press": -1, "type": "PRES_VIS", "word": "garbage", "wordID": 621, "conditions": [18, 1200, "v", 18000], "trial": 0, "serialpos": 9, "trial_type": "single-stim", "trial_index": 30, "time_elapsed": 254955, "internal_node_id": "0.0-21.0"}}, {"uniqueid": "MTK0327:37FMASSAYDYG7M52B4LZMGGKCHUBIP", "current_trial": 31, "dateTime": 1510707292784, "trialdata": {"rt": -1, "stimulus": "<p id=\"stim\">SKETCH</p>", "key_press": -1, "type": "PRES_VIS", "word": "sketch", "wordID": 1314, "conditions": [18, 1200, "v", 18000], "trial": 0, "serialpos": 10, "trial_type": "single-stim", "trial_index": 31, "time_elapsed": 257027, "internal_node_id": "0.0-22.0"}}, {"uniqueid": "MTK0327:37FMASSAYDYG7M52B4LZMGGKCHUBIP", "current_trial": 32, "dateTime": 1510707295017, "trialdata": {"rt": -1, "stimulus": "<p id=\"stim\">RACKET</p>", "key_press": -1, "type": "PRES_VIS", "word": "racket", "wordID": 1154, "conditions": [18, 1200, "v", 18000], "trial": 0, "serialpos": 11, "trial_type": "single-stim", "trial_index": 32, "time_elapsed": 259261, "internal_node_id": "0.0-23.0"}}, {"uniqueid": "MTK0327:37FMASSAYDYG7M52B4LZMGGKCHUBIP", "current_trial": 33, "dateTime": 1510707297348, "trialdata": {"rt": -1, "stimulus": "<p id=\"stim\">PATROL</p>", "key_press": -1, "type": "PRES_VIS", "word": "patrol", "wordID": 1026, "conditions": [18, 1200, "v", 18000], "trial": 0, "serialpos": 12, "trial_type": "single-stim", "trial_index": 33, "time_elapsed": 261592, "internal_node_id": "0.0-24.0"}}, {"uniqueid": "MTK0327:37FMASSAYDYG7M52B4LZMGGKCHUBIP", "current_trial": 34, "dateTime": 1510707299618, "trialdata": {"rt": -1, "stimulus": "<p id=\"stim\">VELVET</p>", "key_press": -1, "type": "PRES_VIS", "word": "velvet", "wordID": 1554, "conditions": [18, 1200, "v", 18000], "trial": 0, "serialpos": 13, "trial_type": "single-stim", "trial_index": 34, "time_elapsed": 263862, "internal_node_id": "0.0-25.0"}}, {"uniqueid": "MTK0327:37FMASSAYDYG7M52B4LZMGGKCHUBIP", "current_trial": 35, "dateTime": 1510707301624, "trialdata": {"rt": -1, "stimulus": "<p id=\"stim\">FIREPLACE</p>", "key_press": -1, "type": "PRES_VIS", "word": "fireplace", "wordID": 569, "conditions": [18, 1200, "v", 18000], "trial": 0, "serialpos": 14, "trial_type": "single-stim", "trial_index": 35, "time_elapsed": 265868, "internal_node_id": "0.0-26.0"}}, {"uniqueid": "MTK0327:37FMASSAYDYG7M52B4LZMGGKCHUBIP", "current_trial": 36, "dateTime": 1510707303853, "trialdata": {"rt": -1, "stimulus": "<p id=\"stim\">CHAMPAGNE</p>", "key_press": -1, "type": "PRES_VIS", "word": "champagne", "wordID": 277, "conditions": [18, 1200, "v", 18000], "trial": 0, "serialpos": 15, "trial_type": "single-stim", "trial_index": 36, "time_elapsed": 268096, "internal_node_id": "0.0-27.0"}}, {"uniqueid": "MTK0327:37FMASSAYDYG7M52B4LZMGGKCHUBIP", "current_trial": 37, "dateTime": 1510707306001, "trialdata": {"rt": -1, "stimulus": "<p id=\"stim\">DONOR</p>", "key_press": -1, "type": "PRES_VIS", "word": "donor", "wordID": 484, "conditions": [18, 1200, "v", 18000], "trial": 0, "serialpos": 16, "trial_type": "single-stim", "trial_index": 37, "time_elapsed": 270245, "internal_node_id": "0.0-28.0"}}, {"uniqueid": "MTK0327:37FMASSAYDYG7M52B4LZMGGKCHUBIP", "current_trial": 38, "dateTime": 1510707308261, "trialdata": {"rt": -1, "stimulus": "<p id=\"stim\">BLOUSE</p>", "key_press": -1, "type": "PRES_VIS", "word": "blouse", "wordID": 138, "conditions": [18, 1200, "v", 18000], "trial": 0, "serialpos": 17, "trial_type": "single-stim", "trial_index": 38, "time_elapsed": 272505, "internal_node_id": "0.0-29.0"}}, {"uniqueid": "MTK0327:37FMASSAYDYG7M52B4LZMGGKCHUBIP", "current_trial": 39, "dateTime": 1510707310348, "trialdata": {"rt": -1, "stimulus": "", "key_press": -1, "type": "PRE_RECALL_DELAY", "trial_type": "single-stim", "trial_index": 39, "time_elapsed": 274592, "internal_node_id": "0.0-30.0-0.0"}}, {"uniqueid": "MTK0327:37FMASSAYDYG7M52B4LZMGGKCHUBIP", "current_trial": 40, "dateTime": 1510707310920, "trialdata": {"rt": -1000, "stimulus": "/static/audio/400Hz.wav", "key_press": -1, "type": "PRE_RECALL_ALERT", "trial_type": "single-audio", "trial_index": 40, "time_elapsed": 275164, "internal_node_id": "0.0-31.0"}}, {"uniqueid": "MTK0327:37FMASSAYDYG7M52B4LZMGGKCHUBIP", "current_trial": 41, "dateTime": 1510707370964, "trialdata": {"rt": [7423, 8823, 10077, 11984, 13253, 14140, 16502, 18844, 20164, 21440, 22389, 23437, 33201], "recwords": ["harp", "crayon", "proton", "blackboard", "raft", "lake", "wife", "champagne", "racket", "termite", "donor", "blouse", "crater"], "type": "FREE_RECALL", "conditions": [18, 1200, "v", 18000], "trial": 0, "trial_type": "free-recall", "trial_index": 41, "time_elapsed": 335184, "internal_node_id": "0.0-32.0-0.0"}}, {"uniqueid": "MTK0327:37FMASSAYDYG7M52B4LZMGGKCHUBIP", "current_trial": 42, "dateTime": 1510707375809, "trialdata": {"rt": 2842, "key_press": 39, "type": "INSTRUCTIONS", "trial_type": "text", "trial_index": 42, "time_elapsed": 340053, "internal_node_id": "0.0-33.0"}}, {"uniqueid": "MTK0327:37FMASSAYDYG7M52B4LZMGGKCHUBIP", "current_trial": 43, "dateTime": 1510707395845, "trialdata": {"rt": [2540, 4040, 10842, 13376, 16523], "responses": ["17", "7", "10", "10", "16"], "num1": [9, 3, 3, 4, 3, 9], "num2": [2, 3, 5, 2, 5, 2], "num3": [6, 1, 2, 4, 8, 9], "type": "DISTRACTOR", "conditions": [18, 1200, "a", 18000], "trial": 1, "trial_type": "math-distractor", "trial_index": 43, "time_elapsed": 360089, "internal_node_id": "0.0-34.0"}}, {"uniqueid": "MTK0327:37FMASSAYDYG7M52B4LZMGGKCHUBIP", "current_trial": 44, "dateTime": 1510707398849, "trialdata": {"rt": -1, "stimulus": "<p id=\"stim\">10</p>", "key_press": -1, "trial_type": "single-stim", "trial_index": 44, "time_elapsed": 363092, "internal_node_id": "0.0-35.0-0.0"}}, {"uniqueid": "MTK0327:37FMASSAYDYG7M52B4LZMGGKCHUBIP", "current_trial": 45, "dateTime": 1510707399851, "trialdata": {"rt": -1, "stimulus": "<p id=\"stim\">9</p>", "key_press": -1, "trial_type": "single-stim", "trial_index": 45, "time_elapsed": 364094, "internal_node_id": "0.0-35.0-1.0"}}, {"uniqueid": "MTK0327:37FMASSAYDYG7M52B4LZMGGKCHUBIP", "current_trial": 46, "dateTime": 1510707400855, "trialdata": {"rt": -1, "stimulus": "<p id=\"stim\">8</p>", "key_press": -1, "trial_type": "single-stim", "trial_index": 46, "time_elapsed": 365098, "internal_node_id": "0.0-35.0-2.0"}}, {"uniqueid": "MTK0327:37FMASSAYDYG7M52B4LZMGGKCHUBIP", "current_trial": 47, "dateTime": 1510707401857, "trialdata": {"rt": -1, "stimulus": "<p id=\"stim\">7</p>", "key_press": -1, "trial_type": "single-stim", "trial_index": 47, "time_elapsed": 366100, "internal_node_id": "0.0-35.0-3.0"}}, {"uniqueid": "MTK0327:37FMASSAYDYG7M52B4LZMGGKCHUBIP", "current_trial": 48, "dateTime": 1510707402860, "trialdata": {"rt": -1, "stimulus": "<p id=\"stim\">6</p>", "key_press": -1, "trial_type": "single-stim", "trial_index": 48, "time_elapsed": 367103, "internal_node_id": "0.0-35.0-4.0"}}, {"uniqueid": "MTK0327:37FMASSAYDYG7M52B4LZMGGKCHUBIP", "current_trial": 49, "dateTime": 1510707403861, "trialdata": {"rt": -1, "stimulus": "<p id=\"stim\">5</p>", "key_press": -1, "trial_type": "single-stim", "trial_index": 49, "time_elapsed": 368105, "internal_node_id": "0.0-35.0-5.0"}}, {"uniqueid": "MTK0327:37FMASSAYDYG7M52B4LZMGGKCHUBIP", "current_trial": 50, "dateTime": 1510707404864, "trialdata": {"rt": -1, "stimulus": "<p id=\"stim\">4</p>", "key_press": -1, "trial_type": "single-stim", "trial_index": 50, "time_elapsed": 369108, "internal_node_id": "0.0-35.0-6.0"}}, {"uniqueid": "MTK0327:37FMASSAYDYG7M52B4LZMGGKCHUBIP", "current_trial": 51, "dateTime": 1510707405868, "trialdata": {"rt": -1, "stimulus": "<p id=\"stim\">3</p>", "key_press": -1, "trial_type": "single-stim", "trial_index": 51, "time_elapsed": 370111, "internal_node_id": "0.0-35.0-7.0"}}, {"uniqueid": "MTK0327:37FMASSAYDYG7M52B4LZMGGKCHUBIP", "current_trial": 52, "dateTime": 1510707406870, "trialdata": {"rt": -1, "stimulus": "<p id=\"stim\">2</p>", "key_press": -1, "trial_type": "single-stim", "trial_index": 52, "time_elapsed": 371114, "internal_node_id": "0.0-35.0-8.0"}}, {"uniqueid": "MTK0327:37FMASSAYDYG7M52B4LZMGGKCHUBIP", "current_trial": 53, "dateTime": 1510707407872, "trialdata": {"rt": -1, "stimulus": "<p id=\"stim\">1</p>", "key_press": -1, "trial_type": "single-stim", "trial_index": 53, "time_elapsed": 372116, "internal_node_id": "0.0-35.0-9.0"}}, {"uniqueid": "MTK0327:37FMASSAYDYG7M52B4LZMGGKCHUBIP", "current_trial": 54, "dateTime": 1510707409375, "trialdata": {"rt": -1, "stimulus": "<p id=\"stim\">+</p>", "key_press": -1, "type": "FIXATION", "trial_type": "single-stim", "trial_index": 54, "time_elapsed": 373619, "internal_node_id": "0.0-36.0-0.0"}}, {"uniqueid": "MTK0327:37FMASSAYDYG7M52B4LZMGGKCHUBIP", "current_trial": 55, "dateTime": 1510707411598, "trialdata": {"rt": -1000, "stimulus": "/static/audio/wordpool/PISTON.wav", "key_press": -1, "type": "PRES_AUD", "word": "piston", "wordID": 1075, "conditions": [18, 1200, "a", 18000], "trial": 1, "serialpos": 0, "trial_type": "single-audio", "trial_index": 55, "time_elapsed": 375841, "internal_node_id": "0.0-37.0"}}, {"uniqueid": "MTK0327:37FMASSAYDYG7M52B4LZMGGKCHUBIP", "current_trial": 56, "dateTime": 1510707413937, "trialdata": {"rt": 1729.3333333333294, "stimulus": "/static/audio/wordpool/TOURIST.wav", "key_press": 183, "type": "PRES_AUD", "word": "tourist", "wordID": 1487, "conditions": [18, 1200, "a", 18000], "trial": 1, "serialpos": 1, "trial_type": "single-audio", "trial_index": 56, "time_elapsed": 378180, "internal_node_id": "0.0-38.0"}}, {"uniqueid": "MTK0327:37FMASSAYDYG7M52B4LZMGGKCHUBIP", "current_trial": 57, "dateTime": 1510707416318, "trialdata": {"rt": 329.3333333332953, "stimulus": "/static/audio/wordpool/CRITIC.wav", "key_press": 183, "type": "PRES_AUD", "word": "critic", "wordID": 409, "conditions": [18, 1200, "a", 18000], "trial": 1, "serialpos": 2, "trial_type": "single-audio", "trial_index": 57, "time_elapsed": 380561, "internal_node_id": "0.0-39.0"}}, {"uniqueid": "MTK0327:37FMASSAYDYG7M52B4LZMGGKCHUBIP", "current_trial": 58, "dateTime": 1510707418648, "trialdata": {"rt": 918.6666666666383, "stimulus": "/static/audio/wordpool/REPORT.wav", "key_press": 183, "type": "PRES_AUD", "word": "report", "wordID": 1183, "conditions": [18, 1200, "a", 18000], "trial": 1, "serialpos": 3, "trial_type": "single-audio", "trial_index": 58, "time_elapsed": 382891, "internal_node_id": "0.0-40.0"}}, {"uniqueid": "MTK0327:37FMASSAYDYG7M52B4LZMGGKCHUBIP", "current_trial": 59, "dateTime": 1510707420671, "trialdata": {"rt": -1000, "stimulus": "/static/audio/wordpool/CRUTCH.wav", "key_press": -1, "type": "PRES_AUD", "word": "crutch", "wordID": 416, "conditions": [18, 1200, "a", 18000], "trial": 1, "serialpos": 4, "trial_type": "single-audio", "trial_index": 59, "time_elapsed": 384914, "internal_node_id": "0.0-41.0"}}, {"uniqueid": "MTK0327:37FMASSAYDYG7M52B4LZMGGKCHUBIP", "current_trial": 60, "dateTime": 1510707422845, "trialdata": {"rt": -1000, "stimulus": "/static/audio/wordpool/TUNNEL.wav", "key_press": -1, "type": "PRES_AUD", "word": "tunnel", "wordID": 1518, "conditions": [18, 1200, "a", 18000], "trial": 1, "serialpos": 5, "trial_type": "single-audio", "trial_index": 60, "time_elapsed": 387088, "internal_node_id": "0.0-42.0"}}, {"uniqueid": "MTK0327:37FMASSAYDYG7M52B4LZMGGKCHUBIP", "current_trial": 61, "dateTime": 1510707424888, "trialdata": {"rt": -1000, "stimulus": "/static/audio/wordpool/BALLOON.wav", "key_press": -1, "type": "PRES_AUD", "word": "balloon", "wordID": 74, "conditions": [18, 1200, "a", 18000], "trial": 1, "serialpos": 6, "trial_type": "single-audio", "trial_index": 61, "time_elapsed": 389131, "internal_node_id": "0.0-43.0"}}, {"uniqueid": "MTK0327:37FMASSAYDYG7M52B4LZMGGKCHUBIP", "current_trial": 62, "dateTime": 1510707426925, "trialdata": {"rt": -1000, "stimulus": "/static/audio/wordpool/PARTNER.wav", "key_press": -1, "type": "PRES_AUD", "word": "partner", "wordID": 1016, "conditions": [18, 1200, "a", 18000], "trial": 1, "serialpos": 7, "trial_type": "single-audio", "trial_index": 62, "time_elapsed": 391169, "internal_node_id": "0.0-44.0"}}, {"uniqueid": "MTK0327:37FMASSAYDYG7M52B4LZMGGKCHUBIP", "current_trial": 63, "dateTime": 1510707429090, "trialdata": {"rt": -1000, "stimulus": "/static/audio/wordpool/CONCERT.wav", "key_press": -1, "type": "PRES_AUD", "word": "concert", "wordID": 359, "conditions": [18, 1200, "a", 18000], "trial": 1, "serialpos": 8, "trial_type": "single-audio", "trial_index": 63, "time_elapsed": 393334, "internal_node_id": "0.0-45.0"}}, {"uniqueid": "MTK0327:37FMASSAYDYG7M52B4LZMGGKCHUBIP", "current_trial": 64, "dateTime": 1510707431150, "trialdata": {"rt": -1000, "stimulus": "/static/audio/wordpool/HAMPER.wav", "key_press": -1, "type": "PRES_AUD", "word": "hamper", "wordID": 681, "conditions": [18, 1200, "a", 18000], "trial": 1, "serialpos": 9, "trial_type": "single-audio", "trial_index": 64, "time_elapsed": 395393, "internal_node_id": "0.0-46.0"}}, {"uniqueid": "MTK0327:37FMASSAYDYG7M52B4LZMGGKCHUBIP", "current_trial": 65, "dateTime": 1510707433284, "trialdata": {"rt": -1000, "stimulus": "/static/audio/wordpool/SLIDE.wav", "key_press": -1, "type": "PRES_AUD", "word": "slide", "wordID": 1325, "conditions": [18, 1200, "a", 18000], "trial": 1, "serialpos": 10, "trial_type": "single-audio", "trial_index": 65, "time_elapsed": 397528, "internal_node_id": "0.0-47.0"}}, {"uniqueid": "MTK0327:37FMASSAYDYG7M52B4LZMGGKCHUBIP", "current_trial": 66, "dateTime": 1510707435548, "trialdata": {"rt": -1000, "stimulus": "/static/audio/wordpool/FLUTE.wav", "key_press": -1, "type": "PRES_AUD", "word": "flute", "wordID": 584, "conditions": [18, 1200, "a", 18000], "trial": 1, "serialpos": 11, "trial_type": "single-audio", "trial_index": 66, "time_elapsed": 399791, "internal_node_id": "0.0-48.0"}}, {"uniqueid": "MTK0327:37FMASSAYDYG7M52B4LZMGGKCHUBIP", "current_trial": 67, "dateTime": 1510707437930, "trialdata": {"rt": -1000, "stimulus": "/static/audio/wordpool/SHOULDER.wav", "key_press": -1, "type": "PRES_AUD", "word": "shoulder", "wordID": 1293, "conditions": [18, 1200, "a", 18000], "trial": 1, "serialpos": 12, "trial_type": "single-audio", "trial_index": 67, "time_elapsed": 402174, "internal_node_id": "0.0-49.0"}}, {"uniqueid": "MTK0327:37FMASSAYDYG7M52B4LZMGGKCHUBIP", "current_trial": 68, "dateTime": 1510707440293, "trialdata": {"rt": -1000, "stimulus": "/static/audio/wordpool/DUSTPAN.wav", "key_press": -1, "type": "PRES_AUD", "word": "dustpan", "wordID": 508, "conditions": [18, 1200, "a", 18000], "trial": 1, "serialpos": 13, "trial_type": "single-audio", "trial_index": 68, "time_elapsed": 404537, "internal_node_id": "0.0-50.0"}}, {"uniqueid": "MTK0327:37FMASSAYDYG7M52B4LZMGGKCHUBIP", "current_trial": 69, "dateTime": 1510707442591, "trialdata": {"rt": -1000, "stimulus": "/static/audio/wordpool/LONDON.wav", "key_press": -1, "type": "PRES_AUD", "word": "london", "wordID": 842, "conditions": [18, 1200, "a", 18000], "trial": 1, "serialpos": 14, "trial_type": "single-audio", "trial_index": 69, "time_elapsed": 406834, "internal_node_id": "0.0-51.0"}}, {"uniqueid": "MTK0327:37FMASSAYDYG7M52B4LZMGGKCHUBIP", "current_trial": 70, "dateTime": 1510707444982, "trialdata": {"rt": -1000, "stimulus": "/static/audio/wordpool/CATTLE.wav", "key_press": -1, "type": "PRES_AUD", "word": "cattle", "wordID": 260, "conditions": [18, 1200, "a", 18000], "trial": 1, "serialpos": 15, "trial_type": "single-audio", "trial_index": 70, "time_elapsed": 409226, "internal_node_id": "0.0-52.0"}}, {"uniqueid": "MTK0327:37FMASSAYDYG7M52B4LZMGGKCHUBIP", "current_trial": 71, "dateTime": 1510707447194, "trialdata": {"rt": -1000, "stimulus": "/static/audio/wordpool/CASHEW.wav", "key_press": -1, "type": "PRES_AUD", "word": "cashew", "wordID": 252, "conditions": [18, 1200, "a", 18000], "trial": 1, "serialpos": 16, "trial_type": "single-audio", "trial_index": 71, "time_elapsed": 411438, "internal_node_id": "0.0-53.0"}}, {"uniqueid": "MTK0327:37FMASSAYDYG7M52B4LZMGGKCHUBIP", "current_trial": 72, "dateTime": 1510707449325, "trialdata": {"rt": -1000, "stimulus": "/static/audio/wordpool/KLEENEX.wav", "key_press": -1, "type": "PRES_AUD", "word": "kleenex", "wordID": 781, "conditions": [18, 1200, "a", 18000], "trial": 1, "serialpos": 17, "trial_type": "single-audio", "trial_index": 72, "time_elapsed": 413569, "internal_node_id": "0.0-54.0"}}, {"uniqueid": "MTK0327:37FMASSAYDYG7M52B4LZMGGKCHUBIP", "current_trial": 73, "dateTime": 1510707450569, "trialdata": {"rt": -1, "stimulus": "", "key_press": -1, "type": "PRE_RECALL_DELAY", "trial_type": "single-stim", "trial_index": 73, "time_elapsed": 414813, "internal_node_id": "0.0-55.0-0.0"}}, {"uniqueid": "MTK0327:37FMASSAYDYG7M52B4LZMGGKCHUBIP", "current_trial": 74, "dateTime": 1510707451072, "trialdata": {"rt": -1000, "stimulus": "/static/audio/400Hz.wav", "key_press": -1, "type": "PRE_RECALL_ALERT", "trial_type": "single-audio", "trial_index": 74, "time_elapsed": 415315, "internal_node_id": "0.0-56.0"}}, {"uniqueid": "MTK0327:37FMASSAYDYG7M52B4LZMGGKCHUBIP", "current_trial": 75, "dateTime": 1510707511106, "trialdata": {"rt": [2562, 4988, 6292, 9108, 10575, 12183, 13546, 14889, 34742], "recwords": ["london", "cattle", "cashew", "kleenex", "partner", "balloon", "concert", "shoulder", "hamper"], "type": "FREE_RECALL", "conditions": [18, 1200, "a", 18000], "trial": 1, "trial_type": "free-recall", "trial_index": 75, "time_elapsed": 475334, "internal_node_id": "0.0-57.0-0.0"}}, {"uniqueid": "MTK0327:37FMASSAYDYG7M52B4LZMGGKCHUBIP", "current_trial": 76, "dateTime": 1510707820074, "trialdata": {"rt": 306927, "key_press": 39, "type": "INSTRUCTIONS", "trial_type": "text", "trial_index": 76, "time_elapsed": 784282, "internal_node_id": "0.0-58.0"}}, {"uniqueid": "MTK0327:37FMASSAYDYG7M52B4LZMGGKCHUBIP", "current_trial": 77, "dateTime": 1510707833097, "trialdata": {"rt": [4679, 5730, 7427, 9133, 11140], "responses": ["15", "3", "9", "12", "17"], "num1": [2, 1, 1, 6, 6, 2], "num2": [5, 1, 2, 2, 8, 4], "num3": [8, 1, 6, 4, 3, 3], "type": "DISTRACTOR", "conditions": [24, 1600, "v", 12000], "trial": 2, "trial_type": "math-distractor", "trial_index": 77, "time_elapsed": 797340, "internal_node_id": "0.0-59.0"}}, {"uniqueid": "MTK0327:37FMASSAYDYG7M52B4LZMGGKCHUBIP", "current_trial": 78, "dateTime": 1510707839473, "trialdata": {"rt": -1, "stimulus": "<p id=\"stim\">10</p>", "key_press": -1, "trial_type": "single-stim", "trial_index": 78, "time_elapsed": 803717, "internal_node_id": "0.0-60.0-0.0"}}, {"uniqueid": "MTK0327:37FMASSAYDYG7M52B4LZMGGKCHUBIP", "current_trial": 79, "dateTime": 1510707840477, "trialdata": {"rt": -1, "stimulus": "<p id=\"stim\">9</p>", "key_press": -1, "trial_type": "single-stim", "trial_index": 79, "time_elapsed": 804720, "internal_node_id": "0.0-60.0-1.0"}}, {"uniqueid": "MTK0327:37FMASSAYDYG7M52B4LZMGGKCHUBIP", "current_trial": 80, "dateTime": 1510707841481, "trialdata": {"rt": -1, "stimulus": "<p id=\"stim\">8</p>", "key_press": -1, "trial_type": "single-stim", "trial_index": 80, "time_elapsed": 805724, "internal_node_id": "0.0-60.0-2.0"}}, {"uniqueid": "MTK0327:37FMASSAYDYG7M52B4LZMGGKCHUBIP", "current_trial": 81, "dateTime": 1510707842484, "trialdata": {"rt": -1, "stimulus": "<p id=\"stim\">7</p>", "key_press": -1, "trial_type": "single-stim", "trial_index": 81, "time_elapsed": 806728, "internal_node_id": "0.0-60.0-3.0"}}, {"uniqueid": "MTK0327:37FMASSAYDYG7M52B4LZMGGKCHUBIP", "current_trial": 82, "dateTime": 1510707843487, "trialdata": {"rt": -1, "stimulus": "<p id=\"stim\">6</p>", "key_press": -1, "trial_type": "single-stim", "trial_index": 82, "time_elapsed": 807730, "internal_node_id": "0.0-60.0-4.0"}}, {"uniqueid": "MTK0327:37FMASSAYDYG7M52B4LZMGGKCHUBIP", "current_trial": 83, "dateTime": 1510707844489, "trialdata": {"rt": -1, "stimulus": "<p id=\"stim\">5</p>", "key_press": -1, "trial_type": "single-stim", "trial_index": 83, "time_elapsed": 808733, "internal_node_id": "0.0-60.0-5.0"}}, {"uniqueid": "MTK0327:37FMASSAYDYG7M52B4LZMGGKCHUBIP", "current_trial": 84, "dateTime": 1510707845491, "trialdata": {"rt": -1, "stimulus": "<p id=\"stim\">4</p>", "key_press": -1, "trial_type": "single-stim", "trial_index": 84, "time_elapsed": 809735, "internal_node_id": "0.0-60.0-6.0"}}, {"uniqueid": "MTK0327:37FMASSAYDYG7M52B4LZMGGKCHUBIP", "current_trial": 85, "dateTime": 1510707846493, "trialdata": {"rt": -1, "stimulus": "<p id=\"stim\">3</p>", "key_press": -1, "trial_type": "single-stim", "trial_index": 85, "time_elapsed": 810737, "internal_node_id": "0.0-60.0-7.0"}}, {"uniqueid": "MTK0327:37FMASSAYDYG7M52B4LZMGGKCHUBIP", "current_trial": 86, "dateTime": 1510707847497, "trialdata": {"rt": -1, "stimulus": "<p id=\"stim\">2</p>", "key_press": -1, "trial_type": "single-stim", "trial_index": 86, "time_elapsed": 811740, "internal_node_id": "0.0-60.0-8.0"}}, {"uniqueid": "MTK0327:37FMASSAYDYG7M52B4LZMGGKCHUBIP", "current_trial": 87, "dateTime": 1510707848499, "trialdata": {"rt": -1, "stimulus": "<p id=\"stim\">1</p>", "key_press": -1, "trial_type": "single-stim", "trial_index": 87, "time_elapsed": 812743, "internal_node_id": "0.0-60.0-9.0"}}, {"uniqueid": "MTK0327:37FMASSAYDYG7M52B4LZMGGKCHUBIP", "current_trial": 88, "dateTime": 1510707850002, "trialdata": {"rt": -1, "stimulus": "<p id=\"stim\">+</p>", "key_press": -1, "type": "FIXATION", "trial_type": "single-stim", "trial_index": 88, "time_elapsed": 814246, "internal_node_id": "0.0-61.0-0.0"}}, {"uniqueid": "MTK0327:37FMASSAYDYG7M52B4LZMGGKCHUBIP", "current_trial": 89, "dateTime": 1510707851604, "trialdata": {"rt": -1, "stimulus": "<p id=\"stim\">TRUCK</p>", "key_press": -1, "type": "PRES_VIS", "word": "truck", "wordID": 1511, "conditions": [24, 1600, "v", 12000], "trial": 2, "serialpos": 0, "trial_type": "single-stim", "trial_index": 89, "time_elapsed": 815848, "internal_node_id": "0.0-62.0"}}, {"uniqueid": "MTK0327:37FMASSAYDYG7M52B4LZMGGKCHUBIP", "current_trial": 90, "dateTime": 1510707854012, "trialdata": {"rt": -1, "stimulus": "<p id=\"stim\">BANK</p>", "key_press": -1, "type": "PRES_VIS", "word": "bank", "wordID": 82, "conditions": [24, 1600, "v", 12000], "trial": 2, "serialpos": 1, "trial_type": "single-stim", "trial_index": 90, "time_elapsed": 818256, "internal_node_id": "0.0-63.0"}}, {"uniqueid": "MTK0327:37FMASSAYDYG7M52B4LZMGGKCHUBIP", "current_trial": 91, "dateTime": 1510707856601, "trialdata": {"rt": -1, "stimulus": "<p id=\"stim\">PADDING</p>", "key_press": -1, "type": "PRES_VIS", "word": "padding", "wordID": 998, "conditions": [24, 1600, "v", 12000], "trial": 2, "serialpos": 2, "trial_type": "single-stim", "trial_index": 91, "time_elapsed": 820845, "internal_node_id": "0.0-64.0"}}, {"uniqueid": "MTK0327:37FMASSAYDYG7M52B4LZMGGKCHUBIP", "current_trial": 92, "dateTime": 1510707859106, "trialdata": {"rt": -1, "stimulus": "<p id=\"stim\">CAMEL</p>", "key_press": -1, "type": "PRES_VIS", "word": "camel", "wordID": 222, "conditions": [24, 1600, "v", 12000], "trial": 2, "serialpos": 3, "trial_type": "single-stim", "trial_index": 92, "time_elapsed": 823350, "internal_node_id": "0.0-65.0"}}, {"uniqueid": "MTK0327:37FMASSAYDYG7M52B4LZMGGKCHUBIP", "current_trial": 93, "dateTime": 1510707861686, "trialdata": {"rt": -1, "stimulus": "<p id=\"stim\">GUITAR</p>", "key_press": -1, "type": "PRES_VIS", "word": "guitar", "wordID": 669, "conditions": [24, 1600, "v", 12000], "trial": 2, "serialpos": 4, "trial_type": "single-stim", "trial_index": 93, "time_elapsed": 825929, "internal_node_id": "0.0-66.0"}}, {"uniqueid": "MTK0327:37FMASSAYDYG7M52B4LZMGGKCHUBIP", "current_trial": 94, "dateTime": 1510707864458, "trialdata": {"rt": -1, "stimulus": "<p id=\"stim\">TWEEZERS</p>", "key_press": -1, "type": "PRES_VIS", "word": "tweezers", "wordID": 1525, "conditions": [24, 1600, "v", 12000], "trial": 2, "serialpos": 5, "trial_type": "single-stim", "trial_index": 94, "time_elapsed": 828701, "internal_node_id": "0.0-67.0"}}, {"uniqueid": "MTK0327:37FMASSAYDYG7M52B4LZMGGKCHUBIP", "current_trial": 95, "dateTime": 1510707866879, "trialdata": {"rt": -1, "stimulus": "<p id=\"stim\">SCISSORS</p>", "key_press": -1, "type": "PRES_VIS", "word": "scissors", "wordID": 1249, "conditions": [24, 1600, "v", 12000], "trial": 2, "serialpos": 6, "trial_type": "single-stim", "trial_index": 95, "time_elapsed": 831123, "internal_node_id": "0.0-68.0"}}, {"uniqueid": "MTK0327:37FMASSAYDYG7M52B4LZMGGKCHUBIP", "current_trial": 96, "dateTime": 1510707869579, "trialdata": {"rt": -1, "stimulus": "<p id=\"stim\">ROD</p>", "key_press": -1, "type": "PRES_VIS", "word": "rod", "wordID": 1202, "conditions": [24, 1600, "v", 12000], "trial": 2, "serialpos": 7, "trial_type": "single-stim", "trial_index": 96, "time_elapsed": 833822, "internal_node_id": "0.0-69.0"}}, {"uniqueid": "MTK0327:37FMASSAYDYG7M52B4LZMGGKCHUBIP", "current_trial": 97, "dateTime": 1510707872346, "trialdata": {"rt": -1, "stimulus": "<p id=\"stim\">NOTEBOOK</p>", "key_press": -1, "type": "PRES_VIS", "word": "notebook", "wordID": 958, "conditions": [24, 1600, "v", 12000], "trial": 2, "serialpos": 8, "trial_type": "single-stim", "trial_index": 97, "time_elapsed": 836590, "internal_node_id": "0.0-70.0"}}, {"uniqueid": "MTK0327:37FMASSAYDYG7M52B4LZMGGKCHUBIP", "current_trial": 98, "dateTime": 1510707875100, "trialdata": {"rt": -1, "stimulus": "<p id=\"stim\">TROMBONE</p>", "key_press": -1, "type": "PRES_VIS", "word": "trombone", "wordID": 1507, "conditions": [24, 1600, "v", 12000], "trial": 2, "serialpos": 9, "trial_type": "single-stim", "trial_index": 98, "time_elapsed": 839344, "internal_node_id": "0.0-71.0"}}, {"uniqueid": "MTK0327:37FMASSAYDYG7M52B4LZMGGKCHUBIP", "current_trial": 99, "dateTime": 1510707877549, "trialdata": {"rt": -1, "stimulus": "<p id=\"stim\">PANTHER</p>", "key_press": -1, "type": "PRES_VIS", "word": "panther", "wordID": 1008, "conditions": [24, 1600, "v", 12000], "trial": 2, "serialpos": 10, "trial_type": "single-stim", "trial_index": 99, "time_elapsed": 841792, "internal_node_id": "0.0-72.0"}}, {"uniqueid": "MTK0327:37FMASSAYDYG7M52B4LZMGGKCHUBIP", "current_trial": 100, "dateTime": 1510707880302, "trialdata": {"rt": -1, "stimulus": "<p id=\"stim\">HAWK</p>", "key_press": -1, "type": "PRES_VIS", "word": "hawk", "wordID": 691, "conditions": [24, 1600, "v", 12000], "trial": 2, "serialpos": 11, "trial_type": "single-stim", "trial_index": 100, "time_elapsed": 844545, "internal_node_id": "0.0-73.0"}}, {"uniqueid": "MTK0327:37FMASSAYDYG7M52B4LZMGGKCHUBIP", "current_trial": 101, "dateTime": 1510707882964, "trialdata": {"rt": -1, "stimulus": "<p id=\"stim\">DANDRUFF</p>", "key_press": -1, "type": "PRES_VIS", "word": "dandruff", "wordID": 438, "conditions": [24, 1600, "v", 12000], "trial": 2, "serialpos": 12, "trial_type": "single-stim", "trial_index": 101, "time_elapsed": 847207, "internal_node_id": "0.0-74.0"}}, {"uniqueid": "MTK0327:37FMASSAYDYG7M52B4LZMGGKCHUBIP", "current_trial": 102, "dateTime": 1510707885767, "trialdata": {"rt": -1, "stimulus": "<p id=\"stim\">CASHIER</p>", "key_press": -1, "type": "PRES_VIS", "word": "cashier", "wordID": 253, "conditions": [24, 1600, "v", 12000], "trial": 2, "serialpos": 13, "trial_type": "single-stim", "trial_index": 102, "time_elapsed": 850010, "internal_node_id": "0.0-75.0"}}, {"uniqueid": "MTK0327:37FMASSAYDYG7M52B4LZMGGKCHUBIP", "current_trial": 103, "dateTime": 1510707888367, "trialdata": {"rt": -1, "stimulus": "<p id=\"stim\">OYSTER</p>", "key_press": -1, "type": "PRES_VIS", "word": "oyster", "wordID": 994, "conditions": [24, 1600, "v", 12000], "trial": 2, "serialpos": 14, "trial_type": "single-stim", "trial_index": 103, "time_elapsed": 852610, "internal_node_id": "0.0-76.0"}}, {"uniqueid": "MTK0327:37FMASSAYDYG7M52B4LZMGGKCHUBIP", "current_trial": 104, "dateTime": 1510707890954, "trialdata": {"rt": -1, "stimulus": "<p id=\"stim\">SADDLE</p>", "key_press": -1, "type": "PRES_VIS", "word": "saddle", "wordID": 1220, "conditions": [24, 1600, "v", 12000], "trial": 2, "serialpos": 15, "trial_type": "single-stim", "trial_index": 104, "time_elapsed": 855198, "internal_node_id": "0.0-77.0"}}, {"uniqueid": "MTK0327:37FMASSAYDYG7M52B4LZMGGKCHUBIP", "current_trial": 105, "dateTime": 1510707893398, "trialdata": {"rt": -1, "stimulus": "<p id=\"stim\">LUGGAGE</p>", "key_press": -1, "type": "PRES_VIS", "word": "luggage", "wordID": 846, "conditions": [24, 1600, "v", 12000], "trial": 2, "serialpos": 16, "trial_type": "single-stim", "trial_index": 105, "time_elapsed": 857641, "internal_node_id": "0.0-78.0"}}, {"uniqueid": "MTK0327:37FMASSAYDYG7M52B4LZMGGKCHUBIP", "current_trial": 106, "dateTime": 1510707895814, "trialdata": {"rt": -1, "stimulus": "<p id=\"stim\">ROBBER</p>", "key_press": -1, "type": "PRES_VIS", "word": "robber", "wordID": 1196, "conditions": [24, 1600, "v", 12000], "trial": 2, "serialpos": 17, "trial_type": "single-stim", "trial_index": 106, "time_elapsed": 860058, "internal_node_id": "0.0-79.0"}}, {"uniqueid": "MTK0327:37FMASSAYDYG7M52B4LZMGGKCHUBIP", "current_trial": 107, "dateTime": 1510707898477, "trialdata": {"rt": -1, "stimulus": "<p id=\"stim\">WITNESS</p>", "key_press": -1, "type": "PRES_VIS", "word": "witness", "wordID": 1617, "conditions": [24, 1600, "v", 12000], "trial": 2, "serialpos": 18, "trial_type": "single-stim", "trial_index": 107, "time_elapsed": 862721, "internal_node_id": "0.0-80.0"}}, {"uniqueid": "MTK0327:37FMASSAYDYG7M52B4LZMGGKCHUBIP", "current_trial": 108, "dateTime": 1510707901070, "trialdata": {"rt": -1, "stimulus": "<p id=\"stim\">BROTHER</p>", "key_press": -1, "type": "PRES_VIS", "word": "brother", "wordID": 178, "conditions": [24, 1600, "v", 12000], "trial": 2, "serialpos": 19, "trial_type": "single-stim", "trial_index": 108, "time_elapsed": 865313, "internal_node_id": "0.0-81.0"}}, {"uniqueid": "MTK0327:37FMASSAYDYG7M52B4LZMGGKCHUBIP", "current_trial": 109, "dateTime": 1510707903594, "trialdata": {"rt": -1, "stimulus": "<p id=\"stim\">DONKEY</p>", "key_press": -1, "type": "PRES_VIS", "word": "donkey", "wordID": 483, "conditions": [24, 1600, "v", 12000], "trial": 2, "serialpos": 20, "trial_type": "single-stim", "trial_index": 109, "time_elapsed": 867837, "internal_node_id": "0.0-82.0"}}, {"uniqueid": "MTK0327:37FMASSAYDYG7M52B4LZMGGKCHUBIP", "current_trial": 110, "dateTime": 1510707906240, "trialdata": {"rt": -1, "stimulus": "<p id=\"stim\">CLIMBER</p>", "key_press": -1, "type": "PRES_VIS", "word": "climber", "wordID": 322, "conditions": [24, 1600, "v", 12000], "trial": 2, "serialpos": 21, "trial_type": "single-stim", "trial_index": 110, "time_elapsed": 870482, "internal_node_id": "0.0-83.0"}}, {"uniqueid": "MTK0327:37FMASSAYDYG7M52B4LZMGGKCHUBIP", "current_trial": 111, "dateTime": 1510707908868, "trialdata": {"rt": -1, "stimulus": "<p id=\"stim\">HIKER</p>", "key_press": -1, "type": "PRES_VIS", "word": "hiker", "wordID": 707, "conditions": [24, 1600, "v", 12000], "trial": 2, "serialpos": 22, "trial_type": "single-stim", "trial_index": 111, "time_elapsed": 873112, "internal_node_id": "0.0-84.0"}}, {"uniqueid": "MTK0327:37FMASSAYDYG7M52B4LZMGGKCHUBIP", "current_trial": 112, "dateTime": 1510707911360, "trialdata": {"rt": -1, "stimulus": "<p id=\"stim\">SUBWAY</p>", "key_press": -1, "type": "PRES_VIS", "word": "subway", "wordID": 1399, "conditions": [24, 1600, "v", 12000], "trial": 2, "serialpos": 23, "trial_type": "single-stim", "trial_index": 112, "time_elapsed": 875604, "internal_node_id": "0.0-85.0"}}, {"uniqueid": "MTK0327:37FMASSAYDYG7M52B4LZMGGKCHUBIP", "current_trial": 113, "dateTime": 1510707913542, "trialdata": {"rt": -1, "stimulus": "", "key_press": -1, "type": "PRE_RECALL_DELAY", "trial_type": "single-stim", "trial_index": 113, "time_elapsed": 877786, "internal_node_id": "0.0-86.0-0.0"}}, {"uniqueid": "MTK0327:37FMASSAYDYG7M52B4LZMGGKCHUBIP", "current_trial": 114, "dateTime": 1510707914043, "trialdata": {"rt": -1000, "stimulus": "/static/audio/400Hz.wav", "key_press": -1, "type": "PRE_RECALL_ALERT", "trial_type": "single-audio", "trial_index": 114, "time_elapsed": 878287, "internal_node_id": "0.0-87.0"}}, {"uniqueid": "MTK0327:37FMASSAYDYG7M52B4LZMGGKCHUBIP", "current_trial": 115, "dateTime": 1510707974079, "trialdata": {"rt": [2679, 3743, 4926, 6017, 7277, 11583, 13314, 13932, 19931, 21118, 23653, 25042, 26458, 28608, 30150, 37249, 38563, 40552], "recwords": ["truck", "bank", "padding", "camel", "saddle", "tweezers", "scissors", "rod", "robber", "witness", "brother", "donkey", "hiker", "climber", "subway", "trombone", "panther", "hawk"], "type": "FREE_RECALL", "conditions": [24, 1600, "v", 12000], "trial": 2, "trial_type": "free-recall", "trial_index": 115, "time_elapsed": 938304, "internal_node_id": "0.0-88.0-0.0"}}, {"uniqueid": "MTK0327:37FMASSAYDYG7M52B4LZMGGKCHUBIP", "current_trial": 116, "dateTime": 1510708152047, "trialdata": {"rt": 175962, "key_press": 39, "type": "INSTRUCTIONS", "trial_type": "text", "trial_index": 116, "time_elapsed": 1116290, "internal_node_id": "0.0-89.0"}}, {"uniqueid": "MTK0327:37FMASSAYDYG7M52B4LZMGGKCHUBIP", "current_trial": 117, "dateTime": 1510708166074, "trialdata": {"rt": [2557, 4476, 6113, 8030, 9649], "responses": ["12", "10", "9", "15", "24"], "num1": [4, 4, 2, 7, 8, 8], "num2": [1, 4, 2, 5, 8, 5], "num3": [7, 2, 5, 3, 8, 7], "type": "DISTRACTOR", "conditions": [24, 800, "v", 12000], "trial": 3, "trial_type": "math-distractor", "trial_index": 117, "time_elapsed": 1130309, "internal_node_id": "0.0-90.0"}}, {"uniqueid": "MTK0327:37FMASSAYDYG7M52B4LZMGGKCHUBIP", "current_trial": 118, "dateTime": 1510708169080, "trialdata": {"rt": -1, "stimulus": "<p id=\"stim\">10</p>", "key_press": -1, "trial_type": "single-stim", "trial_index": 118, "time_elapsed": 1133323, "internal_node_id": "0.0-91.0-0.0"}}, {"uniqueid": "MTK0327:37FMASSAYDYG7M52B4LZMGGKCHUBIP", "current_trial": 119, "dateTime": 1510708170083, "trialdata": {"rt": -1, "stimulus": "<p id=\"stim\">9</p>", "key_press": -1, "trial_type": "single-stim", "trial_index": 119, "time_elapsed": 1134327, "internal_node_id": "0.0-91.0-1.0"}}, {"uniqueid": "MTK0327:37FMASSAYDYG7M52B4LZMGGKCHUBIP", "current_trial": 120, "dateTime": 1510708171098, "trialdata": {"rt": -1, "stimulus": "<p id=\"stim\">8</p>", "key_press": -1, "trial_type": "single-stim", "trial_index": 120, "time_elapsed": 1135342, "internal_node_id": "0.0-91.0-2.0"}}, {"uniqueid": "MTK0327:37FMASSAYDYG7M52B4LZMGGKCHUBIP", "current_trial": 121, "dateTime": 1510708172101, "trialdata": {"rt": -1, "stimulus": "<p id=\"stim\">7</p>", "key_press": -1, "trial_type": "single-stim", "trial_index": 121, "time_elapsed": 1136345, "internal_node_id": "0.0-91.0-3.0"}}, {"uniqueid": "MTK0327:37FMASSAYDYG7M52B4LZMGGKCHUBIP", "current_trial": 122, "dateTime": 1510708173103, "trialdata": {"rt": -1, "stimulus": "<p id=\"stim\">6</p>", "key_press": -1, "trial_type": "single-stim", "trial_index": 122, "time_elapsed": 1137347, "internal_node_id": "0.0-91.0-4.0"}}, {"uniqueid": "MTK0327:37FMASSAYDYG7M52B4LZMGGKCHUBIP", "current_trial": 123, "dateTime": 1510708174107, "trialdata": {"rt": -1, "stimulus": "<p id=\"stim\">5</p>", "key_press": -1, "trial_type": "single-stim", "trial_index": 123, "time_elapsed": 1138350, "internal_node_id": "0.0-91.0-5.0"}}, {"uniqueid": "MTK0327:37FMASSAYDYG7M52B4LZMGGKCHUBIP", "current_trial": 124, "dateTime": 1510708175108, "trialdata": {"rt": -1, "stimulus": "<p id=\"stim\">4</p>", "key_press": -1, "trial_type": "single-stim", "trial_index": 124, "time_elapsed": 1139352, "internal_node_id": "0.0-91.0-6.0"}}, {"uniqueid": "MTK0327:37FMASSAYDYG7M52B4LZMGGKCHUBIP", "current_trial": 125, "dateTime": 1510708176110, "trialdata": {"rt": -1, "stimulus": "<p id=\"stim\">3</p>", "key_press": -1, "trial_type": "single-stim", "trial_index": 125, "time_elapsed": 1140353, "internal_node_id": "0.0-91.0-7.0"}}, {"uniqueid": "MTK0327:37FMASSAYDYG7M52B4LZMGGKCHUBIP", "current_trial": 126, "dateTime": 1510708177112, "trialdata": {"rt": -1, "stimulus": "<p id=\"stim\">2</p>", "key_press": -1, "trial_type": "single-stim", "trial_index": 126, "time_elapsed": 1141355, "internal_node_id": "0.0-91.0-8.0"}}, {"uniqueid": "MTK0327:37FMASSAYDYG7M52B4LZMGGKCHUBIP", "current_trial": 127, "dateTime": 1510708178114, "trialdata": {"rt": -1, "stimulus": "<p id=\"stim\">1</p>", "key_press": -1, "trial_type": "single-stim", "trial_index": 127, "time_elapsed": 1142358, "internal_node_id": "0.0-91.0-9.0"}}, {"uniqueid": "MTK0327:37FMASSAYDYG7M52B4LZMGGKCHUBIP", "current_trial": 128, "dateTime": 1510708179618, "trialdata": {"rt": -1, "stimulus": "<p id=\"stim\">+</p>", "key_press": -1, "type": "FIXATION", "trial_type": "single-stim", "trial_index": 128, "time_elapsed": 1143862, "internal_node_id": "0.0-92.0-0.0"}}, {"uniqueid": "MTK0327:37FMASSAYDYG7M52B4LZMGGKCHUBIP", "current_trial": 129, "dateTime": 1510708180421, "trialdata": {"rt": -1, "stimulus": "<p id=\"stim\">SPOUSE</p>", "key_press": -1, "type": "PRES_VIS", "word": "spouse", "wordID": 1357, "conditions": [24, 800, "v", 12000], "trial": 3, "serialpos": 0, "trial_type": "single-stim", "trial_index": 129, "time_elapsed": 1144665, "internal_node_id": "0.0-93.0"}}, {"uniqueid": "MTK0327:37FMASSAYDYG7M52B4LZMGGKCHUBIP", "current_trial": 130, "dateTime": 1510708182145, "trialdata": {"rt": -1, "stimulus": "<p id=\"stim\">GIRL</p>", "key_press": -1, "type": "PRES_VIS", "word": "girl", "wordID": 636, "conditions": [24, 800, "v", 12000], "trial": 3, "serialpos": 1, "trial_type": "single-stim", "trial_index": 130, "time_elapsed": 1146389, "internal_node_id": "0.0-94.0"}}, {"uniqueid": "MTK0327:37FMASSAYDYG7M52B4LZMGGKCHUBIP", "current_trial": 131, "dateTime": 1510708184049, "trialdata": {"rt": -1, "stimulus": "<p id=\"stim\">CHILD</p>", "key_press": -1, "type": "PRES_VIS", "word": "child", "wordID": 298, "conditions": [24, 800, "v", 12000], "trial": 3, "serialpos": 2, "trial_type": "single-stim", "trial_index": 131, "time_elapsed": 1148293, "internal_node_id": "0.0-95.0"}}, {"uniqueid": "MTK0327:37FMASSAYDYG7M52B4LZMGGKCHUBIP", "current_trial": 132, "dateTime": 1510708186207, "trialdata": {"rt": -1, "stimulus": "<p id=\"stim\">TRANSPLANT</p>", "key_press": -1, "type": "PRES_VIS", "word": "transplant", "wordID": 1495, "conditions": [24, 800, "v", 12000], "trial": 3, "serialpos": 3, "trial_type": "single-stim", "trial_index": 132, "time_elapsed": 1150451, "internal_node_id": "0.0-96.0"}}, {"uniqueid": "MTK0327:37FMASSAYDYG7M52B4LZMGGKCHUBIP", "current_trial": 133, "dateTime": 1510708188156, "trialdata": {"rt": -1, "stimulus": "<p id=\"stim\">BUG</p>", "key_press": -1, "type": "PRES_VIS", "word": "bug", "wordID": 186, "conditions": [24, 800, "v", 12000], "trial": 3, "serialpos": 4, "trial_type": "single-stim", "trial_index": 133, "time_elapsed": 1152399, "internal_node_id": "0.0-97.0"}}, {"uniqueid": "MTK0327:37FMASSAYDYG7M52B4LZMGGKCHUBIP", "current_trial": 134, "dateTime": 1510708190104, "trialdata": {"rt": -1, "stimulus": "<p id=\"stim\">KITCHEN</p>", "key_press": -1, "type": "PRES_VIS", "word": "kitchen", "wordID": 777, "conditions": [24, 800, "v", 12000], "trial": 3, "serialpos": 5, "trial_type": "single-stim", "trial_index": 134, "time_elapsed": 1154348, "internal_node_id": "0.0-98.0"}}, {"uniqueid": "MTK0327:37FMASSAYDYG7M52B4LZMGGKCHUBIP", "current_trial": 135, "dateTime": 1510708191883, "trialdata": {"rt": -1, "stimulus": "<p id=\"stim\">TUBA</p>", "key_press": -1, "type": "PRES_VIS", "word": "tuba", "wordID": 1514, "conditions": [24, 800, "v", 12000], "trial": 3, "serialpos": 6, "trial_type": "single-stim", "trial_index": 135, "time_elapsed": 1156127, "internal_node_id": "0.0-99.0"}}, {"uniqueid": "MTK0327:37FMASSAYDYG7M52B4LZMGGKCHUBIP", "current_trial": 136, "dateTime": 1510708193685, "trialdata": {"rt": -1, "stimulus": "<p id=\"stim\">RIFLE</p>", "key_press": -1, "type": "PRES_VIS", "word": "rifle", "wordID": 1191, "conditions": [24, 800, "v", 12000], "trial": 3, "serialpos": 7, "trial_type": "single-stim", "trial_index": 136, "time_elapsed": 1157929, "internal_node_id": "0.0-100.0"}}, {"uniqueid": "MTK0327:37FMASSAYDYG7M52B4LZMGGKCHUBIP", "current_trial": 137, "dateTime": 1510708195330, "trialdata": {"rt": -1, "stimulus": "<p id=\"stim\">BOX</p>", "key_press": -1, "type": "PRES_VIS", "word": "box", "wordID": 158, "conditions": [24, 800, "v", 12000], "trial": 3, "serialpos": 8, "trial_type": "single-stim", "trial_index": 137, "time_elapsed": 1159574, "internal_node_id": "0.0-101.0"}}, {"uniqueid": "MTK0327:37FMASSAYDYG7M52B4LZMGGKCHUBIP", "current_trial": 138, "dateTime": 1510708197210, "trialdata": {"rt": -1, "stimulus": "<p id=\"stim\">BUCKET</p>", "key_press": -1, "type": "PRES_VIS", "word": "bucket", "wordID": 183, "conditions": [24, 800, "v", 12000], "trial": 3, "serialpos": 9, "trial_type": "single-stim", "trial_index": 138, "time_elapsed": 1161454, "internal_node_id": "0.0-102.0"}}, {"uniqueid": "MTK0327:37FMASSAYDYG7M52B4LZMGGKCHUBIP", "current_trial": 139, "dateTime": 1510708199074, "trialdata": {"rt": -1, "stimulus": "<p id=\"stim\">ULCER</p>", "key_press": -1, "type": "PRES_VIS", "word": "ulcer", "wordID": 1532, "conditions": [24, 800, "v", 12000], "trial": 3, "serialpos": 10, "trial_type": "single-stim", "trial_index": 139, "time_elapsed": 1163318, "internal_node_id": "0.0-103.0"}}, {"uniqueid": "MTK0327:37FMASSAYDYG7M52B4LZMGGKCHUBIP", "current_trial": 140, "dateTime": 1510708200851, "trialdata": {"rt": -1, "stimulus": "<p id=\"stim\">BANJO</p>", "key_press": -1, "type": "PRES_VIS", "word": "banjo", "wordID": 81, "conditions": [24, 800, "v", 12000], "trial": 3, "serialpos": 11, "trial_type": "single-stim", "trial_index": 140, "time_elapsed": 1165095, "internal_node_id": "0.0-104.0"}}, {"uniqueid": "MTK0327:37FMASSAYDYG7M52B4LZMGGKCHUBIP", "current_trial": 141, "dateTime": 1510708202769, "trialdata": {"rt": -1, "stimulus": "<p id=\"stim\">TURTLE</p>", "key_press": -1, "type": "PRES_VIS", "word": "turtle", "wordID": 1521, "conditions": [24, 800, "v", 12000], "trial": 3, "serialpos": 12, "trial_type": "single-stim", "trial_index": 141, "time_elapsed": 1167013, "internal_node_id": "0.0-105.0"}}, {"uniqueid": "MTK0327:37FMASSAYDYG7M52B4LZMGGKCHUBIP", "current_trial": 142, "dateTime": 1510708204583, "trialdata": {"rt": -1, "stimulus": "<p id=\"stim\">POPCORN</p>", "key_press": -1, "type": "PRES_VIS", "word": "popcorn", "wordID": 1103, "conditions": [24, 800, "v", 12000], "trial": 3, "serialpos": 13, "trial_type": "single-stim", "trial_index": 142, "time_elapsed": 1168825, "internal_node_id": "0.0-106.0"}}, {"uniqueid": "MTK0327:37FMASSAYDYG7M52B4LZMGGKCHUBIP", "current_trial": 143, "dateTime": 1510708206549, "trialdata": {"rt": -1, "stimulus": "<p id=\"stim\">CANDY</p>", "key_press": -1, "type": "PRES_VIS", "word": "candy", "wordID": 229, "conditions": [24, 800, "v", 12000], "trial": 3, "serialpos": 14, "trial_type": "single-stim", "trial_index": 143, "time_elapsed": 1170792, "internal_node_id": "0.0-107.0"}}, {"uniqueid": "MTK0327:37FMASSAYDYG7M52B4LZMGGKCHUBIP", "current_trial": 144, "dateTime": 1510708208371, "trialdata": {"rt": -1, "stimulus": "<p id=\"stim\">FOREHEAD</p>", "key_press": -1, "type": "PRES_VIS", "word": "forehead", "wordID": 591, "conditions": [24, 800, "v", 12000], "trial": 3, "serialpos": 15, "trial_type": "single-stim", "trial_index": 144, "time_elapsed": 1172614, "internal_node_id": "0.0-108.0"}}, {"uniqueid": "MTK0327:37FMASSAYDYG7M52B4LZMGGKCHUBIP", "current_trial": 145, "dateTime": 1510708209980, "trialdata": {"rt": -1, "stimulus": "<p id=\"stim\">COUSIN</p>", "key_press": -1, "type": "PRES_VIS", "word": "cousin", "wordID": 391, "conditions": [24, 800, "v", 12000], "trial": 3, "serialpos": 16, "trial_type": "single-stim", "trial_index": 145, "time_elapsed": 1174223, "internal_node_id": "0.0-109.0"}}, {"uniqueid": "MTK0327:37FMASSAYDYG7M52B4LZMGGKCHUBIP", "current_trial": 146, "dateTime": 1510708211773, "trialdata": {"rt": -1, "stimulus": "<p id=\"stim\">SUITCASE</p>", "key_press": -1, "type": "PRES_VIS", "word": "suitcase", "wordID": 1402, "conditions": [24, 800, "v", 12000], "trial": 3, "serialpos": 17, "trial_type": "single-stim", "trial_index": 146, "time_elapsed": 1176016, "internal_node_id": "0.0-110.0"}}, {"uniqueid": "MTK0327:37FMASSAYDYG7M52B4LZMGGKCHUBIP", "current_trial": 147, "dateTime": 1510708213538, "trialdata": {"rt": -1, "stimulus": "<p id=\"stim\">BUGGY</p>", "key_press": -1, "type": "PRES_VIS", "word": "buggy", "wordID": 187, "conditions": [24, 800, "v", 12000], "trial": 3, "serialpos": 18, "trial_type": "single-stim", "trial_index": 147, "time_elapsed": 1177781, "internal_node_id": "0.0-111.0"}}, {"uniqueid": "MTK0327:37FMASSAYDYG7M52B4LZMGGKCHUBIP", "current_trial": 148, "dateTime": 1510708215241, "trialdata": {"rt": -1, "stimulus": "<p id=\"stim\">ROCKET</p>", "key_press": -1, "type": "PRES_VIS", "word": "rocket", "wordID": 1201, "conditions": [24, 800, "v", 12000], "trial": 3, "serialpos": 19, "trial_type": "single-stim", "trial_index": 148, "time_elapsed": 1179484, "internal_node_id": "0.0-112.0"}}, {"uniqueid": "MTK0327:37FMASSAYDYG7M52B4LZMGGKCHUBIP", "current_trial": 149, "dateTime": 1510708221987, "trialdata": {"rt": -1, "stimulus": "<p id=\"stim\">UNCLE</p>", "key_press": -1, "type": "PRES_VIS", "word": "uncle", "wordID": 1535, "conditions": [24, 800, "v", 12000], "trial": 3, "serialpos": 20, "trial_type": "single-stim", "trial_index": 149, "time_elapsed": 1186231, "internal_node_id": "0.0-113.0"}}, {"uniqueid": "MTK0327:37FMASSAYDYG7M52B4LZMGGKCHUBIP", "current_trial": 150, "dateTime": 1510708223661, "trialdata": {"rt": -1, "stimulus": "<p id=\"stim\">IGLOO</p>", "key_press": -1, "type": "PRES_VIS", "word": "igloo", "wordID": 733, "conditions": [24, 800, "v", 12000], "trial": 3, "serialpos": 21, "trial_type": "single-stim", "trial_index": 150, "time_elapsed": 1187905, "internal_node_id": "0.0-114.0"}}, {"uniqueid": "MTK0327:37FMASSAYDYG7M52B4LZMGGKCHUBIP", "current_trial": 151, "dateTime": 1510708225349, "trialdata": {"rt": -1, "stimulus": "<p id=\"stim\">WRIST</p>", "key_press": -1, "type": "PRES_VIS", "word": "wrist", "wordID": 1625, "conditions": [24, 800, "v", 12000], "trial": 3, "serialpos": 22, "trial_type": "single-stim", "trial_index": 151, "time_elapsed": 1189592, "internal_node_id": "0.0-115.0"}}, {"uniqueid": "MTK0327:37FMASSAYDYG7M52B4LZMGGKCHUBIP", "current_trial": 152, "dateTime": 1510708227210, "trialdata": {"rt": -1, "stimulus": "<p id=\"stim\">SISTER</p>", "key_press": -1, "type": "PRES_VIS", "word": "sister", "wordID": 1311, "conditions": [24, 800, "v", 12000], "trial": 3, "serialpos": 23, "trial_type": "single-stim", "trial_index": 152, "time_elapsed": 1191452, "internal_node_id": "0.0-116.0"}}, {"uniqueid": "MTK0327:37FMASSAYDYG7M52B4LZMGGKCHUBIP", "current_trial": 153, "dateTime": 1510708229416, "trialdata": {"rt": -1, "stimulus": "", "key_press": -1, "type": "PRE_RECALL_DELAY", "trial_type": "single-stim", "trial_index": 153, "time_elapsed": 1193660, "internal_node_id": "0.0-117.0-0.0"}}, {"uniqueid": "MTK0327:37FMASSAYDYG7M52B4LZMGGKCHUBIP", "current_trial": 154, "dateTime": 1510708229918, "trialdata": {"rt": -1000, "stimulus": "/static/audio/400Hz.wav", "key_press": -1, "type": "PRE_RECALL_ALERT", "trial_type": "single-audio", "trial_index": 154, "time_elapsed": 1194161, "internal_node_id": "0.0-118.0"}}, {"uniqueid": "MTK0327:37FMASSAYDYG7M52B4LZMGGKCHUBIP", "current_trial": 155, "dateTime": 1510708289957, "trialdata": {"rt": [2525, 3912, 5329, 7346, 8041, 8833, 10893, 12939, 14246, 15245, 16240, 17043, 20186, 22259, 26948, 41913, 48432], "recwords": ["uncle", "igloo", "wrist", "spouse", "girl", "child", "transplant", "bug", "kitchen", "box", "bucket", "rifle", "banjo", "turtle", "ulcer", "buggy", "rocket"], "type": "FREE_RECALL", "conditions": [24, 800, "v", 12000], "trial": 3, "trial_type": "free-recall", "trial_index": 155, "time_elapsed": 1254179, "internal_node_id": "0.0-119.0-0.0"}}, {"uniqueid": "MTK0327:37FMASSAYDYG7M52B4LZMGGKCHUBIP", "current_trial": 156, "dateTime": 1510708293582, "trialdata": {"rt": 1620, "key_press": 39, "type": "INSTRUCTIONS", "trial_type": "text", "trial_index": 156, "time_elapsed": 1257825, "internal_node_id": "0.0-120.0"}}, {"uniqueid": "MTK0327:37FMASSAYDYG7M52B4LZMGGKCHUBIP", "current_trial": 157, "dateTime": 1510708319603, "trialdata": {"rt": [5449, 7261, 10222, 12185, 14383, 17150, 19199, 20961, 23632], "responses": ["20", "10", "19", "11", "15", "21", "17", "11", "13"], "num1": [9, 1, 8, 3, 3, 7, 4, 8, 1, 3], "num2": [8, 1, 9, 7, 9, 8, 6, 1, 7, 6], "num3": [3, 8, 2, 1, 3, 6, 7, 2, 5, 4], "type": "DISTRACTOR", "conditions": [12, 800, "v", 24000], "trial": 4, "trial_type": "math-distractor", "trial_index": 157, "time_elapsed": 1283846, "internal_node_id": "0.0-121.0"}}, {"uniqueid": "MTK0327:37FMASSAYDYG7M52B4LZMGGKCHUBIP", "current_trial": 158, "dateTime": 1510708322607, "trialdata": {"rt": -1, "stimulus": "<p id=\"stim\">10</p>", "key_press": -1, "trial_type": "single-stim", "trial_index": 158, "time_elapsed": 1286850, "internal_node_id": "0.0-122.0-0.0"}}, {"uniqueid": "MTK0327:37FMASSAYDYG7M52B4LZMGGKCHUBIP", "current_trial": 159, "dateTime": 1510708323612, "trialdata": {"rt": -1, "stimulus": "<p id=\"stim\">9</p>", "key_press": -1, "trial_type": "single-stim", "trial_index": 159, "time_elapsed": 1287855, "internal_node_id": "0.0-122.0-1.0"}}, {"uniqueid": "MTK0327:37FMASSAYDYG7M52B4LZMGGKCHUBIP", "current_trial": 160, "dateTime": 1510708324615, "trialdata": {"rt": -1, "stimulus": "<p id=\"stim\">8</p>", "key_press": -1, "trial_type": "single-stim", "trial_index": 160, "time_elapsed": 1288858, "internal_node_id": "0.0-122.0-2.0"}}, {"uniqueid": "MTK0327:37FMASSAYDYG7M52B4LZMGGKCHUBIP", "current_trial": 161, "dateTime": 1510708325618, "trialdata": {"rt": -1, "stimulus": "<p id=\"stim\">7</p>", "key_press": -1, "trial_type": "single-stim", "trial_index": 161, "time_elapsed": 1289862, "internal_node_id": "0.0-122.0-3.0"}}, {"uniqueid": "MTK0327:37FMASSAYDYG7M52B4LZMGGKCHUBIP", "current_trial": 162, "dateTime": 1510708326621, "trialdata": {"rt": -1, "stimulus": "<p id=\"stim\">6</p>", "key_press": -1, "trial_type": "single-stim", "trial_index": 162, "time_elapsed": 1290864, "internal_node_id": "0.0-122.0-4.0"}}, {"uniqueid": "MTK0327:37FMASSAYDYG7M52B4LZMGGKCHUBIP", "current_trial": 163, "dateTime": 1510708327623, "trialdata": {"rt": -1, "stimulus": "<p id=\"stim\">5</p>", "key_press": -1, "trial_type": "single-stim", "trial_index": 163, "time_elapsed": 1291866, "internal_node_id": "0.0-122.0-5.0"}}, {"uniqueid": "MTK0327:37FMASSAYDYG7M52B4LZMGGKCHUBIP", "current_trial": 164, "dateTime": 1510708328626, "trialdata": {"rt": -1, "stimulus": "<p id=\"stim\">4</p>", "key_press": -1, "trial_type": "single-stim", "trial_index": 164, "time_elapsed": 1292869, "internal_node_id": "0.0-122.0-6.0"}}, {"uniqueid": "MTK0327:37FMASSAYDYG7M52B4LZMGGKCHUBIP", "current_trial": 165, "dateTime": 1510708329629, "trialdata": {"rt": -1, "stimulus": "<p id=\"stim\">3</p>", "key_press": -1, "trial_type": "single-stim", "trial_index": 165, "time_elapsed": 1293872, "internal_node_id": "0.0-122.0-7.0"}}, {"uniqueid": "MTK0327:37FMASSAYDYG7M52B4LZMGGKCHUBIP", "current_trial": 166, "dateTime": 1510708330631, "trialdata": {"rt": -1, "stimulus": "<p id=\"stim\">2</p>", "key_press": -1, "trial_type": "single-stim", "trial_index": 166, "time_elapsed": 1294875, "internal_node_id": "0.0-122.0-8.0"}}, {"uniqueid": "MTK0327:37FMASSAYDYG7M52B4LZMGGKCHUBIP", "current_trial": 167, "dateTime": 1510708331635, "trialdata": {"rt": -1, "stimulus": "<p id=\"stim\">1</p>", "key_press": -1, "trial_type": "single-stim", "trial_index": 167, "time_elapsed": 1295879, "internal_node_id": "0.0-122.0-9.0"}}, {"uniqueid": "MTK0327:37FMASSAYDYG7M52B4LZMGGKCHUBIP", "current_trial": 168, "dateTime": 1510708333138, "trialdata": {"rt": -1, "stimulus": "<p id=\"stim\">+</p>", "key_press": -1, "type": "FIXATION", "trial_type": "single-stim", "trial_index": 168, "time_elapsed": 1297381, "internal_node_id": "0.0-123.0-0.0"}}, {"uniqueid": "MTK0327:37FMASSAYDYG7M52B4LZMGGKCHUBIP", "current_trial": 169, "dateTime": 1510708333941, "trialdata": {"rt": -1, "stimulus": "<p id=\"stim\">BREAST</p>", "key_press": -1, "type": "PRES_VIS", "word": "breast", "wordID": 170, "conditions": [12, 800, "v", 24000], "trial": 4, "serialpos": 0, "trial_type": "single-stim", "trial_index": 169, "time_elapsed": 1298185, "internal_node_id": "0.0-124.0"}}, {"uniqueid": "MTK0327:37FMASSAYDYG7M52B4LZMGGKCHUBIP", "current_trial": 170, "dateTime": 1510708335561, "trialdata": {"rt": -1, "stimulus": "<p id=\"stim\">COSTUME</p>", "key_press": -1, "type": "PRES_VIS", "word": "costume", "wordID": 382, "conditions": [12, 800, "v", 24000], "trial": 4, "serialpos": 1, "trial_type": "single-stim", "trial_index": 170, "time_elapsed": 1299805, "internal_node_id": "0.0-125.0"}}, {"uniqueid": "MTK0327:37FMASSAYDYG7M52B4LZMGGKCHUBIP", "current_trial": 171, "dateTime": 1510708337432, "trialdata": {"rt": -1, "stimulus": "<p id=\"stim\">SILK</p>", "key_press": -1, "type": "PRES_VIS", "word": "silk", "wordID": 1306, "conditions": [12, 800, "v", 24000], "trial": 4, "serialpos": 2, "trial_type": "single-stim", "trial_index": 171, "time_elapsed": 1301675, "internal_node_id": "0.0-126.0"}}, {"uniqueid": "MTK0327:37FMASSAYDYG7M52B4LZMGGKCHUBIP", "current_trial": 172, "dateTime": 1510708339131, "trialdata": {"rt": -1, "stimulus": "<p id=\"stim\">SEAFOOD</p>", "key_press": -1, "type": "PRES_VIS", "word": "seafood", "wordID": 1259, "conditions": [12, 800, "v", 24000], "trial": 4, "serialpos": 3, "trial_type": "single-stim", "trial_index": 172, "time_elapsed": 1303375, "internal_node_id": "0.0-127.0"}}, {"uniqueid": "MTK0327:37FMASSAYDYG7M52B4LZMGGKCHUBIP", "current_trial": 173, "dateTime": 1510708345946, "trialdata": {"rt": -1, "stimulus": "<p id=\"stim\">STICKER</p>", "key_press": -1, "type": "PRES_VIS", "word": "sticker", "wordID": 1381, "conditions": [12, 800, "v", 24000], "trial": 4, "serialpos": 4, "trial_type": "single-stim", "trial_index": 173, "time_elapsed": 1310189, "internal_node_id": "0.0-128.0"}}, {"uniqueid": "MTK0327:37FMASSAYDYG7M52B4LZMGGKCHUBIP", "current_trial": 174, "dateTime": 1510708347714, "trialdata": {"rt": -1, "stimulus": "<p id=\"stim\">POSTAGE</p>", "key_press": -1, "type": "PRES_VIS", "word": "postage", "wordID": 1112, "conditions": [12, 800, "v", 24000], "trial": 4, "serialpos": 5, "trial_type": "single-stim", "trial_index": 174, "time_elapsed": 1311956, "internal_node_id": "0.0-129.0"}}, {"uniqueid": "MTK0327:37FMASSAYDYG7M52B4LZMGGKCHUBIP", "current_trial": 175, "dateTime": 1510708349403, "trialdata": {"rt": -1, "stimulus": "<p id=\"stim\">PIZZA</p>", "key_press": -1, "type": "PRES_VIS", "word": "pizza", "wordID": 1078, "conditions": [12, 800, "v", 24000], "trial": 4, "serialpos": 6, "trial_type": "single-stim", "trial_index": 175, "time_elapsed": 1313646, "internal_node_id": "0.0-130.0"}}, {"uniqueid": "MTK0327:37FMASSAYDYG7M52B4LZMGGKCHUBIP", "current_trial": 176, "dateTime": 1510708351360, "trialdata": {"rt": -1, "stimulus": "<p id=\"stim\">PASTA</p>", "key_press": -1, "type": "PRES_VIS", "word": "pasta", "wordID": 1020, "conditions": [12, 800, "v", 24000], "trial": 4, "serialpos": 7, "trial_type": "single-stim", "trial_index": 176, "time_elapsed": 1315603, "internal_node_id": "0.0-131.0"}}, {"uniqueid": "MTK0327:37FMASSAYDYG7M52B4LZMGGKCHUBIP", "current_trial": 177, "dateTime": 1510708353254, "trialdata": {"rt": -1, "stimulus": "<p id=\"stim\">APRON</p>", "key_press": -1, "type": "PRES_VIS", "word": "apron", "wordID": 34, "conditions": [12, 800, "v", 24000], "trial": 4, "serialpos": 8, "trial_type": "single-stim", "trial_index": 177, "time_elapsed": 1317497, "internal_node_id": "0.0-132.0"}}, {"uniqueid": "MTK0327:37FMASSAYDYG7M52B4LZMGGKCHUBIP", "current_trial": 178, "dateTime": 1510708355103, "trialdata": {"rt": -1, "stimulus": "<p id=\"stim\">COD</p>", "key_press": -1, "type": "PRES_VIS", "word": "cod", "wordID": 339, "conditions": [12, 800, "v", 24000], "trial": 4, "serialpos": 9, "trial_type": "single-stim", "trial_index": 178, "time_elapsed": 1319347, "internal_node_id": "0.0-133.0"}}, {"uniqueid": "MTK0327:37FMASSAYDYG7M52B4LZMGGKCHUBIP", "current_trial": 179, "dateTime": 1510708356979, "trialdata": {"rt": -1, "stimulus": "<p id=\"stim\">PLASTER</p>", "key_press": -1, "type": "PRES_VIS", "word": "plaster", "wordID": 1084, "conditions": [12, 800, "v", 24000], "trial": 4, "serialpos": 10, "trial_type": "single-stim", "trial_index": 179, "time_elapsed": 1321222, "internal_node_id": "0.0-134.0"}}, {"uniqueid": "MTK0327:37FMASSAYDYG7M52B4LZMGGKCHUBIP", "current_trial": 180, "dateTime": 1510708358800, "trialdata": {"rt": -1, "stimulus": "<p id=\"stim\">PASTRY</p>", "key_press": -1, "type": "PRES_VIS", "word": "pastry", "wordID": 1021, "conditions": [12, 800, "v", 24000], "trial": 4, "serialpos": 11, "trial_type": "single-stim", "trial_index": 180, "time_elapsed": 1323044, "internal_node_id": "0.0-135.0"}}, {"uniqueid": "MTK0327:37FMASSAYDYG7M52B4LZMGGKCHUBIP", "current_trial": 181, "dateTime": 1510708361139, "trialdata": {"rt": -1, "stimulus": "", "key_press": -1, "type": "PRE_RECALL_DELAY", "trial_type": "single-stim", "trial_index": 181, "time_elapsed": 1325383, "internal_node_id": "0.0-136.0-0.0"}}, {"uniqueid": "MTK0327:37FMASSAYDYG7M52B4LZMGGKCHUBIP", "current_trial": 182, "dateTime": 1510708361641, "trialdata": {"rt": -1000, "stimulus": "/static/audio/400Hz.wav", "key_press": -1, "type": "PRE_RECALL_ALERT", "trial_type": "single-audio", "trial_index": 182, "time_elapsed": 1325885, "internal_node_id": "0.0-137.0"}}, {"uniqueid": "MTK0327:37FMASSAYDYG7M52B4LZMGGKCHUBIP", "current_trial": 183, "dateTime": 1510708421678, "trialdata": {"rt": [3775, 5332, 6216, 7508, 9119, 10569, 11650, 12681, 13646, 28789, 30324], "recwords": ["breast", "costume", "silk", "sticker", "postage", "pizza", "pasta", "apron", "cod", "plaster", "pastry"], "type": "FREE_RECALL", "conditions": [12, 800, "v", 24000], "trial": 4, "trial_type": "free-recall", "trial_index": 183, "time_elapsed": 1385902, "internal_node_id": "0.0-138.0-0.0"}}, {"uniqueid": "MTK0327:37FMASSAYDYG7M52B4LZMGGKCHUBIP", "current_trial": 184, "dateTime": 1510708424948, "trialdata": {"rt": 1267, "key_press": 39, "type": "INSTRUCTIONS", "trial_type": "text", "trial_index": 184, "time_elapsed": 1389191, "internal_node_id": "0.0-139.0"}}, {"uniqueid": "MTK0327:37FMASSAYDYG7M52B4LZMGGKCHUBIP", "current_trial": 185, "dateTime": 1510708438985, "trialdata": {"rt": [4014, 5896, 7737, 8971, 10696], "responses": ["20", "13", "14", "24", "16"], "num1": [7, 7, 4, 8, 1, 2], "num2": [5, 1, 1, 8, 9, 4], "num3": [8, 5, 9, 8, 6, 9], "type": "DISTRACTOR", "conditions": [12, 1600, "a", 12000], "trial": 5, "trial_type": "math-distractor", "trial_index": 185, "time_elapsed": 1403228, "internal_node_id": "0.0-140.0"}}, {"uniqueid": "MTK0327:37FMASSAYDYG7M52B4LZMGGKCHUBIP", "current_trial": 186, "dateTime": 1510708442023, "trialdata": {"rt": -1, "stimulus": "<p id=\"stim\">10</p>", "key_press": -1, "trial_type": "single-stim", "trial_index": 186, "time_elapsed": 1406266, "internal_node_id": "0.0-141.0-0.0"}}, {"uniqueid": "MTK0327:37FMASSAYDYG7M52B4LZMGGKCHUBIP", "current_trial": 187, "dateTime": 1510708443038, "trialdata": {"rt": -1, "stimulus": "<p id=\"stim\">9</p>", "key_press": -1, "trial_type": "single-stim", "trial_index": 187, "time_elapsed": 1407282, "internal_node_id": "0.0-141.0-1.0"}}, {"uniqueid": "MTK0327:37FMASSAYDYG7M52B4LZMGGKCHUBIP", "current_trial": 188, "dateTime": 1510708444051, "trialdata": {"rt": -1, "stimulus": "<p id=\"stim\">8</p>", "key_press": -1, "trial_type": "single-stim", "trial_index": 188, "time_elapsed": 1408294, "internal_node_id": "0.0-141.0-2.0"}}, {"uniqueid": "MTK0327:37FMASSAYDYG7M52B4LZMGGKCHUBIP", "current_trial": 189, "dateTime": 1510708445066, "trialdata": {"rt": -1, "stimulus": "<p id=\"stim\">7</p>", "key_press": -1, "trial_type": "single-stim", "trial_index": 189, "time_elapsed": 1409310, "internal_node_id": "0.0-141.0-3.0"}}, {"uniqueid": "MTK0327:37FMASSAYDYG7M52B4LZMGGKCHUBIP", "current_trial": 190, "dateTime": 1510708446120, "trialdata": {"rt": -1, "stimulus": "<p id=\"stim\">6</p>", "key_press": -1, "trial_type": "single-stim", "trial_index": 190, "time_elapsed": 1410364, "internal_node_id": "0.0-141.0-4.0"}}, {"uniqueid": "MTK0327:37FMASSAYDYG7M52B4LZMGGKCHUBIP", "current_trial": 191, "dateTime": 1510708447140, "trialdata": {"rt": -1, "stimulus": "<p id=\"stim\">5</p>", "key_press": -1, "trial_type": "single-stim", "trial_index": 191, "time_elapsed": 1411384, "internal_node_id": "0.0-141.0-5.0"}}, {"uniqueid": "MTK0327:37FMASSAYDYG7M52B4LZMGGKCHUBIP", "current_trial": 192, "dateTime": 1510708448152, "trialdata": {"rt": -1, "stimulus": "<p id=\"stim\">4</p>", "key_press": -1, "trial_type": "single-stim", "trial_index": 192, "time_elapsed": 1412396, "internal_node_id": "0.0-141.0-6.0"}}, {"uniqueid": "MTK0327:37FMASSAYDYG7M52B4LZMGGKCHUBIP", "current_trial": 193, "dateTime": 1510708449186, "trialdata": {"rt": -1, "stimulus": "<p id=\"stim\">3</p>", "key_press": -1, "trial_type": "single-stim", "trial_index": 193, "time_elapsed": 1413429, "internal_node_id": "0.0-141.0-7.0"}}, {"uniqueid": "MTK0327:37FMASSAYDYG7M52B4LZMGGKCHUBIP", "current_trial": 194, "dateTime": 1510708450206, "trialdata": {"rt": -1, "stimulus": "<p id=\"stim\">2</p>", "key_press": -1, "trial_type": "single-stim", "trial_index": 194, "time_elapsed": 1414450, "internal_node_id": "0.0-141.0-8.0"}}, {"uniqueid": "MTK0327:37FMASSAYDYG7M52B4LZMGGKCHUBIP", "current_trial": 195, "dateTime": 1510708451226, "trialdata": {"rt": -1, "stimulus": "<p id=\"stim\">1</p>", "key_press": -1, "trial_type": "single-stim", "trial_index": 195, "time_elapsed": 1415470, "internal_node_id": "0.0-141.0-9.0"}}, {"uniqueid": "MTK0327:37FMASSAYDYG7M52B4LZMGGKCHUBIP", "current_trial": 196, "dateTime": 1510708452729, "trialdata": {"rt": -1, "stimulus": "<p id=\"stim\">+</p>", "key_press": -1, "type": "FIXATION", "trial_type": "single-stim", "trial_index": 196, "time_elapsed": 1416973, "internal_node_id": "0.0-142.0-0.0"}}, {"uniqueid": "MTK0327:37FMASSAYDYG7M52B4LZMGGKCHUBIP", "current_trial": 197, "dateTime": 1510708455166, "trialdata": {"rt": -1000, "stimulus": "/static/audio/wordpool/DRAWING.wav", "key_press": -1, "type": "PRES_AUD", "word": "drawing", "wordID": 493, "conditions": [12, 1600, "a", 12000], "trial": 5, "serialpos": 0, "trial_type": "single-audio", "trial_index": 197, "time_elapsed": 1419409, "internal_node_id": "0.0-143.0"}}, {"uniqueid": "MTK0327:37FMASSAYDYG7M52B4LZMGGKCHUBIP", "current_trial": 198, "dateTime": 1510708457637, "trialdata": {"rt": -1000, "stimulus": "/static/audio/wordpool/DRIVER.wav", "key_press": -1, "type": "PRES_AUD", "word": "driver", "wordID": 498, "conditions": [12, 1600, "a", 12000], "trial": 5, "serialpos": 1, "trial_type": "single-audio", "trial_index": 198, "time_elapsed": 1421880, "internal_node_id": "0.0-144.0"}}, {"uniqueid": "MTK0327:37FMASSAYDYG7M52B4LZMGGKCHUBIP", "current_trial": 199, "dateTime": 1510708463720, "trialdata": {"rt": -1000, "stimulus": "/static/audio/wordpool/SLUG.wav", "key_press": -1, "type": "PRES_AUD", "word": "slug", "wordID": 1328, "conditions": [12, 1600, "a", 12000], "trial": 5, "serialpos": 2, "trial_type": "single-audio", "trial_index": 199, "time_elapsed": 1427963, "internal_node_id": "0.0-145.0"}}, {"uniqueid": "MTK0327:37FMASSAYDYG7M52B4LZMGGKCHUBIP", "current_trial": 200, "dateTime": 1510708466326, "trialdata": {"rt": -1000, "stimulus": "/static/audio/wordpool/ONION.wav", "key_press": -1, "type": "PRES_AUD", "word": "onion", "wordID": 976, "conditions": [12, 1600, "a", 12000], "trial": 5, "serialpos": 3, "trial_type": "single-audio", "trial_index": 200, "time_elapsed": 1430570, "internal_node_id": "0.0-146.0"}}, {"uniqueid": "MTK0327:37FMASSAYDYG7M52B4LZMGGKCHUBIP", "current_trial": 201, "dateTime": 1510708468910, "trialdata": {"rt": -1000, "stimulus": "/static/audio/wordpool/MAMMAL.wav", "key_press": -1, "type": "PRES_AUD", "word": "mammal", "wordID": 860, "conditions": [12, 1600, "a", 12000], "trial": 5, "serialpos": 4, "trial_type": "single-audio", "trial_index": 201, "time_elapsed": 1433153, "internal_node_id": "0.0-147.0"}}, {"uniqueid": "MTK0327:37FMASSAYDYG7M52B4LZMGGKCHUBIP", "current_trial": 202, "dateTime": 1510708471435, "trialdata": {"rt": -1000, "stimulus": "/static/audio/wordpool/PENGUIN.wav", "key_press": -1, "type": "PRES_AUD", "word": "penguin", "wordID": 1043, "conditions": [12, 1600, "a", 12000], "trial": 5, "serialpos": 5, "trial_type": "single-audio", "trial_index": 202, "time_elapsed": 1435679, "internal_node_id": "0.0-148.0"}}, {"uniqueid": "MTK0327:37FMASSAYDYG7M52B4LZMGGKCHUBIP", "current_trial": 203, "dateTime": 1510708474174, "trialdata": {"rt": -1000, "stimulus": "/static/audio/wordpool/ACTOR.wav", "key_press": -1, "type": "PRES_AUD", "word": "actor", "wordID": 4, "conditions": [12, 1600, "a", 12000], "trial": 5, "serialpos": 6, "trial_type": "single-audio", "trial_index": 203, "time_elapsed": 1438418, "internal_node_id": "0.0-149.0"}}, {"uniqueid": "MTK0327:37FMASSAYDYG7M52B4LZMGGKCHUBIP", "current_trial": 204, "dateTime": 1510708476772, "trialdata": {"rt": -1000, "stimulus": "/static/audio/wordpool/SMOG.wav", "key_press": -1, "type": "PRES_AUD", "word": "smog", "wordID": 1329, "conditions": [12, 1600, "a", 12000], "trial": 5, "serialpos": 7, "trial_type": "single-audio", "trial_index": 204, "time_elapsed": 1441013, "internal_node_id": "0.0-150.0"}}, {"uniqueid": "MTK0327:37FMASSAYDYG7M52B4LZMGGKCHUBIP", "current_trial": 205, "dateTime": 1510708479461, "trialdata": {"rt": -1000, "stimulus": "/static/audio/wordpool/CAPTIVE.wav", "key_press": -1, "type": "PRES_AUD", "word": "captive", "wordID": 239, "conditions": [12, 1600, "a", 12000], "trial": 5, "serialpos": 8, "trial_type": "single-audio", "trial_index": 205, "time_elapsed": 1443704, "internal_node_id": "0.0-151.0"}}, {"uniqueid": "MTK0327:37FMASSAYDYG7M52B4LZMGGKCHUBIP", "current_trial": 206, "dateTime": 1510708482065, "trialdata": {"rt": -1000, "stimulus": "/static/audio/wordpool/PIANO.wav", "key_press": -1, "type": "PRES_AUD", "word": "piano", "wordID": 1056, "conditions": [12, 1600, "a", 12000], "trial": 5, "serialpos": 9, "trial_type": "single-audio", "trial_index": 206, "time_elapsed": 1446308, "internal_node_id": "0.0-152.0"}}, {"uniqueid": "MTK0327:37FMASSAYDYG7M52B4LZMGGKCHUBIP", "current_trial": 207, "dateTime": 1510708484608, "trialdata": {"rt": -1000, "stimulus": "/static/audio/wordpool/TYPIST.wav", "key_press": -1, "type": "PRES_AUD", "word": "typist", "wordID": 1531, "conditions": [12, 1600, "a", 12000], "trial": 5, "serialpos": 10, "trial_type": "single-audio", "trial_index": 207, "time_elapsed": 1448850, "internal_node_id": "0.0-153.0"}}, {"uniqueid": "MTK0327:37FMASSAYDYG7M52B4LZMGGKCHUBIP", "current_trial": 208, "dateTime": 1510708487302, "trialdata": {"rt": -1000, "stimulus": "/static/audio/wordpool/ACTRESS.wav", "key_press": -1, "type": "PRES_AUD", "word": "actress", "wordID": 5, "conditions": [12, 1600, "a", 12000], "trial": 5, "serialpos": 11, "trial_type": "single-audio", "trial_index": 208, "time_elapsed": 1451545, "internal_node_id": "0.0-154.0"}}, {"uniqueid": "MTK0327:37FMASSAYDYG7M52B4LZMGGKCHUBIP", "current_trial": 209, "dateTime": 1510708488706, "trialdata": {"rt": -1, "stimulus": "", "key_press": -1, "type": "PRE_RECALL_DELAY", "trial_type": "single-stim", "trial_index": 209, "time_elapsed": 1452943, "internal_node_id": "0.0-155.0-0.0"}}, {"uniqueid": "MTK0327:37FMASSAYDYG7M52B4LZMGGKCHUBIP", "current_trial": 210, "dateTime": 1510708489211, "trialdata": {"rt": -1000, "stimulus": "/static/audio/400Hz.wav", "key_press": -1, "type": "PRE_RECALL_ALERT", "trial_type": "single-audio", "trial_index": 210, "time_elapsed": 1453454, "internal_node_id": "0.0-156.0"}}, {"uniqueid": "MTK0327:37FMASSAYDYG7M52B4LZMGGKCHUBIP", "current_trial": 211, "dateTime": 1510708549284, "trialdata": {"rt": [3417, 5040, 6878, 8133, 9099, 10618, 11779, 12638, 24524, 26023, 27803], "recwords": ["smog", "captive", "penguin", "mammal", "onion", "drawing", "driver", "plug", "piano", "typist", "actress"], "type": "FREE_RECALL", "conditions": [12, 1600, "a", 12000], "trial": 5, "trial_type": "free-recall", "trial_index": 211, "time_elapsed": 1513510, "internal_node_id": "0.0-157.0-0.0"}}, {"uniqueid": "MTK0327:37FMASSAYDYG7M52B4LZMGGKCHUBIP", "current_trial": 212, "dateTime": 1510708554002, "trialdata": {"rt": 2714, "key_press": 18, "type": "INSTRUCTIONS", "trial_type": "text", "trial_index": 212, "time_elapsed": 1518245, "internal_node_id": "0.0-158.0"}}, {"uniqueid": "MTK0327:37FMASSAYDYG7M52B4LZMGGKCHUBIP", "current_trial": 213, "dateTime": 1510708580027, "trialdata": {"rt": [2417, 4070, 7305, 9532, 11449, 12779, 14495, 17292, 20198, 21773, 23379], "responses": ["15", "12", "15", "15", "16", "5", "15", "17", "23", "14", "17"], "num1": [3, 8, 6, 5, 1, 1, 3, 6, 8, 7, 4, 3], "num2": [8, 1, 1, 8, 6, 1, 3, 9, 6, 1, 6, 3], "num3": [4, 3, 8, 2, 9, 3, 9, 2, 9, 6, 7, 3], "type": "DISTRACTOR", "conditions": [24, 800, "v", 24000], "trial": 6, "trial_type": "math-distractor", "trial_index": 213, "time_elapsed": 1544270, "internal_node_id": "0.0-159.0"}}, {"uniqueid": "MTK0327:37FMASSAYDYG7M52B4LZMGGKCHUBIP", "current_trial": 214, "dateTime": 1510708583032, "trialdata": {"rt": -1, "stimulus": "<p id=\"stim\">10</p>", "key_press": -1, "trial_type": "single-stim", "trial_index": 214, "time_elapsed": 1547275, "internal_node_id": "0.0-160.0-0.0"}}, {"uniqueid": "MTK0327:37FMASSAYDYG7M52B4LZMGGKCHUBIP", "current_trial": 215, "dateTime": 1510708584036, "trialdata": {"rt": -1, "stimulus": "<p id=\"stim\">9</p>", "key_press": -1, "trial_type": "single-stim", "trial_index": 215, "time_elapsed": 1548279, "internal_node_id": "0.0-160.0-1.0"}}, {"uniqueid": "MTK0327:37FMASSAYDYG7M52B4LZMGGKCHUBIP", "current_trial": 216, "dateTime": 1510708585040, "trialdata": {"rt": -1, "stimulus": "<p id=\"stim\">8</p>", "key_press": -1, "trial_type": "single-stim", "trial_index": 216, "time_elapsed": 1549283, "internal_node_id": "0.0-160.0-2.0"}}, {"uniqueid": "MTK0327:37FMASSAYDYG7M52B4LZMGGKCHUBIP", "current_trial": 217, "dateTime": 1510708586043, "trialdata": {"rt": -1, "stimulus": "<p id=\"stim\">7</p>", "key_press": -1, "trial_type": "single-stim", "trial_index": 217, "time_elapsed": 1550286, "internal_node_id": "0.0-160.0-3.0"}}, {"uniqueid": "MTK0327:37FMASSAYDYG7M52B4LZMGGKCHUBIP", "current_trial": 218, "dateTime": 1510708587045, "trialdata": {"rt": -1, "stimulus": "<p id=\"stim\">6</p>", "key_press": -1, "trial_type": "single-stim", "trial_index": 218, "time_elapsed": 1551289, "internal_node_id": "0.0-160.0-4.0"}}, {"uniqueid": "MTK0327:37FMASSAYDYG7M52B4LZMGGKCHUBIP", "current_trial": 219, "dateTime": 1510708588048, "trialdata": {"rt": -1, "stimulus": "<p id=\"stim\">5</p>", "key_press": -1, "trial_type": "single-stim", "trial_index": 219, "time_elapsed": 1552291, "internal_node_id": "0.0-160.0-5.0"}}, {"uniqueid": "MTK0327:37FMASSAYDYG7M52B4LZMGGKCHUBIP", "current_trial": 220, "dateTime": 1510708589050, "trialdata": {"rt": -1, "stimulus": "<p id=\"stim\">4</p>", "key_press": -1, "trial_type": "single-stim", "trial_index": 220, "time_elapsed": 1553294, "internal_node_id": "0.0-160.0-6.0"}}, {"uniqueid": "MTK0327:37FMASSAYDYG7M52B4LZMGGKCHUBIP", "current_trial": 221, "dateTime": 1510708593542, "trialdata": {"rt": -1, "stimulus": "<p id=\"stim\">3</p>", "key_press": -1, "trial_type": "single-stim", "trial_index": 221, "time_elapsed": 1557785, "internal_node_id": "0.0-160.0-7.0"}}, {"uniqueid": "MTK0327:37FMASSAYDYG7M52B4LZMGGKCHUBIP", "current_trial": 222, "dateTime": 1510708594545, "trialdata": {"rt": -1, "stimulus": "<p id=\"stim\">2</p>", "key_press": -1, "trial_type": "single-stim", "trial_index": 222, "time_elapsed": 1558787, "internal_node_id": "0.0-160.0-8.0"}}, {"uniqueid": "MTK0327:37FMASSAYDYG7M52B4LZMGGKCHUBIP", "current_trial": 223, "dateTime": 1510708595548, "trialdata": {"rt": -1, "stimulus": "<p id=\"stim\">1</p>", "key_press": -1, "trial_type": "single-stim", "trial_index": 223, "time_elapsed": 1559791, "internal_node_id": "0.0-160.0-9.0"}}, {"uniqueid": "MTK0327:37FMASSAYDYG7M52B4LZMGGKCHUBIP", "current_trial": 224, "dateTime": 1510708597051, "trialdata": {"rt": -1, "stimulus": "<p id=\"stim\">+</p>", "key_press": -1, "type": "FIXATION", "trial_type": "single-stim", "trial_index": 224, "time_elapsed": 1561295, "internal_node_id": "0.0-161.0-0.0"}}, {"uniqueid": "MTK0327:37FMASSAYDYG7M52B4LZMGGKCHUBIP", "current_trial": 225, "dateTime": 1510708597853, "trialdata": {"rt": -1, "stimulus": "<p id=\"stim\">BURGLAR</p>", "key_press": -1, "type": "PRES_VIS", "word": "burglar", "wordID": 199, "conditions": [24, 800, "v", 24000], "trial": 6, "serialpos": 0, "trial_type": "single-stim", "trial_index": 225, "time_elapsed": 1562097, "internal_node_id": "0.0-162.0"}}, {"uniqueid": "MTK0327:37FMASSAYDYG7M52B4LZMGGKCHUBIP", "current_trial": 226, "dateTime": 1510708599761, "trialdata": {"rt": -1, "stimulus": "<p id=\"stim\">MAILBOX</p>", "key_press": -1, "type": "PRES_VIS", "word": "mailbox", "wordID": 856, "conditions": [24, 800, "v", 24000], "trial": 6, "serialpos": 1, "trial_type": "single-stim", "trial_index": 226, "time_elapsed": 1564005, "internal_node_id": "0.0-163.0"}}, {"uniqueid": "MTK0327:37FMASSAYDYG7M52B4LZMGGKCHUBIP", "current_trial": 227, "dateTime": 1510708601630, "trialdata": {"rt": -1, "stimulus": "<p id=\"stim\">GROUND</p>", "key_press": -1, "type": "PRES_VIS", "word": "ground", "wordID": 665, "conditions": [24, 800, "v", 24000], "trial": 6, "serialpos": 2, "trial_type": "single-stim", "trial_index": 227, "time_elapsed": 1565874, "internal_node_id": "0.0-164.0"}}, {"uniqueid": "MTK0327:37FMASSAYDYG7M52B4LZMGGKCHUBIP", "current_trial": 228, "dateTime": 1510708603511, "trialdata": {"rt": -1, "stimulus": "<p id=\"stim\">VIRUS</p>", "key_press": -1, "type": "PRES_VIS", "word": "virus", "wordID": 1571, "conditions": [24, 800, "v", 24000], "trial": 6, "serialpos": 3, "trial_type": "single-stim", "trial_index": 228, "time_elapsed": 1567754, "internal_node_id": "0.0-165.0"}}, {"uniqueid": "MTK0327:37FMASSAYDYG7M52B4LZMGGKCHUBIP", "current_trial": 229, "dateTime": 1510708605149, "trialdata": {"rt": -1, "stimulus": "<p id=\"stim\">PISTOL</p>", "key_press": -1, "type": "PRES_VIS", "word": "pistol", "wordID": 1074, "conditions": [24, 800, "v", 24000], "trial": 6, "serialpos": 4, "trial_type": "single-stim", "trial_index": 229, "time_elapsed": 1569393, "internal_node_id": "0.0-166.0"}}, {"uniqueid": "MTK0327:37FMASSAYDYG7M52B4LZMGGKCHUBIP", "current_trial": 230, "dateTime": 1510708606873, "trialdata": {"rt": -1, "stimulus": "<p id=\"stim\">KNIFE</p>", "key_press": -1, "type": "PRES_VIS", "word": "knife", "wordID": 784, "conditions": [24, 800, "v", 24000], "trial": 6, "serialpos": 5, "trial_type": "single-stim", "trial_index": 230, "time_elapsed": 1571117, "internal_node_id": "0.0-167.0"}}, {"uniqueid": "MTK0327:37FMASSAYDYG7M52B4LZMGGKCHUBIP", "current_trial": 231, "dateTime": 1510708608784, "trialdata": {"rt": -1, "stimulus": "<p id=\"stim\">COCOON</p>", "key_press": -1, "type": "PRES_VIS", "word": "cocoon", "wordID": 338, "conditions": [24, 800, "v", 24000], "trial": 6, "serialpos": 6, "trial_type": "single-stim", "trial_index": 231, "time_elapsed": 1573028, "internal_node_id": "0.0-168.0"}}, {"uniqueid": "MTK0327:37FMASSAYDYG7M52B4LZMGGKCHUBIP", "current_trial": 232, "dateTime": 1510708610535, "trialdata": {"rt": -1, "stimulus": "<p id=\"stim\">MAILMAN</p>", "key_press": -1, "type": "PRES_VIS", "word": "mailman", "wordID": 857, "conditions": [24, 800, "v", 24000], "trial": 6, "serialpos": 7, "trial_type": "single-stim", "trial_index": 232, "time_elapsed": 1574778, "internal_node_id": "0.0-169.0"}}, {"uniqueid": "MTK0327:37FMASSAYDYG7M52B4LZMGGKCHUBIP", "current_trial": 233, "dateTime": 1510708612349, "trialdata": {"rt": -1, "stimulus": "<p id=\"stim\">JUGGLER</p>", "key_press": -1, "type": "PRES_VIS", "word": "juggler", "wordID": 762, "conditions": [24, 800, "v", 24000], "trial": 6, "serialpos": 8, "trial_type": "single-stim", "trial_index": 233, "time_elapsed": 1576592, "internal_node_id": "0.0-170.0"}}, {"uniqueid": "MTK0327:37FMASSAYDYG7M52B4LZMGGKCHUBIP", "current_trial": 234, "dateTime": 1510708614211, "trialdata": {"rt": -1, "stimulus": "<p id=\"stim\">SPOON</p>", "key_press": -1, "type": "PRES_VIS", "word": "spoon", "wordID": 1356, "conditions": [24, 800, "v", 24000], "trial": 6, "serialpos": 9, "trial_type": "single-stim", "trial_index": 234, "time_elapsed": 1578455, "internal_node_id": "0.0-171.0"}}, {"uniqueid": "MTK0327:37FMASSAYDYG7M52B4LZMGGKCHUBIP", "current_trial": 235, "dateTime": 1510708616126, "trialdata": {"rt": -1, "stimulus": "<p id=\"stim\">CLAMP</p>", "key_press": -1, "type": "PRES_VIS", "word": "clamp", "wordID": 315, "conditions": [24, 800, "v", 24000], "trial": 6, "serialpos": 10, "trial_type": "single-stim", "trial_index": 235, "time_elapsed": 1580370, "internal_node_id": "0.0-172.0"}}, {"uniqueid": "MTK0327:37FMASSAYDYG7M52B4LZMGGKCHUBIP", "current_trial": 236, "dateTime": 1510708617910, "trialdata": {"rt": -1, "stimulus": "<p id=\"stim\">WORKER</p>", "key_press": -1, "type": "PRES_VIS", "word": "worker", "wordID": 1620, "conditions": [24, 800, "v", 24000], "trial": 6, "serialpos": 11, "trial_type": "single-stim", "trial_index": 236, "time_elapsed": 1582154, "internal_node_id": "0.0-173.0"}}, {"uniqueid": "MTK0327:37FMASSAYDYG7M52B4LZMGGKCHUBIP", "current_trial": 237, "dateTime": 1510708619805, "trialdata": {"rt": -1, "stimulus": "<p id=\"stim\">PEPPER</p>", "key_press": -1, "type": "PRES_VIS", "word": "pepper", "wordID": 1046, "conditions": [24, 800, "v", 24000], "trial": 6, "serialpos": 12, "trial_type": "single-stim", "trial_index": 237, "time_elapsed": 1584048, "internal_node_id": "0.0-174.0"}}, {"uniqueid": "MTK0327:37FMASSAYDYG7M52B4LZMGGKCHUBIP", "current_trial": 238, "dateTime": 1510708621782, "trialdata": {"rt": -1, "stimulus": "<p id=\"stim\">DRESSER</p>", "key_press": -1, "type": "PRES_VIS", "word": "dresser", "wordID": 495, "conditions": [24, 800, "v", 24000], "trial": 6, "serialpos": 13, "trial_type": "single-stim", "trial_index": 238, "time_elapsed": 1586025, "internal_node_id": "0.0-175.0"}}, {"uniqueid": "MTK0327:37FMASSAYDYG7M52B4LZMGGKCHUBIP", "current_trial": 239, "dateTime": 1510708623614, "trialdata": {"rt": -1, "stimulus": "<p id=\"stim\">CLAM</p>", "key_press": -1, "type": "PRES_VIS", "word": "clam", "wordID": 314, "conditions": [24, 800, "v", 24000], "trial": 6, "serialpos": 14, "trial_type": "single-stim", "trial_index": 239, "time_elapsed": 1587857, "internal_node_id": "0.0-176.0"}}, {"uniqueid": "MTK0327:37FMASSAYDYG7M52B4LZMGGKCHUBIP", "current_trial": 240, "dateTime": 1510708625246, "trialdata": {"rt": -1, "stimulus": "<p id=\"stim\">STUDENT</p>", "key_press": -1, "type": "PRES_VIS", "word": "student", "wordID": 1394, "conditions": [24, 800, "v", 24000], "trial": 6, "serialpos": 15, "trial_type": "single-stim", "trial_index": 240, "time_elapsed": 1589490, "internal_node_id": "0.0-177.0"}}, {"uniqueid": "MTK0327:37FMASSAYDYG7M52B4LZMGGKCHUBIP", "current_trial": 241, "dateTime": 1510708626909, "trialdata": {"rt": -1, "stimulus": "<p id=\"stim\">COLLEGE</p>", "key_press": -1, "type": "PRES_VIS", "word": "college", "wordID": 345, "conditions": [24, 800, "v", 24000], "trial": 6, "serialpos": 16, "trial_type": "single-stim", "trial_index": 241, "time_elapsed": 1591152, "internal_node_id": "0.0-178.0"}}, {"uniqueid": "MTK0327:37FMASSAYDYG7M52B4LZMGGKCHUBIP", "current_trial": 242, "dateTime": 1510708628527, "trialdata": {"rt": -1, "stimulus": "<p id=\"stim\">BUREAU</p>", "key_press": -1, "type": "PRES_VIS", "word": "bureau", "wordID": 198, "conditions": [24, 800, "v", 24000], "trial": 6, "serialpos": 17, "trial_type": "single-stim", "trial_index": 242, "time_elapsed": 1592771, "internal_node_id": "0.0-179.0"}}, {"uniqueid": "MTK0327:37FMASSAYDYG7M52B4LZMGGKCHUBIP", "current_trial": 243, "dateTime": 1510708630139, "trialdata": {"rt": -1, "stimulus": "<p id=\"stim\">SHERIFF</p>", "key_press": -1, "type": "PRES_VIS", "word": "sheriff", "wordID": 1283, "conditions": [24, 800, "v", 24000], "trial": 6, "serialpos": 18, "trial_type": "single-stim", "trial_index": 243, "time_elapsed": 1594382, "internal_node_id": "0.0-180.0"}}, {"uniqueid": "MTK0327:37FMASSAYDYG7M52B4LZMGGKCHUBIP", "current_trial": 244, "dateTime": 1510708631882, "trialdata": {"rt": -1, "stimulus": "<p id=\"stim\">BUBBLE</p>", "key_press": -1, "type": "PRES_VIS", "word": "bubble", "wordID": 182, "conditions": [24, 800, "v", 24000], "trial": 6, "serialpos": 19, "trial_type": "single-stim", "trial_index": 244, "time_elapsed": 1596125, "internal_node_id": "0.0-181.0"}}, {"uniqueid": "MTK0327:37FMASSAYDYG7M52B4LZMGGKCHUBIP", "current_trial": 245, "dateTime": 1510708633661, "trialdata": {"rt": -1, "stimulus": "<p id=\"stim\">WASHER</p>", "key_press": -1, "type": "PRES_VIS", "word": "washer", "wordID": 1591, "conditions": [24, 800, "v", 24000], "trial": 6, "serialpos": 20, "trial_type": "single-stim", "trial_index": 245, "time_elapsed": 1597905, "internal_node_id": "0.0-182.0"}}, {"uniqueid": "MTK0327:37FMASSAYDYG7M52B4LZMGGKCHUBIP", "current_trial": 246, "dateTime": 1510708635411, "trialdata": {"rt": -1, "stimulus": "<p id=\"stim\">CUPBOARD</p>", "key_press": -1, "type": "PRES_VIS", "word": "cupboard", "wordID": 424, "conditions": [24, 800, "v", 24000], "trial": 6, "serialpos": 21, "trial_type": "single-stim", "trial_index": 246, "time_elapsed": 1599654, "internal_node_id": "0.0-183.0"}}, {"uniqueid": "MTK0327:37FMASSAYDYG7M52B4LZMGGKCHUBIP", "current_trial": 247, "dateTime": 1510708637349, "trialdata": {"rt": -1, "stimulus": "<p id=\"stim\">CITRUS</p>", "key_press": -1, "type": "PRES_VIS", "word": "citrus", "wordID": 312, "conditions": [24, 800, "v", 24000], "trial": 6, "serialpos": 22, "trial_type": "single-stim", "trial_index": 247, "time_elapsed": 1601593, "internal_node_id": "0.0-184.0"}}, {"uniqueid": "MTK0327:37FMASSAYDYG7M52B4LZMGGKCHUBIP", "current_trial": 248, "dateTime": 1510708639072, "trialdata": {"rt": -1, "stimulus": "<p id=\"stim\">FRAGRANCE</p>", "key_press": -1, "type": "PRES_VIS", "word": "fragrance", "wordID": 598, "conditions": [24, 800, "v", 24000], "trial": 6, "serialpos": 23, "trial_type": "single-stim", "trial_index": 248, "time_elapsed": 1603316, "internal_node_id": "0.0-185.0"}}, {"uniqueid": "MTK0327:37FMASSAYDYG7M52B4LZMGGKCHUBIP", "current_trial": 249, "dateTime": 1510708641363, "trialdata": {"rt": -1, "stimulus": "", "key_press": -1, "type": "PRE_RECALL_DELAY", "trial_type": "single-stim", "trial_index": 249, "time_elapsed": 1605607, "internal_node_id": "0.0-186.0-0.0"}}, {"uniqueid": "MTK0327:37FMASSAYDYG7M52B4LZMGGKCHUBIP", "current_trial": 250, "dateTime": 1510708641865, "trialdata": {"rt": -1000, "stimulus": "/static/audio/400Hz.wav", "key_press": -1, "type": "PRE_RECALL_ALERT", "trial_type": "single-audio", "trial_index": 250, "time_elapsed": 1606109, "internal_node_id": "0.0-187.0"}}, {"uniqueid": "MTK0327:37FMASSAYDYG7M52B4LZMGGKCHUBIP", "current_trial": 251, "dateTime": 1510708701908, "trialdata": {"rt": [3054, 4507, 5644, 6498, 7912, 8807, 10512, 12398, 14198, 15418, 17107, 19782, 20714, 25187, 26750, 31955, 33142, 35004, 36370], "recwords": ["burglar", "mailbox", "ground", "virus", "pistol", "knife", "coccoon", "mailman", "student", "college", "bureau", "pepper", "worker", "sherrif", "bubble", "washer", "citrus", "fragrance", "cupboard"], "type": "FREE_RECALL", "conditions": [24, 800, "v", 24000], "trial": 6, "trial_type": "free-recall", "trial_index": 251, "time_elapsed": 1666131, "internal_node_id": "0.0-188.0-0.0"}}, {"uniqueid": "MTK0327:37FMASSAYDYG7M52B4LZMGGKCHUBIP", "current_trial": 252, "dateTime": 1510708782162, "trialdata": {"rt": 78248, "key_press": 39, "type": "INSTRUCTIONS", "trial_type": "text", "trial_index": 252, "time_elapsed": 1746404, "internal_node_id": "0.0-189.0"}}, {"uniqueid": "MTK0327:37FMASSAYDYG7M52B4LZMGGKCHUBIP", "current_trial": 253, "dateTime": 1510708808186, "trialdata": {"rt": [1863, 3216, 5935, 7654, 9738, 11424, 13258, 14804, 16145, 17969, 19933, 23156], "responses": ["10", "15", "22", "13", "15", "6", "18", "15", "12", "15", "10", "21"], "num1": [4, 6, 7, 2, 3, 1, 5, 8, 4, 1, 1, 9, 2], "num2": [4, 6, 9, 3, 5, 2, 6, 4, 4, 7, 3, 4, 3], "num3": [2, 3, 6, 8, 7, 3, 7, 3, 4, 7, 6, 8, 8], "type": "DISTRACTOR", "conditions": [24, 1600, "a", 24000], "trial": 7, "trial_type": "math-distractor", "trial_index": 253, "time_elapsed": 1772428, "internal_node_id": "0.0-190.0"}}, {"uniqueid": "MTK0327:37FMASSAYDYG7M52B4LZMGGKCHUBIP", "current_trial": 254, "dateTime": 1510708811191, "trialdata": {"rt": -1, "stimulus": "<p id=\"stim\">10</p>", "key_press": -1, "trial_type": "single-stim", "trial_index": 254, "time_elapsed": 1775434, "internal_node_id": "0.0-191.0-0.0"}}, {"uniqueid": "MTK0327:37FMASSAYDYG7M52B4LZMGGKCHUBIP", "current_trial": 255, "dateTime": 1510708812196, "trialdata": {"rt": -1, "stimulus": "<p id=\"stim\">9</p>", "key_press": -1, "trial_type": "single-stim", "trial_index": 255, "time_elapsed": 1776440, "internal_node_id": "0.0-191.0-1.0"}}, {"uniqueid": "MTK0327:37FMASSAYDYG7M52B4LZMGGKCHUBIP", "current_trial": 256, "dateTime": 1510708813200, "trialdata": {"rt": -1, "stimulus": "<p id=\"stim\">8</p>", "key_press": -1, "trial_type": "single-stim", "trial_index": 256, "time_elapsed": 1777443, "internal_node_id": "0.0-191.0-2.0"}}, {"uniqueid": "MTK0327:37FMASSAYDYG7M52B4LZMGGKCHUBIP", "current_trial": 257, "dateTime": 1510708814204, "trialdata": {"rt": -1, "stimulus": "<p id=\"stim\">7</p>", "key_press": -1, "trial_type": "single-stim", "trial_index": 257, "time_elapsed": 1778447, "internal_node_id": "0.0-191.0-3.0"}}, {"uniqueid": "MTK0327:37FMASSAYDYG7M52B4LZMGGKCHUBIP", "current_trial": 258, "dateTime": 1510708815207, "trialdata": {"rt": -1, "stimulus": "<p id=\"stim\">6</p>", "key_press": -1, "trial_type": "single-stim", "trial_index": 258, "time_elapsed": 1779450, "internal_node_id": "0.0-191.0-4.0"}}, {"uniqueid": "MTK0327:37FMASSAYDYG7M52B4LZMGGKCHUBIP", "current_trial": 259, "dateTime": 1510708816210, "trialdata": {"rt": -1, "stimulus": "<p id=\"stim\">5</p>", "key_press": -1, "trial_type": "single-stim", "trial_index": 259, "time_elapsed": 1780453, "internal_node_id": "0.0-191.0-5.0"}}, {"uniqueid": "MTK0327:37FMASSAYDYG7M52B4LZMGGKCHUBIP", "current_trial": 260, "dateTime": 1510708817212, "trialdata": {"rt": -1, "stimulus": "<p id=\"stim\">4</p>", "key_press": -1, "trial_type": "single-stim", "trial_index": 260, "time_elapsed": 1781456, "internal_node_id": "0.0-191.0-6.0"}}, {"uniqueid": "MTK0327:37FMASSAYDYG7M52B4LZMGGKCHUBIP", "current_trial": 261, "dateTime": 1510708818214, "trialdata": {"rt": -1, "stimulus": "<p id=\"stim\">3</p>", "key_press": -1, "trial_type": "single-stim", "trial_index": 261, "time_elapsed": 1782458, "internal_node_id": "0.0-191.0-7.0"}}, {"uniqueid": "MTK0327:37FMASSAYDYG7M52B4LZMGGKCHUBIP", "current_trial": 262, "dateTime": 1510708819218, "trialdata": {"rt": -1, "stimulus": "<p id=\"stim\">2</p>", "key_press": -1, "trial_type": "single-stim", "trial_index": 262, "time_elapsed": 1783461, "internal_node_id": "0.0-191.0-8.0"}}, {"uniqueid": "MTK0327:37FMASSAYDYG7M52B4LZMGGKCHUBIP", "current_trial": 263, "dateTime": 1510708820222, "trialdata": {"rt": -1, "stimulus": "<p id=\"stim\">1</p>", "key_press": -1, "trial_type": "single-stim", "trial_index": 263, "time_elapsed": 1784465, "internal_node_id": "0.0-191.0-9.0"}}, {"uniqueid": "MTK0327:37FMASSAYDYG7M52B4LZMGGKCHUBIP", "current_trial": 264, "dateTime": 1510708821724, "trialdata": {"rt": -1, "stimulus": "<p id=\"stim\">+</p>", "key_press": -1, "type": "FIXATION", "trial_type": "single-stim", "trial_index": 264, "time_elapsed": 1785968, "internal_node_id": "0.0-192.0-0.0"}}, {"uniqueid": "MTK0327:37FMASSAYDYG7M52B4LZMGGKCHUBIP", "current_trial": 265, "dateTime": 1510708824237, "trialdata": {"rt": -1000, "stimulus": "/static/audio/wordpool/SPIDER.wav", "key_press": -1, "type": "PRES_AUD", "word": "spider", "wordID": 1350, "conditions": [24, 1600, "a", 24000], "trial": 7, "serialpos": 0, "trial_type": "single-audio", "trial_index": 265, "time_elapsed": 1788481, "internal_node_id": "0.0-193.0"}}, {"uniqueid": "MTK0327:37FMASSAYDYG7M52B4LZMGGKCHUBIP", "current_trial": 266, "dateTime": 1510708827011, "trialdata": {"rt": -1000, "stimulus": "/static/audio/wordpool/GAVEL.wav", "key_press": -1, "type": "PRES_AUD", "word": "gavel", "wordID": 626, "conditions": [24, 1600, "a", 24000], "trial": 7, "serialpos": 1, "trial_type": "single-audio", "trial_index": 266, "time_elapsed": 1791255, "internal_node_id": "0.0-194.0"}}, {"uniqueid": "MTK0327:37FMASSAYDYG7M52B4LZMGGKCHUBIP", "current_trial": 267, "dateTime": 1510708829554, "trialdata": {"rt": -1000, "stimulus": "/static/audio/wordpool/BASEMENT.wav", "key_press": -1, "type": "PRES_AUD", "word": "basement", "wordID": 93, "conditions": [24, 1600, "a", 24000], "trial": 7, "serialpos": 2, "trial_type": "single-audio", "trial_index": 267, "time_elapsed": 1793796, "internal_node_id": "0.0-195.0"}}, {"uniqueid": "MTK0327:37FMASSAYDYG7M52B4LZMGGKCHUBIP", "current_trial": 268, "dateTime": 1510708832068, "trialdata": {"rt": -1000, "stimulus": "/static/audio/wordpool/CELLAR.wav", "key_press": -1, "type": "PRES_AUD", "word": "cellar", "wordID": 266, "conditions": [24, 1600, "a", 24000], "trial": 7, "serialpos": 3, "trial_type": "single-audio", "trial_index": 268, "time_elapsed": 1796310, "internal_node_id": "0.0-196.0"}}, {"uniqueid": "MTK0327:37FMASSAYDYG7M52B4LZMGGKCHUBIP", "current_trial": 269, "dateTime": 1510708834520, "trialdata": {"rt": -1000, "stimulus": "/static/audio/wordpool/LETTUCE.wav", "key_press": -1, "type": "PRES_AUD", "word": "lettuce", "wordID": 813, "conditions": [24, 1600, "a", 24000], "trial": 7, "serialpos": 4, "trial_type": "single-audio", "trial_index": 269, "time_elapsed": 1798762, "internal_node_id": "0.0-197.0"}}, {"uniqueid": "MTK0327:37FMASSAYDYG7M52B4LZMGGKCHUBIP", "current_trial": 270, "dateTime": 1510708837179, 