{"condition": 0, "counterbalance": 2514, "assignmentId": "34X6J5FLPU5Z63RXC43PT6QJE2YQJL", "workerId": "MTK0824", "hitId": "33EEIIWHK7E6AETX3RC67A5TTJPQVN", "currenttrial": 626, "bonus": 0, "data": [{"uniqueid": "MTK0824:34X6J5FLPU5Z63RXC43PT6QJE2YQJL", "current_trial": 0, "dateTime": 1512761108386, "trialdata": {"rt": 7941, "key_press": 13, "type": "INSTRUCTIONS", "trial_type": "text", "trial_index": 0, "time_elapsed": 7942, "internal_node_id": "0.0-0.0"}}, {"uniqueid": "MTK0824:34X6J5FLPU5Z63RXC43PT6QJE2YQJL", "current_trial": 1, "dateTime": 1512761134739, "trialdata": {"rt": 26351, "key_press": 13, "type": "INSTRUCTIONS", "trial_type": "text", "trial_index": 1, "time_elapsed": 34296, "internal_node_id": "0.0-1.0"}}, {"uniqueid": "MTK0824:34X6J5FLPU5Z63RXC43PT6QJE2YQJL", "current_trial": 2, "dateTime": 1512761145412, "trialdata": {"rt": [10661], "responses": ["ocean"], "type": "AUDIO_TEST", "trial_type": "audio-test", "trial_index": 2, "time_elapsed": 44969, "internal_node_id": "0.0-2.0"}}, {"uniqueid": "MTK0824:34X6J5FLPU5Z63RXC43PT6QJE2YQJL", "current_trial": 3, "dateTime": 1512761156558, "trialdata": {"rt": [11143], "responses": ["crystal"], "type": "AUDIO_TEST", "trial_type": "audio-test", "trial_index": 3, "time_elapsed": 56115, "internal_node_id": "0.0-3.0"}}, {"uniqueid": "MTK0824:34X6J5FLPU5Z63RXC43PT6QJE2YQJL", "current_trial": 4, "dateTime": 1512761162963, "trialdata": {"rt": [6400], "responses": ["spice"], "type": "AUDIO_TEST", "trial_type": "audio-test", "trial_index": 4, "time_elapsed": 62520, "internal_node_id": "0.0-4.0"}}, {"uniqueid": "MTK0824:34X6J5FLPU5Z63RXC43PT6QJE2YQJL", "current_trial": 5, "dateTime": 1512761186380, "trialdata": {"rt": 22659, "responses": "{\"Q0\":\"11:00\",\"Q1\":\"6:30\",\"Q2\":\"5\"}", "type": "SLEEP_SURVEY", "trial_type": "survey-text", "trial_index": 5, "time_elapsed": 85937, "internal_node_id": "0.0-5.0"}}, {"uniqueid": "MTK0824:34X6J5FLPU5Z63RXC43PT6QJE2YQJL", "current_trial": 6, "dateTime": 1512761899699, "trialdata": {"rt": 712317, "key_press": 13, "type": "INSTRUCTIONS", "trial_type": "text", "trial_index": 6, "time_elapsed": 799256, "internal_node_id": "0.0-6.0"}}, {"uniqueid": "MTK0824:34X6J5FLPU5Z63RXC43PT6QJE2YQJL", "current_trial": 7, "dateTime": 1512761918878, "trialdata": {"rt": 18673, "key_press": 13, "type": "INSTRUCTIONS", "trial_type": "text", "trial_index": 7, "time_elapsed": 818434, "internal_node_id": "0.0-7.0"}}, {"uniqueid": "MTK0824:34X6J5FLPU5Z63RXC43PT6QJE2YQJL", "current_trial": 8, "dateTime": 1512761930506, "trialdata": {"rt": 11124, "key_press": 13, "type": "INSTRUCTIONS", "trial_type": "text", "trial_index": 8, "time_elapsed": 830063, "internal_node_id": "0.0-8.0"}}, {"uniqueid": "MTK0824:34X6J5FLPU5Z63RXC43PT6QJE2YQJL", "current_trial": 9, "dateTime": 1512761949523, "trialdata": {"rt": [3325, 7076, 11812, 13519, 15077], "responses": ["8", "18", "18", "12", "12"], "num1": [1, 2, 8, 5, 6, 6], "num2": [4, 9, 9, 5, 4, 4], "num3": [3, 7, 1, 2, 2, 6], "type": "DISTRACTOR", "conditions": [18, 1200, "v", 18000], "trial": 0, "trial_type": "math-distractor", "trial_index": 9, "time_elapsed": 849080, "internal_node_id": "0.0-9.0"}}, {"uniqueid": "MTK0824:34X6J5FLPU5Z63RXC43PT6QJE2YQJL", "current_trial": 10, "dateTime": 1512761952529, "trialdata": {"rt": -1, "stimulus": "<p id=\"stim\">10</p>", "key_press": -1, "trial_type": "single-stim", "trial_index": 10, "time_elapsed": 852085, "internal_node_id": "0.0-10.0-0.0"}}, {"uniqueid": "MTK0824:34X6J5FLPU5Z63RXC43PT6QJE2YQJL", "current_trial": 11, "dateTime": 1512761953533, "trialdata": {"rt": -1, "stimulus": "<p id=\"stim\">9</p>", "key_press": -1, "trial_type": "single-stim", "trial_index": 11, "time_elapsed": 853090, "internal_node_id": "0.0-10.0-1.0"}}, {"uniqueid": "MTK0824:34X6J5FLPU5Z63RXC43PT6QJE2YQJL", "current_trial": 12, "dateTime": 1512761954537, "trialdata": {"rt": -1, "stimulus": "<p id=\"stim\">8</p>", "key_press": -1, "trial_type": "single-stim", "trial_index": 12, "time_elapsed": 854094, "internal_node_id": "0.0-10.0-2.0"}}, {"uniqueid": "MTK0824:34X6J5FLPU5Z63RXC43PT6QJE2YQJL", "current_trial": 13, "dateTime": 1512761955541, "trialdata": {"rt": -1, "stimulus": "<p id=\"stim\">7</p>", "key_press": -1, "trial_type": "single-stim", "trial_index": 13, "time_elapsed": 855098, "internal_node_id": "0.0-10.0-3.0"}}, {"uniqueid": "MTK0824:34X6J5FLPU5Z63RXC43PT6QJE2YQJL", "current_trial": 14, "dateTime": 1512761956545, "trialdata": {"rt": -1, "stimulus": "<p id=\"stim\">6</p>", "key_press": -1, "trial_type": "single-stim", "trial_index": 14, "time_elapsed": 856102, "internal_node_id": "0.0-10.0-4.0"}}, {"uniqueid": "MTK0824:34X6J5FLPU5Z63RXC43PT6QJE2YQJL", "current_trial": 15, "dateTime": 1512761957549, "trialdata": {"rt": -1, "stimulus": "<p id=\"stim\">5</p>", "key_press": -1, "trial_type": "single-stim", "trial_index": 15, "time_elapsed": 857106, "internal_node_id": "0.0-10.0-5.0"}}, {"uniqueid": "MTK0824:34X6J5FLPU5Z63RXC43PT6QJE2YQJL", "current_trial": 16, "dateTime": 1512761958553, "trialdata": {"rt": -1, "stimulus": "<p id=\"stim\">4</p>", "key_press": -1, "trial_type": "single-stim", "trial_index": 16, "time_elapsed": 858110, "internal_node_id": "0.0-10.0-6.0"}}, {"uniqueid": "MTK0824:34X6J5FLPU5Z63RXC43PT6QJE2YQJL", "current_trial": 17, "dateTime": 1512761959558, "trialdata": {"rt": -1, "stimulus": "<p id=\"stim\">3</p>", "key_press": -1, "trial_type": "single-stim", "trial_index": 17, "time_elapsed": 859115, "internal_node_id": "0.0-10.0-7.0"}}, {"uniqueid": "MTK0824:34X6J5FLPU5Z63RXC43PT6QJE2YQJL", "current_trial": 18, "dateTime": 1512761960561, "trialdata": {"rt": -1, "stimulus": "<p id=\"stim\">2</p>", "key_press": -1, "trial_type": "single-stim", "trial_index": 18, "time_elapsed": 860118, "internal_node_id": "0.0-10.0-8.0"}}, {"uniqueid": "MTK0824:34X6J5FLPU5Z63RXC43PT6QJE2YQJL", "current_trial": 19, "dateTime": 1512761961565, "trialdata": {"rt": -1, "stimulus": "<p id=\"stim\">1</p>", "key_press": -1, "trial_type": "single-stim", "trial_index": 19, "time_elapsed": 861122, "internal_node_id": "0.0-10.0-9.0"}}, {"uniqueid": "MTK0824:34X6J5FLPU5Z63RXC43PT6QJE2YQJL", "current_trial": 20, "dateTime": 1512761963069, "trialdata": {"rt": -1, "stimulus": "<p id=\"stim\">+</p>", "key_press": -1, "type": "FIXATION", "trial_type": "single-stim", "trial_index": 20, "time_elapsed": 862626, "internal_node_id": "0.0-11.0-0.0"}}, {"uniqueid": "MTK0824:34X6J5FLPU5Z63RXC43PT6QJE2YQJL", "current_trial": 21, "dateTime": 1512761964270, "trialdata": {"rt": -1, "stimulus": "<p id=\"stim\">COSTUME</p>", "key_press": -1, "type": "PRES_VIS", "word": "costume", "wordID": 382, "conditions": [18, 1200, "v", 18000], "trial": 0, "serialpos": 0, "trial_type": "single-stim", "trial_index": 21, "time_elapsed": 863827, "internal_node_id": "0.0-12.0"}}, {"uniqueid": "MTK0824:34X6J5FLPU5Z63RXC43PT6QJE2YQJL", "current_trial": 22, "dateTime": 1512761966429, "trialdata": {"rt": -1, "stimulus": "<p id=\"stim\">SAUSAGE</p>", "key_press": -1, "type": "PRES_VIS", "word": "sausage", "wordID": 1237, "conditions": [18, 1200, "v", 18000], "trial": 0, "serialpos": 1, "trial_type": "single-stim", "trial_index": 22, "time_elapsed": 865986, "internal_node_id": "0.0-13.0"}}, {"uniqueid": "MTK0824:34X6J5FLPU5Z63RXC43PT6QJE2YQJL", "current_trial": 23, "dateTime": 1512761968734, "trialdata": {"rt": -1, "stimulus": "<p id=\"stim\">DIME</p>", "key_press": -1, "type": "PRES_VIS", "word": "dime", "wordID": 465, "conditions": [18, 1200, "v", 18000], "trial": 0, "serialpos": 2, "trial_type": "single-stim", "trial_index": 23, "time_elapsed": 868290, "internal_node_id": "0.0-14.0"}}, {"uniqueid": "MTK0824:34X6J5FLPU5Z63RXC43PT6QJE2YQJL", "current_trial": 24, "dateTime": 1512761970893, "trialdata": {"rt": -1, "stimulus": "<p id=\"stim\">MATTRESS</p>", "key_press": -1, "type": "PRES_VIS", "word": "mattress", "wordID": 878, "conditions": [18, 1200, "v", 18000], "trial": 0, "serialpos": 3, "trial_type": "single-stim", "trial_index": 24, "time_elapsed": 870449, "internal_node_id": "0.0-15.0"}}, {"uniqueid": "MTK0824:34X6J5FLPU5Z63RXC43PT6QJE2YQJL", "current_trial": 25, "dateTime": 1512761973267, "trialdata": {"rt": -1, "stimulus": "<p id=\"stim\">FRUIT</p>", "key_press": -1, "type": "PRES_VIS", "word": "fruit", "wordID": 609, "conditions": [18, 1200, "v", 18000], "trial": 0, "serialpos": 4, "trial_type": "single-stim", "trial_index": 25, "time_elapsed": 872823, "internal_node_id": "0.0-16.0"}}, {"uniqueid": "MTK0824:34X6J5FLPU5Z63RXC43PT6QJE2YQJL", "current_trial": 26, "dateTime": 1512761975315, "trialdata": {"rt": -1, "stimulus": "<p id=\"stim\">SHRUB</p>", "key_press": -1, "type": "PRES_VIS", "word": "shrub", "wordID": 1298, "conditions": [18, 1200, "v", 18000], "trial": 0, "serialpos": 5, "trial_type": "single-stim", "trial_index": 26, "time_elapsed": 874872, "internal_node_id": "0.0-17.0"}}, {"uniqueid": "MTK0824:34X6J5FLPU5Z63RXC43PT6QJE2YQJL", "current_trial": 27, "dateTime": 1512761977480, "trialdata": {"rt": -1, "stimulus": "<p id=\"stim\">LETTUCE</p>", "key_press": -1, "type": "PRES_VIS", "word": "lettuce", "wordID": 813, "conditions": [18, 1200, "v", 18000], "trial": 0, "serialpos": 6, "trial_type": "single-stim", "trial_index": 27, "time_elapsed": 877037, "internal_node_id": "0.0-18.0"}}, {"uniqueid": "MTK0824:34X6J5FLPU5Z63RXC43PT6QJE2YQJL", "current_trial": 28, "dateTime": 1512761979494, "trialdata": {"rt": -1, "stimulus": "<p id=\"stim\">PUPPY</p>", "key_press": -1, "type": "PRES_VIS", "word": "puppy", "wordID": 1143, "conditions": [18, 1200, "v", 18000], "trial": 0, "serialpos": 7, "trial_type": "single-stim", "trial_index": 28, "time_elapsed": 879051, "internal_node_id": "0.0-19.0"}}, {"uniqueid": "MTK0824:34X6J5FLPU5Z63RXC43PT6QJE2YQJL", "current_trial": 29, "dateTime": 1512761981508, "trialdata": {"rt": -1, "stimulus": "<p id=\"stim\">VIRUS</p>", "key_press": -1, "type": "PRES_VIS", "word": "virus", "wordID": 1571, "conditions": [18, 1200, "v", 18000], "trial": 0, "serialpos": 8, "trial_type": "single-stim", "trial_index": 29, "time_elapsed": 881065, "internal_node_id": "0.0-20.0"}}, {"uniqueid": "MTK0824:34X6J5FLPU5Z63RXC43PT6QJE2YQJL", "current_trial": 30, "dateTime": 1512761983778, "trialdata": {"rt": -1, "stimulus": "<p id=\"stim\">SWAMP</p>", "key_press": -1, "type": "PRES_VIS", "word": "swamp", "wordID": 1415, "conditions": [18, 1200, "v", 18000], "trial": 0, "serialpos": 9, "trial_type": "single-stim", "trial_index": 30, "time_elapsed": 883335, "internal_node_id": "0.0-21.0"}}, {"uniqueid": "MTK0824:34X6J5FLPU5Z63RXC43PT6QJE2YQJL", "current_trial": 31, "dateTime": 1512761985834, "trialdata": {"rt": -1, "stimulus": "<p id=\"stim\">CUPBOARD</p>", "key_press": -1, "type": "PRES_VIS", "word": "cupboard", "wordID": 424, "conditions": [18, 1200, "v", 18000], "trial": 0, "serialpos": 10, "trial_type": "single-stim", "trial_index": 31, "time_elapsed": 885391, "internal_node_id": "0.0-22.0"}}, {"uniqueid": "MTK0824:34X6J5FLPU5Z63RXC43PT6QJE2YQJL", "current_trial": 32, "dateTime": 1512761988125, "trialdata": {"rt": -1, "stimulus": "<p id=\"stim\">LIZARD</p>", "key_press": -1, "type": "PRES_VIS", "word": "lizard", "wordID": 833, "conditions": [18, 1200, "v", 18000], "trial": 0, "serialpos": 11, "trial_type": "single-stim", "trial_index": 32, "time_elapsed": 887682, "internal_node_id": "0.0-23.0"}}, {"uniqueid": "MTK0824:34X6J5FLPU5Z63RXC43PT6QJE2YQJL", "current_trial": 33, "dateTime": 1512761990505, "trialdata": {"rt": -1, "stimulus": "<p id=\"stim\">WRIST</p>", "key_press": -1, "type": "PRES_VIS", "word": "wrist", "wordID": 1625, "conditions": [18, 1200, "v", 18000], "trial": 0, "serialpos": 12, "trial_type": "single-stim", "trial_index": 33, "time_elapsed": 890061, "internal_node_id": "0.0-24.0"}}, {"uniqueid": "MTK0824:34X6J5FLPU5Z63RXC43PT6QJE2YQJL", "current_trial": 34, "dateTime": 1512761992577, "trialdata": {"rt": -1, "stimulus": "<p id=\"stim\">NIGHTGOWN</p>", "key_press": -1, "type": "PRES_VIS", "word": "nightgown", "wordID": 952, "conditions": [18, 1200, "v", 18000], "trial": 0, "serialpos": 13, "trial_type": "single-stim", "trial_index": 34, "time_elapsed": 892133, "internal_node_id": "0.0-25.0"}}, {"uniqueid": "MTK0824:34X6J5FLPU5Z63RXC43PT6QJE2YQJL", "current_trial": 35, "dateTime": 1512761994631, "trialdata": {"rt": -1, "stimulus": "<p id=\"stim\">BLOCKADE</p>", "key_press": -1, "type": "PRES_VIS", "word": "blockade", "wordID": 136, "conditions": [18, 1200, "v", 18000], "trial": 0, "serialpos": 14, "trial_type": "single-stim", "trial_index": 35, "time_elapsed": 894188, "internal_node_id": "0.0-26.0"}}, {"uniqueid": "MTK0824:34X6J5FLPU5Z63RXC43PT6QJE2YQJL", "current_trial": 36, "dateTime": 1512761996982, "trialdata": {"rt": -1, "stimulus": "<p id=\"stim\">STAPLE</p>", "key_press": -1, "type": "PRES_VIS", "word": "staple", "wordID": 1370, "conditions": [18, 1200, "v", 18000], "trial": 0, "serialpos": 15, "trial_type": "single-stim", "trial_index": 36, "time_elapsed": 896539, "internal_node_id": "0.0-27.0"}}, {"uniqueid": "MTK0824:34X6J5FLPU5Z63RXC43PT6QJE2YQJL", "current_trial": 37, "dateTime": 1512761999193, "trialdata": {"rt": -1, "stimulus": "<p id=\"stim\">COUSIN</p>", "key_press": -1, "type": "PRES_VIS", "word": "cousin", "wordID": 391, "conditions": [18, 1200, "v", 18000], "trial": 0, "serialpos": 16, "trial_type": "single-stim", "trial_index": 37, "time_elapsed": 898750, "internal_node_id": "0.0-28.0"}}, {"uniqueid": "MTK0824:34X6J5FLPU5Z63RXC43PT6QJE2YQJL", "current_trial": 38, "dateTime": 1512762001544, "trialdata": {"rt": -1, "stimulus": "<p id=\"stim\">KEEPER</p>", "key_press": -1, "type": "PRES_VIS", "word": "keeper", "wordID": 768, "conditions": [18, 1200, "v", 18000], "trial": 0, "serialpos": 17, "trial_type": "single-stim", "trial_index": 38, "time_elapsed": 901101, "internal_node_id": "0.0-29.0"}}, {"uniqueid": "MTK0824:34X6J5FLPU5Z63RXC43PT6QJE2YQJL", "current_trial": 39, "dateTime": 1512762003825, "trialdata": {"rt": -1, "stimulus": "", "key_press": -1, "type": "PRE_RECALL_DELAY", "trial_type": "single-stim", "trial_index": 39, "time_elapsed": 903382, "internal_node_id": "0.0-30.0-0.0"}}, {"uniqueid": "MTK0824:34X6J5FLPU5Z63RXC43PT6QJE2YQJL", "current_trial": 40, "dateTime": 1512762004329, "trialdata": {"rt": -1000, "stimulus": "/static/audio/400Hz.wav", "key_press": -1, "type": "PRE_RECALL_ALERT", "trial_type": "single-audio", "trial_index": 40, "time_elapsed": 903885, "internal_node_id": "0.0-31.0"}}, {"uniqueid": "MTK0824:34X6J5FLPU5Z63RXC43PT6QJE2YQJL", "current_trial": 41, "dateTime": 1512762064337, "trialdata": {"rt": [3082, 5465, 9279, 20713, 27674, 34955], "recwords": ["cupboard", "swamp", "lizard", "wrist", "puppy", ""], "type": "FREE_RECALL", "conditions": [18, 1200, "v", 18000], "trial": 0, "trial_type": "free-recall", "trial_index": 41, "time_elapsed": 963891, "internal_node_id": "0.0-32.0-0.0"}}, {"uniqueid": "MTK0824:34X6J5FLPU5Z63RXC43PT6QJE2YQJL", "current_trial": 42, "dateTime": 1512762068220, "trialdata": {"rt": 1878, "key_press": 13, "type": "INSTRUCTIONS", "trial_type": "text", "trial_index": 42, "time_elapsed": 967777, "internal_node_id": "0.0-33.0"}}, {"uniqueid": "MTK0824:34X6J5FLPU5Z63RXC43PT6QJE2YQJL", "current_trial": 43, "dateTime": 1512762088229, "trialdata": {"rt": [3207, 6378, 9230, 11881, 13833, 17197], "responses": ["15", "23", "13", "16", "17", "10"], "num1": [9, 8, 4, 6, 2, 7, 3], "num2": [3, 7, 5, 9, 6, 1, 1], "num3": [3, 8, 4, 1, 9, 2, 6], "type": "DISTRACTOR", "conditions": [18, 1200, "a", 18000], "trial": 1, "trial_type": "math-distractor", "trial_index": 43, "time_elapsed": 987786, "internal_node_id": "0.0-34.0"}}, {"uniqueid": "MTK0824:34X6J5FLPU5Z63RXC43PT6QJE2YQJL", "current_trial": 44, "dateTime": 1512762091237, "trialdata": {"rt": -1, "stimulus": "<p id=\"stim\">10</p>", "key_press": -1, "trial_type": "single-stim", "trial_index": 44, "time_elapsed": 990792, "internal_node_id": "0.0-35.0-0.0"}}, {"uniqueid": "MTK0824:34X6J5FLPU5Z63RXC43PT6QJE2YQJL", "current_trial": 45, "dateTime": 1512762092239, "trialdata": {"rt": -1, "stimulus": "<p id=\"stim\">9</p>", "key_press": -1, "trial_type": "single-stim", "trial_index": 45, "time_elapsed": 991796, "internal_node_id": "0.0-35.0-1.0"}}, {"uniqueid": "MTK0824:34X6J5FLPU5Z63RXC43PT6QJE2YQJL", "current_trial": 46, "dateTime": 1512762093245, "trialdata": {"rt": -1, "stimulus": "<p id=\"stim\">8</p>", "key_press": -1, "trial_type": "single-stim", "trial_index": 46, "time_elapsed": 992802, "internal_node_id": "0.0-35.0-2.0"}}, {"uniqueid": "MTK0824:34X6J5FLPU5Z63RXC43PT6QJE2YQJL", "current_trial": 47, "dateTime": 1512762094248, "trialdata": {"rt": -1, "stimulus": "<p id=\"stim\">7</p>", "key_press": -1, "trial_type": "single-stim", "trial_index": 47, "time_elapsed": 993804, "internal_node_id": "0.0-35.0-3.0"}}, {"uniqueid": "MTK0824:34X6J5FLPU5Z63RXC43PT6QJE2YQJL", "current_trial": 48, "dateTime": 1512762095253, "trialdata": {"rt": -1, "stimulus": "<p id=\"stim\">6</p>", "key_press": -1, "trial_type": "single-stim", "trial_index": 48, "time_elapsed": 994810, "internal_node_id": "0.0-35.0-4.0"}}, {"uniqueid": "MTK0824:34X6J5FLPU5Z63RXC43PT6QJE2YQJL", "current_trial": 49, "dateTime": 1512762096256, "trialdata": {"rt": -1, "stimulus": "<p id=\"stim\">5</p>", "key_press": -1, "trial_type": "single-stim", "trial_index": 49, "time_elapsed": 995813, "internal_node_id": "0.0-35.0-5.0"}}, {"uniqueid": "MTK0824:34X6J5FLPU5Z63RXC43PT6QJE2YQJL", "current_trial": 50, "dateTime": 1512762097260, "trialdata": {"rt": -1, "stimulus": "<p id=\"stim\">4</p>", "key_press": -1, "trial_type": "single-stim", "trial_index": 50, "time_elapsed": 996817, "internal_node_id": "0.0-35.0-6.0"}}, {"uniqueid": "MTK0824:34X6J5FLPU5Z63RXC43PT6QJE2YQJL", "current_trial": 51, "dateTime": 1512762098264, "trialdata": {"rt": -1, "stimulus": "<p id=\"stim\">3</p>", "key_press": -1, "trial_type": "single-stim", "trial_index": 51, "time_elapsed": 997821, "internal_node_id": "0.0-35.0-7.0"}}, {"uniqueid": "MTK0824:34X6J5FLPU5Z63RXC43PT6QJE2YQJL", "current_trial": 52, "dateTime": 1512762099267, "trialdata": {"rt": -1, "stimulus": "<p id=\"stim\">2</p>", "key_press": -1, "trial_type": "single-stim", "trial_index": 52, "time_elapsed": 998824, "internal_node_id": "0.0-35.0-8.0"}}, {"uniqueid": "MTK0824:34X6J5FLPU5Z63RXC43PT6QJE2YQJL", "current_trial": 53, "dateTime": 1512762100272, "trialdata": {"rt": -1, "stimulus": "<p id=\"stim\">1</p>", "key_press": -1, "trial_type": "single-stim", "trial_index": 53, "time_elapsed": 999829, "internal_node_id": "0.0-35.0-9.0"}}, {"uniqueid": "MTK0824:34X6J5FLPU5Z63RXC43PT6QJE2YQJL", "current_trial": 54, "dateTime": 1512762101775, "trialdata": {"rt": -1, "stimulus": "<p id=\"stim\">+</p>", "key_press": -1, "type": "FIXATION", "trial_type": "single-stim", "trial_index": 54, "time_elapsed": 1001332, "internal_node_id": "0.0-36.0-0.0"}}, {"uniqueid": "MTK0824:34X6J5FLPU5Z63RXC43PT6QJE2YQJL", "current_trial": 55, "dateTime": 1512762104009, "trialdata": {"rt": -1000, "stimulus": "/static/audio/wordpool/CASHIER.wav", "key_press": -1, "type": "PRES_AUD", "word": "cashier", "wordID": 253, "conditions": [18, 1200, "a", 18000], "trial": 1, "serialpos": 0, "trial_type": "single-audio", "trial_index": 55, "time_elapsed": 1003566, "internal_node_id": "0.0-37.0"}}, {"uniqueid": "MTK0824:34X6J5FLPU5Z63RXC43PT6QJE2YQJL", "current_trial": 56, "dateTime": 1512762106081, "trialdata": {"rt": -1000, "stimulus": "/static/audio/wordpool/CITRUS.wav", "key_press": -1, "type": "PRES_AUD", "word": "citrus", "wordID": 312, "conditions": [18, 1200, "a", 18000], "trial": 1, "serialpos": 1, "trial_type": "single-audio", "trial_index": 56, "time_elapsed": 1005638, "internal_node_id": "0.0-38.0"}}, {"uniqueid": "MTK0824:34X6J5FLPU5Z63RXC43PT6QJE2YQJL", "current_trial": 57, "dateTime": 1512762108090, "trialdata": {"rt": -1000, "stimulus": "/static/audio/wordpool/CAPTIVE.wav", "key_press": -1, "type": "PRES_AUD", "word": "captive", "wordID": 239, "conditions": [18, 1200, "a", 18000], "trial": 1, "serialpos": 2, "trial_type": "single-audio", "trial_index": 57, "time_elapsed": 1007647, "internal_node_id": "0.0-39.0"}}, {"uniqueid": "MTK0824:34X6J5FLPU5Z63RXC43PT6QJE2YQJL", "current_trial": 58, "dateTime": 1512762110151, "trialdata": {"rt": -1000, "stimulus": "/static/audio/wordpool/POSSUM.wav", "key_press": -1, "type": "PRES_AUD", "word": "possum", "wordID": 1111, "conditions": [18, 1200, "a", 18000], "trial": 1, "serialpos": 3, "trial_type": "single-audio", "trial_index": 58, "time_elapsed": 1009708, "internal_node_id": "0.0-40.0"}}, {"uniqueid": "MTK0824:34X6J5FLPU5Z63RXC43PT6QJE2YQJL", "current_trial": 59, "dateTime": 1512762112438, "trialdata": {"rt": -1000, "stimulus": "/static/audio/wordpool/JAPAN.wav", "key_press": -1, "type": "PRES_AUD", "word": "japan", "wordID": 748, "conditions": [18, 1200, "a", 18000], "trial": 1, "serialpos": 4, "trial_type": "single-audio", "trial_index": 59, "time_elapsed": 1011995, "internal_node_id": "0.0-41.0"}}, {"uniqueid": "MTK0824:34X6J5FLPU5Z63RXC43PT6QJE2YQJL", "current_trial": 60, "dateTime": 1512762114830, "trialdata": {"rt": -1000, "stimulus": "/static/audio/wordpool/CASHEW.wav", "key_press": -1, "type": "PRES_AUD", "word": "cashew", "wordID": 252, "conditions": [18, 1200, "a", 18000], "trial": 1, "serialpos": 5, "trial_type": "single-audio", "trial_index": 60, "time_elapsed": 1014387, "internal_node_id": "0.0-42.0"}}, {"uniqueid": "MTK0824:34X6J5FLPU5Z63RXC43PT6QJE2YQJL", "current_trial": 61, "dateTime": 1512762117187, "trialdata": {"rt": -1000, "stimulus": "/static/audio/wordpool/DAISY.wav", "key_press": -1, "type": "PRES_AUD", "word": "daisy", "wordID": 434, "conditions": [18, 1200, "a", 18000], "trial": 1, "serialpos": 6, "trial_type": "single-audio", "trial_index": 61, "time_elapsed": 1016744, "internal_node_id": "0.0-43.0"}}, {"uniqueid": "MTK0824:34X6J5FLPU5Z63RXC43PT6QJE2YQJL", "current_trial": 62, "dateTime": 1512762119387, "trialdata": {"rt": -1000, "stimulus": "/static/audio/wordpool/HIKER.wav", "key_press": -1, "type": "PRES_AUD", "word": "hiker", "wordID": 707, "conditions": [18, 1200, "a", 18000], "trial": 1, "serialpos": 7, "trial_type": "single-audio", "trial_index": 62, "time_elapsed": 1018944, "internal_node_id": "0.0-44.0"}}, {"uniqueid": "MTK0824:34X6J5FLPU5Z63RXC43PT6QJE2YQJL", "current_trial": 63, "dateTime": 1512762121407, "trialdata": {"rt": -1000, "stimulus": "/static/audio/wordpool/TYPIST.wav", "key_press": -1, "type": "PRES_AUD", "word": "typist", "wordID": 1531, "conditions": [18, 1200, "a", 18000], "trial": 1, "serialpos": 8, "trial_type": "single-audio", "trial_index": 63, "time_elapsed": 1020964, "internal_node_id": "0.0-45.0"}}, {"uniqueid": "MTK0824:34X6J5FLPU5Z63RXC43PT6QJE2YQJL", "current_trial": 64, "dateTime": 1512762123787, "trialdata": {"rt": -1000, "stimulus": "/static/audio/wordpool/SHORTS.wav", "key_press": -1, "type": "PRES_AUD", "word": "shorts", "wordID": 1292, "conditions": [18, 1200, "a", 18000], "trial": 1, "serialpos": 9, "trial_type": "single-audio", "trial_index": 64, "time_elapsed": 1023344, "internal_node_id": "0.0-46.0"}}, {"uniqueid": "MTK0824:34X6J5FLPU5Z63RXC43PT6QJE2YQJL", "current_trial": 65, "dateTime": 1512762126127, "trialdata": {"rt": -1000, "stimulus": "/static/audio/wordpool/MOTEL.wav", "key_press": -1, "type": "PRES_AUD", "word": "motel", "wordID": 918, "conditions": [18, 1200, "a", 18000], "trial": 1, "serialpos": 10, "trial_type": "single-audio", "trial_index": 65, "time_elapsed": 1025684, "internal_node_id": "0.0-47.0"}}, {"uniqueid": "MTK0824:34X6J5FLPU5Z63RXC43PT6QJE2YQJL", "current_trial": 66, "dateTime": 1512762128211, "trialdata": {"rt": -1000, "stimulus": "/static/audio/wordpool/VALLEY.wav", "key_press": -1, "type": "PRES_AUD", "word": "valley", "wordID": 1544, "conditions": [18, 1200, "a", 18000], "trial": 1, "serialpos": 11, "trial_type": "single-audio", "trial_index": 66, "time_elapsed": 1027768, "internal_node_id": "0.0-48.0"}}, {"uniqueid": "MTK0824:34X6J5FLPU5Z63RXC43PT6QJE2YQJL", "current_trial": 67, "dateTime": 1512762130506, "trialdata": {"rt": -1000, "stimulus": "/static/audio/wordpool/STAR.wav", "key_press": -1, "type": "PRES_AUD", "word": "star", "wordID": 1372, "conditions": [18, 1200, "a", 18000], "trial": 1, "serialpos": 12, "trial_type": "single-audio", "trial_index": 67, "time_elapsed": 1030063, "internal_node_id": "0.0-49.0"}}, {"uniqueid": "MTK0824:34X6J5FLPU5Z63RXC43PT6QJE2YQJL", "current_trial": 68, "dateTime": 1512762132671, "trialdata": {"rt": -1000, "stimulus": "/static/audio/wordpool/LAVA.wav", "key_press": -1, "type": "PRES_AUD", "word": "lava", "wordID": 803, "conditions": [18, 1200, "a", 18000], "trial": 1, "serialpos": 13, "trial_type": "single-audio", "trial_index": 68, "time_elapsed": 1032226, "internal_node_id": "0.0-50.0"}}, {"uniqueid": "MTK0824:34X6J5FLPU5Z63RXC43PT6QJE2YQJL", "current_trial": 69, "dateTime": 1512762134852, "trialdata": {"rt": -1000, "stimulus": "/static/audio/wordpool/IGLOO.wav", "key_press": -1, "type": "PRES_AUD", "word": "igloo", "wordID": 733, "conditions": [18, 1200, "a", 18000], "trial": 1, "serialpos": 14, "trial_type": "single-audio", "trial_index": 69, "time_elapsed": 1034409, "internal_node_id": "0.0-51.0"}}, {"uniqueid": "MTK0824:34X6J5FLPU5Z63RXC43PT6QJE2YQJL", "current_trial": 70, "dateTime": 1512762137058, "trialdata": {"rt": -1000, "stimulus": "/static/audio/wordpool/CUSTARD.wav", "key_press": -1, "type": "PRES_AUD", "word": "custard", "wordID": 428, "conditions": [18, 1200, "a", 18000], "trial": 1, "serialpos": 15, "trial_type": "single-audio", "trial_index": 70, "time_elapsed": 1036615, "internal_node_id": "0.0-52.0"}}, {"uniqueid": "MTK0824:34X6J5FLPU5Z63RXC43PT6QJE2YQJL", "current_trial": 71, "dateTime": 1512762139147, "trialdata": {"rt": -1000, "stimulus": "/static/audio/wordpool/LIVER.wav", "key_press": -1, "type": "PRES_AUD", "word": "liver", "wordID": 832, "conditions": [18, 1200, "a", 18000], "trial": 1, "serialpos": 16, "trial_type": "single-audio", "trial_index": 71, "time_elapsed": 1038704, "internal_node_id": "0.0-53.0"}}, {"uniqueid": "MTK0824:34X6J5FLPU5Z63RXC43PT6QJE2YQJL", "current_trial": 72, "dateTime": 1512762141243, "trialdata": {"rt": -1000, "stimulus": "/static/audio/wordpool/EYELASH.wav", "key_press": -1, "type": "PRES_AUD", "word": "eyelash", "wordID": 545, "conditions": [18, 1200, "a", 18000], "trial": 1, "serialpos": 17, "trial_type": "single-audio", "trial_index": 72, "time_elapsed": 1040800, "internal_node_id": "0.0-54.0"}}, {"uniqueid": "MTK0824:34X6J5FLPU5Z63RXC43PT6QJE2YQJL", "current_trial": 73, "dateTime": 1512762142532, "trialdata": {"rt": -1, "stimulus": "", "key_press": -1, "type": "PRE_RECALL_DELAY", "trial_type": "single-stim", "trial_index": 73, "time_elapsed": 1042089, "internal_node_id": "0.0-55.0-0.0"}}, {"uniqueid": "MTK0824:34X6J5FLPU5Z63RXC43PT6QJE2YQJL", "current_trial": 74, "dateTime": 1512762143034, "trialdata": {"rt": -1000, "stimulus": "/static/audio/400Hz.wav", "key_press": -1, "type": "PRE_RECALL_ALERT", "trial_type": "single-audio", "trial_index": 74, "time_elapsed": 1042590, "internal_node_id": "0.0-56.0"}}, {"uniqueid": "MTK0824:34X6J5FLPU5Z63RXC43PT6QJE2YQJL", "current_trial": 75, "dateTime": 1512762203042, "trialdata": {"rt": [2243, 3667, 5645, 7720, 10778, 14065], "recwords": ["eyelash", "liver", "cashier", "cashew", "custard", "igloo"], "type": "FREE_RECALL", "conditions": [18, 1200, "a", 18000], "trial": 1, "trial_type": "free-recall", "trial_index": 75, "time_elapsed": 1102597, "internal_node_id": "0.0-57.0-0.0"}}, {"uniqueid": "MTK0824:34X6J5FLPU5Z63RXC43PT6QJE2YQJL", "current_trial": 76, "dateTime": 1512762214761, "trialdata": {"rt": 9708, "key_press": 13, "type": "INSTRUCTIONS", "trial_type": "text", "trial_index": 76, "time_elapsed": 1114313, "internal_node_id": "0.0-58.0"}}, {"uniqueid": "MTK0824:34X6J5FLPU5Z63RXC43PT6QJE2YQJL", "current_trial": 77, "dateTime": 1512762239768, "trialdata": {"rt": [3443, 5247, 7577, 11480, 13866, 16429, 18425, 22430, 23907], "responses": ["14", "16", "14", "21", "14", "17", "10", "24", "9"], "num1": [4, 5, 3, 5, 7, 3, 3, 9, 7, 4], "num2": [6, 5, 8, 9, 6, 5, 1, 6, 1, 2], "num3": [4, 6, 3, 8, 1, 9, 6, 9, 1, 9], "type": "DISTRACTOR", "conditions": [24, 800, "a", 24000], "trial": 2, "trial_type": "math-distractor", "trial_index": 77, "time_elapsed": 1139325, "internal_node_id": "0.0-59.0"}}, {"uniqueid": "MTK0824:34X6J5FLPU5Z63RXC43PT6QJE2YQJL", "current_trial": 78, "dateTime": 1512762242775, "trialdata": {"rt": -1, "stimulus": "<p id=\"stim\">10</p>", "key_press": -1, "trial_type": "single-stim", "trial_index": 78, "time_elapsed": 1142332, "internal_node_id": "0.0-60.0-0.0"}}, {"uniqueid": "MTK0824:34X6J5FLPU5Z63RXC43PT6QJE2YQJL", "current_trial": 79, "dateTime": 1512762243778, "trialdata": {"rt": -1, "stimulus": "<p id=\"stim\">9</p>", "key_press": -1, "trial_type": "single-stim", "trial_index": 79, "time_elapsed": 1143335, "internal_node_id": "0.0-60.0-1.0"}}, {"uniqueid": "MTK0824:34X6J5FLPU5Z63RXC43PT6QJE2YQJL", "current_trial": 80, "dateTime": 1512762244783, "trialdata": {"rt": -1, "stimulus": "<p id=\"stim\">8</p>", "key_press": -1, "trial_type": "single-stim", "trial_index": 80, "time_elapsed": 1144340, "internal_node_id": "0.0-60.0-2.0"}}, {"uniqueid": "MTK0824:34X6J5FLPU5Z63RXC43PT6QJE2YQJL", "current_trial": 81, "dateTime": 1512762245787, "trialdata": {"rt": -1, "stimulus": "<p id=\"stim\">7</p>", "key_press": -1, "trial_type": "single-stim", "trial_index": 81, "time_elapsed": 1145344, "internal_node_id": "0.0-60.0-3.0"}}, {"uniqueid": "MTK0824:34X6J5FLPU5Z63RXC43PT6QJE2YQJL", "current_trial": 82, "dateTime": 1512762246791, "trialdata": {"rt": -1, "stimulus": "<p id=\"stim\">6</p>", "key_press": -1, "trial_type": "single-stim", "trial_index": 82, "time_elapsed": 1146348, "internal_node_id": "0.0-60.0-4.0"}}, {"uniqueid": "MTK0824:34X6J5FLPU5Z63RXC43PT6QJE2YQJL", "current_trial": 83, "dateTime": 1512762247795, "trialdata": {"rt": -1, "stimulus": "<p id=\"stim\">5</p>", "key_press": -1, "trial_type": "single-stim", "trial_index": 83, "time_elapsed": 1147352, "internal_node_id": "0.0-60.0-5.0"}}, {"uniqueid": "MTK0824:34X6J5FLPU5Z63RXC43PT6QJE2YQJL", "current_trial": 84, "dateTime": 1512762248799, "trialdata": {"rt": -1, "stimulus": "<p id=\"stim\">4</p>", "key_press": -1, "trial_type": "single-stim", "trial_index": 84, "time_elapsed": 1148356, "internal_node_id": "0.0-60.0-6.0"}}, {"uniqueid": "MTK0824:34X6J5FLPU5Z63RXC43PT6QJE2YQJL", "current_trial": 85, "dateTime": 1512762249801, "trialdata": {"rt": -1, "stimulus": "<p id=\"stim\">3</p>", "key_press": -1, "trial_type": "single-stim", "trial_index": 85, "time_elapsed": 1149358, "internal_node_id": "0.0-60.0-7.0"}}, {"uniqueid": "MTK0824:34X6J5FLPU5Z63RXC43PT6QJE2YQJL", "current_trial": 86, "dateTime": 1512762250803, "trialdata": {"rt": -1, "stimulus": "<p id=\"stim\">2</p>", "key_press": -1, "trial_type": "single-stim", "trial_index": 86, "time_elapsed": 1150360, "internal_node_id": "0.0-60.0-8.0"}}, {"uniqueid": "MTK0824:34X6J5FLPU5Z63RXC43PT6QJE2YQJL", "current_trial": 87, "dateTime": 1512762251805, "trialdata": {"rt": -1, "stimulus": "<p id=\"stim\">1</p>", "key_press": -1, "trial_type": "single-stim", "trial_index": 87, "time_elapsed": 1151362, "internal_node_id": "0.0-60.0-9.0"}}, {"uniqueid": "MTK0824:34X6J5FLPU5Z63RXC43PT6QJE2YQJL", "current_trial": 88, "dateTime": 1512762253309, "trialdata": {"rt": -1, "stimulus": "<p id=\"stim\">+</p>", "key_press": -1, "type": "FIXATION", "trial_type": "single-stim", "trial_index": 88, "time_elapsed": 1152866, "internal_node_id": "0.0-61.0-0.0"}}, {"uniqueid": "MTK0824:34X6J5FLPU5Z63RXC43PT6QJE2YQJL", "current_trial": 89, "dateTime": 1512762255186, "trialdata": {"rt": -1000, "stimulus": "/static/audio/wordpool/PISTON.wav", "key_press": -1, "type": "PRES_AUD", "word": "piston", "wordID": 1075, "conditions": [24, 800, "a", 24000], "trial": 2, "serialpos": 0, "trial_type": "single-audio", "trial_index": 89, "time_elapsed": 1154743, "internal_node_id": "0.0-62.0"}}, {"uniqueid": "MTK0824:34X6J5FLPU5Z63RXC43PT6QJE2YQJL", "current_trial": 90, "dateTime": 1512762257071, "trialdata": {"rt": -1000, "stimulus": "/static/audio/wordpool/COUNTRY.wav", "key_press": -1, "type": "PRES_AUD", "word": "country", "wordID": 387, "conditions": [24, 800, "a", 24000], "trial": 2, "serialpos": 1, "trial_type": "single-audio", "trial_index": 90, "time_elapsed": 1156627, "internal_node_id": "0.0-63.0"}}, {"uniqueid": "MTK0824:34X6J5FLPU5Z63RXC43PT6QJE2YQJL", "current_trial": 91, "dateTime": 1512762258805, "trialdata": {"rt": -1000, "stimulus": "/static/audio/wordpool/PERCH.wav", "key_press": -1, "type": "PRES_AUD", "word": "perch", "wordID": 1047, "conditions": [24, 800, "a", 24000], "trial": 2, "serialpos": 2, "trial_type": "single-audio", "trial_index": 91, "time_elapsed": 1158362, "internal_node_id": "0.0-64.0"}}, {"uniqueid": "MTK0824:34X6J5FLPU5Z63RXC43PT6QJE2YQJL", "current_trial": 92, "dateTime": 1512762260658, "trialdata": {"rt": -1000, "stimulus": "/static/audio/wordpool/HAND.wav", "key_press": -1, "type": "PRES_AUD", "word": "hand", "wordID": 682, "conditions": [24, 800, "a", 24000], "trial": 2, "serialpos": 3, "trial_type": "single-audio", "trial_index": 92, "time_elapsed": 1160215, "internal_node_id": "0.0-65.0"}}, {"uniqueid": "MTK0824:34X6J5FLPU5Z63RXC43PT6QJE2YQJL", "current_trial": 93, "dateTime": 1512762262661, "trialdata": {"rt": -1000, "stimulus": "/static/audio/wordpool/SHOVEL.wav", "key_press": -1, "type": "PRES_AUD", "word": "shovel", "wordID": 1294, "conditions": [24, 800, "a", 24000], "trial": 2, "serialpos": 4, "trial_type": "single-audio", "trial_index": 93, "time_elapsed": 1162218, "internal_node_id": "0.0-66.0"}}, {"uniqueid": "MTK0824:34X6J5FLPU5Z63RXC43PT6QJE2YQJL", "current_trial": 94, "dateTime": 1512762264455, "trialdata": {"rt": -1000, "stimulus": "/static/audio/wordpool/MISSILE.wav", "key_press": -1, "type": "PRES_AUD", "word": "missile", "wordID": 899, "conditions": [24, 800, "a", 24000], "trial": 2, "serialpos": 5, "trial_type": "single-audio", "trial_index": 94, "time_elapsed": 1164012, "internal_node_id": "0.0-67.0"}}, {"uniqueid": "MTK0824:34X6J5FLPU5Z63RXC43PT6QJE2YQJL", "current_trial": 95, "dateTime": 1512762266103, "trialdata": {"rt": -1000, "stimulus": "/static/audio/wordpool/TOASTER.wav", "key_press": -1, "type": "PRES_AUD", "word": "toaster", "wordID": 1471, "conditions": [24, 800, "a", 24000], "trial": 2, "serialpos": 6, "trial_type": "single-audio", "trial_index": 95, "time_elapsed": 1165660, "internal_node_id": "0.0-68.0"}}, {"uniqueid": "MTK0824:34X6J5FLPU5Z63RXC43PT6QJE2YQJL", "current_trial": 96, "dateTime": 1512762268094, "trialdata": {"rt": -1000, "stimulus": "/static/audio/wordpool/VALVE.wav", "key_press": -1, "type": "PRES_AUD", "word": "valve", "wordID": 1545, "conditions": [24, 800, "a", 24000], "trial": 2, "serialpos": 7, "trial_type": "single-audio", "trial_index": 96, "time_elapsed": 1167651, "internal_node_id": "0.0-69.0"}}, {"uniqueid": "MTK0824:34X6J5FLPU5Z63RXC43PT6QJE2YQJL", "current_trial": 97, "dateTime": 1512762270004, "trialdata": {"rt": -1000, "stimulus": "/static/audio/wordpool/SODA.wav", "key_press": -1, "type": "PRES_AUD", "word": "soda", "wordID": 1340, "conditions": [24, 800, "a", 24000], "trial": 2, "serialpos": 8, "trial_type": "single-audio", "trial_index": 97, "time_elapsed": 1169561, "internal_node_id": "0.0-70.0"}}, {"uniqueid": "MTK0824:34X6J5FLPU5Z63RXC43PT6QJE2YQJL", "current_trial": 98, "dateTime": 1512762271997, "trialdata": {"rt": -1000, "stimulus": "/static/audio/wordpool/DRINK.wav", "key_press": -1, "type": "PRES_AUD", "word": "drink", "wordID": 497, "conditions": [24, 800, "a", 24000], "trial": 2, "serialpos": 9, "trial_type": "single-audio", "trial_index": 98, "time_elapsed": 1171554, "internal_node_id": "0.0-71.0"}}, {"uniqueid": "MTK0824:34X6J5FLPU5Z63RXC43PT6QJE2YQJL", "current_trial": 99, "dateTime": 1512762273905, "trialdata": {"rt": -1000, "stimulus": "/static/audio/wordpool/LOFT.wav", "key_press": -1, "type": "PRES_AUD", "word": "loft", "wordID": 839, "conditions": [24, 800, "a", 24000], "trial": 2, "serialpos": 10, "trial_type": "single-audio", "trial_index": 99, "time_elapsed": 1173462, "internal_node_id": "0.0-72.0"}}, {"uniqueid": "MTK0824:34X6J5FLPU5Z63RXC43PT6QJE2YQJL", "current_trial": 100, "dateTime": 1512762275531, "trialdata": {"rt": -1000, "stimulus": "/static/audio/wordpool/CARRIAGE.wav", "key_press": -1, "type": "PRES_AUD", "word": "carriage", "wordID": 247, "conditions": [24, 800, "a", 24000], "trial": 2, "serialpos": 11, "trial_type": "single-audio", "trial_index": 100, "time_elapsed": 1175088, "internal_node_id": "0.0-73.0"}}, {"uniqueid": "MTK0824:34X6J5FLPU5Z63RXC43PT6QJE2YQJL", "current_trial": 101, "dateTime": 1512762277445, "trialdata": {"rt": -1000, "stimulus": "/static/audio/wordpool/CRAYON.wav", "key_press": -1, "type": "PRES_AUD", "word": "crayon", "wordID": 400, "conditions": [24, 800, "a", 24000], "trial": 2, "serialpos": 12, "trial_type": "single-audio", "trial_index": 101, "time_elapsed": 1177002, "internal_node_id": "0.0-74.0"}}, {"uniqueid": "MTK0824:34X6J5FLPU5Z63RXC43PT6QJE2YQJL", "current_trial": 102, "dateTime": 1512762279054, "trialdata": {"rt": -1000, "stimulus": "/static/audio/wordpool/SPHINX.wav", "key_press": -1, "type": "PRES_AUD", "word": "sphinx", "wordID": 1348, "conditions": [24, 800, "a", 24000], "trial": 2, "serialpos": 13, "trial_type": "single-audio", "trial_index": 102, "time_elapsed": 1178611, "internal_node_id": "0.0-75.0"}}, {"uniqueid": "MTK0824:34X6J5FLPU5Z63RXC43PT6QJE2YQJL", "current_trial": 103, "dateTime": 1512762281040, "trialdata": {"rt": -1000, "stimulus": "/static/audio/wordpool/DUST.wav", "key_press": -1, "type": "PRES_AUD", "word": "dust", "wordID": 507, "conditions": [24, 800, "a", 24000], "trial": 2, "serialpos": 14, "trial_type": "single-audio", "trial_index": 103, "time_elapsed": 1180597, "internal_node_id": "0.0-76.0"}}, {"uniqueid": "MTK0824:34X6J5FLPU5Z63RXC43PT6QJE2YQJL", "current_trial": 104, "dateTime": 1512762282892, "trialdata": {"rt": -1000, "stimulus": "/static/audio/wordpool/ISLAND.wav", "key_press": -1, "type": "PRES_AUD", "word": "island", "wordID": 744, "conditions": [24, 800, "a", 24000], "trial": 2, "serialpos": 15, "trial_type": "single-audio", "trial_index": 104, "time_elapsed": 1182448, "internal_node_id": "0.0-77.0"}}, {"uniqueid": "MTK0824:34X6J5FLPU5Z63RXC43PT6QJE2YQJL", "current_trial": 105, "dateTime": 1512762284849, "trialdata": {"rt": -1000, "stimulus": "/static/audio/wordpool/TRANSPLANT.wav", "key_press": -1, "type": "PRES_AUD", "word": "transplant", "wordID": 1495, "conditions": [24, 800, "a", 24000], "trial": 2, "serialpos": 16, "trial_type": "single-audio", "trial_index": 105, "time_elapsed": 1184406, "internal_node_id": "0.0-78.0"}}, {"uniqueid": "MTK0824:34X6J5FLPU5Z63RXC43PT6QJE2YQJL", "current_trial": 106, "dateTime": 1512762286694, "trialdata": {"rt": -1000, "stimulus": "/static/audio/wordpool/SPOOL.wav", "key_press": -1, "type": "PRES_AUD", "word": "spool", "wordID": 1355, "conditions": [24, 800, "a", 24000], "trial": 2, "serialpos": 17, "trial_type": "single-audio", "trial_index": 106, "time_elapsed": 1186251, "internal_node_id": "0.0-79.0"}}, {"uniqueid": "MTK0824:34X6J5FLPU5Z63RXC43PT6QJE2YQJL", "current_trial": 107, "dateTime": 1512762288314, "trialdata": {"rt": -1000, "stimulus": "/static/audio/wordpool/PROTON.wav", "key_press": -1, "type": "PRES_AUD", "word": "proton", "wordID": 1131, "conditions": [24, 800, "a", 24000], "trial": 2, "serialpos": 18, "trial_type": "single-audio", "trial_index": 107, "time_elapsed": 1187870, "internal_node_id": "0.0-80.0"}}, {"uniqueid": "MTK0824:34X6J5FLPU5Z63RXC43PT6QJE2YQJL", "current_trial": 108, "dateTime": 1512762290124, "trialdata": {"rt": -1000, "stimulus": "/static/audio/wordpool/MASK.wav", "key_press": -1, "type": "PRES_AUD", "word": "mask", "wordID": 875, "conditions": [24, 800, "a", 24000], "trial": 2, "serialpos": 19, "trial_type": "single-audio", "trial_index": 108, "time_elapsed": 1189681, "internal_node_id": "0.0-81.0"}}, {"uniqueid": "MTK0824:34X6J5FLPU5Z63RXC43PT6QJE2YQJL", "current_trial": 109, "dateTime": 1512762291860, "trialdata": {"rt": -1000, "stimulus": "/static/audio/wordpool/DANCER.wav", "key_press": -1, "type": "PRES_AUD", "word": "dancer", "wordID": 436, "conditions": [24, 800, "a", 24000], "trial": 2, "serialpos": 20, "trial_type": "single-audio", "trial_index": 109, "time_elapsed": 1191416, "internal_node_id": "0.0-82.0"}}, {"uniqueid": "MTK0824:34X6J5FLPU5Z63RXC43PT6QJE2YQJL", "current_trial": 110, "dateTime": 1512762293718, "trialdata": {"rt": -1000, "stimulus": "/static/audio/wordpool/GYMNAST.wav", "key_press": -1, "type": "PRES_AUD", "word": "gymnast", "wordID": 674, "conditions": [24, 800, "a", 24000], "trial": 2, "serialpos": 21, "trial_type": "single-audio", "trial_index": 110, "time_elapsed": 1193275, "internal_node_id": "0.0-83.0"}}, {"uniqueid": "MTK0824:34X6J5FLPU5Z63RXC43PT6QJE2YQJL", "current_trial": 111, "dateTime": 1512762295703, "trialdata": {"rt": -1000, "stimulus": "/static/audio/wordpool/CARROT.wav", "key_press": -1, "type": "PRES_AUD", "word": "carrot", "wordID": 248, "conditions": [24, 800, "a", 24000], "trial": 2, "serialpos": 22, "trial_type": "single-audio", "trial_index": 111, "time_elapsed": 1195260, "internal_node_id": "0.0-84.0"}}, {"uniqueid": "MTK0824:34X6J5FLPU5Z63RXC43PT6QJE2YQJL", "current_trial": 112, "dateTime": 1512762297555, "trialdata": {"rt": -1000, "stimulus": "/static/audio/wordpool/KIDNEY.wav", "key_press": -1, "type": "PRES_AUD", "word": "kidney", "wordID": 775, "conditions": [24, 800, "a", 24000], "trial": 2, "serialpos": 23, "trial_type": "single-audio", "trial_index": 112, "time_elapsed": 1197112, "internal_node_id": "0.0-85.0"}}, {"uniqueid": "MTK0824:34X6J5FLPU5Z63RXC43PT6QJE2YQJL", "current_trial": 113, "dateTime": 1512762298769, "trialdata": {"rt": -1, "stimulus": "", "key_press": -1, "type": "PRE_RECALL_DELAY", "trial_type": "single-stim", "trial_index": 113, "time_elapsed": 1198326, "internal_node_id": "0.0-86.0-0.0"}}, {"uniqueid": "MTK0824:34X6J5FLPU5Z63RXC43PT6QJE2YQJL", "current_trial": 114, "dateTime": 1512762299270, "trialdata": {"rt": -1000, "stimulus": "/static/audio/400Hz.wav", "key_press": -1, "type": "PRE_RECALL_ALERT", "trial_type": "single-audio", "trial_index": 114, "time_elapsed": 1198827, "internal_node_id": "0.0-87.0"}}, {"uniqueid": "MTK0824:34X6J5FLPU5Z63RXC43PT6QJE2YQJL", "current_trial": 115, "dateTime": 1512762359280, "trialdata": {"rt": [3927, 6140, 7592, 10168, 11964, 13559, 14739, 17336, 20742], "recwords": ["carrot", "kydney", "dancer", "gymnist", "hand", "shovel", "soda", "island", "transplant"], "type": "FREE_RECALL", "conditions": [24, 800, "a", 24000], "trial": 2, "trial_type": "free-recall", "trial_index": 115, "time_elapsed": 1258834, "internal_node_id": "0.0-88.0-0.0"}}, {"uniqueid": "MTK0824:34X6J5FLPU5Z63RXC43PT6QJE2YQJL", "current_trial": 116, "dateTime": 1512762368444, "trialdata": {"rt": 7158, "key_press": 13, "type": "INSTRUCTIONS", "trial_type": "text", "trial_index": 116, "time_elapsed": 1268001, "internal_node_id": "0.0-89.0"}}, {"uniqueid": "MTK0824:34X6J5FLPU5Z63RXC43PT6QJE2YQJL", "current_trial": 117, "dateTime": 1512762394456, "trialdata": {"rt": [2116, 5444, 8049, 10993, 12897, 14682, 16819, 19106, 21676], "responses": ["12", "8", "21", "24", "12", "12", "18", "21", "21"], "num1": [5, 4, 6, 7, 1, 2, 7, 5, 6, 9], "num2": [5, 3, 8, 9, 3, 5, 6, 8, 6, 8], "num3": [2, 1, 7, 8, 8, 5, 5, 8, 9, 2], "type": "DISTRACTOR", "conditions": [12, 800, "v", 24000], "trial": 3, "trial_type": "math-distractor", "trial_index": 117, "time_elapsed": 1294013, "internal_node_id": "0.0-90.0"}}, {"uniqueid": "MTK0824:34X6J5FLPU5Z63RXC43PT6QJE2YQJL", "current_trial": 118, "dateTime": 1512762397462, "trialdata": {"rt": -1, "stimulus": "<p id=\"stim\">10</p>", "key_press": -1, "trial_type": "single-stim", "trial_index": 118, "time_elapsed": 1297019, "internal_node_id": "0.0-91.0-0.0"}}, {"uniqueid": "MTK0824:34X6J5FLPU5Z63RXC43PT6QJE2YQJL", "current_trial": 119, "dateTime": 1512762398466, "trialdata": {"rt": -1, "stimulus": "<p id=\"stim\">9</p>", "key_press": -1, "trial_type": "single-stim", "trial_index": 119, "time_elapsed": 1298023, "internal_node_id": "0.0-91.0-1.0"}}, {"uniqueid": "MTK0824:34X6J5FLPU5Z63RXC43PT6QJE2YQJL", "current_trial": 120, "dateTime": 1512762399470, "trialdata": {"rt": -1, "stimulus": "<p id=\"stim\">8</p>", "key_press": -1, "trial_type": "single-stim", "trial_index": 120, "time_elapsed": 1299027, "internal_node_id": "0.0-91.0-2.0"}}, {"uniqueid": "MTK0824:34X6J5FLPU5Z63RXC43PT6QJE2YQJL", "current_trial": 121, "dateTime": 1512762400474, "trialdata": {"rt": -1, "stimulus": "<p id=\"stim\">7</p>", "key_press": -1, "trial_type": "single-stim", "trial_index": 121, "time_elapsed": 1300031, "internal_node_id": "0.0-91.0-3.0"}}, {"uniqueid": "MTK0824:34X6J5FLPU5Z63RXC43PT6QJE2YQJL", "current_trial": 122, "dateTime": 1512762401478, "trialdata": {"rt": -1, "stimulus": "<p id=\"stim\">6</p>", "key_press": -1, "trial_type": "single-stim", "trial_index": 122, "time_elapsed": 1301035, "internal_node_id": "0.0-91.0-4.0"}}, {"uniqueid": "MTK0824:34X6J5FLPU5Z63RXC43PT6QJE2YQJL", "current_trial": 123, "dateTime": 1512762402483, "trialdata": {"rt": -1, "stimulus": "<p id=\"stim\">5</p>", "key_press": -1, "trial_type": "single-stim", "trial_index": 123, "time_elapsed": 1302039, "internal_node_id": "0.0-91.0-5.0"}}, {"uniqueid": "MTK0824:34X6J5FLPU5Z63RXC43PT6QJE2YQJL", "current_trial": 124, "dateTime": 1512762403486, "trialdata": {"rt": -1, "stimulus": "<p id=\"stim\">4</p>", "key_press": -1, "trial_type": "single-stim", "trial_index": 124, "time_elapsed": 1303043, "internal_node_id": "0.0-91.0-6.0"}}, {"uniqueid": "MTK0824:34X6J5FLPU5Z63RXC43PT6QJE2YQJL", "current_trial": 125, "dateTime": 1512762404491, "trialdata": {"rt": -1, "stimulus": "<p id=\"stim\">3</p>", "key_press": -1, "trial_type": "single-stim", "trial_index": 125, "time_elapsed": 1304047, "internal_node_id": "0.0-91.0-7.0"}}, {"uniqueid": "MTK0824:34X6J5FLPU5Z63RXC43PT6QJE2YQJL", "current_trial": 126, "dateTime": 1512762405495, "trialdata": {"rt": -1, "stimulus": "<p id=\"stim\">2</p>", "key_press": -1, "trial_type": "single-stim", "trial_index": 126, "time_elapsed": 1305052, "internal_node_id": "0.0-91.0-8.0"}}, {"uniqueid": "MTK0824:34X6J5FLPU5Z63RXC43PT6QJE2YQJL", "current_trial": 127, "dateTime": 1512762406499, "trialdata": {"rt": -1, "stimulus": "<p id=\"stim\">1</p>", "key_press": -1, "trial_type": "single-stim", "trial_index": 127, "time_elapsed": 1306056, "internal_node_id": "0.0-91.0-9.0"}}, {"uniqueid": "MTK0824:34X6J5FLPU5Z63RXC43PT6QJE2YQJL", "current_trial": 128, "dateTime": 1512762408002, "trialdata": {"rt": -1, "stimulus": "<p id=\"stim\">+</p>", "key_press": -1, "type": "FIXATION", "trial_type": "single-stim", "trial_index": 128, "time_elapsed": 1307559, "internal_node_id": "0.0-92.0-0.0"}}, {"uniqueid": "MTK0824:34X6J5FLPU5Z63RXC43PT6QJE2YQJL", "current_trial": 129, "dateTime": 1512762408806, "trialdata": {"rt": -1, "stimulus": "<p id=\"stim\">SKIRT</p>", "key_press": -1, "type": "PRES_VIS", "word": "skirt", "wordID": 1318, "conditions": [12, 800, "v", 24000], "trial": 3, "serialpos": 0, "trial_type": "single-stim", "trial_index": 129, "time_elapsed": 1308363, "internal_node_id": "0.0-93.0"}}, {"uniqueid": "MTK0824:34X6J5FLPU5Z63RXC43PT6QJE2YQJL", "current_trial": 130, "dateTime": 1512762410608, "trialdata": {"rt": -1, "stimulus": "<p id=\"stim\">MONEY</p>", "key_press": -1, "type": "PRES_VIS", "word": "money", "wordID": 907, "conditions": [12, 800, "v", 24000], "trial": 3, "serialpos": 1, "trial_type": "single-stim", "trial_index": 130, "time_elapsed": 1310165, "internal_node_id": "0.0-94.0"}}, {"uniqueid": "MTK0824:34X6J5FLPU5Z63RXC43PT6QJE2YQJL", "current_trial": 131, "dateTime": 1512762412448, "trialdata": {"rt": -1, "stimulus": "<p id=\"stim\">POCKET</p>", "key_press": -1, "type": "PRES_VIS", "word": "pocket", "wordID": 1092, "conditions": [12, 800, "v", 24000], "trial": 3, "serialpos": 2, "trial_type": "single-stim", "trial_index": 131, "time_elapsed": 1312005, "internal_node_id": "0.0-95.0"}}, {"uniqueid": "MTK0824:34X6J5FLPU5Z63RXC43PT6QJE2YQJL", "current_trial": 132, "dateTime": 1512762414242, "trialdata": {"rt": -1, "stimulus": "<p id=\"stim\">FINGER</p>", "key_press": -1, "type": "PRES_VIS", "word": "finger", "wordID": 566, "conditions": [12, 800, "v", 24000], "trial": 3, "serialpos": 3, "trial_type": "single-stim", "trial_index": 132, "time_elapsed": 1313798, "internal_node_id": "0.0-96.0"}}, {"uniqueid": "MTK0824:34X6J5FLPU5Z63RXC43PT6QJE2YQJL", "current_trial": 133, "dateTime": 1512762415960, "trialdata": {"rt": -1, "stimulus": "<p id=\"stim\">BASEMENT</p>", "key_press": -1, "type": "PRES_VIS", "word": "basement", "wordID": 93, "conditions": [12, 800, "v", 24000], "trial": 3, "serialpos": 4, "trial_type": "single-stim", "trial_index": 133, "time_elapsed": 1315516, "internal_node_id": "0.0-97.0"}}, {"uniqueid": "MTK0824:34X6J5FLPU5Z63RXC43PT6QJE2YQJL", "current_trial": 134, "dateTime": 1512762417794, "trialdata": {"rt": -1, "stimulus": "<p id=\"stim\">ONION</p>", "key_press": -1, "type": "PRES_VIS", "word": "onion", "wordID": 976, "conditions": [12, 800, "v", 24000], "trial": 3, "serialpos": 5, "trial_type": "single-stim", "trial_index": 134, "time_elapsed": 1317350, "internal_node_id": "0.0-98.0"}}, {"uniqueid": "MTK0824:34X6J5FLPU5Z63RXC43PT6QJE2YQJL", "current_trial": 135, "dateTime": 1512762419575, "trialdata": {"rt": -1, "stimulus": "<p id=\"stim\">SCARECROW</p>", "key_press": -1, "type": "PRES_VIS", "word": "scarecrow", "wordID": 1244, "conditions": [12, 800, "v", 24000], "trial": 3, "serialpos": 6, "trial_type": "single-stim", "trial_index": 135, "time_elapsed": 1319132, "internal_node_id": "0.0-99.0"}}, {"uniqueid": "MTK0824:34X6J5FLPU5Z63RXC43PT6QJE2YQJL", "current_trial": 136, "dateTime": 1512762421421, "trialdata": {"rt": -1, "stimulus": "<p id=\"stim\">TERMITE</p>", "key_press": -1, "type": "PRES_VIS", "word": "termite", "wordID": 1450, "conditions": [12, 800, "v", 24000], "trial": 3, "serialpos": 7, "trial_type": "single-stim", "trial_index": 136, "time_elapsed": 1320978, "internal_node_id": "0.0-100.0"}}, {"uniqueid": "MTK0824:34X6J5FLPU5Z63RXC43PT6QJE2YQJL", "current_trial": 137, "dateTime": 1512762423296, "trialdata": {"rt": -1, "stimulus": "<p id=\"stim\">FUNGUS</p>", "key_press": -1, "type": "PRES_VIS", "word": "fungus", "wordID": 613, "conditions": [12, 800, "v", 24000], "trial": 3, "serialpos": 8, "trial_type": "single-stim", "trial_index": 137, "time_elapsed": 1322853, "internal_node_id": "0.0-101.0"}}, {"uniqueid": "MTK0824:34X6J5FLPU5Z63RXC43PT6QJE2YQJL", "current_trial": 138, "dateTime": 1512762425153, "trialdata": {"rt": -1, "stimulus": "<p id=\"stim\">CELLAR</p>", "key_press": -1, "type": "PRES_VIS", "word": "cellar", "wordID": 266, "conditions": [12, 800, "v", 24000], "trial": 3, "serialpos": 9, "trial_type": "single-stim", "trial_index": 138, "time_elapsed": 1324710, "internal_node_id": "0.0-102.0"}}, {"uniqueid": "MTK0824:34X6J5FLPU5Z63RXC43PT6QJE2YQJL", "current_trial": 139, "dateTime": 1512762426929, "trialdata": {"rt": -1, "stimulus": "<p id=\"stim\">LAMP</p>", "key_press": -1, "type": "PRES_VIS", "word": "lamp", "wordID": 797, "conditions": [12, 800, "v", 24000], "trial": 3, "serialpos": 10, "trial_type": "single-stim", "trial_index": 139, "time_elapsed": 1326486, "internal_node_id": "0.0-103.0"}}, {"uniqueid": "MTK0824:34X6J5FLPU5Z63RXC43PT6QJE2YQJL", "current_trial": 140, "dateTime": 1512762428839, "trialdata": {"rt": -1, "stimulus": "<p id=\"stim\">CIGAR</p>", "key_press": -1, "type": "PRES_VIS", "word": "cigar", "wordID": 307, "conditions": [12, 800, "v", 24000], "trial": 3, "serialpos": 11, "trial_type": "single-stim", "trial_index": 140, "time_elapsed": 1328396, "internal_node_id": "0.0-104.0"}}, {"uniqueid": "MTK0824:34X6J5FLPU5Z63RXC43PT6QJE2YQJL", "current_trial": 141, "dateTime": 1512762431248, "trialdata": {"rt": -1, "stimulus": "", "key_press": -1, "type": "PRE_RECALL_DELAY", "trial_type": "single-stim", "trial_index": 141, "time_elapsed": 1330804, "internal_node_id": "0.0-105.0-0.0"}}, {"uniqueid": "MTK0824:34X6J5FLPU5Z63RXC43PT6QJE2YQJL", "current_trial": 142, "dateTime": 1512762431749, "trialdata": {"rt": -1000, "stimulus": "/static/audio/400Hz.wav", "key_press": -1, "type": "PRE_RECALL_ALERT", "trial_type": "single-audio", "trial_index": 142, "time_elapsed": 1331306, "internal_node_id": "0.0-106.0"}}, {"uniqueid": "MTK0824:34X6J5FLPU5Z63RXC43PT6QJE2YQJL", "current_trial": 143, "dateTime": 1512762491760, "trialdata": {"rt": [2872, 4367, 7160, 8705, 11924], "recwords": ["lamp", "skirt", "pocket", "finger", "cigar"], "type": "FREE_RECALL", "conditions": [12, 800, "v", 24000], "trial": 3, "trial_type": "free-recall", "trial_index": 143, "time_elapsed": 1391313, "internal_node_id": "0.0-107.0-0.0"}}, {"uniqueid": "MTK0824:34X6J5FLPU5Z63RXC43PT6QJE2YQJL", "current_trial": 144, "dateTime": 1512762502711, "trialdata": {"rt": 8945, "key_press": 13, "type": "INSTRUCTIONS", "trial_type": "text", "trial_index": 144, "time_elapsed": 1402268, "internal_node_id": "0.0-108.0"}}, {"uniqueid": "MTK0824:34X6J5FLPU5Z63RXC43PT6QJE2YQJL", "current_trial": 145, "dateTime": 1512762516719, "trialdata": {"rt": [2381, 4427, 6248, 9006, 11579], "responses": ["12", "16", "11", "16", "12"], "num1": [7, 8, 4, 4, 1, 8], "num2": [3, 6, 1, 6, 6, 4], "num3": [2, 2, 6, 6, 5, 3], "type": "DISTRACTOR", "conditions": [24, 800, "v", 12000], "trial": 4, "trial_type": "math-distractor", "trial_index": 145, "time_elapsed": 1416276, "internal_node_id": "0.0-109.0"}}, {"uniqueid": "MTK0824:34X6J5FLPU5Z63RXC43PT6QJE2YQJL", "current_trial": 146, "dateTime": 1512762519726, "trialdata": {"rt": -1, "stimulus": "<p id=\"stim\">10</p>", "key_press": -1, "trial_type": "single-stim", "trial_index": 146, "time_elapsed": 1419282, "internal_node_id": "0.0-110.0-0.0"}}, {"uniqueid": "MTK0824:34X6J5FLPU5Z63RXC43PT6QJE2YQJL", "current_trial": 147, "dateTime": 1512762520730, "trialdata": {"rt": -1, "stimulus": "<p id=\"stim\">9</p>", "key_press": -1, "trial_type": "single-stim", "trial_index": 147, "time_elapsed": 1420287, "internal_node_id": "0.0-110.0-1.0"}}, {"uniqueid": "MTK0824:34X6J5FLPU5Z63RXC43PT6QJE2YQJL", "current_trial": 148, "dateTime": 1512762521734, "trialdata": {"rt": -1, "stimulus": "<p id=\"stim\">8</p>", "key_press": -1, "trial_type": "single-stim", "trial_index": 148, "time_elapsed": 1421291, "internal_node_id": "0.0-110.0-2.0"}}, {"uniqueid": "MTK0824:34X6J5FLPU5Z63RXC43PT6QJE2YQJL", "current_trial": 149, "dateTime": 1512762522738, "trialdata": {"rt": -1, "stimulus": "<p id=\"stim\">7</p>", "key_press": -1, "trial_type": "single-stim", "trial_index": 149, "time_elapsed": 1422295, "internal_node_id": "0.0-110.0-3.0"}}, {"uniqueid": "MTK0824:34X6J5FLPU5Z63RXC43PT6QJE2YQJL", "current_trial": 150, "dateTime": 1512762523742, "trialdata": {"rt": -1, "stimulus": "<p id=\"stim\">6</p>", "key_press": -1, "trial_type": "single-stim", "trial_index": 150, "time_elapsed": 1423299, "internal_node_id": "0.0-110.0-4.0"}}, {"uniqueid": "MTK0824:34X6J5FLPU5Z63RXC43PT6QJE2YQJL", "current_trial": 151, "dateTime": 1512762524746, "trialdata": {"rt": -1, "stimulus": "<p id=\"stim\">5</p>", "key_press": -1, "trial_type": "single-stim", "trial_index": 151, "time_elapsed": 1424303, "internal_node_id": "0.0-110.0-5.0"}}, {"uniqueid": "MTK0824:34X6J5FLPU5Z63RXC43PT6QJE2YQJL", "current_trial": 152, "dateTime": 1512762525750, "trialdata": {"rt": -1, "stimulus": "<p id=\"stim\">4</p>", "key_press": -1, "trial_type": "single-stim", "trial_index": 152, "time_elapsed": 1425307, "internal_node_id": "0.0-110.0-6.0"}}, {"uniqueid": "MTK0824:34X6J5FLPU5Z63RXC43PT6QJE2YQJL", "current_trial": 153, "dateTime": 1512762526754, "trialdata": {"rt": -1, "stimulus": "<p id=\"stim\">3</p>", "key_press": -1, "trial_type": "single-stim", "trial_index": 153, "time_elapsed": 1426311, "internal_node_id": "0.0-110.0-7.0"}}, {"uniqueid": "MTK0824:34X6J5FLPU5Z63RXC43PT6QJE2YQJL", "current_trial": 154, "dateTime": 1512762527758, "trialdata": {"rt": -1, "stimulus": "<p id=\"stim\">2</p>", "key_press": -1, "trial_type": "single-stim", "trial_index": 154, "time_elapsed": 1427315, "internal_node_id": "0.0-110.0-8.0"}}, {"uniqueid": "MTK0824:34X6J5FLPU5Z63RXC43PT6QJE2YQJL", "current_trial": 155, "dateTime": 1512762528762, "trialdata": {"rt": -1, "stimulus": "<p id=\"stim\">1</p>", "key_press": -1, "trial_type": "single-stim", "trial_index": 155, "time_elapsed": 1428319, "internal_node_id": "0.0-110.0-9.0"}}, {"uniqueid": "MTK0824:34X6J5FLPU5Z63RXC43PT6QJE2YQJL", "current_trial": 156, "dateTime": 1512762530266, "trialdata": {"rt": -1, "stimulus": "<p id=\"stim\">+</p>", "key_press": -1, "type": "FIXATION", "trial_type": "single-stim", "trial_index": 156, "time_elapsed": 1429822, "internal_node_id": "0.0-111.0-0.0"}}, {"uniqueid": "MTK0824:34X6J5FLPU5Z63RXC43PT6QJE2YQJL", "current_trial": 157, "dateTime": 1512762531067, "trialdata": {"rt": -1, "stimulus": "<p id=\"stim\">SERVER</p>", "key_press": -1, "type": "PRES_VIS", "word": "server", "wordID": 1271, "conditions": [24, 800, "v", 12000], "trial": 4, "serialpos": 0, "trial_type": "single-stim", "trial_index": 157, "time_elapsed": 1430624, "internal_node_id": "0.0-112.0"}}, {"uniqueid": "MTK0824:34X6J5FLPU5Z63RXC43PT6QJE2YQJL", "current_trial": 158, "dateTime": 1512762533017, "trialdata": {"rt": -1, "stimulus": "<p id=\"stim\">APRON</p>", "key_press": -1, "type": "PRES_VIS", "word": "apron", "wordID": 34, "conditions": [24, 800, "v", 12000], "trial": 4, "serialpos": 1, "trial_type": "single-stim", "trial_index": 158, "time_elapsed": 1432574, "internal_node_id": "0.0-113.0"}}, {"uniqueid": "MTK0824:34X6J5FLPU5Z63RXC43PT6QJE2YQJL", "current_trial": 159, "dateTime": 1512762534903, "trialdata": {"rt": -1, "stimulus": "<p id=\"stim\">KITCHEN</p>", "key_press": -1, "type": "PRES_VIS", "word": "kitchen", "wordID": 777, "conditions": [24, 800, "v", 12000], "trial": 4, "serialpos": 2, "trial_type": "single-stim", "trial_index": 159, "time_elapsed": 1434460, "internal_node_id": "0.0-114.0"}}, {"uniqueid": "MTK0824:34X6J5FLPU5Z63RXC43PT6QJE2YQJL", "current_trial": 160, "dateTime": 1512762536766, "trialdata": {"rt": -1, "stimulus": "<p id=\"stim\">CHAPEL</p>", "key_press": -1, "type": "PRES_VIS", "word": "chapel", "wordID": 279, "conditions": [24, 800, "v", 12000], "trial": 4, "serialpos": 3, "trial_type": "single-stim", "trial_index": 160, "time_elapsed": 1436323, "internal_node_id": "0.0-115.0"}}, {"uniqueid": "MTK0824:34X6J5FLPU5Z63RXC43PT6QJE2YQJL", "current_trial": 161, "dateTime": 1512762538531, "trialdata": {"rt": -1, "stimulus": "<p id=\"stim\">BANKER</p>", "key_press": -1, "type": "PRES_VIS", "word": "banker", "wordID": 83, "conditions": [24, 800, "v", 12000], "trial": 4, "serialpos": 4, "trial_type": "single-stim", "trial_index": 161, "time_elapsed": 1438088, "internal_node_id": "0.0-116.0"}}, {"uniqueid": "MTK0824:34X6J5FLPU5Z63RXC43PT6QJE2YQJL", "current_trial": 162, "dateTime": 1512762540284, "trialdata": {"rt": -1, "stimulus": "<p id=\"stim\">RUST</p>", "key_press": -1, "type": "PRES_VIS", "word": "rust", "wordID": 1218, "conditions": [24, 800, "v", 12000], "trial": 4, "serialpos": 5, "trial_type": "single-stim", "trial_index": 162, "time_elapsed": 1439840, "internal_node_id": "0.0-117.0"}}, {"uniqueid": "MTK0824:34X6J5FLPU5Z63RXC43PT6QJE2YQJL", "current_trial": 163, "dateTime": 1512762542089, "trialdata": {"rt": -1, "stimulus": "<p id=\"stim\">COMPASS</p>", "key_press": -1, "type": "PRES_VIS", "word": "compass", "wordID": 357, "conditions": [24, 800, "v", 12000], "trial": 4, "serialpos": 6, "trial_type": "single-stim", "trial_index": 163, "time_elapsed": 1441645, "internal_node_id": "0.0-118.0"}}, {"uniqueid": "MTK0824:34X6J5FLPU5Z63RXC43PT6QJE2YQJL", "current_trial": 164, "dateTime": 1512762543862, "trialdata": {"rt": -1, "stimulus": "<p id=\"stim\">TOURIST</p>", "key_press": -1, "type": "PRES_VIS", "word": "tourist", "wordID": 1487, "conditions": [24, 800, "v", 12000], "trial": 4, "serialpos": 7, "trial_type": "single-stim", "trial_index": 164, "time_elapsed": 1443419, "internal_node_id": "0.0-119.0"}}, {"uniqueid": "MTK0824:34X6J5FLPU5Z63RXC43PT6QJE2YQJL", "current_trial": 165, "dateTime": 1512762545554, "trialdata": {"rt": -1, "stimulus": "<p id=\"stim\">BANJO</p>", "key_press": -1, "type": "PRES_VIS", "word": "banjo", "wordID": 81, "conditions": [24, 800, "v", 12000], "trial": 4, "serialpos": 8, "trial_type": "single-stim", "trial_index": 165, "time_elapsed": 1445111, "internal_node_id": "0.0-120.0"}}, {"uniqueid": "MTK0824:34X6J5FLPU5Z63RXC43PT6QJE2YQJL", "current_trial": 166, "dateTime": 1512762547539, "trialdata": {"rt": -1, "stimulus": "<p id=\"stim\">STUDENT</p>", "key_press": -1, "type": "PRES_VIS", "word": "student", "wordID": 1394, "conditions": [24, 800, "v", 12000], "trial": 4, "serialpos": 9, "trial_type": "single-stim", "trial_index": 166, "time_elapsed": 1447096, "internal_node_id": "0.0-121.0"}}, {"uniqueid": "MTK0824:34X6J5FLPU5Z63RXC43PT6QJE2YQJL", "current_trial": 167, "dateTime": 1512762549396, "trialdata": {"rt": -1, "stimulus": "<p id=\"stim\">TEACHER</p>", "key_press": -1, "type": "PRES_VIS", "word": "teacher", "wordID": 1439, "conditions": [24, 800, "v", 12000], "trial": 4, "serialpos": 10, "trial_type": "single-stim", "trial_index": 167, "time_elapsed": 1448953, "internal_node_id": "0.0-122.0"}}, {"uniqueid": "MTK0824:34X6J5FLPU5Z63RXC43PT6QJE2YQJL", "current_trial": 168, "dateTime": 1512762551300, "trialdata": {"rt": -1, "stimulus": "<p id=\"stim\">FIDDLE</p>", "key_press": -1, "type": "PRES_VIS", "word": "fiddle", "wordID": 560, "conditions": [24, 800, "v", 12000], "trial": 4, "serialpos": 11, "trial_type": "single-stim", "trial_index": 168, "time_elapsed": 1450856, "internal_node_id": "0.0-123.0"}}, {"uniqueid": "MTK0824:34X6J5FLPU5Z63RXC43PT6QJE2YQJL", "current_trial": 169, "dateTime": 1512762552971, "trialdata": {"rt": -1, "stimulus": "<p id=\"stim\">DRAGON</p>", "key_press": -1, "type": "PRES_VIS", "word": "dragon", "wordID": 491, "conditions": [24, 800, "v", 12000], "trial": 4, "serialpos": 12, "trial_type": "single-stim", "trial_index": 169, "time_elapsed": 1452528, "internal_node_id": "0.0-124.0"}}, {"uniqueid": "MTK0824:34X6J5FLPU5Z63RXC43PT6QJE2YQJL", "current_trial": 170, "dateTime": 1512762554579, "trialdata": {"rt": -1, "stimulus": "<p id=\"stim\">CHEMIST</p>", "key_press": -1, "type": "PRES_VIS", "word": "chemist", "wordID": 291, "conditions": [24, 800, "v", 12000], "trial": 4, "serialpos": 13, "trial_type": "single-stim", "trial_index": 170, "time_elapsed": 1454136, "internal_node_id": "0.0-125.0"}}, {"uniqueid": "MTK0824:34X6J5FLPU5Z63RXC43PT6QJE2YQJL", "current_trial": 171, "dateTime": 1512762556442, "trialdata": {"rt": -1, "stimulus": "<p id=\"stim\">LEG</p>", "key_press": -1, "type": "PRES_VIS", "word": "leg", "wordID": 808, "conditions": [24, 800, "v", 12000], "trial": 4, "serialpos": 14, "trial_type": "single-stim", "trial_index": 171, "time_elapsed": 1455999, "internal_node_id": "0.0-126.0"}}, {"uniqueid": "MTK0824:34X6J5FLPU5Z63RXC43PT6QJE2YQJL", "current_trial": 172, "dateTime": 1512762558114, "trialdata": {"rt": -1, "stimulus": "<p id=\"stim\">SCRIBBLE</p>", "key_press": -1, "type": "PRES_VIS", "word": "scribble", "wordID": 1255, "conditions": [24, 800, "v", 12000], "trial": 4, "serialpos": 15, "trial_type": "single-stim", "trial_index": 172, "time_elapsed": 1457671, "internal_node_id": "0.0-127.0"}}, {"uniqueid": "MTK0824:34X6J5FLPU5Z63RXC43PT6QJE2YQJL", "current_trial": 173, "dateTime": 1512762560029, "trialdata": {"rt": -1, "stimulus": "<p id=\"stim\">DINER</p>", "key_press": -1, "type": "PRES_VIS", "word": "diner", "wordID": 466, "conditions": [24, 800, "v", 12000], "trial": 4, "serialpos": 16, "trial_type": "single-stim", "trial_index": 173, "time_elapsed": 1459586, "internal_node_id": "0.0-128.0"}}, {"uniqueid": "MTK0824:34X6J5FLPU5Z63RXC43PT6QJE2YQJL", "current_trial": 174, "dateTime": 1512762561904, "trialdata": {"rt": -1, "stimulus": "<p id=\"stim\">STOMACH</p>", "key_press": -1, "type": "PRES_VIS", "word": "stomach", "wordID": 1383, "conditions": [24, 800, "v", 12000], "trial": 4, "serialpos": 17, "trial_type": "single-stim", "trial_index": 174, "time_elapsed": 1461461, "internal_node_id": "0.0-129.0"}}, {"uniqueid": "MTK0824:34X6J5FLPU5Z63RXC43PT6QJE2YQJL", "current_trial": 175, "dateTime": 1512762563627, "trialdata": {"rt": -1, "stimulus": "<p id=\"stim\">CHEST</p>", "key_press": -1, "type": "PRES_VIS", "word": "chest", "wordID": 294, "conditions": [24, 800, "v", 12000], "trial": 4, "serialpos": 18, "trial_type": "single-stim", "trial_index": 175, "time_elapsed": 1463184, "internal_node_id": "0.0-130.0"}}, {"uniqueid": "MTK0824:34X6J5FLPU5Z63RXC43PT6QJE2YQJL", "current_trial": 176, "dateTime": 1512762565392, "trialdata": {"rt": -1, "stimulus": "<p id=\"stim\">SUNRISE</p>", "key_press": -1, "type": "PRES_VIS", "word": "sunrise", "wordID": 1406, "conditions": [24, 800, "v", 12000], "trial": 4, "serialpos": 19, "trial_type": "single-stim", "trial_index": 176, "time_elapsed": 1464949, "internal_node_id": "0.0-131.0"}}, {"uniqueid": "MTK0824:34X6J5FLPU5Z63RXC43PT6QJE2YQJL", "current_trial": 177, "dateTime": 1512762567151, "trialdata": {"rt": -1, "stimulus": "<p id=\"stim\">PIANO</p>", "key_press": -1, "type": "PRES_VIS", "word": "piano", "wordID": 1056, "conditions": [24, 800, "v", 12000], "trial": 4, "serialpos": 20, "trial_type": "single-stim", "trial_index": 177, "time_elapsed": 1466708, "internal_node_id": "0.0-132.0"}}, {"uniqueid": "MTK0824:34X6J5FLPU5Z63RXC43PT6QJE2YQJL", "current_trial": 178, "dateTime": 1512762568976, "trialdata": {"rt": -1, "stimulus": "<p id=\"stim\">WAITER</p>", "key_press": -1, "type": "PRES_VIS", "word": "waiter", "wordID": 1579, "conditions": [24, 800, "v", 12000], "trial": 4, "serialpos": 21, "trial_type": "single-stim", "trial_index": 178, "time_elapsed": 1468532, "internal_node_id": "0.0-133.0"}}, {"uniqueid": "MTK0824:34X6J5FLPU5Z63RXC43PT6QJE2YQJL", "current_trial": 179, "dateTime": 1512762570680, "trialdata": {"rt": -1, "stimulus": "<p id=\"stim\">OUTFIT</p>", "key_press": -1, "type": "PRES_VIS", "word": "outfit", "wordID": 987, "conditions": [24, 800, "v", 12000], "trial": 4, "serialpos": 22, "trial_type": "single-stim", "trial_index": 179, "time_elapsed": 1470236, "internal_node_id": "0.0-134.0"}}, {"uniqueid": "MTK0824:34X6J5FLPU5Z63RXC43PT6QJE2YQJL", "current_trial": 180, "dateTime": 1512762572647, "trialdata": {"rt": -1, "stimulus": "<p id=\"stim\">PRINCESS</p>", "key_press": -1, "type": "PRES_VIS", "word": "princess", "wordID": 1124, "conditions": [24, 800, "v", 12000], "trial": 4, "serialpos": 23, "trial_type": "single-stim", "trial_index": 180, "time_elapsed": 1472204, "internal_node_id": "0.0-135.0"}}, {"uniqueid": "MTK0824:34X6J5FLPU5Z63RXC43PT6QJE2YQJL", "current_trial": 181, "dateTime": 1512762574876, "trialdata": {"rt": -1, "stimulus": "", "key_press": -1, "type": "PRE_RECALL_DELAY", "trial_type": "single-stim", "trial_index": 181, "time_elapsed": 1474433, "internal_node_id": "0.0-136.0-0.0"}}, {"uniqueid": "MTK0824:34X6J5FLPU5Z63RXC43PT6QJE2YQJL", "current_trial": 182, "dateTime": 1512762575378, "trialdata": {"rt": -1000, "stimulus": "/static/audio/400Hz.wav", "key_press": -1, "type": "PRE_RECALL_ALERT", "trial_type": "single-audio", "trial_index": 182, "time_elapsed": 1474935, "internal_node_id": "0.0-137.0"}}, {"uniqueid": "MTK0824:34X6J5FLPU5Z63RXC43PT6QJE2YQJL", "current_trial": 183, "dateTime": 1512762635386, "trialdata": {"rt": [1881, 3173, 6546, 7663, 9061, 11121, 12833, 16039], "recwords": ["server", "waiter", "kitchen", "diner", "student", "teacher", "chemist", "piano"], "type": "FREE_RECALL", "conditions": [24, 800, "v", 12000], "trial": 4, "trial_type": "free-recall", "trial_index": 183, "time_elapsed": 1534940, "internal_node_id": "0.0-138.0-0.0"}}, {"uniqueid": "MTK0824:34X6J5FLPU5Z63RXC43PT6QJE2YQJL", "current_trial": 184, "dateTime": 1512762641697, "trialdata": {"rt": 4307, "key_press": 13, "type": "INSTRUCTIONS", "trial_type": "text", "trial_index": 184, "time_elapsed": 1541254, "internal_node_id": "0.0-139.0"}}, {"uniqueid": "MTK0824:34X6J5FLPU5Z63RXC43PT6QJE2YQJL", "current_trial": 185, "dateTime": 1512762655703, "trialdata": {"rt": [2651, 5200, 6910, 9581], "responses": ["16", "21", "12", "18"], "num1": [4, 8, 2, 7, 7], "num2": [3, 4, 8, 9, 2], "num3": [9, 9, 2, 2, 4], "type": "DISTRACTOR", "conditions": [12, 1600, "a", 12000], "trial": 5, "trial_type": "math-distractor", "trial_index": 185, "time_elapsed": 1555260, "internal_node_id": "0.0-140.0"}}, {"uniqueid": "MTK0824:34X6J5FLPU5Z63RXC43PT6QJE2YQJL", "current_trial": 186, "dateTime": 1512762658709, "trialdata": {"rt": -1, "stimulus": "<p id=\"stim\">10</p>", "key_press": -1, "trial_type": "single-stim", "trial_index": 186, "time_elapsed": 1558266, "internal_node_id": "0.0-141.0-0.0"}}, {"uniqueid": "MTK0824:34X6J5FLPU5Z63RXC43PT6QJE2YQJL", "current_trial": 187, "dateTime": 1512762659713, "trialdata": {"rt": -1, "stimulus": "<p id=\"stim\">9</p>", "key_press": -1, "trial_type": "single-stim", "trial_index": 187, "time_elapsed": 1559270, "internal_node_id": "0.0-141.0-1.0"}}, {"uniqueid": "MTK0824:34X6J5FLPU5Z63RXC43PT6QJE2YQJL", "current_trial": 188, "dateTime": 1512762660807, "trialdata": {"rt": -1, "stimulus": "<p id=\"stim\">8</p>", "key_press": -1, "trial_type": "single-stim", "trial_index": 188, "time_elapsed": 1560363, "internal_node_id": "0.0-141.0-2.0"}}, {"uniqueid": "MTK0824:34X6J5FLPU5Z63RXC43PT6QJE2YQJL", "current_trial": 189, "dateTime": 1512762662806, "trialdata": {"rt": -1, "stimulus": "<p id=\"stim\">7</p>", "key_press": -1, "trial_type": "single-stim", "trial_index": 189, "time_elapsed": 1562363, "internal_node_id": "0.0-141.0-3.0"}}, {"uniqueid": "MTK0824:34X6J5FLPU5Z63RXC43PT6QJE2YQJL", "current_trial": 190, "dateTime": 1512762663808, "trialdata": {"rt": -1, "stimulus": "<p id=\"stim\">6</p>", "key_press": -1, "trial_type": "single-stim", "trial_index": 190, "time_elapsed": 1563365, "internal_node_id": "0.0-141.0-4.0"}}, {"uniqueid": "MTK0824:34X6J5FLPU5Z63RXC43PT6QJE2YQJL", "current_trial": 191, "dateTime": 1512762664810, "trialdata": {"rt": -1, "stimulus": "<p id=\"stim\">5</p>", "key_press": -1, "trial_type": "single-stim", "trial_index": 191, "time_elapsed": 1564367, "internal_node_id": "0.0-141.0-5.0"}}, {"uniqueid": "MTK0824:34X6J5FLPU5Z63RXC43PT6QJE2YQJL", "current_trial": 192, "dateTime": 1512762665811, "trialdata": {"rt": -1, "stimulus": "<p id=\"stim\">4</p>", "key_press": -1, "trial_type": "single-stim", "trial_index": 192, "time_elapsed": 1565368, "internal_node_id": "0.0-141.0-6.0"}}, {"uniqueid": "MTK0824:34X6J5FLPU5Z63RXC43PT6QJE2YQJL", "current_trial": 193, "dateTime": 1512762666812, "trialdata": {"rt": -1, "stimulus": "<p id=\"stim\">3</p>", "key_press": -1, "trial_type": "single-stim", "trial_index": 193, "time_elapsed": 1566369, "internal_node_id": "0.0-141.0-7.0"}}, {"uniqueid": "MTK0824:34X6J5FLPU5Z63RXC43PT6QJE2YQJL", "current_trial": 194, "dateTime": 1512762667814, "trialdata": {"rt": -1, "stimulus": "<p id=\"stim\">2</p>", "key_press": -1, "trial_type": "single-stim", "trial_index": 194, "time_elapsed": 1567371, "internal_node_id": "0.0-141.0-8.0"}}, {"uniqueid": "MTK0824:34X6J5FLPU5Z63RXC43PT6QJE2YQJL", "current_trial": 195, "dateTime": 1512762668816, "trialdata": {"rt": -1, "stimulus": "<p id=\"stim\">1</p>", "key_press": -1, "trial_type": "single-stim", "trial_index": 195, "time_elapsed": 1568373, "internal_node_id": "0.0-141.0-9.0"}}, {"uniqueid": "MTK0824:34X6J5FLPU5Z63RXC43PT6QJE2YQJL", "current_trial": 196, "dateTime": 1512762670318, "trialdata": {"rt": -1, "stimulus": "<p id=\"stim\">+</p>", "key_press": -1, "type": "FIXATION", "trial_type": "single-stim", "trial_index": 196, "time_elapsed": 1569874, "internal_node_id": "0.0-142.0-0.0"}}, {"uniqueid": "MTK0824:34X6J5FLPU5Z63RXC43PT6QJE2YQJL", "current_trial": 197, "dateTime": 1512762672958, "trialdata": {"rt": -1000, "stimulus": "/static/audio/wordpool/GLASS.wav", "key_press": -1, "type": "PRES_AUD", "word": "glass", "wordID": 638, "conditions": [12, 1600, "a", 12000], "trial": 5, "serialpos": 0, "trial_type": "single-audio", "trial_index": 197, "time_elapsed": 1572515, "internal_node_id": "0.0-143.0"}}, {"uniqueid": "MTK0824:34X6J5FLPU5Z63RXC43PT6QJE2YQJL", "current_trial": 198, "dateTime": 1512762675658, "trialdata": {"rt": -1000, "stimulus": "/static/audio/wordpool/STOVE.wav", "key_press": -1, "type": "PRES_AUD", "word": "stove", "wordID": 1387, "conditions": [12, 1600, "a", 12000], "trial": 5, "serialpos": 1, "trial_type": "single-audio", "trial_index": 198, "time_elapsed": 1575214, "internal_node_id": "0.0-144.0"}}, {"uniqueid": "MTK0824:34X6J5FLPU5Z63RXC43PT6QJE2YQJL", "current_trial": 199, "dateTime": 1512762678270, "trialdata": {"rt": -1000, "stimulus": "/static/audio/wordpool/CRICKET.wav", "key_press": -1, "type": "PRES_AUD", "word": "cricket", "wordID": 407, "conditions": [12, 1600, "a", 12000], "trial": 5, "serialpos": 2, "trial_type": "single-audio", "trial_index": 199, "time_elapsed": 1577827, "internal_node_id": "0.0-145.0"}}, {"uniqueid": "MTK0824:34X6J5FLPU5Z63RXC43PT6QJE2YQJL", "current_trial": 200, "dateTime": 1512762680863, "trialdata": {"rt": -1000, "stimulus": "/static/audio/wordpool/ZIPPER.wav", "key_press": -1, "type": "PRES_AUD", "word": "zipper", "wordID": 1635, "conditions": [12, 1600, "a", 12000], "trial": 5, "serialpos": 3, "trial_type": "single-audio", "trial_index": 200, "time_elapsed": 1580420, "internal_node_id": "0.0-146.0"}}, {"uniqueid": "MTK0824:34X6J5FLPU5Z63RXC43PT6QJE2YQJL", "current_trial": 201, "dateTime": 1512762683616, "trialdata": {"rt": -1000, "stimulus": "/static/audio/wordpool/YACHT.wav", "key_press": -1, "type": "PRES_AUD", "word": "yacht", "wordID": 1628, "conditions": [12, 1600, "a", 12000], "trial": 5, "serialpos": 4, "trial_type": "single-audio", "trial_index": 201, "time_elapsed": 1583173, "internal_node_id": "0.0-147.0"}}, {"uniqueid": "MTK0824:34X6J5FLPU5Z63RXC43PT6QJE2YQJL", "current_trial": 202, "dateTime": 1512762686037, "trialdata": {"rt": -1000, "stimulus": "/static/audio/wordpool/SPIDER.wav", "key_press": -1, "type": "PRES_AUD", "word": "spider", "wordID": 1350, "conditions": [12, 1600, "a", 12000], "trial": 5, "serialpos": 5, "trial_type": "single-audio", "trial_index": 202, "time_elapsed": 1585594, "internal_node_id": "0.0-148.0"}}, {"uniqueid": "MTK0824:34X6J5FLPU5Z63RXC43PT6QJE2YQJL", "current_trial": 203, "dateTime": 1512762688632, "trialdata": {"rt": -1000, "stimulus": "/static/audio/wordpool/WASP.wav", "key_press": -1, "type": "PRES_AUD", "word": "wasp", "wordID": 1592, "conditions": [12, 1600, "a", 12000], "trial": 5, "serialpos": 6, "trial_type": "single-audio", "trial_index": 203, "time_elapsed": 1588189, "internal_node_id": "0.0-149.0"}}, {"uniqueid": "MTK0824:34X6J5FLPU5Z63RXC43PT6QJE2YQJL", "current_trial": 204, "dateTime": 1512762691221, "trialdata": {"rt": -1000, "stimulus": "/static/audio/wordpool/GRAVEL.wav", "key_press": -1, "type": "PRES_AUD", "word": "gravel", "wordID": 658, "conditions": [12, 1600, "a", 12000], "trial": 5, "serialpos": 7, "trial_type": "single-audio", "trial_index": 204, "time_elapsed": 1590778, "internal_node_id": "0.0-150.0"}}, {"uniqueid": "MTK0824:34X6J5FLPU5Z63RXC43PT6QJE2YQJL", "current_trial": 205, "dateTime": 1512762693648, "trialdata": {"rt": -1000, "stimulus": "/static/audio/wordpool/FIREPLACE.wav", "key_press": -1, "type": "PRES_AUD", "word": "fireplace", "wordID": 569, "conditions": [12, 1600, "a", 12000], "trial": 5, "serialpos": 8, "trial_type": "single-audio", "trial_index": 205, "time_elapsed": 1593204, "internal_node_id": "0.0-151.0"}}, {"uniqueid": "MTK0824:34X6J5FLPU5Z63RXC43PT6QJE2YQJL", "current_trial": 206, "dateTime": 1512762696173, "trialdata": {"rt": -1000, "stimulus": "/static/audio/wordpool/CHURCH.wav", "key_press": -1, "type": "PRES_AUD", "word": "church", "wordID": 306, "conditions": [12, 1600, "a", 12000], "trial": 5, "serialpos": 9, "trial_type": "single-audio", "trial_index": 206, "time_elapsed": 1595730, "internal_node_id": "0.0-152.0"}}, {"uniqueid": "MTK0824:34X6J5FLPU5Z63RXC43PT6QJE2YQJL", "current_trial": 207, "dateTime": 1512762698907, "trialdata": {"rt": -1000, "stimulus": "/static/audio/wordpool/BRANCH.wav", "key_press": -1, "type": "PRES_AUD", "word": "branch", "wordID": 167, "conditions": [12, 1600, "a", 12000], "trial": 5, "serialpos": 10, "trial_type": "single-audio", "trial_index": 207, "time_elapsed": 1598464, "internal_node_id": "0.0-153.0"}}, {"uniqueid": "MTK0824:34X6J5FLPU5Z63RXC43PT6QJE2YQJL", "current_trial": 208, "dateTime": 1512762701467, "trialdata": {"rt": -1000, "stimulus": "/static/audio/wordpool/CRIB.wav", "key_press": -1, "type": "PRES_AUD", "word": "crib", "wordID": 406, "conditions": [12, 1600, "a", 12000], "trial": 5, "serialpos": 11, "trial_type": "single-audio", "trial_index": 208, "time_elapsed": 1601024, "internal_node_id": "0.0-154.0"}}, {"uniqueid": "MTK0824:34X6J5FLPU5Z63RXC43PT6QJE2YQJL", "current_trial": 209, "dateTime": 1512762702675, "trialdata": {"rt": -1, "stimulus": "", "key_press": -1, "type": "PRE_RECALL_DELAY", "trial_type": "single-stim", "trial_index": 209, "time_elapsed": 1602231, "internal_node_id": "0.0-155.0-0.0"}}, {"uniqueid": "MTK0824:34X6J5FLPU5Z63RXC43PT6QJE2YQJL", "current_trial": 210, "dateTime": 1512762703176, "trialdata": {"rt": -1000, "stimulus": "/static/audio/400Hz.wav", "key_press": -1, "type": "PRE_RECALL_ALERT", "trial_type": "single-audio", "trial_index": 210, "time_elapsed": 1602733, "internal_node_id": "0.0-156.0"}}, {"uniqueid": "MTK0824:34X6J5FLPU5Z63RXC43PT6QJE2YQJL", "current_trial": 211, "dateTime": 1512762763186, "trialdata": {"rt": [1916, 4180, 7347, 8913, 10381], "recwords": ["crib", "fireplace", "cricket", "glass", "stove"], "type": "FREE_RECALL", "conditions": [12, 1600, "a", 12000], "trial": 5, "trial_type": "free-recall", "trial_index": 211, "time_elapsed": 1662740, "internal_node_id": "0.0-157.0-0.0"}}, {"uniqueid": "MTK0824:34X6J5FLPU5Z63RXC43PT6QJE2YQJL", "current_trial": 212, "dateTime": 1512762768022, "trialdata": {"rt": 2832, "key_press": 13, "type": "INSTRUCTIONS", "trial_type": "text", "trial_index": 212, "time_elapsed": 1667579, "internal_node_id": "0.0-158.0"}}, {"uniqueid": "MTK0824:34X6J5FLPU5Z63RXC43PT6QJE2YQJL", "current_trial": 213, "dateTime": 1512762794032, "trialdata": {"rt": [3567, 5527, 7542, 9623, 12090, 15027, 17704, 19845, 22169, 23889], "responses": ["19", "11", "19", "21", "20", "18", "8", "8", "17", "12"], "num1": [7, 5, 7, 9, 7, 3, 2, 1, 9, 2, 8], "num2": [9, 3, 8, 4, 6, 6, 3, 5, 3, 1, 1], "num3": [3, 3, 4, 8, 7, 9, 3, 2, 5, 9, 2], "type": "DISTRACTOR", "conditions": [24, 1600, "v", 24000], "trial": 6, "trial_type": "math-distractor", "trial_index": 213, "time_elapsed": 1693588, "internal_node_id": "0.0-159.0"}}, {"uniqueid": "MTK0824:34X6J5FLPU5Z63RXC43PT6QJE2YQJL", "current_trial": 214, "dateTime": 1512762797038, "trialdata": {"rt": -1, "stimulus": "<p id=\"stim\">10</p>", "key_press": -1, "trial_type": "single-stim", "trial_index": 214, "time_elapsed": 1696595, "internal_node_id": "0.0-160.0-0.0"}}, {"uniqueid": "MTK0824:34X6J5FLPU5Z63RXC43PT6QJE2YQJL", "current_trial": 215, "dateTime": 1512762798042, "trialdata": {"rt": -1, "stimulus": "<p id=\"stim\">9</p>", "key_press": -1, "trial_type": "single-stim", "trial_index": 215, "time_elapsed": 1697599, "internal_node_id": "0.0-160.0-1.0"}}, {"uniqueid": "MTK0824:34X6J5FLPU5Z63RXC43PT6QJE2YQJL", "current_trial": 216, "dateTime": 1512762799046, "trialdata": {"rt": -1, "stimulus": "<p id=\"stim\">8</p>", "key_press": -1, "trial_type": "single-stim", "trial_index": 216, "time_elapsed": 1698603, "internal_node_id": "0.0-160.0-2.0"}}, {"uniqueid": "MTK0824:34X6J5FLPU5Z63RXC43PT6QJE2YQJL", "current_trial": 217, "dateTime": 1512762800050, "trialdata": {"rt": -1, "stimulus": "<p id=\"stim\">7</p>", "key_press": -1, "trial_type": "single-stim", "trial_index": 217, "time_elapsed": 1699607, "internal_node_id": "0.0-160.0-3.0"}}, {"uniqueid": "MTK0824:34X6J5FLPU5Z63RXC43PT6QJE2YQJL", "current_trial": 218, "dateTime": 1512762801054, "trialdata": {"rt": -1, "stimulus": "<p id=\"stim\">6</p>", "key_press": -1, "trial_type": "single-stim", "trial_index": 218, "time_elapsed": 1700611, "internal_node_id": "0.0-160.0-4.0"}}, {"uniqueid": "MTK0824:34X6J5FLPU5Z63RXC43PT6QJE2YQJL", "current_trial": 219, "dateTime": 1512762802058, "trialdata": {"rt": -1, "stimulus": "<p id=\"stim\">5</p>", "key_press": -1, "trial_type": "single-stim", "trial_index": 219, "time_elapsed": 1701615, "internal_node_id": "0.0-160.0-5.0"}}, {"uniqueid": "MTK0824:34X6J5FLPU5Z63RXC43PT6QJE2YQJL", "current_trial": 220, "dateTime": 1512762803064, "trialdata": {"rt": -1, "stimulus": "<p id=\"stim\">4</p>", "key_press": -1, "trial_type": "single-stim", "trial_index": 220, "time_elapsed": 1702621, "internal_node_id": "0.0-160.0-6.0"}}, {"uniqueid": "MTK0824:34X6J5FLPU5Z63RXC43PT6QJE2YQJL", "current_trial": 221, "dateTime": 1512762804067, "trialdata": {"rt": -1, "stimulus": "<p id=\"stim\">3</p>", "key_press": -1, "trial_type": "single-stim", "trial_index": 221, "time_elapsed": 1703623, "internal_node_id": "0.0-160.0-7.0"}}, {"uniqueid": "MTK0824:34X6J5FLPU5Z63RXC43PT6QJE2YQJL", "current_trial": 222, "dateTime": 1512762805071, "trialdata": {"rt": -1, "stimulus": "<p id=\"stim\">2</p>", "key_press": -1, "trial_type": "single-stim", "trial_index": 222, "time_elapsed": 1704627, "internal_node_id": "0.0-160.0-8.0"}}, {"uniqueid": "MTK0824:34X6J5FLPU5Z63RXC43PT6QJE2YQJL", "current_trial": 223, "dateTime": 1512762806075, "trialdata": {"rt": -1, "stimulus": "<p id=\"stim\">1</p>", "key_press": -1, "trial_type": "single-stim", "trial_index": 223, "time_elapsed": 1705631, "internal_node_id": "0.0-160.0-9.0"}}, {"uniqueid": "MTK0824:34X6J5FLPU5Z63RXC43PT6QJE2YQJL", "current_trial": 224, "dateTime": 1512762807578, "trialdata": {"rt": -1, "stimulus": "<p id=\"stim\">+</p>", "key_press": -1, "type": "FIXATION", "trial_type": "single-stim", "trial_index": 224, "time_elapsed": 1707135, "internal_node_id": "0.0-161.0-0.0"}}, {"uniqueid": "MTK0824:34X6J5FLPU5Z63RXC43PT6QJE2YQJL", "current_trial": 225, "dateTime": 1512762809180, "trialdata": {"rt": -1, "stimulus": "<p id=\"stim\">APPLE</p>", "key_press": -1, "type": "PRES_VIS", "word": "apple", "wordID": 32, "conditions": [24, 1600, "v", 24000], "trial": 6, "serialpos": 0, "trial_type": "single-stim", "trial_index": 225, "time_elapsed": 1708737, "internal_node_id": "0.0-162.0"}}, {"uniqueid": "MTK0824:34X6J5FLPU5Z63RXC43PT6QJE2YQJL", "current_trial": 226, "dateTime": 1512762811832, "trialdata": {"rt": -1, "stimulus": "<p id=\"stim\">SIDEWALK</p>", "key_press": -1, "type": "PRES_VIS", "word": "sidewalk", "wordID": 1302, "conditions": [24, 1600, "v", 24000], "trial": 6, "serialpos": 1, "trial_type": "single-stim", "trial_index": 226, "time_elapsed": 1711389, "internal_node_id": "0.0-163.0"}}, {"uniqueid": "MTK0824:34X6J5FLPU5Z63RXC43PT6QJE2YQJL", "current_trial": 227, "dateTime": 1512762814497, "trialdata": {"rt": -1, "stimulus": "<p id=\"stim\">SHELF</p>", "key_press": -1, "type": "PRES_VIS", "word": "shelf", "wordID": 1279, "conditions": [24, 1600, "v", 24000], "trial": 6, "serialpos": 2, "trial_type": "single-stim", "trial_index": 227, "time_elapsed": 1714053, "internal_node_id": "0.0-164.0"}}, {"uniqueid": "MTK0824:34X6J5FLPU5Z63RXC43PT6QJE2YQJL", "current_trial": 228, "dateTime": 1512762816911, "trialdata": {"rt": -1, "stimulus": "<p id=\"stim\">PEACH</p>", "key_press": -1, "type": "PRES_VIS", "word": "peach", "wordID": 1030, "conditions": [24, 1600, "v", 24000], "trial": 6, "serialpos": 3, "trial_type": "single-stim", "trial_index": 228, "time_elapsed": 1716468, "internal_node_id": "0.0-165.0"}}, {"uniqueid": "MTK0824:34X6J5FLPU5Z63RXC43PT6QJE2YQJL", "current_trial": 229, "dateTime": 1512762819587, "trialdata": {"rt": -1, "stimulus": "<p id=\"stim\">LIGHTNING</p>", "key_press": -1, "type": "PRES_VIS", "word": "lightning", "wordID": 819, "conditions": [24, 1600, "v", 24000], "trial": 6, "serialpos": 4, "trial_type": "single-stim", "trial_index": 229, "time_elapsed": 1719144, "internal_node_id": "0.0-166.0"}}, {"uniqueid": "MTK0824:34X6J5FLPU5Z63RXC43PT6QJE2YQJL", "current_trial": 230, "dateTime": 1512762822059, "trialdata": {"rt": -1, "stimulus": "<p id=\"stim\">FIREMAN</p>", "key_press": -1, "type": "PRES_VIS", "word": "fireman", "wordID": 568, "conditions": [24, 1600, "v", 24000], "trial": 6, "serialpos": 5, "trial_type": "single-stim", "trial_index": 230, "time_elapsed": 1721616, "internal_node_id": "0.0-167.0"}}, {"uniqueid": "MTK0824:34X6J5FLPU5Z63RXC43PT6QJE2YQJL", "current_trial": 231, "dateTime": 1512762824526, "trialdata": {"rt": -1, "stimulus": "<p id=\"stim\">PASTRY</p>", "key_press": -1, "type": "PRES_VIS", "word": "pastry", "wordID": 1021, "conditions": [24, 1600, "v", 24000], "trial": 6, "serialpos": 6, "trial_type": "single-stim", "trial_index": 231, "time_elapsed": 1724083, "internal_node_id": "0.0-168.0"}}, {"uniqueid": "MTK0824:34X6J5FLPU5Z63RXC43PT6QJE2YQJL", "current_trial": 232, "dateTime": 1512762827103, "trialdata": {"rt": -1, "stimulus": "<p id=\"stim\">SHORTCAKE</p>", "key_press": -1, "type": "PRES_VIS", "word": "shortcake", "wordID": 1291, "conditions": [24, 1600, "v", 24000], "trial": 6, "serialpos": 7, "trial_type": "single-stim", "trial_index": 232, "time_elapsed": 1726660, "internal_node_id": "0.0-169.0"}}, {"uniqueid": "MTK0824:34X6J5FLPU5Z63RXC43PT6QJE2YQJL", "current_trial": 233, "dateTime": 1512762829523, "trialdata": {"rt": -1, "stimulus": "<p id=\"stim\">CATCHER</p>", "key_press": -1, "type": "PRES_VIS", "word": "catcher", "wordID": 257, "conditions": [24, 1600, "v", 24000], "trial": 6, "serialpos": 8, "trial_type": "single-stim", "trial_index": 233, "time_elapsed": 1729080, "internal_node_id": "0.0-170.0"}}, {"uniqueid": "MTK0824:34X6J5FLPU5Z63RXC43PT6QJE2YQJL", "current_trial": 234, "dateTime": 1512762832065, "trialdata": {"rt": -1, "stimulus": "<p id=\"stim\">LONDON</p>", "key_press": -1, "type": "PRES_VIS", "word": "london", "wordID": 842, "conditions": [24, 1600, "v", 24000], "trial": 6, "serialpos": 9, "trial_type": "single-stim", "trial_index": 234, "time_elapsed": 1731622, "internal_node_id": "0.0-171.0"}}, {"uniqueid": "MTK0824:34X6J5FLPU5Z63RXC43PT6QJE2YQJL", "current_trial": 235, "dateTime": 1512762834538, "trialdata": {"rt": -1, "stimulus": "<p id=\"stim\">POET</p>", "key_press": -1, "type": "PRES_VIS", "word": "poet", "wordID": 1094, "conditions": [24, 1600, "v", 24000], "trial": 6, "serialpos": 10, "trial_type": "single-stim", "trial_index": 235, "time_elapsed": 1734095, "internal_node_id": "0.0-172.0"}}, {"uniqueid": "MTK0824:34X6J5FLPU5Z63RXC43PT6QJE2YQJL", "current_trial": 236, "dateTime": 1512762837249, "trialdata": {"rt": -1, "stimulus": "<p id=\"stim\">TART</p>", "key_press": -1, "type": "PRES_VIS", "word": "tart", "wordID": 1435, "conditions": [24, 1600, "v", 24000], "trial": 6, "serialpos": 11, "trial_type": "single-stim", "trial_index": 236, "time_elapsed": 1736805, "internal_node_id": "0.0-173.0"}}, {"uniqueid": "MTK0824:34X6J5FLPU5Z63RXC43PT6QJE2YQJL", "current_trial": 237, "dateTime": 1512762839874, "trialdata": {"rt": -1, "stimulus": "<p id=\"stim\">FLUTE</p>", "key_press": -1, "type": "PRES_VIS", "word": "flute", "wordID": 584, "conditions": [24, 1600, "v", 24000], "trial": 6, "serialpos": 12, "trial_type": "single-stim", "trial_index": 237, "time_elapsed": 1739431, "internal_node_id": "0.0-174.0"}}, {"uniqueid": "MTK0824:34X6J5FLPU5Z63RXC43PT6QJE2YQJL", "current_trial": 238, "dateTime": 1512762842559, "trialdata": {"rt": -1, "stimulus": "<p id=\"stim\">GIFT</p>", "key_press": -1, "type": "PRES_VIS", "word": "gift", "wordID": 634, "conditions": [24, 1600, "v", 24000], "trial": 6, "serialpos": 13, "trial_type": "single-stim", "trial_index": 238, "time_elapsed": 1742116, "internal_node_id": "0.0-175.0"}}, {"uniqueid": "MTK0824:34X6J5FLPU5Z63RXC43PT6QJE2YQJL", "current_trial": 239, "dateTime": 1512762845084, "trialdata": {"rt": -1, "stimulus": "<p id=\"stim\">ZEBRA</p>", "key_press": -1, "type": "PRES_VIS", "word": "zebra", "wordID": 1634, "conditions": [24, 1600, "v", 24000], "trial": 6, "serialpos": 14, "trial_type": "single-stim", "trial_index": 239, "time_elapsed": 1744641, "internal_node_id": "0.0-176.0"}}, {"uniqueid": "MTK0824:34X6J5FLPU5Z63RXC43PT6QJE2YQJL", "current_trial": 240, "dateTime": 1512762847580, "trialdata": {"rt": -1, "stimulus": "<p id=\"stim\">COCOON</p>", "key_press": -1, "type": "PRES_VIS", "word": "cocoon", "wordID": 338, "conditions": [24, 1600, "v", 24000], "trial": 6, "serialpos": 15, "trial_type": "single-stim", "trial_index": 240, "time_elapsed": 1747137, "internal_node_id": "0.0-177.0"}}, {"uniqueid": "MTK0824:34X6J5FLPU5Z63RXC43PT6QJE2YQJL", "current_trial": 241, "dateTime": 1512762850220, "trialdata": {"rt": -1, "stimulus": "<p id=\"stim\">HAWK</p>", "key_press": -1, "type": "PRES_VIS", "word": "hawk", "wordID": 691, "conditions": [24, 1600, "v", 24000], "trial": 6, "serialpos": 16, "trial_type": "single-stim", "trial_index": 241, "time_elapsed": 1749777, "internal_node_id": "0.0-178.0"}}, {"uniqueid": "MTK0824:34X6J5FLPU5Z63RXC43PT6QJE2YQJL", "current_trial": 242, "dateTime": 1512762852792, "trialdata": {"rt": -1, "stimulus": "<p id=\"stim\">LOVER</p>", "key_press": -1, "type": "PRES_VIS", "word": "lover", "wordID": 845, "conditions": [24, 1600, "v", 24000], "trial": 6, "serialpos": 17, "trial_type": "single-stim", "trial_index": 242, "time_elapsed": 1752349, "internal_node_id": "0.0-179.0"}}, {"uniqueid": "MTK0824:34X6J5FLPU5Z63RXC43PT6QJE2YQJL", "current_trial": 243, "dateTime": 1512762855311, "trialdata": {"rt": -1, "stimulus": "<p id=\"stim\">CRAB</p>", "key_press": -1, "type": "PRES_VIS", "word": "crab", "wordID": 396, "conditions": [24, 1600, "v", 24000], "trial": 6, "serialpos": 18, "trial_type": "single-stim", "trial_index": 243, "time_elapsed": 1754868, "internal_node_id": "0.0-180.0"}}, {"uniqueid": "MTK0824:34X6J5FLPU5Z63RXC43PT6QJE2YQJL", "current_trial": 244, "dateTime": 1512762857801, "trialdata": {"rt": -1, "stimulus": "<p id=\"stim\">RABBIT</p>", "key_press": -1, "type": "PRES_VIS", "word": "rabbit", "wordID": 1151, "conditions": [24, 1600, "v", 24000], "trial": 6, "serialpos": 19, "trial_type": "single-stim", "trial_index": 244, "time_elapsed": 1757358, "internal_node_id": "0.0-181.0"}}, {"uniqueid": "MTK0824:34X6J5FLPU5Z63RXC43PT6QJE2YQJL", "current_trial": 245, "dateTime": 1512762860546, "trialdata": {"rt": -1, "stimulus": "<p id=\"stim\">TRUCK</p>", "key_press": -1, "type": "PRES_VIS", "word": "truck", "wordID": 1511, "conditions": [24, 1600, "v", 24000], "trial": 6, "serialpos": 20, "trial_type": "single-stim", "trial_index": 245, "time_elapsed": 1760103, "internal_node_id": "0.0-182.0"}}, {"uniqueid": "MTK0824:34X6J5FLPU5Z63RXC43PT6QJE2YQJL", "current_trial": 246, "dateTime": 1512762863338, "trialdata": {"rt": -1, "stimulus": "<p id=\"stim\">WAGON</p>", "key_press": -1, "type": "PRES_VIS", "word": "wagon", "wordID": 1577, "conditions": [24, 1600, "v", 24000], "trial": 6, "serialpos": 21, "trial_type": "single-stim", "trial_index": 246, "time_elapsed": 1762895, "internal_node_id": "0.0-183.0"}}, {"uniqueid": "MTK0824:34X6J5FLPU5Z63RXC43PT6QJE2YQJL", "current_trial": 247, "dateTime": 1512762866025, "trialdata": {"rt": -1, "stimulus": "<p id=\"stim\">SALMON</p>", "key_press": -1, "type": "PRES_VIS", "word": "salmon", "wordID": 1226, "conditions": [24, 1600, "v", 24000], "trial": 6, "serialpos": 22, "trial_type": "single-stim", "trial_index": 247, "time_elapsed": 1765582, "internal_node_id": "0.0-184.0"}}, {"uniqueid": "MTK0824:34X6J5FLPU5Z63RXC43PT6QJE2YQJL", "current_trial": 248, "dateTime": 1512762868535, "trialdata": {"rt": -1, "stimulus": "<p id=\"stim\">MARSH</p>", "key_press": -1, "type": "PRES_VIS", "word": "marsh", "wordID": 873, "conditions": [24, 1600, "v", 24000], "trial": 6, "serialpos": 23, "trial_type": "single-stim", "trial_index": 248, "time_elapsed": 1768092, "internal_node_id": "0.0-185.0"}}, {"uniqueid": "MTK0824:34X6J5FLPU5Z63RXC43PT6QJE2YQJL", "current_trial": 249, "dateTime": 1512762870663, "trialdata": {"rt": -1, "stimulus": "", "key_press": -1, "type": "PRE_RECALL_DELAY", "trial_type": "single-stim", "trial_index": 249, "time_elapsed": 1770220, "internal_node_id": "0.0-186.0-0.0"}}, {"uniqueid": "MTK0824:34X6J5FLPU5Z63RXC43PT6QJE2YQJL", "current_trial": 250, "dateTime": 1512762871165, "trialdata": {"rt": -1000, "stimulus": "/static/audio/400Hz.wav", "key_press": -1, "type": "PRE_RECALL_ALERT", "trial_type": "single-audio", "trial_index": 250, "time_elapsed": 1770722, "internal_node_id": "0.0-187.0"}}, {"uniqueid": "MTK0824:34X6J5FLPU5Z63RXC43PT6QJE2YQJL", "current_trial": 251, "dateTime": 1512762931175, "trialdata": {"rt": [1875, 3223, 5447, 8011, 10221, 11752, 15710, 17993, 19309, 20516, 25186, 27651, 30858, 33137, 36797], "recwords": ["crab", "wagon", "truck", "shelf", "sidewalk", "fireman", "lightning", "apple", "peach", "tart", "pastry", "lover", "crab", "cocoon", "hawk"], "type": "FREE_RECALL", "conditions": [24, 1600, "v", 24000], "trial": 6, "trial_type": "free-recall", "trial_index": 251, "time_elapsed": 1830728, "internal_node_id": "0.0-188.0-0.0"}}, {"uniqueid": "MTK0824:34X6J5FLPU5Z63RXC43PT6QJE2YQJL", "current_trial": 252, "dateTime": 1512762948490, "trialdata": {"rt": 15313, "key_press": 13, "type": "INSTRUCTIONS", "trial_type": "text", "trial_index": 252, "time_elapsed": 1848047, "internal_node_id": "0.0-189.0"}}, {"uniqueid": "MTK0824:34X6J5FLPU5Z63RXC43PT6QJE2YQJL", "current_trial": 253, "dateTime": 1512762974502, "trialdata": {"rt": [1950, 3631, 7115, 9999, 12685, 15243, 20664], "responses": ["8", "13", "15", "20", "18", "9", "20"], "num1": [2, 5, 7, 9, 4, 3, 9, 5], "num2": [1, 3, 6, 5, 8, 5, 3, 8], "num3": [5, 5, 2, 6, 6, 1, 8, 3], "type": "DISTRACTOR", "conditions": [24, 800, "v", 24000], "trial": 7, "trial_type": "math-distractor", "trial_index": 253, "time_elapsed": 1874059, "internal_node_id": "0.0-190.0"}}, {"uniqueid": "MTK0824:34X6J5FLPU5Z63RXC43PT6QJE2YQJL", "current_trial": 254, "dateTime": 1512762977509, "trialdata": {"rt": -1, "stimulus": "<p id=\"stim\">10</p>", "key_press": -1, "trial_type": "single-stim", "trial_index": 254, "time_elapsed": 1877065, "internal_node_id": "0.0-191.0-0.0"}}, {"uniqueid": "MTK0824:34X6J5FLPU5Z63RXC43PT6QJE2YQJL", "current_trial": 255, "dateTime": 1512762978513, "trialdata": {"rt": -1, "stimulus": "<p id=\"stim\">9</p>", "key_press": -1, "trial_type": "single-stim", "trial_index": 255, "time_elapsed": 1878070, "internal_node_id": "0.0-191.0-1.0"}}, {"uniqueid": "MTK0824:34X6J5FLPU5Z63RXC43PT6QJE2YQJL", "current_trial": 256, "dateTime": 1512762979517, "trialdata": {"rt": -1, "stimulus": "<p id=\"stim\">8</p>", "key_press": -1, "trial_type": "single-stim", "trial_index": 256, "time_elapsed": 1879073, "internal_node_id": "0.0-191.0-2.0"}}, {"uniqueid": "MTK0824:34X6J5FLPU5Z63RXC43PT6QJE2YQJL", "current_trial": 257, "dateTime": 1512762980521, "trialdata": {"rt": -1, "stimulus": "<p id=\"stim\">7</p>", "key_press": -1, "trial_type": "single-stim", "trial_index": 257, "time_elapsed": 1880078, "internal_node_id": "0.0-191.0-3.0"}}, {"uniqueid": "MTK0824:34X6J5FLPU5Z63RXC43PT6QJE2YQJL", "current_trial": 258, "dateTime": 1512762981525, "trialdata": {"rt": -1, "stimulus": "<p id=\"stim\">6</p>", "key_press": -1, "trial_type": "single-stim", "trial_index": 258, "time_elapsed": 1881082, "internal_node_id": "0.0-191.0-4.0"}}, {"uniqueid": "MTK0824:34X6J5FLPU5Z63RXC43PT6QJE2YQJL", "current_trial": 259, "dateTime": 1512762982529, "trialdata": {"rt": -1, "stimulus": "<p id=\"stim\">5</p>", "key_press": -1, "trial_type": "single-stim", "trial_index": 259, "time_elapsed": 1882086, "internal_node_id": "0.0-191.0-5.0"}}, {"uniqueid": "MTK0824:34X6J5FLPU5Z63RXC43PT6QJE2YQJL", "current_trial": 260, "dateTime": 1512762983533, "trialdata": {"rt": -1, "stimulus": "<p id=\"stim\">4</p>", "key_press": -1, "trial_type": "single-stim", "trial_index": 260, "time_elapsed": 1883090, "internal_node_id": "0.0-191.0-6.0"}}, {"uniqueid": "MTK0824:34X6J5FLPU5Z63RXC43PT6QJE2YQJL", "current_trial": 261, "dateTime": 1512762984537, "trialdata": {"rt": -1, "stimulus": "<p id=\"stim\">3</p>", "key_press": -1, "trial_type": "single-stim", "trial_index": 261, "time_elapsed": 1884094, "internal_node_id": "0.0-191.0-7.0"}}, {"uniqueid": "MTK0824:34X6J5FLPU5Z63RXC43PT6QJE2YQJL", "current_trial": 262, "dateTime": 1512762985541, "trialdata": {"rt": -1, "stimulus": "<p id=\"stim\">2</p>", "key_press": -1, "trial_type": "single-stim", "trial_index": 262, "time_elapsed": 1885098, "internal_node_id": "0.0-191.0-8.0"}}, {"uniqueid": "MTK0824:34X6J5FLPU5Z63RXC43PT6QJE2YQJL", "current_trial": 263, "dateTime": 1512762986546, "trialdata": {"rt": -1, "stimulus": "<p id=\"stim\">1</p>", "key_press": -1, "trial_type": "single-stim", "trial_index": 263, "time_elapsed": 1886102, "internal_node_id": "0.0-191.0-9.0"}}, {"uniqueid": "MTK0824:34X6J5FLPU5Z63RXC43PT6QJE2YQJL", "current_trial": 264, "dateTime": 1512762988049, "trialdata": {"rt": -1, "stimulus": "<p id=\"stim\">+</p>", "key_press": -1, "type": "FIXATION", "trial_type": "single-stim", "trial_index": 264, "time_elapsed": 1887606, "internal_node_id": "0.0-192.0-0.0"}}, {"uniqueid": "MTK0824:34X6J5FLPU5Z63RXC43PT6QJE2YQJL", "current_trial": 265, "dateTime": 1512762988855, "trialdata": {"rt": -1, "stimulus": "<p id=\"stim\">AIRPORT</p>", "key_press": -1, "type": "PRES_VIS", "word": "airport", "wordID": 12, "conditions": [24, 800, "v", 24000], "trial": 7, "serialpos": 0, "trial_type": "single-stim", "trial_index": 265, "time_elapsed": 1888412, "internal_node_id": "0.0-193.0"}}, {"uniqueid": "MTK0824:34X6J5FLPU5Z63RXC43PT6QJE2YQJL", "current_trial": 266, "dateTime": 1512762990806, "trialdata": {"rt": -1, "stimulus": "<p id=\"stim\">SEAGULL</p>", "key_press": -1, "type": "PRES_VIS", "word": "seagull", "wordID": 1260, "conditions": [24, 800, "v", 24000], "trial": 7, "serialpos": 1, "trial_type": "single-stim", "trial_index": 266, "time_elapsed": 1890362, "internal_node_id": "0.0-194.0"}}, {"uniqueid": "MTK0824:34X6J5FLPU5Z63RXC43PT6QJE2YQJL", "current_trial": 267, "dateTime": 1512762992471, "trialdata": {"rt": -1, "stimulus": "<p id=\"stim\">ICEBERG</p>", "key_press": -1, "type": "PRES_VIS", "word": "iceberg", "wordID": 730, "conditions": [24, 800, "v", 24000], "trial": 7, "serialpos": 2, "trial_type": "single-stim", "trial_index": 267, "time_elapsed": 1892028, "internal_node_id": "0.0-195.0"}}, {"uniqueid": "MTK0824:34X6J5FLPU5Z63RXC43PT6QJE2YQJL", "current_trial": 268, "dateTime": 1512762994155, "trialdata": {"rt": -1, "stimulus": "<p id=\"stim\">JELLY</p>", "key_press": -1, "type": "PRES_VIS", "word": "jelly", "wordID": 754, "conditions": [24, 800, "v", 24000], "trial": 7, "serialpos": 3, "trial_type": "single-stim", "trial_index": 268, "time_elapsed": 1893711, "internal_node_id": "0.0-196.0"}}, {"uniqueid": "MTK0824:34X6J5FLPU5Z63RXC43PT6QJE2YQJL", "current_trial": 269, "dateTime": 1512762996151, "trialdata": {"rt": -1, "stimulus": "<p id=\"stim\">VENUS</p>", "key_press": -1, "type": "PRES_VIS", "word": "venus", "wordID": 1556, "conditions": [24, 800, "v", 24000], "trial": 7, "serialpos": 4, "trial_type": "single-stim", "trial_index": 269, "time_elapsed": 1895708, "internal_node_id": "0.0-197.0"}}, {"uniqueid": "MTK0824:34X6J5FLPU5Z63RXC43PT6QJE2YQJL", "current_trial": 270, "dateTime": 1512762997782, "trialdata": {"rt": -1, "stimulus": "<p id=\"stim\">RACKET</p>", "key_press": -1, "type": "PRES_VIS", "word": "racket", "wordID": 1154, "conditions": [24, 800, "v", 24000], "trial": 7, "serialpos": 5, "trial_type": "single-stim", "trial_index": 270, "time_elapsed": 1897339, "internal_node_id": "0.0-198.0"}}, {"uniqueid": "MTK0824:34X6J5FLPU5Z63RXC43PT6QJE2YQJL", "current_trial": 271, "dateTime": 1512762999506, "trialdata": {"rt": -1, "stimulus": "<p id=\"stim\">GROUND</p>", "key_press": -1, "type": "PRES_VIS", "word": "ground", "wordID": 665, "conditions": [24, 800, "v", 24000], "trial"