{"condition": 0, "counterbalance": 321, "assignmentId": "3YOH7BII0AEMMVTWGOXB08P4AL6VKG", "workerId": "MTK0902", "hitId": "3HEADTGN2PZ6MF8XG616C0FYP5CVRE", "currenttrial": 626, "bonus": 0, "data": [{"uniqueid": "MTK0902:3YOH7BII0AEMMVTWGOXB08P4AL6VKG", "current_trial": 0, "dateTime": 1512870180403, "trialdata": {"rt": 2110, "key_press": 32, "type": "INSTRUCTIONS", "trial_type": "text", "trial_index": 0, "time_elapsed": 2115, "internal_node_id": "0.0-0.0"}}, {"uniqueid": "MTK0902:3YOH7BII0AEMMVTWGOXB08P4AL6VKG", "current_trial": 1, "dateTime": 1512870251244, "trialdata": {"rt": 70839, "key_press": 32, "type": "INSTRUCTIONS", "trial_type": "text", "trial_index": 1, "time_elapsed": 72957, "internal_node_id": "0.0-1.0"}}, {"uniqueid": "MTK0902:3YOH7BII0AEMMVTWGOXB08P4AL6VKG", "current_trial": 2, "dateTime": 1512870262352, "trialdata": {"rt": [11065], "responses": ["ocean"], "type": "AUDIO_TEST", "trial_type": "audio-test", "trial_index": 2, "time_elapsed": 84065, "internal_node_id": "0.0-2.0"}}, {"uniqueid": "MTK0902:3YOH7BII0AEMMVTWGOXB08P4AL6VKG", "current_trial": 3, "dateTime": 1512870269524, "trialdata": {"rt": [7162], "responses": ["crystal"], "type": "AUDIO_TEST", "trial_type": "audio-test", "trial_index": 3, "time_elapsed": 91237, "internal_node_id": "0.0-3.0"}}, {"uniqueid": "MTK0902:3YOH7BII0AEMMVTWGOXB08P4AL6VKG", "current_trial": 4, "dateTime": 1512870277192, "trialdata": {"rt": [7660], "responses": ["spice"], "type": "AUDIO_TEST", "trial_type": "audio-test", "trial_index": 4, "time_elapsed": 98905, "internal_node_id": "0.0-4.0"}}, {"uniqueid": "MTK0902:3YOH7BII0AEMMVTWGOXB08P4AL6VKG", "current_trial": 5, "dateTime": 1512870299735, "trialdata": {"rt": 21789, "responses": "{\"Q0\":\"10\",\"Q1\":\"7\",\"Q2\":\"4\"}", "type": "SLEEP_SURVEY", "trial_type": "survey-text", "trial_index": 5, "time_elapsed": 121448, "internal_node_id": "0.0-5.0"}}, {"uniqueid": "MTK0902:3YOH7BII0AEMMVTWGOXB08P4AL6VKG", "current_trial": 6, "dateTime": 1512870345548, "trialdata": {"rt": 44810, "key_press": 32, "type": "INSTRUCTIONS", "trial_type": "text", "trial_index": 6, "time_elapsed": 167261, "internal_node_id": "0.0-6.0"}}, {"uniqueid": "MTK0902:3YOH7BII0AEMMVTWGOXB08P4AL6VKG", "current_trial": 7, "dateTime": 1512870374829, "trialdata": {"rt": 28780, "key_press": 32, "type": "INSTRUCTIONS", "trial_type": "text", "trial_index": 7, "time_elapsed": 196542, "internal_node_id": "0.0-7.0"}}, {"uniqueid": "MTK0902:3YOH7BII0AEMMVTWGOXB08P4AL6VKG", "current_trial": 8, "dateTime": 1512870424359, "trialdata": {"rt": 49027, "key_press": 32, "type": "INSTRUCTIONS", "trial_type": "text", "trial_index": 8, "time_elapsed": 246072, "internal_node_id": "0.0-8.0"}}, {"uniqueid": "MTK0902:3YOH7BII0AEMMVTWGOXB08P4AL6VKG", "current_trial": 9, "dateTime": 1512870443365, "trialdata": {"rt": [6018, 8553, 11636, 15274], "responses": ["25", "19", "10", "11"], "num1": [9, 5, 1, 3, 7], "num2": [7, 5, 6, 3, 7], "num3": [9, 9, 3, 7, 1], "type": "DISTRACTOR", "conditions": [18, 1200, "v", 18000], "trial": 0, "trial_type": "math-distractor", "trial_index": 9, "time_elapsed": 265078, "internal_node_id": "0.0-9.0"}}, {"uniqueid": "MTK0902:3YOH7BII0AEMMVTWGOXB08P4AL6VKG", "current_trial": 10, "dateTime": 1512870446369, "trialdata": {"rt": -1, "stimulus": "<p id=\"stim\">10</p>", "key_press": -1, "trial_type": "single-stim", "trial_index": 10, "time_elapsed": 268082, "internal_node_id": "0.0-10.0-0.0"}}, {"uniqueid": "MTK0902:3YOH7BII0AEMMVTWGOXB08P4AL6VKG", "current_trial": 11, "dateTime": 1512870447371, "trialdata": {"rt": -1, "stimulus": "<p id=\"stim\">9</p>", "key_press": -1, "trial_type": "single-stim", "trial_index": 11, "time_elapsed": 269084, "internal_node_id": "0.0-10.0-1.0"}}, {"uniqueid": "MTK0902:3YOH7BII0AEMMVTWGOXB08P4AL6VKG", "current_trial": 12, "dateTime": 1512870448372, "trialdata": {"rt": -1, "stimulus": "<p id=\"stim\">8</p>", "key_press": -1, "trial_type": "single-stim", "trial_index": 12, "time_elapsed": 270085, "internal_node_id": "0.0-10.0-2.0"}}, {"uniqueid": "MTK0902:3YOH7BII0AEMMVTWGOXB08P4AL6VKG", "current_trial": 13, "dateTime": 1512870449373, "trialdata": {"rt": -1, "stimulus": "<p id=\"stim\">7</p>", "key_press": -1, "trial_type": "single-stim", "trial_index": 13, "time_elapsed": 271086, "internal_node_id": "0.0-10.0-3.0"}}, {"uniqueid": "MTK0902:3YOH7BII0AEMMVTWGOXB08P4AL6VKG", "current_trial": 14, "dateTime": 1512870450374, "trialdata": {"rt": -1, "stimulus": "<p id=\"stim\">6</p>", "key_press": -1, "trial_type": "single-stim", "trial_index": 14, "time_elapsed": 272087, "internal_node_id": "0.0-10.0-4.0"}}, {"uniqueid": "MTK0902:3YOH7BII0AEMMVTWGOXB08P4AL6VKG", "current_trial": 15, "dateTime": 1512870451376, "trialdata": {"rt": -1, "stimulus": "<p id=\"stim\">5</p>", "key_press": -1, "trial_type": "single-stim", "trial_index": 15, "time_elapsed": 273089, "internal_node_id": "0.0-10.0-5.0"}}, {"uniqueid": "MTK0902:3YOH7BII0AEMMVTWGOXB08P4AL6VKG", "current_trial": 16, "dateTime": 1512870452377, "trialdata": {"rt": -1, "stimulus": "<p id=\"stim\">4</p>", "key_press": -1, "trial_type": "single-stim", "trial_index": 16, "time_elapsed": 274090, "internal_node_id": "0.0-10.0-6.0"}}, {"uniqueid": "MTK0902:3YOH7BII0AEMMVTWGOXB08P4AL6VKG", "current_trial": 17, "dateTime": 1512870453380, "trialdata": {"rt": -1, "stimulus": "<p id=\"stim\">3</p>", "key_press": -1, "trial_type": "single-stim", "trial_index": 17, "time_elapsed": 275092, "internal_node_id": "0.0-10.0-7.0"}}, {"uniqueid": "MTK0902:3YOH7BII0AEMMVTWGOXB08P4AL6VKG", "current_trial": 18, "dateTime": 1512870454381, "trialdata": {"rt": -1, "stimulus": "<p id=\"stim\">2</p>", "key_press": -1, "trial_type": "single-stim", "trial_index": 18, "time_elapsed": 276094, "internal_node_id": "0.0-10.0-8.0"}}, {"uniqueid": "MTK0902:3YOH7BII0AEMMVTWGOXB08P4AL6VKG", "current_trial": 19, "dateTime": 1512870455383, "trialdata": {"rt": -1, "stimulus": "<p id=\"stim\">1</p>", "key_press": -1, "trial_type": "single-stim", "trial_index": 19, "time_elapsed": 277096, "internal_node_id": "0.0-10.0-9.0"}}, {"uniqueid": "MTK0902:3YOH7BII0AEMMVTWGOXB08P4AL6VKG", "current_trial": 20, "dateTime": 1512870456885, "trialdata": {"rt": -1, "stimulus": "<p id=\"stim\">+</p>", "key_press": -1, "type": "FIXATION", "trial_type": "single-stim", "trial_index": 20, "time_elapsed": 278598, "internal_node_id": "0.0-11.0-0.0"}}, {"uniqueid": "MTK0902:3YOH7BII0AEMMVTWGOXB08P4AL6VKG", "current_trial": 21, "dateTime": 1512870458086, "trialdata": {"rt": -1, "stimulus": "<p id=\"stim\">LIVER</p>", "key_press": -1, "type": "PRES_VIS", "word": "liver", "wordID": 832, "conditions": [18, 1200, "v", 18000], "trial": 0, "serialpos": 0, "trial_type": "single-stim", "trial_index": 21, "time_elapsed": 279799, "internal_node_id": "0.0-12.0"}}, {"uniqueid": "MTK0902:3YOH7BII0AEMMVTWGOXB08P4AL6VKG", "current_trial": 22, "dateTime": 1512870460290, "trialdata": {"rt": -1, "stimulus": "<p id=\"stim\">GLOVE</p>", "key_press": -1, "type": "PRES_VIS", "word": "glove", "wordID": 641, "conditions": [18, 1200, "v", 18000], "trial": 0, "serialpos": 1, "trial_type": "single-stim", "trial_index": 22, "time_elapsed": 282002, "internal_node_id": "0.0-13.0"}}, {"uniqueid": "MTK0902:3YOH7BII0AEMMVTWGOXB08P4AL6VKG", "current_trial": 23, "dateTime": 1512870462648, "trialdata": {"rt": -1, "stimulus": "<p id=\"stim\">SWORD</p>", "key_press": -1, "type": "PRES_VIS", "word": "sword", "wordID": 1422, "conditions": [18, 1200, "v", 18000], "trial": 0, "serialpos": 2, "trial_type": "single-stim", "trial_index": 23, "time_elapsed": 284360, "internal_node_id": "0.0-14.0"}}, {"uniqueid": "MTK0902:3YOH7BII0AEMMVTWGOXB08P4AL6VKG", "current_trial": 24, "dateTime": 1512870464882, "trialdata": {"rt": -1, "stimulus": "<p id=\"stim\">CONTRACT</p>", "key_press": -1, "type": "PRES_VIS", "word": "contract", "wordID": 367, "conditions": [18, 1200, "v", 18000], "trial": 0, "serialpos": 3, "trial_type": "single-stim", "trial_index": 24, "time_elapsed": 286595, "internal_node_id": "0.0-15.0"}}, {"uniqueid": "MTK0902:3YOH7BII0AEMMVTWGOXB08P4AL6VKG", "current_trial": 25, "dateTime": 1512870467187, "trialdata": {"rt": -1, "stimulus": "<p id=\"stim\">SPOON</p>", "key_press": -1, "type": "PRES_VIS", "word": "spoon", "wordID": 1356, "conditions": [18, 1200, "v", 18000], "trial": 0, "serialpos": 4, "trial_type": "single-stim", "trial_index": 25, "time_elapsed": 288900, "internal_node_id": "0.0-16.0"}}, {"uniqueid": "MTK0902:3YOH7BII0AEMMVTWGOXB08P4AL6VKG", "current_trial": 26, "dateTime": 1512870469546, "trialdata": {"rt": -1, "stimulus": "<p id=\"stim\">GYMNAST</p>", "key_press": -1, "type": "PRES_VIS", "word": "gymnast", "wordID": 674, "conditions": [18, 1200, "v", 18000], "trial": 0, "serialpos": 5, "trial_type": "single-stim", "trial_index": 26, "time_elapsed": 291259, "internal_node_id": "0.0-17.0"}}, {"uniqueid": "MTK0902:3YOH7BII0AEMMVTWGOXB08P4AL6VKG", "current_trial": 27, "dateTime": 1512870471837, "trialdata": {"rt": -1, "stimulus": "<p id=\"stim\">STICKER</p>", "key_press": -1, "type": "PRES_VIS", "word": "sticker", "wordID": 1381, "conditions": [18, 1200, "v", 18000], "trial": 0, "serialpos": 6, "trial_type": "single-stim", "trial_index": 27, "time_elapsed": 293549, "internal_node_id": "0.0-18.0"}}, {"uniqueid": "MTK0902:3YOH7BII0AEMMVTWGOXB08P4AL6VKG", "current_trial": 28, "dateTime": 1512870474078, "trialdata": {"rt": -1, "stimulus": "<p id=\"stim\">OFFICE</p>", "key_press": -1, "type": "PRES_VIS", "word": "office", "wordID": 971, "conditions": [18, 1200, "v", 18000], "trial": 0, "serialpos": 7, "trial_type": "single-stim", "trial_index": 28, "time_elapsed": 295791, "internal_node_id": "0.0-19.0"}}, {"uniqueid": "MTK0902:3YOH7BII0AEMMVTWGOXB08P4AL6VKG", "current_trial": 29, "dateTime": 1512870476444, "trialdata": {"rt": -1, "stimulus": "<p id=\"stim\">BATHTUB</p>", "key_press": -1, "type": "PRES_VIS", "word": "bathtub", "wordID": 99, "conditions": [18, 1200, "v", 18000], "trial": 0, "serialpos": 8, "trial_type": "single-stim", "trial_index": 29, "time_elapsed": 298157, "internal_node_id": "0.0-20.0"}}, {"uniqueid": "MTK0902:3YOH7BII0AEMMVTWGOXB08P4AL6VKG", "current_trial": 30, "dateTime": 1512870478837, "trialdata": {"rt": -1, "stimulus": "<p id=\"stim\">COSTUME</p>", "key_press": -1, "type": "PRES_VIS", "word": "costume", "wordID": 382, "conditions": [18, 1200, "v", 18000], "trial": 0, "serialpos": 9, "trial_type": "single-stim", "trial_index": 30, "time_elapsed": 300550, "internal_node_id": "0.0-21.0"}}, {"uniqueid": "MTK0902:3YOH7BII0AEMMVTWGOXB08P4AL6VKG", "current_trial": 31, "dateTime": 1512870480889, "trialdata": {"rt": -1, "stimulus": "<p id=\"stim\">SLOPE</p>", "key_press": -1, "type": "PRES_VIS", "word": "slope", "wordID": 1327, "conditions": [18, 1200, "v", 18000], "trial": 0, "serialpos": 10, "trial_type": "single-stim", "trial_index": 31, "time_elapsed": 302602, "internal_node_id": "0.0-22.0"}}, {"uniqueid": "MTK0902:3YOH7BII0AEMMVTWGOXB08P4AL6VKG", "current_trial": 32, "dateTime": 1512870483007, "trialdata": {"rt": -1, "stimulus": "<p id=\"stim\">MAPLE</p>", "key_press": -1, "type": "PRES_VIS", "word": "maple", "wordID": 865, "conditions": [18, 1200, "v", 18000], "trial": 0, "serialpos": 11, "trial_type": "single-stim", "trial_index": 32, "time_elapsed": 304719, "internal_node_id": "0.0-23.0"}}, {"uniqueid": "MTK0902:3YOH7BII0AEMMVTWGOXB08P4AL6VKG", "current_trial": 33, "dateTime": 1512870485310, "trialdata": {"rt": -1, "stimulus": "<p id=\"stim\">PUDDLE</p>", "key_press": -1, "type": "PRES_VIS", "word": "puddle", "wordID": 1139, "conditions": [18, 1200, "v", 18000], "trial": 0, "serialpos": 12, "trial_type": "single-stim", "trial_index": 33, "time_elapsed": 307023, "internal_node_id": "0.0-24.0"}}, {"uniqueid": "MTK0902:3YOH7BII0AEMMVTWGOXB08P4AL6VKG", "current_trial": 34, "dateTime": 1512870487560, "trialdata": {"rt": -1, "stimulus": "<p id=\"stim\">PRINCESS</p>", "key_press": -1, "type": "PRES_VIS", "word": "princess", "wordID": 1124, "conditions": [18, 1200, "v", 18000], "trial": 0, "serialpos": 13, "trial_type": "single-stim", "trial_index": 34, "time_elapsed": 309273, "internal_node_id": "0.0-25.0"}}, {"uniqueid": "MTK0902:3YOH7BII0AEMMVTWGOXB08P4AL6VKG", "current_trial": 35, "dateTime": 1512870489893, "trialdata": {"rt": -1, "stimulus": "<p id=\"stim\">POPCORN</p>", "key_press": -1, "type": "PRES_VIS", "word": "popcorn", "wordID": 1103, "conditions": [18, 1200, "v", 18000], "trial": 0, "serialpos": 14, "trial_type": "single-stim", "trial_index": 35, "time_elapsed": 311605, "internal_node_id": "0.0-26.0"}}, {"uniqueid": "MTK0902:3YOH7BII0AEMMVTWGOXB08P4AL6VKG", "current_trial": 36, "dateTime": 1512870491981, "trialdata": {"rt": -1, "stimulus": "<p id=\"stim\">FUNGUS</p>", "key_press": -1, "type": "PRES_VIS", "word": "fungus", "wordID": 613, "conditions": [18, 1200, "v", 18000], "trial": 0, "serialpos": 15, "trial_type": "single-stim", "trial_index": 36, "time_elapsed": 313694, "internal_node_id": "0.0-27.0"}}, {"uniqueid": "MTK0902:3YOH7BII0AEMMVTWGOXB08P4AL6VKG", "current_trial": 37, "dateTime": 1512870494158, "trialdata": {"rt": -1, "stimulus": "<p id=\"stim\">NEUTRON</p>", "key_press": -1, "type": "PRES_VIS", "word": "neutron", "wordID": 946, "conditions": [18, 1200, "v", 18000], "trial": 0, "serialpos": 16, "trial_type": "single-stim", "trial_index": 37, "time_elapsed": 315871, "internal_node_id": "0.0-28.0"}}, {"uniqueid": "MTK0902:3YOH7BII0AEMMVTWGOXB08P4AL6VKG", "current_trial": 38, "dateTime": 1512870496234, "trialdata": {"rt": -1, "stimulus": "<p id=\"stim\">HAMPER</p>", "key_press": -1, "type": "PRES_VIS", "word": "hamper", "wordID": 681, "conditions": [18, 1200, "v", 18000], "trial": 0, "serialpos": 17, "trial_type": "single-stim", "trial_index": 38, "time_elapsed": 317947, "internal_node_id": "0.0-29.0"}}, {"uniqueid": "MTK0902:3YOH7BII0AEMMVTWGOXB08P4AL6VKG", "current_trial": 39, "dateTime": 1512870498675, "trialdata": {"rt": -1, "stimulus": "", "key_press": -1, "type": "PRE_RECALL_DELAY", "trial_type": "single-stim", "trial_index": 39, "time_elapsed": 320388, "internal_node_id": "0.0-30.0-0.0"}}, {"uniqueid": "MTK0902:3YOH7BII0AEMMVTWGOXB08P4AL6VKG", "current_trial": 40, "dateTime": 1512870499209, "trialdata": {"rt": -1000, "stimulus": "/static/audio/400Hz.wav", "key_press": -1, "type": "PRE_RECALL_ALERT", "trial_type": "single-audio", "trial_index": 40, "time_elapsed": 320922, "internal_node_id": "0.0-31.0"}}, {"uniqueid": "MTK0902:3YOH7BII0AEMMVTWGOXB08P4AL6VKG", "current_trial": 41, "dateTime": 1512870559220, "trialdata": {"rt": [9135, 9248, 13246, 14852, 36659, 46222], "recwords": ["glove", "", "gymnast", "office", "trail", "bathtub"], "type": "FREE_RECALL", "conditions": [18, 1200, "v", 18000], "trial": 0, "trial_type": "free-recall", "trial_index": 41, "time_elapsed": 380929, "internal_node_id": "0.0-32.0-0.0"}}, {"uniqueid": "MTK0902:3YOH7BII0AEMMVTWGOXB08P4AL6VKG", "current_trial": 42, "dateTime": 1512870568758, "trialdata": {"rt": 7536, "key_press": 32, "type": "INSTRUCTIONS", "trial_type": "text", "trial_index": 42, "time_elapsed": 390471, "internal_node_id": "0.0-33.0"}}, {"uniqueid": "MTK0902:3YOH7BII0AEMMVTWGOXB08P4AL6VKG", "current_trial": 43, "dateTime": 1512870588763, "trialdata": {"rt": [3524, 8274, 10460, 12908, 16109, 17997], "responses": ["14", "18", "8", "16", "16", "12"], "num1": [2, 7, 3, 9, 5, 5, 1], "num2": [8, 4, 3, 6, 4, 5, 9], "num3": [4, 7, 2, 1, 7, 2, 5], "type": "DISTRACTOR", "conditions": [18, 1200, "a", 18000], "trial": 1, "trial_type": "math-distractor", "trial_index": 43, "time_elapsed": 410476, "internal_node_id": "0.0-34.0"}}, {"uniqueid": "MTK0902:3YOH7BII0AEMMVTWGOXB08P4AL6VKG", "current_trial": 44, "dateTime": 1512870591766, "trialdata": {"rt": -1, "stimulus": "<p id=\"stim\">10</p>", "key_press": -1, "trial_type": "single-stim", "trial_index": 44, "time_elapsed": 413479, "internal_node_id": "0.0-35.0-0.0"}}, {"uniqueid": "MTK0902:3YOH7BII0AEMMVTWGOXB08P4AL6VKG", "current_trial": 45, "dateTime": 1512870592768, "trialdata": {"rt": -1, "stimulus": "<p id=\"stim\">9</p>", "key_press": -1, "trial_type": "single-stim", "trial_index": 45, "time_elapsed": 414481, "internal_node_id": "0.0-35.0-1.0"}}, {"uniqueid": "MTK0902:3YOH7BII0AEMMVTWGOXB08P4AL6VKG", "current_trial": 46, "dateTime": 1512870593770, "trialdata": {"rt": -1, "stimulus": "<p id=\"stim\">8</p>", "key_press": -1, "trial_type": "single-stim", "trial_index": 46, "time_elapsed": 415483, "internal_node_id": "0.0-35.0-2.0"}}, {"uniqueid": "MTK0902:3YOH7BII0AEMMVTWGOXB08P4AL6VKG", "current_trial": 47, "dateTime": 1512870594773, "trialdata": {"rt": -1, "stimulus": "<p id=\"stim\">7</p>", "key_press": -1, "trial_type": "single-stim", "trial_index": 47, "time_elapsed": 416486, "internal_node_id": "0.0-35.0-3.0"}}, {"uniqueid": "MTK0902:3YOH7BII0AEMMVTWGOXB08P4AL6VKG", "current_trial": 48, "dateTime": 1512870595775, "trialdata": {"rt": -1, "stimulus": "<p id=\"stim\">6</p>", "key_press": -1, "trial_type": "single-stim", "trial_index": 48, "time_elapsed": 417488, "internal_node_id": "0.0-35.0-4.0"}}, {"uniqueid": "MTK0902:3YOH7BII0AEMMVTWGOXB08P4AL6VKG", "current_trial": 49, "dateTime": 1512870596778, "trialdata": {"rt": -1, "stimulus": "<p id=\"stim\">5</p>", "key_press": -1, "trial_type": "single-stim", "trial_index": 49, "time_elapsed": 418489, "internal_node_id": "0.0-35.0-5.0"}}, {"uniqueid": "MTK0902:3YOH7BII0AEMMVTWGOXB08P4AL6VKG", "current_trial": 50, "dateTime": 1512870597781, "trialdata": {"rt": -1, "stimulus": "<p id=\"stim\">4</p>", "key_press": -1, "trial_type": "single-stim", "trial_index": 50, "time_elapsed": 419494, "internal_node_id": "0.0-35.0-6.0"}}, {"uniqueid": "MTK0902:3YOH7BII0AEMMVTWGOXB08P4AL6VKG", "current_trial": 51, "dateTime": 1512870598782, "trialdata": {"rt": -1, "stimulus": "<p id=\"stim\">3</p>", "key_press": -1, "trial_type": "single-stim", "trial_index": 51, "time_elapsed": 420494, "internal_node_id": "0.0-35.0-7.0"}}, {"uniqueid": "MTK0902:3YOH7BII0AEMMVTWGOXB08P4AL6VKG", "current_trial": 52, "dateTime": 1512870599784, "trialdata": {"rt": -1, "stimulus": "<p id=\"stim\">2</p>", "key_press": -1, "trial_type": "single-stim", "trial_index": 52, "time_elapsed": 421497, "internal_node_id": "0.0-35.0-8.0"}}, {"uniqueid": "MTK0902:3YOH7BII0AEMMVTWGOXB08P4AL6VKG", "current_trial": 53, "dateTime": 1512870600785, "trialdata": {"rt": -1, "stimulus": "<p id=\"stim\">1</p>", "key_press": -1, "trial_type": "single-stim", "trial_index": 53, "time_elapsed": 422498, "internal_node_id": "0.0-35.0-9.0"}}, {"uniqueid": "MTK0902:3YOH7BII0AEMMVTWGOXB08P4AL6VKG", "current_trial": 54, "dateTime": 1512870602287, "trialdata": {"rt": -1, "stimulus": "<p id=\"stim\">+</p>", "key_press": -1, "type": "FIXATION", "trial_type": "single-stim", "trial_index": 54, "time_elapsed": 424000, "internal_node_id": "0.0-36.0-0.0"}}, {"uniqueid": "MTK0902:3YOH7BII0AEMMVTWGOXB08P4AL6VKG", "current_trial": 55, "dateTime": 1512870604470, "trialdata": {"rt": -1000, "stimulus": "/static/audio/wordpool/BUG.wav", "key_press": -1, "type": "PRES_AUD", "word": "bug", "wordID": 186, "conditions": [18, 1200, "a", 18000], "trial": 1, "serialpos": 0, "trial_type": "single-audio", "trial_index": 55, "time_elapsed": 426183, "internal_node_id": "0.0-37.0"}}, {"uniqueid": "MTK0902:3YOH7BII0AEMMVTWGOXB08P4AL6VKG", "current_trial": 56, "dateTime": 1512870606585, "trialdata": {"rt": -1000, "stimulus": "/static/audio/wordpool/DOUGHNUT.wav", "key_press": -1, "type": "PRES_AUD", "word": "doughnut", "wordID": 489, "conditions": [18, 1200, "a", 18000], "trial": 1, "serialpos": 1, "trial_type": "single-audio", "trial_index": 56, "time_elapsed": 428298, "internal_node_id": "0.0-38.0"}}, {"uniqueid": "MTK0902:3YOH7BII0AEMMVTWGOXB08P4AL6VKG", "current_trial": 57, "dateTime": 1512870608793, "trialdata": {"rt": -1000, "stimulus": "/static/audio/wordpool/PILOT.wav", "key_press": -1, "type": "PRES_AUD", "word": "pilot", "wordID": 1069, "conditions": [18, 1200, "a", 18000], "trial": 1, "serialpos": 2, "trial_type": "single-audio", "trial_index": 57, "time_elapsed": 430506, "internal_node_id": "0.0-39.0"}}, {"uniqueid": "MTK0902:3YOH7BII0AEMMVTWGOXB08P4AL6VKG", "current_trial": 58, "dateTime": 1512870611176, "trialdata": {"rt": -1000, "stimulus": "/static/audio/wordpool/BARREL.wav", "key_press": -1, "type": "PRES_AUD", "word": "barrel", "wordID": 90, "conditions": [18, 1200, "a", 18000], "trial": 1, "serialpos": 3, "trial_type": "single-audio", "trial_index": 58, "time_elapsed": 432889, "internal_node_id": "0.0-40.0"}}, {"uniqueid": "MTK0902:3YOH7BII0AEMMVTWGOXB08P4AL6VKG", "current_trial": 59, "dateTime": 1512870613493, "trialdata": {"rt": -1000, "stimulus": "/static/audio/wordpool/CELLAR.wav", "key_press": -1, "type": "PRES_AUD", "word": "cellar", "wordID": 266, "conditions": [18, 1200, "a", 18000], "trial": 1, "serialpos": 4, "trial_type": "single-audio", "trial_index": 59, "time_elapsed": 435206, "internal_node_id": "0.0-41.0"}}, {"uniqueid": "MTK0902:3YOH7BII0AEMMVTWGOXB08P4AL6VKG", "current_trial": 60, "dateTime": 1512870615640, "trialdata": {"rt": -1000, "stimulus": "/static/audio/wordpool/HATCHET.wav", "key_press": -1, "type": "PRES_AUD", "word": "hatchet", "wordID": 690, "conditions": [18, 1200, "a", 18000], "trial": 1, "serialpos": 5, "trial_type": "single-audio", "trial_index": 60, "time_elapsed": 437353, "internal_node_id": "0.0-42.0"}}, {"uniqueid": "MTK0902:3YOH7BII0AEMMVTWGOXB08P4AL6VKG", "current_trial": 61, "dateTime": 1512870617916, "trialdata": {"rt": -1000, "stimulus": "/static/audio/wordpool/TRENCH.wav", "key_press": -1, "type": "PRES_AUD", "word": "trench", "wordID": 1502, "conditions": [18, 1200, "a", 18000], "trial": 1, "serialpos": 6, "trial_type": "single-audio", "trial_index": 61, "time_elapsed": 439628, "internal_node_id": "0.0-43.0"}}, {"uniqueid": "MTK0902:3YOH7BII0AEMMVTWGOXB08P4AL6VKG", "current_trial": 62, "dateTime": 1512870620169, "trialdata": {"rt": -1000, "stimulus": "/static/audio/wordpool/CLAMP.wav", "key_press": -1, "type": "PRES_AUD", "word": "clamp", "wordID": 315, "conditions": [18, 1200, "a", 18000], "trial": 1, "serialpos": 7, "trial_type": "single-audio", "trial_index": 62, "time_elapsed": 441882, "internal_node_id": "0.0-44.0"}}, {"uniqueid": "MTK0902:3YOH7BII0AEMMVTWGOXB08P4AL6VKG", "current_trial": 63, "dateTime": 1512870622285, "trialdata": {"rt": -1000, "stimulus": "/static/audio/wordpool/PLASTER.wav", "key_press": -1, "type": "PRES_AUD", "word": "plaster", "wordID": 1084, "conditions": [18, 1200, "a", 18000], "trial": 1, "serialpos": 8, "trial_type": "single-audio", "trial_index": 63, "time_elapsed": 443997, "internal_node_id": "0.0-45.0"}}, {"uniqueid": "MTK0902:3YOH7BII0AEMMVTWGOXB08P4AL6VKG", "current_trial": 64, "dateTime": 1512870624396, "trialdata": {"rt": -1000, "stimulus": "/static/audio/wordpool/FEMALE.wav", "key_press": -1, "type": "PRES_AUD", "word": "female", "wordID": 558, "conditions": [18, 1200, "a", 18000], "trial": 1, "serialpos": 9, "trial_type": "single-audio", "trial_index": 64, "time_elapsed": 446109, "internal_node_id": "0.0-46.0"}}, {"uniqueid": "MTK0902:3YOH7BII0AEMMVTWGOXB08P4AL6VKG", "current_trial": 65, "dateTime": 1512870626551, "trialdata": {"rt": -1000, "stimulus": "/static/audio/wordpool/VIRUS.wav", "key_press": -1, "type": "PRES_AUD", "word": "virus", "wordID": 1571, "conditions": [18, 1200, "a", 18000], "trial": 1, "serialpos": 10, "trial_type": "single-audio", "trial_index": 65, "time_elapsed": 448264, "internal_node_id": "0.0-47.0"}}, {"uniqueid": "MTK0902:3YOH7BII0AEMMVTWGOXB08P4AL6VKG", "current_trial": 66, "dateTime": 1512870628938, "trialdata": {"rt": -1000, "stimulus": "/static/audio/wordpool/TART.wav", "key_press": -1, "type": "PRES_AUD", "word": "tart", "wordID": 1435, "conditions": [18, 1200, "a", 18000], "trial": 1, "serialpos": 11, "trial_type": "single-audio", "trial_index": 66, "time_elapsed": 450651, "internal_node_id": "0.0-48.0"}}, {"uniqueid": "MTK0902:3YOH7BII0AEMMVTWGOXB08P4AL6VKG", "current_trial": 67, "dateTime": 1512870631206, "trialdata": {"rt": -1000, "stimulus": "/static/audio/wordpool/BROOK.wav", "key_press": -1, "type": "PRES_AUD", "word": "brook", "wordID": 176, "conditions": [18, 1200, "a", 18000], "trial": 1, "serialpos": 12, "trial_type": "single-audio", "trial_index": 67, "time_elapsed": 452919, "internal_node_id": "0.0-49.0"}}, {"uniqueid": "MTK0902:3YOH7BII0AEMMVTWGOXB08P4AL6VKG", "current_trial": 68, "dateTime": 1512870633579, "trialdata": {"rt": -1000, "stimulus": "/static/audio/wordpool/BEAKER.wav", "key_press": -1, "type": "PRES_AUD", "word": "beaker", "wordID": 103, "conditions": [18, 1200, "a", 18000], "trial": 1, "serialpos": 13, "trial_type": "single-audio", "trial_index": 68, "time_elapsed": 455289, "internal_node_id": "0.0-50.0"}}, {"uniqueid": "MTK0902:3YOH7BII0AEMMVTWGOXB08P4AL6VKG", "current_trial": 69, "dateTime": 1512870635890, "trialdata": {"rt": -1000, "stimulus": "/static/audio/wordpool/GUARD.wav", "key_press": -1, "type": "PRES_AUD", "word": "guard", "wordID": 666, "conditions": [18, 1200, "a", 18000], "trial": 1, "serialpos": 14, "trial_type": "single-audio", "trial_index": 69, "time_elapsed": 457603, "internal_node_id": "0.0-51.0"}}, {"uniqueid": "MTK0902:3YOH7BII0AEMMVTWGOXB08P4AL6VKG", "current_trial": 70, "dateTime": 1512870638188, "trialdata": {"rt": -1000, "stimulus": "/static/audio/wordpool/KITCHEN.wav", "key_press": -1, "type": "PRES_AUD", "word": "kitchen", "wordID": 777, "conditions": [18, 1200, "a", 18000], "trial": 1, "serialpos": 15, "trial_type": "single-audio", "trial_index": 70, "time_elapsed": 459901, "internal_node_id": "0.0-52.0"}}, {"uniqueid": "MTK0902:3YOH7BII0AEMMVTWGOXB08P4AL6VKG", "current_trial": 71, "dateTime": 1512870640457, "trialdata": {"rt": -1000, "stimulus": "/static/audio/wordpool/SUNRISE.wav", "key_press": -1, "type": "PRES_AUD", "word": "sunrise", "wordID": 1406, "conditions": [18, 1200, "a", 18000], "trial": 1, "serialpos": 16, "trial_type": "single-audio", "trial_index": 71, "time_elapsed": 462170, "internal_node_id": "0.0-53.0"}}, {"uniqueid": "MTK0902:3YOH7BII0AEMMVTWGOXB08P4AL6VKG", "current_trial": 72, "dateTime": 1512870642572, "trialdata": {"rt": -1000, "stimulus": "/static/audio/wordpool/MARSH.wav", "key_press": -1, "type": "PRES_AUD", "word": "marsh", "wordID": 873, "conditions": [18, 1200, "a", 18000], "trial": 1, "serialpos": 17, "trial_type": "single-audio", "trial_index": 72, "time_elapsed": 464285, "internal_node_id": "0.0-54.0"}}, {"uniqueid": "MTK0902:3YOH7BII0AEMMVTWGOXB08P4AL6VKG", "current_trial": 73, "dateTime": 1512870643849, "trialdata": {"rt": -1, "stimulus": "", "key_press": -1, "type": "PRE_RECALL_DELAY", "trial_type": "single-stim", "trial_index": 73, "time_elapsed": 465561, "internal_node_id": "0.0-55.0-0.0"}}, {"uniqueid": "MTK0902:3YOH7BII0AEMMVTWGOXB08P4AL6VKG", "current_trial": 74, "dateTime": 1512870644359, "trialdata": {"rt": -1000, "stimulus": "/static/audio/400Hz.wav", "key_press": -1, "type": "PRE_RECALL_ALERT", "trial_type": "single-audio", "trial_index": 74, "time_elapsed": 466072, "internal_node_id": "0.0-56.0"}}, {"uniqueid": "MTK0902:3YOH7BII0AEMMVTWGOXB08P4AL6VKG", "current_trial": 75, "dateTime": 1512870704366, "trialdata": {"rt": [5358, 8069, 9770, 12599, 15484, 17933, 19667, 25845, 26976], "recwords": ["female", "virus", "brooke", "kitchen", "marsh", "guard", "plaster", "sunrise", "bug"], "type": "FREE_RECALL", "conditions": [18, 1200, "a", 18000], "trial": 1, "trial_type": "free-recall", "trial_index": 75, "time_elapsed": 526075, "internal_node_id": "0.0-57.0-0.0"}}, {"uniqueid": "MTK0902:3YOH7BII0AEMMVTWGOXB08P4AL6VKG", "current_trial": 76, "dateTime": 1512870712961, "trialdata": {"rt": 6587, "key_press": 32, "type": "INSTRUCTIONS", "trial_type": "text", "trial_index": 76, "time_elapsed": 534667, "internal_node_id": "0.0-58.0"}}, {"uniqueid": "MTK0902:3YOH7BII0AEMMVTWGOXB08P4AL6VKG", "current_trial": 77, "dateTime": 1512870725964, "trialdata": {"rt": [2732, 6577, 8503], "responses": ["18", "15", "17"], "num1": [8, 2, 9, 5], "num2": [5, 9, 7, 9], "num3": [5, 4, 1, 7], "type": "DISTRACTOR", "conditions": [24, 1600, "v", 12000], "trial": 2, "trial_type": "math-distractor", "trial_index": 77, "time_elapsed": 547677, "internal_node_id": "0.0-59.0"}}, {"uniqueid": "MTK0902:3YOH7BII0AEMMVTWGOXB08P4AL6VKG", "current_trial": 78, "dateTime": 1512870728965, "trialdata": {"rt": -1, "stimulus": "<p id=\"stim\">10</p>", "key_press": -1, "trial_type": "single-stim", "trial_index": 78, "time_elapsed": 550678, "internal_node_id": "0.0-60.0-0.0"}}, {"uniqueid": "MTK0902:3YOH7BII0AEMMVTWGOXB08P4AL6VKG", "current_trial": 79, "dateTime": 1512870729969, "trialdata": {"rt": -1, "stimulus": "<p id=\"stim\">9</p>", "key_press": -1, "trial_type": "single-stim", "trial_index": 79, "time_elapsed": 551681, "internal_node_id": "0.0-60.0-1.0"}}, {"uniqueid": "MTK0902:3YOH7BII0AEMMVTWGOXB08P4AL6VKG", "current_trial": 80, "dateTime": 1512870730970, "trialdata": {"rt": -1, "stimulus": "<p id=\"stim\">8</p>", "key_press": -1, "trial_type": "single-stim", "trial_index": 80, "time_elapsed": 552683, "internal_node_id": "0.0-60.0-2.0"}}, {"uniqueid": "MTK0902:3YOH7BII0AEMMVTWGOXB08P4AL6VKG", "current_trial": 81, "dateTime": 1512870731972, "trialdata": {"rt": -1, "stimulus": "<p id=\"stim\">7</p>", "key_press": -1, "trial_type": "single-stim", "trial_index": 81, "time_elapsed": 553685, "internal_node_id": "0.0-60.0-3.0"}}, {"uniqueid": "MTK0902:3YOH7BII0AEMMVTWGOXB08P4AL6VKG", "current_trial": 82, "dateTime": 1512870732973, "trialdata": {"rt": -1, "stimulus": "<p id=\"stim\">6</p>", "key_press": -1, "trial_type": "single-stim", "trial_index": 82, "time_elapsed": 554686, "internal_node_id": "0.0-60.0-4.0"}}, {"uniqueid": "MTK0902:3YOH7BII0AEMMVTWGOXB08P4AL6VKG", "current_trial": 83, "dateTime": 1512870733976, "trialdata": {"rt": -1, "stimulus": "<p id=\"stim\">5</p>", "key_press": -1, "trial_type": "single-stim", "trial_index": 83, "time_elapsed": 555689, "internal_node_id": "0.0-60.0-5.0"}}, {"uniqueid": "MTK0902:3YOH7BII0AEMMVTWGOXB08P4AL6VKG", "current_trial": 84, "dateTime": 1512870734977, "trialdata": {"rt": -1, "stimulus": "<p id=\"stim\">4</p>", "key_press": -1, "trial_type": "single-stim", "trial_index": 84, "time_elapsed": 556689, "internal_node_id": "0.0-60.0-6.0"}}, {"uniqueid": "MTK0902:3YOH7BII0AEMMVTWGOXB08P4AL6VKG", "current_trial": 85, "dateTime": 1512870735978, "trialdata": {"rt": -1, "stimulus": "<p id=\"stim\">3</p>", "key_press": -1, "trial_type": "single-stim", "trial_index": 85, "time_elapsed": 557691, "internal_node_id": "0.0-60.0-7.0"}}, {"uniqueid": "MTK0902:3YOH7BII0AEMMVTWGOXB08P4AL6VKG", "current_trial": 86, "dateTime": 1512870736980, "trialdata": {"rt": -1, "stimulus": "<p id=\"stim\">2</p>", "key_press": -1, "trial_type": "single-stim", "trial_index": 86, "time_elapsed": 558693, "internal_node_id": "0.0-60.0-8.0"}}, {"uniqueid": "MTK0902:3YOH7BII0AEMMVTWGOXB08P4AL6VKG", "current_trial": 87, "dateTime": 1512870737982, "trialdata": {"rt": -1, "stimulus": "<p id=\"stim\">1</p>", "key_press": -1, "trial_type": "single-stim", "trial_index": 87, "time_elapsed": 559695, "internal_node_id": "0.0-60.0-9.0"}}, {"uniqueid": "MTK0902:3YOH7BII0AEMMVTWGOXB08P4AL6VKG", "current_trial": 88, "dateTime": 1512870739484, "trialdata": {"rt": -1, "stimulus": "<p id=\"stim\">+</p>", "key_press": -1, "type": "FIXATION", "trial_type": "single-stim", "trial_index": 88, "time_elapsed": 561197, "internal_node_id": "0.0-61.0-0.0"}}, {"uniqueid": "MTK0902:3YOH7BII0AEMMVTWGOXB08P4AL6VKG", "current_trial": 89, "dateTime": 1512870741086, "trialdata": {"rt": -1, "stimulus": "<p id=\"stim\">SHORTCAKE</p>", "key_press": -1, "type": "PRES_VIS", "word": "shortcake", "wordID": 1291, "conditions": [24, 1600, "v", 12000], "trial": 2, "serialpos": 0, "trial_type": "single-stim", "trial_index": 89, "time_elapsed": 562798, "internal_node_id": "0.0-62.0"}}, {"uniqueid": "MTK0902:3YOH7BII0AEMMVTWGOXB08P4AL6VKG", "current_trial": 90, "dateTime": 1512870743648, "trialdata": {"rt": -1, "stimulus": "<p id=\"stim\">PASTRY</p>", "key_press": -1, "type": "PRES_VIS", "word": "pastry", "wordID": 1021, "conditions": [24, 1600, "v", 12000], "trial": 2, "serialpos": 1, "trial_type": "single-stim", "trial_index": 90, "time_elapsed": 565358, "internal_node_id": "0.0-63.0"}}, {"uniqueid": "MTK0902:3YOH7BII0AEMMVTWGOXB08P4AL6VKG", "current_trial": 91, "dateTime": 1512870746250, "trialdata": {"rt": -1, "stimulus": "<p id=\"stim\">LEADER</p>", "key_press": -1, "type": "PRES_VIS", "word": "leader", "wordID": 806, "conditions": [24, 1600, "v", 12000], "trial": 2, "serialpos": 2, "trial_type": "single-stim", "trial_index": 91, "time_elapsed": 567963, "internal_node_id": "0.0-64.0"}}, {"uniqueid": "MTK0902:3YOH7BII0AEMMVTWGOXB08P4AL6VKG", "current_trial": 92, "dateTime": 1512870748991, "trialdata": {"rt": -1, "stimulus": "<p id=\"stim\">LIPSTICK</p>", "key_press": -1, "type": "PRES_VIS", "word": "lipstick", "wordID": 828, "conditions": [24, 1600, "v", 12000], "trial": 2, "serialpos": 3, "trial_type": "single-stim", "trial_index": 92, "time_elapsed": 570704, "internal_node_id": "0.0-65.0"}}, {"uniqueid": "MTK0902:3YOH7BII0AEMMVTWGOXB08P4AL6VKG", "current_trial": 93, "dateTime": 1512870751650, "trialdata": {"rt": -1, "stimulus": "<p id=\"stim\">UNCLE</p>", "key_press": -1, "type": "PRES_VIS", "word": "uncle", "wordID": 1535, "conditions": [24, 1600, "v", 12000], "trial": 2, "serialpos": 4, "trial_type": "single-stim", "trial_index": 93, "time_elapsed": 573363, "internal_node_id": "0.0-66.0"}}, {"uniqueid": "MTK0902:3YOH7BII0AEMMVTWGOXB08P4AL6VKG", "current_trial": 94, "dateTime": 1512870754391, "trialdata": {"rt": -1, "stimulus": "<p id=\"stim\">BRACES</p>", "key_press": -1, "type": "PRES_VIS", "word": "braces", "wordID": 163, "conditions": [24, 1600, "v", 12000], "trial": 2, "serialpos": 5, "trial_type": "single-stim", "trial_index": 94, "time_elapsed": 576104, "internal_node_id": "0.0-67.0"}}, {"uniqueid": "MTK0902:3YOH7BII0AEMMVTWGOXB08P4AL6VKG", "current_trial": 95, "dateTime": 1512870756888, "trialdata": {"rt": -1, "stimulus": "<p id=\"stim\">SPARROW</p>", "key_press": -1, "type": "PRES_VIS", "word": "sparrow", "wordID": 1346, "conditions": [24, 1600, "v", 12000], "trial": 2, "serialpos": 6, "trial_type": "single-stim", "trial_index": 95, "time_elapsed": 578600, "internal_node_id": "0.0-68.0"}}, {"uniqueid": "MTK0902:3YOH7BII0AEMMVTWGOXB08P4AL6VKG", "current_trial": 96, "dateTime": 1512870759349, "trialdata": {"rt": -1, "stimulus": "<p id=\"stim\">PRIMATE</p>", "key_press": -1, "type": "PRES_VIS", "word": "primate", "wordID": 1122, "conditions": [24, 1600, "v", 12000], "trial": 2, "serialpos": 7, "trial_type": "single-stim", "trial_index": 96, "time_elapsed": 581062, "internal_node_id": "0.0-69.0"}}, {"uniqueid": "MTK0902:3YOH7BII0AEMMVTWGOXB08P4AL6VKG", "current_trial": 97, "dateTime": 1512870761836, "trialdata": {"rt": -1, "stimulus": "<p id=\"stim\">KETCHUP</p>", "key_press": -1, "type": "PRES_VIS", "word": "ketchup", "wordID": 770, "conditions": [24, 1600, "v", 12000], "trial": 2, "serialpos": 8, "trial_type": "single-stim", "trial_index": 97, "time_elapsed": 583549, "internal_node_id": "0.0-70.0"}}, {"uniqueid": "MTK0902:3YOH7BII0AEMMVTWGOXB08P4AL6VKG", "current_trial": 98, "dateTime": 1512870764416, "trialdata": {"rt": -1, "stimulus": "<p id=\"stim\">SKIRT</p>", "key_press": -1, "type": "PRES_VIS", "word": "skirt", "wordID": 1318, "conditions": [24, 1600, "v", 12000], "trial": 2, "serialpos": 9, "trial_type": "single-stim", "trial_index": 98, "time_elapsed": 586129, "internal_node_id": "0.0-71.0"}}, {"uniqueid": "MTK0902:3YOH7BII0AEMMVTWGOXB08P4AL6VKG", "current_trial": 99, "dateTime": 1512870766881, "trialdata": {"rt": -1, "stimulus": "<p id=\"stim\">APPLE</p>", "key_press": -1, "type": "PRES_VIS", "word": "apple", "wordID": 32, "conditions": [24, 1600, "v", 12000], "trial": 2, "serialpos": 10, "trial_type": "single-stim", "trial_index": 99, "time_elapsed": 588594, "internal_node_id": "0.0-72.0"}}, {"uniqueid": "MTK0902:3YOH7BII0AEMMVTWGOXB08P4AL6VKG", "current_trial": 100, "dateTime": 1512870769440, "trialdata": {"rt": -1, "stimulus": "<p id=\"stim\">SISTER</p>", "key_press": -1, "type": "PRES_VIS", "word": "sister", "wordID": 1311, "conditions": [24, 1600, "v", 12000], "trial": 2, "serialpos": 11, "trial_type": "single-stim", "trial_index": 100, "time_elapsed": 591153, "internal_node_id": "0.0-73.0"}}, {"uniqueid": "MTK0902:3YOH7BII0AEMMVTWGOXB08P4AL6VKG", "current_trial": 101, "dateTime": 1512870772209, "trialdata": {"rt": -1, "stimulus": "<p id=\"stim\">SEAFOOD</p>", "key_press": -1, "type": "PRES_VIS", "word": "seafood", "wordID": 1259, "conditions": [24, 1600, "v", 12000], "trial": 2, "serialpos": 12, "trial_type": "single-stim", "trial_index": 101, "time_elapsed": 593922, "internal_node_id": "0.0-74.0"}}, {"uniqueid": "MTK0902:3YOH7BII0AEMMVTWGOXB08P4AL6VKG", "current_trial": 102, "dateTime": 1512870774667, "trialdata": {"rt": -1, "stimulus": "<p id=\"stim\">HONEY</p>", "key_press": -1, "type": "PRES_VIS", "word": "honey", "wordID": 712, "conditions": [24, 1600, "v", 12000], "trial": 2, "serialpos": 13, "trial_type": "single-stim", "trial_index": 102, "time_elapsed": 596379, "internal_node_id": "0.0-75.0"}}, {"uniqueid": "MTK0902:3YOH7BII0AEMMVTWGOXB08P4AL6VKG", "current_trial": 103, "dateTime": 1512870777347, "trialdata": {"rt": -1, "stimulus": "<p id=\"stim\">GRAPE</p>", "key_press": -1, "type": "PRES_VIS", "word": "grape", "wordID": 653, "conditions": [24, 1600, "v", 12000], "trial": 2, "serialpos": 14, "trial_type": "single-stim", "trial_index": 103, "time_elapsed": 599060, "internal_node_id": "0.0-76.0"}}, {"uniqueid": "MTK0902:3YOH7BII0AEMMVTWGOXB08P4AL6VKG", "current_trial": 104, "dateTime": 1512870779852, "trialdata": {"rt": -1, "stimulus": "<p id=\"stim\">SHOULDER</p>", "key_press": -1, "type": "PRES_VIS", "word": "shoulder", "wordID": 1293, "conditions": [24, 1600, "v", 12000], "trial": 2, "serialpos": 15, "trial_type": "single-stim", "trial_index": 104, "time_elapsed": 601565, "internal_node_id": "0.0-77.0"}}, {"uniqueid": "MTK0902:3YOH7BII0AEMMVTWGOXB08P4AL6VKG", "current_trial": 105, "dateTime": 1512870782452, "trialdata": {"rt": -1, "stimulus": "<p id=\"stim\">CRATER</p>", "key_press": -1, "type": "PRES_VIS", "word": "crater", "wordID": 399, "conditions": [24, 1600, "v", 12000], "trial": 2, "serialpos": 16, "trial_type": "single-stim", "trial_index": 105, "time_elapsed": 604165, "internal_node_id": "0.0-78.0"}}, {"uniqueid": "MTK0902:3YOH7BII0AEMMVTWGOXB08P4AL6VKG", "current_trial": 106, "dateTime": 1512870785057, "trialdata": {"rt": -1, "stimulus": "<p id=\"stim\">JAPAN</p>", "key_press": -1, "type": "PRES_VIS", "word": "japan", "wordID": 748, "conditions": [24, 1600, "v", 12000], "trial": 2, "serialpos": 17, "trial_type": "single-stim", "trial_index": 106, "time_elapsed": 606770, "internal_node_id": "0.0-79.0"}}, {"uniqueid": "MTK0902:3YOH7BII0AEMMVTWGOXB08P4AL6VKG", "current_trial": 107, "dateTime": 1512870787676, "trialdata": {"rt": -1, "stimulus": "<p id=\"stim\">SUPPER</p>", "key_press": -1, "type": "PRES_VIS", "word": "supper", "wordID": 1410, "conditions": [24, 1600, "v", 12000], "trial": 2, "serialpos": 18, "trial_type": "single-stim", "trial_index": 107, "time_elapsed": 609388, "internal_node_id": "0.0-80.0"}}, {"uniqueid": "MTK0902:3YOH7BII0AEMMVTWGOXB08P4AL6VKG", "current_trial": 108, "dateTime": 1512870790262, "trialdata": {"rt": -1, "stimulus": "<p id=\"stim\">STAMP</p>", "key_press": -1, "type": "PRES_VIS", "word": "stamp", "wordID": 1369, "conditions": [24, 1600, "v", 12000], "trial": 2, "serialpos": 19, "trial_type": "single-stim", "trial_index": 108, "time_elapsed": 611975, "internal_node_id": "0.0-81.0"}}, {"uniqueid": "MTK0902:3YOH7BII0AEMMVTWGOXB08P4AL6VKG", "current_trial": 109, "dateTime": 1512870792900, "trialdata": {"rt": -1, "stimulus": "<p id=\"stim\">SHELF</p>", "key_press": -1, "type": "PRES_VIS", "word": "shelf", "wordID": 1279, "conditions": [24, 1600, "v", 12000], "trial": 2, "serialpos": 20, "trial_type": "single-stim", "trial_index": 109, "time_elapsed": 614613, "internal_node_id": "0.0-82.0"}}, {"uniqueid": "MTK0902:3YOH7BII0AEMMVTWGOXB08P4AL6VKG", "current_trial": 110, "dateTime": 1512870795322, "trialdata": {"rt": -1, "stimulus": "<p id=\"stim\">LAVA</p>", "key_press": -1, "type": "PRES_VIS", "word": "lava", "wordID": 803, "conditions": [24, 1600, "v", 12000], "trial": 2, "serialpos": 21, "trial_type": "single-stim", "trial_index": 110, "time_elapsed": 617034, "internal_node_id": "0.0-83.0"}}, {"uniqueid": "MTK0902:3YOH7BII0AEMMVTWGOXB08P4AL6VKG", "current_trial": 111, "dateTime": 1512870797740, "trialdata": {"rt": -1, "stimulus": "<p id=\"stim\">FIREPLACE</p>", "key_press": -1, "type": "PRES_VIS", "word": "fireplace", "wordID": 569, "conditions": [24, 1600, "v", 12000], "trial": 2, "serialpos": 22, "trial_type": "single-stim", "trial_index": 111, "time_elapsed": 619453, "internal_node_id": "0.0-84.0"}}, {"uniqueid": "MTK0902:3YOH7BII0AEMMVTWGOXB08P4AL6VKG", "current_trial": 112, "dateTime": 1512870800225, "trialdata": {"rt": -1, "stimulus": "<p id=\"stim\">CRUTCH</p>", "key_press": -1, "type": "PRES_VIS", "word": "crutch", "wordID": 416, "conditions": [24, 1600, "v", 12000], "trial": 2, "serialpos": 23, "trial_type": "single-stim", "trial_index": 112, "time_elapsed": 621938, "internal_node_id": "0.0-85.0"}}, {"uniqueid": "MTK0902:3YOH7BII0AEMMVTWGOXB08P4AL6VKG", "current_trial": 113, "dateTime": 1512870802713, "trialdata": {"rt": -1, "stimulus": "", "key_press": -1, "type": "PRE_RECALL_DELAY", "trial_type": "single-stim", "trial_index": 113, "time_elapsed": 624426, "internal_node_id": "0.0-86.0-0.0"}}, {"uniqueid": "MTK0902:3YOH7BII0AEMMVTWGOXB08P4AL6VKG", "current_trial": 114, "dateTime": 1512870803216, "trialdata": {"rt": -1000, "stimulus": "/static/audio/400Hz.wav", "key_press": -1, "type": "PRE_RECALL_ALERT", "trial_type": "single-audio", "trial_index": 114, "time_elapsed": 624929, "internal_node_id": "0.0-87.0"}}, {"uniqueid": "MTK0902:3YOH7BII0AEMMVTWGOXB08P4AL6VKG", "current_trial": 115, "dateTime": 1512870863223, "trialdata": {"rt": [11435, 14068, 17469, 19574, 26985, 28137, 30326, 36696, 38781, 39759, 42053, 45347, 51383], "recwords": ["crutch", "fireplace", "lava", "shoulder", "pasty", "leader", "braces", "ketchup", "apple", "sister", "seafood", "japan", "lipstick"], "type": "FREE_RECALL", "conditions": [24, 1600, "v", 12000], "trial": 2, "trial_type": "free-recall", "trial_index": 115, "time_elapsed": 684933, "internal_node_id": "0.0-88.0-0.0"}}, {"uniqueid": "MTK0902:3YOH7BII0AEMMVTWGOXB08P4AL6VKG", "current_trial": 116, "dateTime": 1512870872990, "trialdata": {"rt": 7766, "key_press": 32, "type": "INSTRUCTIONS", "trial_type": "text", "trial_index": 116, "time_elapsed": 694703, "internal_node_id": "0.0-89.0"}}, {"uniqueid": "MTK0902:3YOH7BII0AEMMVTWGOXB08P4AL6VKG", "current_trial": 117, "dateTime": 1512870898992, "trialdata": {"rt": [2975, 7558, 13127, 17246, 20595], "responses": ["19", "22", "26", "22", "16"], "num1": [8, 6, 9, 8, 3, 9], "num2": [9, 6, 8, 5, 5, 8], "num3": [2, 9, 9, 9, 8, 6], "type": "DISTRACTOR", "conditions": [24, 800, "v", 24000], "trial": 3, "trial_type": "math-distractor", "trial_index": 117, "time_elapsed": 720705, "internal_node_id": "0.0-90.0"}}, {"uniqueid": "MTK0902:3YOH7BII0AEMMVTWGOXB08P4AL6VKG", "current_trial": 118, "dateTime": 1512870901995, "trialdata": {"rt": -1, "stimulus": "<p id=\"stim\">10</p>", "key_press": -1, "trial_type": "single-stim", "trial_index": 118, "time_elapsed": 723706, "internal_node_id": "0.0-91.0-0.0"}}, {"uniqueid": "MTK0902:3YOH7BII0AEMMVTWGOXB08P4AL6VKG", "current_trial": 119, "dateTime": 1512870902998, "trialdata": {"rt": -1, "stimulus": "<p id=\"stim\">9</p>", "key_press": -1, "trial_type": "single-stim", "trial_index": 119, "time_elapsed": 724711, "internal_node_id": "0.0-91.0-1.0"}}, {"uniqueid": "MTK0902:3YOH7BII0AEMMVTWGOXB08P4AL6VKG", "current_trial": 120, "dateTime": 1512870903999, "trialdata": {"rt": -1, "stimulus": "<p id=\"stim\">8</p>", "key_press": -1, "trial_type": "single-stim", "trial_index": 120, "time_elapsed": 725712, "internal_node_id": "0.0-91.0-2.0"}}, {"uniqueid": "MTK0902:3YOH7BII0AEMMVTWGOXB08P4AL6VKG", "current_trial": 121, "dateTime": 1512870905001, "trialdata": {"rt": -1, "stimulus": "<p id=\"stim\">7</p>", "key_press": -1, "trial_type": "single-stim", "trial_index": 121, "time_elapsed": 726714, "internal_node_id": "0.0-91.0-3.0"}}, {"uniqueid": "MTK0902:3YOH7BII0AEMMVTWGOXB08P4AL6VKG", "current_trial": 122, "dateTime": 1512870906004, "trialdata": {"rt": -1, "stimulus": "<p id=\"stim\">6</p>", "key_press": -1, "trial_type": "single-stim", "trial_index": 122, "time_elapsed": 727717, "internal_node_id": "0.0-91.0-4.0"}}, {"uniqueid": "MTK0902:3YOH7BII0AEMMVTWGOXB08P4AL6VKG", "current_trial": 123, "dateTime": 1512870907005, "trialdata": {"rt": -1, "stimulus": "<p id=\"stim\">5</p>", "key_press": -1, "trial_type": "single-stim", "trial_index": 123, "time_elapsed": 728718, "internal_node_id": "0.0-91.0-5.0"}}, {"uniqueid": "MTK0902:3YOH7BII0AEMMVTWGOXB08P4AL6VKG", "current_trial": 124, "dateTime": 1512870908006, "trialdata": {"rt": -1, "stimulus": "<p id=\"stim\">4</p>", "key_press": -1, "trial_type": "single-stim", "trial_index": 124, "time_elapsed": 729718, "internal_node_id": "0.0-91.0-6.0"}}, {"uniqueid": "MTK0902:3YOH7BII0AEMMVTWGOXB08P4AL6VKG", "current_trial": 125, "dateTime": 1512870909007, "trialdata": {"rt": -1, "stimulus": "<p id=\"stim\">3</p>", "key_press": -1, "trial_type": "single-stim", "trial_index": 125, "time_elapsed": 730719, "internal_node_id": "0.0-91.0-7.0"}}, {"uniqueid": "MTK0902:3YOH7BII0AEMMVTWGOXB08P4AL6VKG", "current_trial": 126, "dateTime": 1512870910008, "trialdata": {"rt": -1, "stimulus": "<p id=\"stim\">2</p>", "key_press": -1, "trial_type": "single-stim", "trial_index": 126, "time_elapsed": 731721, "internal_node_id": "0.0-91.0-8.0"}}, {"uniqueid": "MTK0902:3YOH7BII0AEMMVTWGOXB08P4AL6VKG", "current_trial": 127, "dateTime": 1512870911009, "trialdata": {"rt": -1, "stimulus": "<p id=\"stim\">1</p>", "key_press": -1, "trial_type": "single-stim", "trial_index": 127, "time_elapsed": 732722, "internal_node_id": "0.0-91.0-9.0"}}, {"uniqueid": "MTK0902:3YOH7BII0AEMMVTWGOXB08P4AL6VKG", "current_trial": 128, "dateTime": 1512870912511, "trialdata": {"rt": -1, "stimulus": "<p id=\"stim\">+</p>", "key_press": -1, "type": "FIXATION", "trial_type": "single-stim", "trial_index": 128, "time_elapsed": 734224, "internal_node_id": "0.0-92.0-0.0"}}, {"uniqueid": "MTK0902:3YOH7BII0AEMMVTWGOXB08P4AL6VKG", "current_trial": 129, "dateTime": 1512870913313, "trialdata": {"rt": -1, "stimulus": "<p id=\"stim\">EMPIRE</p>", "key_press": -1, "type": "PRES_VIS", "word": "empire", "wordID": 529, "conditions": [24, 800, "v", 24000], "trial": 3, "serialpos": 0, "trial_type": "single-stim", "trial_index": 129, "time_elapsed": 735026, "internal_node_id": "0.0-93.0"}}, {"uniqueid": "MTK0902:3YOH7BII0AEMMVTWGOXB08P4AL6VKG", "current_trial": 130, "dateTime": 1512870915054, "trialdata": {"rt": -1, "stimulus": "<p id=\"stim\">HORNET</p>", "key_press": -1, "type": "PRES_VIS", "word": "hornet", "wordID": 717, "conditions": [24, 800, "v", 24000], "trial": 3, "serialpos": 1, "trial_type": "single-stim", "trial_index": 130, "time_elapsed": 736767, "internal_node_id": "0.0-94.0"}}, {"uniqueid": "MTK0902:3YOH7BII0AEMMVTWGOXB08P4AL6VKG", "current_trial": 131, "dateTime": 1512870916802, "trialdata": {"rt": -1, "stimulus": "<p id=\"stim\">PACKAGE</p>", "key_press": -1, "type": "PRES_VIS", "word": "package", "wordID": 996, "conditions": [24, 800, "v", 24000], "trial": 3, "serialpos": 2, "trial_type": "single-stim", "trial_index": 131, "time_elapsed": 738515, "internal_node_id": "0.0-95.0"}}, {"uniqueid": "MTK0902:3YOH7BII0AEMMVTWGOXB08P4AL6VKG", "current_trial": 132, "dateTime": 1512870918581, "trialdata": {"rt": -1, "stimulus": "<p id=\"stim\">MESSAGE</p>", "key_press": -1, "type": "PRES_VIS", "word": "message", "wordID": 887, "conditions": [24, 800, "v", 24000], "trial": 3, "serialpos": 3, "trial_type": "single-stim", "trial_index": 132, "time_elapsed": 740294, "internal_node_id": "0.0-96.0"}}, {"uniqueid": "MTK0902:3YOH7BII0AEMMVTWGOXB08P4AL6VKG", "current_trial": 133, "dateTime": 1512870920223, "trialdata": {"rt": -1, "stimulus": "<p id=\"stim\">FIDDLE</p>", "key_press": -1, "type": "PRES_VIS", "word": "fiddle", "wordID": 560, "conditions": [24, 800, "v", 24000], "trial": 3, "serialpos": 4, "trial_type": "single-stim", "trial_index": 133, "time_elapsed": 741936, "internal_node_id": "0.0-97.0"}}, {"uniqueid": "MTK0902:3YOH7BII0AEMMVTWGOXB08P4AL6VKG", "current_trial": 134, "dateTime": 1512870922011, "trialdata": {"rt": -1, "stimulus": "<p id=\"stim\">HARP</p>", "key_press": -1, "type": "PRES_VIS", "word": "harp", "wordID": 688, "conditions": [24, 800, "v", 24000], "trial": 3, "serialpos": 5, "trial_type": "single-stim", "trial_index": 134, "time_elapsed": 743723, "internal_node_id": "0.0-98.0"}}, {"uniqueid": "MTK0902:3YOH7BII0AEMMVTWGOXB08P4AL6VKG", "current_trial": 135, "dateTime": 1512870923926, "trialdata": {"rt": -1, "stimulus": "<p id=\"stim\">WAITRESS</p>", "key_press": -1, "type": "PRES_VIS", "word": "waitress", "wordID": 1580, "conditions": [24, 800, "v", 24000], "trial": 3, "serialpos": 6, "trial_type": "single-stim", "trial_index": 135, "time_elapsed": 745639, "internal_node_id": "0.0-99.0"}}, {"uniqueid": "MTK0902:3YOH7BII0AEMMVTWGOXB08P4AL6VKG", "current_trial": 136, "dateTime": 1512870925788, "trialdata": {"rt": -1, "stimulus": "<p id=\"stim\">SCALPEL</p>", "key_press": -1, "type": "PRES_VIS", "word": "scalpel", "wordID": 1242, "conditions": [24, 800, "v", 24000], "trial": 3, "serialpos": 7, "trial_type": "single-stim", "trial_index": 136, "time_elapsed": 747501, "internal_node_id": "0.0-100.0"}}, {"uniqueid": "MTK0902:3YOH7BII0AEMMVTWGOXB08P4AL6VKG", "current_trial": 137, "dateTime": 1512870927553, "trialdata": {"rt": -1, "stimulus": "<p id=\"stim\">DRESS</p>", "key_press": -1, "type": "PRES_VIS", "word": "dress", "wordID": 494, "conditions": [24, 800, "v", 24000], "trial": 3, "serialpos": 8, "trial_type": "single-stim", "trial_index": 137, "time_elapsed": 749266, "internal_node_id": "0.0-101.0"}}, {"uniqueid": "MTK0902:3YOH7BII0AEMMVTWGOXB08P4AL6VKG", "current_trial": 138, "dateTime": 1512870929173, "trialdata": {"rt": -1, "stimulus": "<p id=\"stim\">HEDGE</p>", "key_press": -1, "type": "PRES_VIS", "word": "hedge", "wordID": 698, "conditions": [24, 800, "v", 24000], "trial": 3, "serialpos": 9, "trial_type": "single-stim", "trial_index": 138, "time_elapsed": 750886, "internal_node_id": "0.0-102.0"}}, {"uniqueid": "MTK0902:3YOH7BII0AEMMVTWGOXB08P4AL6VKG", "current_trial": 139, "dateTime": 1512870930814, "trialdata": {"rt": -1, "stimulus": "<p id=\"stim\">HOSTESS</p>", "key_press": -1, "type": "PRES_VIS", "word": "hostess", "wordID": 722, "conditions": [24, 800, "v", 24000], "trial": 3, "serialpos": 10, "trial_type": "single-stim", "trial_index": 139, "time_elapsed": 752526, "internal_node_id": "0.0-103.0"}}, {"uniqueid": "MTK0902:3YOH7BII0AEMMVTWGOXB08P4AL6VKG", "current_trial": 140, "dateTime": 1512870932785, "trialdata": {"rt": -1, "stimulus": "<p id=\"stim\">PEPPER</p>", "key_press": -1, "type": "PRES_VIS", "word": "pepper", "wordID": 1046, "conditions": [24, 800, "v", 24000], "trial": 3, "serialpos": 11, "trial_type": "single-stim", "trial_index": 140, "time_elapsed": 754498, "internal_node_id": "0.0-104.0"}}, {"uniqueid": "MTK0902:3YOH7BII0AEMMVTWGOXB08P4AL6VKG", "current_trial": 141, "dateTime": 1512870934490, "trialdata": {"rt": -1, "stimulus": "<p id=\"stim\">HANDBAG</p>", "key_press": -1, "type": "PRES_VIS", "word": "handbag", "wordID": 683, "conditions": [24, 800, "v", 24000], "trial": 3, "serialpos": 12, "trial_type": "single-stim", "trial_index": 141, "time_elapsed": 756203, "internal_node_id": "0.0-105.0"}}, {"uniqueid": "MTK0902:3YOH7BII0AEMMVTWGOXB08P4AL6VKG", "current_trial": 142, "dateTime": 1512870936426, "trialdata": {"rt": -1, "stimulus": "<p id=\"stim\">SALMON</p>", "key_press": -1, "type": "PRES_VIS", "word": "salmon", "wordID": 1226, "conditions": [24, 800, "v", 24000], "trial": 3, "serialpos": 13, "trial_type": "single-stim", "trial_index": 142, "time_elapsed": 758139, "internal_node_id": "0.0-106.0"}}, {"uniqueid": "MTK0902:3YOH7BII0AEMMVTWGOXB08P4AL6VKG", "current_trial": 143, "dateTime": 1512870938281, "trialdata": {"rt": -1, "stimulus": "<p id=\"stim\">TROUT</p>", "key_press": -1, "type": "PRES_VIS", "word": "trout", "wordID": 1510, "conditions": [24, 800, "v", 24000], "trial": 3, "serialpos": 14, "trial_type": "single-stim", "trial_index": 143, "time_elapsed": 759993, "internal_node_id": "0.0-107.0"}}, {"uniqueid": "MTK0902:3YOH7BII0AEMMVTWGOXB08P4AL6VKG", "current_trial": 144, "dateTime": 1512870940172, "trialdata": {"rt": -1, "stimulus": "<p id=\"stim\">AIRPLANE</p>", "key_press": -1, "type": "PRES_VIS", "word": "airplane", "wordID": 11, "conditions": [24, 800, "v", 24000], "trial": 3, "serialpos": 15, "trial_type": "single-stim", "trial_index": 144, "time_elapsed": 761885, "internal_node_id": "0.0-108.0"}}, {"uniqueid": "MTK0902:3YOH7BII0AEMMVTWGOXB08P4AL6VKG", "current_trial": 145, "dateTime": 1512870941780, "trialdata": {"rt": -1, "stimulus": "<p id=\"stim\">STOVE</p>", "key_press": -1, "type": "PRES_VIS", "word": "stove", "wordID": 1387, "conditions": [24, 800, "v", 24000], "trial": 3, "serialpos": 16, "trial_type": "single-stim", "trial_index": 145, "time_elapsed": 763492, "internal_node_id": "0.0-109.0"}}, {"uniqueid": "MTK0902:3YOH7BII0AEMMVTWGOXB08P4AL6VKG", "current_trial": 146, "dateTime": 1512870943499, "trialdata": {"rt": -1, "stimulus": "<p id=\"stim\">CREVICE</p>", "key_press": -1, "type": "PRES_VIS", "word": "crevice", "wordID": 404, "conditions": [24, 800, "v", 24000], "trial": 3, "serialpos": 17, "trial_type": "single-stim", "trial_index": 146, "time_elapsed": 765212, "internal_node_id": "0.0-110.0"}}, {"uniqueid": "MTK0902:3YOH7BII0AEMMVTWGOXB08P4AL6VKG", "current_trial": 147, "dateTime": 1512870945500, "trialdata": {"rt": -1, "stimulus": "<p id=\"stim\">CAPTIVE</p>", "key_press": -1, "type": "PRES_VIS", "word": "captive", "wordID": 239, "conditions": [24, 800, "v", 24000], "trial": 3, "serialpos": 18, "trial_type": "single-stim", "trial_index": 147, "time_elapsed": 767212, "internal_node_id": "0.0-111.0"}}, {"uniqueid": "MTK0902:3YOH7BII0AEMMVTWGOXB08P4AL6VKG", "current_trial": 148, "dateTime": 1512870947160, "trialdata": {"rt": -1, "stimulus": "<p id=\"stim\">SUITCASE</p>", "key_press": -1, "type": "PRES_VIS", "word": "suitcase", "wordID": 1402, "conditions": [24, 800, "v", 24000], "trial": 3, "serialpos": 19, "trial_type": "single-stim", "trial_index": 148, "time_elapsed": 768873, "internal_node_id": "0.0-112.0"}}, {"uniqueid": "MTK0902:3YOH7BII0AEMMVTWGOXB08P4AL6VKG", "current_trial": 149, "dateTime": 1512870948911, "trialdata": {"rt": -1, "stimulus": "<p id=\"stim\">ONION</p>", "key_press": -1, "type": "PRES_VIS", "word": "onion", "wordID": 976, "conditions": [24, 800, "v", 24000], "trial": 3, "serialpos": 20, "trial_type": "single-stim", "trial_index": 149, "time_elapsed": 770624, "internal_node_id": "0.0-113.0"}}, {"uniqueid": "MTK0902:3YOH7BII0AEMMVTWGOXB08P4AL6VKG", "current_trial": 150, "dateTime": 1512870950551, "trialdata": {"rt": -1, "stimulus": "<p id=\"stim\">SPOUSE</p>", "key_press": -1, "type": "PRES_VIS", "word": "spouse", "wordID": 1357, "conditions": [24, 800, "v", 24000], "trial": 3, "serialpos": 21, "trial_type": "single-stim", "trial_index": 150, "time_elapsed": 772264, "internal_node_id": "0.0-114.0"}}, {"uniqueid": "MTK0902:3YOH7BII0AEMMVTWGOXB08P4AL6VKG", "current_trial": 151, "dateTime": 1512870952293, "trialdata": {"rt": -1, "stimulus": "<p id=\"stim\">PEBBLE</p>", "key_press": -1, "type": "PRES_VIS", "word": "pebble", "wordID": 1034, "conditions": [24, 800, "v", 24000], "trial": 3, "serialpos": 22, "trial_type": "single-stim", "trial_index": 151, "time_elapsed": 774005, "internal_node_id": "0.0-115.0"}}, {"uniqueid": "MTK0902:3YOH7BII0AEMMVTWGOXB08P4AL6VKG", "current_trial": 152, "dateTime": 1512870954193, "trialdata": {"rt": -1, "stimulus": "<p id=\"stim\">POCKET</p>", "key_press": -1, "type": "PRES_VIS", "word": "pocket", "wordID": 1092, "conditions": [24, 800, "v", 24000], "trial": 3, "serialpos": 23, "trial_type": "single-stim", "trial_index": 152, "time_elapsed": 775906, "internal_node_id": "0.0-116.0"}}, {"uniqueid": "MTK0902:3YOH7BII0AEMMVTWGOXB08P4AL6VKG", "current_trial": 153, "dateTime": 1512870956328, "trialdata": {"rt": -1, "stimulus": "", "key_press": -1, "type": "PRE_RECALL_DELAY", "trial_type": "single-stim", "trial_index": 153, "time_elapsed": 778041, "internal_node_id": "0.0-117.0-0.0"}}, {"uniqueid": "MTK0902:3YOH7BII0AEMMVTWGOXB08P4AL6VKG", "current_trial": 154, "dateTime": 1512870956844, "trialdata": {"rt": -1000, "stimulus": "/static/audio/400Hz.wav", "key_press": -1, "type": "PRE_RECALL_ALERT", "trial_type": "single-audio", "trial_index": 154, "time_elapsed": 778557, "internal_node_id": "0.0-118.0"}}, {"uniqueid": "MTK0902:3YOH7BII0AEMMVTWGOXB08P4AL6VKG", "current_trial": 155, "dateTime": 1512871016854, "trialdata": {"rt": [4464, 7806, 10873, 15007, 18187, 23281, 25911, 26871, 28966, 29996, 38088, 40864], "recwords": ["spouse", "stove", "airplane", "salmon", "handbag", "package", "fiddle", "harp", "dress", "pepper", "pocket", "pebble"], "type": "FREE_RECALL", "conditions": [24, 800, "v", 24000], "trial": 3, "trial_type": "free-recall", "trial_index": 155, "time_elapsed": 838561, "internal_node_id": "0.0-119.0-0.0"}}, {"uniqueid": "MTK0902:3YOH7BII0AEMMVTWGOXB08P4AL6VKG", "current_trial": 156, "dateTime": 1512871030781, "trialdata": {"rt": 11926, "key_press": 32, "type": "INSTRUCTIONS", "trial_type": "text", "trial_index": 156, "time_elapsed": 852494, "internal_node_id": "0.0-120.0"}}, {"uniqueid": "MTK0902:3YOH7BII0AEMMVTWGOXB08P4AL6VKG", "current_trial": 157, "dateTime": 1512871056783, "trialdata": {"rt": [3708, 7227, 9999, 12430, 14877, 19380, 21840], "responses": ["12", "18", "14", "18", "15", "21", "14"], "num1": [4, 6, 6, 7, 1, 3, 5, 3], "num2": [3, 7, 3, 2, 7, 9, 8, 6], "num3": [5, 5, 5, 9, 6, 9, 1, 6], "type": "DISTRACTOR", "conditions": [24, 1600, "a", 24000], "trial": 4, "trial_type": "math-distractor", "trial_index": 157, "time_elapsed": 878496, "internal_node_id": "0.0-121.0"}}, {"uniqueid": "MTK0902:3YOH7BII0AEMMVTWGOXB08P4AL6VKG", "current_trial": 158, "dateTime": 1512871059785, "trialdata": {"rt": -1, "stimulus": "<p id=\"stim\">10</p>", "key_press": -1, "trial_type": "single-stim", "trial_index": 158, "time_elapsed": 881498, "internal_node_id": "0.0-122.0-0.0"}}, {"uniqueid": "MTK0902:3YOH7BII0AEMMVTWGOXB08P4AL6VKG", "current_trial": 159, "dateTime": 1512871060786, "trialdata": {"rt": -1, "stimulus": "<p id=\"stim\">9</p>", "key_press": -1, "trial_type": "single-stim", "trial_index": 159, "time_elapsed": 882499, "internal_node_id": "0.0-122.0-1.0"}}, {"uniqueid": "MTK0902:3YOH7BII0AEMMVTWGOXB08P4AL6VKG", "current_trial": 160, "dateTime": 1512871061787, "trialdata": {"rt": -1, "stimulus": "<p id=\"stim\">8</p>", "key_press": -1, "trial_type": "single-stim", "trial_index": 160, "time_elapsed": 883500, "internal_node_id": "0.0-122.0-2.0"}}, {"uniqueid": "MTK0902:3YOH7BII0AEMMVTWGOXB08P4AL6VKG", "current_trial": 161, "dateTime": 1512871062788, "trialdata": {"rt": -1, "stimulus": "<p id=\"stim\">7</p>", "key_press": -1, "trial_type": "single-stim", "trial_index": 161, "time_elapsed": 884501, "internal_node_id": "0.0-122.0-3.0"}}, {"uniqueid": "MTK0902:3YOH7BII0AEMMVTWGOXB08P4AL6VKG", "current_trial": 162, "dateTime": 1512871063789, "trialdata": {"rt": -1, "stimulus": "<p id=\"stim\">6</p>", "key_press": -1, "trial_type": "single-stim", "trial_index": 162, "time_elapsed": 885502, "internal_node_id": "0.0-122.0-4.0"}}, {"uniqueid": "MTK0902:3YOH7BII0AEMMVTWGOXB08P4AL6VKG", "current_trial": 163, "dateTime": 1512871064792, "trialdata": {"rt": -1, "stimulus": "<p id=\"stim\">5</p>", "key_press": -1, "trial_type": "single-stim", "trial_index": 163, "time_elapsed": 886505, "internal_node_id": "0.0-122.0-5.0"}}, {"uniqueid": "MTK0902:3YOH7BII0AEMMVTWGOXB08P4AL6VKG", "current_trial": 164, "dateTime": 1512871065794, "trialdata": {"rt": -1, "stimulus": "<p id=\"stim\">4</p>", "key_press": -1, "trial_type": "single-stim", "trial_index": 164, "time_elapsed": 887507, "internal_node_id": "0.0-122.0-6.0"}}, {"uniqueid": "MTK0902:3YOH7BII0AEMMVTWGOXB08P4AL6VKG", "current_trial": 165, "dateTime": 1512871066796, "trialdata": {"rt": -1, "stimulus": "<p id=\"stim\">3</p>", "key_press": -1, "trial_type": "single-stim", "trial_index": 165, "time_elapsed": 888509, "internal_node_id": "0.0-122.0-7.0"}}, {"uniqueid": "MTK0902:3YOH7BII0AEMMVTWGOXB08P4AL6VKG", "current_trial": 166, "dateTime": 1512871067797, "trialdata": {"rt": -1, "stimulus": "<p id=\"stim\">2</p>", "key_press": -1, "trial_type": "single-stim", "trial_index": 166, "time_elapsed": 889510, "internal_node_id": "0.0-122.0-8.0"}}, {"uniqueid": "MTK0902:3YOH7BII0AEMMVTWGOXB08P4AL6VKG", "current_trial": 167, "dateTime": 1512871068799, "trialdata": {"rt": -1, "stimulus": "<p id=\"stim\">1</p>", "key_press": -1, "trial_type": "single-stim", "trial_index": 167, "time_elapsed": 890511, "internal_node_id": "0.0-122.0-9.0"}}, {"uniqueid": "MTK0902:3YOH7BII0AEMMVTWGOXB08P4AL6VKG", "current_trial": 168, "dateTime": 1512871070300, "trialdata": {"rt": -1, "stimulus": "<p id=\"stim\">+</p>", "key_press": -1, "type": "FIXATION", "trial_type": "single-stim", "trial_index": 168, "time_elapsed": 892013, "internal_node_id": "0.0-123.0-0.0"}}, {"uniqueid": "MTK0902:3YOH7BII0AEMMVTWGOXB08P4AL6VKG", "current_trial": 169, "dateTime": 1512871072878, "trialdata": {"rt": -1000, "stimulus": "/static/audio/wordpool/BUNNY.wav", "key_press": -1, "type": "PRES_AUD", "word": "bunny", "wordID": 197, "conditions": [24, 1600, "a", 24000], "trial": 4, "serialpos": 0, "trial_type": "single-audio", "trial_index": 169, "time_elapsed": 894591, "internal_node_id": "0.0-124.0"}}, {"uniqueid": "MTK0902:3YOH7BII0AEMMVTWGOXB08P4AL6VKG", "current_trial": 170, "dateTime": 1512871075536, "trialdata": {"rt": -1000, "stimulus": "/static/audio/wordpool/PLAZA.wav", "key_press": -1, "type": "PRES_AUD", "word": "plaza", "wordID": 1087, "conditions": [24, 1600, "a", 24000], "trial": 4, "serialpos": 1, "trial_type": "single-audio", "trial_index": 170, "time_elapsed": 897248, "internal_node_id": "0.0-125.0"}}, {"uniqueid": "MTK0902:3YOH7BII0AEMMVTWGOXB08P4AL6VKG", "current_trial": 171, "dateTime": 1512871078151, "trialdata": {"rt": -1000, "stimulus": "/static/audio/wordpool/WORLD.wav", "key_press": -1, "type": "PRES_AUD", "word": "world", "wordID": 1621, "conditions": [24, 1600, "a", 24000], "trial": 4, "serialpos": 2, "trial_type": "single-audio", "trial_index": 171, "time_elapsed": 899864, "internal_node_id": "0.0-126.0"}}, {"uniqueid": "MTK0902:3YOH7BII0AEMMVTWGOXB08P4AL6VKG", "current_trial": 172, "dateTime": 1512871080679, "trialdata": {"rt": -1000, "stimulus": "/static/audio/wordpool/COUNTRY.wav", "key_press": -1, "type": "PRES_AUD", "word": "country", "wordID": 387, "conditions": [24, 1600, "a", 24000], "trial": 4, "serialpos": 3, "trial_type": "single-audio", "trial_index": 172, "time_elapsed": 902391, "internal_node_id": "0.0-127.0"}}, {"uniqueid": "MTK0902:3YOH7BII0AEMMVTWGOXB08P4AL6VKG", "current_trial": 173, "dateTime": 1512871083410, "trialdata": {"rt": -1000, "stimulus": "/static/audio/wordpool/DRIVER.wav", "key_press": -1, "type": "PRES_AUD", "word": "driver", "wordID": 498, "conditions": [24, 1600, "a", 24000], "trial": 4, "serialpos": 4, "trial_type": "single-audio", "trial_index": 173, "time_elapsed": 905123, "internal_node_id": "0.0-128.0"}}, {"uniqueid": "MTK0902:3YOH7BII0AEMMVTWGOXB08P4AL6VKG", "current_trial": 174, "dateTime": 1512871086004, "trialdata": {"rt": -1000, "stimulus": "/static/audio/wordpool/STAR.wav", "key_press": -1, "type": "PRES_AUD", "word": "star", "wordID": 1372, "conditions": [24, 1600, "a", 24000], "trial": 4, "serialpos": 5, "trial_type": "single-audio", "trial_index": 174, "time_elapsed": 907717, "internal_node_id": "0.0-129.0"}}, {"uniqueid": "MTK0902:3YOH7BII0AEMMVTWGOXB08P4AL6VKG", "current_trial": 175, "dateTime": 1512871088650, "trialdata": {"rt": -1000, "stimulus": "/static/audio/wordpool/ANKLE.wav", "key_press": -1, "type": "PRES_AUD", "word": "ankle", "wordID": 23, "conditions": [24, 1600, "a", 24000], "trial": 4, "serialpos": 6, "trial_type": "single-audio", "trial_index": 175, "time_elapsed": 910363, "internal_node_id": "0.0-130.0"}}, {"uniqueid": "MTK0902:3YOH7BII0AEMMVTWGOXB08P4AL6VKG", "current_trial": 176, "dateTime": 1512871091244, "trialdata": {"rt": -1000, "stimulus": "/static/audio/wordpool/TRUCK.wav", "key_press": -1, "type": "PRES_AUD", "word": "truck", "wordID": 1511, "conditions": [24, 1600, "a", 24000], "trial": 4, "serialpos": 7, "trial_type": "single-audio", "trial_index": 176, "time_elapsed": 912957, "internal_node_id": "0.0-131.0"}}, {"uniqueid": "MTK0902:3YOH7BII0AEMMVTWGOXB08P4AL6VKG", "current_trial": 177, "dateTime": 1512871093819, "trialdata": {"rt": -1000, "stimulus": "/static/audio/wordpool/CRITIC.wav", "key_press": -1, "type": "PRES_AUD", "word": "critic", "wordID": 409, "conditions": [24, 1600, "a", 24000], "trial": 4, "serialpos": 8, "trial_type": "single-audio", "trial_index": 177, "time_elapsed": 915531, "internal_node_id": "0.0-132.0"}}, {"uniqueid": "MTK0902:3YOH7BII0AEMMVTWGOXB08P4AL6VKG", "current_trial": 178, "dateTime": 1512871096277, "trialdata": {"rt": -1000, "stimulus": "/static/audio/wordpool/KNIFE.wav", "key_press": -1, "type": "PRES_AUD", "word": "knife", "wordID": 784, "conditions": [24, 1600, "a", 24000], "trial": 4, "serialpos": 9, "trial_type": "single-audio", "trial_index": 178, "time_elapsed": 917990, "internal_node_id": "0.0-133.0"}}, {"uniqueid": "MTK0902:3YOH7BII0AEMMVTWGOXB08P4AL6VKG", "current_trial": 179, "dateTime": 1512871098732, "trialdata": {"rt": -1000, "stimulus": "/static/audio/wordpool/SHORTS.wav", "key_press": -1, "type": "PRES_AUD", "word": "shorts", "wordID": 1292, "conditions": [24, 1600, "a", 24000], "trial": 4, "serialpos": 10, "trial_type": "single-audio", "trial_index": 179, "time_elapsed": 920445, "internal_node_id": "0.0-134.0"}}, {"uniqueid": "MTK0902:3YOH7BII0AEMMVTWGOXB08P4AL6VKG", "current_trial": 180, "dateTime": 1512871101483, "trialdata": {"rt": -1000, "stimulus": "/static/audio/wordpool/QUARTER.wav", "key_press": -1, "type": "PRES_AUD", "word": "quarter", "wordID": 1147, "conditions": [24, 1600, "a", 24000], "trial": 4, "serialpos": 11, "trial_type": "single-audio", "trial_index": 180, "time_elapsed": 923195, "internal_node_id": "0.0-135.0"}}, {"uniqueid": "MTK0902:3YOH7BII0AEMMVTWGOXB08P4AL6VKG", "current_trial": 181, "dateTime": 1512871103904, "trialdata": {"rt": -1000, "stimulus": "/static/audio/wordpool/NECKLACE.wav", "key_press": -1, "type": "PRES_AUD", "word": "necklace", "wordID": 939, "conditions": [24, 1600, "a", 24000], "trial": 4, "serialpos": 12, "trial_type": "single-audio", "trial_index": 181, "time_elapsed": 925617, "internal_node_id": "0.0-136.0"}}, {"uniqueid": "MTK0902:3YOH7BII0AEMMVTWGOXB08P4AL6VKG", "current_trial": 182, "dateTime": 1512871106586, "trialdata": {"rt": -1000, "stimulus": "/static/audio/wordpool/WAGON.wav", "key_press": -1, "type": "PRES_AUD", "word": "wagon", "wordID": 1577, "conditions": [24, 1600, "a", 24000], "trial": 4, "serialpos": 13, "trial_type": "single-audio", "trial_index": 182, "time_elapsed": 928299, "internal_node_id": "0.0-137.0"}}, {"uniqueid": "MTK0902:3YOH7BII0AEMMVTWGOXB08P4AL6VKG", "current_trial": 183, "dateTime": 1512871109250, "trialdata": {"rt": -1000, "stimulus": "/static/audio/wordpool/BLOUSE.wav", "key_press": -1, "type": "PRES_AUD", "word": "blouse", "wordID": 138, "conditions": [24, 1600, "a", 24000], "trial": 4, "serialpos": 14, "trial_type": "single-audio", "trial_index": 183, "time_elapsed": 930962, "internal_node_id": "0.0-138.0"}}, {"uniqueid": "MTK0902:3YOH7BII0AEMMVTWGOXB08P4AL6VKG", "current_trial": 184, "dateTime": 1512871111699, "trialdata": {"rt": -1000, "stimulus": "/static/audio/wordpool/INMATE.wav", "key_press": -1, "type": "PRES_AUD", "word": "inmate", "wordID": 737, "conditions": [24, 1600, "a", 24000], "trial": 4, "serialpos": 15, "trial_type": "single-audio", "trial_index": 184, "time_elapsed": 933412, "internal_node_id": "0.0-139.0"}}, {"uniqueid": "MTK0902:3YOH7BII0AEMMVTWGOXB08P4AL6VKG", "current_trial": 185, "dateTime": 1512871114425, "trialdata": {"rt": -1000, "stimulus": "/static/audio/wordpool/PIMPLE.wav", "key_press": -1, "type": "PRES_AUD", "word": "pimple", "wordID": 1070, "conditions": [24, 1600, "a", 24000], "trial": 4, "serialpos": 16, "trial_type": "single-audio", "trial_index": 185, "time_elapsed": 936138, "internal_node_id": "0.0-140.0"}}, {"uniqueid": "MTK0902:3YOH7BII0AEMMVTWGOXB08P4AL6VKG", "current_trial": 186, "dateTime": 1512871117079, "trialdata": {"rt": -1000, "stimulus": "/static/audio/wordpool/DUSTPAN.wav", "key_press": -1, "type": "PRES_AUD", "word": "dustpan", "wordID": 508, "conditions": [24, 1600, "a", 24000], "trial": 4, "serialpos": 17, "trial_type": "single-audio", "trial_index": 186, "time_elapsed": 938792, "internal_node_id": "0.0-141.0"}}, {"uniqueid": "MTK0902:3YOH7BII0AEMMVTWGOXB08P4AL6VKG", "current_trial": 187, "dateTime": 1512871119687, "trialdata": {"rt": -1000, "stimulus": "/static/audio/wordpool/SNACK.wav", "key_press": -1, "type": "PRES_AUD", "word": "snack", "wordID": 1330, "conditions": [24, 1600, "a", 24000], "trial": 4, "serialpos": 18, "trial_type": "single-audio", "trial_index": 187, "time_elapsed": 941400, "internal_node_id": "0.0-142.0"}}, {"uniqueid": "MTK0902:3YOH7BII0AEMMVTWGOXB08P4AL6VKG", "current_trial": 188, "dateTime": 1512871122170, "trialdata": {"rt": -1000, "stimulus": "/static/audio/wordpool/LONDON.wav", "key_press": -1, "type": "PRES_AUD", "word": "london", "wordID": 842, "conditions": [24, 1600, "a", 24000], "trial": 4, "serialpos": 19, "trial_type": "single-audio", "trial_index": 188, "time_elapsed": 943882, "internal_node_id": "0.0-143.0"}}, {"uniqueid": "MTK0902:3YOH7BII0AEMMVTWGOXB08P4AL6VKG", "current_trial": 189, "dateTime": 1512871124824, "trialdata": {"rt": -1000, "stimulus": "/static/audio/wordpool/FRANCE.wav", "key_press": -1, "type": "PRES_AUD", "word": "france", "wordID": 600, "conditions": [24, 1600, "a", 24000], "trial": 4, "serialpos": 20, "trial_type": "single-audio", "trial_index": 189, "time_elapsed": 946537, "internal_node_id": "0.0-144.0"}}, {"uniqueid": "MTK0902:3YOH7BII0AEMMVTWGOXB08P4AL6VKG", "current_trial": 190, "dateTime": 1512871127502, "trialdata": {"rt": -1000, "stimulus": "/static/audio/wordpool/PERFUME.wav", "key_press": -1, "type": "PRES_AUD", "word": "perfume", "wordID": 1048, "conditions": [24, 1600, "a", 24000], "trial": 4, "serialpos": 21, "trial_type": "single-audio", "trial_index": 190, "time_elapsed": 949215, "internal_node_id": "0.0-145.0"}}, {"uniqueid": "MTK0902:3YOH7BII0AEMMVTWGOXB08P4AL6VKG", "current_trial": 191, "dateTime": 1512871130039, "trialdata": {"rt": -1000, "stimulus": "/static/audio/wordpool/LUNCH.wav", "key_press": -1, "type": "PRES_AUD", "word": "lunch", "wordID": 848, "conditions": [24, 1600, "a", 24000], "trial": 4, "serialpos": 22, "trial_type": "single-audio", "trial_index": 191, "time_elapsed": 951752, "internal_node_id": "0.0-146.0"}}, {"uniqueid": "MTK0902:3YOH7BII0AEMMVTWGOXB08P4AL6VKG", "current_trial": 192, "dateTime": 1512871132735, "trialdata": {"rt": -1000, "stimulus": "/static/audio/wordpool/NAPKIN.wav", "key_press": -1, "type": "PRES_AUD", "word": "napkin", "wordID": 936, "conditions": [24, 1600, "a", 24000], "trial": 4, "serialpos": 23, "trial_type": "single-audio", "trial_index": 192, "time_elapsed": 954448, "internal_node_id": "0.0-147.0"}}, {"uniqueid": "MTK0902:3YOH7BII0AEMMVTWGOXB08P4AL6VKG", "current_trial": 193, "dateTime": 1512871133944, "trialdata": {"rt": -1, "stimulus": "", "key_press": -1, "type": "PRE_RECALL_DELAY", "trial_type": "single-stim", "trial_index": 193, "time_elapsed": 955657, "internal_node_id": "0.0-148.0-0.0"}}, {"uniqueid": "MTK0902:3YOH7BII0AEMMVTWGOXB08P4AL6VKG", "current_trial": 194, "dateTime": 1512871134447, "trialdata": {"rt": -1000, "stimulus": "/static/audio/400Hz.wav", "key_press": -1, "type": "PRE_RECALL_ALERT", "trial_type": "single-audio", "trial_index": 194, "time_elapsed": 956159, "internal_node_id": "0.0-149.0"}}, {"uniqueid": "MTK0902:3YOH7BII0AEMMVTWGOXB08P4AL6VKG", "current_trial": 195, "dateTime": 1512871194455, "trialdata": {"rt": [3488, 10385, 12897, 15735, 23057, 24723, 26134, 28744, 31699, 33379, 35594, 48256, 51289], "recwords": ["inmate", "dustpna", "lunch", "pimple", "funny", "world", "star", "truck", "shirts", "quarter", "necklace", "blouse", "star"], "type": "FREE_RECALL", "conditions": [24, 1600, "a", 24000], "trial": 4, "trial_type": "free-recall", "trial_index": 195, "time_elapsed": 1016164, "internal_node_id": "0.0-150.0-0.0"}}, {"uniqueid": "MTK0902:3YOH7BII0AEMMVTWGOXB08P4AL6VKG", "current_trial": 196, "dateTime": 1512871200342, "trialdata": {"rt": 3886, "key_press": 32, "type": "INSTRUCTIONS", "trial_type": "text", "trial_index": 196, "time_elapsed": 1022055, "internal_node_id": "0.0-151.0"}}, {"uniqueid": "MTK0902:3YOH7BII0AEMMVTWGOXB08P4AL6VKG", "current_trial": 197, "dateTime": 1512871226344, "trialdata": {"rt": [2589, 5541, 10597, 14674, 16774, 19462, 22536], "responses": ["17", "16", "20", "20", "14", "15", "12"], "num1": [3, 6, 9, 7, 6, 6, 2, 1], "num2": [5, 2, 5, 4, 1, 8, 4, 6], "num3": [9, 8, 8, 9, 7, 1, 6, 4], "type": "DISTRACTOR", "conditions": [12, 1600, "a", 24000], "trial": 5, "trial_type": "math-distractor", "trial_index": 197, "time_elapsed": 1048057, "internal_node_id": "0.0-152.0"}}, {"uniqueid": "MTK0902:3YOH7BII0AEMMVTWGOXB08P4AL6VKG", "current_trial": 198, "dateTime": 1512871229346, "trialdata": {"rt": -1, "stimulus": "<p id=\"stim\">10</p>", "key_press": -1, "trial_type": "single-stim", "trial_index": 198, "time_elapsed": 1051059, "internal_node_id": "0.0-153.0-0.0"}}, {"uniqueid": "MTK0902:3YOH7BII0AEMMVTWGOXB08P4AL6VKG", "current_trial": 199, "dateTime": 1512871230348, "trialdata": {"rt": -1, "stimulus": "<p id=\"stim\">9</p>", "key_press": -1, "trial_type": "single-stim", "trial_index": 199, "time_elapsed": 1052061, "internal_node_id": "0.0-153.0-1.0"}}, {"uniqueid": "MTK0902:3YOH7BII0AEMMVTWGOXB08P4AL6VKG", "current_trial": 200, "dateTime": 1512871231350, "trialdata": {"rt": -1, "stimulus": "<p id=\"stim\">8</p>", "key_press": -1, "trial_type": "single-stim", "trial_index": 200, "time_elapsed": 1053062, "internal_node_id": "0.0-153.0-2.0"}}, {"uniqueid": "MTK0902:3YOH7BII0AEMMVTWGOXB08P4AL6VKG", "current_trial": 201, "dateTime": 1512871232352, "trialdata": {"rt": -1, "stimulus": "<p id=\"stim\">7</p>", "key_press": -1, "trial_type": "single-stim", "trial_index": 201, "time_elapsed": 1054065, "internal_node_id": "0.0-153.0-3.0"}}, {"uniqueid": "MTK0902:3YOH7BII0AEMMVTWGOXB08P4AL6VKG", "current_trial": 202, "dateTime": 1512871233353, "trialdata": {"rt": -1, "stimulus": "<p id=\"stim\">6</p>", "key_press": -1, "trial_type": "single-stim", "trial_index": 202, "time_elapsed": 1055066, "internal_node_id": "0.0-153.0-4.0"}}, {"uniqueid": "MTK0902:3YOH7BII0AEMMVTWGOXB08P4AL6VKG", "current_trial": 203, "dateTime": 1512871234356, "trialdata": {"rt": -1, "stimulus": "<p id=\"stim\">5</p>", "key_press": -1, "trial_type": "single-stim", "trial_index": 203, "time_elapsed": 1056069, "internal_node_id": "0.0-153.0-5.0"}}, {"uniqueid": "MTK0902:3YOH7BII0AEMMVTWGOXB08P4AL6VKG", "current_trial": 204, "dateTime": 1512871235359, "trialdata": {"rt": -1, "stimulus": "<p id=\"stim\">4</p>", "key_press": -1, "trial_type": "single-stim", "trial_index": 204, "time_elapsed": 1057071, "internal_node_id": "0.0-153.0-6.0"}}, {"uniqueid": "MTK0902:3YOH7BII0AEMMVTWGOXB08P4AL6VKG", "current_trial": 205, "dateTime": 1512871236360, "trialdata": {"rt": -1, "stimulus": "<p id=\"stim\">3</p>", "key_press": -1, "trial_type": "single-stim", "trial_index": 205, "time_elapsed": 1058073, "internal_node_id": "0.0-153.0-7.0"}}, {"uniqueid": "MTK0902:3YOH7BII0AEMMVTWGOXB08P4AL6VKG", "current_trial": 206, "dateTime": 1512871237362, "trialdata": {"rt": -1, "stimulus": "<p id=\"stim\">2</p>", "key_press": -1, "trial_type": "single-stim", "trial_index": 206, "time_elapsed": 1059075, "internal_node_id": "0.0-153.0-8.0"}}, {"uniqueid": "MTK0902:3YOH7BII0AEMMVTWGOXB08P4AL6VKG", "current_trial": 207, "dateTime": 1512871238365, "trialdata": {"rt": -1, "stimulus": "<p id=\"stim\">1</p>", "key_press": -1, "trial_type": "single-stim", "trial_index": 207, "time_elapsed": 1060077, "internal_node_id": "0.0-153.0-9.0"}}, {"uniqueid": "MTK0902:3YOH7BII0AEMMVTWGOXB08P4AL6VKG", "current_trial": 208, "dateTime": 1512871239867, "trialdata": {"rt": -1, "stimulus": "<p id=\"stim\">+</p>", "key_press": -1, "type": "FIXATION", "trial_type": "single-stim", "trial_index": 208, "time_elapsed": 1061580, "internal_node_id": "0.0-154.0-0.0"}}, {"uniqueid": "MTK0902:3YOH7BII0AEMMVTWGOXB08P4AL6VKG", "current_trial": 209, "dateTime": 1512871242460, "trialdata": {"rt": -1000, "stimulus": "/static/audio/wordpool/WAITER.wav", "key_press": -1, "type": "PRES_AUD", "word": "waiter", "wordID": 1579, "conditions": [12, 1600, "a", 24000], "trial": 5, "serialpos": 0, "trial_type": "single-audio", "trial_index": 209, "time_elapsed": 1064173, "internal_node_id": "0.0-155.0"}}, {"uniqueid": "MTK0902:3YOH7BII0AEMMVTWGOXB08P4AL6VKG", "current_trial": 210, "dateTime": 1512871245086, "trialdata": {"rt": -1000, "stimulus": "/static/audio/wordpool/KNAPSACK.wav", "key_press": -1, "type": "PRES_AUD", "word": "knapsack", "wordID": 782, "conditions": [12, 1600, "a", 24000], "trial": 5, "serialpos": 1, "trial_type": "single-audio", "trial_index": 210, "time_elapsed": 1066798, "internal_node_id": "0.0-156.0"}}, {"uniqueid": "MTK0902:3YOH7BII0AEMMVTWGOXB08P4AL6VKG", "current_trial": 211, "dateTime": 1512871247576, "trialdata": {"rt": -1000, "stimulus": "/static/audio/wordpool/BRIEFCASE.wav", "key_press": -1, "type": "PRES_AUD", "word": "briefcase", "wordID": 174, "conditions": [12, 1600, "a", 24000], "trial": 5, "serialpos": 2, "trial_type": "single-audio", "trial_index": 211, "time_elapsed": 1069289, "internal_node_id": "0.0-157.0"}}, {"uniqueid": "MTK0902:3YOH7BII0AEMMVTWGOXB08P4AL6VKG", "current_trial": 212, "dateTime": 1512871250047, "trialdata": {"rt": -1000, "stimulus": "/static/audio/wordpool/ORCHID.wav", "key_press": -1, "type": "PRES_AUD", "word": "orchid", "wordID": 981, "conditions": [12, 1600, "a", 24000], "trial": 5, "serialpos": 3, "trial_type": "single-audio", "trial_index": 212, "time_elapsed": 1071760, "internal_node_id": "0.0-158.0"}}, {"uniqueid": "MTK0902:3YOH7BII0AEMMVTWGOXB08P4AL6VKG", "current_trial": 213, "dateTime": 1512871252606, "trialdata": {"rt": -1000, "stimulus": "/static/audio/wordpool/BURGLAR.wav", "key_press": -1, "type": "PRES_AUD", "word": "burglar", "wordID": 199, "conditions": [12, 1600, "a", 24000], "trial": 5, "serialpos": 4, "trial_type": "single-audio", "trial_index": 213, "time_elapsed": 1074319, "internal_node_id": "0.0-159.0"}}, {"uniqueid": "MTK0902:3YOH7BII0AEMMVTWGOXB08P4AL6VKG", "current_trial": 214, "dateTime": 1512871255148, "trialdata": {"rt": -1000, "stimulus": "/static/audio/wordpool/BADGE.wav", "key_press": -1, "type": "PRES_AUD", "word": "badge", "wordID": 67, "conditions": [12, 1600, "a", 24000], "trial": 5, "serialpos": 5, "trial_type": "single-audio", "trial_index": 214, "time_elapsed": 1076861, "internal_node_id": "0.0-160.0"}}, {"uniqueid": "MTK0902:3YOH7BII0AEMMVTWGOXB08P4AL6VKG", "current_trial": 215, "dateTime": 1512871257631, "trialdata": {"rt": -1000, "stimulus": "/static/audio/wordpool/APRON.wav", "key_press": -1, "type": "PRES_AUD", "word": "apron", "wordID": 34, "conditions": [12, 1600, "a", 24000], "trial": 5, "serialpos": 6, "trial_type": "single-audio", "trial_index": 215, "time_elapsed": 1079344, "internal_node_id": "0.0-161.0"}}, {"uniqueid": "MTK0902:3YOH7BII0AEMMVTWGOXB08P4AL6VKG", "current_trial": 216, "dateTime": 1512871260357, "trialdata": {"rt": -1000, "stimulus": "/static/audio/wordpool/SCARF.wav", "key_press": -1, "type": "PRES_AUD", "word": "scarf", "wordID": 1245, "conditions": [12, 1600, "a", 24000], "trial": 5, "serialpos": 7, "trial_type": "single-audio", "trial_index": 216, "time_elapsed": 1082070, "internal_node_id": "0.0-162.0"}}, {"uniqueid": "MTK0902:3YOH7BII0AEMMVTWGOXB08P4AL6VKG", "current_trial": 217, "dateTime": 1512871262950, "trialdata": {"rt": -1000, "stimulus": "/static/audio/wordpool/BLACKBOARD.wav", "key_press": -1, "type": "PRES_AUD", "word": "blackboard", "wordID": 132, "conditions": [12, 1600, "a", 24000], "trial": 5, "serialpos": 8, "trial_type": "single-audio", "trial_index": 217, "time_elapsed": 1084663, "internal_node_id": "0.0-163.0"}}, {"uniqueid": "MTK0902:3YOH7BII0AEMMVTWGOXB08P4AL6VKG", "current_trial": 218, "dateTime": 1512871265633, "trialdata": {"rt": -1000, "stimulus": "/static/audio/wordpool/TYPIST.wav", "key_press": -1, "type": "PRES_AUD", "word": "typist", "wordID": 1531, "conditions": [12, 1600, "a", 24000], "trial": 5, "serialpos": 9, "trial_type": "single-audio", "trial_index": 218, "time_elapsed": 1087345, "internal_node_id": "0.0-164.0"}}, {"uniqueid": "MTK0902:3YOH7BII0AEMMVTWGOXB08P4AL6VKG", "current_trial": 219, "dateTime": 1512871268352, "trialdata": {"rt": -1000, "stimulus": "/static/audio/wordpool/SLIDE.wav", "key_press": -1, "type": "PRES_AUD", "word": "slide", "wordID": 1325, "conditions": [12, 1600, "a", 24000], "trial": 5, "serialpos": 10, "trial_type": "single-audio", "trial_index": 219, "time_elapsed": 1090065, "internal_node_id": "0.0-165.0"}}, {"uniqueid": "MTK0902:3YOH7BII0AEMMVTWGOXB08P4AL6VKG", "current_trial": 220, "dateTime": 1512871270898, "trialdata": {"rt": -1000, "stimulus": "/static/audio/wordpool/LILY.wav", "key_press": -1, "type": "PRES_AUD", "word": "lily", "wordID": 820, "conditions": [12, 1600, "a", 24000], "trial": 5, "serialpos": 11, "trial_type": "single-audio", "trial_index": 220, "time_elapsed": 1092611, "internal_node_id": "0.0-166.0"}}, {"uniqueid": "MTK0902:3YOH7BII0AEMMVTWGOXB08P4AL6VKG", "current_trial": 221, "dateTime": 1512871272134, "trialdata": {"rt": -1, "stimulus": "", "key_press": -1, "type": "PRE_RECALL_DELAY", "trial_type": "single-stim", "trial_index": 221, "time_elapsed": 1093847, "internal_node_id": "0.0-167.0-0.0"}}, {"uniqueid": "MTK0902:3YOH7BII0AEMMVTWGOXB08P4AL6VKG", "current_trial": 222, "dateTime": 1512871272642, "trialdata": {"rt": -1000, "stimulus": "/static/audio/400Hz.wav", "key_press": -1, "type": "PRE_RECALL_ALERT", "trial_type": "single-audio", "trial_index": 222, "time_elapsed": 1094354, "internal_node_id": "0.0-168.0"}}, {"uniqueid": "MTK0902:3YOH7BII0AEMMVTWGOXB08P4AL6VKG", "current_trial": 223, "dateTime": 1512871332649, "trialdata": {"rt": [5094, 8393, 11005, 12206, 14786, 15831, 21040], "recwords": ["waiter", "briefcase", "badge", "apron", "lilly", "slide", "blackbird"], "type": "FREE_RECALL", "conditions": [12, 1600, "a", 24000], "trial": 5, "trial_type": "free-recall", "trial_index": 223, "time_elapsed": 1154358, "internal_node_id": "0.0-169.0-0.0"}}, {"uniqueid": "MTK0902:3YOH7BII0AEMMVTWGOXB08P4AL6VKG", "current_trial": 224, "dateTime": 1512871336286, "trialdata": {"rt": 1635, "key_press": 32, "type": "INSTRUCTIONS", "trial_type": "text", "trial_index": 224, "time_elapsed": 1157999, "internal_node_id": "0.0-170.0"}}, {"uniqueid": "MTK0902:3YOH7BII0AEMMVTWGOXB08P4AL6VKG", "current_trial": 225, "dateTime": 1512871350289, "trialdata": {"rt": [2892, 6008, 9915], "responses": ["12", "20", "15"], "num1": [6, 9, 3, 2], "num2": [2, 2, 8, 6], "num3": [4, 9, 7, 3], "type": "DISTRACTOR", "conditions": [24, 800, "a", 12000], "trial": 6, "trial_type": "math-distractor", "trial_index": 225, "time_elapsed": 1172002, "internal_node_id": "0.0-171.0"}}, {"uniqueid": "MTK0902:3YOH7BII0AEMMVTWGOXB08P4AL6VKG", "current_trial": 226, "dateTime": 1512871353290, "trialdata": {"rt": -1, "stimulus": "<p id=\"stim\">10</p>", "key_press": -1, "trial_type": "single-stim", "trial_index": 226, "time_elapsed": 1175003, "internal_node_id": "0.0-172.0-0.0"}}, {"uniqueid": "MTK0902:3YOH7BII0AEMMVTWGOXB08P4AL6VKG", "current_trial": 227, "dateTime": 1512871354291, "trialdata": {"rt": -1, "stimulus": "<p id=\"stim\">9</p>", "key_press": -1, "trial_type": "single-stim", "trial_index": 227, "time_elapsed": 1176003, "internal_node_id": "0.0-172.0-1.0"}}, {"uniqueid": "MTK0902:3YOH7BII0AEMMVTWGOXB08P4AL6VKG", "current_trial": 228, "dateTime": 1512871355292, "trialdata": {"rt": -1, "stimulus": "<p id=\"stim\">8</p>", "key_press": -1, "trial_type": "single-stim", "trial_index": 228, "time_elapsed": 1177005, "internal_node_id": "0.0-172.0-2.0"}}, {"uniqueid": "MTK0902:3YOH7BII0AEMMVTWGOXB08P4AL6VKG", "current_trial": 229, "dateTime": 1512871356294, "trialdata": {"rt": -1, "stimulus": "<p id=\"stim\">7</p>", "key_press": -1, "trial_type": "single-stim", "trial_index": 229, "time_elapsed": 1178007, "internal_node_id": "0.0-172.0-3.0"}}, {"uniqueid": "MTK0902:3YOH7BII0AEMMVTWGOXB08P4AL6VKG", "current_trial": 230, "dateTime": 1512871357297, "trialdata": {"rt": -1, "stimulus": "<p id=\"stim\">6</p>", "key_press": -1, "trial_type": "single-stim", "trial_index": 230, "time_elapsed": 1179010, "internal_node_id": "0.0-172.0-4.0"}}, {"uniqueid": "MTK0902:3YOH7BII0AEMMVTWGOXB08P4AL6VKG", "current_trial": 231, "dateTime": 1512871358301, "trialdata": {"rt": -1, "stimulus": "<p id=\"stim\">5</p>", "key_press": -1, "trial_type": "single-stim", "trial_index": 231, "time_elapsed": 1180013, "internal_node_id": "0.0-172.0-5.0"}}, {"uniqueid": "MTK0902:3YOH7BII0AEMMVTWGOXB08P4AL6VKG", "current_trial": 232, "dateTime": 1512871359302, "trialdata": {"rt": -1, "stimulus": "<p id=\"stim\">4</p>", "key_press": -1, "trial_type": "single-stim", "trial_index": 232, "time_elapsed": 1181015, "internal_node_id": "0.0-172.0-6.0"}}, {"uniqueid": "MTK0902:3YOH7BII0AEMMVTWGOXB08P4AL6VKG", "current_trial": 233, "dateTime": 1512871360303, "trialdata": {"rt": -1, "stimulus": "<p id=\"stim\">3</p>", "key_press": -1, "trial_type": "single-stim", "trial_index": 233, "time_elapsed": 1182016, "internal_node_id": "0.0-172.0-7.0"}}, {"uniqueid": "MTK0902:3YOH7BII0AEMMVTWGOXB08P4AL6VKG", "current_trial": 234, "dateTime": 1512871361304, "trialdata": {"rt": -1, "stimulus": "<p id=\"stim\">2</p>", "key_press": -1, "trial_type": "single-stim", "trial_index": 234, "time_elapsed": 1183017, "internal_node_id": "0.0-172.0-8.0"}}, {"uniqueid": "MTK0902:3YOH7BII0AEMMVTWGOXB08P4AL6VKG", "current_trial": 235, "dateTime": 1512871362306, "trialdata": {"rt": -1, "stimulus": "<p id=\"stim\">1</p>", "key_press": -1, "trial_type": "single-stim", "trial_index": 235, "time_elapsed": 1184019, "internal_node_id": "0.0-172.0-9.0"}}, {"uniqueid": "MTK0902:3YOH7BII0AEMMVTWGOXB08P4AL6VKG", "current_trial": 236, "dateTime": 1512871363808, "trialdata": {"rt": -1, "stimulus": "<p id=\"stim\">+</p>", "key_press": -1, "type": "FIXATION", "trial_type": "single-stim", "trial_index": 236, "time_elapsed": 1185521, "internal_node_id": "0.0-173.0-0.0"}}, {"uniqueid": "MTK0902:3YOH7BII0AEMMVTWGOXB08P4AL6VKG", "current_trial": 237, "dateTime": 1512871365465, "trialdata": {"rt": -1000, "stimulus": "/static/audio/wordpool/CLOTHES.wav", "key_press": -1, "type": "PRES_AUD", "word": "clothes", "wordID": 326, "conditions": [24, 800, "a", 12000], "trial": 6, "serialpos": 0, "trial_type": "single-audio", "trial_index": 237, "time_elapsed": 1187178, "internal_node_id": "0.0-174.0"}}, {"uniqueid": "MTK0902:3YOH7BII0AEMMVTWGOXB08P4AL6VKG", "current_trial": 238, "dateTime": 1512871367435, "trialdata": {"rt": -1000, "stimulus": "/static/audio/wordpool/ASIA.wav", "key_press": -1, "type": "PRES_AUD", "word": "asia", "wordID": 45, "conditions": [24, 800, "a", 12000], "trial": 6, "serialpos": 1, "trial_type": "single-audio", "trial_index": 238, "time_elapsed": 1189148, "internal_node_id": "0.0-175.0"}}, {"uniqueid": "MTK0902:3YOH7BII0AEMMVTWGOXB08P4AL6VKG", "current_trial": 239, "dateTime": 1512871369333, "trialdata": {"rt": -1000, "stimulus": "/static/audio/wordpool/VALLEY.wav", "key_press": -1, "type": "PRES_AUD", "word": "valley", "wordID": 1544, "conditions": [24, 800, "a", 12000], "trial": 6, "serialpos": 2, "trial_type": "single-audio", "trial_index": 239, "time_elapsed": 1191046, "internal_node_id": "0.0-176.0"}}, {"uniqueid": "MTK0902:3YOH7BII0AEMMVTWGOXB08P4AL6VKG", "current_trial": 240, "dateTime": 1512871371289, "trialdata": {"rt": -1000, "stimulus": "/static/audio/wordpool/PLAID.wav", "key_press": -1, "type": "PRES_AUD", "word": "plaid", "wordID": 1079, "conditions": [24, 800, "a", 12000], "trial": 6, "serialpos": 3, "trial_type": "single-audio", "trial_index": 240, "time_elapsed": 1193002, "internal_node_id": "0.0-177.0"}}, {"uniqueid": "MTK0902:3YOH7BII0AEMMVTWGOXB08P4AL6VKG", "current_trial": 241, "dateTime": 1512871373074, "trialdata": {"rt": -1000, "stimulus": "/static/audio/wordpool/COUCH.wav", "key_press": -1, "type": "PRES_AUD", "word": "couch", "wordID": 385, "conditions": [24, 800, "a", 12000], "trial": 6, "serialpos": 4, "trial_type": "single-audio", "trial_index": 241, "time_elapsed": 1194787, "internal_node_id": "0.0-178.0"}}, {"uniqueid": "MTK0902:3YOH7BII0AEMMVTWGOXB08P4AL6VKG", "current_trial": 242, "dateTime": 1512871375054, "trialdata": {"rt": -1000, "stimulus": "/static/audio/wordpool/BEAST.wav", "key_press": -1, "type": "PRES_AUD", "word": "beast", "wordID": 107, "conditions": [24, 800, "a", 12000], "trial": 6, "serialpos": 5, "trial_type": "single-audio", "trial_index": 242, "time_elapsed": 1196765, "internal_node_id": "0.0-179.0"}}, {"uniqueid": "MTK0902:3YOH7BII0AEMMVTWGOXB08P4AL6VKG", "current_trial": 243, "dateTime": 1512871376985, "trialdata": {"rt": -1000, "stimulus": "/static/audio/wordpool/BACKBONE.wav", "key_press": -1, "type": "PRES_AUD", "word": "backbone", "wordID": 65, "conditions": [24, 800, "a", 12000], "trial": 6, "serialpos": 6, "trial_type": "single-audio", "trial_index": 243, "time_elapsed": 1198698, "internal_node_id": "0.0-180.0"}}, {"uniqueid": "MTK0902:3YOH7BII0AEMMVTWGOXB08P4AL6VKG", "current_trial": 244, "dateTime": 1512871378697, "trialdata": {"rt": -1000, "stimulus": "/static/audio/wordpool/SAUSAGE.wav", "key_press": -1, "type": "PRES_AUD", "word": "sausage", "wordID": 1237, "conditions": [24, 800, "a", 12000], "trial": 6, "serialpos": 7, "trial_type": "single-audio", "trial_index": 244, "time_elapsed": 1200410, "internal_node_id": "0.0-181.0"}}, {"uniqueid": "MTK0902:3YOH7BII0AEMMVTWGOXB08P4AL6VKG", "current_trial": 245, "dateTime": 1512871380693, "trialdata": {"rt": -1000, "stimulus": "/static/audio/wordpool/PORK.wav", "key_press": -1, "type": "PRES_AUD", "word": "pork", "wordID": 1107, "conditions": [24, 800, "a", 12000], "trial": 6, "serialpos": 8, "trial_type": "single-audio", "trial_index": 245, "time_elapsed": 1202406, "internal_node_id": "0.0-182.0"}}, {"uniqueid": "MTK0902:3YOH7BII0AEMMVTWGOXB08P4AL6VKG", "current_trial": 246, "dateTime": 1512871382520, "trialdata": {"rt": -1000, "stimulus": "/static/audio/wordpool/MONSTER.wav", "key_press": -1, "type": "PRES_AUD", "word": "monster", "wordID": 911, "conditions": [24, 800, "a", 12000], "trial": 6, "serialpos": 9, "trial_type": "single-audio", "trial_index": 246, "time_elapsed": 1204233, "internal_node_id": "0.0-183.0"}}, {"uniqueid": "MTK0902:3YOH7BII0AEMMVTWGOXB08P4AL6VKG", "current_trial": 247, "dateTime": 1512871384222, "trialdata": {"rt": -1000, "stimulus": "/static/audio/wordpool/LAKE.wav", "key_press": -1, "type": "PRES_AUD", "word": "lake", "wordID": 795, "conditions": [24, 800, "a", 12000], "trial": 6, "serialpos": 10, "trial_type": "single-audio", "trial_index": 247, "time_elapsed": 1205935, "internal_node_id": "0.0-184.0"}}, {"uniqueid": "MTK0902:3YOH7BII0AEMMVTWGOXB08P4AL6VKG", "current_trial": 248, "dateTime": 1512871385983, "trialdata": {"rt": -1000, "stimulus": "/static/audio/wordpool/SHOVEL.wav", "key_press": -1, "type": "PRES_AUD", "word": "shovel", "wordID": 1294, "conditions": [24, 800, "a", 12000], "trial": 6, "serialpos": 11, "trial_type": "single-audio", "trial_index": 248, "time_elapsed": 1207696, "internal_node_id": "0.0-185.0"}}, {"uniqueid": "MTK0902:3YOH7BII0AEMMVTWGOXB08P4AL6VKG", "current_trial": 249, "dateTime": 1512871387904, "trialdata": {"rt": -1000, "stimulus": "/static/audio/wordpool/BUCKET.wav", "key_press": -1, "type": "PRES_AUD", "word": "bucket", "wordID": 183, "conditions": [24, 800, "a", 12000], "trial": 6, "serialpos": 12, "trial_type": "single-audio", "trial_index": 249, "time_elapsed": 1209617, "internal_node_id": "0.0-186.0"}}, {"uniqueid": "MTK0902:3YOH7BII0AEMMVTWGOXB08P4AL6VKG", "current_trial": 250, "dateTime": 1512871389799, "trialdata": {"rt": -1000, "stimulus": "/static/audio/wordpool/MAILBOX.wav", "key_press": -1, "type": "PRES_AUD", "word": "mailbox", "wordID": 856, "conditions": [24, 800, "a", 12000], "trial": 6, "serialpos": 13, "trial_type": "single-audio", "trial_index": 250, "time_elapsed": 1211512, "internal_node_id": "0.0-187.0"}}, {"uniqueid": "MTK0902:3YOH7BII0AEMMVTWGOXB08P4AL6VKG", "current_trial": 251, "dateTime": 1512871391705, "trialdata": {"rt": -1000, "stimulus": "/static/audio/wordpool/ELBOW.wav", "key_press": -1, "type": "PRES_AUD", "word": "elbow", "wordID": 519, "conditions": [24, 800, "a", 12000], "trial": 6, "serialpos": 14, "trial_type": "single-audio", "trial_index": 251, "time_elapsed": 1213418, "internal_node_id": "0.0-188.0"}}, {"uniqueid": "MTK0902:3YOH7BII0AEMMVTWGOXB08P4AL6VKG", "current_trial": 252, "dateTime": 1512871393427, "trialdata": {"rt": -1000, "stimulus": "/static/audio/wordpool/YARN.wav", "key_press": -1, "type": "PRES_AUD", "word": "yarn", "wordID": 1630, "conditions": [24, 800, "a", 12000], "trial": 6, "serialpos": 15, "trial_type": "single-audio", "trial_index": 252, "time_elapsed": 1215139, "internal_node_id": "0.0-189.0"}}, {"uniqueid": "MTK0902:3YOH7BII0AEMMVTWGOXB08P4AL6VKG", "current_trial": 253, "dateTime": 1512871395152, "trialdata": {"rt": -1000, "stimulus": "/static/audio/wordpool/CIGAR.wav", "key_press": -1, "type": "PRES_AUD", "word": "cigar", "wordID": 307, "conditions": [24, 800, "a", 12000], "trial": 6, "serialpos": 16, "trial_type": "single-audio", "trial_index": 253, "time_elapsed": 1216865, "internal_node_id": "0.0-190.0"}}, {"uniqueid": "MTK0902:3YOH7BII0AEMMVTWGOXB08P4AL6VKG", "current_trial": 254, "dateTime": 1512871397049, "trialdata": {"rt": -1000, "stimulus": "/static/audio/wordpool/SPONGE.wav", "key_press": -1, "type": "PRES_AUD", "word": "sponge", "wordID": 1354, "conditions": [24, 800, "a", 12000], "trial": 6, "serialpos": 17, "trial_type": "single-audio", "trial_index": 254, "time_elapsed": 1218761, "internal_node_id": "0.0-191.0"}}, {"uniqueid": "MTK0902:3YOH7BII0AEMMVTWGOXB08P4AL6VKG", "current_trial": 255, "dateTime": 1512871398697, "trialdata": {"rt": -1000, "stimulus": "/static/audio/wordpool/TURTLE.wav", "key_press": -1, "type": "PRES_AUD", "word": "turtle", "wordID": 1521, "conditions": [24, 800, "a", 12000], "trial": 6, "serialpos": 18, "trial_type": "single-audio", "trial_index": 255, "time_elapsed": 1220410, "internal_node_id": "0.0-192.0"}}, {"uniqueid": "MTK0902:3YOH7BII0AEMMVTWGOXB08P4AL6VKG", "current_trial": 256, "dateTime": 1512871400401, "trialdata": {"rt": -1000, "stimulus": "/static/audio/wordpool/PATIENT.wav", "key_press": -1, "type": "PRES_AUD", "word": "patient", "wordID": 1023, "conditions": [24, 800, "a", 12000], "trial": 6, "serialpos": 19, "trial_type": "single-audio", "trial_index": 256, "time_elapsed": 1222113, "internal_node_id": "0.0-193.0"}}, {"uniqueid": "MTK0902:3YOH7BII0AEMMVTWGOXB08P4AL6VKG", "current_trial": 257, "dateTime": 1512871402181, "trialdata": {"rt": -1000, "stimulus": "/static/audio/wordpool/NURSE.wav", "key_press": -1, "type": "PRES_AUD", "word": "nurse", "wordID": 962, "conditions": [24, 800, "a", 12000], "trial": 6, "serialpos": 20, "trial_type": "single-audio", "trial_index": 257, "time_elapsed": 1223894, "internal_node_id": "0.0-194.0"}}, {"uniqueid": "MTK0902:3YOH7BII0AEMMVTWGOXB08P4AL6VKG", "current_trial": 258, "dateTime": 1512871403920, "trialdata": {"rt": -1000, "stimulus": "/static/audio/wordpool/MAILMAN.wav", "key_press": -1, "type": "PRES_AUD", "word": "mailman", "wordID": 857, "conditions": [24, 800, "a", 12000], "trial": 6, "serialpos": 21, "trial_type": "single-audio", "trial_index": 258, "time_elapsed": 1225632, "internal_node_id": "0.0-195.0"}}, {"uniqueid": "MTK0902:3YOH7BII0AEMMVTWGOXB08P4AL6VKG", "current_trial": 259, "dateTime": 1512871405618, "trialdata": {"rt": -1000, "stimulus": "/static/audio/wordpool/ORANGE.wav", "key_press": -1, "type": "PRES_AUD", "word": "orange", "wordID": 979, "conditions": [24, 800, "a", 12000], "trial": 6, "serialpos": 22, "trial_type": "single-audio", "trial_index": 259, "time_elapsed": 1227330, "internal_node_id": "0.0-196.0"}}, {"uniqueid": "MTK0902:3YOH7BII0AEMMVTWGOXB08P4AL6VKG", "current_trial": 260, "dateTime": 1512871407485, "trialdata": {"rt": -1000, "stimulus": "/static/audio/wordpool/EUROPE.wav", "key_press": -1, "type": "PRES_AUD", "word": "europe", "wordID": 540, "conditions": [24, 800, "a", 12000], "trial": 6, "serialpos": 23, "trial_type": "single-audio", "trial_index": 260, "time_elapsed": 1229198, "internal_node_id": "0.0-197.0"}}, {"uniqueid": "MTK0902:3YOH7BII0AEMMVTWGOXB08P4AL6VKG", "current_trial": 261, "dateTime": 1512871408701, "trialdata": {"rt": -1, "stimulus": "", "key_press": -1, "type": "PRE_RECALL_DELAY", "trial_type": "single-stim", "trial_index": 261, "time_elapsed": 1230414, "internal_node_id": "0.0-198.0-0.0"}}, {"uniqueid": "MTK0902:3YOH7BII0AEMMVTWGOXB08P4AL6VKG", "current_trial": 262, "dateTime": 1512871409203, "trialdata": {"rt": -1000, "stimulus": "/static/audio/400Hz.wav", "key_press": -1, "type": "PRE_RECALL_ALERT", "trial_type": "single-audio", "trial_index": 262, "time_elapsed": 1230916, "internal_node_id": "0.0-199.0"}}, {"uniqueid": "MTK0902:3YOH7BII0AEMMVTWGOXB08P4AL6VKG", "current_trial": 263, "dateTime": 1512871469214, "trialdata": {"rt": [5708, 10201, 13231, 16664, 21688, 24051, 25247, 27452, 29297, 30879, 33294, 34167, 41940, 59634], "recwords": ["nurse", "mailbox", "yarn", "cigar", "plaid", "monster", "beast", "pork", "sausge", "lake", "elbow", "yarn", "parker", "couch"], "type": "FREE_RECALL", "conditions": [24, 800, "a", 12000], "trial": 6, "trial_type": "free-recall", "trial_index": 263, "time_elapsed": 1290919, "internal_node_id": "0.0-200.0-0.0"}}, {"uniqueid": "MTK0902:3YOH7BII0AEMMVTWGOXB08P4AL6VKG", "current_trial": 264, "dateTime": 1512871472429, "trialdata": {"rt": 1213, "key_press": 32, "type": "INSTRUCTIONS", "trial_type": "text", "trial_index": 264, "time_elapsed": 1294142, "internal_node_id": "0.0-201.0"}}, {"uniqueid": "MTK0902:3YOH7BII0AEMMVTWGOXB08P4AL6VKG", "current_trial": 265, "dateTime": 1512871486431, "trialdata": {"rt": [2014, 5220, 7160, 11042], "responses": ["9", "15", "14", "24"], "num1": [3, 6, 5, 6, 1], "num2": [1, 3, 4, 9, 9], "num3": [5, 6, 5, 9, 4], "type": "DISTRACTOR", "conditions": [24, 1600, "a", 12000], "trial": 7, "trial_type": "math-distractor", "trial_index": 265, "time_elapsed": 1308144, "internal_node_id": "0.0-202.0"}}, {"uniqueid": "MTK0902:3YOH7BII0AEMMVTWGOXB08P4AL6VKG", "current_trial": 266, "dateTime": 1512871489432, "trialdata": {"rt": -1, "stimulus": "<p id=\"stim\">10</p>", "key_press": -1, "trial_type": "single-stim", "trial_index": 266, "time_elapsed": 1311145, "internal_node_id": "0.0-203.0-0.0"}}, {"uniqueid": "MTK0902:3YOH7BII0AEMMVTWGOXB08P4AL6VKG", "current_trial": 267, "dateTime": 1512871490433, "trialdata": {"rt": -1, "stimulus": "<p id=\"stim\">9</p>", "key_press": -1, "trial_type": "single-stim", "trial_index": 267, "time_elapsed": 1312146, "internal_node_id": "0.0-203.0-1.0"}}, {"uniqueid": "MTK0902:3YOH7BII0AEMMVTWGOXB08P4AL6VKG", "current_trial": 268, "dateTime": 1512871491434, "trialdata": {"rt": -1, "stimulus": "<p id=\"stim\">8</p>", "key_press": -1, "trial_type": "single-stim", "trial_index": 268, "time_elapsed": 131