{"condition": 0, "counterbalance": 1704, "assignmentId": "39U1BHVTDMY1D5H0QN5XI4KH2FCT3X", "workerId": "MTK0988", "hitId": "3IH9TRB0FB6D74PGJ5N8RK7RD6Z1I6", "currenttrial": 626, "bonus": 0, "data": [{"uniqueid": "MTK0988:39U1BHVTDMY1D5H0QN5XI4KH2FCT3X", "current_trial": 0, "dateTime": 1512951885422, "trialdata": {"rt": 2613, "key_press": 13, "type": "INSTRUCTIONS", "trial_type": "text", "trial_index": 0, "time_elapsed": 2614, "internal_node_id": "0.0-0.0"}}, {"uniqueid": "MTK0988:39U1BHVTDMY1D5H0QN5XI4KH2FCT3X", "current_trial": 1, "dateTime": 1512951936519, "trialdata": {"rt": 51096, "key_press": 32, "type": "INSTRUCTIONS", "trial_type": "text", "trial_index": 1, "time_elapsed": 53712, "internal_node_id": "0.0-1.0"}}, {"uniqueid": "MTK0988:39U1BHVTDMY1D5H0QN5XI4KH2FCT3X", "current_trial": 2, "dateTime": 1512951946386, "trialdata": {"rt": [9861], "responses": ["ocean"], "type": "AUDIO_TEST", "trial_type": "audio-test", "trial_index": 2, "time_elapsed": 63579, "internal_node_id": "0.0-2.0"}}, {"uniqueid": "MTK0988:39U1BHVTDMY1D5H0QN5XI4KH2FCT3X", "current_trial": 3, "dateTime": 1512951955464, "trialdata": {"rt": [9075], "responses": ["crystal"], "type": "AUDIO_TEST", "trial_type": "audio-test", "trial_index": 3, "time_elapsed": 72657, "internal_node_id": "0.0-3.0"}}, {"uniqueid": "MTK0988:39U1BHVTDMY1D5H0QN5XI4KH2FCT3X", "current_trial": 4, "dateTime": 1512951960662, "trialdata": {"rt": [5195], "responses": ["spice"], "type": "AUDIO_TEST", "trial_type": "audio-test", "trial_index": 4, "time_elapsed": 77855, "internal_node_id": "0.0-4.0"}}, {"uniqueid": "MTK0988:39U1BHVTDMY1D5H0QN5XI4KH2FCT3X", "current_trial": 5, "dateTime": 1512951977076, "trialdata": {"rt": 15662, "responses": "{\"Q0\":\"11pm\",\"Q1\":\"7am\",\"Q2\":\"5\"}", "type": "SLEEP_SURVEY", "trial_type": "survey-text", "trial_index": 5, "time_elapsed": 94269, "internal_node_id": "0.0-5.0"}}, {"uniqueid": "MTK0988:39U1BHVTDMY1D5H0QN5XI4KH2FCT3X", "current_trial": 6, "dateTime": 1512952012186, "trialdata": {"rt": 34109, "key_press": 32, "type": "INSTRUCTIONS", "trial_type": "text", "trial_index": 6, "time_elapsed": 129379, "internal_node_id": "0.0-6.0"}}, {"uniqueid": "MTK0988:39U1BHVTDMY1D5H0QN5XI4KH2FCT3X", "current_trial": 7, "dateTime": 1512952028533, "trialdata": {"rt": 15841, "key_press": 32, "type": "INSTRUCTIONS", "trial_type": "text", "trial_index": 7, "time_elapsed": 145726, "internal_node_id": "0.0-7.0"}}, {"uniqueid": "MTK0988:39U1BHVTDMY1D5H0QN5XI4KH2FCT3X", "current_trial": 8, "dateTime": 1512952040053, "trialdata": {"rt": 11015, "key_press": 32, "type": "INSTRUCTIONS", "trial_type": "text", "trial_index": 8, "time_elapsed": 157245, "internal_node_id": "0.0-8.0"}}, {"uniqueid": "MTK0988:39U1BHVTDMY1D5H0QN5XI4KH2FCT3X", "current_trial": 9, "dateTime": 1512952059058, "trialdata": {"rt": [4080, 6150, 8603, 12214, 14273, 16489], "responses": ["12", "8", "15", "26", "18", "16"], "num1": [1, 1, 7, 9, 6, 3, 4], "num2": [5, 6, 2, 8, 6, 8, 7], "num3": [6, 1, 6, 9, 6, 5, 4], "type": "DISTRACTOR", "conditions": [18, 1200, "a", 18000], "trial": 0, "trial_type": "math-distractor", "trial_index": 9, "time_elapsed": 176251, "internal_node_id": "0.0-9.0"}}, {"uniqueid": "MTK0988:39U1BHVTDMY1D5H0QN5XI4KH2FCT3X", "current_trial": 10, "dateTime": 1512952062065, "trialdata": {"rt": -1, "stimulus": "<p id=\"stim\">10</p>", "key_press": -1, "trial_type": "single-stim", "trial_index": 10, "time_elapsed": 179258, "internal_node_id": "0.0-10.0-0.0"}}, {"uniqueid": "MTK0988:39U1BHVTDMY1D5H0QN5XI4KH2FCT3X", "current_trial": 11, "dateTime": 1512952063069, "trialdata": {"rt": -1, "stimulus": "<p id=\"stim\">9</p>", "key_press": -1, "trial_type": "single-stim", "trial_index": 11, "time_elapsed": 180262, "internal_node_id": "0.0-10.0-1.0"}}, {"uniqueid": "MTK0988:39U1BHVTDMY1D5H0QN5XI4KH2FCT3X", "current_trial": 12, "dateTime": 1512952064073, "trialdata": {"rt": -1, "stimulus": "<p id=\"stim\">8</p>", "key_press": -1, "trial_type": "single-stim", "trial_index": 12, "time_elapsed": 181266, "internal_node_id": "0.0-10.0-2.0"}}, {"uniqueid": "MTK0988:39U1BHVTDMY1D5H0QN5XI4KH2FCT3X", "current_trial": 13, "dateTime": 1512952065077, "trialdata": {"rt": -1, "stimulus": "<p id=\"stim\">7</p>", "key_press": -1, "trial_type": "single-stim", "trial_index": 13, "time_elapsed": 182270, "internal_node_id": "0.0-10.0-3.0"}}, {"uniqueid": "MTK0988:39U1BHVTDMY1D5H0QN5XI4KH2FCT3X", "current_trial": 14, "dateTime": 1512952066081, "trialdata": {"rt": -1, "stimulus": "<p id=\"stim\">6</p>", "key_press": -1, "trial_type": "single-stim", "trial_index": 14, "time_elapsed": 183274, "internal_node_id": "0.0-10.0-4.0"}}, {"uniqueid": "MTK0988:39U1BHVTDMY1D5H0QN5XI4KH2FCT3X", "current_trial": 15, "dateTime": 1512952067085, "trialdata": {"rt": -1, "stimulus": "<p id=\"stim\">5</p>", "key_press": -1, "trial_type": "single-stim", "trial_index": 15, "time_elapsed": 184278, "internal_node_id": "0.0-10.0-5.0"}}, {"uniqueid": "MTK0988:39U1BHVTDMY1D5H0QN5XI4KH2FCT3X", "current_trial": 16, "dateTime": 1512952068089, "trialdata": {"rt": -1, "stimulus": "<p id=\"stim\">4</p>", "key_press": -1, "trial_type": "single-stim", "trial_index": 16, "time_elapsed": 185282, "internal_node_id": "0.0-10.0-6.0"}}, {"uniqueid": "MTK0988:39U1BHVTDMY1D5H0QN5XI4KH2FCT3X", "current_trial": 17, "dateTime": 1512952069093, "trialdata": {"rt": -1, "stimulus": "<p id=\"stim\">3</p>", "key_press": -1, "trial_type": "single-stim", "trial_index": 17, "time_elapsed": 186286, "internal_node_id": "0.0-10.0-7.0"}}, {"uniqueid": "MTK0988:39U1BHVTDMY1D5H0QN5XI4KH2FCT3X", "current_trial": 18, "dateTime": 1512952070097, "trialdata": {"rt": -1, "stimulus": "<p id=\"stim\">2</p>", "key_press": -1, "trial_type": "single-stim", "trial_index": 18, "time_elapsed": 187290, "internal_node_id": "0.0-10.0-8.0"}}, {"uniqueid": "MTK0988:39U1BHVTDMY1D5H0QN5XI4KH2FCT3X", "current_trial": 19, "dateTime": 1512952071101, "trialdata": {"rt": -1, "stimulus": "<p id=\"stim\">1</p>", "key_press": -1, "trial_type": "single-stim", "trial_index": 19, "time_elapsed": 188294, "internal_node_id": "0.0-10.0-9.0"}}, {"uniqueid": "MTK0988:39U1BHVTDMY1D5H0QN5XI4KH2FCT3X", "current_trial": 20, "dateTime": 1512952072604, "trialdata": {"rt": -1, "stimulus": "<p id=\"stim\">+</p>", "key_press": -1, "type": "FIXATION", "trial_type": "single-stim", "trial_index": 20, "time_elapsed": 189797, "internal_node_id": "0.0-11.0-0.0"}}, {"uniqueid": "MTK0988:39U1BHVTDMY1D5H0QN5XI4KH2FCT3X", "current_trial": 21, "dateTime": 1512952074969, "trialdata": {"rt": -1000, "stimulus": "/static/audio/wordpool/RAFT.wav", "key_press": -1, "type": "PRES_AUD", "word": "raft", "wordID": 1158, "conditions": [18, 1200, "a", 18000], "trial": 0, "serialpos": 0, "trial_type": "single-audio", "trial_index": 21, "time_elapsed": 192162, "internal_node_id": "0.0-12.0"}}, {"uniqueid": "MTK0988:39U1BHVTDMY1D5H0QN5XI4KH2FCT3X", "current_trial": 22, "dateTime": 1512952077326, "trialdata": {"rt": -1000, "stimulus": "/static/audio/wordpool/PADDLE.wav", "key_press": -1, "type": "PRES_AUD", "word": "paddle", "wordID": 999, "conditions": [18, 1200, "a", 18000], "trial": 0, "serialpos": 1, "trial_type": "single-audio", "trial_index": 22, "time_elapsed": 194519, "internal_node_id": "0.0-13.0"}}, {"uniqueid": "MTK0988:39U1BHVTDMY1D5H0QN5XI4KH2FCT3X", "current_trial": 23, "dateTime": 1512952079584, "trialdata": {"rt": -1000, "stimulus": "/static/audio/wordpool/LAVA.wav", "key_press": -1, "type": "PRES_AUD", "word": "lava", "wordID": 803, "conditions": [18, 1200, "a", 18000], "trial": 0, "serialpos": 2, "trial_type": "single-audio", "trial_index": 23, "time_elapsed": 196777, "internal_node_id": "0.0-14.0"}}, {"uniqueid": "MTK0988:39U1BHVTDMY1D5H0QN5XI4KH2FCT3X", "current_trial": 24, "dateTime": 1512952081970, "trialdata": {"rt": -1000, "stimulus": "/static/audio/wordpool/ULCER.wav", "key_press": -1, "type": "PRES_AUD", "word": "ulcer", "wordID": 1532, "conditions": [18, 1200, "a", 18000], "trial": 0, "serialpos": 3, "trial_type": "single-audio", "trial_index": 24, "time_elapsed": 199162, "internal_node_id": "0.0-15.0"}}, {"uniqueid": "MTK0988:39U1BHVTDMY1D5H0QN5XI4KH2FCT3X", "current_trial": 25, "dateTime": 1512952084245, "trialdata": {"rt": -1000, "stimulus": "/static/audio/wordpool/PANTHER.wav", "key_press": -1, "type": "PRES_AUD", "word": "panther", "wordID": 1008, "conditions": [18, 1200, "a", 18000], "trial": 0, "serialpos": 4, "trial_type": "single-audio", "trial_index": 25, "time_elapsed": 201438, "internal_node_id": "0.0-16.0"}}, {"uniqueid": "MTK0988:39U1BHVTDMY1D5H0QN5XI4KH2FCT3X", "current_trial": 26, "dateTime": 1512952086404, "trialdata": {"rt": -1000, "stimulus": "/static/audio/wordpool/PILOT.wav", "key_press": -1, "type": "PRES_AUD", "word": "pilot", "wordID": 1069, "conditions": [18, 1200, "a", 18000], "trial": 0, "serialpos": 5, "trial_type": "single-audio", "trial_index": 26, "time_elapsed": 203597, "internal_node_id": "0.0-17.0"}}, {"uniqueid": "MTK0988:39U1BHVTDMY1D5H0QN5XI4KH2FCT3X", "current_trial": 27, "dateTime": 1512952088639, "trialdata": {"rt": -1000, "stimulus": "/static/audio/wordpool/GUITAR.wav", "key_press": -1, "type": "PRES_AUD", "word": "guitar", "wordID": 669, "conditions": [18, 1200, "a", 18000], "trial": 0, "serialpos": 6, "trial_type": "single-audio", "trial_index": 27, "time_elapsed": 205832, "internal_node_id": "0.0-18.0"}}, {"uniqueid": "MTK0988:39U1BHVTDMY1D5H0QN5XI4KH2FCT3X", "current_trial": 28, "dateTime": 1512952090776, "trialdata": {"rt": -1000, "stimulus": "/static/audio/wordpool/JOURNAL.wav", "key_press": -1, "type": "PRES_AUD", "word": "journal", "wordID": 759, "conditions": [18, 1200, "a", 18000], "trial": 0, "serialpos": 7, "trial_type": "single-audio", "trial_index": 28, "time_elapsed": 207969, "internal_node_id": "0.0-19.0"}}, {"uniqueid": "MTK0988:39U1BHVTDMY1D5H0QN5XI4KH2FCT3X", "current_trial": 29, "dateTime": 1512952092941, "trialdata": {"rt": -1000, "stimulus": "/static/audio/wordpool/SWIMMER.wav", "key_press": -1, "type": "PRES_AUD", "word": "swimmer", "wordID": 1419, "conditions": [18, 1200, "a", 18000], "trial": 0, "serialpos": 8, "trial_type": "single-audio", "trial_index": 29, "time_elapsed": 210133, "internal_node_id": "0.0-20.0"}}, {"uniqueid": "MTK0988:39U1BHVTDMY1D5H0QN5XI4KH2FCT3X", "current_trial": 30, "dateTime": 1512952094990, "trialdata": {"rt": -1000, "stimulus": "/static/audio/wordpool/MARKER.wav", "key_press": -1, "type": "PRES_AUD", "word": "marker", "wordID": 869, "conditions": [18, 1200, "a", 18000], "trial": 0, "serialpos": 9, "trial_type": "single-audio", "trial_index": 30, "time_elapsed": 212183, "internal_node_id": "0.0-21.0"}}, {"uniqueid": "MTK0988:39U1BHVTDMY1D5H0QN5XI4KH2FCT3X", "current_trial": 31, "dateTime": 1512952096998, "trialdata": {"rt": -1000, "stimulus": "/static/audio/wordpool/CARROT.wav", "key_press": -1, "type": "PRES_AUD", "word": "carrot", "wordID": 248, "conditions": [18, 1200, "a", 18000], "trial": 0, "serialpos": 10, "trial_type": "single-audio", "trial_index": 31, "time_elapsed": 214191, "internal_node_id": "0.0-22.0"}}, {"uniqueid": "MTK0988:39U1BHVTDMY1D5H0QN5XI4KH2FCT3X", "current_trial": 32, "dateTime": 1512952099169, "trialdata": {"rt": -1000, "stimulus": "/static/audio/wordpool/BANQUET.wav", "key_press": -1, "type": "PRES_AUD", "word": "banquet", "wordID": 85, "conditions": [18, 1200, "a", 18000], "trial": 0, "serialpos": 11, "trial_type": "single-audio", "trial_index": 32, "time_elapsed": 216362, "internal_node_id": "0.0-23.0"}}, {"uniqueid": "MTK0988:39U1BHVTDMY1D5H0QN5XI4KH2FCT3X", "current_trial": 33, "dateTime": 1512952101392, "trialdata": {"rt": -1000, "stimulus": "/static/audio/wordpool/PARROT.wav", "key_press": -1, "type": "PRES_AUD", "word": "parrot", "wordID": 1014, "conditions": [18, 1200, "a", 18000], "trial": 0, "serialpos": 12, "trial_type": "single-audio", "trial_index": 33, "time_elapsed": 218585, "internal_node_id": "0.0-24.0"}}, {"uniqueid": "MTK0988:39U1BHVTDMY1D5H0QN5XI4KH2FCT3X", "current_trial": 34, "dateTime": 1512952103569, "trialdata": {"rt": -1000, "stimulus": "/static/audio/wordpool/KIDNEY.wav", "key_press": -1, "type": "PRES_AUD", "word": "kidney", "wordID": 775, "conditions": [18, 1200, "a", 18000], "trial": 0, "serialpos": 13, "trial_type": "single-audio", "trial_index": 34, "time_elapsed": 220762, "internal_node_id": "0.0-25.0"}}, {"uniqueid": "MTK0988:39U1BHVTDMY1D5H0QN5XI4KH2FCT3X", "current_trial": 35, "dateTime": 1512952105943, "trialdata": {"rt": -1000, "stimulus": "/static/audio/wordpool/HEDGE.wav", "key_press": -1, "type": "PRES_AUD", "word": "hedge", "wordID": 698, "conditions": [18, 1200, "a", 18000], "trial": 0, "serialpos": 14, "trial_type": "single-audio", "trial_index": 35, "time_elapsed": 223136, "internal_node_id": "0.0-26.0"}}, {"uniqueid": "MTK0988:39U1BHVTDMY1D5H0QN5XI4KH2FCT3X", "current_trial": 36, "dateTime": 1512952108195, "trialdata": {"rt": -1000, "stimulus": "/static/audio/wordpool/PORK.wav", "key_press": -1, "type": "PRES_AUD", "word": "pork", "wordID": 1107, "conditions": [18, 1200, "a", 18000], "trial": 0, "serialpos": 15, "trial_type": "single-audio", "trial_index": 36, "time_elapsed": 225388, "internal_node_id": "0.0-27.0"}}, {"uniqueid": "MTK0988:39U1BHVTDMY1D5H0QN5XI4KH2FCT3X", "current_trial": 37, "dateTime": 1512952110291, "trialdata": {"rt": -1000, "stimulus": "/static/audio/wordpool/BRANDY.wav", "key_press": -1, "type": "PRES_AUD", "word": "brandy", "wordID": 168, "conditions": [18, 1200, "a", 18000], "trial": 0, "serialpos": 16, "trial_type": "single-audio", "trial_index": 37, "time_elapsed": 227484, "internal_node_id": "0.0-28.0"}}, {"uniqueid": "MTK0988:39U1BHVTDMY1D5H0QN5XI4KH2FCT3X", "current_trial": 38, "dateTime": 1512952112485, "trialdata": {"rt": -1000, "stimulus": "/static/audio/wordpool/SWITCH.wav", "key_press": -1, "type": "PRES_AUD", "word": "switch", "wordID": 1421, "conditions": [18, 1200, "a", 18000], "trial": 0, "serialpos": 17, "trial_type": "single-audio", "trial_index": 38, "time_elapsed": 229678, "internal_node_id": "0.0-29.0"}}, {"uniqueid": "MTK0988:39U1BHVTDMY1D5H0QN5XI4KH2FCT3X", "current_trial": 39, "dateTime": 1512952113698, "trialdata": {"rt": -1, "stimulus": "", "key_press": -1, "type": "PRE_RECALL_DELAY", "trial_type": "single-stim", "trial_index": 39, "time_elapsed": 230891, "internal_node_id": "0.0-30.0-0.0"}}, {"uniqueid": "MTK0988:39U1BHVTDMY1D5H0QN5XI4KH2FCT3X", "current_trial": 40, "dateTime": 1512952114199, "trialdata": {"rt": -1000, "stimulus": "/static/audio/400Hz.wav", "key_press": -1, "type": "PRE_RECALL_ALERT", "trial_type": "single-audio", "trial_index": 40, "time_elapsed": 231392, "internal_node_id": "0.0-31.0"}}, {"uniqueid": "MTK0988:39U1BHVTDMY1D5H0QN5XI4KH2FCT3X", "current_trial": 41, "dateTime": 1512952174204, "trialdata": {"rt": [2700, 4331, 6064, 10103, 11497, 14220, 15784, 19654, 23074, 25943, 29723, 32175, 34965, 56126], "recwords": ["carrot", "parrot", "brandy", "switch", "ulcer", "volcano", "panther", "water", "ulcer", "candy", "lava", "volcano", "water", "grasped"], "type": "FREE_RECALL", "conditions": [18, 1200, "a", 18000], "trial": 0, "trial_type": "free-recall", "trial_index": 41, "time_elapsed": 291396, "internal_node_id": "0.0-32.0-0.0"}}, {"uniqueid": "MTK0988:39U1BHVTDMY1D5H0QN5XI4KH2FCT3X", "current_trial": 42, "dateTime": 1512952178169, "trialdata": {"rt": 1963, "key_press": 13, "type": "INSTRUCTIONS", "trial_type": "text", "trial_index": 42, "time_elapsed": 295361, "internal_node_id": "0.0-33.0"}}, {"uniqueid": "MTK0988:39U1BHVTDMY1D5H0QN5XI4KH2FCT3X", "current_trial": 43, "dateTime": 1512952198178, "trialdata": {"rt": [2437, 5036, 7421, 10031, 12214, 14385, 16072], "responses": ["16", "23", "7", "16", "13", "18", "7"], "num1": [8, 5, 2, 1, 7, 9, 1, 7], "num2": [6, 9, 1, 7, 5, 1, 4, 6], "num3": [2, 9, 4, 8, 1, 8, 2, 9], "type": "DISTRACTOR", "conditions": [18, 1200, "v", 18000], "trial": 1, "trial_type": "math-distractor", "trial_index": 43, "time_elapsed": 315371, "internal_node_id": "0.0-34.0"}}, {"uniqueid": "MTK0988:39U1BHVTDMY1D5H0QN5XI4KH2FCT3X", "current_trial": 44, "dateTime": 1512952201184, "trialdata": {"rt": -1, "stimulus": "<p id=\"stim\">10</p>", "key_press": -1, "trial_type": "single-stim", "trial_index": 44, "time_elapsed": 318377, "internal_node_id": "0.0-35.0-0.0"}}, {"uniqueid": "MTK0988:39U1BHVTDMY1D5H0QN5XI4KH2FCT3X", "current_trial": 45, "dateTime": 1512952202188, "trialdata": {"rt": -1, "stimulus": "<p id=\"stim\">9</p>", "key_press": -1, "trial_type": "single-stim", "trial_index": 45, "time_elapsed": 319381, "internal_node_id": "0.0-35.0-1.0"}}, {"uniqueid": "MTK0988:39U1BHVTDMY1D5H0QN5XI4KH2FCT3X", "current_trial": 46, "dateTime": 1512952203192, "trialdata": {"rt": -1, "stimulus": "<p id=\"stim\">8</p>", "key_press": -1, "trial_type": "single-stim", "trial_index": 46, "time_elapsed": 320385, "internal_node_id": "0.0-35.0-2.0"}}, {"uniqueid": "MTK0988:39U1BHVTDMY1D5H0QN5XI4KH2FCT3X", "current_trial": 47, "dateTime": 1512952204196, "trialdata": {"rt": -1, "stimulus": "<p id=\"stim\">7</p>", "key_press": -1, "trial_type": "single-stim", "trial_index": 47, "time_elapsed": 321389, "internal_node_id": "0.0-35.0-3.0"}}, {"uniqueid": "MTK0988:39U1BHVTDMY1D5H0QN5XI4KH2FCT3X", "current_trial": 48, "dateTime": 1512952205200, "trialdata": {"rt": -1, "stimulus": "<p id=\"stim\">6</p>", "key_press": -1, "trial_type": "single-stim", "trial_index": 48, "time_elapsed": 322393, "internal_node_id": "0.0-35.0-4.0"}}, {"uniqueid": "MTK0988:39U1BHVTDMY1D5H0QN5XI4KH2FCT3X", "current_trial": 49, "dateTime": 1512952206204, "trialdata": {"rt": -1, "stimulus": "<p id=\"stim\">5</p>", "key_press": -1, "trial_type": "single-stim", "trial_index": 49, "time_elapsed": 323397, "internal_node_id": "0.0-35.0-5.0"}}, {"uniqueid": "MTK0988:39U1BHVTDMY1D5H0QN5XI4KH2FCT3X", "current_trial": 50, "dateTime": 1512952207209, "trialdata": {"rt": -1, "stimulus": "<p id=\"stim\">4</p>", "key_press": -1, "trial_type": "single-stim", "trial_index": 50, "time_elapsed": 324401, "internal_node_id": "0.0-35.0-6.0"}}, {"uniqueid": "MTK0988:39U1BHVTDMY1D5H0QN5XI4KH2FCT3X", "current_trial": 51, "dateTime": 1512952208245, "trialdata": {"rt": -1, "stimulus": "<p id=\"stim\">3</p>", "key_press": -1, "trial_type": "single-stim", "trial_index": 51, "time_elapsed": 325438, "internal_node_id": "0.0-35.0-7.0"}}, {"uniqueid": "MTK0988:39U1BHVTDMY1D5H0QN5XI4KH2FCT3X", "current_trial": 52, "dateTime": 1512952209248, "trialdata": {"rt": -1, "stimulus": "<p id=\"stim\">2</p>", "key_press": -1, "trial_type": "single-stim", "trial_index": 52, "time_elapsed": 326441, "internal_node_id": "0.0-35.0-8.0"}}, {"uniqueid": "MTK0988:39U1BHVTDMY1D5H0QN5XI4KH2FCT3X", "current_trial": 53, "dateTime": 1512952210250, "trialdata": {"rt": -1, "stimulus": "<p id=\"stim\">1</p>", "key_press": -1, "trial_type": "single-stim", "trial_index": 53, "time_elapsed": 327443, "internal_node_id": "0.0-35.0-9.0"}}, {"uniqueid": "MTK0988:39U1BHVTDMY1D5H0QN5XI4KH2FCT3X", "current_trial": 54, "dateTime": 1512952211752, "trialdata": {"rt": -1, "stimulus": "<p id=\"stim\">+</p>", "key_press": -1, "type": "FIXATION", "trial_type": "single-stim", "trial_index": 54, "time_elapsed": 328945, "internal_node_id": "0.0-36.0-0.0"}}, {"uniqueid": "MTK0988:39U1BHVTDMY1D5H0QN5XI4KH2FCT3X", "current_trial": 55, "dateTime": 1512952212954, "trialdata": {"rt": -1, "stimulus": "<p id=\"stim\">ORANGE</p>", "key_press": -1, "type": "PRES_VIS", "word": "orange", "wordID": 979, "conditions": [18, 1200, "v", 18000], "trial": 1, "serialpos": 0, "trial_type": "single-stim", "trial_index": 55, "time_elapsed": 330147, "internal_node_id": "0.0-37.0"}}, {"uniqueid": "MTK0988:39U1BHVTDMY1D5H0QN5XI4KH2FCT3X", "current_trial": 56, "dateTime": 1512952215206, "trialdata": {"rt": -1, "stimulus": "<p id=\"stim\">SOFTBALL</p>", "key_press": -1, "type": "PRES_VIS", "word": "softball", "wordID": 1342, "conditions": [18, 1200, "v", 18000], "trial": 1, "serialpos": 1, "trial_type": "single-stim", "trial_index": 56, "time_elapsed": 332399, "internal_node_id": "0.0-38.0"}}, {"uniqueid": "MTK0988:39U1BHVTDMY1D5H0QN5XI4KH2FCT3X", "current_trial": 57, "dateTime": 1512952217330, "trialdata": {"rt": -1, "stimulus": "<p id=\"stim\">GYMNAST</p>", "key_press": -1, "type": "PRES_VIS", "word": "gymnast", "wordID": 674, "conditions": [18, 1200, "v", 18000], "trial": 1, "serialpos": 2, "trial_type": "single-stim", "trial_index": 57, "time_elapsed": 334523, "internal_node_id": "0.0-39.0"}}, {"uniqueid": "MTK0988:39U1BHVTDMY1D5H0QN5XI4KH2FCT3X", "current_trial": 58, "dateTime": 1512952219593, "trialdata": {"rt": -1, "stimulus": "<p id=\"stim\">STATUE</p>", "key_press": -1, "type": "PRES_VIS", "word": "statue", "wordID": 1373, "conditions": [18, 1200, "v", 18000], "trial": 1, "serialpos": 3, "trial_type": "single-stim", "trial_index": 58, "time_elapsed": 336786, "internal_node_id": "0.0-40.0"}}, {"uniqueid": "MTK0988:39U1BHVTDMY1D5H0QN5XI4KH2FCT3X", "current_trial": 59, "dateTime": 1512952221974, "trialdata": {"rt": -1, "stimulus": "<p id=\"stim\">QUEEN</p>", "key_press": -1, "type": "PRES_VIS", "word": "queen", "wordID": 1148, "conditions": [18, 1200, "v", 18000], "trial": 1, "serialpos": 4, "trial_type": "single-stim", "trial_index": 59, "time_elapsed": 339166, "internal_node_id": "0.0-41.0"}}, {"uniqueid": "MTK0988:39U1BHVTDMY1D5H0QN5XI4KH2FCT3X", "current_trial": 60, "dateTime": 1512952224295, "trialdata": {"rt": -1, "stimulus": "<p id=\"stim\">POLICE</p>", "key_press": -1, "type": "PRES_VIS", "word": "police", "wordID": 1097, "conditions": [18, 1200, "v", 18000], "trial": 1, "serialpos": 5, "trial_type": "single-stim", "trial_index": 60, "time_elapsed": 341488, "internal_node_id": "0.0-42.0"}}, {"uniqueid": "MTK0988:39U1BHVTDMY1D5H0QN5XI4KH2FCT3X", "current_trial": 61, "dateTime": 1512952226692, "trialdata": {"rt": -1, "stimulus": "<p id=\"stim\">ANKLE</p>", "key_press": -1, "type": "PRES_VIS", "word": "ankle", "wordID": 23, "conditions": [18, 1200, "v", 18000], "trial": 1, "serialpos": 6, "trial_type": "single-stim", "trial_index": 61, "time_elapsed": 343885, "internal_node_id": "0.0-43.0"}}, {"uniqueid": "MTK0988:39U1BHVTDMY1D5H0QN5XI4KH2FCT3X", "current_trial": 62, "dateTime": 1512952228864, "trialdata": {"rt": -1, "stimulus": "<p id=\"stim\">POET</p>", "key_press": -1, "type": "PRES_VIS", "word": "poet", "wordID": 1094, "conditions": [18, 1200, "v", 18000], "trial": 1, "serialpos": 7, "trial_type": "single-stim", "trial_index": 62, "time_elapsed": 346057, "internal_node_id": "0.0-44.0"}}, {"uniqueid": "MTK0988:39U1BHVTDMY1D5H0QN5XI4KH2FCT3X", "current_trial": 63, "dateTime": 1512952231021, "trialdata": {"rt": -1, "stimulus": "<p id=\"stim\">CRATER</p>", "key_press": -1, "type": "PRES_VIS", "word": "crater", "wordID": 399, "conditions": [18, 1200, "v", 18000], "trial": 1, "serialpos": 8, "trial_type": "single-stim", "trial_index": 63, "time_elapsed": 348214, "internal_node_id": "0.0-45.0"}}, {"uniqueid": "MTK0988:39U1BHVTDMY1D5H0QN5XI4KH2FCT3X", "current_trial": 64, "dateTime": 1512952233372, "trialdata": {"rt": -1, "stimulus": "<p id=\"stim\">POWDER</p>", "key_press": -1, "type": "PRES_VIS", "word": "powder", "wordID": 1116, "conditions": [18, 1200, "v", 18000], "trial": 1, "serialpos": 9, "trial_type": "single-stim", "trial_index": 64, "time_elapsed": 350565, "internal_node_id": "0.0-46.0"}}, {"uniqueid": "MTK0988:39U1BHVTDMY1D5H0QN5XI4KH2FCT3X", "current_trial": 65, "dateTime": 1512952235444, "trialdata": {"rt": -1, "stimulus": "<p id=\"stim\">SCULPTURE</p>", "key_press": -1, "type": "PRES_VIS", "word": "sculpture", "wordID": 1257, "conditions": [18, 1200, "v", 18000], "trial": 1, "serialpos": 10, "trial_type": "single-stim", "trial_index": 65, "time_elapsed": 352637, "internal_node_id": "0.0-47.0"}}, {"uniqueid": "MTK0988:39U1BHVTDMY1D5H0QN5XI4KH2FCT3X", "current_trial": 66, "dateTime": 1512952237632, "trialdata": {"rt": -1, "stimulus": "<p id=\"stim\">COFFEE</p>", "key_press": -1, "type": "PRES_VIS", "word": "coffee", "wordID": 340, "conditions": [18, 1200, "v", 18000], "trial": 1, "serialpos": 11, "trial_type": "single-stim", "trial_index": 66, "time_elapsed": 354825, "internal_node_id": "0.0-48.0"}}, {"uniqueid": "MTK0988:39U1BHVTDMY1D5H0QN5XI4KH2FCT3X", "current_trial": 67, "dateTime": 1512952239907, "trialdata": {"rt": -1, "stimulus": "<p id=\"stim\">STOVE</p>", "key_press": -1, "type": "PRES_VIS", "word": "stove", "wordID": 1387, "conditions": [18, 1200, "v", 18000], "trial": 1, "serialpos": 12, "trial_type": "single-stim", "trial_index": 67, "time_elapsed": 357100, "internal_node_id": "0.0-49.0"}}, {"uniqueid": "MTK0988:39U1BHVTDMY1D5H0QN5XI4KH2FCT3X", "current_trial": 68, "dateTime": 1512952241921, "trialdata": {"rt": -1, "stimulus": "<p id=\"stim\">CRUTCH</p>", "key_press": -1, "type": "PRES_VIS", "word": "crutch", "wordID": 416, "conditions": [18, 1200, "v", 18000], "trial": 1, "serialpos": 13, "trial_type": "single-stim", "trial_index": 68, "time_elapsed": 359114, "internal_node_id": "0.0-50.0"}}, {"uniqueid": "MTK0988:39U1BHVTDMY1D5H0QN5XI4KH2FCT3X", "current_trial": 69, "dateTime": 1512952244121, "trialdata": {"rt": -1, "stimulus": "<p id=\"stim\">LETTUCE</p>", "key_press": -1, "type": "PRES_VIS", "word": "lettuce", "wordID": 813, "conditions": [18, 1200, "v", 18000], "trial": 1, "serialpos": 14, "trial_type": "single-stim", "trial_index": 69, "time_elapsed": 361313, "internal_node_id": "0.0-51.0"}}, {"uniqueid": "MTK0988:39U1BHVTDMY1D5H0QN5XI4KH2FCT3X", "current_trial": 70, "dateTime": 1512952246285, "trialdata": {"rt": -1, "stimulus": "<p id=\"stim\">SUSPECT</p>", "key_press": -1, "type": "PRES_VIS", "word": "suspect", "wordID": 1414, "conditions": [18, 1200, "v", 18000], "trial": 1, "serialpos": 15, "trial_type": "single-stim", "trial_index": 70, "time_elapsed": 363478, "internal_node_id": "0.0-52.0"}}, {"uniqueid": "MTK0988:39U1BHVTDMY1D5H0QN5XI4KH2FCT3X", "current_trial": 71, "dateTime": 1512952249090, "trialdata": {"rt": -1, "stimulus": "<p id=\"stim\">BUG</p>", "key_press": -1, "type": "PRES_VIS", "word": "bug", "wordID": 186, "conditions": [18, 1200, "v", 18000], "trial": 1, "serialpos": 16, "trial_type": "single-stim", "trial_index": 71, "time_elapsed": 366282, "internal_node_id": "0.0-53.0"}}, {"uniqueid": "MTK0988:39U1BHVTDMY1D5H0QN5XI4KH2FCT3X", "current_trial": 72, "dateTime": 1512952251228, "trialdata": {"rt": -1, "stimulus": "<p id=\"stim\">GRAPE</p>", "key_press": -1, "type": "PRES_VIS", "word": "grape", "wordID": 653, "conditions": [18, 1200, "v", 18000], "trial": 1, "serialpos": 17, "trial_type": "single-stim", "trial_index": 72, "time_elapsed": 368421, "internal_node_id": "0.0-54.0"}}, {"uniqueid": "MTK0988:39U1BHVTDMY1D5H0QN5XI4KH2FCT3X", "current_trial": 73, "dateTime": 1512952253509, "trialdata": {"rt": -1, "stimulus": "", "key_press": -1, "type": "PRE_RECALL_DELAY", "trial_type": "single-stim", "trial_index": 73, "time_elapsed": 370702, "internal_node_id": "0.0-55.0-0.0"}}, {"uniqueid": "MTK0988:39U1BHVTDMY1D5H0QN5XI4KH2FCT3X", "current_trial": 74, "dateTime": 1512952254010, "trialdata": {"rt": -1000, "stimulus": "/static/audio/400Hz.wav", "key_press": -1, "type": "PRE_RECALL_ALERT", "trial_type": "single-audio", "trial_index": 74, "time_elapsed": 371203, "internal_node_id": "0.0-56.0"}}, {"uniqueid": "MTK0988:39U1BHVTDMY1D5H0QN5XI4KH2FCT3X", "current_trial": 75, "dateTime": 1512952314011, "trialdata": {"rt": [2370, 4035, 5644, 7523, 8895, 13316, 17794, 21439, 25556, 56179, 58766], "recwords": ["orange", "grape", "stove", "queen", "poet", "crater", "produce", "volcano", "panther", "queen", "panther"], "type": "FREE_RECALL", "conditions": [18, 1200, "v", 18000], "trial": 1, "trial_type": "free-recall", "trial_index": 75, "time_elapsed": 431202, "internal_node_id": "0.0-57.0-0.0"}}, {"uniqueid": "MTK0988:39U1BHVTDMY1D5H0QN5XI4KH2FCT3X", "current_trial": 76, "dateTime": 1512952320385, "trialdata": {"rt": 4372, "key_press": 32, "type": "INSTRUCTIONS", "trial_type": "text", "trial_index": 76, "time_elapsed": 437576, "internal_node_id": "0.0-58.0"}}, {"uniqueid": "MTK0988:39U1BHVTDMY1D5H0QN5XI4KH2FCT3X", "current_trial": 77, "dateTime": 1512952333394, "trialdata": {"rt": [2052, 4313, 6686, 8441, 10264], "responses": ["15", "19", "12", "11", "10"], "num1": [2, 9, 3, 4, 3, 8], "num2": [4, 2, 6, 3, 2, 8], "num3": [9, 8, 3, 4, 5, 5], "type": "DISTRACTOR", "conditions": [12, 800, "v", 12000], "trial": 2, "trial_type": "math-distractor", "trial_index": 77, "time_elapsed": 450587, "internal_node_id": "0.0-59.0"}}, {"uniqueid": "MTK0988:39U1BHVTDMY1D5H0QN5XI4KH2FCT3X", "current_trial": 78, "dateTime": 1512952336400, "trialdata": {"rt": -1, "stimulus": "<p id=\"stim\">10</p>", "key_press": -1, "trial_type": "single-stim", "trial_index": 78, "time_elapsed": 453592, "internal_node_id": "0.0-60.0-0.0"}}, {"uniqueid": "MTK0988:39U1BHVTDMY1D5H0QN5XI4KH2FCT3X", "current_trial": 79, "dateTime": 1512952337404, "trialdata": {"rt": -1, "stimulus": "<p id=\"stim\">9</p>", "key_press": -1, "trial_type": "single-stim", "trial_index": 79, "time_elapsed": 454597, "internal_node_id": "0.0-60.0-1.0"}}, {"uniqueid": "MTK0988:39U1BHVTDMY1D5H0QN5XI4KH2FCT3X", "current_trial": 80, "dateTime": 1512952338407, "trialdata": {"rt": -1, "stimulus": "<p id=\"stim\">8</p>", "key_press": -1, "trial_type": "single-stim", "trial_index": 80, "time_elapsed": 455599, "internal_node_id": "0.0-60.0-2.0"}}, {"uniqueid": "MTK0988:39U1BHVTDMY1D5H0QN5XI4KH2FCT3X", "current_trial": 81, "dateTime": 1512952339412, "trialdata": {"rt": -1, "stimulus": "<p id=\"stim\">7</p>", "key_press": -1, "trial_type": "single-stim", "trial_index": 81, "time_elapsed": 456605, "internal_node_id": "0.0-60.0-3.0"}}, {"uniqueid": "MTK0988:39U1BHVTDMY1D5H0QN5XI4KH2FCT3X", "current_trial": 82, "dateTime": 1512952340416, "trialdata": {"rt": -1, "stimulus": "<p id=\"stim\">6</p>", "key_press": -1, "trial_type": "single-stim", "trial_index": 82, "time_elapsed": 457609, "internal_node_id": "0.0-60.0-4.0"}}, {"uniqueid": "MTK0988:39U1BHVTDMY1D5H0QN5XI4KH2FCT3X", "current_trial": 83, "dateTime": 1512952341420, "trialdata": {"rt": -1, "stimulus": "<p id=\"stim\">5</p>", "key_press": -1, "trial_type": "single-stim", "trial_index": 83, "time_elapsed": 458613, "internal_node_id": "0.0-60.0-5.0"}}, {"uniqueid": "MTK0988:39U1BHVTDMY1D5H0QN5XI4KH2FCT3X", "current_trial": 84, "dateTime": 1512952342424, "trialdata": {"rt": -1, "stimulus": "<p id=\"stim\">4</p>", "key_press": -1, "trial_type": "single-stim", "trial_index": 84, "time_elapsed": 459616, "internal_node_id": "0.0-60.0-6.0"}}, {"uniqueid": "MTK0988:39U1BHVTDMY1D5H0QN5XI4KH2FCT3X", "current_trial": 85, "dateTime": 1512952343428, "trialdata": {"rt": -1, "stimulus": "<p id=\"stim\">3</p>", "key_press": -1, "trial_type": "single-stim", "trial_index": 85, "time_elapsed": 460621, "internal_node_id": "0.0-60.0-7.0"}}, {"uniqueid": "MTK0988:39U1BHVTDMY1D5H0QN5XI4KH2FCT3X", "current_trial": 86, "dateTime": 1512952344432, "trialdata": {"rt": -1, "stimulus": "<p id=\"stim\">2</p>", "key_press": -1, "trial_type": "single-stim", "trial_index": 86, "time_elapsed": 461625, "internal_node_id": "0.0-60.0-8.0"}}, {"uniqueid": "MTK0988:39U1BHVTDMY1D5H0QN5XI4KH2FCT3X", "current_trial": 87, "dateTime": 1512952345436, "trialdata": {"rt": -1, "stimulus": "<p id=\"stim\">1</p>", "key_press": -1, "trial_type": "single-stim", "trial_index": 87, "time_elapsed": 462629, "internal_node_id": "0.0-60.0-9.0"}}, {"uniqueid": "MTK0988:39U1BHVTDMY1D5H0QN5XI4KH2FCT3X", "current_trial": 88, "dateTime": 1512952346940, "trialdata": {"rt": -1, "stimulus": "<p id=\"stim\">+</p>", "key_press": -1, "type": "FIXATION", "trial_type": "single-stim", "trial_index": 88, "time_elapsed": 464132, "internal_node_id": "0.0-61.0-0.0"}}, {"uniqueid": "MTK0988:39U1BHVTDMY1D5H0QN5XI4KH2FCT3X", "current_trial": 89, "dateTime": 1512952347740, "trialdata": {"rt": -1, "stimulus": "<p id=\"stim\">PIZZA</p>", "key_press": -1, "type": "PRES_VIS", "word": "pizza", "wordID": 1078, "conditions": [12, 800, "v", 12000], "trial": 2, "serialpos": 0, "trial_type": "single-stim", "trial_index": 89, "time_elapsed": 464933, "internal_node_id": "0.0-62.0"}}, {"uniqueid": "MTK0988:39U1BHVTDMY1D5H0QN5XI4KH2FCT3X", "current_trial": 90, "dateTime": 1512952349656, "trialdata": {"rt": -1, "stimulus": "<p id=\"stim\">FLEET</p>", "key_press": -1, "type": "PRES_VIS", "word": "fleet", "wordID": 577, "conditions": [12, 800, "v", 12000], "trial": 2, "serialpos": 1, "trial_type": "single-stim", "trial_index": 90, "time_elapsed": 466849, "internal_node_id": "0.0-63.0"}}, {"uniqueid": "MTK0988:39U1BHVTDMY1D5H0QN5XI4KH2FCT3X", "current_trial": 91, "dateTime": 1512952351536, "trialdata": {"rt": -1, "stimulus": "<p id=\"stim\">CROWN</p>", "key_press": -1, "type": "PRES_VIS", "word": "crown", "wordID": 414, "conditions": [12, 800, "v", 12000], "trial": 2, "serialpos": 2, "trial_type": "single-stim", "trial_index": 91, "time_elapsed": 468729, "internal_node_id": "0.0-64.0"}}, {"uniqueid": "MTK0988:39U1BHVTDMY1D5H0QN5XI4KH2FCT3X", "current_trial": 92, "dateTime": 1512952353208, "trialdata": {"rt": -1, "stimulus": "<p id=\"stim\">KETCHUP</p>", "key_press": -1, "type": "PRES_VIS", "word": "ketchup", "wordID": 770, "conditions": [12, 800, "v", 12000], "trial": 2, "serialpos": 3, "trial_type": "single-stim", "trial_index": 92, "time_elapsed": 470400, "internal_node_id": "0.0-65.0"}}, {"uniqueid": "MTK0988:39U1BHVTDMY1D5H0QN5XI4KH2FCT3X", "current_trial": 93, "dateTime": 1512952355065, "trialdata": {"rt": -1, "stimulus": "<p id=\"stim\">SUNSET</p>", "key_press": -1, "type": "PRES_VIS", "word": "sunset", "wordID": 1407, "conditions": [12, 800, "v", 12000], "trial": 2, "serialpos": 4, "trial_type": "single-stim", "trial_index": 93, "time_elapsed": 472258, "internal_node_id": "0.0-66.0"}}, {"uniqueid": "MTK0988:39U1BHVTDMY1D5H0QN5XI4KH2FCT3X", "current_trial": 94, "dateTime": 1512952356719, "trialdata": {"rt": -1, "stimulus": "<p id=\"stim\">LILY</p>", "key_press": -1, "type": "PRES_VIS", "word": "lily", "wordID": 820, "conditions": [12, 800, "v", 12000], "trial": 2, "serialpos": 5, "trial_type": "single-stim", "trial_index": 94, "time_elapsed": 473912, "internal_node_id": "0.0-67.0"}}, {"uniqueid": "MTK0988:39U1BHVTDMY1D5H0QN5XI4KH2FCT3X", "current_trial": 95, "dateTime": 1512952358657, "trialdata": {"rt": -1, "stimulus": "<p id=\"stim\">COSTUME</p>", "key_press": -1, "type": "PRES_VIS", "word": "costume", "wordID": 382, "conditions": [12, 800, "v", 12000], "trial": 2, "serialpos": 6, "trial_type": "single-stim", "trial_index": 95, "time_elapsed": 475850, "internal_node_id": "0.0-68.0"}}, {"uniqueid": "MTK0988:39U1BHVTDMY1D5H0QN5XI4KH2FCT3X", "current_trial": 96, "dateTime": 1512952360549, "trialdata": {"rt": -1, "stimulus": "<p id=\"stim\">DOUGHNUT</p>", "key_press": -1, "type": "PRES_VIS", "word": "doughnut", "wordID": 489, "conditions": [12, 800, "v", 12000], "trial": 2, "serialpos": 7, "trial_type": "single-stim", "trial_index": 96, "time_elapsed": 477742, "internal_node_id": "0.0-69.0"}}, {"uniqueid": "MTK0988:39U1BHVTDMY1D5H0QN5XI4KH2FCT3X", "current_trial": 97, "dateTime": 1512952362191, "trialdata": {"rt": -1, "stimulus": "<p id=\"stim\">QUAIL</p>", "key_press": -1, "type": "PRES_VIS", "word": "quail", "wordID": 1146, "conditions": [12, 800, "v", 12000], "trial": 2, "serialpos": 8, "trial_type": "single-stim", "trial_index": 97, "time_elapsed": 479384, "internal_node_id": "0.0-70.0"}}, {"uniqueid": "MTK0988:39U1BHVTDMY1D5H0QN5XI4KH2FCT3X", "current_trial": 98, "dateTime": 1512952364140, "trialdata": {"rt": -1, "stimulus": "<p id=\"stim\">TURKEY</p>", "key_press": -1, "type": "PRES_VIS", "word": "turkey", "wordID": 1519, "conditions": [12, 800, "v", 12000], "trial": 2, "serialpos": 9, "trial_type": "single-stim", "trial_index": 98, "time_elapsed": 481332, "internal_node_id": "0.0-71.0"}}, {"uniqueid": "MTK0988:39U1BHVTDMY1D5H0QN5XI4KH2FCT3X", "current_trial": 99, "dateTime": 1512952365987, "trialdata": {"rt": -1, "stimulus": "<p id=\"stim\">OMELET</p>", "key_press": -1, "type": "PRES_VIS", "word": "omelet", "wordID": 975, "conditions": [12, 800, "v", 12000], "trial": 2, "serialpos": 10, "trial_type": "single-stim", "trial_index": 99, "time_elapsed": 483180, "internal_node_id": "0.0-72.0"}}, {"uniqueid": "MTK0988:39U1BHVTDMY1D5H0QN5XI4KH2FCT3X", "current_trial": 100, "dateTime": 1512952367885, "trialdata": {"rt": -1, "stimulus": "<p id=\"stim\">BALLOON</p>", "key_press": -1, "type": "PRES_VIS", "word": "balloon", "wordID": 74, "conditions": [12, 800, "v", 12000], "trial": 2, "serialpos": 11, "trial_type": "single-stim", "trial_index": 100, "time_elapsed": 485078, "internal_node_id": "0.0-73.0"}}, {"uniqueid": "MTK0988:39U1BHVTDMY1D5H0QN5XI4KH2FCT3X", "current_trial": 101, "dateTime": 1512952370160, "trialdata": {"rt": -1, "stimulus": "", "key_press": -1, "type": "PRE_RECALL_DELAY", "trial_type": "single-stim", "trial_index": 101, "time_elapsed": 487353, "internal_node_id": "0.0-74.0-0.0"}}, {"uniqueid": "MTK0988:39U1BHVTDMY1D5H0QN5XI4KH2FCT3X", "current_trial": 102, "dateTime": 1512952370662, "trialdata": {"rt": -1000, "stimulus": "/static/audio/400Hz.wav", "key_press": -1, "type": "PRE_RECALL_ALERT", "trial_type": "single-audio", "trial_index": 102, "time_elapsed": 487855, "internal_node_id": "0.0-75.0"}}, {"uniqueid": "MTK0988:39U1BHVTDMY1D5H0QN5XI4KH2FCT3X", "current_trial": 103, "dateTime": 1512952430663, "trialdata": {"rt": [2201, 4676, 9525, 11088, 12776, 15420, 23497, 26310, 48889], "recwords": ["pizza", "ketchup", "omelet", "lily", "balloon", "statue", "grape", "stove", "softball"], "type": "FREE_RECALL", "conditions": [12, 800, "v", 12000], "trial": 2, "trial_type": "free-recall", "trial_index": 103, "time_elapsed": 547854, "internal_node_id": "0.0-76.0-0.0"}}, {"uniqueid": "MTK0988:39U1BHVTDMY1D5H0QN5XI4KH2FCT3X", "current_trial": 104, "dateTime": 1512952434627, "trialdata": {"rt": 1963, "key_press": 32, "type": "INSTRUCTIONS", "trial_type": "text", "trial_index": 104, "time_elapsed": 551820, "internal_node_id": "0.0-77.0"}}, {"uniqueid": "MTK0988:39U1BHVTDMY1D5H0QN5XI4KH2FCT3X", "current_trial": 105, "dateTime": 1512952460632, "trialdata": {"rt": [2611, 5322, 7178, 9215, 11161, 13400, 15346, 16831, 18887, 20926, 23277], "responses": ["18", "18", "17", "17", "18", "8", "12", "12", "12", "17", "12"], "num1": [6, 9, 1, 6, 1, 2, 1, 5, 1, 6, 5, 1], "num2": [8, 5, 7, 2, 9, 2, 2, 5, 2, 5, 2, 1], "num3": [4, 6, 9, 9, 8, 4, 9, 2, 9, 6, 5, 2], "type": "DISTRACTOR", "conditions": [12, 800, "a", 24000], "trial": 3, "trial_type": "math-distractor", "trial_index": 105, "time_elapsed": 577825, "internal_node_id": "0.0-78.0"}}, {"uniqueid": "MTK0988:39U1BHVTDMY1D5H0QN5XI4KH2FCT3X", "current_trial": 106, "dateTime": 1512952463638, "trialdata": {"rt": -1, "stimulus": "<p id=\"stim\">10</p>", "key_press": -1, "trial_type": "single-stim", "trial_index": 106, "time_elapsed": 580831, "internal_node_id": "0.0-79.0-0.0"}}, {"uniqueid": "MTK0988:39U1BHVTDMY1D5H0QN5XI4KH2FCT3X", "current_trial": 107, "dateTime": 1512952464642, "trialdata": {"rt": -1, "stimulus": "<p id=\"stim\">9</p>", "key_press": -1, "trial_type": "single-stim", "trial_index": 107, "time_elapsed": 581835, "internal_node_id": "0.0-79.0-1.0"}}, {"uniqueid": "MTK0988:39U1BHVTDMY1D5H0QN5XI4KH2FCT3X", "current_trial": 108, "dateTime": 1512952465646, "trialdata": {"rt": -1, "stimulus": "<p id=\"stim\">8</p>", "key_press": -1, "trial_type": "single-stim", "trial_index": 108, "time_elapsed": 582839, "internal_node_id": "0.0-79.0-2.0"}}, {"uniqueid": "MTK0988:39U1BHVTDMY1D5H0QN5XI4KH2FCT3X", "current_trial": 109, "dateTime": 1512952466649, "trialdata": {"rt": -1, "stimulus": "<p id=\"stim\">7</p>", "key_press": -1, "trial_type": "single-stim", "trial_index": 109, "time_elapsed": 583842, "internal_node_id": "0.0-79.0-3.0"}}, {"uniqueid": "MTK0988:39U1BHVTDMY1D5H0QN5XI4KH2FCT3X", "current_trial": 110, "dateTime": 1512952467654, "trialdata": {"rt": -1, "stimulus": "<p id=\"stim\">6</p>", "key_press": -1, "trial_type": "single-stim", "trial_index": 110, "time_elapsed": 584847, "internal_node_id": "0.0-79.0-4.0"}}, {"uniqueid": "MTK0988:39U1BHVTDMY1D5H0QN5XI4KH2FCT3X", "current_trial": 111, "dateTime": 1512952468658, "trialdata": {"rt": -1, "stimulus": "<p id=\"stim\">5</p>", "key_press": -1, "trial_type": "single-stim", "trial_index": 111, "time_elapsed": 585851, "internal_node_id": "0.0-79.0-5.0"}}, {"uniqueid": "MTK0988:39U1BHVTDMY1D5H0QN5XI4KH2FCT3X", "current_trial": 112, "dateTime": 1512952469662, "trialdata": {"rt": -1, "stimulus": "<p id=\"stim\">4</p>", "key_press": -1, "trial_type": "single-stim", "trial_index": 112, "time_elapsed": 586855, "internal_node_id": "0.0-79.0-6.0"}}, {"uniqueid": "MTK0988:39U1BHVTDMY1D5H0QN5XI4KH2FCT3X", "current_trial": 113, "dateTime": 1512952470666, "trialdata": {"rt": -1, "stimulus": "<p id=\"stim\">3</p>", "key_press": -1, "trial_type": "single-stim", "trial_index": 113, "time_elapsed": 587859, "internal_node_id": "0.0-79.0-7.0"}}, {"uniqueid": "MTK0988:39U1BHVTDMY1D5H0QN5XI4KH2FCT3X", "current_trial": 114, "dateTime": 1512952471670, "trialdata": {"rt": -1, "stimulus": "<p id=\"stim\">2</p>", "key_press": -1, "trial_type": "single-stim", "trial_index": 114, "time_elapsed": 588863, "internal_node_id": "0.0-79.0-8.0"}}, {"uniqueid": "MTK0988:39U1BHVTDMY1D5H0QN5XI4KH2FCT3X", "current_trial": 115, "dateTime": 1512952472674, "trialdata": {"rt": -1, "stimulus": "<p id=\"stim\">1</p>", "key_press": -1, "trial_type": "single-stim", "trial_index": 115, "time_elapsed": 589867, "internal_node_id": "0.0-79.0-9.0"}}, {"uniqueid": "MTK0988:39U1BHVTDMY1D5H0QN5XI4KH2FCT3X", "current_trial": 116, "dateTime": 1512952474178, "trialdata": {"rt": -1, "stimulus": "<p id=\"stim\">+</p>", "key_press": -1, "type": "FIXATION", "trial_type": "single-stim", "trial_index": 116, "time_elapsed": 591370, "internal_node_id": "0.0-80.0-0.0"}}, {"uniqueid": "MTK0988:39U1BHVTDMY1D5H0QN5XI4KH2FCT3X", "current_trial": 117, "dateTime": 1512952475880, "trialdata": {"rt": -1000, "stimulus": "/static/audio/wordpool/NIGHTGOWN.wav", "key_press": -1, "type": "PRES_AUD", "word": "nightgown", "wordID": 952, "conditions": [12, 800, "a", 24000], "trial": 3, "serialpos": 0, "trial_type": "single-audio", "trial_index": 117, "time_elapsed": 593073, "internal_node_id": "0.0-81.0"}}, {"uniqueid": "MTK0988:39U1BHVTDMY1D5H0QN5XI4KH2FCT3X", "current_trial": 118, "dateTime": 1512952477569, "trialdata": {"rt": -1000, "stimulus": "/static/audio/wordpool/CLOTHES.wav", "key_press": -1, "type": "PRES_AUD", "word": "clothes", "wordID": 326, "conditions": [12, 800, "a", 24000], "trial": 3, "serialpos": 1, "trial_type": "single-audio", "trial_index": 118, "time_elapsed": 594762, "internal_node_id": "0.0-82.0"}}, {"uniqueid": "MTK0988:39U1BHVTDMY1D5H0QN5XI4KH2FCT3X", "current_trial": 119, "dateTime": 1512952479438, "trialdata": {"rt": -1000, "stimulus": "/static/audio/wordpool/DRAGON.wav", "key_press": -1, "type": "PRES_AUD", "word": "dragon", "wordID": 491, "conditions": [12, 800, "a", 24000], "trial": 3, "serialpos": 2, "trial_type": "single-audio", "trial_index": 119, "time_elapsed": 596631, "internal_node_id": "0.0-83.0"}}, {"uniqueid": "MTK0988:39U1BHVTDMY1D5H0QN5XI4KH2FCT3X", "current_trial": 120, "dateTime": 1512952481370, "trialdata": {"rt": -1000, "stimulus": "/static/audio/wordpool/JAPAN.wav", "key_press": -1, "type": "PRES_AUD", "word": "japan", "wordID": 748, "conditions": [12, 800, "a", 24000], "trial": 3, "serialpos": 3, "trial_type": "single-audio", "trial_index": 120, "time_elapsed": 598563, "internal_node_id": "0.0-84.0"}}, {"uniqueid": "MTK0988:39U1BHVTDMY1D5H0QN5XI4KH2FCT3X", "current_trial": 121, "dateTime": 1512952483159, "trialdata": {"rt": -1000, "stimulus": "/static/audio/wordpool/WARDROBE.wav", "key_press": -1, "type": "PRES_AUD", "word": "wardrobe", "wordID": 1586, "conditions": [12, 800, "a", 24000], "trial": 3, "serialpos": 4, "trial_type": "single-audio", "trial_index": 121, "time_elapsed": 600352, "internal_node_id": "0.0-85.0"}}, {"uniqueid": "MTK0988:39U1BHVTDMY1D5H0QN5XI4KH2FCT3X", "current_trial": 122, "dateTime": 1512952485115, "trialdata": {"rt": -1000, "stimulus": "/static/audio/wordpool/COUNTY.wav", "key_press": -1, "type": "PRES_AUD", "word": "county", "wordID": 388, "conditions": [12, 800, "a", 24000], "trial": 3, "serialpos": 5, "trial_type": "single-audio", "trial_index": 122, "time_elapsed": 602308, "internal_node_id": "0.0-86.0"}}, {"uniqueid": "MTK0988:39U1BHVTDMY1D5H0QN5XI4KH2FCT3X", "current_trial": 123, "dateTime": 1512952486723, "trialdata": {"rt": -1000, "stimulus": "/static/audio/wordpool/ACTOR.wav", "key_press": -1, "type": "PRES_AUD", "word": "actor", "wordID": 4, "conditions": [12, 800, "a", 24000], "trial": 3, "serialpos": 6, "trial_type": "single-audio", "trial_index": 123, "time_elapsed": 603916, "internal_node_id": "0.0-87.0"}}, {"uniqueid": "MTK0988:39U1BHVTDMY1D5H0QN5XI4KH2FCT3X", "current_trial": 124, "dateTime": 1512952488616, "trialdata": {"rt": -1000, "stimulus": "/static/audio/wordpool/GOBLIN.wav", "key_press": -1, "type": "PRES_AUD", "word": "goblin", "wordID": 644, "conditions": [12, 800, "a", 24000], "trial": 3, "serialpos": 7, "trial_type": "single-audio", "trial_index": 124, "time_elapsed": 605808, "internal_node_id": "0.0-88.0"}}, {"uniqueid": "MTK0988:39U1BHVTDMY1D5H0QN5XI4KH2FCT3X", "current_trial": 125, "dateTime": 1512952490392, "trialdata": {"rt": -1000, "stimulus": "/static/audio/wordpool/MAPLE.wav", "key_press": -1, "type": "PRES_AUD", "word": "maple", "wordID": 865, "conditions": [12, 800, "a", 24000], "trial": 3, "serialpos": 8, "trial_type": "single-audio", "trial_index": 125, "time_elapsed": 607585, "internal_node_id": "0.0-89.0"}}, {"uniqueid": "MTK0988:39U1BHVTDMY1D5H0QN5XI4KH2FCT3X", "current_trial": 126, "dateTime": 1512952492284, "trialdata": {"rt": -1000, "stimulus": "/static/audio/wordpool/FILM.wav", "key_press": -1, "type": "PRES_AUD", "word": "film", "wordID": 564, "conditions": [12, 800, "a", 24000], "trial": 3, "serialpos": 9, "trial_type": "single-audio", "trial_index": 126, "time_elapsed": 609477, "internal_node_id": "0.0-90.0"}}, {"uniqueid": "MTK0988:39U1BHVTDMY1D5H0QN5XI4KH2FCT3X", "current_trial": 127, "dateTime": 1512952494118, "trialdata": {"rt": -1000, "stimulus": "/static/audio/wordpool/LAMP.wav", "key_press": -1, "type": "PRES_AUD", "word": "lamp", "wordID": 797, "conditions": [12, 800, "a", 24000], "trial": 3, "serialpos": 10, "trial_type": "single-audio", "trial_index": 127, "time_elapsed": 611311, "internal_node_id": "0.0-91.0"}}, {"uniqueid": "MTK0988:39U1BHVTDMY1D5H0QN5XI4KH2FCT3X", "current_trial": 128, "dateTime": 1512952495813, "trialdata": {"rt": -1000, "stimulus": "/static/audio/wordpool/YACHT.wav", "key_press": -1, "type": "PRES_AUD", "word": "yacht", "wordID": 1628, "conditions": [12, 800, "a", 24000], "trial": 3, "serialpos": 11, "trial_type": "single-audio", "trial_index": 128, "time_elapsed": 613006, "internal_node_id": "0.0-92.0"}}, {"uniqueid": "MTK0988:39U1BHVTDMY1D5H0QN5XI4KH2FCT3X", "current_trial": 129, "dateTime": 1512952497032, "trialdata": {"rt": -1, "stimulus": "", "key_press": -1, "type": "PRE_RECALL_DELAY", "trial_type": "single-stim", "trial_index": 129, "time_elapsed": 614225, "internal_node_id": "0.0-93.0-0.0"}}, {"uniqueid": "MTK0988:39U1BHVTDMY1D5H0QN5XI4KH2FCT3X", "current_trial": 130, "dateTime": 1512952497534, "trialdata": {"rt": -1000, "stimulus": "/static/audio/400Hz.wav", "key_press": -1, "type": "PRE_RECALL_ALERT", "trial_type": "single-audio", "trial_index": 130, "time_elapsed": 614727, "internal_node_id": "0.0-94.0"}}, {"uniqueid": "MTK0988:39U1BHVTDMY1D5H0QN5XI4KH2FCT3X", "current_trial": 131, "dateTime": 1512952557536, "trialdata": {"rt": [1813, 3095, 5165, 6920, 8698, 11229, 15594, 19037, 54204], "recwords": ["actor", "film", "maple", "dragon", "yacht", "nightgown", "county", "actor", "panther"], "type": "FREE_RECALL", "conditions": [12, 800, "a", 24000], "trial": 3, "trial_type": "free-recall", "trial_index": 131, "time_elapsed": 674728, "internal_node_id": "0.0-95.0-0.0"}}, {"uniqueid": "MTK0988:39U1BHVTDMY1D5H0QN5XI4KH2FCT3X", "current_trial": 132, "dateTime": 1512952561561, "trialdata": {"rt": 2021, "key_press": 32, "type": "INSTRUCTIONS", "trial_type": "text", "trial_index": 132, "time_elapsed": 678754, "internal_node_id": "0.0-96.0"}}, {"uniqueid": "MTK0988:39U1BHVTDMY1D5H0QN5XI4KH2FCT3X", "current_trial": 133, "dateTime": 1512952575563, "trialdata": {"rt": [3342, 5581, 7156, 8900, 10902], "responses": ["16", "20", "6", "4", "13"], "num1": [2, 9, 1, 1, 9, 1], "num2": [9, 8, 4, 2, 2, 5], "num3": [5, 3, 1, 1, 2, 9], "type": "DISTRACTOR", "conditions": [24, 800, "a", 12000], "trial": 4, "trial_type": "math-distractor", "trial_index": 133, "time_elapsed": 692756, "internal_node_id": "0.0-97.0"}}, {"uniqueid": "MTK0988:39U1BHVTDMY1D5H0QN5XI4KH2FCT3X", "current_trial": 134, "dateTime": 1512952578570, "trialdata": {"rt": -1, "stimulus": "<p id=\"stim\">10</p>", "key_press": -1, "trial_type": "single-stim", "trial_index": 134, "time_elapsed": 695763, "internal_node_id": "0.0-98.0-0.0"}}, {"uniqueid": "MTK0988:39U1BHVTDMY1D5H0QN5XI4KH2FCT3X", "current_trial": 135, "dateTime": 1512952579573, "trialdata": {"rt": -1, "stimulus": "<p id=\"stim\">9</p>", "key_press": -1, "trial_type": "single-stim", "trial_index": 135, "time_elapsed": 696766, "internal_node_id": "0.0-98.0-1.0"}}, {"uniqueid": "MTK0988:39U1BHVTDMY1D5H0QN5XI4KH2FCT3X", "current_trial": 136, "dateTime": 1512952580577, "trialdata": {"rt": -1, "stimulus": "<p id=\"stim\">8</p>", "key_press": -1, "trial_type": "single-stim", "trial_index": 136, "time_elapsed": 697770, "internal_node_id": "0.0-98.0-2.0"}}, {"uniqueid": "MTK0988:39U1BHVTDMY1D5H0QN5XI4KH2FCT3X", "current_trial": 137, "dateTime": 1512952581582, "trialdata": {"rt": -1, "stimulus": "<p id=\"stim\">7</p>", "key_press": -1, "trial_type": "single-stim", "trial_index": 137, "time_elapsed": 698775, "internal_node_id": "0.0-98.0-3.0"}}, {"uniqueid": "MTK0988:39U1BHVTDMY1D5H0QN5XI4KH2FCT3X", "current_trial": 138, "dateTime": 1512952582585, "trialdata": {"rt": -1, "stimulus": "<p id=\"stim\">6</p>", "key_press": -1, "trial_type": "single-stim", "trial_index": 138, "time_elapsed": 699778, "internal_node_id": "0.0-98.0-4.0"}}, {"uniqueid": "MTK0988:39U1BHVTDMY1D5H0QN5XI4KH2FCT3X", "current_trial": 139, "dateTime": 1512952583590, "trialdata": {"rt": -1, "stimulus": "<p id=\"stim\">5</p>", "key_press": -1, "trial_type": "single-stim", "trial_index": 139, "time_elapsed": 700783, "internal_node_id": "0.0-98.0-5.0"}}, {"uniqueid": "MTK0988:39U1BHVTDMY1D5H0QN5XI4KH2FCT3X", "current_trial": 140, "dateTime": 1512952584594, "trialdata": {"rt": -1, "stimulus": "<p id=\"stim\">4</p>", "key_press": -1, "trial_type": "single-stim", "trial_index": 140, "time_elapsed": 701786, "internal_node_id": "0.0-98.0-6.0"}}, {"uniqueid": "MTK0988:39U1BHVTDMY1D5H0QN5XI4KH2FCT3X", "current_trial": 141, "dateTime": 1512952585598, "trialdata": {"rt": -1, "stimulus": "<p id=\"stim\">3</p>", "key_press": -1, "trial_type": "single-stim", "trial_index": 141, "time_elapsed": 702791, "internal_node_id": "0.0-98.0-7.0"}}, {"uniqueid": "MTK0988:39U1BHVTDMY1D5H0QN5XI4KH2FCT3X", "current_trial": 142, "dateTime": 1512952586601, "trialdata": {"rt": -1, "stimulus": "<p id=\"stim\">2</p>", "key_press": -1, "trial_type": "single-stim", "trial_index": 142, "time_elapsed": 703794, "internal_node_id": "0.0-98.0-8.0"}}, {"uniqueid": "MTK0988:39U1BHVTDMY1D5H0QN5XI4KH2FCT3X", "current_trial": 143, "dateTime": 1512952587606, "trialdata": {"rt": -1, "stimulus": "<p id=\"stim\">1</p>", "key_press": -1, "trial_type": "single-stim", "trial_index": 143, "time_elapsed": 704799, "internal_node_id": "0.0-98.0-9.0"}}, {"uniqueid": "MTK0988:39U1BHVTDMY1D5H0QN5XI4KH2FCT3X", "current_trial": 144, "dateTime": 1512952589109, "trialdata": {"rt": -1, "stimulus": "<p id=\"stim\">+</p>", "key_press": -1, "type": "FIXATION", "trial_type": "single-stim", "trial_index": 144, "time_elapsed": 706302, "internal_node_id": "0.0-99.0-0.0"}}, {"uniqueid": "MTK0988:39U1BHVTDMY1D5H0QN5XI4KH2FCT3X", "current_trial": 145, "dateTime": 1512952590832, "trialdata": {"rt": -1000, "stimulus": "/static/audio/wordpool/CREATURE.wav", "key_press": -1, "type": "PRES_AUD", "word": "creature", "wordID": 402, "conditions": [24, 800, "a", 12000], "trial": 4, "serialpos": 0, "trial_type": "single-audio", "trial_index": 145, "time_elapsed": 708025, "internal_node_id": "0.0-100.0"}}, {"uniqueid": "MTK0988:39U1BHVTDMY1D5H0QN5XI4KH2FCT3X", "current_trial": 146, "dateTime": 1512952592849, "trialdata": {"rt": -1000, "stimulus": "/static/audio/wordpool/BACON.wav", "key_press": -1, "type": "PRES_AUD", "word": "bacon", "wordID": 66, "conditions": [24, 800, "a", 12000], "trial": 4, "serialpos": 1, "trial_type": "single-audio", "trial_index": 146, "time_elapsed": 710041, "internal_node_id": "0.0-101.0"}}, {"uniqueid": "MTK0988:39U1BHVTDMY1D5H0QN5XI4KH2FCT3X", "current_trial": 147, "dateTime": 1512952594814, "trialdata": {"rt": -1000, "stimulus": "/static/audio/wordpool/BLENDER.wav", "key_press": -1, "type": "PRES_AUD", "word": "blender", "wordID": 135, "conditions": [24, 800, "a", 12000], "trial": 4, "serialpos": 2, "trial_type": "single-audio", "trial_index": 147, "time_elapsed": 712007, "internal_node_id": "0.0-102.0"}}, {"uniqueid": "MTK0988:39U1BHVTDMY1D5H0QN5XI4KH2FCT3X", "current_trial": 148, "dateTime": 1512952596533, "trialdata": {"rt": -1000, "stimulus": "/static/audio/wordpool/SKILLET.wav", "key_press": -1, "type": "PRES_AUD", "word": "skillet", "wordID": 1316, "conditions": [24, 800, "a", 12000], "trial": 4, "serialpos": 3, "trial_type": "single-audio", "trial_index": 148, "time_elapsed": 713725, "internal_node_id": "0.0-103.0"}}, {"uniqueid": "MTK0988:39U1BHVTDMY1D5H0QN5XI4KH2FCT3X", "current_trial": 149, "dateTime": 1512952598193, "trialdata": {"rt": -1000, "stimulus": "/static/audio/wordpool/CRAB.wav", "key_press": -1, "type": "PRES_AUD", "word": "crab", "wordID": 396, "conditions": [24, 800, "a", 12000], "trial": 4, "serialpos": 4, "trial_type": "single-audio", "trial_index": 149, "time_elapsed": 715386, "internal_node_id": "0.0-104.0"}}, {"uniqueid": "MTK0988:39U1BHVTDMY1D5H0QN5XI4KH2FCT3X", "current_trial": 150, "dateTime": 1512952600068, "trialdata": {"rt": -1000, "stimulus": "/static/audio/wordpool/COLLEGE.wav", "key_press": -1, "type": "PRES_AUD", "word": "college", "wordID": 345, "conditions": [24, 800, "a", 12000], "trial": 4, "serialpos": 5, "trial_type": "single-audio", "trial_index": 150, "time_elapsed": 717261, "internal_node_id": "0.0-105.0"}}, {"uniqueid": "MTK0988:39U1BHVTDMY1D5H0QN5XI4KH2FCT3X", "current_trial": 151, "dateTime": 1512952601826, "trialdata": {"rt": -1000, "stimulus": "/static/audio/wordpool/PATIENT.wav", "key_press": -1, "type": "PRES_AUD", "word": "patient", "wordID": 1023, "conditions": [24, 800, "a", 12000], "trial": 4, "serialpos": 6, "trial_type": "single-audio", "trial_index": 151, "time_elapsed": 719019, "internal_node_id": "0.0-106.0"}}, {"uniqueid": "MTK0988:39U1BHVTDMY1D5H0QN5XI4KH2FCT3X", "current_trial": 152, "dateTime": 1512952603579, "trialdata": {"rt": -1000, "stimulus": "/static/audio/wordpool/TREAT.wav", "key_press": -1, "type": "PRES_AUD", "word": "treat", "wordID": 1500, "conditions": [24, 800, "a", 12000], "trial": 4, "serialpos": 7, "trial_type": "single-audio", "trial_index": 152, "time_elapsed": 720772, "internal_node_id": "0.0-107.0"}}, {"uniqueid": "MTK0988:39U1BHVTDMY1D5H0QN5XI4KH2FCT3X", "current_trial": 153, "dateTime": 1512952605408, "trialdata": {"rt": -1000, "stimulus": "/static/audio/wordpool/FIREMAN.wav", "key_press": -1, "type": "PRES_AUD", "word": "fireman", "wordID": 568, "conditions": [24, 800, "a", 12000], "trial": 4, "serialpos": 8, "trial_type": "single-audio", "trial_index": 153, "time_elapsed": 722601, "internal_node_id": "0.0-108.0"}}, {"uniqueid": "MTK0988:39U1BHVTDMY1D5H0QN5XI4KH2FCT3X", "current_trial": 154, "dateTime": 1512952607271, "trialdata": {"rt": -1000, "stimulus": "/static/audio/wordpool/PEANUT.wav", "key_press": -1, "type": "PRES_AUD", "word": "peanut", "wordID": 1031, "conditions": [24, 800, "a", 12000], "trial": 4, "serialpos": 9, "trial_type": "single-audio", "trial_index": 154, "time_elapsed": 724464, "internal_node_id": "0.0-109.0"}}, {"uniqueid": "MTK0988:39U1BHVTDMY1D5H0QN5XI4KH2FCT3X", "current_trial": 155, "dateTime": 1512952608995, "trialdata": {"rt": -1000, "stimulus": "/static/audio/wordpool/STUDENT.wav", "key_press": -1, "type": "PRES_AUD", "word": "student", "wordID": 1394, "conditions": [24, 800, "a", 12000], "trial": 4, "serialpos": 10, "trial_type": "single-audio", "trial_index": 155, "time_elapsed": 726188, "internal_node_id": "0.0-110.0"}}, {"uniqueid": "MTK0988:39U1BHVTDMY1D5H0QN5XI4KH2FCT3X", "current_trial": 156, "dateTime": 1512952610626, "trialdata": {"rt": -1000, "stimulus": "/static/audio/wordpool/PIMPLE.wav", "key_press": -1, "type": "PRES_AUD", "word": "pimple", "wordID": 1070, "conditions": [24, 800, "a", 12000], "trial": 4, "serialpos": 11, "trial_type": "single-audio", "trial_index": 156, "time_elapsed": 727819, "internal_node_id": "0.0-111.0"}}, {"uniqueid": "MTK0988:39U1BHVTDMY1D5H0QN5XI4KH2FCT3X", "current_trial": 157, "dateTime": 1512952612571, "trialdata": {"rt": -1000, "stimulus": "/static/audio/wordpool/BEAST.wav", "key_press": -1, "type": "PRES_AUD", "word": "beast", "wordID": 107, "conditions": [24, 800, "a", 12000], "trial": 4, "serialpos": 12, "trial_type": "single-audio", "trial_index": 157, "time_elapsed": 729764, "internal_node_id": "0.0-112.0"}}, {"uniqueid": "MTK0988:39U1BHVTDMY1D5H0QN5XI4KH2FCT3X", "current_trial": 158, "dateTime": 1512952614347, "trialdata": {"rt": -1000, "stimulus": "/static/audio/wordpool/HOOD.wav", "key_press": -1, "type": "PRES_AUD", "word": "hood", "wordID": 713, "conditions": [24, 800, "a", 12000], "trial": 4, "serialpos": 13, "trial_type": "single-audio", "trial_index": 158, "time_elapsed": 731540, "internal_node_id": "0.0-113.0"}}, {"uniqueid": "MTK0988:39U1BHVTDMY1D5H0QN5XI4KH2FCT3X", "current_trial": 159, "dateTime": 1512952616193, "trialdata": {"rt": -1000, "stimulus": "/static/audio/wordpool/TUTU.wav", "key_press": -1, "type": "PRES_AUD", "word": "tutu", "wordID": 1523, "conditions": [24, 800, "a", 12000], "trial": 4, "serialpos": 14, "trial_type": "single-audio", "trial_index": 159, "time_elapsed": 733386, "internal_node_id": "0.0-114.0"}}, {"uniqueid": "MTK0988:39U1BHVTDMY1D5H0QN5XI4KH2FCT3X", "current_trial": 160, "dateTime": 1512952617905, "trialdata": {"rt": -1000, "stimulus": "/static/audio/wordpool/MARKET.wav", "key_press": -1, "type": "PRES_AUD", "word": "market", "wordID": 870, "conditions": [24, 800, "a", 12000], "trial": 4, "serialpos": 15, "trial_type": "single-audio", "trial_index": 160, "time_elapsed": 735098, "internal_node_id": "0.0-115.0"}}, {"uniqueid": "MTK0988:39U1BHVTDMY1D5H0QN5XI4KH2FCT3X", "current_trial": 161, "dateTime": 1512952619606, "trialdata": {"rt": -1000, "stimulus": "/static/audio/wordpool/MONSTER.wav", "key_press": -1, "type": "PRES_AUD", "word": "monster", "wordID": 911, "conditions": [24, 800, "a", 12000], "trial": 4, "serialpos": 16, "trial_type": "single-audio", "trial_index": 161, "time_elapsed": 736799, "internal_node_id": "0.0-116.0"}}, {"uniqueid": "MTK0988:39U1BHVTDMY1D5H0QN5XI4KH2FCT3X", "current_trial": 162, "dateTime": 1512952621365, "trialdata": {"rt": -1000, "stimulus": "/static/audio/wordpool/MARSH.wav", "key_press": -1, "type": "PRES_AUD", "word": "marsh", "wordID": 873, "conditions": [24, 800, "a", 12000], "trial": 4, "serialpos": 17, "trial_type": "single-audio", "trial_index": 162, "time_elapsed": 738558, "internal_node_id": "0.0-117.0"}}, {"uniqueid": "MTK0988:39U1BHVTDMY1D5H0QN5XI4KH2FCT3X", "current_trial": 163, "dateTime": 1512952623049, "trialdata": {"rt": -1000, "stimulus": "/static/audio/wordpool/CLAM.wav", "key_press": -1, "type": "PRES_AUD", "word": "clam", "wordID": 314, "conditions": [24, 800, "a", 12000], "trial": 4, "serialpos": 18, "trial_type": "single-audio", "trial_index": 163, "time_elapsed": 740241, "internal_node_id": "0.0-118.0"}}, {"uniqueid": "MTK0988:39U1BHVTDMY1D5H0QN5XI4KH2FCT3X", "current_trial": 164, "dateTime": 1512952624732, "trialdata": {"rt": -1000, "stimulus": "/static/audio/wordpool/WOMAN.wav", "key_press": -1, "type": "PRES_AUD", "word": "woman", "wordID": 1619, "conditions": [24, 800, "a", 12000], "trial": 4, "serialpos": 19, "trial_type": "single-audio", "trial_index": 164, "time_elapsed": 741925, "internal_node_id": "0.0-119.0"}}, {"uniqueid": "MTK0988:39U1BHVTDMY1D5H0QN5XI4KH2FCT3X", "current_trial": 165, "dateTime": 1512952626444, "trialdata": {"rt": -1000, "stimulus": "/static/audio/wordpool/REPORT.wav", "key_press": -1, "type": "PRES_AUD", "word": "report", "wordID": 1183, "conditions": [24, 800, "a", 12000], "trial": 4, "serialpos": 20, "trial_type": "single-audio", "trial_index": 165, "time_elapsed": 743637, "internal_node_id": "0.0-120.0"}}, {"uniqueid": "MTK0988:39U1BHVTDMY1D5H0QN5XI4KH2FCT3X", "current_trial": 166, "dateTime": 1512952628342, "trialdata": {"rt": -1000, "stimulus": "/static/audio/wordpool/SCALPEL.wav", "key_press": -1, "type": "PRES_AUD", "word": "scalpel", "wordID": 1242, "conditions": [24, 800, "a", 12000], "trial": 4, "serialpos": 21, "trial_type": "single-audio", "trial_index": 166, "time_elapsed": 745535, "internal_node_id": "0.0-121.0"}}, {"uniqueid": "MTK0988:39U1BHVTDMY1D5H0QN5XI4KH2FCT3X", "current_trial": 167, "dateTime": 1512952630305, "trialdata": {"rt": -1000, "stimulus": "/static/audio/wordpool/SCISSORS.wav", "key_press": -1, "type": "PRES_AUD", "word": "scissors", "wordID": 1249, "conditions": [24, 800, "a", 12000], "trial": 4, "serialpos": 22, "trial_type": "single-audio", "trial_index": 167, "time_elapsed": 747497, "internal_node_id": "0.0-122.0"}}, {"uniqueid": "MTK0988:39U1BHVTDMY1D5H0QN5XI4KH2FCT3X", "current_trial": 168, "dateTime": 1512952632129, "trialdata": {"rt": -1000, "stimulus": "/static/audio/wordpool/ISLAND.wav", "key_press": -1, "type": "PRES_AUD", "word": "island", "wordID": 744, "conditions": [24, 800, "a", 12000], "trial": 4, "serialpos": 23, "trial_type": "single-audio", "trial_index": 168, "time_elapsed": 749321, "internal_node_id": "0.0-123.0"}}, {"uniqueid": "MTK0988:39U1BHVTDMY1D5H0QN5XI4KH2FCT3X", "current_trial": 169, "dateTime": 1512952633375, "trialdata": {"rt": -1, "stimulus": "", "key_press": -1, "type": "PRE_RECALL_DELAY", "trial_type": "single-stim", "trial_index": 169, "time_elapsed": 750568, "internal_node_id": "0.0-124.0-0.0"}}, {"uniqueid": "MTK0988:39U1BHVTDMY1D5H0QN5XI4KH2FCT3X", "current_trial": 170, "dateTime": 1512952633877, "trialdata": {"rt": -1000, "stimulus": "/static/audio/400Hz.wav", "key_press": -1, "type": "PRE_RECALL_ALERT", "trial_type": "single-audio", "trial_index": 170, "time_elapsed": 751070, "internal_node_id": "0.0-125.0"}}, {"uniqueid": "MTK0988:39U1BHVTDMY1D5H0QN5XI4KH2FCT3X", "current_trial": 171, "dateTime": 1512952693881, "trialdata": {"rt": [2281, 3935, 5791, 8120, 10122, 11709, 13048, 14971, 16175, 41802, 44514], "recwords": ["creature", "beast", "monster", "pimple", "student", "skillet", "clam", "island", "woman", "teacher", "college"], "type": "FREE_RECALL", "conditions": [24, 800, "a", 12000], "trial": 4, "trial_type": "free-recall", "trial_index": 171, "time_elapsed": 811072, "internal_node_id": "0.0-126.0-0.0"}}, {"uniqueid": "MTK0988:39U1BHVTDMY1D5H0QN5XI4KH2FCT3X", "current_trial": 172, "dateTime": 1512952697922, "trialdata": {"rt": 2040, "key_press": 32, "type": "INSTRUCTIONS", "trial_type": "text", "trial_index": 172, "time_elapsed": 815115, "internal_node_id": "0.0-127.0"}}, {"uniqueid": "MTK0988:39U1BHVTDMY1D5H0QN5XI4KH2FCT3X", "current_trial": 173, "dateTime": 1512952711932, "trialdata": {"rt": [1751, 3439, 4912, 6521, 8502, 10740], "responses": ["11", "16", "13", "13", "16", "18"], "num1": [1, 6, 5, 7, 1, 9, 6], "num2": [9, 8, 5, 5, 7, 6, 7], "num3": [1, 2, 3, 1, 8, 3, 5], "type": "DISTRACTOR", "conditions": [24, 1600, "v", 12000], "trial": 5, "trial_type": "math-distractor", "trial_index": 173, "time_elapsed": 829125, "internal_node_id": "0.0-128.0"}}, {"uniqueid": "MTK0988:39U1BHVTDMY1D5H0QN5XI4KH2FCT3X", "current_trial": 174, "dateTime": 1512952714942, "trialdata": {"rt": -1, "stimulus": "<p id=\"stim\">10</p>", "key_press": -1, "trial_type": "single-stim", "trial_index": 174, "time_elapsed": 832134, "internal_node_id": "0.0-129.0-0.0"}}, {"uniqueid": "MTK0988:39U1BHVTDMY1D5H0QN5XI4KH2FCT3X", "current_trial": 175, "dateTime": 1512952715945, "trialdata": {"rt": -1, "stimulus": "<p id=\"stim\">9</p>", "key_press": -1, "trial_type": "single-stim", "trial_index": 175, "time_elapsed": 833138, "internal_node_id": "0.0-129.0-1.0"}}, {"uniqueid": "MTK0988:39U1BHVTDMY1D5H0QN5XI4KH2FCT3X", "current_trial": 176, "dateTime": 1512952716949, "trialdata": {"rt": -1, "stimulus": "<p id=\"stim\">8</p>", "key_press": -1, "trial_type": "single-stim", "trial_index": 176, "time_elapsed": 834142, "internal_node_id": "0.0-129.0-2.0"}}, {"uniqueid": "MTK0988:39U1BHVTDMY1D5H0QN5XI4KH2FCT3X", "current_trial": 177, "dateTime": 1512952717954, "trialdata": {"rt": -1, "stimulus": "<p id=\"stim\">7</p>", "key_press": -1, "trial_type": "single-stim", "trial_index": 177, "time_elapsed": 835146, "internal_node_id": "0.0-129.0-3.0"}}, {"uniqueid": "MTK0988:39U1BHVTDMY1D5H0QN5XI4KH2FCT3X", "current_trial": 178, "dateTime": 1512952718957, "trialdata": {"rt": -1, "stimulus": "<p id=\"stim\">6</p>", "key_press": -1, "trial_type": "single-stim", "trial_index": 178, "time_elapsed": 836150, "internal_node_id": "0.0-129.0-4.0"}}, {"uniqueid": "MTK0988:39U1BHVTDMY1D5H0QN5XI4KH2FCT3X", "current_trial": 179, "dateTime": 1512952719962, "trialdata": {"rt": -1, "stimulus": "<p id=\"stim\">5</p>", "key_press": -1, "trial_type": "single-stim", "trial_index": 179, "time_elapsed": 837155, "internal_node_id": "0.0-129.0-5.0"}}, {"uniqueid": "MTK0988:39U1BHVTDMY1D5H0QN5XI4KH2FCT3X", "current_trial": 180, "dateTime": 1512952720965, "trialdata": {"rt": -1, "stimulus": "<p id=\"stim\">4</p>", "key_press": -1, "trial_type": "single-stim", "trial_index": 180, "time_elapsed": 838158, "internal_node_id": "0.0-129.0-6.0"}}, {"uniqueid": "MTK0988:39U1BHVTDMY1D5H0QN5XI4KH2FCT3X", "current_trial": 181, "dateTime": 1512952721970, "trialdata": {"rt": -1, "stimulus": "<p id=\"stim\">3</p>", "key_press": -1, "trial_type": "single-stim", "trial_index": 181, "time_elapsed": 839163, "internal_node_id": "0.0-129.0-7.0"}}, {"uniqueid": "MTK0988:39U1BHVTDMY1D5H0QN5XI4KH2FCT3X", "current_trial": 182, "dateTime": 1512952722974, "trialdata": {"rt": -1, "stimulus": "<p id=\"stim\">2</p>", "key_press": -1, "trial_type": "single-stim", "trial_index": 182, "time_elapsed": 840166, "internal_node_id": "0.0-129.0-8.0"}}, {"uniqueid": "MTK0988:39U1BHVTDMY1D5H0QN5XI4KH2FCT3X", "current_trial": 183, "dateTime": 1512952723977, "trialdata": {"rt": -1, "stimulus": "<p id=\"stim\">1</p>", "key_press": -1, "trial_type": "single-stim", "trial_index": 183, "time_elapsed": 841170, "internal_node_id": "0.0-129.0-9.0"}}, {"uniqueid": "MTK0988:39U1BHVTDMY1D5H0QN5XI4KH2FCT3X", "current_trial": 184, "dateTime": 1512952725482, "trialdata": {"rt": -1, "stimulus": "<p id=\"stim\">+</p>", "key_press": -1, "type": "FIXATION", "trial_type": "single-stim", "trial_index": 184, "time_elapsed": 842674, "internal_node_id": "0.0-130.0-0.0"}}, {"uniqueid": "MTK0988:39U1BHVTDMY1D5H0QN5XI4KH2FCT3X", "current_trial": 185, "dateTime": 1512952727086, "trialdata": {"rt": -1, "stimulus": "<p id=\"stim\">PRIMATE</p>", "key_press": -1, "type": "PRES_VIS", "word": "primate", "wordID": 1122, "conditions": [24, 1600, "v", 12000], "trial": 5, "serialpos": 0, "trial_type": "single-stim", "trial_index": 185, "time_elapsed": 844279, "internal_node_id": "0.0-131.0"}}, {"uniqueid": "MTK0988:39U1BHVTDMY1D5H0QN5XI4KH2FCT3X", "current_trial": 186, "dateTime": 1512952729753, "trialdata": {"rt": -1, "stimulus": "<p id=\"stim\">DRUG</p>", "key_press": -1, "type": "PRES_VIS", "word": "drug", "wordID": 500, "conditions": [24, 1600, "v", 12000], "trial": 5, "serialpos": 1, "trial_type": "single-stim", "trial_index": 186, "time_elapsed": 846946, "internal_node_id": "0.0-132.0"}}, {"uniqueid": "MTK0988:39U1BHVTDMY1D5H0QN5XI4KH2FCT3X", "current_trial": 187, "dateTime": 1512952732382, "trialdata": {"rt": -1, "stimulus": "<p id=\"stim\">POISON</p>", "key_press": -1, "type": "PRES_VIS", "word": "poison", "wordID": 1095, "conditions": [24, 1600, "v", 12000], "trial": 5, "serialpos": 2, "trial_type": "single-stim", "trial_index": 187, "time_elapsed": 849575, "internal_node_id": "0.0-133.0"}}, {"uniqueid": "MTK0988:39U1BHVTDMY1D5H0QN5XI4KH2FCT3X", "current_trial": 188, "dateTime": 1512952735109, "trialdata": {"rt": -1, "stimulus": "<p id=\"stim\">SANDWICH</p>", "key_press": -1, "type": "PRES_VIS", "word": "sandwich", "wordID": 1231, "conditions": [24, 1600, "v", 12000], "trial": 5, "serialpos": 3, "trial_type": "single-stim", "trial_index": 188, "time_elapsed": 852302, "internal_node_id": "0.0-134.0"}}, {"uniqueid": "MTK0988:39U1BHVTDMY1D5H0QN5XI4KH2FCT3X", "current_trial": 189, "dateTime": 1512952737541, "trialdata": {"rt": -1, "stimulus": "<p id=\"stim\">TOURIST</p>", "key_press": -1, "type": "PRES_VIS", "word": "tourist", "wordID": 1487, "conditions": [24, 1600, "v", 12000], "trial": 5, "serialpos": 4, "trial_type": "single-stim", "trial_index": 189, "time_elapsed": 854734, "internal_node_id": "0.0-135.0"}}, {"uniqueid": "MTK0988:39U1BHVTDMY1D5H0QN5XI4KH2FCT3X", "current_trial": 190, "dateTime": 1512952740171, "trialdata": {"rt": -1, "stimulus": "<p id=\"stim\">CANYON</p>", "key_press": -1, "type": "PRES_VIS", "word": "canyon", "wordID": 234, "conditions": [24, 1600, "v", 12000], "trial": 5, "serialpos": 5, "trial_type": "single-stim", "trial_index": 190, "time_elapsed": 857364, "internal_node_id": "0.0-136.0"}}, {"uniqueid": "MTK0988:39U1BHVTDMY1D5H0QN5XI4KH2FCT3X", "current_trial": 191, "dateTime": 1512952742579, "trialdata": {"rt": -1, "stimulus": "<p id=\"stim\">SHARK</p>", "key_press": -1, "type": "PRES_VIS", "word": "shark", "wordID": 1274, "conditions": [24, 1600, "v", 12000], "trial": 5, "serialpos": 6, "trial_type": "single-stim", "trial_index": 191, "time_elapsed": 859772, "internal_node_id": "0.0-137.0"}}, {"uniqueid": "MTK0988:39U1BHVTDMY1D5H0QN5XI4KH2FCT3X", "current_trial": 192, "dateTime": 1512952745057, "trialdata": {"rt": -1, "stimulus": "<p id=\"stim\">SAUSAGE</p>", "key_press": -1, "type": "PRES_VIS", "word": "sausage", "wordID": 1237, "conditions": [24, 1600, "v", 12000], "trial": 5, "serialpos": 7, "trial_type": "single-stim", "trial_index": 192, "time_elapsed": 862250, "internal_node_id": "0.0-138.0"}}, {"uniqueid": "MTK0988:39U1BHVTDMY1D5H0QN5XI4KH2FCT3X", "current_trial": 193, "dateTime": 1512952747547, "trialdata": {"rt": -1, "stimulus": "<p id=\"stim\">FOOTBALL</p>", "key_press": -1, "type": "PRES_VIS", "word": "football", "wordID": 590, "conditions": [24, 1600, "v", 12000], "trial": 5, "serialpos": 8, "trial_type": "single-stim", "trial_index": 193, "time_elapsed": 864740, "internal_node_id": "0.0-139.0"}}, {"uniqueid": "MTK0988:39U1BHVTDMY1D5H0QN5XI4KH2FCT3X", "current_trial": 194, "dateTime": 1512952750193, "trialdata": {"rt": -1, "stimulus": "<p id=\"stim\">ASIA</p>", "key_press": -1, "type": "PRES_VIS", "word": "asia", "wordID": 45, "conditions": [24, 1600, "v", 12000], "trial": 5, "serialpos": 9, "trial_type": "single-stim", "trial_index": 194, "time_elapsed": 867386, "internal_node_id": "0.0-140.0"}}, {"uniqueid": "MTK0988:39U1BHVTDMY1D5H0QN5XI4KH2FCT3X", "current_trial": 195, "dateTime": 1512952752666, "trialdata": {"rt": -1, "stimulus": "<p id=\"stim\">EUROPE</p>", "key_press": -1, "type": "PRES_VIS", "word": "europe", "wordID": 540, "conditions": [24, 1600, "v", 12000], "trial": 5, "serialpos": 10, "trial_type": "single-stim", "trial_index": 195, "time_elapsed": 869859, "internal_node_id": "0.0-141.0"}}, {"uniqueid": "MTK0988:39U1BHVTDMY1D5H0QN5XI4KH2FCT3X", "current_trial": 196, "dateTime": 1512952755411, "trialdata": {"rt": -1, "stimulus": "<p id=\"stim\">DRILL</p>", "key_press": -1, "type": "PRES_VIS", "word": "drill", "wordID": 496, "conditions": [24, 1600, "v", 12000], "trial": 5, "serialpos": 11, "trial_type": "single-stim", "trial_index": 196, "time_elapsed": 872604, "internal_node_id": "0.0-142.0"}}, {"uniqueid": "MTK0988:39U1BHVTDMY1D5H0QN5XI4KH2FCT3X", "current_trial": 197, "dateTime": 1512952757999, "trialdata": {"rt": -1, "stimulus": "<p id=\"stim\">PARSLEY</p>", "key_press": -1, "type": "PRES_VIS", "word": "parsley", "wordID": 1015, "conditions": [24, 1600, "v", 12000], "trial": 5, "serialpos": 12, "trial_type": "single-stim", "trial_index": 197, "time_elapsed": 875192, "internal_node_id": "0.0-143.0"}}, {"uniqueid": "MTK0988:39U1BHVTDMY1D5H0QN5XI4KH2FCT3X", "current_trial": 198, "dateTime": 1512952760582, "trialdata": {"rt": -1, "stimulus": "<p id=\"stim\">CABBAGE</p>", "key_press": -1, "type": "PRES_VIS", "word": "cabbage", "wordID": 209, "conditions": [24, 1600, "v", 12000], "trial": 5, "serialpos": 13, "trial_type": "single-stim", "trial_index": 198, "time_elapsed": 877775, "internal_node_id": "0.0-144.0"}}, {"uniqueid": "MTK0988:39U1BHVTDMY1D5H0QN5XI4KH2FCT3X", "current_trial": 199, "dateTime": 1512952763165, "trialdata": {"rt": -1, "stimulus": "<p id=\"stim\">OZONE</p>", "key_press": -1, "type": "PRES_VIS", "word": "ozone", "wordID": 995, "conditions": [24, 1600, "v", 12000], "trial": 5, "serialpos": 14, "trial_type": "single-stim", "trial_index": 199, "time_elapsed": 880358, "internal_node_id": "0.0-145.0"}}, {"uniqueid": "MTK0988:39U1BHVTDMY1D5H0QN5XI4KH2FCT3X", "current_trial": 200, "dateTime": 1512952765892, "trialdata": {"rt": -1, "stimulus": "<p id=\"stim\">FOREST</p>", "key_press": -1, "type": "PRES_VIS", "word": "forest", "wordID": 592, "conditions": [24, 1600, "v", 12000], "trial": 5, "serialpos": 15, "trial_type": "single-stim", "trial_index": 200, "time_elapsed": 883085, "internal_node_id": "0.0-146.0"}}, {"uniqueid": "MTK0988:39U1BHVTDMY1D5H0QN5XI4KH2FCT3X", "current_trial": 201, "dateTime": 1512952768545, "trialdata": {"rt": -1, "stimulus": "<p id=\"stim\">ITEM</p>", "key_press": -1, "type": "PRES_VIS", "word": "item", "wordID": 745, "conditions": [24, 1600, "v", 12000], "trial": 5, "serialpos": 16, "trial_type": "single-stim", "trial_index": 201, "time_elapsed": 885738, "internal_node_id": "0.0-147.0"}}, {"uniqueid": "MTK0988:39U1BHVTDMY1D5H0QN5XI4KH2FCT3X", "current_trial": 202, "dateTime": 1512952771197, "trialdata": {"rt": -1, "stimulus": "<p id=\"stim\">TURNIP</p>", "key_press": -1, "type": "PRES_VIS", "word": "turnip", "wordID": 1520, "conditions": [24, 1600, "v", 12000], "trial": 5, "serialpos": 17, "trial_type": "single-stim", "trial_index": 202, "time_elapsed": 888390, "internal_node_id": "0.0-148.0"}}, {"uniqueid": "MTK0988:39U1BHVTDMY1D5H0QN5XI4KH2FCT3X", "current_trial": 203, "dateTime": 1512952773971, "trialdata": {"rt": -1, "stimulus": "<p id=\"stim\">COWBOY</p>", "key_press": -1, "type": "PRES_VIS", "word": "cowboy", "wordID": 394, "conditions": [24, 1600, "v", 12000], "trial": 5, "serialpos": 18, "trial_type": "single-stim", "trial_index": 203, "time_elapsed": 891164, "internal_node_id": "0.0-149.0"}}, {"uniqueid": "MTK0988:39U1BHVTDMY1D5H0QN5XI4KH2FCT3X", "current_trial": 204, "dateTime": 1512952776676, "trialdata": {"rt": -1, "stimulus": "<p id=\"stim\">BUREAU</p>", "key_press": -1, "type": "PRES_VIS", "word": "bureau", "wordID": 198, "conditions": [24, 1600, "v", 12000], "trial": 5, "serialpos": 19, "trial_type": "single-stim", "trial_index": 204, "time_elapsed": 893869, "internal_node_id": "0.0-150.0"}}, {"uniqueid": "MTK0988:39U1BHVTDMY1D5H0QN5XI4KH2FCT3X", "current_trial": 205, "dateTime": 1512952779160, "trialdata": {"rt": -1, "stimulus": "<p id=\"stim\">STAMP</p>", "key_press": -1, "type": "PRES_VIS", "word": "stamp", "wordID": 1369, "conditions": [24, 1600, "v", 12000], "trial": 5, "serialpos": 20, "trial_type": "single-stim", "trial_index": 205, "time_elapsed": 896353, "internal_node_id": "0.0-151.0"}}, {"uniqueid": "MTK0988:39U1BHVTDMY1D5H0QN5XI4KH2FCT3X", "current_trial": 206, "dateTime": 1512952781725, "trialdata": {"rt": -1, "stimulus": "<p id=\"stim\">SILK</p>", "key_press": -1, "type": "PRES_VIS", "word": "silk", "wordID": 1306, "conditions": [24, 1600, "v", 12000], "trial": 5, "serialpos": 21, "trial_type": "single-stim", "trial_index": 206, "time_elapsed": 898918, "internal_node_id": "0.0-152.0"}}, {"uniqueid": "MTK0988:39U1BHVTDMY1D5H0QN5XI4KH2FCT3X", "current_trial": 207, "dateTime": 1512952784501, "trialdata": {"rt": -1, "stimulus": "<p id=\"stim\">LACE</p>", "key_press": -1, "type": "PRES_VIS", "word": "lace", "wordID": 791, "conditions": [24, 1600, "v", 12000], "trial": 5, "serialpos": 22, "trial_type": "single-stim", "trial_index": 207, "time_elapsed": 901694, "internal_node_id": "0.0-153.0"}}, {"uniqueid": "MTK0988:39U1BHVTDMY1D5H0QN5XI4KH2FCT3X", "current_trial": 208, "dateTime": 1512952787041, "trialdata": {"rt": -1, "stimulus": "<p id=\"stim\">TURTLE</p>", "key_press": -1, "type": "PRES_VIS", "word": "turtle", "wordID": 1521, "conditions": [24, 1600, "v", 12000], "trial": 5, "serialpos": 23, "trial_type": "single-stim", "trial_index": 208, "time_elapsed": 904234, "internal_node_id": "0.0-154.0"}}, {"uniqueid": "MTK0988:39U1BHVTDMY1D5H0QN5XI4KH2FCT3X", "current_trial": 209, "dateTime": 1512952789392, "trialdata": {"rt": -1, "stimulus": "", "key_press": -1, "type": "PRE_RECALL_DELAY", "trial_type": "single-stim", "trial_index": 209, "time_elapsed": 906585, "internal_node_id": "0.0-155.0-0.0"}}, {"uniqueid": "MTK0988:39U1BHVTDMY1D5H0QN5XI4KH2FCT3X", "current_trial": 210, "dateTime": 1512952789893, "trialdata": {"rt": -1000, "stimulus": "/static/audio/400Hz.wav", "key_press": -1, "type": "PRE_RECALL_ALERT", "trial_type": "single-audio", "trial_index": 210, "time_elapsed": 907086, "internal_node_id": "0.0-156.0"}}, {"uniqueid": "MTK0988:39U1BHVTDMY1D5H0QN5XI4KH2FCT3X", "current_trial": 211, "dateTime": 1512952849894, "trialdata": {"rt": [1932, 3327, 6624, 7962, 9818, 11787, 13834, 16962, 19988, 28853, 38382, 57136], "recwords": ["silk", "lace", "tourist", "stamp", "sausage", "ocean", "shark", "parsley", "football", "ocean", "tourist", "cowboy"], "type": "FREE_RECALL", "conditions": [24, 1600, "v", 12000], "trial": 5, "trial_type": "free-recall", "trial_index": 211, "time_elapsed": 967085, "internal_node_id": "0.0-157.0-0.0"}}, {"uniqueid": "MTK0988:39U1BHVTDMY1D5H0QN5XI4KH2FCT3X", "current_trial": 212, "dateTime": 1512952853499, "trialdata": {"rt": 1598, "key_press": 32, "type": "INSTRUCTIONS", "trial_type": "text", "trial_index": 212, "time_elapsed": 970691, "internal_node_id": "0.0-158.0"}}, {"uniqueid": "MTK0988:39U1BHVTDMY1D5H0QN5XI4KH2FCT3X", "current_trial": 213, "dateTime": 1512952879509, "trialdata": {"rt": [2933, 4654, 7006, 9199, 11922, 13868, 15679, 17952, 19898, 21856, 23678], "responses": ["20", "9", "16", "21", "24", "17", "12", "17", "17", "14", "13"], "num1": [7, 1, 4, 4, 9, 8, 6, 4, 8, 7, 3, 5], "num2": [5, 5, 4, 4, 9, 3, 2, 4, 7, 4, 9, 3], "num3": [8, 3, 8, 9, 6, 6, 4, 9, 2, 3, 1, 3], "type": "DISTRACTOR", "conditions": [24, 800, "a", 24000], "trial": 6, "trial_type": "math-distractor", "trial_index": 213, "time_elapsed": 996701, "internal_node_id": "0.0-159.0"}}, {"uniqueid": "MTK0988:39U1BHVTDMY1D5H0QN5XI4KH2FCT3X", "current_trial": 214, "dateTime": 1512952882515, "trialdata": {"rt": -1, "stimulus": "<p id=\"stim\">10</p>", "key_press": -1, "trial_type": "single-stim", "trial_index": 214, "time_elapsed": 999708, "internal_node_id": "0.0-160.0-0.0"}}, {"uniqueid": "MTK0988:39U1BHVTDMY1D5H0QN5XI4KH2FCT3X", "current_trial": 215, "dateTime": 1512952883519, "trialdata": {"rt": -1, "stimulus": "<p id=\"stim\">9</p>", "key_press": -1, "trial_type": "single-stim", "trial_index": 215, "time_elapsed": 1000711, "internal_node_id": "0.0-160.0-1.0"}}, {"uniqueid": "MTK0988:39U1BHVTDMY1D5H0QN5XI4KH2FCT3X", "current_trial": 216, "dateTime": 1512952884523, "trialdata": {"rt": -1, "stimulus": "<p id=\"stim\">8</p>", "key_press": -1, "trial_type": "single-stim", "trial_index": 216, "time_elapsed": 1001716, "internal_node_id": "0.0-160.0-2.0"}}, {"uniqueid": "MTK0988:39U1BHVTDMY1D5H0QN5XI4KH2FCT3X", "current_trial": 217, "dateTime": 1512952885554, "trialdata": {"rt": -1, "stimulus": "<p id=\"stim\">7</p>", "key_press": -1, "trial_type": "single-stim", "trial_index": 217, "time_elapsed": 1002747, "internal_node_id": "0.0-160.0-3.0"}}, {"uniqueid": "MTK0988:39U1BHVTDMY1D5H0QN5XI4KH2FCT3X", "current_trial": 218, "dateTime": 1512952886560, "trialdata": {"rt": -1, "stimulus": "<p id=\"stim\">6</p>", "key_press": -1, "trial_type": "single-stim", "trial_index": 218, "time_elapsed": 1003753, "internal_node_id": "0.0-160.0-4.0"}}, {"uniqueid": "MTK0988:39U1BHVTDMY1D5H0QN5XI4KH2FCT3X", "current_trial": 219, "dateTime": 1512952887564, "trialdata": {"rt": -1, "stimulus": "<p id=\"stim\">5</p>", "key_press": -1, "trial_type": "single-stim", "trial_index": 219, "time_elapsed": 1004756, "internal_node_id": "0.0-160.0-5.0"}}, {"uniqueid": "MTK0988:39U1BHVTDMY1D5H0QN5XI4KH2FCT3X", "current_trial": 220, "dateTime": 1512952888568, "trialdata": {"rt": -1, "stimulus": "<p id=\"stim\">4</p>", "key_press": -1, "trial_type": "single-stim", "trial_index": 220, "time_elapsed": 1005760, "internal_node_id": "0.0-160.0-6.0"}}, {"uniqueid": "MTK0988:39U1BHVTDMY1D5H0QN5XI4KH2FCT3X", "current_trial": 221, "dateTime": 1512952889573, "trialdata": {"rt": -1, "stimulus": "<p id=\"stim\">3</p>", "key_press": -1, "trial_type": "single-stim", "trial_index": 221, "time_elapsed": 1006765, "internal_node_id": "0.0-160.0-7.0"}}, {"uniqueid": "MTK0988:39U1BHVTDMY1D5H0QN5XI4KH2FCT3X", "current_trial": 222, "dateTime": 1512952890576, "trialdata": {"rt": -1, "stimulus": "<p id=\"stim\">2</p>", "key_press": -1, "trial_type": "single-stim", "trial_index": 222, "time_elapsed": 1007769, "internal_node_id": "0.0-160.0-8.0"}}, {"uniqueid": "MTK0988:39U1BHVTDMY1D5H0QN5XI4KH2FCT3X", "current_trial": 223, "dateTime": 1512952891580, "trialdata": {"rt": -1, "stimulus": "<p id=\"stim\">1</p>", "key_press": -1, "trial_type": "single-stim", "trial_index": 223, "time_elapsed": 1008773, "internal_node_id": "0.0-160.0-9.0"}}, {"uniqueid": "MTK0988:39U1BHVTDMY1D5H0QN5XI4KH2FCT3X", "current_trial": 224, "dateTime": 1512952893084, "trialdata": {"rt": -1, "stimulus": "<p id=\"stim\">+</p>", "key_press": -1, "type": "FIXATION", "trial_type": "single-stim", "trial_index": 224, "time_elapsed": 1010276, "internal_node_id": "0.0-161.0-0.0"}}, {"uniqueid": "MTK0988:39U1BHVTDMY1D5H0QN5XI4KH2FCT3X", "current_trial": 225, "dateTime": 1512952894869, "trialdata": {"rt": -1000, "stimulus": "/static/audio/wordpool/FOX.wav", "key_press": -1, "type": "PRES_AUD", "word": "fox", "wordID": 597, "conditions": [24, 800, "a", 24000], "trial": 6, "serialpos": 0, "trial_type": "single-audio", "trial_index": 225, "time_elapsed": 1012062, "internal_node_id": "0.0-162.0"}}, {"uniqueid": "MTK0988:39U1BHVTDMY1D5H0QN5XI4KH2FCT3X", "current_trial": 226, "dateTime": 1512952896674, "trialdata": {"rt": -1000, "stimulus": "/static/audio/wordpool/HANDBAG.wav", "key_press": -1, "type": "PRES_AUD", "word": "handbag", "wordID": 683, "conditions": [24, 800, "a", 24000], "trial": 6, "serialpos": 1, "trial_type": "single-audio", "trial_index": 226, "time_elapsed": 1013867, "internal_node_id": "0.0-163.0"}}, {"uniqueid": "MTK0988:39U1BHVTDMY1D5H0QN5XI4KH2FCT3X", "current_trial": 227, "dateTime": 1512952898589, "trialdata": {"rt": -1000, "stimulus": "/static/audio/wordpool/NECKLACE.wav", "key_press": -1, "type": "PRES_AUD", "word": "necklace", "wordID": 939, "conditions": [24, 800, "a", 24000], "trial": 6, "serialpos": 2, "trial_type": "single-audio", "trial_index": 227, "time_elapsed": 1015782, "internal_node_id": "0.0-164.0"}}, {"uniqueid": "MTK0988:39U1BHVTDMY1D5H0QN5XI4KH2FCT3X", "current_trial": 228, "dateTime": 1512952900581, "trialdata": {"rt": -1000, "stimulus": "/static/audio/wordpool/WHISKERS.wav", "key_press": -1, "type": "PRES_AUD", "word": "whiskers", "wordID": 1604, "conditions": [24, 800, "a", 24000], "trial": 6, "serialpos": 3, "trial_type": "single-audio", "trial_index": 228, "time_elapsed": 1017773, "internal_node_id": "0.0-165.0"}}, {"uniqueid": "MTK0988:39U1BHVTDMY1D5H0QN5XI4KH2FCT3X", "current_trial": 229, "dateTime": 1512952902264, "trialdata": {"rt": -1000, "stimulus": "/static/audio/wordpool/LION.wav", "key_press": -1, "type": "PRES_AUD", "word": "lion", "wordID": 826, "conditions": [24, 800, "a", 24000], "trial": 6, "serialpos": 4, "trial_type": "single-audio", "trial_index": 229, "time_elapsed": 1019457, "internal_node_id": "0.0-166.0"}}, {"uniqueid": "MTK0988:39U1BHVTDMY1D5H0QN5XI4KH2FCT3X", "current_trial": 230, "dateTime": 1512952904185, "trialdata": {"rt": -1000, "stimulus": "/static/audio/wordpool/AGENT.wav", "key_press": -1, "type": "PRES_AUD", "word": "agent", "wordID": 9, "conditions": [24, 800, "a", 24000], "trial": 6, "serialpos": 5, "trial_type": "single-audio", "trial_index": 230, "time_elapsed": 1021378, "internal_node_id": "0.0-167.0"}}, {"uniqueid": "MTK0988:39U1BHVTDMY1D5H0QN5XI4KH2FCT3X", "current_trial": 231, "dateTime": 1512952905996, "trialdata": {"rt": -1000, "stimulus": "/static/audio/wordpool/FRAGRANCE.wav", "key_press": -1, "type": "PRES_AUD", "word": "fragrance", "wordID": 598, "conditions": [24, 800, "a", 24000], "trial": 6, "serialpos": 6, "trial_type": "single-audio", "trial_index": 231, "time_elapsed": 1023189, "internal_node_id": "0.0-168.0"}}, {"uniqueid": "MTK0988:39U1BHVTDMY1D5H0QN5XI4KH2FCT3X", "current_trial": 232, "dateTime": 1512952907746, "trialdata": {"rt": -1000, "stimulus": "/static/audio/wordpool/DANDRUFF.wav", "key_press": -1, "type": "PRES_AUD", "word": "dandruff", "wordID": 438, "conditions": [24, 800, "a", 24000], "trial": 6, "serialpos": 7, "trial_type": "single-audio", "trial_index": 232, "time_elapsed": 1024938, "internal_node_id": "0.0-169.0"}}, {"uniqueid": "MTK0988:39U1BHVTDMY1D5H0QN5XI4KH2FCT3X", "current_trial": 233, "dateTime": 1512952909589, "trialdata": {"rt": -1000, "stimulus": "/static/audio/wordpool/BADGE.wav", "key_press": -1, "type": "PRES_AUD", "word": "badge", "wordID": 67, "conditions": [24, 800, "a", 24000], "trial": 6, "serialpos": 8, "trial_type": "single-audio", "trial_index": 233, "time_elapsed": 1026782, "internal_node_id": "0.0-170.0"}}, {"uniqueid": "MTK0988:39U1BHVTDMY1D5H0QN5XI4KH2FCT3X", "current_trial": 234, "dateTime": 1512952911410, "trialdata": {"rt": -1000, "stimulus": "/static/audio/wordpool/AWARD.wav", "key_press": -1, "type": "PRES_AUD", "word": "award", "wordID": 62, "conditions": [24, 800, "a", 24000], "trial": 6, "serialpos": 9, "trial_type": "single-audio", "trial_index": 234, "time_elapsed": 1028603, "internal_node_id": "0.0-171.0"}}, {"uniqueid": "MTK0988:39U1BHVTDMY1D5H0QN5XI4KH2FCT3X", "current_trial": 235, "dateTime": 1512952913217, "trialdata": {"rt": -1000, "stimulus": "/static/audio/wordpool/PERFUME.wav", "key_press": -1, "type": "PRES_AUD", "word": "perfume", "wordID": 1048, "conditions": [24, 800, "a", 24000], "trial": 6, "serialpos": 10, "trial_type": "single-audio", "trial_index": 235, "time_elapsed": 1030410, "internal_node_id": "0.0-172.0"}}, {"uniqueid": "MTK0988:39U1BHVTDMY1D5H0QN5XI4KH2FCT3X", "current_trial": 236, "dateTime": 1512952914965, "trialdata": {"rt": -1000, "stimulus": "/static/audio/wordpool/TRIBE.wav", "key_press": -1, "type": "PRES_AUD", "word": "tribe", "wordID": 1504, "conditions": [24, 800, "a", 24000], "trial": 6, "serialpos": 11, "trial_type": "single-audio", "trial_index": 236, "time_elapsed": 1032157, "internal_node_id": "0.0-173.0"}}, {"uniqueid": "MTK0988:39U1BHVTDMY1D5H0QN5XI4KH2FCT3X", "current_trial": 237, "dateTime": 1512952916828, "trialdata": {"rt": -1000, "stimulus": "/static/audio/wordpool/GIRL.wav", "key_press": -1, "type": "PRES_AUD", "word": "girl", "wordID": 636, "conditions": [24, 800, "a", 24000], "trial": 6, "serialpos": 12, "trial_type": "single-audio", "trial_index": 237, "time_elapsed": 1034021, "internal_node_id": "0.0-174.0"}}, {"uniqueid": "MTK0988:39U1BHVTDMY1D5H0QN5XI4KH2FCT3X", "current_trial": 238, "dateTime": 1512952918517, "trialdata": {"rt": -1000, "stimulus": "/static/audio/wordpool/ROBBER.wav", "key_press": -1, "type": "PRES_AUD", "word": "robber", "wordID": 1196, "conditions": [24, 800, "a", 24000], "trial": 6, "serialpos": 13, "trial_type": "single-audio", "trial_index": 238, "time_elapsed": 1035710, "internal_node_id": "0.0-175.0"}}, {"uniqueid": "MTK0988:39U1BHVTDMY1D5H0QN5XI4KH2FCT3X", "current_trial": 239, "dateTime": 1512952920241, "trialdata": {"rt": -1000, "stimulus": "/static/audio/wordpool/SLUG.wav", "key_press": -1, "type": "PRES_AUD", "word": "slug", "wordID": 1328, "conditions": [24, 800, "a", 24000], "trial": 6, "serialpos": 14, "trial_type": "single-audio", "trial_index": 239, "time_elapsed": 1037434, "internal_node_id": "0.0-176.0"}}, {"uniqueid": "MTK0988:39U1BHVTDMY1D5H0QN5XI4KH2FCT3X", "current_trial": 240, "dateTime": 1512952921890, "trialdata": {"rt": -1000, "stimulus": "/static/audio/wordpool/CANAL.wav", "key_press": -1, "type": "PRES_AUD", "word": "canal", "wordID": 225, "conditions": [24, 800, "a", 24000], "trial": 6, "serialpos": 15, "trial_type": "single-audio", "trial_index": 240, "time_elapsed": 1039083, "internal_node_id": "0.0-177.0"}}, {"uniqueid": "MTK0988:39U1BHVTDMY1D5H0QN5XI4KH2FCT3X", "current_trial": 241, "dateTime": 1512952923562, "trialdata": {"rt": -1000, "stimulus": "/static/audio/wordpool/FRANCE.wav", "key_press": -1, "type": "PRES_AUD", "word": "france", "wordID": 600, "conditions": [24, 800, "a", 24000], "trial": 6, "serialpos": 16, "trial_type": "single-audio", "trial_index": 241, "time_elapsed": 1040754, "internal_node_id": "0.0-178.0"}}, {"uniqueid": "MTK0988:39U1BHVTDMY1D5H0QN5XI4KH2FCT3X", "current_trial": 242, "dateTime": 1512952925308, "trialdata": {"rt": -1000, "stimulus": "/static/audio/wordpool/LONDON.wav", "key_press": -1, "type": "PRES_AUD", "word": "london", "wordID": 842, "conditions": [24, 800, "a", 24000], "trial": 6, "serialpos": 17, "trial_type": "single-audio", "trial_index": 242, "time_elapsed": 1042501, "internal_node_id": "0.0-179.0"}}, {"uniqueid": "MTK0988:39U1BHVTDMY1D5H0QN5XI4KH2FCT3X", "current_trial": 243, "dateTime": 1512952927224, "trialdata": {"rt": -1000, "stimulus": "/static/audio/wordpool/CAMEL.wav", "key_press": -1, "type": "PRES_AUD", "word": "camel", "wordID": 222, "conditions": [24, 800, "a", 24000], "trial": 6, "serialpos": 18, "trial_type": "single-audio", "trial_index": 243, "time_elapsed": 1044417, "internal_node_id": "0.0-180.0"}}, {"uniqueid": "MTK0988:39U1BHVTDMY1D5H0QN5XI4KH2FCT3X", "current_trial": 244, "dateTime": 1512952929099, "trialdata": {"rt": -1000, "stimulus": "/static/audio/wordpool/TERMITE.wav", "key_press": -1, "type": "PRES_AUD", "word": "termite", "wordID": 1450, "conditions": [24, 800, "a", 24000], "trial": 6, "serialpos": 19, "trial_type": "single-audio", "trial_index": 244, "time_elapsed": 1046292, "internal_node_id": "0.0-181.0"}}, {"uniqueid": "MTK0988:39U1BHVTDMY1D5H0QN5XI4KH2FCT3X", "current_trial": 245, "dateTime": 1512952930935, "trialdata": {"rt": -1000, "stimulus": "/static/audio/wordpool/VELVET.wav", "key_press": -1, "type": "PRES_AUD", "word": "velvet", "wordID": 1554, "conditions": [24, 800, "a", 24000], "trial": 6, "serialpos": 20, "trial_type": "single-audio", "trial_index": 245, "time_elapsed": 1048128, "internal_node_id": "0.0-182.0"}}, {"uniqueid": "MTK0988:39U1BHVTDMY1D5H0QN5XI4KH2FCT3X", "current_trial": 246, "dateTime": 1512952932890, "trialdata": {"rt": -1000, "stimulus": "/static/audio/wordpool/DONKEY.wav", "key_press": -1, "type": "PRES_AUD", "word": "donkey", "wordID": 483, "conditions": [24, 800, "a", 24000], "trial": 6, "serialpos": 21, "trial_type": "single-audio", "trial_index": 246, "time_elapsed": 1050083, "internal_node_id": "0.0-183.0"}}, {"uniqueid": "MTK0988:39U1BHVTDMY1D5H0QN5XI4KH2FCT3X", "current_trial": 247, "dateTime": 1512952934764, "trialdata": {"rt": -1000, "stimulus": "/static/audio/wordpool/MASK.wav", "key_press": -1, "type": "PRES_AUD", "word": "mask", "wordID": 875, "conditions": [24, 800, "a", 24000], "trial": 6, "serialpos": 22, "trial_type": "single-audio", "trial_index": 247, "time_elapsed": 1051957, "internal_node_id": "0.0-184.0"}}, {"uniqueid": "MTK0988:39U1BHVTDMY1D5H0QN5XI4KH2FCT3X", "current_trial": 248, "dateTime": 1512952936715, "trialdata": {"rt": -1000, "stimulus": "/static/audio/wordpool/GHETTO.wav", "key_press": -1, "type": "PRES_AUD", "word": "ghetto", "wordID": 632, "conditions": [24, 800, "a", 24000], "trial": 6, "serialpos": 23, "trial_type": "single-audio", "trial_index": 248, "time_elapsed": 1053908, "internal_node_id": "0.0-185.0"}}, {"uniqueid": "MTK0988:39U1BHVTDMY1D5H0QN5XI4KH2FCT3X", "current_trial": 249, "dateTime": 1512952938009, "trialdata": {"rt": -1, "stimulus": "", "key_press": -1, "type": "PRE_RECALL_DELAY", "trial_type": "single-stim", "trial_index": 249, "time_elapsed": 1055202, "internal_node_id": "0.0-186.0-0.0"}}, {"uniqueid": "MTK0988:39U1BHVTDMY1D5H0QN5XI4KH2FCT3X", "current_trial": 250, "dateTime": 1512952938511, "trialdata": {"rt": -1000, "stimulus": "/static/audio/400Hz.wav", "key_press": -1, "type": "PRE_RECALL_ALERT", "trial_type": "single-audio", "trial_index": 250, "time_elapsed": 1055703, "internal_node_id": "0.0-187.0"}}, {"uniqueid": "MTK0988:39U1BHVTDMY1D5H0QN5XI4KH2FCT3X", "current_trial": 251, "dateTime": 1512952998516, "trialdata": {"rt": [1894, 4009, 5944, 9566, 12379, 14550, 19084, 21368, 22898, 32032, 35644], "recwords": ["donley", "mask", "ghetto", "perfume", "fragrance", "asia", "france", "london", "girl", "slug", "fox"], "type": "FREE_RECALL", "conditions": [24, 800, "a", 24000], "trial": 6, "trial_type": "free-recall", "trial_index": 251, "time_elapsed": 1115707, "internal_node_id": "0.0-188.0-0.0"}}, {"uniqueid": "MTK0988:39U1BHVTDMY1D5H0QN5XI4KH2FCT3X", "current_trial": 252, "dateTime": 1512953002145, "trialdata": {"rt": 1624, "key_press": 32, "type": "INSTRUCTIONS", "trial_type": "text", "trial_index": 252, "time_elapsed": 1119338, "internal_node_id": "0.0-189.0"}}, {"uniqueid": "MTK0988:39U1BHVTDMY1D5H0QN5XI4KH2FCT3X", "current_trial": 253, "dateTime": 1512953028154, "trialdata": {"rt": [2101, 3957, 5544, 7344, 9762, 11540, 14105, 15837, 18099, 19921, 21777, 23555], "responses": ["20", "17", "5", "18", "21", "17", "18", "114", "10", "14", "8", "7"], "num1": [4, 7, 1, 8, 6, 2, 2, 5, 2, 5, 2, 4, 3], "num2": [9, 2, 1, 7, 7, 7, 7, 8, 1, 6, 1, 1, 2], "num3": [7, 8, 3, 3, 9, 8, 9, 1, 7, 3, 5, 2, 8], "type": "DISTRACTOR", "conditions": [24, 800, "v", 24000], "trial": 7, "trial_type": "math-distractor", "trial_index": 253, "time_elapsed": 1145346, "internal_node_id": "0.0-190.0"}}, {"uniqueid": "MTK0988:39U1BHVTDMY1D5H0QN5XI4KH2FCT3X", "current_trial": 254, "dateTime": 1512953031160, "trialdata": {"rt": -1, "stimulus": "<p id=\"stim\">10</p>", "key_press": -1, "trial_type": "single-stim", "trial_index": 254, "time_elapsed": 1148353, "internal_node_id": "0.0-191.0-0.0"}}, {"uniqueid": "MTK0988:39U1BHVTDMY1D5H0QN5XI4KH2FCT3X", "current_trial": 255, "dateTime": 1512953032161, "trialdata": {"rt": -1, "stimulus": "<p id=\"stim\">9</p>", "key_press": -1, "trial_type": "single-stim", "trial_index": 255, "time_elapsed": 1149354, "internal_node_id": "0.0-191.0-1.0"}}, {"uniqueid": "MTK0988:39U1BHVTDMY1D5H0QN5XI4KH2FCT3X", "current_trial": 256, "dateTime": 1512953033162, "trialdata": {"rt": -1, "stimulus": "<p id=\"stim\">8</p>", "key_press": -1, "trial_type": "single-stim", "trial_index": 256, "time_elapsed": 1150355, "internal_node_id": "0.0-191.0-2.0"}}, {"uniqueid": "MTK0988:39U1BHVTDMY1D5H0QN5XI4KH2FCT3X", "current_trial": 257, "dateTime": 1512953034163, "trialdata": {"rt": -1, "stimulus": "<p id=\"stim\">7</p>", "key_press": -1, "trial_type": "single-stim", "trial_index": 257, "time_elapsed": 1151356, "internal_node_id": "0.0-191.0-3.0"}}, {"uniqueid": "MTK0988:39U1BHVTDMY1D5H0QN5XI4KH2FCT3X", "current_trial": 258, "dateTime": 1512953035164, "trialdata": {"rt": -1, "stimulus": "<p id=\"stim\">6</p>", "key_press": -1, "trial_type": "single-stim", "trial_index": 258, "time_elapsed": 1152357, "internal_node_id": "0.0-191.0-4.0"}}, {"uniqueid": "MTK0988:39U1BHVTDMY1D5H0QN5XI4KH2FCT3X", "current_trial": 259, "dateTime": 1512953036167, "trialdata": {"rt": -1, "stimulus": "<p id=\"stim\">5</p>", "key_press": -1, "trial_type": "single-stim", "trial_index": 259, "time_elapsed": 1153360, "internal_node_id": "0.0-191.0-5.0"}}, {"uniqueid": "MTK0988:39U1BHVTDMY1D5H0QN5XI4KH2FCT3X", "current_trial": 260, "dateTime": 1512953037169, "trialdata": {"rt": -1, "stimulus": "<p id=\"stim\">4</p>", "key_press": -1, "trial_type": "single-stim", "trial_index": 260, "time_elapsed": 1154362, "internal_node_id": "0.0-191.0-6.0"}}, {"uniqueid": "MTK0988:39U1BHVTDMY1D5H0QN5XI4KH2FCT3X", "current_trial": 261, "dateTime": 1512953038172, "trialdata": {"rt": -1, "stimulus": "<p id=\"stim\">3</p>", "key_press": -1, "trial_type": "single-stim", "trial_index": 261, "time_elapsed": 1155364, "internal_node_id": "0.0-191.0-7.0"}}, {"uniqueid": "MTK0988:39U1BHVTDMY1D5H0QN5XI4KH2FCT3X", "current_trial": 262, "dateTime": 1512953039175, "trialdata": {"rt": -1, "stimulus": "<p id=\"stim\">2</p>", "key_press": -1, "trial_type": "single-stim", "trial_index": 262, "time_elapsed": 1156367, "internal_node_id": "0.0-191.0-8.0"}}, {"uniqueid": "MTK0988:39U1BHVTDMY1D5H0QN5XI4KH2FCT3X", "current_trial": 263, "dateTime": 1512953040179, "trialdata": {"rt": -1, "stimulus": "<p id=\"stim\">1</p>", "key_press": -1, "trial_type": "single-stim", "trial_index": 263, "time_elapsed": 1157371, "internal_node_id": "0.0-191.0-9.0"}}, {"uniqueid": "MTK0988:39U1BHVTDMY1D5H0QN5XI4KH2FCT3X", "current_trial": 264, "dateTime": 1512953041682, "trialdata": {"rt": -1, "stimulus": "<p id=\"stim\">+</p>", "key_press": -1, "type": "FIXATION", "trial_type": "single-stim", "trial_index": 264, "time_elapsed": 1158875, "internal_node_id": "0.0-192.0-0.0"}}, {"uniqueid": "MTK0988:39U1BHVTDMY1D5H0QN5XI4KH2FCT3X", "current_trial": 265, "dateTime": 1512953042483, "trialdata": {"rt": -1, "stimulus": "<p id=\"stim\">LEADER</p>", "key_press": -1, "type": "PRES_VIS", "word": "leader", "wordID": 806, "conditions": [24, 800, "v", 24000], "trial": 7, "serialpos": 0, "trial_type": "single-stim", "trial_index": 265, "time_elapsed": 1159676, "internal_node_id": "0.0-193.0"}}, {"uniqueid": "MTK0988:39U1BHVTDMY1D5H0QN5XI4KH2FCT3X", "current_trial": 266, "dateTime": 1512953044267, "trialdata": {"rt": -1, "stimulus": "<p id=\"stim\">CHAUFFEUR</p>", "key_press": -1, "type": "PRES_VIS", "word": "chauffeur", "wordID": 282, "conditions": [24, 800, "v", 24000], "trial": 7, "serialpos": 1, "trial_type": "single-stim", "trial_index": 266, "time_elapsed": 1161460, "internal_node_id": "0.0-194.0"}}, {"uniqueid": "MTK0988:39U1BHVTDMY1D5H0QN5XI4KH2FCT3X", "current_trial": 267, "dateTime": 1512953046162, "trialdata": {"rt": -1, "stimulus": "<p id=\"stim\">REBEL</p>", "key_press": -1, "type": "PRES_VIS", "word": "rebel", "wordID": 1171, "conditions": [24, 800, "v", 24000], "trial": 7, "serialpos": 2, "trial_type": "single-stim", "trial_index": 267, "time_elapsed": 1163355, "internal_node_id": "0.0-195.0"}}, {"uniqueid": "MTK0988:39U1BHVTDMY1D5H0QN5XI4KH2FCT3X", "current_trial": 268, "dateTime": 1512953048020, "trialdata": {"rt": -1, "stimulus": "<p id=\"stim\">XEROX</p>", "key_press": -1, "type": "PRES_VIS", "word": "xerox", "wordID": 1627, "conditions": [24, 800, "v", 24000], "trial": 7, "serialpos": 3, "trial_type": "single-stim", "trial_index": 268, "time_elapsed": 1165213, "internal_node_id": "0.0-196.0"}}, {"uniqueid": "MTK0988:39U1BHVTDMY1D5H0QN5XI4KH2FCT3X", "current_trial": 269, "dateTime": 1512953049784, "trialdata": {"rt": -1, "stimulus": "<p id=\"stim\">COUSIN</p>", "key_press": -1, "type": "PRES_VIS", "word": "cousin", "wordID": 391, "conditions": [24, 800, "v", 24000], "trial": 7, "serialpos": 4, "trial_type": "single-stim", "trial_index": 269, "time_elapsed": 1166977, "internal_node_id": "0.0-197.0"}}, {"uniqueid": "MTK0988:39U1BHVTDMY1D5H0QN5XI4KH2FCT3X", 