{"condition": 0, "counterbalance": 1346, "assignmentId": "3OSWBBLG1F46CESHOMC6KGRZ5FSDXI", "workerId": "MTK0643", "hitId": "33NKDW9FFXPUK2O9YOCTBQDX5DCCXJ", "currenttrial": 626, "bonus": 0, "data": [{"uniqueid": "MTK0643:3OSWBBLG1F46CESHOMC6KGRZ5FSDXI", "current_trial": 0, "dateTime": 1512578518589, "trialdata": {"rt": 6848, "key_press": 39, "type": "INSTRUCTIONS", "trial_type": "text", "trial_index": 0, "time_elapsed": 6849, "internal_node_id": "0.0-0.0"}}, {"uniqueid": "MTK0643:3OSWBBLG1F46CESHOMC6KGRZ5FSDXI", "current_trial": 1, "dateTime": 1512578523567, "trialdata": {"rt": 4978, "key_press": 38, "type": "INSTRUCTIONS", "trial_type": "text", "trial_index": 1, "time_elapsed": 11828, "internal_node_id": "0.0-1.0"}}, {"uniqueid": "MTK0643:3OSWBBLG1F46CESHOMC6KGRZ5FSDXI", "current_trial": 2, "dateTime": 1512578527406, "trialdata": {"rt": [3834], "responses": ["ocean"], "type": "AUDIO_TEST", "trial_type": "audio-test", "trial_index": 2, "time_elapsed": 15667, "internal_node_id": "0.0-2.0"}}, {"uniqueid": "MTK0643:3OSWBBLG1F46CESHOMC6KGRZ5FSDXI", "current_trial": 3, "dateTime": 1512578531293, "trialdata": {"rt": [3884], "responses": ["crystal"], "type": "AUDIO_TEST", "trial_type": "audio-test", "trial_index": 3, "time_elapsed": 19554, "internal_node_id": "0.0-3.0"}}, {"uniqueid": "MTK0643:3OSWBBLG1F46CESHOMC6KGRZ5FSDXI", "current_trial": 4, "dateTime": 1512578540351, "trialdata": {"rt": [9056], "responses": ["spice"], "type": "AUDIO_TEST", "trial_type": "audio-test", "trial_index": 4, "time_elapsed": 28612, "internal_node_id": "0.0-4.0"}}, {"uniqueid": "MTK0643:3OSWBBLG1F46CESHOMC6KGRZ5FSDXI", "current_trial": 5, "dateTime": 1512578551884, "trialdata": {"rt": 10781, "responses": "{\"Q0\":\"11 PM\",\"Q1\":\"8 AM\",\"Q2\":\"4\"}", "type": "SLEEP_SURVEY", "trial_type": "survey-text", "trial_index": 5, "time_elapsed": 40145, "internal_node_id": "0.0-5.0"}}, {"uniqueid": "MTK0643:3OSWBBLG1F46CESHOMC6KGRZ5FSDXI", "current_trial": 6, "dateTime": 1512578560231, "trialdata": {"rt": 7347, "key_press": 13, "type": "INSTRUCTIONS", "trial_type": "text", "trial_index": 6, "time_elapsed": 48492, "internal_node_id": "0.0-6.0"}}, {"uniqueid": "MTK0643:3OSWBBLG1F46CESHOMC6KGRZ5FSDXI", "current_trial": 7, "dateTime": 1512578565801, "trialdata": {"rt": 5068, "key_press": 13, "type": "INSTRUCTIONS", "trial_type": "text", "trial_index": 7, "time_elapsed": 54062, "internal_node_id": "0.0-7.0"}}, {"uniqueid": "MTK0643:3OSWBBLG1F46CESHOMC6KGRZ5FSDXI", "current_trial": 8, "dateTime": 1512578573754, "trialdata": {"rt": 7452, "key_press": 13, "type": "INSTRUCTIONS", "trial_type": "text", "trial_index": 8, "time_elapsed": 62015, "internal_node_id": "0.0-8.0"}}, {"uniqueid": "MTK0643:3OSWBBLG1F46CESHOMC6KGRZ5FSDXI", "current_trial": 9, "dateTime": 1512578592760, "trialdata": {"rt": [3316, 5597, 8387, 15286], "responses": ["14", "14", "10", "26"], "num1": [1, 4, 2, 9, 4], "num2": [9, 4, 7, 9, 8], "num3": [4, 6, 1, 8, 5], "type": "DISTRACTOR", "conditions": [18, 1200, "v", 18000], "trial": 0, "trial_type": "math-distractor", "trial_index": 9, "time_elapsed": 81021, "internal_node_id": "0.0-9.0"}}, {"uniqueid": "MTK0643:3OSWBBLG1F46CESHOMC6KGRZ5FSDXI", "current_trial": 10, "dateTime": 1512578595762, "trialdata": {"rt": -1, "stimulus": "<p id=\"stim\">10</p>", "key_press": -1, "trial_type": "single-stim", "trial_index": 10, "time_elapsed": 84023, "internal_node_id": "0.0-10.0-0.0"}}, {"uniqueid": "MTK0643:3OSWBBLG1F46CESHOMC6KGRZ5FSDXI", "current_trial": 11, "dateTime": 1512578596763, "trialdata": {"rt": -1, "stimulus": "<p id=\"stim\">9</p>", "key_press": -1, "trial_type": "single-stim", "trial_index": 11, "time_elapsed": 85024, "internal_node_id": "0.0-10.0-1.0"}}, {"uniqueid": "MTK0643:3OSWBBLG1F46CESHOMC6KGRZ5FSDXI", "current_trial": 12, "dateTime": 1512578597765, "trialdata": {"rt": -1, "stimulus": "<p id=\"stim\">8</p>", "key_press": -1, "trial_type": "single-stim", "trial_index": 12, "time_elapsed": 86026, "internal_node_id": "0.0-10.0-2.0"}}, {"uniqueid": "MTK0643:3OSWBBLG1F46CESHOMC6KGRZ5FSDXI", "current_trial": 13, "dateTime": 1512578598766, "trialdata": {"rt": -1, "stimulus": "<p id=\"stim\">7</p>", "key_press": -1, "trial_type": "single-stim", "trial_index": 13, "time_elapsed": 87027, "internal_node_id": "0.0-10.0-3.0"}}, {"uniqueid": "MTK0643:3OSWBBLG1F46CESHOMC6KGRZ5FSDXI", "current_trial": 14, "dateTime": 1512578599767, "trialdata": {"rt": -1, "stimulus": "<p id=\"stim\">6</p>", "key_press": -1, "trial_type": "single-stim", "trial_index": 14, "time_elapsed": 88028, "internal_node_id": "0.0-10.0-4.0"}}, {"uniqueid": "MTK0643:3OSWBBLG1F46CESHOMC6KGRZ5FSDXI", "current_trial": 15, "dateTime": 1512578600768, "trialdata": {"rt": -1, "stimulus": "<p id=\"stim\">5</p>", "key_press": -1, "trial_type": "single-stim", "trial_index": 15, "time_elapsed": 89029, "internal_node_id": "0.0-10.0-5.0"}}, {"uniqueid": "MTK0643:3OSWBBLG1F46CESHOMC6KGRZ5FSDXI", "current_trial": 16, "dateTime": 1512578601770, "trialdata": {"rt": -1, "stimulus": "<p id=\"stim\">4</p>", "key_press": -1, "trial_type": "single-stim", "trial_index": 16, "time_elapsed": 90031, "internal_node_id": "0.0-10.0-6.0"}}, {"uniqueid": "MTK0643:3OSWBBLG1F46CESHOMC6KGRZ5FSDXI", "current_trial": 17, "dateTime": 1512578602771, "trialdata": {"rt": -1, "stimulus": "<p id=\"stim\">3</p>", "key_press": -1, "trial_type": "single-stim", "trial_index": 17, "time_elapsed": 91032, "internal_node_id": "0.0-10.0-7.0"}}, {"uniqueid": "MTK0643:3OSWBBLG1F46CESHOMC6KGRZ5FSDXI", "current_trial": 18, "dateTime": 1512578603773, "trialdata": {"rt": -1, "stimulus": "<p id=\"stim\">2</p>", "key_press": -1, "trial_type": "single-stim", "trial_index": 18, "time_elapsed": 92034, "internal_node_id": "0.0-10.0-8.0"}}, {"uniqueid": "MTK0643:3OSWBBLG1F46CESHOMC6KGRZ5FSDXI", "current_trial": 19, "dateTime": 1512578604774, "trialdata": {"rt": -1, "stimulus": "<p id=\"stim\">1</p>", "key_press": -1, "trial_type": "single-stim", "trial_index": 19, "time_elapsed": 93035, "internal_node_id": "0.0-10.0-9.0"}}, {"uniqueid": "MTK0643:3OSWBBLG1F46CESHOMC6KGRZ5FSDXI", "current_trial": 20, "dateTime": 1512578606276, "trialdata": {"rt": -1, "stimulus": "<p id=\"stim\">+</p>", "key_press": -1, "type": "FIXATION", "trial_type": "single-stim", "trial_index": 20, "time_elapsed": 94537, "internal_node_id": "0.0-11.0-0.0"}}, {"uniqueid": "MTK0643:3OSWBBLG1F46CESHOMC6KGRZ5FSDXI", "current_trial": 21, "dateTime": 1512578607477, "trialdata": {"rt": -1, "stimulus": "<p id=\"stim\">POSSUM</p>", "key_press": -1, "type": "PRES_VIS", "word": "possum", "wordID": 1111, "conditions": [18, 1200, "v", 18000], "trial": 0, "serialpos": 0, "trial_type": "single-stim", "trial_index": 21, "time_elapsed": 95738, "internal_node_id": "0.0-12.0"}}, {"uniqueid": "MTK0643:3OSWBBLG1F46CESHOMC6KGRZ5FSDXI", "current_trial": 22, "dateTime": 1512578609539, "trialdata": {"rt": -1, "stimulus": "<p id=\"stim\">HUMAN</p>", "key_press": -1, "type": "PRES_VIS", "word": "human", "wordID": 725, "conditions": [18, 1200, "v", 18000], "trial": 0, "serialpos": 1, "trial_type": "single-stim", "trial_index": 22, "time_elapsed": 97800, "internal_node_id": "0.0-13.0"}}, {"uniqueid": "MTK0643:3OSWBBLG1F46CESHOMC6KGRZ5FSDXI", "current_trial": 23, "dateTime": 1512578611888, "trialdata": {"rt": -1, "stimulus": "<p id=\"stim\">HEART</p>", "key_press": -1, "type": "PRES_VIS", "word": "heart", "wordID": 696, "conditions": [18, 1200, "v", 18000], "trial": 0, "serialpos": 2, "trial_type": "single-stim", "trial_index": 23, "time_elapsed": 100149, "internal_node_id": "0.0-14.0"}}, {"uniqueid": "MTK0643:3OSWBBLG1F46CESHOMC6KGRZ5FSDXI", "current_trial": 24, "dateTime": 1512578614116, "trialdata": {"rt": -1, "stimulus": "<p id=\"stim\">TOASTER</p>", "key_press": -1, "type": "PRES_VIS", "word": "toaster", "wordID": 1471, "conditions": [18, 1200, "v", 18000], "trial": 0, "serialpos": 3, "trial_type": "single-stim", "trial_index": 24, "time_elapsed": 102377, "internal_node_id": "0.0-15.0"}}, {"uniqueid": "MTK0643:3OSWBBLG1F46CESHOMC6KGRZ5FSDXI", "current_trial": 25, "dateTime": 1512578616391, "trialdata": {"rt": -1, "stimulus": "<p id=\"stim\">MARS</p>", "key_press": -1, "type": "PRES_VIS", "word": "mars", "wordID": 872, "conditions": [18, 1200, "v", 18000], "trial": 0, "serialpos": 4, "trial_type": "single-stim", "trial_index": 25, "time_elapsed": 104652, "internal_node_id": "0.0-16.0"}}, {"uniqueid": "MTK0643:3OSWBBLG1F46CESHOMC6KGRZ5FSDXI", "current_trial": 26, "dateTime": 1512578618617, "trialdata": {"rt": -1, "stimulus": "<p id=\"stim\">PIANO</p>", "key_press": -1, "type": "PRES_VIS", "word": "piano", "wordID": 1056, "conditions": [18, 1200, "v", 18000], "trial": 0, "serialpos": 5, "trial_type": "single-stim", "trial_index": 26, "time_elapsed": 106877, "internal_node_id": "0.0-17.0"}}, {"uniqueid": "MTK0643:3OSWBBLG1F46CESHOMC6KGRZ5FSDXI", "current_trial": 27, "dateTime": 1512578620886, "trialdata": {"rt": -1, "stimulus": "<p id=\"stim\">OUTFIT</p>", "key_press": -1, "type": "PRES_VIS", "word": "outfit", "wordID": 987, "conditions": [18, 1200, "v", 18000], "trial": 0, "serialpos": 6, "trial_type": "single-stim", "trial_index": 27, "time_elapsed": 109147, "internal_node_id": "0.0-18.0"}}, {"uniqueid": "MTK0643:3OSWBBLG1F46CESHOMC6KGRZ5FSDXI", "current_trial": 28, "dateTime": 1512578623048, "trialdata": {"rt": -1, "stimulus": "<p id=\"stim\">OZONE</p>", "key_press": -1, "type": "PRES_VIS", "word": "ozone", "wordID": 995, "conditions": [18, 1200, "v", 18000], "trial": 0, "serialpos": 7, "trial_type": "single-stim", "trial_index": 28, "time_elapsed": 111309, "internal_node_id": "0.0-19.0"}}, {"uniqueid": "MTK0643:3OSWBBLG1F46CESHOMC6KGRZ5FSDXI", "current_trial": 29, "dateTime": 1512578625221, "trialdata": {"rt": -1, "stimulus": "<p id=\"stim\">UNCLE</p>", "key_press": -1, "type": "PRES_VIS", "word": "uncle", "wordID": 1535, "conditions": [18, 1200, "v", 18000], "trial": 0, "serialpos": 8, "trial_type": "single-stim", "trial_index": 29, "time_elapsed": 113482, "internal_node_id": "0.0-20.0"}}, {"uniqueid": "MTK0643:3OSWBBLG1F46CESHOMC6KGRZ5FSDXI", "current_trial": 30, "dateTime": 1512578627373, "trialdata": {"rt": -1, "stimulus": "<p id=\"stim\">CHAUFFEUR</p>", "key_press": -1, "type": "PRES_VIS", "word": "chauffeur", "wordID": 282, "conditions": [18, 1200, "v", 18000], "trial": 0, "serialpos": 9, "trial_type": "single-stim", "trial_index": 30, "time_elapsed": 115634, "internal_node_id": "0.0-21.0"}}, {"uniqueid": "MTK0643:3OSWBBLG1F46CESHOMC6KGRZ5FSDXI", "current_trial": 31, "dateTime": 1512578629657, "trialdata": {"rt": -1, "stimulus": "<p id=\"stim\">XEROX</p>", "key_press": -1, "type": "PRES_VIS", "word": "xerox", "wordID": 1627, "conditions": [18, 1200, "v", 18000], "trial": 0, "serialpos": 10, "trial_type": "single-stim", "trial_index": 31, "time_elapsed": 117918, "internal_node_id": "0.0-22.0"}}, {"uniqueid": "MTK0643:3OSWBBLG1F46CESHOMC6KGRZ5FSDXI", "current_trial": 32, "dateTime": 1512578632011, "trialdata": {"rt": -1, "stimulus": "<p id=\"stim\">SHIRT</p>", "key_press": -1, "type": "PRES_VIS", "word": "shirt", "wordID": 1286, "conditions": [18, 1200, "v", 18000], "trial": 0, "serialpos": 11, "trial_type": "single-stim", "trial_index": 32, "time_elapsed": 120272, "internal_node_id": "0.0-23.0"}}, {"uniqueid": "MTK0643:3OSWBBLG1F46CESHOMC6KGRZ5FSDXI", "current_trial": 33, "dateTime": 1512578634079, "trialdata": {"rt": -1, "stimulus": "<p id=\"stim\">TUBA</p>", "key_press": -1, "type": "PRES_VIS", "word": "tuba", "wordID": 1514, "conditions": [18, 1200, "v", 18000], "trial": 0, "serialpos": 12, "trial_type": "single-stim", "trial_index": 33, "time_elapsed": 122340, "internal_node_id": "0.0-24.0"}}, {"uniqueid": "MTK0643:3OSWBBLG1F46CESHOMC6KGRZ5FSDXI", "current_trial": 34, "dateTime": 1512578636391, "trialdata": {"rt": -1, "stimulus": "<p id=\"stim\">HOOK</p>", "key_press": -1, "type": "PRES_VIS", "word": "hook", "wordID": 714, "conditions": [18, 1200, "v", 18000], "trial": 0, "serialpos": 13, "trial_type": "single-stim", "trial_index": 34, "time_elapsed": 124652, "internal_node_id": "0.0-25.0"}}, {"uniqueid": "MTK0643:3OSWBBLG1F46CESHOMC6KGRZ5FSDXI", "current_trial": 35, "dateTime": 1512578638623, "trialdata": {"rt": -1, "stimulus": "<p id=\"stim\">EUROPE</p>", "key_press": -1, "type": "PRES_VIS", "word": "europe", "wordID": 540, "conditions": [18, 1200, "v", 18000], "trial": 0, "serialpos": 14, "trial_type": "single-stim", "trial_index": 35, "time_elapsed": 126883, "internal_node_id": "0.0-26.0"}}, {"uniqueid": "MTK0643:3OSWBBLG1F46CESHOMC6KGRZ5FSDXI", "current_trial": 36, "dateTime": 1512578640639, "trialdata": {"rt": -1, "stimulus": "<p id=\"stim\">PISTON</p>", "key_press": -1, "type": "PRES_VIS", "word": "piston", "wordID": 1075, "conditions": [18, 1200, "v", 18000], "trial": 0, "serialpos": 15, "trial_type": "single-stim", "trial_index": 36, "time_elapsed": 128899, "internal_node_id": "0.0-27.0"}}, {"uniqueid": "MTK0643:3OSWBBLG1F46CESHOMC6KGRZ5FSDXI", "current_trial": 37, "dateTime": 1512578642743, "trialdata": {"rt": -1, "stimulus": "<p id=\"stim\">POLICE</p>", "key_press": -1, "type": "PRES_VIS", "word": "police", "wordID": 1097, "conditions": [18, 1200, "v", 18000], "trial": 0, "serialpos": 16, "trial_type": "single-stim", "trial_index": 37, "time_elapsed": 131004, "internal_node_id": "0.0-28.0"}}, {"uniqueid": "MTK0643:3OSWBBLG1F46CESHOMC6KGRZ5FSDXI", "current_trial": 38, "dateTime": 1512578644902, "trialdata": {"rt": -1, "stimulus": "<p id=\"stim\">CIGAR</p>", "key_press": -1, "type": "PRES_VIS", "word": "cigar", "wordID": 307, "conditions": [18, 1200, "v", 18000], "trial": 0, "serialpos": 17, "trial_type": "single-stim", "trial_index": 38, "time_elapsed": 133163, "internal_node_id": "0.0-29.0"}}, {"uniqueid": "MTK0643:3OSWBBLG1F46CESHOMC6KGRZ5FSDXI", "current_trial": 39, "dateTime": 1512578647369, "trialdata": {"rt": -1, "stimulus": "", "key_press": -1, "type": "PRE_RECALL_DELAY", "trial_type": "single-stim", "trial_index": 39, "time_elapsed": 135630, "internal_node_id": "0.0-30.0-0.0"}}, {"uniqueid": "MTK0643:3OSWBBLG1F46CESHOMC6KGRZ5FSDXI", "current_trial": 40, "dateTime": 1512578647871, "trialdata": {"rt": -1000, "stimulus": "/static/audio/400Hz.wav", "key_press": -1, "type": "PRE_RECALL_ALERT", "trial_type": "single-audio", "trial_index": 40, "time_elapsed": 136132, "internal_node_id": "0.0-31.0"}}, {"uniqueid": "MTK0643:3OSWBBLG1F46CESHOMC6KGRZ5FSDXI", "current_trial": 41, "dateTime": 1512578707877, "trialdata": {"rt": [3067, 4203, 6155, 8062, 8966, 14490, 17741], "recwords": ["possum", "tuba", "uncle", "spice", "crystal", "ocean", "music"], "type": "FREE_RECALL", "conditions": [18, 1200, "v", 18000], "trial": 0, "trial_type": "free-recall", "trial_index": 41, "time_elapsed": 196132, "internal_node_id": "0.0-32.0-0.0"}}, {"uniqueid": "MTK0643:3OSWBBLG1F46CESHOMC6KGRZ5FSDXI", "current_trial": 42, "dateTime": 1512578711152, "trialdata": {"rt": 1274, "key_press": 32, "type": "INSTRUCTIONS", "trial_type": "text", "trial_index": 42, "time_elapsed": 199413, "internal_node_id": "0.0-33.0"}}, {"uniqueid": "MTK0643:3OSWBBLG1F46CESHOMC6KGRZ5FSDXI", "current_trial": 43, "dateTime": 1512578731155, "trialdata": {"rt": [2690, 4980, 7808, 10730, 12394, 14622], "responses": ["15", "16", "23", "15", "13", "16"], "num1": [9, 9, 8, 4, 7, 6, 6], "num2": [1, 4, 6, 5, 5, 5, 6], "num3": [5, 3, 9, 6, 1, 5, 7], "type": "DISTRACTOR", "conditions": [18, 1200, "a", 18000], "trial": 1, "trial_type": "math-distractor", "trial_index": 43, "time_elapsed": 219416, "internal_node_id": "0.0-34.0"}}, {"uniqueid": "MTK0643:3OSWBBLG1F46CESHOMC6KGRZ5FSDXI", "current_trial": 44, "dateTime": 1512578734157, "trialdata": {"rt": -1, "stimulus": "<p id=\"stim\">10</p>", "key_press": -1, "trial_type": "single-stim", "trial_index": 44, "time_elapsed": 222418, "internal_node_id": "0.0-35.0-0.0"}}, {"uniqueid": "MTK0643:3OSWBBLG1F46CESHOMC6KGRZ5FSDXI", "current_trial": 45, "dateTime": 1512578735158, "trialdata": {"rt": -1, "stimulus": "<p id=\"stim\">9</p>", "key_press": -1, "trial_type": "single-stim", "trial_index": 45, "time_elapsed": 223419, "internal_node_id": "0.0-35.0-1.0"}}, {"uniqueid": "MTK0643:3OSWBBLG1F46CESHOMC6KGRZ5FSDXI", "current_trial": 46, "dateTime": 1512578736160, "trialdata": {"rt": -1, "stimulus": "<p id=\"stim\">8</p>", "key_press": -1, "trial_type": "single-stim", "trial_index": 46, "time_elapsed": 224421, "internal_node_id": "0.0-35.0-2.0"}}, {"uniqueid": "MTK0643:3OSWBBLG1F46CESHOMC6KGRZ5FSDXI", "current_trial": 47, "dateTime": 1512578737162, "trialdata": {"rt": -1, "stimulus": "<p id=\"stim\">7</p>", "key_press": -1, "trial_type": "single-stim", "trial_index": 47, "time_elapsed": 225423, "internal_node_id": "0.0-35.0-3.0"}}, {"uniqueid": "MTK0643:3OSWBBLG1F46CESHOMC6KGRZ5FSDXI", "current_trial": 48, "dateTime": 1512578738163, "trialdata": {"rt": -1, "stimulus": "<p id=\"stim\">6</p>", "key_press": -1, "trial_type": "single-stim", "trial_index": 48, "time_elapsed": 226424, "internal_node_id": "0.0-35.0-4.0"}}, {"uniqueid": "MTK0643:3OSWBBLG1F46CESHOMC6KGRZ5FSDXI", "current_trial": 49, "dateTime": 1512578739165, "trialdata": {"rt": -1, "stimulus": "<p id=\"stim\">5</p>", "key_press": -1, "trial_type": "single-stim", "trial_index": 49, "time_elapsed": 227426, "internal_node_id": "0.0-35.0-5.0"}}, {"uniqueid": "MTK0643:3OSWBBLG1F46CESHOMC6KGRZ5FSDXI", "current_trial": 50, "dateTime": 1512578740165, "trialdata": {"rt": -1, "stimulus": "<p id=\"stim\">4</p>", "key_press": -1, "trial_type": "single-stim", "trial_index": 50, "time_elapsed": 228426, "internal_node_id": "0.0-35.0-6.0"}}, {"uniqueid": "MTK0643:3OSWBBLG1F46CESHOMC6KGRZ5FSDXI", "current_trial": 51, "dateTime": 1512578741166, "trialdata": {"rt": -1, "stimulus": "<p id=\"stim\">3</p>", "key_press": -1, "trial_type": "single-stim", "trial_index": 51, "time_elapsed": 229427, "internal_node_id": "0.0-35.0-7.0"}}, {"uniqueid": "MTK0643:3OSWBBLG1F46CESHOMC6KGRZ5FSDXI", "current_trial": 52, "dateTime": 1512578742168, "trialdata": {"rt": -1, "stimulus": "<p id=\"stim\">2</p>", "key_press": -1, "trial_type": "single-stim", "trial_index": 52, "time_elapsed": 230429, "internal_node_id": "0.0-35.0-8.0"}}, {"uniqueid": "MTK0643:3OSWBBLG1F46CESHOMC6KGRZ5FSDXI", "current_trial": 53, "dateTime": 1512578743169, "trialdata": {"rt": -1, "stimulus": "<p id=\"stim\">1</p>", "key_press": -1, "trial_type": "single-stim", "trial_index": 53, "time_elapsed": 231430, "internal_node_id": "0.0-35.0-9.0"}}, {"uniqueid": "MTK0643:3OSWBBLG1F46CESHOMC6KGRZ5FSDXI", "current_trial": 54, "dateTime": 1512578744669, "trialdata": {"rt": -1, "stimulus": "<p id=\"stim\">+</p>", "key_press": -1, "type": "FIXATION", "trial_type": "single-stim", "trial_index": 54, "time_elapsed": 232930, "internal_node_id": "0.0-36.0-0.0"}}, {"uniqueid": "MTK0643:3OSWBBLG1F46CESHOMC6KGRZ5FSDXI", "current_trial": 55, "dateTime": 1512578746997, "trialdata": {"rt": -1000, "stimulus": "/static/audio/wordpool/CRUTCH.wav", "key_press": -1, "type": "PRES_AUD", "word": "crutch", "wordID": 416, "conditions": [18, 1200, "a", 18000], "trial": 1, "serialpos": 0, "trial_type": "single-audio", "trial_index": 55, "time_elapsed": 235258, "internal_node_id": "0.0-37.0"}}, {"uniqueid": "MTK0643:3OSWBBLG1F46CESHOMC6KGRZ5FSDXI", "current_trial": 56, "dateTime": 1512578749030, "trialdata": {"rt": -1000, "stimulus": "/static/audio/wordpool/PERFUME.wav", "key_press": -1, "type": "PRES_AUD", "word": "perfume", "wordID": 1048, "conditions": [18, 1200, "a", 18000], "trial": 1, "serialpos": 1, "trial_type": "single-audio", "trial_index": 56, "time_elapsed": 237291, "internal_node_id": "0.0-38.0"}}, {"uniqueid": "MTK0643:3OSWBBLG1F46CESHOMC6KGRZ5FSDXI", "current_trial": 57, "dateTime": 1512578751258, "trialdata": {"rt": -1000, "stimulus": "/static/audio/wordpool/TRACTOR.wav", "key_press": -1, "type": "PRES_AUD", "word": "tractor", "wordID": 1492, "conditions": [18, 1200, "a", 18000], "trial": 1, "serialpos": 2, "trial_type": "single-audio", "trial_index": 57, "time_elapsed": 239519, "internal_node_id": "0.0-39.0"}}, {"uniqueid": "MTK0643:3OSWBBLG1F46CESHOMC6KGRZ5FSDXI", "current_trial": 58, "dateTime": 1512578753616, "trialdata": {"rt": -1000, "stimulus": "/static/audio/wordpool/RELISH.wav", "key_press": -1, "type": "PRES_AUD", "word": "relish", "wordID": 1182, "conditions": [18, 1200, "a", 18000], "trial": 1, "serialpos": 3, "trial_type": "single-audio", "trial_index": 58, "time_elapsed": 241877, "internal_node_id": "0.0-40.0"}}, {"uniqueid": "MTK0643:3OSWBBLG1F46CESHOMC6KGRZ5FSDXI", "current_trial": 59, "dateTime": 1512578755952, "trialdata": {"rt": -1000, "stimulus": "/static/audio/wordpool/PADDLE.wav", "key_press": -1, "type": "PRES_AUD", "word": "paddle", "wordID": 999, "conditions": [18, 1200, "a", 18000], "trial": 1, "serialpos": 4, "trial_type": "single-audio", "trial_index": 59, "time_elapsed": 244213, "internal_node_id": "0.0-41.0"}}, {"uniqueid": "MTK0643:3OSWBBLG1F46CESHOMC6KGRZ5FSDXI", "current_trial": 60, "dateTime": 1512578758047, "trialdata": {"rt": -1000, "stimulus": "/static/audio/wordpool/LACE.wav", "key_press": -1, "type": "PRES_AUD", "word": "lace", "wordID": 791, "conditions": [18, 1200, "a", 18000], "trial": 1, "serialpos": 5, "trial_type": "single-audio", "trial_index": 60, "time_elapsed": 246308, "internal_node_id": "0.0-42.0"}}, {"uniqueid": "MTK0643:3OSWBBLG1F46CESHOMC6KGRZ5FSDXI", "current_trial": 61, "dateTime": 1512578760136, "trialdata": {"rt": -1000, "stimulus": "/static/audio/wordpool/VELVET.wav", "key_press": -1, "type": "PRES_AUD", "word": "velvet", "wordID": 1554, "conditions": [18, 1200, "a", 18000], "trial": 1, "serialpos": 6, "trial_type": "single-audio", "trial_index": 61, "time_elapsed": 248397, "internal_node_id": "0.0-43.0"}}, {"uniqueid": "MTK0643:3OSWBBLG1F46CESHOMC6KGRZ5FSDXI", "current_trial": 62, "dateTime": 1512578762338, "trialdata": {"rt": -1000, "stimulus": "/static/audio/wordpool/BELLY.wav", "key_press": -1, "type": "PRES_AUD", "word": "belly", "wordID": 118, "conditions": [18, 1200, "a", 18000], "trial": 1, "serialpos": 7, "trial_type": "single-audio", "trial_index": 62, "time_elapsed": 250599, "internal_node_id": "0.0-44.0"}}, {"uniqueid": "MTK0643:3OSWBBLG1F46CESHOMC6KGRZ5FSDXI", "current_trial": 63, "dateTime": 1512578764533, "trialdata": {"rt": -1000, "stimulus": "/static/audio/wordpool/PEPPER.wav", "key_press": -1, "type": "PRES_AUD", "word": "pepper", "wordID": 1046, "conditions": [18, 1200, "a", 18000], "trial": 1, "serialpos": 8, "trial_type": "single-audio", "trial_index": 63, "time_elapsed": 252794, "internal_node_id": "0.0-45.0"}}, {"uniqueid": "MTK0643:3OSWBBLG1F46CESHOMC6KGRZ5FSDXI", "current_trial": 64, "dateTime": 1512578766857, "trialdata": {"rt": -1000, "stimulus": "/static/audio/wordpool/STUDENT.wav", "key_press": -1, "type": "PRES_AUD", "word": "student", "wordID": 1394, "conditions": [18, 1200, "a", 18000], "trial": 1, "serialpos": 9, "trial_type": "single-audio", "trial_index": 64, "time_elapsed": 255118, "internal_node_id": "0.0-46.0"}}, {"uniqueid": "MTK0643:3OSWBBLG1F46CESHOMC6KGRZ5FSDXI", "current_trial": 65, "dateTime": 1512578769003, "trialdata": {"rt": -1000, "stimulus": "/static/audio/wordpool/GAVEL.wav", "key_press": -1, "type": "PRES_AUD", "word": "gavel", "wordID": 626, "conditions": [18, 1200, "a", 18000], "trial": 1, "serialpos": 10, "trial_type": "single-audio", "trial_index": 65, "time_elapsed": 257264, "internal_node_id": "0.0-47.0"}}, {"uniqueid": "MTK0643:3OSWBBLG1F46CESHOMC6KGRZ5FSDXI", "current_trial": 66, "dateTime": 1512578771392, "trialdata": {"rt": -1000, "stimulus": "/static/audio/wordpool/PIGEON.wav", "key_press": -1, "type": "PRES_AUD", "word": "pigeon", "wordID": 1064, "conditions": [18, 1200, "a", 18000], "trial": 1, "serialpos": 11, "trial_type": "single-audio", "trial_index": 66, "time_elapsed": 259653, "internal_node_id": "0.0-48.0"}}, {"uniqueid": "MTK0643:3OSWBBLG1F46CESHOMC6KGRZ5FSDXI", "current_trial": 67, "dateTime": 1512578773660, "trialdata": {"rt": -1000, "stimulus": "/static/audio/wordpool/WASP.wav", "key_press": -1, "type": "PRES_AUD", "word": "wasp", "wordID": 1592, "conditions": [18, 1200, "a", 18000], "trial": 1, "serialpos": 12, "trial_type": "single-audio", "trial_index": 67, "time_elapsed": 261921, "internal_node_id": "0.0-49.0"}}, {"uniqueid": "MTK0643:3OSWBBLG1F46CESHOMC6KGRZ5FSDXI", "current_trial": 68, "dateTime": 1512578775663, "trialdata": {"rt": -1000, "stimulus": "/static/audio/wordpool/MARINE.wav", "key_press": -1, "type": "PRES_AUD", "word": "marine", "wordID": 868, "conditions": [18, 1200, "a", 18000], "trial": 1, "serialpos": 13, "trial_type": "single-audio", "trial_index": 68, "time_elapsed": 263923, "internal_node_id": "0.0-50.0"}}, {"uniqueid": "MTK0643:3OSWBBLG1F46CESHOMC6KGRZ5FSDXI", "current_trial": 69, "dateTime": 1512578777788, "trialdata": {"rt": -1000, "stimulus": "/static/audio/wordpool/MILDEW.wav", "key_press": -1, "type": "PRES_AUD", "word": "mildew", "wordID": 892, "conditions": [18, 1200, "a", 18000], "trial": 1, "serialpos": 14, "trial_type": "single-audio", "trial_index": 69, "time_elapsed": 266049, "internal_node_id": "0.0-51.0"}}, {"uniqueid": "MTK0643:3OSWBBLG1F46CESHOMC6KGRZ5FSDXI", "current_trial": 70, "dateTime": 1512578780171, "trialdata": {"rt": -1000, "stimulus": "/static/audio/wordpool/POPCORN.wav", "key_press": -1, "type": "PRES_AUD", "word": "popcorn", "wordID": 1103, "conditions": [18, 1200, "a", 18000], "trial": 1, "serialpos": 15, "trial_type": "single-audio", "trial_index": 70, "time_elapsed": 268432, "internal_node_id": "0.0-52.0"}}, {"uniqueid": "MTK0643:3OSWBBLG1F46CESHOMC6KGRZ5FSDXI", "current_trial": 71, "dateTime": 1512578782260, "trialdata": {"rt": -1000, "stimulus": "/static/audio/wordpool/STOMACH.wav", "key_press": -1, "type": "PRES_AUD", "word": "stomach", "wordID": 1383, "conditions": [18, 1200, "a", 18000], "trial": 1, "serialpos": 16, "trial_type": "single-audio", "trial_index": 71, "time_elapsed": 270521, "internal_node_id": "0.0-53.0"}}, {"uniqueid": "MTK0643:3OSWBBLG1F46CESHOMC6KGRZ5FSDXI", "current_trial": 72, "dateTime": 1512578784637, "trialdata": {"rt": -1000, "stimulus": "/static/audio/wordpool/COWBOY.wav", "key_press": -1, "type": "PRES_AUD", "word": "cowboy", "wordID": 394, "conditions": [18, 1200, "a", 18000], "trial": 1, "serialpos": 17, "trial_type": "single-audio", "trial_index": 72, "time_elapsed": 272898, "internal_node_id": "0.0-54.0"}}, {"uniqueid": "MTK0643:3OSWBBLG1F46CESHOMC6KGRZ5FSDXI", "current_trial": 73, "dateTime": 1512578785975, "trialdata": {"rt": -1, "stimulus": "", "key_press": -1, "type": "PRE_RECALL_DELAY", "trial_type": "single-stim", "trial_index": 73, "time_elapsed": 274236, "internal_node_id": "0.0-55.0-0.0"}}, {"uniqueid": "MTK0643:3OSWBBLG1F46CESHOMC6KGRZ5FSDXI", "current_trial": 74, "dateTime": 1512578786476, "trialdata": {"rt": -1000, "stimulus": "/static/audio/400Hz.wav", "key_press": -1, "type": "PRE_RECALL_ALERT", "trial_type": "single-audio", "trial_index": 74, "time_elapsed": 274737, "internal_node_id": "0.0-56.0"}}, {"uniqueid": "MTK0643:3OSWBBLG1F46CESHOMC6KGRZ5FSDXI", "current_trial": 75, "dateTime": 1512578846478, "trialdata": {"rt": [4125, 5436, 6096, 7792, 9523, 10828, 14910, 15587, 16597, 17571, 21356, 22106, 27268, 28257], "recwords": ["stomach", "popcorn", "marine", "wasp", "cowboy", "pigeon", "belly", "pepper", "mildew", "student", "relish", "paddle", "tractor", "perfume"], "type": "FREE_RECALL", "conditions": [18, 1200, "a", 18000], "trial": 1, "trial_type": "free-recall", "trial_index": 75, "time_elapsed": 334738, "internal_node_id": "0.0-57.0-0.0"}}, {"uniqueid": "MTK0643:3OSWBBLG1F46CESHOMC6KGRZ5FSDXI", "current_trial": 76, "dateTime": 1512578852620, "trialdata": {"rt": 4139, "key_press": 38, "type": "INSTRUCTIONS", "trial_type": "text", "trial_index": 76, "time_elapsed": 340879, "internal_node_id": "0.0-58.0"}}, {"uniqueid": "MTK0643:3OSWBBLG1F46CESHOMC6KGRZ5FSDXI", "current_trial": 77, "dateTime": 1512578865623, "trialdata": {"rt": [4527, 6974, 8905, 11813], "responses": ["16", "20", "12", "19"], "num1": [4, 2, 5, 8, 6], "num2": [6, 9, 3, 3, 1], "num3": [6, 8, 4, 8, 9], "type": "DISTRACTOR", "conditions": [12, 800, "v", 12000], "trial": 2, "trial_type": "math-distractor", "trial_index": 77, "time_elapsed": 353884, "internal_node_id": "0.0-59.0"}}, {"uniqueid": "MTK0643:3OSWBBLG1F46CESHOMC6KGRZ5FSDXI", "current_trial": 78, "dateTime": 1512578868624, "trialdata": {"rt": -1, "stimulus": "<p id=\"stim\">10</p>", "key_press": -1, "trial_type": "single-stim", "trial_index": 78, "time_elapsed": 356885, "internal_node_id": "0.0-60.0-0.0"}}, {"uniqueid": "MTK0643:3OSWBBLG1F46CESHOMC6KGRZ5FSDXI", "current_trial": 79, "dateTime": 1512578869625, "trialdata": {"rt": -1, "stimulus": "<p id=\"stim\">9</p>", "key_press": -1, "trial_type": "single-stim", "trial_index": 79, "time_elapsed": 357886, "internal_node_id": "0.0-60.0-1.0"}}, {"uniqueid": "MTK0643:3OSWBBLG1F46CESHOMC6KGRZ5FSDXI", "current_trial": 80, "dateTime": 1512578870626, "trialdata": {"rt": -1, "stimulus": "<p id=\"stim\">8</p>", "key_press": -1, "trial_type": "single-stim", "trial_index": 80, "time_elapsed": 358887, "internal_node_id": "0.0-60.0-2.0"}}, {"uniqueid": "MTK0643:3OSWBBLG1F46CESHOMC6KGRZ5FSDXI", "current_trial": 81, "dateTime": 1512578871627, "trialdata": {"rt": -1, "stimulus": "<p id=\"stim\">7</p>", "key_press": -1, "trial_type": "single-stim", "trial_index": 81, "time_elapsed": 359888, "internal_node_id": "0.0-60.0-3.0"}}, {"uniqueid": "MTK0643:3OSWBBLG1F46CESHOMC6KGRZ5FSDXI", "current_trial": 82, "dateTime": 1512578872629, "trialdata": {"rt": -1, "stimulus": "<p id=\"stim\">6</p>", "key_press": -1, "trial_type": "single-stim", "trial_index": 82, "time_elapsed": 360890, "internal_node_id": "0.0-60.0-4.0"}}, {"uniqueid": "MTK0643:3OSWBBLG1F46CESHOMC6KGRZ5FSDXI", "current_trial": 83, "dateTime": 1512578873630, "trialdata": {"rt": -1, "stimulus": "<p id=\"stim\">5</p>", "key_press": -1, "trial_type": "single-stim", "trial_index": 83, "time_elapsed": 361891, "internal_node_id": "0.0-60.0-5.0"}}, {"uniqueid": "MTK0643:3OSWBBLG1F46CESHOMC6KGRZ5FSDXI", "current_trial": 84, "dateTime": 1512578874631, "trialdata": {"rt": -1, "stimulus": "<p id=\"stim\">4</p>", "key_press": -1, "trial_type": "single-stim", "trial_index": 84, "time_elapsed": 362892, "internal_node_id": "0.0-60.0-6.0"}}, {"uniqueid": "MTK0643:3OSWBBLG1F46CESHOMC6KGRZ5FSDXI", "current_trial": 85, "dateTime": 1512578875632, "trialdata": {"rt": -1, "stimulus": "<p id=\"stim\">3</p>", "key_press": -1, "trial_type": "single-stim", "trial_index": 85, "time_elapsed": 363893, "internal_node_id": "0.0-60.0-7.0"}}, {"uniqueid": "MTK0643:3OSWBBLG1F46CESHOMC6KGRZ5FSDXI", "current_trial": 86, "dateTime": 1512578876635, "trialdata": {"rt": -1, "stimulus": "<p id=\"stim\">2</p>", "key_press": -1, "trial_type": "single-stim", "trial_index": 86, "time_elapsed": 364896, "internal_node_id": "0.0-60.0-8.0"}}, {"uniqueid": "MTK0643:3OSWBBLG1F46CESHOMC6KGRZ5FSDXI", "current_trial": 87, "dateTime": 1512578877637, "trialdata": {"rt": -1, "stimulus": "<p id=\"stim\">1</p>", "key_press": -1, "trial_type": "single-stim", "trial_index": 87, "time_elapsed": 365898, "internal_node_id": "0.0-60.0-9.0"}}, {"uniqueid": "MTK0643:3OSWBBLG1F46CESHOMC6KGRZ5FSDXI", "current_trial": 88, "dateTime": 1512578879138, "trialdata": {"rt": -1, "stimulus": "<p id=\"stim\">+</p>", "key_press": -1, "type": "FIXATION", "trial_type": "single-stim", "trial_index": 88, "time_elapsed": 367399, "internal_node_id": "0.0-61.0-0.0"}}, {"uniqueid": "MTK0643:3OSWBBLG1F46CESHOMC6KGRZ5FSDXI", "current_trial": 89, "dateTime": 1512578879939, "trialdata": {"rt": -1, "stimulus": "<p id=\"stim\">COUSIN</p>", "key_press": -1, "type": "PRES_VIS", "word": "cousin", "wordID": 391, "conditions": [12, 800, "v", 12000], "trial": 2, "serialpos": 0, "trial_type": "single-stim", "trial_index": 89, "time_elapsed": 368200, "internal_node_id": "0.0-62.0"}}, {"uniqueid": "MTK0643:3OSWBBLG1F46CESHOMC6KGRZ5FSDXI", "current_trial": 90, "dateTime": 1512578881696, "trialdata": {"rt": -1, "stimulus": "<p id=\"stim\">GANGSTER</p>", "key_press": -1, "type": "PRES_VIS", "word": "gangster", "wordID": 619, "conditions": [12, 800, "v", 12000], "trial": 2, "serialpos": 1, "trial_type": "single-stim", "trial_index": 90, "time_elapsed": 369957, "internal_node_id": "0.0-63.0"}}, {"uniqueid": "MTK0643:3OSWBBLG1F46CESHOMC6KGRZ5FSDXI", "current_trial": 91, "dateTime": 1512578883491, "trialdata": {"rt": -1, "stimulus": "<p id=\"stim\">FOOT</p>", "key_press": -1, "type": "PRES_VIS", "word": "foot", "wordID": 589, "conditions": [12, 800, "v", 12000], "trial": 2, "serialpos": 2, "trial_type": "single-stim", "trial_index": 91, "time_elapsed": 371752, "internal_node_id": "0.0-64.0"}}, {"uniqueid": "MTK0643:3OSWBBLG1F46CESHOMC6KGRZ5FSDXI", "current_trial": 92, "dateTime": 1512578885242, "trialdata": {"rt": -1, "stimulus": "<p id=\"stim\">FRAME</p>", "key_press": -1, "type": "PRES_VIS", "word": "frame", "wordID": 599, "conditions": [12, 800, "v", 12000], "trial": 2, "serialpos": 3, "trial_type": "single-stim", "trial_index": 92, "time_elapsed": 373503, "internal_node_id": "0.0-65.0"}}, {"uniqueid": "MTK0643:3OSWBBLG1F46CESHOMC6KGRZ5FSDXI", "current_trial": 93, "dateTime": 1512578887153, "trialdata": {"rt": -1, "stimulus": "<p id=\"stim\">PUDDLE</p>", "key_press": -1, "type": "PRES_VIS", "word": "puddle", "wordID": 1139, "conditions": [12, 800, "v", 12000], "trial": 2, "serialpos": 4, "trial_type": "single-stim", "trial_index": 93, "time_elapsed": 375414, "internal_node_id": "0.0-66.0"}}, {"uniqueid": "MTK0643:3OSWBBLG1F46CESHOMC6KGRZ5FSDXI", "current_trial": 94, "dateTime": 1512578888883, "trialdata": {"rt": -1, "stimulus": "<p id=\"stim\">BROTHER</p>", "key_press": -1, "type": "PRES_VIS", "word": "brother", "wordID": 178, "conditions": [12, 800, "v", 12000], "trial": 2, "serialpos": 5, "trial_type": "single-stim", "trial_index": 94, "time_elapsed": 377144, "internal_node_id": "0.0-67.0"}}, {"uniqueid": "MTK0643:3OSWBBLG1F46CESHOMC6KGRZ5FSDXI", "current_trial": 95, "dateTime": 1512578890805, "trialdata": {"rt": -1, "stimulus": "<p id=\"stim\">BOYFRIEND</p>", "key_press": -1, "type": "PRES_VIS", "word": "boyfriend", "wordID": 161, "conditions": [12, 800, "v", 12000], "trial": 2, "serialpos": 6, "trial_type": "single-stim", "trial_index": 95, "time_elapsed": 379066, "internal_node_id": "0.0-68.0"}}, {"uniqueid": "MTK0643:3OSWBBLG1F46CESHOMC6KGRZ5FSDXI", "current_trial": 96, "dateTime": 1512578892579, "trialdata": {"rt": -1, "stimulus": "<p id=\"stim\">ASIA</p>", "key_press": -1, "type": "PRES_VIS", "word": "asia", "wordID": 45, "conditions": [12, 800, "v", 12000], "trial": 2, "serialpos": 7, "trial_type": "single-stim", "trial_index": 96, "time_elapsed": 380840, "internal_node_id": "0.0-69.0"}}, {"uniqueid": "MTK0643:3OSWBBLG1F46CESHOMC6KGRZ5FSDXI", "current_trial": 97, "dateTime": 1512578894439, "trialdata": {"rt": -1, "stimulus": "<p id=\"stim\">WIFE</p>", "key_press": -1, "type": "PRES_VIS", "word": "wife", "wordID": 1608, "conditions": [12, 800, "v", 12000], "trial": 2, "serialpos": 8, "trial_type": "single-stim", "trial_index": 97, "time_elapsed": 382700, "internal_node_id": "0.0-70.0"}}, {"uniqueid": "MTK0643:3OSWBBLG1F46CESHOMC6KGRZ5FSDXI", "current_trial": 98, "dateTime": 1512578896373, "trialdata": {"rt": -1, "stimulus": "<p id=\"stim\">PUDDING</p>", "key_press": -1, "type": "PRES_VIS", "word": "pudding", "wordID": 1138, "conditions": [12, 800, "v", 12000], "trial": 2, "serialpos": 9, "trial_type": "single-stim", "trial_index": 98, "time_elapsed": 384634, "internal_node_id": "0.0-71.0"}}, {"uniqueid": "MTK0643:3OSWBBLG1F46CESHOMC6KGRZ5FSDXI", "current_trial": 99, "dateTime": 1512578898170, "trialdata": {"rt": -1, "stimulus": "<p id=\"stim\">TROUT</p>", "key_press": -1, "type": "PRES_VIS", "word": "trout", "wordID": 1510, "conditions": [12, 800, "v", 12000], "trial": 2, "serialpos": 10, "trial_type": "single-stim", "trial_index": 99, "time_elapsed": 386431, "internal_node_id": "0.0-72.0"}}, {"uniqueid": "MTK0643:3OSWBBLG1F46CESHOMC6KGRZ5FSDXI", "current_trial": 100, "dateTime": 1512578899870, "trialdata": {"rt": -1, "stimulus": "<p id=\"stim\">GIFT</p>", "key_press": -1, "type": "PRES_VIS", "word": "gift", "wordID": 634, "conditions": [12, 800, "v", 12000], "trial": 2, "serialpos": 11, "trial_type": "single-stim", "trial_index": 100, "time_elapsed": 388131, "internal_node_id": "0.0-73.0"}}, {"uniqueid": "MTK0643:3OSWBBLG1F46CESHOMC6KGRZ5FSDXI", "current_trial": 101, "dateTime": 1512578902114, "trialdata": {"rt": -1, "stimulus": "", "key_press": -1, "type": "PRE_RECALL_DELAY", "trial_type": "single-stim", "trial_index": 101, "time_elapsed": 390375, "internal_node_id": "0.0-74.0-0.0"}}, {"uniqueid": "MTK0643:3OSWBBLG1F46CESHOMC6KGRZ5FSDXI", "current_trial": 102, "dateTime": 1512578902615, "trialdata": {"rt": -1000, "stimulus": "/static/audio/400Hz.wav", "key_press": -1, "type": "PRE_RECALL_ALERT", "trial_type": "single-audio", "trial_index": 102, "time_elapsed": 390876, "internal_node_id": "0.0-75.0"}}, {"uniqueid": "MTK0643:3OSWBBLG1F46CESHOMC6KGRZ5FSDXI", "current_trial": 103, "dateTime": 1512578962618, "trialdata": {"rt": [1984, 2717, 3272, 3946, 5050, 7681, 8791, 10268], "recwords": ["trout", "gift", "asia", "wife", "pudding", "foot", "frame", "cousin"], "type": "FREE_RECALL", "conditions": [12, 800, "v", 12000], "trial": 2, "trial_type": "free-recall", "trial_index": 103, "time_elapsed": 450878, "internal_node_id": "0.0-76.0-0.0"}}, {"uniqueid": "MTK0643:3OSWBBLG1F46CESHOMC6KGRZ5FSDXI", "current_trial": 104, "dateTime": 1512578967435, "trialdata": {"rt": 2816, "key_press": 40, "type": "INSTRUCTIONS", "trial_type": "text", "trial_index": 104, "time_elapsed": 455696, "internal_node_id": "0.0-77.0"}}, {"uniqueid": "MTK0643:3OSWBBLG1F46CESHOMC6KGRZ5FSDXI", "current_trial": 105, "dateTime": 1512578981438, "trialdata": {"rt": [2240, 5400, 8360, 10173, 11970], "responses": ["7", "16", "13", "8", "8"], "num1": [2, 7, 7, 4, 2, 3], "num2": [2, 5, 5, 3, 1, 2], "num3": [3, 4, 1, 1, 5, 3], "type": "DISTRACTOR", "conditions": [12, 1600, "a", 12000], "trial": 3, "trial_type": "math-distractor", "trial_index": 105, "time_elapsed": 469699, "internal_node_id": "0.0-78.0"}}, {"uniqueid": "MTK0643:3OSWBBLG1F46CESHOMC6KGRZ5FSDXI", "current_trial": 106, "dateTime": 1512578984441, "trialdata": {"rt": -1, "stimulus": "<p id=\"stim\">10</p>", "key_press": -1, "trial_type": "single-stim", "trial_index": 106, "time_elapsed": 472702, "internal_node_id": "0.0-79.0-0.0"}}, {"uniqueid": "MTK0643:3OSWBBLG1F46CESHOMC6KGRZ5FSDXI", "current_trial": 107, "dateTime": 1512578985442, "trialdata": {"rt": -1, "stimulus": "<p id=\"stim\">9</p>", "key_press": -1, "trial_type": "single-stim", "trial_index": 107, "time_elapsed": 473703, "internal_node_id": "0.0-79.0-1.0"}}, {"uniqueid": "MTK0643:3OSWBBLG1F46CESHOMC6KGRZ5FSDXI", "current_trial": 108, "dateTime": 1512578986442, "trialdata": {"rt": -1, "stimulus": "<p id=\"stim\">8</p>", "key_press": -1, "trial_type": "single-stim", "trial_index": 108, "time_elapsed": 474703, "internal_node_id": "0.0-79.0-2.0"}}, {"uniqueid": "MTK0643:3OSWBBLG1F46CESHOMC6KGRZ5FSDXI", "current_trial": 109, "dateTime": 1512578987444, "trialdata": {"rt": -1, "stimulus": "<p id=\"stim\">7</p>", "key_press": -1, "trial_type": "single-stim", "trial_index": 109, "time_elapsed": 475705, "internal_node_id": "0.0-79.0-3.0"}}, {"uniqueid": "MTK0643:3OSWBBLG1F46CESHOMC6KGRZ5FSDXI", "current_trial": 110, "dateTime": 1512578988445, "trialdata": {"rt": -1, "stimulus": "<p id=\"stim\">6</p>", "key_press": -1, "trial_type": "single-stim", "trial_index": 110, "time_elapsed": 476706, "internal_node_id": "0.0-79.0-4.0"}}, {"uniqueid": "MTK0643:3OSWBBLG1F46CESHOMC6KGRZ5FSDXI", "current_trial": 111, "dateTime": 1512578989447, "trialdata": {"rt": -1, "stimulus": "<p id=\"stim\">5</p>", "key_press": -1, "trial_type": "single-stim", "trial_index": 111, "time_elapsed": 477708, "internal_node_id": "0.0-79.0-5.0"}}, {"uniqueid": "MTK0643:3OSWBBLG1F46CESHOMC6KGRZ5FSDXI", "current_trial": 112, "dateTime": 1512578990449, "trialdata": {"rt": -1, "stimulus": "<p id=\"stim\">4</p>", "key_press": -1, "trial_type": "single-stim", "trial_index": 112, "time_elapsed": 478710, "internal_node_id": "0.0-79.0-6.0"}}, {"uniqueid": "MTK0643:3OSWBBLG1F46CESHOMC6KGRZ5FSDXI", "current_trial": 113, "dateTime": 1512578991450, "trialdata": {"rt": -1, "stimulus": "<p id=\"stim\">3</p>", "key_press": -1, "trial_type": "single-stim", "trial_index": 113, "time_elapsed": 479711, "internal_node_id": "0.0-79.0-7.0"}}, {"uniqueid": "MTK0643:3OSWBBLG1F46CESHOMC6KGRZ5FSDXI", "current_trial": 114, "dateTime": 1512578992453, "trialdata": {"rt": -1, "stimulus": "<p id=\"stim\">2</p>", "key_press": -1, "trial_type": "single-stim", "trial_index": 114, "time_elapsed": 480714, "internal_node_id": "0.0-79.0-8.0"}}, {"uniqueid": "MTK0643:3OSWBBLG1F46CESHOMC6KGRZ5FSDXI", "current_trial": 115, "dateTime": 1512578993454, "trialdata": {"rt": -1, "stimulus": "<p id=\"stim\">1</p>", "key_press": -1, "trial_type": "single-stim", "trial_index": 115, "time_elapsed": 481715, "internal_node_id": "0.0-79.0-9.0"}}, {"uniqueid": "MTK0643:3OSWBBLG1F46CESHOMC6KGRZ5FSDXI", "current_trial": 116, "dateTime": 1512578994955, "trialdata": {"rt": -1, "stimulus": "<p id=\"stim\">+</p>", "key_press": -1, "type": "FIXATION", "trial_type": "single-stim", "trial_index": 116, "time_elapsed": 483216, "internal_node_id": "0.0-80.0-0.0"}}, {"uniqueid": "MTK0643:3OSWBBLG1F46CESHOMC6KGRZ5FSDXI", "current_trial": 117, "dateTime": 1512578997653, "trialdata": {"rt": -1000, "stimulus": "/static/audio/wordpool/STAMP.wav", "key_press": -1, "type": "PRES_AUD", "word": "stamp", "wordID": 1369, "conditions": [12, 1600, "a", 12000], "trial": 3, "serialpos": 0, "trial_type": "single-audio", "trial_index": 117, "time_elapsed": 485914, "internal_node_id": "0.0-81.0"}}, {"uniqueid": "MTK0643:3OSWBBLG1F46CESHOMC6KGRZ5FSDXI", "current_trial": 118, "dateTime": 1512579000058, "trialdata": {"rt": -1000, "stimulus": "/static/audio/wordpool/MOTEL.wav", "key_press": -1, "type": "PRES_AUD", "word": "motel", "wordID": 918, "conditions": [12, 1600, "a", 12000], "trial": 3, "serialpos": 1, "trial_type": "single-audio", "trial_index": 118, "time_elapsed": 488319, "internal_node_id": "0.0-82.0"}}, {"uniqueid": "MTK0643:3OSWBBLG1F46CESHOMC6KGRZ5FSDXI", "current_trial": 119, "dateTime": 1512579002794, "trialdata": {"rt": -1000, "stimulus": "/static/audio/wordpool/SNACK.wav", "key_press": -1, "type": "PRES_AUD", "word": "snack", "wordID": 1330, "conditions": [12, 1600, "a", 12000], "trial": 3, "serialpos": 2, "trial_type": "single-audio", "trial_index": 119, "time_elapsed": 491055, "internal_node_id": "0.0-83.0"}}, {"uniqueid": "MTK0643:3OSWBBLG1F46CESHOMC6KGRZ5FSDXI", "current_trial": 120, "dateTime": 1512579005548, "trialdata": {"rt": -1000, "stimulus": "/static/audio/wordpool/COFFEE.wav", "key_press": -1, "type": "PRES_AUD", "word": "coffee", "wordID": 340, "conditions": [12, 1600, "a", 12000], "trial": 3, "serialpos": 3, "trial_type": "single-audio", "trial_index": 120, "time_elapsed": 493809, "internal_node_id": "0.0-84.0"}}, {"uniqueid": "MTK0643:3OSWBBLG1F46CESHOMC6KGRZ5FSDXI", "current_trial": 121, "dateTime": 1512579008113, "trialdata": {"rt": -1000, "stimulus": "/static/audio/wordpool/FINGER.wav", "key_press": -1, "type": "PRES_AUD", "word": "finger", "wordID": 566, "conditions": [12, 1600, "a", 12000], "trial": 3, "serialpos": 4, "trial_type": "single-audio", "trial_index": 121, "time_elapsed": 496374, "internal_node_id": "0.0-85.0"}}, {"uniqueid": "MTK0643:3OSWBBLG1F46CESHOMC6KGRZ5FSDXI", "current_trial": 122, "dateTime": 1512579010846, "trialdata": {"rt": -1000, "stimulus": "/static/audio/wordpool/EYELASH.wav", "key_press": -1, "type": "PRES_AUD", "word": "eyelash", "wordID": 545, "conditions": [12, 1600, "a", 12000], "trial": 3, "serialpos": 5, "trial_type": "single-audio", "trial_index": 122, "time_elapsed": 499107, "internal_node_id": "0.0-86.0"}}, {"uniqueid": "MTK0643:3OSWBBLG1F46CESHOMC6KGRZ5FSDXI", "current_trial": 123, "dateTime": 1512579013556, "trialdata": {"rt": -1000, "stimulus": "/static/audio/wordpool/COIN.wav", "key_press": -1, "type": "PRES_AUD", "word": "coin", "wordID": 342, "conditions": [12, 1600, "a", 12000], "trial": 3, "serialpos": 6, "trial_type": "single-audio", "trial_index": 123, "time_elapsed": 501817, "internal_node_id": "0.0-87.0"}}, {"uniqueid": "MTK0643:3OSWBBLG1F46CESHOMC6KGRZ5FSDXI", "current_trial": 124, "dateTime": 1512579016163, "trialdata": {"rt": -1000, "stimulus": "/static/audio/wordpool/DOUGHNUT.wav", "key_press": -1, "type": "PRES_AUD", "word": "doughnut", "wordID": 489, "conditions": [12, 1600, "a", 12000], "trial": 3, "serialpos": 7, "trial_type": "single-audio", "trial_index": 124, "time_elapsed": 504424, "internal_node_id": "0.0-88.0"}}, {"uniqueid": "MTK0643:3OSWBBLG1F46CESHOMC6KGRZ5FSDXI", "current_trial": 125, "dateTime": 1512579018649, "trialdata": {"rt": -1000, "stimulus": "/static/audio/wordpool/PASTRY.wav", "key_press": -1, "type": "PRES_AUD", "word": "pastry", "wordID": 1021, "conditions": [12, 1600, "a", 12000], "trial": 3, "serialpos": 8, "trial_type": "single-audio", "trial_index": 125, "time_elapsed": 506910, "internal_node_id": "0.0-89.0"}}, {"uniqueid": "MTK0643:3OSWBBLG1F46CESHOMC6KGRZ5FSDXI", "current_trial": 126, "dateTime": 1512579021227, "trialdata": {"rt": -1000, "stimulus": "/static/audio/wordpool/QUAIL.wav", "key_press": -1, "type": "PRES_AUD", "word": "quail", "wordID": 1146, "conditions": [12, 1600, "a", 12000], "trial": 3, "serialpos": 9, "trial_type": "single-audio", "trial_index": 126, "time_elapsed": 509488, "internal_node_id": "0.0-90.0"}}, {"uniqueid": "MTK0643:3OSWBBLG1F46CESHOMC6KGRZ5FSDXI", "current_trial": 127, "dateTime": 1512579023954, "trialdata": {"rt": -1000, "stimulus": "/static/audio/wordpool/BUCKET.wav", "key_press": -1, "type": "PRES_AUD", "word": "bucket", "wordID": 183, "conditions": [12, 1600, "a", 12000], "trial": 3, "serialpos": 10, "trial_type": "single-audio", "trial_index": 127, "time_elapsed": 512215, "internal_node_id": "0.0-91.0"}}, {"uniqueid": "MTK0643:3OSWBBLG1F46CESHOMC6KGRZ5FSDXI", "current_trial": 128, "dateTime": 1512579026630, "trialdata": {"rt": -1000, "stimulus": "/static/audio/wordpool/WRIST.wav", "key_press": -1, "type": "PRES_AUD", "word": "wrist", "wordID": 1625, "conditions": [12, 1600, "a", 12000], "trial": 3, "serialpos": 11, "trial_type": "single-audio", "trial_index": 128, "time_elapsed": 514891, "internal_node_id": "0.0-92.0"}}, {"uniqueid": "MTK0643:3OSWBBLG1F46CESHOMC6KGRZ5FSDXI", "current_trial": 129, "dateTime": 1512579028020, "trialdata": {"rt": -1, "stimulus": "", "key_press": -1, "type": "PRE_RECALL_DELAY", "trial_type": "single-stim", "trial_index": 129, "time_elapsed": 516281, "internal_node_id": "0.0-93.0-0.0"}}, {"uniqueid": "MTK0643:3OSWBBLG1F46CESHOMC6KGRZ5FSDXI", "current_trial": 130, "dateTime": 1512579028522, "trialdata": {"rt": -1000, "stimulus": "/static/audio/400Hz.wav", "key_press": -1, "type": "PRE_RECALL_ALERT", "trial_type": "single-audio", "trial_index": 130, "time_elapsed": 516783, "internal_node_id": "0.0-94.0"}}, {"uniqueid": "MTK0643:3OSWBBLG1F46CESHOMC6KGRZ5FSDXI", "current_trial": 131, "dateTime": 1512579088524, "trialdata": {"rt": [1933, 3086, 4194, 7172, 8061, 8836], "recwords": ["wrist", "bucket", "eyelash", "motel", "stamp", "snack"], "type": "FREE_RECALL", "conditions": [12, 1600, "a", 12000], "trial": 3, "trial_type": "free-recall", "trial_index": 131, "time_elapsed": 576784, "internal_node_id": "0.0-95.0-0.0"}}, {"uniqueid": "MTK0643:3OSWBBLG1F46CESHOMC6KGRZ5FSDXI", "current_trial": 132, "dateTime": 1512579112710, "trialdata": {"rt": 22183, "key_press": 40, "type": "INSTRUCTIONS", "trial_type": "text", "trial_index": 132, "time_elapsed": 600971, "internal_node_id": "0.0-96.0"}}, {"uniqueid": "MTK0643:3OSWBBLG1F46CESHOMC6KGRZ5FSDXI", "current_trial": 133, "dateTime": 1512579138713, "trialdata": {"rt": [2928, 6622, 8468, 9955, 12231, 14234, 16278, 17729, 20545, 22792], "responses": ["16", "18", " 8", "10", "24", "17", "18", "14", "22", "22"], "num1": [5, 7, 1, 1, 8, 9, 6, 4, 5, 5, 2], "num2": [3, 9, 5, 2, 7, 4, 3, 8, 8, 9, 2], "num3": [8, 2, 2, 7, 8, 4, 9, 2, 8, 6, 6], "type": "DISTRACTOR", "conditions": [12, 800, "v", 24000], "trial": 4, "trial_type": "math-distractor", "trial_index": 133, "time_elapsed": 626974, "internal_node_id": "0.0-97.0"}}, {"uniqueid": "MTK0643:3OSWBBLG1F46CESHOMC6KGRZ5FSDXI", "current_trial": 134, "dateTime": 1512579141715, "trialdata": {"rt": -1, "stimulus": "<p id=\"stim\">10</p>", "key_press": -1, "trial_type": "single-stim", "trial_index": 134, "time_elapsed": 629976, "internal_node_id": "0.0-98.0-0.0"}}, {"uniqueid": "MTK0643:3OSWBBLG1F46CESHOMC6KGRZ5FSDXI", "current_trial": 135, "dateTime": 1512579142717, "trialdata": {"rt": -1, "stimulus": "<p id=\"stim\">9</p>", "key_press": -1, "trial_type": "single-stim", "trial_index": 135, "time_elapsed": 630977, "internal_node_id": "0.0-98.0-1.0"}}, {"uniqueid": "MTK0643:3OSWBBLG1F46CESHOMC6KGRZ5FSDXI", "current_trial": 136, "dateTime": 1512579143718, "trialdata": {"rt": -1, "stimulus": "<p id=\"stim\">8</p>", "key_press": -1, "trial_type": "single-stim", "trial_index": 136, "time_elapsed": 631979, "internal_node_id": "0.0-98.0-2.0"}}, {"uniqueid": "MTK0643:3OSWBBLG1F46CESHOMC6KGRZ5FSDXI", "current_trial": 137, "dateTime": 1512579144720, "trialdata": {"rt": -1, "stimulus": "<p id=\"stim\">7</p>", "key_press": -1, "trial_type": "single-stim", "trial_index": 137, "time_elapsed": 632981, "internal_node_id": "0.0-98.0-3.0"}}, {"uniqueid": "MTK0643:3OSWBBLG1F46CESHOMC6KGRZ5FSDXI", "current_trial": 138, "dateTime": 1512579145722, "trialdata": {"rt": -1, "stimulus": "<p id=\"stim\">6</p>", "key_press": -1, "trial_type": "single-stim", "trial_index": 138, "time_elapsed": 633983, "internal_node_id": "0.0-98.0-4.0"}}, {"uniqueid": "MTK0643:3OSWBBLG1F46CESHOMC6KGRZ5FSDXI", "current_trial": 139, "dateTime": 1512579146723, "trialdata": {"rt": -1, "stimulus": "<p id=\"stim\">5</p>", "key_press": -1, "trial_type": "single-stim", "trial_index": 139, "time_elapsed": 634984, "internal_node_id": "0.0-98.0-5.0"}}, {"uniqueid": "MTK0643:3OSWBBLG1F46CESHOMC6KGRZ5FSDXI", "current_trial": 140, "dateTime": 1512579147724, "trialdata": {"rt": -1, "stimulus": "<p id=\"stim\">4</p>", "key_press": -1, "trial_type": "single-stim", "trial_index": 140, "time_elapsed": 635985, "internal_node_id": "0.0-98.0-6.0"}}, {"uniqueid": "MTK0643:3OSWBBLG1F46CESHOMC6KGRZ5FSDXI", "current_trial": 141, "dateTime": 1512579148726, "trialdata": {"rt": -1, "stimulus": "<p id=\"stim\">3</p>", "key_press": -1, "trial_type": "single-stim", "trial_index": 141, "time_elapsed": 636987, "internal_node_id": "0.0-98.0-7.0"}}, {"uniqueid": "MTK0643:3OSWBBLG1F46CESHOMC6KGRZ5FSDXI", "current_trial": 142, "dateTime": 1512579149727, "trialdata": {"rt": -1, "stimulus": "<p id=\"stim\">2</p>", "key_press": -1, "trial_type": "single-stim", "trial_index": 142, "time_elapsed": 637988, "internal_node_id": "0.0-98.0-8.0"}}, {"uniqueid": "MTK0643:3OSWBBLG1F46CESHOMC6KGRZ5FSDXI", "current_trial": 143, "dateTime": 1512579150728, "trialdata": {"rt": -1, "stimulus": "<p id=\"stim\">1</p>", "key_press": -1, "trial_type": "single-stim", "trial_index": 143, "time_elapsed": 638989, "internal_node_id": "0.0-98.0-9.0"}}, {"uniqueid": "MTK0643:3OSWBBLG1F46CESHOMC6KGRZ5FSDXI", "current_trial": 144, "dateTime": 1512579152229, "trialdata": {"rt": -1, "stimulus": "<p id=\"stim\">+</p>", "key_press": -1, "type": "FIXATION", "trial_type": "single-stim", "trial_index": 144, "time_elapsed": 640490, "internal_node_id": "0.0-99.0-0.0"}}, {"uniqueid": "MTK0643:3OSWBBLG1F46CESHOMC6KGRZ5FSDXI", "current_trial": 145, "dateTime": 1512579153031, "trialdata": {"rt": -1, "stimulus": "<p id=\"stim\">GYMNAST</p>", "key_press": -1, "type": "PRES_VIS", "word": "gymnast", "wordID": 674, "conditions": [12, 800, "v", 24000], "trial": 4, "serialpos": 0, "trial_type": "single-stim", "trial_index": 145, "time_elapsed": 641292, "internal_node_id": "0.0-100.0"}}, {"uniqueid": "MTK0643:3OSWBBLG1F46CESHOMC6KGRZ5FSDXI", "current_trial": 146, "dateTime": 1512579154773, "trialdata": {"rt": -1, "stimulus": "<p id=\"stim\">HONEY</p>", "key_press": -1, "type": "PRES_VIS", "word": "honey", "wordID": 712, "conditions": [12, 800, "v", 24000], "trial": 4, "serialpos": 1, "trial_type": "single-stim", "trial_index": 146, "time_elapsed": 643034, "internal_node_id": "0.0-101.0"}}, {"uniqueid": "MTK0643:3OSWBBLG1F46CESHOMC6KGRZ5FSDXI", "current_trial": 147, "dateTime": 1512579156666, "trialdata": {"rt": -1, "stimulus": "<p id=\"stim\">SUNRISE</p>", "key_press": -1, "type": "PRES_VIS", "word": "sunrise", "wordID": 1406, "conditions": [12, 800, "v", 24000], "trial": 4, "serialpos": 2, "trial_type": "single-stim", "trial_index": 147, "time_elapsed": 644927, "internal_node_id": "0.0-102.0"}}, {"uniqueid": "MTK0643:3OSWBBLG1F46CESHOMC6KGRZ5FSDXI", "current_trial": 148, "dateTime": 1512579158629, "trialdata": {"rt": -1, "stimulus": "<p id=\"stim\">SUNSET</p>", "key_press": -1, "type": "PRES_VIS", "word": "sunset", "wordID": 1407, "conditions": [12, 800, "v", 24000], "trial": 4, "serialpos": 3, "trial_type": "single-stim", "trial_index": 148, "time_elapsed": 646890, "internal_node_id": "0.0-103.0"}}, {"uniqueid": "MTK0643:3OSWBBLG1F46CESHOMC6KGRZ5FSDXI", "current_trial": 149, "dateTime": 1512579160462, "trialdata": {"rt": -1, "stimulus": "<p id=\"stim\">LASER</p>", "key_press": -1, "type": "PRES_VIS", "word": "laser", "wordID": 800, "conditions": [12, 800, "v", 24000], "trial": 4, "serialpos": 4, "trial_type": "single-stim", "trial_index": 149, "time_elapsed": 648723, "internal_node_id": "0.0-104.0"}}, {"uniqueid": "MTK0643:3OSWBBLG1F46CESHOMC6KGRZ5FSDXI", "current_trial": 150, "dateTime": 1512579162248, "trialdata": {"rt": -1, "stimulus": "<p id=\"stim\">DRAGON</p>", "key_press": -1, "type": "PRES_VIS", "word": "dragon", "wordID": 491, "conditions": [12, 800, "v", 24000], "trial": 4, "serialpos": 5, "trial_type": "single-stim", "trial_index": 150, "time_elapsed": 650509, "internal_node_id": "0.0-105.0"}}, {"uniqueid": "MTK0643:3OSWBBLG1F46CESHOMC6KGRZ5FSDXI", "current_trial": 151, "dateTime": 1512579164011, "trialdata": {"rt": -1, "stimulus": "<p id=\"stim\">FIDDLE</p>", "key_press": -1, "type": "PRES_VIS", "word": "fiddle", "wordID": 560, "conditions": [12, 800, "v", 24000], "trial": 4, "serialpos": 6, "trial_type": "single-stim", "trial_index": 151, "time_elapsed": 652272, "internal_node_id": "0.0-106.0"}}, {"uniqueid": "MTK0643:3OSWBBLG1F46CESHOMC6KGRZ5FSDXI", "current_trial": 152, "dateTime": 1512579165816, "trialdata": {"rt": -1, "stimulus": "<p id=\"stim\">CHEMIST</p>", "key_press": -1, "type": "PRES_VIS", "word": "chemist", "wordID": 291, "conditions": [12, 800, "v", 24000], "trial": 4, "serialpos": 7, "trial_type": "single-stim", "trial_index": 152, "time_elapsed": 654077, "internal_node_id": "0.0-107.0"}}, {"uniqueid": "MTK0643:3OSWBBLG1F46CESHOMC6KGRZ5FSDXI", "current_trial": 153, "dateTime": 1512579167481, "trialdata": {"rt": -1, "stimulus": "<p id=\"stim\">GOBLIN</p>", "key_press": -1, "type": "PRES_VIS", "word": "goblin", "wordID": 644, "conditions": [12, 800, "v", 24000], "trial": 4, "serialpos": 8, "trial_type": "single-stim", "trial_index": 153, "time_elapsed": 655742, "internal_node_id": "0.0-108.0"}}, {"uniqueid": "MTK0643:3OSWBBLG1F46CESHOMC6KGRZ5FSDXI", "current_trial": 154, "dateTime": 1512579169332, "trialdata": {"rt": -1, "stimulus": "<p id=\"stim\">BANKER</p>", "key_press": -1, "type": "PRES_VIS", "word": "banker", "wordID": 83, "conditions": [12, 800, "v", 24000], "trial": 4, "serialpos": 9, "trial_type": "single-stim", "trial_index": 154, "time_elapsed": 657593, "internal_node_id": "0.0-109.0"}}, {"uniqueid": "MTK0643:3OSWBBLG1F46CESHOMC6KGRZ5FSDXI", "current_trial": 155, "dateTime": 1512579171300, "trialdata": {"rt": -1, "stimulus": "<p id=\"stim\">SNAKE</p>", "key_press": -1, "type": "PRES_VIS", "word": "snake", "wordID": 1332, "conditions": [12, 800, "v", 24000], "trial": 4, "serialpos": 10, "trial_type": "single-stim", "trial_index": 155, "time_elapsed": 659561, "internal_node_id": "0.0-110.0"}}, {"uniqueid": "MTK0643:3OSWBBLG1F46CESHOMC6KGRZ5FSDXI", "current_trial": 156, "dateTime": 1512579173094, "trialdata": {"rt": -1, "stimulus": "<p id=\"stim\">LIGHTNING</p>", "key_press": -1, "type": "PRES_VIS", "word": "lightning", "wordID": 819, "conditions": [12, 800, "v", 24000], "trial": 4, "serialpos": 11, "trial_type": "single-stim", "trial_index": 156, "time_elapsed": 661355, "internal_node_id": "0.0-111.0"}}, {"uniqueid": "MTK0643:3OSWBBLG1F46CESHOMC6KGRZ5FSDXI", "current_trial": 157, "dateTime": 1512579175433, "trialdata": {"rt": -1, "stimulus": "", "key_press": -1, "type": "PRE_RECALL_DELAY", "trial_type": "single-stim", "trial_index": 157, "time_elapsed": 663694, "internal_node_id": "0.0-112.0-0.0"}}, {"uniqueid": "MTK0643:3OSWBBLG1F46CESHOMC6KGRZ5FSDXI", "current_trial": 158, "dateTime": 1512579175940, "trialdata": {"rt": -1000, "stimulus": "/static/audio/400Hz.wav", "key_press": -1, "type": "PRE_RECALL_ALERT", "trial_type": "single-audio", "trial_index": 158, "time_elapsed": 664201, "internal_node_id": "0.0-113.0"}}, {"uniqueid": "MTK0643:3OSWBBLG1F46CESHOMC6KGRZ5FSDXI", "current_trial": 159, "dateTime": 1512579235942, "trialdata": {"rt": [2397, 3603, 5162, 6063, 6967, 11983, 13269, 13946], "recwords": ["snake", "banker", "lightning", "sunrise", "sunset", "dragon", "laser", "fiddle"], "type": "FREE_RECALL", "conditions": [12, 800, "v", 24000], "trial": 4, "trial_type": "free-recall", "trial_index": 159, "time_elapsed": 724202, "internal_node_id": "0.0-114.0-0.0"}}, {"uniqueid": "MTK0643:3OSWBBLG1F46CESHOMC6KGRZ5FSDXI", "current_trial": 160, "dateTime": 1512579239164, "trialdata": {"rt": 1221, "key_press": 40, "type": "INSTRUCTIONS", "trial_type": "text", "trial_index": 160, "time_elapsed": 727425, "internal_node_id": "0.0-115.0"}}, {"uniqueid": "MTK0643:3OSWBBLG1F46CESHOMC6KGRZ5FSDXI", "current_trial": 161, "dateTime": 1512579265166, "trialdata": {"rt": [2400, 4441, 5820, 7139, 8385, 11233, 12659, 15268, 16870, 18725, 20832, 22466], "responses": ["12", "10", "12", "13", "11", "16", "13", "19", "13", "12", "17", "14"], "num1": [4, 3, 4, 4, 1, 4, 1, 3, 5, 7, 6, 2, 1], "num2": [3, 1, 5, 7, 8, 5, 6, 7, 7, 3, 2, 5, 8], "num3": [5, 6, 3, 2, 2, 7, 6, 9, 1, 2, 9, 7, 6], "type": "DISTRACTOR", "conditions": [24, 800, "v", 24000], "trial": 5, "trial_type": "math-distractor", "trial_index": 161, "time_elapsed": 753427, "internal_node_id": "0.0-116.0"}}, {"uniqueid": "MTK0643:3OSWBBLG1F46CESHOMC6KGRZ5FSDXI", "current_trial": 162, "dateTime": 1512579268168, "trialdata": {"rt": -1, "stimulus": "<p id=\"stim\">10</p>", "key_press": -1, "trial_type": "single-stim", "trial_index": 162, "time_elapsed": 756429, "internal_node_id": "0.0-117.0-0.0"}}, {"uniqueid": "MTK0643:3OSWBBLG1F46CESHOMC6KGRZ5FSDXI", "current_trial": 163, "dateTime": 1512579269168, "trialdata": {"rt": -1, "stimulus": "<p id=\"stim\">9</p>", "key_press": -1, "trial_type": "single-stim", "trial_index": 163, "time_elapsed": 757429, "internal_node_id": "0.0-117.0-1.0"}}, {"uniqueid": "MTK0643:3OSWBBLG1F46CESHOMC6KGRZ5FSDXI", "current_trial": 164, "dateTime": 1512579270170, "trialdata": {"rt": -1, "stimulus": "<p id=\"stim\">8</p>", "key_press": -1, "trial_type": "single-stim", "trial_index": 164, "time_elapsed": 758431, "internal_node_id": "0.0-117.0-2.0"}}, {"uniqueid": "MTK0643:3OSWBBLG1F46CESHOMC6KGRZ5FSDXI", "current_trial": 165, "dateTime": 1512579271173, "trialdata": {"rt": -1, "stimulus": "<p id=\"stim\">7</p>", "key_press": -1, "trial_type": "single-stim", "trial_index": 165, "time_elapsed": 759434, "internal_node_id": "0.0-117.0-3.0"}}, {"uniqueid": "MTK0643:3OSWBBLG1F46CESHOMC6KGRZ5FSDXI", "current_trial": 166, "dateTime": 1512579272174, "trialdata": {"rt": -1, "stimulus": "<p id=\"stim\">6</p>", "key_press": -1, "trial_type": "single-stim", "trial_index": 166, "time_elapsed": 760435, "internal_node_id": "0.0-117.0-4.0"}}, {"uniqueid": "MTK0643:3OSWBBLG1F46CESHOMC6KGRZ5FSDXI", "current_trial": 167, "dateTime": 1512579273174, "trialdata": {"rt": -1, "stimulus": "<p id=\"stim\">5</p>", "key_press": -1, "trial_type": "single-stim", "trial_index": 167, "time_elapsed": 761435, "internal_node_id": "0.0-117.0-5.0"}}, {"uniqueid": "MTK0643:3OSWBBLG1F46CESHOMC6KGRZ5FSDXI", "current_trial": 168, "dateTime": 1512579274175, "trialdata": {"rt": -1, "stimulus": "<p id=\"stim\">4</p>", "key_press": -1, "trial_type": "single-stim", "trial_index": 168, "time_elapsed": 762436, "internal_node_id": "0.0-117.0-6.0"}}, {"uniqueid": "MTK0643:3OSWBBLG1F46CESHOMC6KGRZ5FSDXI", "current_trial": 169, "dateTime": 1512579275177, "trialdata": {"rt": -1, "stimulus": "<p id=\"stim\">3</p>", "key_press": -1, "trial_type": "single-stim", "trial_index": 169, "time_elapsed": 763438, "internal_node_id": "0.0-117.0-7.0"}}, {"uniqueid": "MTK0643:3OSWBBLG1F46CESHOMC6KGRZ5FSDXI", "current_trial": 170, "dateTime": 1512579276178, "trialdata": {"rt": -1, "stimulus": "<p id=\"stim\">2</p>", "key_press": -1, "trial_type": "single-stim", "trial_index": 170, "time_elapsed": 764439, "internal_node_id": "0.0-117.0-8.0"}}, {"uniqueid": "MTK0643:3OSWBBLG1F46CESHOMC6KGRZ5FSDXI", "current_trial": 171, "dateTime": 1512579277181, "trialdata": {"rt": -1, "stimulus": "<p id=\"stim\">1</p>", "key_press": -1, "trial_type": "single-stim", "trial_index": 171, "time_elapsed": 765442, "internal_node_id": "0.0-117.0-9.0"}}, {"uniqueid": "MTK0643:3OSWBBLG1F46CESHOMC6KGRZ5FSDXI", "current_trial": 172, "dateTime": 1512579278682, "trialdata": {"rt": -1, "stimulus": "<p id=\"stim\">+</p>", "key_press": -1, "type": "FIXATION", "trial_type": "single-stim", "trial_index": 172, "time_elapsed": 766943, "internal_node_id": "0.0-118.0-0.0"}}, {"uniqueid": "MTK0643:3OSWBBLG1F46CESHOMC6KGRZ5FSDXI", "current_trial": 173, "dateTime": 1512579279483, "trialdata": {"rt": -1, "stimulus": "<p id=\"stim\">KITCHEN</p>", "key_press": -1, "type": "PRES_VIS", "word": "kitchen", "wordID": 777, "conditions": [24, 800, "v", 24000], "trial": 5, "serialpos": 0, "trial_type": "single-stim", "trial_index": 173, "time_elapsed": 767744, "internal_node_id": "0.0-119.0"}}, {"uniqueid": "MTK0643:3OSWBBLG1F46CESHOMC6KGRZ5FSDXI", "current_trial": 174, "dateTime": 1512579281424, "trialdata": {"rt": -1, "stimulus": "<p id=\"stim\">VALLEY</p>", "key_press": -1, "type": "PRES_VIS", "word": "valley", "wordID": 1544, "conditions": [24, 800, "v", 24000], "trial": 5, "serialpos": 1, "trial_type": "single-stim", "trial_index": 174, "time_elapsed": 769685, "internal_node_id": "0.0-120.0"}}, {"uniqueid": "MTK0643:3OSWBBLG1F46CESHOMC6KGRZ5FSDXI", "current_trial": 175, "dateTime": 1512579283396, "trialdata": {"rt": -1, "stimulus": "<p id=\"stim\">SALMON</p>", "key_press": -1, "type": "PRES_VIS", "word": "salmon", "wordID": 1226, "conditions": [24, 800, "v", 24000], "trial": 5, "serialpos": 2, "trial_type": "single-stim", "trial_index": 175, "time_elapsed": 771657, "internal_node_id": "0.0-121.0"}}, {"uniqueid": "MTK0643:3OSWBBLG1F46CESHOMC6KGRZ5FSDXI", "current_trial": 176, "dateTime": 1512579285198, "trialdata": {"rt": -1, "stimulus": "<p id=\"stim\">MAPLE</p>", "key_press": -1, "type": "PRES_VIS", "word": "maple", "wordID": 865, "conditions": [24, 800, "v", 24000], "trial": 5, "serialpos": 3, "trial_type": "single-stim", "trial_index": 176, "time_elapsed": 773459, "internal_node_id": "0.0-122.0"}}, {"uniqueid": "MTK0643:3OSWBBLG1F46CESHOMC6KGRZ5FSDXI", "current_trial": 177, "dateTime": 1512579286941, "trialdata": {"rt": -1, "stimulus": "<p id=\"stim\">OFFICE</p>", "key_press": -1, "type": "PRES_VIS", "word": "office", "wordID": 971, "conditions": [24, 800, "v", 24000], "trial": 5, "serialpos": 4, "trial_type": "single-stim", "trial_index": 177, "time_elapsed": 775202, "internal_node_id": "0.0-123.0"}}, {"uniqueid": "MTK0643:3OSWBBLG1F46CESHOMC6KGRZ5FSDXI", "current_trial": 178, "dateTime": 1512579288635, "trialdata": {"rt": -1, "stimulus": "<p id=\"stim\">PLAYGROUND</p>", "key_press": -1, "type": "PRES_VIS", "word": "playground", "wordID": 1086, "conditions": [24, 800, "v", 24000], "trial": 5, "serialpos": 5, "trial_type": "single-stim", "trial_index": 178, "time_elapsed": 776896, "internal_node_id": "0.0-124.0"}}, {"uniqueid": "MTK0643:3OSWBBLG1F46CESHOMC6KGRZ5FSDXI", "current_trial": 179, "dateTime": 1512579290612, "trialdata": {"rt": -1, "stimulus": "<p id=\"stim\">SUITCASE</p>", "key_press": -1, "type": "PRES_VIS", "word": "suitcase", "wordID": 1402, "conditions": [24, 800, "v", 24000], "trial": 5, "serialpos": 6, "trial_type": "single-stim", "trial_index": 179, "time_elapsed": 778873, "internal_node_id": "0.0-125.0"}}, {"uniqueid": "MTK0643:3OSWBBLG1F46CESHOMC6KGRZ5FSDXI", "current_trial": 180, "dateTime": 1512579292570, "trialdata": {"rt": -1, "stimulus": "<p id=\"stim\">LUGGAGE</p>", "key_press": -1, "type": "PRES_VIS", "word": "luggage", "wordID": 846, "conditions": [24, 800, "v", 24000], "trial": 5, "serialpos": 7, "trial_type": "single-stim", "trial_index": 180, "time_elapsed": 780831, "internal_node_id": "0.0-126.0"}}, {"uniqueid": "MTK0643:3OSWBBLG1F46CESHOMC6KGRZ5FSDXI", "current_trial": 181, "dateTime": 1512579294443, "trialdata": {"rt": -1, "stimulus": "<p id=\"stim\">MUFFIN</p>", "key_press": -1, "type": "PRES_VIS", "word": "muffin", "wordID": 928, "conditions": [24, 800, "v", 24000], "trial": 5, "serialpos": 8, "trial_type": "single-stim", "trial_index": 181, "time_elapsed": 782704, "internal_node_id": "0.0-127.0"}}, {"uniqueid": "MTK0643:3OSWBBLG1F46CESHOMC6KGRZ5FSDXI", "current_trial": 182, "dateTime": 1512579296075, "trialdata": {"rt": -1, "stimulus": "<p id=\"stim\">AGENT</p>", "key_press": -1, "type": "PRES_VIS", "word": "agent", "wordID": 9, "conditions": [24, 800, "v", 24000], "trial": 5, "serialpos": 9, "trial_type": "single-stim", "trial_index": 182, "time_elapsed": 784336, "internal_node_id": "0.0-128.0"}}, {"uniqueid": "MTK0643:3OSWBBLG1F46CESHOMC6KGRZ5FSDXI", "current_trial": 183, "dateTime": 1512579297860, "trialdata": {"rt": -1, "stimulus": "<p id=\"stim\">CLAM</p>", "key_press": -1, "type": "PRES_VIS", "word": "clam", "wordID": 314, "conditions": [24, 800, "v", 24000], "trial": 5, "serialpos": 10, "trial_type": "single-stim", "trial_index": 183, "time_elapsed": 786121, "internal_node_id": "0.0-129.0"}}, {"uniqueid": "MTK0643:3OSWBBLG1F46CESHOMC6KGRZ5FSDXI", "current_trial": 184, "dateTime": 1512579299776, "trialdata": {"rt": -1, "stimulus": "<p id=\"stim\">CANYON</p>", "key_press": -1, "type": "PRES_VIS", "word": "canyon", "wordID": 234, "conditions": [24, 800, "v", 24000], "trial": 5, "serialpos": 11, "trial_type": "single-stim", "trial_index": 184, "time_elapsed": 788037, "internal_node_id": "0.0-130.0"}}, {"uniqueid": "MTK0643:3OSWBBLG1F46CESHOMC6KGRZ5FSDXI", "current_trial": 185, "dateTime": 1512579301455, "trialdata": {"rt": -1, "stimulus": "<p id=\"stim\">MILK</p>", "key_press": -1, "type": "PRES_VIS", "word": "milk", "wordID": 894, "conditions": [24, 800, "v", 24000], "trial": 5, "serialpos": 12, "trial_type": "single-stim", "trial_index": 185, "time_elapsed": 789716, "internal_node_id": "0.0-131.0"}}, {"uniqueid": "MTK0643:3OSWBBLG1F46CESHOMC6KGRZ5FSDXI", "current_trial": 186, "dateTime": 1512579303329, "trialdata": {"rt": -1, "stimulus": "<p id=\"stim\">BLOUSE</p>", "key_press": -1, "type": "PRES_VIS", "word": "blouse", "wordID": 138, "conditions": [24, 800, "v", 24000], "trial": 5, "serialpos": 13, "trial_type": "single-stim", "trial_index": 186, "time_elapsed": 791590, "internal_node_id": "0.0-132.0"}}, {"uniqueid": "MTK0643:3OSWBBLG1F46CESHOMC6KGRZ5FSDXI", "current_trial": 187, "dateTime": 1512579305188, "trialdata": {"rt": -1, "stimulus": "<p id=\"stim\">GARLIC</p>", "key_press": -1, "type": "PRES_VIS", "word": "garlic", "wordID": 623, "conditions": [24, 800, "v", 24000], "trial": 5, "serialpos": 14, "trial_type": "single-stim", "trial_index": 187, "time_elapsed": 793449, "internal_node_id": "0.0-133.0"}}, {"uniqueid": "MTK0643:3OSWBBLG1F46CESHOMC6KGRZ5FSDXI", "current_trial": 188, "dateTime": 1512579307010, "trialdata": {"rt": -1, "stimulus": "<p id=\"stim\">BEAVER</p>", "key_press": -1, "type": "PRES_VIS", "word": "beaver", "wordID": 108, "conditions": [24, 800, "v", 24000], "trial": 5, "serialpos": 15, "trial_type": "single-stim", "trial_index": 188, "time_elapsed": 795271, "internal_node_id": "0.0-134.0"}}, {"uniqueid": "MTK0643:3OSWBBLG1F46CESHOMC6KGRZ5FSDXI", "current_trial": 189, "dateTime": 1512579308895, "trialdata": {"rt": -1, "stimulus": "<p id=\"stim\">ULCER</p>", "key_press": -1, "type": "PRES_VIS", "word": "ulcer", "wordID": 1532, "conditions": [24, 800, "v", 24000], "trial": 5, "serialpos": 16, "trial_type": "single-stim", "trial_index": 189, "time_elapsed": 797156, "internal_node_id": "0.0-135.0"}}, {"uniqueid": "MTK0643:3OSWBBLG1F46CESHOMC6KGRZ5FSDXI", "current_trial": 190, "dateTime": 1512579310708, "trialdata": {"rt": -1, "stimulus": "<p id=\"stim\">TREAT</p>", "key_press": -1, "type": "PRES_VIS", "word": "treat", "wordID": 1500, "conditions": [24, 800, "v", 24000], "trial": 5, "serialpos": 17, "trial_type": "single-stim", "trial_index": 190, "time_elapsed": 798969, "internal_node_id": "0.0-136.0"}}, {"uniqueid": "MTK0643:3OSWBBLG1F46CESHOMC6KGRZ5FSDXI", "current_trial": 191, "dateTime": 1512579312603, "trialdata": {"rt": -1, "stimulus": "<p id=\"stim\">IGLOO</p>", "key_press": -1, "type": "PRES_VIS", "word": "igloo", "wordID": 733, "conditions": [24, 800, "v", 24000], "trial": 5, "serialpos": 18, "trial_type": "single-stim", "trial_index": 191, "time_elapsed": 800864, "internal_node_id": "0.0-137.0"}}, {"uniqueid": "MTK0643:3OSWBBLG1F46CESHOMC6KGRZ5FSDXI", "current_trial": 192, "dateTime": 1512579314310, "trialdata": {"rt": -1, "stimulus": "<p id=\"stim\">BANK</p>", "key_press": -1, "type": "PRES_VIS", "word": "bank", "wordID": 82, "conditions": [24, 800, "v", 24000], "trial": 5, "serialpos": 19, "trial_type": "single-stim", "trial_index": 192, "time_elapsed": 802571, "internal_node_id": "0.0-138.0"}}, {"uniqueid": "MTK0643:3OSWBBLG1F46CESHOMC6KGRZ5FSDXI", "current_trial": 193, "dateTime": 1512579315997, "trialdata": {"rt": -1, "stimulus": "<p id=\"stim\">BRANCH</p>", "key_press": -1, "type": "PRES_VIS", "word": "branch", "wordID": 167, "conditions": [24, 800, "v", 24000], "trial": 5, "serialpos": 20, "trial_type": "single-stim", "trial_index": 193, "time_elapsed": 804258, "internal_node_id": "0.0-139.0"}}, {"uniqueid": "MTK0643:3OSWBBLG1F46CESHOMC6KGRZ5FSDXI", "current_trial": 194, "dateTime": 1512579317815, "trialdata": {"rt": -1, "stimulus": "<p id=\"stim\">SMOG</p>", "key_press": -1, "type": "PRES_VIS", "word": "smog", "wordID": 1329, "conditions": [24, 800, "v", 24000], "trial": 5, "serialpos": 21, "trial_type": "single-stim", "trial_index": 194, "time_elapsed": 806076, "internal_node_id": "0.0-140.0"}}, {"uniqueid": "MTK0643:3OSWBBLG1F46CESHOMC6KGRZ5FSDXI", "current_trial": 195, "dateTime": 1512579319721, "trialdata": {"rt": -1, "stimulus": "<p id=\"stim\">CANDY</p>", "key_press": -1, "type": "PRES_VIS", "word": "candy", "wordID": 229, "conditions": [24, 800, "v", 24000], "trial": 5, "serialpos": 22, "trial_type": "single-stim", "trial_index": 195, "time_elapsed": 807982, "internal_node_id": "0.0-141.0"}}, {"uniqueid": "MTK0643:3OSWBBLG1F46CESHOMC6KGRZ5FSDXI", "current_trial": 196, "dateTime": 1512579321442, "trialdata": {"rt": -1, "stimulus": "<p id=\"stim\">CHIPMUNK</p>", "key_press": -1, "type": "PRES_VIS", "word": "chipmunk", "wordID": 303, "conditions": [24, 800, "v", 24000], "trial": 5, "serialpos": 23, "trial_type": "single-stim", "trial_index": 196, "time_elapsed": 809703, "internal_node_id": "0.0-142.0"}}, {"uniqueid": "MTK0643:3OSWBBLG1F46CESHOMC6KGRZ5FSDXI", "current_trial": 197, "dateTime": 1512579323560, "trialdata": {"rt": -1, "stimulus": "", "key_press": -1, "type": "PRE_RECALL_DELAY", "trial_type": "single-stim", "trial_index": 197, "time_elapsed": 811821, "internal_node_id": "0.0-143.0-0.0"}}, {"uniqueid": "MTK0643:3OSWBBLG1F46CESHOMC6KGRZ5FSDXI", "current_trial": 198, "dateTime": 1512579324066, "trialdata": {"rt": -1000, "stimulus": "/static/audio/400Hz.wav", "key_press": -1, "type": "PRE_RECALL_ALERT", "trial_type": "single-audio", "trial_index": 198, "time_elapsed": 812327, "internal_node_id": "0.0-144.0"}}, {"uniqueid": "MTK0643:3OSWBBLG1F46CESHOMC6KGRZ5FSDXI", "current_trial": 199, "dateTime": 1512579384071, "trialdata": {"rt": [2432, 4692, 5381, 6235, 8264, 8880, 9671, 10704, 11671, 13272, 16159, 17902], "recwords": ["candy", "chipmunk", "canyon", "branch", "muffin", "agent", "blouse", "garlic", "beaver", "treat", "baggage", "smog"], "type": "FREE_RECALL", "conditions": [24, 800, "v", 24000], "trial": 5, "trial_type": "free-recall", "trial_index": 199, "time_elapsed": 872331, "internal_node_id": "0.0-145.0-0.0"}}, {"uniqueid": "MTK0643:3OSWBBLG1F46CESHOMC6KGRZ5FSDXI", "current_trial": 200, "dateTime": 1512579387249, "trialdata": {"rt": 1177, "key_press": 40, "type": "INSTRUCTIONS", "trial_type": "text", "trial_index": 200, "time_elapsed": 875510, "internal_node_id": "0.0-146.0"}}, {"uniqueid": "MTK0643:3OSWBBLG1F46CESHOMC6KGRZ5FSDXI", "current_trial": 201, "dateTime": 1512579413253, "trialdata": {"rt": [2808, 4563, 8217, 11122, 12654, 14494, 16449, 17965, 19573], "responses": ["14", "9", "17", "20", "11", "17", "15", "11", "13"], "num1": [4, 5, 6, 9, 1, 8, 7, 6, 6, 9], "num2": [1, 1, 7, 6, 4, 1, 6, 1, 1, 7], "num3": [9, 3, 4, 5, 6, 8, 2, 4, 6, 1], "type": "DISTRACTOR", "conditions": [12, 1600, "v", 24000], "trial": 6, "trial_type": "math-distractor", "trial_index": 201, "time_elapsed": 901514, "internal_node_id": "0.0-147.0"}}, {"uniqueid": "MTK0643:3OSWBBLG1F46CESHOMC6KGRZ5FSDXI", "current_trial": 202, "dateTime": 1512579416254, "trialdata": {"rt": -1, "stimulus": "<p id=\"stim\">10</p>", "key_press": -1, "trial_type": "single-stim", "trial_index": 202, "time_elapsed": 904515, "internal_node_id": "0.0-148.0-0.0"}}, {"uniqueid": "MTK0643:3OSWBBLG1F46CESHOMC6KGRZ5FSDXI", "current_trial": 203, "dateTime": 1512579417257, "trialdata": {"rt": -1, "stimulus": "<p id=\"stim\">9</p>", "key_press": -1, "trial_type": "single-stim", "trial_index": 203, "time_elapsed": 905518, "internal_node_id": "0.0-148.0-1.0"}}, {"uniqueid": "MTK0643:3OSWBBLG1F46CESHOMC6KGRZ5FSDXI", "current_trial": 204, "dateTime": 1512579418259, "trialdata": {"rt": -1, "stimulus": "<p id=\"stim\">8</p>", "key_press": -1, "trial_type": "single-stim", "trial_index": 204, "time_elapsed": 906520, "internal_node_id": "0.0-148.0-2.0"}}, {"uniqueid": "MTK0643:3OSWBBLG1F46CESHOMC6KGRZ5FSDXI", "current_trial": 205, "dateTime": 1512579419261, "trialdata": {"rt": -1, "stimulus": "<p id=\"stim\">7</p>", "key_press": -1, "trial_type": "single-stim", "trial_index": 205, "time_elapsed": 907522, "internal_node_id": "0.0-148.0-3.0"}}, {"uniqueid": "MTK0643:3OSWBBLG1F46CESHOMC6KGRZ5FSDXI", "current_trial": 206, "dateTime": 1512579420262, "trialdata": {"rt": -1, "stimulus": "<p id=\"stim\">6</p>", "key_press": -1, "trial_type": "single-stim", "trial_index": 206, "time_elapsed": 908523, "internal_node_id": "0.0-148.0-4.0"}}, {"uniqueid": "MTK0643:3OSWBBLG1F46CESHOMC6KGRZ5FSDXI", "current_trial": 207, "dateTime": 1512579421264, "trialdata": {"rt": -1, "stimulus": "<p id=\"stim\">5</p>", "key_press": -1, "trial_type": "single-stim", "trial_index": 207, "time_elapsed": 909525, "internal_node_id": "0.0-148.0-5.0"}}, {"uniqueid": "MTK0643:3OSWBBLG1F46CESHOMC6KGRZ5FSDXI", "current_trial": 208, "dateTime": 1512579422265, "trialdata": {"rt": -1, "stimulus": "<p id=\"stim\">4</p>", "key_press": -1, "trial_type": "single-stim", "trial_index": 208, "time_elapsed": 910526, "internal_node_id": "0.0-148.0-6.0"}}, {"uniqueid": "MTK0643:3OSWBBLG1F46CESHOMC6KGRZ5FSDXI", "current_trial": 209, "dateTime": 1512579423267, "trialdata": {"rt": -1, "stimulus": "<p id=\"stim\">3</p>", "key_press": -1, "trial_type": "single-stim", "trial_index": 209, "time_elapsed": 911528, "internal_node_id": "0.0-148.0-7.0"}}, {"uniqueid": "MTK0643:3OSWBBLG1F46CESHOMC6KGRZ5FSDXI", "current_trial": 210, "dateTime": 1512579424268, "trialdata": {"rt": -1, "stimulus": "<p id=\"stim\">2</p>", "key_press": -1, "trial_type": "single-stim", "trial_index": 210, "time_elapsed": 912529, "internal_node_id": "0.0-148.0-8.0"}}, {"uniqueid": "MTK0643:3OSWBBLG1F46CESHOMC6KGRZ5FSDXI", "current_trial": 211, "dateTime": 1512579425270, "trialdata": {"rt": -1, "stimulus": "<p id=\"stim\">1</p>", "key_press": -1, "trial_type": "single-stim", "trial_index": 211, "time_elapsed": 913531, "internal_node_id": "0.0-148.0-9.0"}}, {"uniqueid": "MTK0643:3OSWBBLG1F46CESHOMC6KGRZ5FSDXI", "current_trial": 212, "dateTime": 1512579426772, "trialdata": {"rt": -1, "stimulus": "<p id=\"stim\">+</p>", "key_press": -1, "type": "FIXATION", "trial_type": "single-stim", "trial_index": 212, "time_elapsed": 915033, "internal_node_id": "0.0-149.0-0.0"}}, {"uniqueid": "MTK0643:3OSWBBLG1F46CESHOMC6KGRZ5FSDXI", "current_trial": 213, "dateTime": 1512579428374, "trialdata": {"rt": -1, "stimulus": "<p id=\"stim\">GRAVEL</p>", "key_press": -1, "type": "PRES_VIS", "word": "gravel", "wordID": 658, "conditions": [12, 1600, "v", 24000], "trial": 6, "serialpos": 0, "trial_type": "single-stim", "trial_index": 213, "time_elapsed": 916635, "internal_node_id": "0.0-150.0"}}, {"uniqueid": "MTK0643:3OSWBBLG1F46CESHOMC6KGRZ5FSDXI", "current_trial": 214, "dateTime": 1512579430807, "trialdata": {"rt": -1, "stimulus": "<p id=\"stim\">SHORTCAKE</p>", "key_press": -1, "type": "PRES_VIS", "word": "shortcake", "wordID": 1291, "conditions": [12, 1600, "v", 24000], "trial": 6, "serialpos": 1, "trial_type": "single-stim", "trial_index": 214, "time_elapsed": 919068, "internal_node_id": "0.0-151.0"}}, {"uniqueid": "MTK0643:3OSWBBLG1F46CESHOMC6KGRZ5FSDXI", "current_trial": 215, "dateTime": 1512579433312, "trialdata": {"rt": -1, "stimulus": "<p id=\"stim\">DRUG</p>", "key_press": -1, "type": "PRES_VIS", "word": "drug", "wordID": 500, "conditions": [12, 1600, "v", 24000], "trial": 6, "serialpos": 2, "trial_type": "single-stim", "trial_index": 215, "time_elapsed": 921573, "internal_node_id": "0.0-152.0"}}, {"uniqueid": "MTK0643:3OSWBBLG1F46CESHOMC6KGRZ5FSDXI", "current_trial": 216, "dateTime": 1512579436048, "trialdata": {"rt": -1, "stimulus": "<p id=\"stim\">DIVER</p>", "key_press": -1, "type": "PRES_VIS", "word": "diver", "wordID": 475, "conditions": [12, 1600, "v", 24000], "trial": 6, "serialpos": 3, "trial_type": "single-stim", "trial_index": 216, "time_elapsed": 924309, "internal_node_id": "0.0-153.0"}}, {"uniqueid": "MTK0643:3OSWBBLG1F46CESHOMC6KGRZ5FSDXI", "current_trial": 217, "dateTime": 1512579438703, "trialdata": {"rt": -1, "stimulus": "<p id=\"stim\">SPONGE</p>", "key_press": -1, "type": "PRES_VIS", "word": "sponge", "wordID": 1354, "conditions": [12, 1600, "v", 24000], "trial": 6, "serialpos": 4, "trial_type": "single-stim", "trial_index": 217, "time_elapsed": 926964, "internal_node_id": "0.0-154.0"}}, {"uniqueid": "MTK0643:3OSWBBLG1F46CESHOMC6KGRZ5FSDXI", "current_trial": 218, "dateTime": 1512579441363, "trialdata": {"rt": -1, "stimulus": "<p id=\"stim\">FRECKLE</p>", "key_press": -1, "type": "PRES_VIS", "word": "freckle", "wordID": 601, "conditions": [12, 1600, "v", 24000], "trial": 6, "serialpos": 5, "trial_type": "single-stim", "trial_index": 218, "time_elapsed": 929624, "internal_node_id": "0.0-155.0"}}, {"uniqueid": "MTK0643:3OSWBBLG1F46CESHOMC6KGRZ5FSDXI", "current_trial": 219, "dateTime": 1512579444055, "trialdata": {"rt": -1, "stimulus": "<p id=\"stim\">PIMPLE</p>", "key_press": -1, "type": "PRES_VIS", "word": "pimple", "wordID": 1070, "conditions": [12, 1600, "v", 24000], "trial": 6, "serialpos": 6, "trial_type": "single-stim", "trial_index": 219, "time_elapsed": 932316, "internal_node_id": "0.0-156.0"}}, {"uniqueid": "MTK0643:3OSWBBLG1F46CESHOMC6KGRZ5FSDXI", "current_trial": 220, "dateTime": 1512579446810, "trialdata": {"rt": -1, "stimulus": "<p id=\"stim\">BINDER</p>", "key_press": -1, "type": "PRES_VIS", "word": "binder", "wordID": 126, "conditions": [12, 1600, "v", 24000], "trial": 6, "serialpos": 7, "trial_type": "single-stim", "trial_index": 220, "time_elapsed": 935071, "internal_node_id": "0.0-157.0"}}, {"uniqueid": "MTK0643:3OSWBBLG1F46CESHOMC6KGRZ5FSDXI", "current_trial": 221, "dateTime": 1512579449277, "trialdata": {"rt": -1, "stimulus": "<p id=\"stim\">SERVER</p>", "key_press": -1, "type": "PRES_VIS", "word": "server", "wordID": 1271, "conditions": [12, 1600, "v", 24000], "trial": 6, "serialpos": 8, "trial_type": "single-stim", "trial_index": 221, "time_elapsed": 937538, "internal_node_id": "0.0-158.0"}}, {"uniqueid": "MTK0643:3OSWBBLG1F46CESHOMC6KGRZ5FSDXI", "current_trial": 222, "dateTime": 1512579451820, "trialdata": {"rt": -1, "stimulus": "<p id=\"stim\">MISSILE</p>", "key_press": -1, "type": "PRES_VIS", "word": "missile", "wordID": 899, "conditions": [12, 1600, "v", 24000], "trial": 6, "serialpos": 9, "trial_type": "single-stim", "trial_index": 222, "time_elapsed": 940081, "internal_node_id": "0.0-159.0"}}, {"uniqueid": "MTK0643:3OSWBBLG1F46CESHOMC6KGRZ5FSDXI", "current_trial": 223, "dateTime": 1512579454321, "trialdata": {"rt": -1, "stimulus": "<p id=\"stim\">CUSTARD</p>", "key_press": -1, "type": "PRES_VIS", "word": "custard", "wordID": 428, "conditions": [12, 1600, "v", 24000], "trial": 6, "serialpos": 10, "trial_type": "single-stim", "trial_index": 223, "time_elapsed": 942582, "internal_node_id": "0.0-160.0"}}, {"uniqueid": "MTK0643:3OSWBBLG1F46CESHOMC6KGRZ5FSDXI", "current_trial": 224, "dateTime": 1512579456849, "trialdata": {"rt": -1, "stimulus": "<p id=\"stim\">KIDNEY</p>", "key_press": -1, "type": "PRES_VIS", "word": "kidney", "wordID": 775, "conditions": [12, 1600, "v", 24000], "trial": 6, "serialpos": 11, "trial_type": "single-stim", "trial_index": 224, "time_elapsed": 945110, "internal_node_id": "0.0-161.0"}}, {"uniqueid": "MTK0643:3OSWBBLG1F46CESHOMC6KGRZ5FSDXI", "current_trial": 225, "dateTime": 1512579459192, "trialdata": {"rt": -1, "stimulus": "", "key_press": -1, "type": "PRE_RECALL_DELAY", "trial_type": "single-stim", "trial_index": 225, "time_elapsed": 947453, "internal_node_id": "0.0-162.0-0.0"}}, {"uniqueid": "MTK0643:3OSWBBLG1F46CESHOMC6KGRZ5FSDXI", "current_trial": 226, "dateTime": 1512579459693, "trialdata": {"rt": -1000, "stimulus": "/static/audio/400Hz.wav", "key_press": -1, "type": "PRE_RECALL_ALERT", "trial_type": "single-audio", "trial_index": 226, "time_elapsed": 947954, "internal_node_id": "0.0-163.0"}}, {"uniqueid": "MTK0643:3OSWBBLG1F46CESHOMC6KGRZ5FSDXI", "current_trial": 227, "dateTime": 1512579519695, "trialdata": {"rt": [1501, 2834, 5054, 7289, 11461, 12158, 13713], "recwords": ["missile", "kidney", "server", "sponge", "drug", "diver", "shortcake"], "type": "FREE_RECALL", "conditions": [12, 1600, "v", 24000], "trial": 6, "trial_type": "free-recall", "trial_index": 227, "time_elapsed": 1007955, "internal_node_id": "0.0-164.0-0.0"}}, {"uniqueid": "MTK0643:3OSWBBLG1F46CESHOMC6KGRZ5FSDXI", "current_trial": 228, "dateTime": 1512579522923, "trialdata": {"rt": 1226, "key_press": 40, "type": "INSTRUCTIONS", "trial_type": "text", "trial_index": 228, "time_elapsed": 1011183, "internal_node_id": "0.0-165.0"}}, {"uniqueid": "MTK0643:3OSWBBLG1F46CESHOMC6KGRZ5FSDXI", "current_trial": 229, "dateTime": 1512579536925, "trialdata": {"rt": [2945, 4933, 7254, 8794, 10008, 11443], "responses": ["18", "10", "23", "12", "6", "12"], "num1": [5, 5, 9, 6, 4, 1, 5], "num2": [8, 2, 6, 5, 1, 6, 1], "num3": [5, 3, 8, 1, 1, 5, 9], "type": "DISTRACTOR", "conditions": [24, 1600, "a", 12000], "trial": 7, "trial_type": "math-distractor", "trial_index": 229, "time_elapsed": 1025186, "internal_node_id": "0.0-166.0"}}, {"uniqueid": "MTK0643:3OSWBBLG1F46CESHOMC6KGRZ5FSDXI", "current_trial": 230, "dateTime": 1512579539926, "trialdata": {"rt": -1, "stimulus": "<p id=\"stim\">10</p>", "key_press": -1, "trial_type": "single-stim", "trial_index": 230, "time_elapsed": 1028187, "internal_node_id": "0.0-167.0-0.0"}}, {"uniqueid": "MTK0643:3OSWBBLG1F46CESHOMC6KGRZ5FSDXI", "current_trial": 231, "dateTime": 1512579540927, "trialdata": {"rt": -1, "stimulus": "<p id=\"stim\">9</p>", "key_press": -1, "trial_type": "single-stim", "trial_index": 231, "time_elapsed": 1029188, "internal_node_id": "0.0-167.0-1.0"}}, {"uniqueid": "MTK0643:3OSWBBLG1F46CESHOMC6KGRZ5FSDXI", "current_trial": 232, "dateTime": 1512579541927, "trialdata": {"rt": -1, "stimulus": "<p id=\"stim\">8</p>", "key_press": -1, "trial_type": "single-stim", "trial_index": 232, "time_elapsed": 1030188, "internal_node_id": "0.0-167.0-2.0"}}, {"uniqueid": "MTK0643:3OSWBBLG1F46CESHOMC6KGRZ5FSDXI", "current_trial": 233, "dateTime": 1512579542929, "trialdata": {"rt": -1, "stimulus": "<p id=\"stim\">7</p>", "key_press": -1, "trial_type": "single-stim", "trial_index": 233, "time_elapsed": 1031190, "internal_node_id": "0.0-167.0-3.0"}}, {"uniqueid": "MTK0643:3OSWBBLG1F46CESHOMC6KGRZ5FSDXI", "current_trial": 234, "dateTime": 1512579543930, "trialdata": {"rt": -1, "stimulus": "<p id=\"stim\">6</p>", "key_press": -1, "trial_type": "single-stim", "trial_index": 234, "time_elapsed": 1032191, "internal_node_id": "0.0-167.0-4.0"}}, {"uniqueid": "MTK0643:3OSWBBLG1F46CESHOMC6KGRZ5FSDXI", "current_trial": 235, "dateTime": 1512579544931, "trialdata": {"rt": -1, "stimulus": "<p id=\"stim\">5</p>", "key_press": -1, "trial_type": "single-stim", "trial_index": 235, "time_elapsed": 1033192, "internal_node_id": "0.0-167.0-5.0"}}, {"uniqueid": "MTK0643:3OSWBBLG1F46CESHOMC6KGRZ5FSDXI", "current_trial": 236, "dateTime": 1512579545932, "trialdata": {"rt": -1, "stimulus": "<p id=\"stim\">4</p>", "key_press": -1, "trial_type": "single-stim", "trial_index": 236, "time_elapsed": 1034193, "internal_node_id": "0.0-167.0-6.0"}}, {"uniqueid": "MTK0643:3OSWBBLG1F46CESHOMC6KGRZ5FSDXI", "current_trial": 237, "dateTime": 1512579546934, "trialdata": {"rt": -1, "stimulus": "<p id=\"stim\">3</p>", "key_press": -1, "trial_type": "single-stim", "trial_index": 237, "time_elapsed": 1035195, "internal_node_id": "0.0-167.0-7.0"}}, {"uniqueid": "MTK0643:3OSWBBLG1F46CESHOMC6KGRZ5FSDXI", "current_trial": 238, "dateTime": 1512579547935, "trialdata": {"rt": -1, "stimulus": "<p id=\"stim\">2</p>", "key_press": -1, "trial_type": "single-stim", "trial_index": 238, "time_elapsed": 1036196, "internal_node_id": "0.0-167.0-8.0"}}, {"uniqueid": "MTK0643:3OSWBBLG1F46CESHOMC6KGRZ5FSDXI", "current_trial": 239, "dateTime": 1512579548937, "trialdata": {"rt": -1, "stimulus": "<p id=\"stim\">1</p>", "key_press": -1, "trial_type": "single-stim", "trial_index": 239, "time_elapsed": 1037198, "internal_node_id": "0.0-167.0-9.0"}}, {"uniqueid": "MTK0643:3OSWBBLG1F46CESHOMC6KGRZ5FSDXI", "current_trial": 240, "dateTime": 1512579550438, "trialdata": {"rt": -1, "stimulus": "<p id=\"stim\">+</p>", "key_press": -1, "type": "FIXATION", "trial_type": "single-stim", "trial_index": 240, "time_elapsed": 1038699, "internal_node_id": "0.0-168.0-0.0"}}, {"uniqueid": "MTK0643:3OSWBBLG1F46CESHOMC6KGRZ5FSDXI", "current_trial": 241, "dateTime": 1512579552920, "trialdata": {"rt": -1000, "stimulus": "/static/audio/wordpool/LADY.wav", "key_press": -1, "type": "PRES_AUD", "word": "lady", "wordID": 793, "conditions": [24, 1600, "a", 12000], "trial": 7, "serialpos": 0, "trial_type": "single-audio", "trial_index": 241, "time_elapsed": 1041181, "internal_node_id": "0.0-169.0"}}, {"uniqueid": "MTK0643:3OSWBBLG1F46CESHOMC6KGRZ5FSDXI", "current_trial": 242, "dateTime": 1512579555678, "trialdata": {"rt": -1000, "stimulus": "/static/audio/wordpool/PASTA.wav", "key_press": -1, "type": "PRES_AUD", "word": "pasta", "wordID": 1020, "conditions": [24, 1600, "a", 12000], "trial": 7, "serialpos": 1, "trial_type": "single-audio", "trial_index": 242, "time_elapsed": 1043939, "internal_node_id": "0.0-170.0"}}, {"uniqueid": "MTK0643:3OSWBBLG1F46CESHOMC6KGRZ5FSDXI", "current_trial": 243, "dateTime": 1512579558242, "trialdata": {"rt": -1000, "stimulus": "/static/audio/wordpool/DONKEY.wav", "key_press": -1, "type": "PRES_AUD", "word": "donkey", "wordID": 483, "conditions": [24, 1600, "a", 12000], "trial": 7, "serialpos": 2, "trial_type": "single-audio", "trial_index": 243, "time_elapsed": 1046503, "internal_node_id": "0.0-171.0"}}, {"uniqueid": "MTK0643:3OSWBBLG1F46CESHOMC6KGRZ5FSDXI", "current_trial": 244, "dateTime": 1512579560836, "trialdata": {"rt": -1000, "stimulus": "/static/audio/wordpool/LETTUCE.wav", "key_press": -1, "type": "PRES_AUD", "word": "lettuce", "wordID": 813, "conditions": [24, 1600, "a", 12000], "trial": 7, "serialpos": 3, "trial_type": "single-audio", "trial_index": 244, "time_elapsed": 1049097, "internal_node_id": "0.0-172.0"}}, {"uniqueid": "MTK0643:3OSWBBLG1F46CESHOMC6KGRZ5FSDXI", "current_trial": 245, "dateTime": 1512579563297, "trialdata": {"rt": -1000, "stimulus": "/static/audio/wordpool/EMPIRE.wav", "key_press": -1, "type": "PRES_AUD", "word": "empire", "wordID": 529, "conditions": [24, 1600, "a", 12000], "trial": 7, "serialpos": 4, "trial_type": "single-audio", "trial_index": 245, "time_elapsed": 1051558, "internal_node_id": "0.0-173.0"}}, {"uniqueid": "MTK0643:3OSWBBLG1F46CESHOMC6KGRZ5FSDXI", "current_trial": 246, "dateTime": 1512579565856, "trialdata": {"rt": -1000, "stimulus": "/static/audio/wordpool/FLIPPER.wav", "key_press": -1, "type": "PRES_AUD", "word": "flipper", "wordID": 579, "conditions": [24, 1600, "a", 12000], "trial": 7, "serialpos": 5, "trial_type": "single-audio", "trial_index": 246, "time_elapsed": 1054117, "internal_node_id": "0.0-174.0"}}, {"uniqueid": "MTK0643:3OSWBBLG1F46CESHOMC6KGRZ5FSDXI", "current_trial": 247, "dateTime": 1512579568270, "trialdata": {"rt": -1000, "stimulus": "/static/audio/wordpool/BIKE.wav", "key_press": -1, "type": "PRES_AUD", "word": "bike", "wordID": 124, "conditions": [24, 1600, "a", 12000], "trial": 7, "serialpos": 6, "trial_type": "single-audio", "trial_index": 247, "time_elapsed": 1056531, "internal_node_id": "0.0-175.0"}}, {"uniqueid": "MTK0643:3OSWBBLG1F46CESHOMC6KGRZ5FSDXI", "current_trial": 248, "dateTime": 1512579570822, "trialdata": {"rt": -1000, "stimulus": "/static/audio/wordpool/BALLOON.wav", "key_press": -1, "type": "PRES_AUD", "word": "balloon", "wordID": 74, "conditions": [24, 1600, "a", 12000], "trial": 7, "serialpos": 7, "trial_type": "single-audio", "trial_index": 248, "time_elapsed": 1059083, "internal_node_id": "0.0-176.0"}}, {"uniqueid": "MTK0643:3OSWBBLG1F46CESHOMC6KGRZ5FSDXI", "current_trial": 249, "dateTime": 1512579573412, "trialdata": {"rt": -1000, "stimulus": "/static/audio/wordpool/CAMEL.wav", "key_press": -1, "type": "PRES_AUD", "word": "camel", "wordID": 222, "conditions": [24, 1600, "a", 12000], "trial": 7, "serialpos": 8, "trial_type": "single-audio", "trial_index": 249, "time_elapsed": 1061673, "internal_node_id": "0.0-177.0"}}, {"uniqueid": "MTK0643:3OSWBBLG1F46CESHOMC6KGRZ5FSDXI", "current_trial": 250, "dateTime": 1512579576040, "trialdata": {"rt": -1000, "stimulus": "/static/audio/wordpool/SIBLING.wav", "key_press": -1, "type": "PRES_AUD", "word": "sibling", "wordID": 1300, "conditions": [24, 1600, "a", 12000], "trial": 7, "serialpos": 9, "trial_type": "single-audio", "trial_index": 250, "time_elapsed": 1064301, "internal_node_id": "0.0-178.0"}}, {"uniqueid": "MTK0643:3OSWBBLG1F46CESHOMC6KGRZ5FSDXI", "current_trial": 251, "dateTime": 1512579578653, "trialdata": {"rt": -1000, "stimulus": "/static/audio/wordpool/SISTER.wav", "key_press": -1, "type": "PRES_AUD", "word": "sister", "wordID": 1311, "conditions": [24, 1600, "a", 12000], "trial": 7, "serialpos": 10, "trial_type": "single-audio", "trial_index": 251, "time_elapsed": 1066914, "internal_node_id": "0.0-179.0"}}, {"uniqueid": "MTK0643:3OSWBBLG1F46CESHOMC6KGRZ5FSDXI", "current_trial": 252, "dateTime": 1512579581306, "trialdata": {"rt": -1000, "stimulus": "/static/audio/wordpool/GLASS.wav", "key_press": -1, "type": "PRES_AUD", "word": "glass", "wordID": 638, "conditions": [24, 1600, "a", 12000], "trial": 7, "serialpos": 11, "trial_type": "single-audio", "trial_index": 252, "time_elapsed": 1069567, "internal_node_id": "0.0-180.0"}}, {"uniqueid": "MTK0643:3OSWBBLG1F46CESHOMC6KGRZ5FSDXI", "current_trial": 253, "dateTime": 1512579583910, "trialdata": {"rt": -1000, "stimulus": "/static/audio/wordpool/SCARECROW.wav", "key_press": -1, "type": "PRES_AUD", "word": "scarecrow", "wordID": 1244, "conditions": [24, 1600, "a", 12000], "trial": 7, "serialpos": 12, "trial_type": "single-audio", "trial_index": 253, "time_elapsed": 1072171, "internal_node_id": "0.0-181.0"}}, {"uniqueid": "MTK0643:3OSWBBLG1F46CESHOMC6KGRZ5FSDXI", "current_trial": 254, "dateTime": 1512579586392, "trialdata": {"rt": -1000, "stimulus": "/static/audio/wordpool/PEANUT.wav", "key_press": -1, "type": "PRES_AUD", "word": "peanut", "wordID": 1031, "conditions": [24, 1600, "a", 12000], "trial": 7, "serialpos": 13, "trial_type": "single-audio", "trial_index": 254, "time_elapsed": 1074653, "internal_node_id": "0.0-182.0"}}, {"uniqueid": "MTK0643:3OSWBBLG1F46CESHOMC6KGRZ5FSDXI", "current_trial": 255, "dateTime": 1512579588830, "trialdata": {"rt": -1000, "stimulus": "/static/audio/wordpool/SLIME.wav", "key_press": -1, "type": "PRES_AUD", "word": "slime", "wordID": 1326, "conditions": [24, 1600, "a", 12000], "trial": 7, "serialpos": 14, "trial_type": "single-audio", "trial_index": 255, "time_elapsed": 1077091, "internal_node_id": "0.0-183.0"}}, {"uniqueid": "MTK0643:3OSWBBLG1F46CESHOMC6KGRZ5FSDXI", "current_trial": 256, "dateTime": 1512579591423, "trialdata": {"rt": -1000, "stimulus": "/static/audio/wordpool/SPARROW.wav", "key_press": -1, "type": "PRES_AUD", "word": "sparrow", "wordID": 1346, "conditions": [24, 1600, "a", 12000], "trial": 7, "serialpos": 15, "trial_type": "single-audio", "trial_index": 256, "time_elapsed": 1079684, "internal_node_id": "0.0-184.0"}}, {"uniqueid": "MTK0643:3OSWBBLG1F46CESHOMC6KGRZ5FSDXI", "current_trial": 257, "dateTime": 1512579594065, "trialdata": {"rt": -1000, "stimulus": "/static/audio/wordpool/CHAPEL.wav", "key_press": -1, "type": "PRES_AUD", "word": "chapel", "wordID": 279, "conditions": [24, 1600, "a", 12000], "trial": 7, "serialpos": 16, "trial_type": "single-audio", "trial_index": 257, "time_elapsed": 1082326, "internal_node_id": "0.0-185.0"}}, {"uniqueid": "MTK0643:3OSWBBLG1F46CESHOMC6KGRZ5FSDXI", "current_trial": 258, "dateTime": 1512579596570, "trialdata": {"rt": -1000, "stimulus": "/static/audio/wordpool/CLOTHES.wav", "key_press": -1, "type": "PRES_AUD", "word": "clothes", "wordID": 326, "conditions": [24, 1600, "a", 12000], "trial": 7, "serialpos": 17, "trial_type": "single-audio", "trial_index": 258, "time_elapsed": 1084831, "internal_node_id": "0.0-186.0"}}, {"uniqueid": "MTK0643:3OSWBBLG1F46CESHOMC6KGRZ5FSDXI", "current_trial": 259, "dateTime": 1512579599356, "trialdata": {"rt": -1000, "stimulus": "/static/audio/wordpool/NIGHTGOWN.wav", "key_press": -1, "type": "PRES_AUD", "word": "nightgown", "wordID": 952, "conditions": [24, 1600, "a", 12000], "trial": 7, "serialpos": 18, "trial_type": "single-audio", "trial_index": 259, "time_elapsed": 1087617, "internal_node_id": "0.0-187.0"}}, {"uniqueid": "MTK0643:3OSWBBLG1F46CESHOMC6KGRZ5FSDXI", "current_trial": 260, "dateTime": 1512579601876, "trialdata": {"rt": -1000, "stimulus": "/static/audio/wordpool/SWORD.wav", "key_press": -1, "type": "PRES_AUD", "word": "sword", "wordID": 1422, "conditions": [24, 1600, "a", 12000], "trial": 7, "serialpos": 19, "trial_type": "single-audio", "trial_index": 260, "time_elapsed": 1090137, "internal_node_id": "0.0-188.0"}}, {"uniqueid": "MTK0643:3OSWBBLG1F46CESHOMC6KGRZ5FSDXI", "current_trial": 261, "dateTime": 1512579604304, "trialdata": {"rt": -1000, "stimulus": "/static/audio/wordpool/CRAYON.wav", "key_press": -1, "type": "PRES_AUD", "word": "crayon", "wordID": 400, "conditions": [24, 1600, "a", 12000], "trial": 7, "serialpos": 20, "trial_type": "single-audio", "trial_index": 261, "time_elapsed": 1092565, "internal_node_id": "0.0-189.0"}}, {"uniqueid": "MTK0643:3OSWBBLG1F46CESHOMC6KGRZ5FSDXI", "current_trial": 262, "dateTime": 1512579606978, "trialdata": {"rt": -1000, "stimulus": "/static/audio/wordpool/COSTUME.wav", "key_press": -1, "type": "PRES_AUD", "word": "costume", "wordID": 382, "conditions": [24, 1600, "a", 12000], "trial": 7, "serialpos": 21, "trial_type": "single-audio", "trial_index": 262, "time_elapsed": 1095238, "internal_node_id": "0.0-190.0"}}, {"uniqueid": "MTK0643:3OSWBBLG1F46CESHOMC6KGRZ5FSDXI", "current_trial": 263, "dateTime": 1512579609543, "trialdata": {"rt": -1000, "stimulus": "/static/audio/wordpool/FIREPLACE.wav", "key_press": -1, "type": "PRES_AUD", "word": "fireplace", "wordID": 569, "conditions": [24, 1600, "a", 12000], "trial": 7, "serialpos": 22, "trial_type": "single-audio", "trial_index": 263, "time_elapsed": 1097804, "internal_node_id": "0.0-191.0"}}, {"uniqueid": "MTK0643:3OSWBBLG1F46CESHOMC6KGRZ5FSDXI", "current_trial": 264, "dateTime": 1512579612285, "trialdata": {"rt": -1000, "stimulus": "/static/audio/wordpool/PROTON.wav", "key_press": -1, "type": "PRES_AUD", "word": "proton", "wordID": 1131, "conditions": [24, 1600, "a", 12000], "trial": 7, "serialpos": 23, "trial_type": "single-audio", "trial_index": 264, "time_elapsed": 1100546, "internal_node_id": "0.0-192.0"}}, {"uniqueid": "MTK0643:3OSWBBLG1F46CESHOMC6KGRZ5FSDXI", "current_trial": 265, "dateTime": 1512579613681, "trialdata": {"rt": -1, "stimulus": "", "key_press": -1, "type": "PRE_RECALL_DELAY", "trial_type": "single-stim", "trial_index": 265, "time_elapsed": 1101942, "internal_node_id": "0.0-193.0-0.0"}}, {"uniqueid": "MTK0643:3OSWBBLG1F46CESHOMC6KGRZ5FSDXI", "current_trial": 266, "dateTime": 1512579614189, "trialdata": {"rt": -1000, "stimulus": "/static/audio/400Hz.wav", "key_press": -1, "type": "PRE_RECALL_ALERT", "trial_type": "single-audio", "trial_index": 266, "time_elapsed": 1102450, "internal_node_id": "0.0-194.0"}}, {"uniqueid": "MTK0643:3OSWBBLG1F46CESHOMC6KGRZ5FSDXI", "current_trial": 267, "dateTime": 1512579674192, "trialdata": {"rt": [1469, 2192, 4517, 10441, 11181, 12425, 13386, 14360, 15604, 16812, 17945, 22350, 22899, 23437], "recwords": ["fireplace", "proton", "nightgown", "pasta", "donkey", "lettuce", "slime", "sparrow", "donut", "clothes", "sword", "balloon", "bike", "camel"], "type": "FREE_RECALL", "conditions": [24, 1600, "a", 12000], "trial": 7, "trial_type": "free-recall", "trial_index": 267, "time_elapsed": 1162452, "internal_node_id": "0.0-195.0-0.0"}}, {"uniqueid": "MTK0643:3OSWBBLG1F46CESHOMC6KGRZ5FSDXI", "current_trial": 268, "dateTime": 1512579677318, "trialdata": {"rt": 1124, "key_press": 40, "type": "INSTRUCTIONS", "trial_type": "text", "trial_index": 268, "time_elapsed": 1165579, "internal_node_id": "0.0-196.0"}}, {"uniqueid": "MTK0643:3OSWBBLG1F46CESHOMC6KGRZ5FSDXI", "current_trial": 269, "dateTime": 1512579703321, "trialdata": {"rt": [3204, 5934, 7721, 9424, 10778, 12650, 14503, 16598, 20848, 22758], "responses": ["15", "16", "15", "11", "13", "8", "16", "17", "10", "21"], "num1": [4, 5, 4, 2, 6, 1, 9, 6, 3, 9, 8], "num2": [6, 4, 2, 2, 6, 4, 5, 7, 6, 3, 1], "num3": [5, 7, 9, 7, 1, 3, 2, 4, 1, 9, 7], "type": "DISTRACTOR", "conditions": [12, 1600, "a", 24000], "trial": 8, "trial_type": "math-distractor", "trial_index": 269, "time_elapsed": 1191582, "internal_node_id": "0.0-197.0"}}, {"uniqueid": "MTK0643:3OSWBBLG1F46CESHOMC6KGRZ5FSDXI", "current_trial": 270, "dateTime": 1512579706323, "trialdata": {"rt": -1, "stimulus": "<p id=\"stim\">10</p>", "key_press": -1, "trial_type": "single-stim", "trial_index": 270, "time_elapsed": 1194584, "internal_node_id": "0.0-198.0-0.0"}}, {"uniqueid": "MTK0643:3OSWBBLG1F46CESHOMC6KGRZ5FSDXI", "current_trial": 271, "dateTime": 1512579707325, "trialdata": {"rt": -1, "stimulus": "<p id=\"stim\">9</p>", "key_press": -1, "trial_type": "single-stim", "trial_index": 271, "time_elapsed": 1195586, "internal_node_id": "0.0-198.0-1.0"}}, {"uniqueid": "MTK0643:3OSWBBLG1F46CESHOMC6KGRZ5FSDXI", "current_trial": 272, "dateTime": 1512579708327, "trialdata": {"rt": -1, "stimulus": "<p id=\"stim\">8</p>", "key_press": 