{"condition": 0, "counterbalance": 2, "assignmentId": "3RWE2M8QWIH710DJA41277GI6X2N0B", "workerId": "MTK0157", "hitId": "3XU9MCX6VOJXPOAVSWHVAVINR6D2R4", "currenttrial": 625, "bonus": 0, "data": [{"uniqueid": "MTK0157:3RWE2M8QWIH710DJA41277GI6X2N0B", "current_trial": 0, "dateTime": 1509379768979, "trialdata": {"rt": 4068, "key_press": 72, "type": "INSTRUCTIONS", "trial_type": "text", "trial_index": 0, "time_elapsed": 4073, "internal_node_id": "0.0-0.0"}}, {"uniqueid": "MTK0157:3RWE2M8QWIH710DJA41277GI6X2N0B", "current_trial": 1, "dateTime": 1509379799079, "trialdata": {"rt": 30097, "key_press": 72, "type": "INSTRUCTIONS", "trial_type": "text", "trial_index": 1, "time_elapsed": 34173, "internal_node_id": "0.0-1.0"}}, {"uniqueid": "MTK0157:3RWE2M8QWIH710DJA41277GI6X2N0B", "current_trial": 2, "dateTime": 1509379881537, "trialdata": {"rt": [82442], "responses": ["ocean"], "type": "AUDIO_TEST", "trial_type": "audio-test", "trial_index": 2, "time_elapsed": 116631, "internal_node_id": "0.0-2.0"}}, {"uniqueid": "MTK0157:3RWE2M8QWIH710DJA41277GI6X2N0B", "current_trial": 3, "dateTime": 1509379914199, "trialdata": {"rt": [32654], "responses": ["crystal"], "type": "AUDIO_TEST", "trial_type": "audio-test", "trial_index": 3, "time_elapsed": 149294, "internal_node_id": "0.0-3.0"}}, {"uniqueid": "MTK0157:3RWE2M8QWIH710DJA41277GI6X2N0B", "current_trial": 4, "dateTime": 1509379925895, "trialdata": {"rt": [11689], "responses": ["spice"], "type": "AUDIO_TEST", "trial_type": "audio-test", "trial_index": 4, "time_elapsed": 160990, "internal_node_id": "0.0-4.0"}}, {"uniqueid": "MTK0157:3RWE2M8QWIH710DJA41277GI6X2N0B", "current_trial": 5, "dateTime": 1509379932061, "trialdata": {"rt": 5414, "key_press": 75, "type": "INSTRUCTIONS", "trial_type": "text", "trial_index": 5, "time_elapsed": 167156, "internal_node_id": "0.0-5.0"}}, {"uniqueid": "MTK0157:3RWE2M8QWIH710DJA41277GI6X2N0B", "current_trial": 6, "dateTime": 1509380093175, "trialdata": {"rt": 161112, "key_press": 75, "type": "INSTRUCTIONS", "trial_type": "text", "trial_index": 6, "time_elapsed": 328270, "internal_node_id": "0.0-6.0"}}, {"uniqueid": "MTK0157:3RWE2M8QWIH710DJA41277GI6X2N0B", "current_trial": 7, "dateTime": 1509380129935, "trialdata": {"rt": 36759, "key_press": 68, "type": "INSTRUCTIONS", "trial_type": "text", "trial_index": 7, "time_elapsed": 365030, "internal_node_id": "0.0-7.0"}}, {"uniqueid": "MTK0157:3RWE2M8QWIH710DJA41277GI6X2N0B", "current_trial": 8, "dateTime": 1509380150287, "trialdata": {"rt": 20351, "key_press": 68, "type": "INSTRUCTIONS", "trial_type": "text", "trial_index": 8, "time_elapsed": 385382, "internal_node_id": "0.0-8.0"}}, {"uniqueid": "MTK0157:3RWE2M8QWIH710DJA41277GI6X2N0B", "current_trial": 9, "dateTime": 1509380169306, "trialdata": {"rt": [8767, 15767], "responses": ["10", "16"], "num1": [8, 4, 5], "num2": [1, 8, 6], "num3": [1, 4, 8], "type": "DISTRACTOR", "conditions": [18, 1200, "v", 18000], "trial": 0, "trial_type": "math-distractor", "trial_index": 9, "time_elapsed": 404401, "internal_node_id": "0.0-9.0"}}, {"uniqueid": "MTK0157:3RWE2M8QWIH710DJA41277GI6X2N0B", "current_trial": 10, "dateTime": 1509380172333, "trialdata": {"rt": -1, "stimulus": "<p id=\"stim\">10</p>", "key_press": -1, "trial_type": "single-stim", "trial_index": 10, "time_elapsed": 407427, "internal_node_id": "0.0-10.0-0.0"}}, {"uniqueid": "MTK0157:3RWE2M8QWIH710DJA41277GI6X2N0B", "current_trial": 11, "dateTime": 1509380173334, "trialdata": {"rt": -1, "stimulus": "<p id=\"stim\">9</p>", "key_press": -1, "trial_type": "single-stim", "trial_index": 11, "time_elapsed": 408429, "internal_node_id": "0.0-10.0-1.0"}}, {"uniqueid": "MTK0157:3RWE2M8QWIH710DJA41277GI6X2N0B", "current_trial": 12, "dateTime": 1509380174349, "trialdata": {"rt": -1, "stimulus": "<p id=\"stim\">8</p>", "key_press": -1, "trial_type": "single-stim", "trial_index": 12, "time_elapsed": 409444, "internal_node_id": "0.0-10.0-2.0"}}, {"uniqueid": "MTK0157:3RWE2M8QWIH710DJA41277GI6X2N0B", "current_trial": 13, "dateTime": 1509380175365, "trialdata": {"rt": -1, "stimulus": "<p id=\"stim\">7</p>", "key_press": -1, "trial_type": "single-stim", "trial_index": 13, "time_elapsed": 410460, "internal_node_id": "0.0-10.0-3.0"}}, {"uniqueid": "MTK0157:3RWE2M8QWIH710DJA41277GI6X2N0B", "current_trial": 14, "dateTime": 1509380176379, "trialdata": {"rt": -1, "stimulus": "<p id=\"stim\">6</p>", "key_press": -1, "trial_type": "single-stim", "trial_index": 14, "time_elapsed": 411474, "internal_node_id": "0.0-10.0-4.0"}}, {"uniqueid": "MTK0157:3RWE2M8QWIH710DJA41277GI6X2N0B", "current_trial": 15, "dateTime": 1509380177390, "trialdata": {"rt": -1, "stimulus": "<p id=\"stim\">5</p>", "key_press": -1, "trial_type": "single-stim", "trial_index": 15, "time_elapsed": 412485, "internal_node_id": "0.0-10.0-5.0"}}, {"uniqueid": "MTK0157:3RWE2M8QWIH710DJA41277GI6X2N0B", "current_trial": 16, "dateTime": 1509380178400, "trialdata": {"rt": -1, "stimulus": "<p id=\"stim\">4</p>", "key_press": -1, "trial_type": "single-stim", "trial_index": 16, "time_elapsed": 413495, "internal_node_id": "0.0-10.0-6.0"}}, {"uniqueid": "MTK0157:3RWE2M8QWIH710DJA41277GI6X2N0B", "current_trial": 17, "dateTime": 1509380179417, "trialdata": {"rt": -1, "stimulus": "<p id=\"stim\">3</p>", "key_press": -1, "trial_type": "single-stim", "trial_index": 17, "time_elapsed": 414512, "internal_node_id": "0.0-10.0-7.0"}}, {"uniqueid": "MTK0157:3RWE2M8QWIH710DJA41277GI6X2N0B", "current_trial": 18, "dateTime": 1509380180423, "trialdata": {"rt": -1, "stimulus": "<p id=\"stim\">2</p>", "key_press": -1, "trial_type": "single-stim", "trial_index": 18, "time_elapsed": 415518, "internal_node_id": "0.0-10.0-8.0"}}, {"uniqueid": "MTK0157:3RWE2M8QWIH710DJA41277GI6X2N0B", "current_trial": 19, "dateTime": 1509380181432, "trialdata": {"rt": -1, "stimulus": "<p id=\"stim\">1</p>", "key_press": -1, "trial_type": "single-stim", "trial_index": 19, "time_elapsed": 416527, "internal_node_id": "0.0-10.0-9.0"}}, {"uniqueid": "MTK0157:3RWE2M8QWIH710DJA41277GI6X2N0B", "current_trial": 20, "dateTime": 1509380182935, "trialdata": {"rt": -1, "stimulus": "<p id=\"stim\">+</p>", "key_press": -1, "type": "FIXATION", "trial_type": "single-stim", "trial_index": 20, "time_elapsed": 418030, "internal_node_id": "0.0-11.0-0.0"}}, {"uniqueid": "MTK0157:3RWE2M8QWIH710DJA41277GI6X2N0B", "current_trial": 21, "dateTime": 1509380184148, "trialdata": {"rt": -1, "stimulus": "<p id=\"stim\">LOFT</p>", "key_press": -1, "type": "PRES_VIS", "word": "loft", "wordID": 839, "conditions": [18, 1200, "v", 18000], "trial": 0, "serialpos": 0, "trial_type": "single-stim", "trial_index": 21, "time_elapsed": 419242, "internal_node_id": "0.0-12.0"}}, {"uniqueid": "MTK0157:3RWE2M8QWIH710DJA41277GI6X2N0B", "current_trial": 22, "dateTime": 1509380186538, "trialdata": {"rt": -1, "stimulus": "<p id=\"stim\">HORNET</p>", "key_press": -1, "type": "PRES_VIS", "word": "hornet", "wordID": 717, "conditions": [18, 1200, "v", 18000], "trial": 0, "serialpos": 1, "trial_type": "single-stim", "trial_index": 22, "time_elapsed": 421633, "internal_node_id": "0.0-13.0"}}, {"uniqueid": "MTK0157:3RWE2M8QWIH710DJA41277GI6X2N0B", "current_trial": 23, "dateTime": 1509380188555, "trialdata": {"rt": -1, "stimulus": "<p id=\"stim\">PADDLE</p>", "key_press": -1, "type": "PRES_VIS", "word": "paddle", "wordID": 999, "conditions": [18, 1200, "v", 18000], "trial": 0, "serialpos": 2, "trial_type": "single-stim", "trial_index": 23, "time_elapsed": 423650, "internal_node_id": "0.0-14.0"}}, {"uniqueid": "MTK0157:3RWE2M8QWIH710DJA41277GI6X2N0B", "current_trial": 24, "dateTime": 1509380190953, "trialdata": {"rt": -1, "stimulus": "<p id=\"stim\">AUTHOR</p>", "key_press": -1, "type": "PRES_VIS", "word": "author", "wordID": 60, "conditions": [18, 1200, "v", 18000], "trial": 0, "serialpos": 3, "trial_type": "single-stim", "trial_index": 24, "time_elapsed": 426048, "internal_node_id": "0.0-15.0"}}, {"uniqueid": "MTK0157:3RWE2M8QWIH710DJA41277GI6X2N0B", "current_trial": 25, "dateTime": 1509380193111, "trialdata": {"rt": -1, "stimulus": "<p id=\"stim\">HIKER</p>", "key_press": -1, "type": "PRES_VIS", "word": "hiker", "wordID": 707, "conditions": [18, 1200, "v", 18000], "trial": 0, "serialpos": 4, "trial_type": "single-stim", "trial_index": 25, "time_elapsed": 428206, "internal_node_id": "0.0-16.0"}}, {"uniqueid": "MTK0157:3RWE2M8QWIH710DJA41277GI6X2N0B", "current_trial": 26, "dateTime": 1509380195224, "trialdata": {"rt": -1, "stimulus": "<p id=\"stim\">JELLY</p>", "key_press": -1, "type": "PRES_VIS", "word": "jelly", "wordID": 754, "conditions": [18, 1200, "v", 18000], "trial": 0, "serialpos": 5, "trial_type": "single-stim", "trial_index": 26, "time_elapsed": 430319, "internal_node_id": "0.0-17.0"}}, {"uniqueid": "MTK0157:3RWE2M8QWIH710DJA41277GI6X2N0B", "current_trial": 27, "dateTime": 1509380197395, "trialdata": {"rt": -1, "stimulus": "<p id=\"stim\">DRESSER</p>", "key_press": -1, "type": "PRES_VIS", "word": "dresser", "wordID": 495, "conditions": [18, 1200, "v", 18000], "trial": 0, "serialpos": 6, "trial_type": "single-stim", "trial_index": 27, "time_elapsed": 432490, "internal_node_id": "0.0-18.0"}}, {"uniqueid": "MTK0157:3RWE2M8QWIH710DJA41277GI6X2N0B", "current_trial": 28, "dateTime": 1509380199760, "trialdata": {"rt": -1, "stimulus": "<p id=\"stim\">THREAD</p>", "key_press": -1, "type": "PRES_VIS", "word": "thread", "wordID": 1459, "conditions": [18, 1200, "v", 18000], "trial": 0, "serialpos": 7, "trial_type": "single-stim", "trial_index": 28, "time_elapsed": 434854, "internal_node_id": "0.0-19.0"}}, {"uniqueid": "MTK0157:3RWE2M8QWIH710DJA41277GI6X2N0B", "current_trial": 29, "dateTime": 1509380202058, "trialdata": {"rt": -1, "stimulus": "<p id=\"stim\">ARMY</p>", "key_press": -1, "type": "PRES_VIS", "word": "army", "wordID": 38, "conditions": [18, 1200, "v", 18000], "trial": 0, "serialpos": 8, "trial_type": "single-stim", "trial_index": 29, "time_elapsed": 437153, "internal_node_id": "0.0-20.0"}}, {"uniqueid": "MTK0157:3RWE2M8QWIH710DJA41277GI6X2N0B", "current_trial": 30, "dateTime": 1509380204279, "trialdata": {"rt": -1, "stimulus": "<p id=\"stim\">ATLAS</p>", "key_press": -1, "type": "PRES_VIS", "word": "atlas", "wordID": 52, "conditions": [18, 1200, "v", 18000], "trial": 0, "serialpos": 9, "trial_type": "single-stim", "trial_index": 30, "time_elapsed": 439373, "internal_node_id": "0.0-21.0"}}, {"uniqueid": "MTK0157:3RWE2M8QWIH710DJA41277GI6X2N0B", "current_trial": 31, "dateTime": 1509380206338, "trialdata": {"rt": -1, "stimulus": "<p id=\"stim\">BUG</p>", "key_press": -1, "type": "PRES_VIS", "word": "bug", "wordID": 186, "conditions": [18, 1200, "v", 18000], "trial": 0, "serialpos": 10, "trial_type": "single-stim", "trial_index": 31, "time_elapsed": 441433, "internal_node_id": "0.0-22.0"}}, {"uniqueid": "MTK0157:3RWE2M8QWIH710DJA41277GI6X2N0B", "current_trial": 32, "dateTime": 1509380208605, "trialdata": {"rt": -1, "stimulus": "<p id=\"stim\">DUST</p>", "key_press": -1, "type": "PRES_VIS", "word": "dust", "wordID": 507, "conditions": [18, 1200, "v", 18000], "trial": 0, "serialpos": 11, "trial_type": "single-stim", "trial_index": 32, "time_elapsed": 443699, "internal_node_id": "0.0-23.0"}}, {"uniqueid": "MTK0157:3RWE2M8QWIH710DJA41277GI6X2N0B", "current_trial": 33, "dateTime": 1509380210649, "trialdata": {"rt": -1, "stimulus": "<p id=\"stim\">GRAVEL</p>", "key_press": -1, "type": "PRES_VIS", "word": "gravel", "wordID": 658, "conditions": [18, 1200, "v", 18000], "trial": 0, "serialpos": 12, "trial_type": "single-stim", "trial_index": 33, "time_elapsed": 445744, "internal_node_id": "0.0-24.0"}}, {"uniqueid": "MTK0157:3RWE2M8QWIH710DJA41277GI6X2N0B", "current_trial": 34, "dateTime": 1509380212842, "trialdata": {"rt": -1, "stimulus": "<p id=\"stim\">COBRA</p>", "key_press": -1, "type": "PRES_VIS", "word": "cobra", "wordID": 335, "conditions": [18, 1200, "v", 18000], "trial": 0, "serialpos": 13, "trial_type": "single-stim", "trial_index": 34, "time_elapsed": 447936, "internal_node_id": "0.0-25.0"}}, {"uniqueid": "MTK0157:3RWE2M8QWIH710DJA41277GI6X2N0B", "current_trial": 35, "dateTime": 1509380214874, "trialdata": {"rt": -1, "stimulus": "<p id=\"stim\">FUNGUS</p>", "key_press": -1, "type": "PRES_VIS", "word": "fungus", "wordID": 613, "conditions": [18, 1200, "v", 18000], "trial": 0, "serialpos": 14, "trial_type": "single-stim", "trial_index": 35, "time_elapsed": 449969, "internal_node_id": "0.0-26.0"}}, {"uniqueid": "MTK0157:3RWE2M8QWIH710DJA41277GI6X2N0B", "current_trial": 36, "dateTime": 1509380217151, "trialdata": {"rt": -1, "stimulus": "<p id=\"stim\">BUNNY</p>", "key_press": -1, "type": "PRES_VIS", "word": "bunny", "wordID": 197, "conditions": [18, 1200, "v", 18000], "trial": 0, "serialpos": 15, "trial_type": "single-stim", "trial_index": 36, "time_elapsed": 452246, "internal_node_id": "0.0-27.0"}}, {"uniqueid": "MTK0157:3RWE2M8QWIH710DJA41277GI6X2N0B", "current_trial": 37, "dateTime": 1509380219277, "trialdata": {"rt": -1, "stimulus": "<p id=\"stim\">AIRPORT</p>", "key_press": -1, "type": "PRES_VIS", "word": "airport", "wordID": 12, "conditions": [18, 1200, "v", 18000], "trial": 0, "serialpos": 16, "trial_type": "single-stim", "trial_index": 37, "time_elapsed": 454372, "internal_node_id": "0.0-28.0"}}, {"uniqueid": "MTK0157:3RWE2M8QWIH710DJA41277GI6X2N0B", "current_trial": 38, "dateTime": 1509380221365, "trialdata": {"rt": -1, "stimulus": "<p id=\"stim\">KEEPER</p>", "key_press": -1, "type": "PRES_VIS", "word": "keeper", "wordID": 768, "conditions": [18, 1200, "v", 18000], "trial": 0, "serialpos": 17, "trial_type": "single-stim", "trial_index": 38, "time_elapsed": 456459, "internal_node_id": "0.0-29.0"}}, {"uniqueid": "MTK0157:3RWE2M8QWIH710DJA41277GI6X2N0B", "current_trial": 39, "dateTime": 1509380223703, "trialdata": {"rt": -1, "stimulus": "", "key_press": -1, "type": "PRE_RECALL_DELAY", "trial_type": "single-stim", "trial_index": 39, "time_elapsed": 458797, "internal_node_id": "0.0-30.0-0.0"}}, {"uniqueid": "MTK0157:3RWE2M8QWIH710DJA41277GI6X2N0B", "current_trial": 40, "dateTime": 1509380224208, "trialdata": {"rt": -1000, "stimulus": "/static/audio/400Hz.wav", "key_press": -1, "type": "PRE_RECALL_ALERT", "trial_type": "single-audio", "trial_index": 40, "time_elapsed": 459303, "internal_node_id": "0.0-31.0"}}, {"uniqueid": "MTK0157:3RWE2M8QWIH710DJA41277GI6X2N0B", "current_trial": 41, "dateTime": 1509380284224, "trialdata": {"rt": [5955, 13603, 17570, 22674, 29907, 36387, 42387, 55955], "recwords": ["loft", "author", "bug", "jelly", "keeper", "cobra", "hornet", "paddle"], "type": "FREE_RECALL", "conditions": [18, 1200, "v", 18000], "trial": 0, "trial_type": "free-recall", "trial_index": 41, "time_elapsed": 519315, "internal_node_id": "0.0-32.0-0.0"}}, {"uniqueid": "MTK0157:3RWE2M8QWIH710DJA41277GI6X2N0B", "current_trial": 42, "dateTime": 1509380298319, "trialdata": {"rt": 12090, "key_press": 70, "type": "INSTRUCTIONS", "trial_type": "text", "trial_index": 42, "time_elapsed": 533414, "internal_node_id": "0.0-33.0"}}, {"uniqueid": "MTK0157:3RWE2M8QWIH710DJA41277GI6X2N0B", "current_trial": 43, "dateTime": 1509380318332, "trialdata": {"rt": [3743, 7839, 12343], "responses": ["14", "15", "14"], "num1": [2, 4, 9, 7], "num2": [8, 3, 4, 8], "num3": [4, 8, 1, 7], "type": "DISTRACTOR", "conditions": [18, 1200, "a", 18000], "trial": 1, "trial_type": "math-distractor", "trial_index": 43, "time_elapsed": 553427, "internal_node_id": "0.0-34.0"}}, {"uniqueid": "MTK0157:3RWE2M8QWIH710DJA41277GI6X2N0B", "current_trial": 44, "dateTime": 1509380321340, "trialdata": {"rt": -1, "stimulus": "<p id=\"stim\">10</p>", "key_press": -1, "trial_type": "single-stim", "trial_index": 44, "time_elapsed": 556435, "internal_node_id": "0.0-35.0-0.0"}}, {"uniqueid": "MTK0157:3RWE2M8QWIH710DJA41277GI6X2N0B", "current_trial": 45, "dateTime": 1509380322342, "trialdata": {"rt": -1, "stimulus": "<p id=\"stim\">9</p>", "key_press": -1, "trial_type": "single-stim", "trial_index": 45, "time_elapsed": 557437, "internal_node_id": "0.0-35.0-1.0"}}, {"uniqueid": "MTK0157:3RWE2M8QWIH710DJA41277GI6X2N0B", "current_trial": 46, "dateTime": 1509380323344, "trialdata": {"rt": -1, "stimulus": "<p id=\"stim\">8</p>", "key_press": -1, "trial_type": "single-stim", "trial_index": 46, "time_elapsed": 558438, "internal_node_id": "0.0-35.0-2.0"}}, {"uniqueid": "MTK0157:3RWE2M8QWIH710DJA41277GI6X2N0B", "current_trial": 47, "dateTime": 1509380324347, "trialdata": {"rt": -1, "stimulus": "<p id=\"stim\">7</p>", "key_press": -1, "trial_type": "single-stim", "trial_index": 47, "time_elapsed": 559442, "internal_node_id": "0.0-35.0-3.0"}}, {"uniqueid": "MTK0157:3RWE2M8QWIH710DJA41277GI6X2N0B", "current_trial": 48, "dateTime": 1509380325349, "trialdata": {"rt": -1, "stimulus": "<p id=\"stim\">6</p>", "key_press": -1, "trial_type": "single-stim", "trial_index": 48, "time_elapsed": 560443, "internal_node_id": "0.0-35.0-4.0"}}, {"uniqueid": "MTK0157:3RWE2M8QWIH710DJA41277GI6X2N0B", "current_trial": 49, "dateTime": 1509380326350, "trialdata": {"rt": -1, "stimulus": "<p id=\"stim\">5</p>", "key_press": -1, "trial_type": "single-stim", "trial_index": 49, "time_elapsed": 561445, "internal_node_id": "0.0-35.0-5.0"}}, {"uniqueid": "MTK0157:3RWE2M8QWIH710DJA41277GI6X2N0B", "current_trial": 50, "dateTime": 1509380327364, "trialdata": {"rt": -1, "stimulus": "<p id=\"stim\">4</p>", "key_press": -1, "trial_type": "single-stim", "trial_index": 50, "time_elapsed": 562459, "internal_node_id": "0.0-35.0-6.0"}}, {"uniqueid": "MTK0157:3RWE2M8QWIH710DJA41277GI6X2N0B", "current_trial": 51, "dateTime": 1509380328371, "trialdata": {"rt": -1, "stimulus": "<p id=\"stim\">3</p>", "key_press": -1, "trial_type": "single-stim", "trial_index": 51, "time_elapsed": 563466, "internal_node_id": "0.0-35.0-7.0"}}, {"uniqueid": "MTK0157:3RWE2M8QWIH710DJA41277GI6X2N0B", "current_trial": 52, "dateTime": 1509380329384, "trialdata": {"rt": -1, "stimulus": "<p id=\"stim\">2</p>", "key_press": -1, "trial_type": "single-stim", "trial_index": 52, "time_elapsed": 564479, "internal_node_id": "0.0-35.0-8.0"}}, {"uniqueid": "MTK0157:3RWE2M8QWIH710DJA41277GI6X2N0B", "current_trial": 53, "dateTime": 1509380330386, "trialdata": {"rt": -1, "stimulus": "<p id=\"stim\">1</p>", "key_press": -1, "trial_type": "single-stim", "trial_index": 53, "time_elapsed": 565481, "internal_node_id": "0.0-35.0-9.0"}}, {"uniqueid": "MTK0157:3RWE2M8QWIH710DJA41277GI6X2N0B", "current_trial": 54, "dateTime": 1509380331891, "trialdata": {"rt": -1, "stimulus": "<p id=\"stim\">+</p>", "key_press": -1, "type": "FIXATION", "trial_type": "single-stim", "trial_index": 54, "time_elapsed": 566986, "internal_node_id": "0.0-36.0-0.0"}}, {"uniqueid": "MTK0157:3RWE2M8QWIH710DJA41277GI6X2N0B", "current_trial": 55, "dateTime": 1509380333910, "trialdata": {"rt": -1000, "stimulus": "/static/audio/wordpool/WAITRESS.wav", "key_press": -1, "type": "PRES_AUD", "word": "waitress", "wordID": 1580, "conditions": [18, 1200, "a", 18000], "trial": 1, "serialpos": 0, "trial_type": "single-audio", "trial_index": 55, "time_elapsed": 569005, "internal_node_id": "0.0-37.0"}}, {"uniqueid": "MTK0157:3RWE2M8QWIH710DJA41277GI6X2N0B", "current_trial": 56, "dateTime": 1509380336264, "trialdata": {"rt": -1000, "stimulus": "/static/audio/wordpool/ROD.wav", "key_press": -1, "type": "PRES_AUD", "word": "rod", "wordID": 1202, "conditions": [18, 1200, "a", 18000], "trial": 1, "serialpos": 1, "trial_type": "single-audio", "trial_index": 56, "time_elapsed": 571359, "internal_node_id": "0.0-38.0"}}, {"uniqueid": "MTK0157:3RWE2M8QWIH710DJA41277GI6X2N0B", "current_trial": 57, "dateTime": 1509380338314, "trialdata": {"rt": -1000, "stimulus": "/static/audio/wordpool/GLOVE.wav", "key_press": -1, "type": "PRES_AUD", "word": "glove", "wordID": 641, "conditions": [18, 1200, "a", 18000], "trial": 1, "serialpos": 2, "trial_type": "single-audio", "trial_index": 57, "time_elapsed": 573408, "internal_node_id": "0.0-39.0"}}, {"uniqueid": "MTK0157:3RWE2M8QWIH710DJA41277GI6X2N0B", "current_trial": 58, "dateTime": 1509380340661, "trialdata": {"rt": -1000, "stimulus": "/static/audio/wordpool/SUMMIT.wav", "key_press": -1, "type": "PRES_AUD", "word": "summit", "wordID": 1404, "conditions": [18, 1200, "a", 18000], "trial": 1, "serialpos": 3, "trial_type": "single-audio", "trial_index": 58, "time_elapsed": 575756, "internal_node_id": "0.0-40.0"}}, {"uniqueid": "MTK0157:3RWE2M8QWIH710DJA41277GI6X2N0B", "current_trial": 59, "dateTime": 1509380342935, "trialdata": {"rt": -1000, "stimulus": "/static/audio/wordpool/BRACES.wav", "key_press": -1, "type": "PRES_AUD", "word": "braces", "wordID": 163, "conditions": [18, 1200, "a", 18000], "trial": 1, "serialpos": 4, "trial_type": "single-audio", "trial_index": 59, "time_elapsed": 578030, "internal_node_id": "0.0-41.0"}}, {"uniqueid": "MTK0157:3RWE2M8QWIH710DJA41277GI6X2N0B", "current_trial": 60, "dateTime": 1509380345268, "trialdata": {"rt": -1000, "stimulus": "/static/audio/wordpool/PUDDING.wav", "key_press": -1, "type": "PRES_AUD", "word": "pudding", "wordID": 1138, "conditions": [18, 1200, "a", 18000], "trial": 1, "serialpos": 5, "trial_type": "single-audio", "trial_index": 60, "time_elapsed": 580362, "internal_node_id": "0.0-42.0"}}, {"uniqueid": "MTK0157:3RWE2M8QWIH710DJA41277GI6X2N0B", "current_trial": 61, "dateTime": 1509380347298, "trialdata": {"rt": -1000, "stimulus": "/static/audio/wordpool/PERMIT.wav", "key_press": -1, "type": "PRES_AUD", "word": "permit", "wordID": 1050, "conditions": [18, 1200, "a", 18000], "trial": 1, "serialpos": 6, "trial_type": "single-audio", "trial_index": 61, "time_elapsed": 582392, "internal_node_id": "0.0-43.0"}}, {"uniqueid": "MTK0157:3RWE2M8QWIH710DJA41277GI6X2N0B", "current_trial": 62, "dateTime": 1509380349587, "trialdata": {"rt": -1000, "stimulus": "/static/audio/wordpool/SERVANT.wav", "key_press": -1, "type": "PRES_AUD", "word": "servant", "wordID": 1270, "conditions": [18, 1200, "a", 18000], "trial": 1, "serialpos": 7, "trial_type": "single-audio", "trial_index": 62, "time_elapsed": 584682, "internal_node_id": "0.0-44.0"}}, {"uniqueid": "MTK0157:3RWE2M8QWIH710DJA41277GI6X2N0B", "current_trial": 63, "dateTime": 1509380351978, "trialdata": {"rt": -1000, "stimulus": "/static/audio/wordpool/STALLION.wav", "key_press": -1, "type": "PRES_AUD", "word": "stallion", "wordID": 1368, "conditions": [18, 1200, "a", 18000], "trial": 1, "serialpos": 8, "trial_type": "single-audio", "trial_index": 63, "time_elapsed": 587072, "internal_node_id": "0.0-45.0"}}, {"uniqueid": "MTK0157:3RWE2M8QWIH710DJA41277GI6X2N0B", "current_trial": 64, "dateTime": 1509380354380, "trialdata": {"rt": -1000, "stimulus": "/static/audio/wordpool/OINTMENT.wav", "key_press": -1, "type": "PRES_AUD", "word": "ointment", "wordID": 973, "conditions": [18, 1200, "a", 18000], "trial": 1, "serialpos": 9, "trial_type": "single-audio", "trial_index": 64, "time_elapsed": 589475, "internal_node_id": "0.0-46.0"}}, {"uniqueid": "MTK0157:3RWE2M8QWIH710DJA41277GI6X2N0B", "current_trial": 65, "dateTime": 1509380356458, "trialdata": {"rt": -1000, "stimulus": "/static/audio/wordpool/CROWN.wav", "key_press": -1, "type": "PRES_AUD", "word": "crown", "wordID": 414, "conditions": [18, 1200, "a", 18000], "trial": 1, "serialpos": 10, "trial_type": "single-audio", "trial_index": 65, "time_elapsed": 591553, "internal_node_id": "0.0-47.0"}}, {"uniqueid": "MTK0157:3RWE2M8QWIH710DJA41277GI6X2N0B", "current_trial": 66, "dateTime": 1509380358709, "trialdata": {"rt": -1000, "stimulus": "/static/audio/wordpool/REPORT.wav", "key_press": -1, "type": "PRES_AUD", "word": "report", "wordID": 1183, "conditions": [18, 1200, "a", 18000], "trial": 1, "serialpos": 11, "trial_type": "single-audio", "trial_index": 66, "time_elapsed": 593803, "internal_node_id": "0.0-48.0"}}, {"uniqueid": "MTK0157:3RWE2M8QWIH710DJA41277GI6X2N0B", "current_trial": 67, "dateTime": 1509380360795, "trialdata": {"rt": -1000, "stimulus": "/static/audio/wordpool/HONEY.wav", "key_press": -1, "type": "PRES_AUD", "word": "honey", "wordID": 712, "conditions": [18, 1200, "a", 18000], "trial": 1, "serialpos": 12, "trial_type": "single-audio", "trial_index": 67, "time_elapsed": 595887, "internal_node_id": "0.0-49.0"}}, {"uniqueid": "MTK0157:3RWE2M8QWIH710DJA41277GI6X2N0B", "current_trial": 68, "dateTime": 1509380362936, "trialdata": {"rt": -1000, "stimulus": "/static/audio/wordpool/TRIBE.wav", "key_press": -1, "type": "PRES_AUD", "word": "tribe", "wordID": 1504, "conditions": [18, 1200, "a", 18000], "trial": 1, "serialpos": 13, "trial_type": "single-audio", "trial_index": 68, "time_elapsed": 598031, "internal_node_id": "0.0-50.0"}}, {"uniqueid": "MTK0157:3RWE2M8QWIH710DJA41277GI6X2N0B", "current_trial": 69, "dateTime": 1509380365180, "trialdata": {"rt": -1000, "stimulus": "/static/audio/wordpool/SPOON.wav", "key_press": -1, "type": "PRES_AUD", "word": "spoon", "wordID": 1356, "conditions": [18, 1200, "a", 18000], "trial": 1, "serialpos": 14, "trial_type": "single-audio", "trial_index": 69, "time_elapsed": 600274, "internal_node_id": "0.0-51.0"}}, {"uniqueid": "MTK0157:3RWE2M8QWIH710DJA41277GI6X2N0B", "current_trial": 70, "dateTime": 1509380367509, "trialdata": {"rt": -1000, "stimulus": "/static/audio/wordpool/WHISKERS.wav", "key_press": -1, "type": "PRES_AUD", "word": "whiskers", "wordID": 1604, "conditions": [18, 1200, "a", 18000], "trial": 1, "serialpos": 15, "trial_type": "single-audio", "trial_index": 70, "time_elapsed": 602604, "internal_node_id": "0.0-52.0"}}, {"uniqueid": "MTK0157:3RWE2M8QWIH710DJA41277GI6X2N0B", "current_trial": 71, "dateTime": 1509380369822, "trialdata": {"rt": -1000, "stimulus": "/static/audio/wordpool/BEAST.wav", "key_press": -1, "type": "PRES_AUD", "word": "beast", "wordID": 107, "conditions": [18, 1200, "a", 18000], "trial": 1, "serialpos": 16, "trial_type": "single-audio", "trial_index": 71, "time_elapsed": 604916, "internal_node_id": "0.0-53.0"}}, {"uniqueid": "MTK0157:3RWE2M8QWIH710DJA41277GI6X2N0B", "current_trial": 72, "dateTime": 1509380372215, "trialdata": {"rt": -1000, "stimulus": "/static/audio/wordpool/MILK.wav", "key_press": -1, "type": "PRES_AUD", "word": "milk", "wordID": 894, "conditions": [18, 1200, "a", 18000], "trial": 1, "serialpos": 17, "trial_type": "single-audio", "trial_index": 72, "time_elapsed": 607310, "internal_node_id": "0.0-54.0"}}, {"uniqueid": "MTK0157:3RWE2M8QWIH710DJA41277GI6X2N0B", "current_trial": 73, "dateTime": 1509380373489, "trialdata": {"rt": -1, "stimulus": "", "key_press": -1, "type": "PRE_RECALL_DELAY", "trial_type": "single-stim", "trial_index": 73, "time_elapsed": 608584, "internal_node_id": "0.0-55.0-0.0"}}, {"uniqueid": "MTK0157:3RWE2M8QWIH710DJA41277GI6X2N0B", "current_trial": 74, "dateTime": 1509380373991, "trialdata": {"rt": -1000, "stimulus": "/static/audio/400Hz.wav", "key_press": -1, "type": "PRE_RECALL_ALERT", "trial_type": "single-audio", "trial_index": 74, "time_elapsed": 609086, "internal_node_id": "0.0-56.0"}}, {"uniqueid": "MTK0157:3RWE2M8QWIH710DJA41277GI6X2N0B", "current_trial": 75, "dateTime": 1509380434011, "trialdata": {"rt": [5581, 11125, 17725, 22837, 31293, 40581, 48085, 54141], "recwords": ["milk", "ointment", "rod", "racist", "waitress", "beast", "wiskers", "spoon"], "type": "FREE_RECALL", "conditions": [18, 1200, "a", 18000], "trial": 1, "trial_type": "free-recall", "trial_index": 75, "time_elapsed": 669101, "internal_node_id": "0.0-57.0-0.0"}}, {"uniqueid": "MTK0157:3RWE2M8QWIH710DJA41277GI6X2N0B", "current_trial": 76, "dateTime": 1509380469239, "trialdata": {"rt": 33219, "key_press": 71, "type": "INSTRUCTIONS", "trial_type": "text", "trial_index": 76, "time_elapsed": 704334, "internal_node_id": "0.0-58.0"}}, {"uniqueid": "MTK0157:3RWE2M8QWIH710DJA41277GI6X2N0B", "current_trial": 77, "dateTime": 1509380482245, "trialdata": {"rt": [4925, 9406], "responses": ["23", "15"], "num1": [7, 7, 2], "num2": [9, 7, 1], "num3": [7, 1, 1], "type": "DISTRACTOR", "conditions": [24, 800, "v", 12000], "trial": 2, "trial_type": "math-distractor", "trial_index": 77, "time_elapsed": 717339, "internal_node_id": "0.0-59.0"}}, {"uniqueid": "MTK0157:3RWE2M8QWIH710DJA41277GI6X2N0B", "current_trial": 78, "dateTime": 1509380485261, "trialdata": {"rt": -1, "stimulus": "<p id=\"stim\">10</p>", "key_press": -1, "trial_type": "single-stim", "trial_index": 78, "time_elapsed": 720356, "internal_node_id": "0.0-60.0-0.0"}}, {"uniqueid": "MTK0157:3RWE2M8QWIH710DJA41277GI6X2N0B", "current_trial": 79, "dateTime": 1509380486269, "trialdata": {"rt": -1, "stimulus": "<p id=\"stim\">9</p>", "key_press": -1, "trial_type": "single-stim", "trial_index": 79, "time_elapsed": 721364, "internal_node_id": "0.0-60.0-1.0"}}, {"uniqueid": "MTK0157:3RWE2M8QWIH710DJA41277GI6X2N0B", "current_trial": 80, "dateTime": 1509380487286, "trialdata": {"rt": -1, "stimulus": "<p id=\"stim\">8</p>", "key_press": -1, "trial_type": "single-stim", "trial_index": 80, "time_elapsed": 722380, "internal_node_id": "0.0-60.0-2.0"}}, {"uniqueid": "MTK0157:3RWE2M8QWIH710DJA41277GI6X2N0B", "current_trial": 81, "dateTime": 1509380488288, "trialdata": {"rt": -1, "stimulus": "<p id=\"stim\">7</p>", "key_press": -1, "trial_type": "single-stim", "trial_index": 81, "time_elapsed": 723383, "internal_node_id": "0.0-60.0-3.0"}}, {"uniqueid": "MTK0157:3RWE2M8QWIH710DJA41277GI6X2N0B", "current_trial": 82, "dateTime": 1509380489300, "trialdata": {"rt": -1, "stimulus": "<p id=\"stim\">6</p>", "key_press": -1, "trial_type": "single-stim", "trial_index": 82, "time_elapsed": 724395, "internal_node_id": "0.0-60.0-4.0"}}, {"uniqueid": "MTK0157:3RWE2M8QWIH710DJA41277GI6X2N0B", "current_trial": 83, "dateTime": 1509380490303, "trialdata": {"rt": -1, "stimulus": "<p id=\"stim\">5</p>", "key_press": -1, "trial_type": "single-stim", "trial_index": 83, "time_elapsed": 725398, "internal_node_id": "0.0-60.0-5.0"}}, {"uniqueid": "MTK0157:3RWE2M8QWIH710DJA41277GI6X2N0B", "current_trial": 84, "dateTime": 1509380491309, "trialdata": {"rt": -1, "stimulus": "<p id=\"stim\">4</p>", "key_press": -1, "trial_type": "single-stim", "trial_index": 84, "time_elapsed": 726404, "internal_node_id": "0.0-60.0-6.0"}}, {"uniqueid": "MTK0157:3RWE2M8QWIH710DJA41277GI6X2N0B", "current_trial": 85, "dateTime": 1509380492319, "trialdata": {"rt": -1, "stimulus": "<p id=\"stim\">3</p>", "key_press": -1, "trial_type": "single-stim", "trial_index": 85, "time_elapsed": 727414, "internal_node_id": "0.0-60.0-7.0"}}, {"uniqueid": "MTK0157:3RWE2M8QWIH710DJA41277GI6X2N0B", "current_trial": 86, "dateTime": 1509380493321, "trialdata": {"rt": -1, "stimulus": "<p id=\"stim\">2</p>", "key_press": -1, "trial_type": "single-stim", "trial_index": 86, "time_elapsed": 728416, "internal_node_id": "0.0-60.0-8.0"}}, {"uniqueid": "MTK0157:3RWE2M8QWIH710DJA41277GI6X2N0B", "current_trial": 87, "dateTime": 1509380494335, "trialdata": {"rt": -1, "stimulus": "<p id=\"stim\">1</p>", "key_press": -1, "trial_type": "single-stim", "trial_index": 87, "time_elapsed": 729430, "internal_node_id": "0.0-60.0-9.0"}}, {"uniqueid": "MTK0157:3RWE2M8QWIH710DJA41277GI6X2N0B", "current_trial": 88, "dateTime": 1509380495845, "trialdata": {"rt": -1, "stimulus": "<p id=\"stim\">+</p>", "key_press": -1, "type": "FIXATION", "trial_type": "single-stim", "trial_index": 88, "time_elapsed": 730940, "internal_node_id": "0.0-61.0-0.0"}}, {"uniqueid": "MTK0157:3RWE2M8QWIH710DJA41277GI6X2N0B", "current_trial": 89, "dateTime": 1509380496647, "trialdata": {"rt": -1, "stimulus": "<p id=\"stim\">SAUSAGE</p>", "key_press": -1, "type": "PRES_VIS", "word": "sausage", "wordID": 1237, "conditions": [24, 800, "v", 12000], "trial": 2, "serialpos": 0, "trial_type": "single-stim", "trial_index": 89, "time_elapsed": 731741, "internal_node_id": "0.0-62.0"}}, {"uniqueid": "MTK0157:3RWE2M8QWIH710DJA41277GI6X2N0B", "current_trial": 90, "dateTime": 1509380498645, "trialdata": {"rt": -1, "stimulus": "<p id=\"stim\">JELLO</p>", "key_press": -1, "type": "PRES_VIS", "word": "jello", "wordID": 753, "conditions": [24, 800, "v", 12000], "trial": 2, "serialpos": 1, "trial_type": "single-stim", "trial_index": 90, "time_elapsed": 733739, "internal_node_id": "0.0-63.0"}}, {"uniqueid": "MTK0157:3RWE2M8QWIH710DJA41277GI6X2N0B", "current_trial": 91, "dateTime": 1509380500348, "trialdata": {"rt": -1, "stimulus": "<p id=\"stim\">TWEEZERS</p>", "key_press": -1, "type": "PRES_VIS", "word": "tweezers", "wordID": 1525, "conditions": [24, 800, "v", 12000], "trial": 2, "serialpos": 2, "trial_type": "single-stim", "trial_index": 91, "time_elapsed": 735443, "internal_node_id": "0.0-64.0"}}, {"uniqueid": "MTK0157:3RWE2M8QWIH710DJA41277GI6X2N0B", "current_trial": 92, "dateTime": 1509380502288, "trialdata": {"rt": -1, "stimulus": "<p id=\"stim\">VICTIM</p>", "key_press": -1, "type": "PRES_VIS", "word": "victim", "wordID": 1561, "conditions": [24, 800, "v", 12000], "trial": 2, "serialpos": 3, "trial_type": "single-stim", "trial_index": 92, "time_elapsed": 737383, "internal_node_id": "0.0-65.0"}}, {"uniqueid": "MTK0157:3RWE2M8QWIH710DJA41277GI6X2N0B", "current_trial": 93, "dateTime": 1509380504111, "trialdata": {"rt": -1, "stimulus": "<p id=\"stim\">PANTHER</p>", "key_press": -1, "type": "PRES_VIS", "word": "panther", "wordID": 1008, "conditions": [24, 800, "v", 12000], "trial": 2, "serialpos": 4, "trial_type": "single-stim", "trial_index": 93, "time_elapsed": 739206, "internal_node_id": "0.0-66.0"}}, {"uniqueid": "MTK0157:3RWE2M8QWIH710DJA41277GI6X2N0B", "current_trial": 94, "dateTime": 1509380505747, "trialdata": {"rt": -1, "stimulus": "<p id=\"stim\">CABBAGE</p>", "key_press": -1, "type": "PRES_VIS", "word": "cabbage", "wordID": 209, "conditions": [24, 800, "v", 12000], "trial": 2, "serialpos": 5, "trial_type": "single-stim", "trial_index": 94, "time_elapsed": 740841, "internal_node_id": "0.0-67.0"}}, {"uniqueid": "MTK0157:3RWE2M8QWIH710DJA41277GI6X2N0B", "current_trial": 95, "dateTime": 1509380507574, "trialdata": {"rt": -1, "stimulus": "<p id=\"stim\">PARSLEY</p>", "key_press": -1, "type": "PRES_VIS", "word": "parsley", "wordID": 1015, "conditions": [24, 800, "v", 12000], "trial": 2, "serialpos": 6, "trial_type": "single-stim", "trial_index": 95, "time_elapsed": 742669, "internal_node_id": "0.0-68.0"}}, {"uniqueid": "MTK0157:3RWE2M8QWIH710DJA41277GI6X2N0B", "current_trial": 96, "dateTime": 1509380509496, "trialdata": {"rt": -1, "stimulus": "<p id=\"stim\">CHIPMUNK</p>", "key_press": -1, "type": "PRES_VIS", "word": "chipmunk", "wordID": 303, "conditions": [24, 800, "v", 12000], "trial": 2, "serialpos": 7, "trial_type": "single-stim", "trial_index": 96, "time_elapsed": 744591, "internal_node_id": "0.0-69.0"}}, {"uniqueid": "MTK0157:3RWE2M8QWIH710DJA41277GI6X2N0B", "current_trial": 97, "dateTime": 1509380511287, "trialdata": {"rt": -1, "stimulus": "<p id=\"stim\">PERCH</p>", "key_press": -1, "type": "PRES_VIS", "word": "perch", "wordID": 1047, "conditions": [24, 800, "v", 12000], "trial": 2, "serialpos": 8, "trial_type": "single-stim", "trial_index": 97, "time_elapsed": 746382, "internal_node_id": "0.0-70.0"}}, {"uniqueid": "MTK0157:3RWE2M8QWIH710DJA41277GI6X2N0B", "current_trial": 98, "dateTime": 1509380512944, "trialdata": {"rt": -1, "stimulus": "<p id=\"stim\">CLIMBER</p>", "key_press": -1, "type": "PRES_VIS", "word": "climber", "wordID": 322, "conditions": [24, 800, "v", 12000], "trial": 2, "serialpos": 9, "trial_type": "single-stim", "trial_index": 98, "time_elapsed": 748039, "internal_node_id": "0.0-71.0"}}, {"uniqueid": "MTK0157:3RWE2M8QWIH710DJA41277GI6X2N0B", "current_trial": 99, "dateTime": 1509380514843, "trialdata": {"rt": -1, "stimulus": "<p id=\"stim\">ORCHID</p>", "key_press": -1, "type": "PRES_VIS", "word": "orchid", "wordID": 981, "conditions": [24, 800, "v", 12000], "trial": 2, "serialpos": 10, "trial_type": "single-stim", "trial_index": 99, "time_elapsed": 749938, "internal_node_id": "0.0-72.0"}}, {"uniqueid": "MTK0157:3RWE2M8QWIH710DJA41277GI6X2N0B", "current_trial": 100, "dateTime": 1509380516478, "trialdata": {"rt": -1, "stimulus": "<p id=\"stim\">LEOPARD</p>", "key_press": -1, "type": "PRES_VIS", "word": "leopard", "wordID": 811, "conditions": [24, 800, "v", 12000], "trial": 2, "serialpos": 11, "trial_type": "single-stim", "trial_index": 100, "time_elapsed": 751573, "internal_node_id": "0.0-73.0"}}, {"uniqueid": "MTK0157:3RWE2M8QWIH710DJA41277GI6X2N0B", "current_trial": 101, "dateTime": 1509380518112, "trialdata": {"rt": -1, "stimulus": "<p id=\"stim\">PEANUT</p>", "key_press": -1, "type": "PRES_VIS", "word": "peanut", "wordID": 1031, "conditions": [24, 800, "v", 12000], "trial": 2, "serialpos": 12, "trial_type": "single-stim", "trial_index": 101, "time_elapsed": 753207, "internal_node_id": "0.0-74.0"}}, {"uniqueid": "MTK0157:3RWE2M8QWIH710DJA41277GI6X2N0B", "current_trial": 102, "dateTime": 1509380520020, "trialdata": {"rt": -1, "stimulus": "<p id=\"stim\">BELLY</p>", "key_press": -1, "type": "PRES_VIS", "word": "belly", "wordID": 118, "conditions": [24, 800, "v", 12000], "trial": 2, "serialpos": 13, "trial_type": "single-stim", "trial_index": 102, "time_elapsed": 755115, "internal_node_id": "0.0-75.0"}}, {"uniqueid": "MTK0157:3RWE2M8QWIH710DJA41277GI6X2N0B", "current_trial": 103, "dateTime": 1509380521682, "trialdata": {"rt": -1, "stimulus": "<p id=\"stim\">TUBA</p>", "key_press": -1, "type": "PRES_VIS", "word": "tuba", "wordID": 1514, "conditions": [24, 800, "v", 12000], "trial": 2, "serialpos": 14, "trial_type": "single-stim", "trial_index": 103, "time_elapsed": 756777, "internal_node_id": "0.0-76.0"}}, {"uniqueid": "MTK0157:3RWE2M8QWIH710DJA41277GI6X2N0B", "current_trial": 104, "dateTime": 1509380523372, "trialdata": {"rt": -1, "stimulus": "<p id=\"stim\">CATTLE</p>", "key_press": -1, "type": "PRES_VIS", "word": "cattle", "wordID": 260, "conditions": [24, 800, "v", 12000], "trial": 2, "serialpos": 15, "trial_type": "single-stim", "trial_index": 104, "time_elapsed": 758467, "internal_node_id": "0.0-77.0"}}, {"uniqueid": "MTK0157:3RWE2M8QWIH710DJA41277GI6X2N0B", "current_trial": 105, "dateTime": 1509380525231, "trialdata": {"rt": -1, "stimulus": "<p id=\"stim\">SUITCASE</p>", "key_press": -1, "type": "PRES_VIS", "word": "suitcase", "wordID": 1402, "conditions": [24, 800, "v", 12000], "trial": 2, "serialpos": 16, "trial_type": "single-stim", "trial_index": 105, "time_elapsed": 760326, "internal_node_id": "0.0-78.0"}}, {"uniqueid": "MTK0157:3RWE2M8QWIH710DJA41277GI6X2N0B", "current_trial": 106, "dateTime": 1509380526885, "trialdata": {"rt": -1, "stimulus": "<p id=\"stim\">FLUTE</p>", "key_press": -1, "type": "PRES_VIS", "word": "flute", "wordID": 584, "conditions": [24, 800, "v", 12000], "trial": 2, "serialpos": 17, "trial_type": "single-stim", "trial_index": 106, "time_elapsed": 761980, "internal_node_id": "0.0-79.0"}}, {"uniqueid": "MTK0157:3RWE2M8QWIH710DJA41277GI6X2N0B", "current_trial": 107, "dateTime": 1509380528793, "trialdata": {"rt": -1, "stimulus": "<p id=\"stim\">FOOT</p>", "key_press": -1, "type": "PRES_VIS", "word": "foot", "wordID": 589, "conditions": [24, 800, "v", 12000], "trial": 2, "serialpos": 18, "trial_type": "single-stim", "trial_index": 107, "time_elapsed": 763888, "internal_node_id": "0.0-80.0"}}, {"uniqueid": "MTK0157:3RWE2M8QWIH710DJA41277GI6X2N0B", "current_trial": 108, "dateTime": 1509380530554, "trialdata": {"rt": -1, "stimulus": "<p id=\"stim\">GLASS</p>", "key_press": -1, "type": "PRES_VIS", "word": "glass", "wordID": 638, "conditions": [24, 800, "v", 12000], "trial": 2, "serialpos": 19, "trial_type": "single-stim", "trial_index": 108, "time_elapsed": 765649, "internal_node_id": "0.0-81.0"}}, {"uniqueid": "MTK0157:3RWE2M8QWIH710DJA41277GI6X2N0B", "current_trial": 109, "dateTime": 1509380532179, "trialdata": {"rt": -1, "stimulus": "<p id=\"stim\">VELVET</p>", "key_press": -1, "type": "PRES_VIS", "word": "velvet", "wordID": 1554, "conditions": [24, 800, "v", 12000], "trial": 2, "serialpos": 20, "trial_type": "single-stim", "trial_index": 109, "time_elapsed": 767274, "internal_node_id": "0.0-82.0"}}, {"uniqueid": "MTK0157:3RWE2M8QWIH710DJA41277GI6X2N0B", "current_trial": 110, "dateTime": 1509380534104, "trialdata": {"rt": -1, "stimulus": "<p id=\"stim\">LACE</p>", "key_press": -1, "type": "PRES_VIS", "word": "lace", "wordID": 791, "conditions": [24, 800, "v", 12000], "trial": 2, "serialpos": 21, "trial_type": "single-stim", "trial_index": 110, "time_elapsed": 769199, "internal_node_id": "0.0-83.0"}}, {"uniqueid": "MTK0157:3RWE2M8QWIH710DJA41277GI6X2N0B", "current_trial": 111, "dateTime": 1509380535721, "trialdata": {"rt": -1, "stimulus": "<p id=\"stim\">SALMON</p>", "key_press": -1, "type": "PRES_VIS", "word": "salmon", "wordID": 1226, "conditions": [24, 800, "v", 12000], "trial": 2, "serialpos": 22, "trial_type": "single-stim", "trial_index": 111, "time_elapsed": 770815, "internal_node_id": "0.0-84.0"}}, {"uniqueid": "MTK0157:3RWE2M8QWIH710DJA41277GI6X2N0B", "current_trial": 112, "dateTime": 1509380537683, "trialdata": {"rt": -1, "stimulus": "<p id=\"stim\">SHOVEL</p>", "key_press": -1, "type": "PRES_VIS", "word": "shovel", "wordID": 1294, "conditions": [24, 800, "v", 12000], "trial": 2, "serialpos": 23, "trial_type": "single-stim", "trial_index": 112, "time_elapsed": 772778, "internal_node_id": "0.0-85.0"}}, {"uniqueid": "MTK0157:3RWE2M8QWIH710DJA41277GI6X2N0B", "current_trial": 113, "dateTime": 1509380539933, "trialdata": {"rt": -1, "stimulus": "", "key_press": -1, "type": "PRE_RECALL_DELAY", "trial_type": "single-stim", "trial_index": 113, "time_elapsed": 775028, "internal_node_id": "0.0-86.0-0.0"}}, {"uniqueid": "MTK0157:3RWE2M8QWIH710DJA41277GI6X2N0B", "current_trial": 114, "dateTime": 1509380540439, "trialdata": {"rt": -1000, "stimulus": "/static/audio/400Hz.wav", "key_press": -1, "type": "PRE_RECALL_ALERT", "trial_type": "single-audio", "trial_index": 114, "time_elapsed": 775534, "internal_node_id": "0.0-87.0"}}, {"uniqueid": "MTK0157:3RWE2M8QWIH710DJA41277GI6X2N0B", "current_trial": 115, "dateTime": 1509380600456, "trialdata": {"rt": [8805, 13205, 17741, 23445, 30301, 39541, 47133, 54461], "recwords": ["salmon", "jello", "belly", "suitcase", "sausage", "tweezers", "foot", "lace"], "type": "FREE_RECALL", "conditions": [24, 800, "v", 12000], "trial": 2, "trial_type": "free-recall", "trial_index": 115, "time_elapsed": 835547, "internal_node_id": "0.0-88.0-0.0"}}, {"uniqueid": "MTK0157:3RWE2M8QWIH710DJA41277GI6X2N0B", "current_trial": 116, "dateTime": 1509380609511, "trialdata": {"rt": 7053, "key_press": 70, "type": "INSTRUCTIONS", "trial_type": "text", "trial_index": 116, "time_elapsed": 844606, "internal_node_id": "0.0-89.0"}}, {"uniqueid": "MTK0157:3RWE2M8QWIH710DJA41277GI6X2N0B", "current_trial": 117, "dateTime": 1509380623530, "trialdata": {"rt": [3297, 6361, 10265], "responses": ["13", "9", "16"], "num1": [7, 1, 6, 3], "num2": [3, 1, 8, 6], "num3": [3, 7, 2, 7], "type": "DISTRACTOR", "conditions": [24, 1600, "a", 12000], "trial": 3, "trial_type": "math-distractor", "trial_index": 117, "time_elapsed": 858624, "internal_node_id": "0.0-90.0"}}, {"uniqueid": "MTK0157:3RWE2M8QWIH710DJA41277GI6X2N0B", "current_trial": 118, "dateTime": 1509380626548, "trialdata": {"rt": -1, "stimulus": "<p id=\"stim\">10</p>", "key_press": -1, "trial_type": "single-stim", "trial_index": 118, "time_elapsed": 861643, "internal_node_id": "0.0-91.0-0.0"}}, {"uniqueid": "MTK0157:3RWE2M8QWIH710DJA41277GI6X2N0B", "current_trial": 119, "dateTime": 1509380627564, "trialdata": {"rt": -1, "stimulus": "<p id=\"stim\">9</p>", "key_press": -1, "trial_type": "single-stim", "trial_index": 119, "time_elapsed": 862659, "internal_node_id": "0.0-91.0-1.0"}}, {"uniqueid": "MTK0157:3RWE2M8QWIH710DJA41277GI6X2N0B", "current_trial": 120, "dateTime": 1509380628569, "trialdata": {"rt": -1, "stimulus": "<p id=\"stim\">8</p>", "key_press": -1, "trial_type": "single-stim", "trial_index": 120, "time_elapsed": 863664, "internal_node_id": "0.0-91.0-2.0"}}, {"uniqueid": "MTK0157:3RWE2M8QWIH710DJA41277GI6X2N0B", "current_trial": 121, "dateTime": 1509380629571, "trialdata": {"rt": -1, "stimulus": "<p id=\"stim\">7</p>", "key_press": -1, "trial_type": "single-stim", "trial_index": 121, "time_elapsed": 864665, "internal_node_id": "0.0-91.0-3.0"}}, {"uniqueid": "MTK0157:3RWE2M8QWIH710DJA41277GI6X2N0B", "current_trial": 122, "dateTime": 1509380630573, "trialdata": {"rt": -1, "stimulus": "<p id=\"stim\">6</p>", "key_press": -1, "trial_type": "single-stim", "trial_index": 122, "time_elapsed": 865667, "internal_node_id": "0.0-91.0-4.0"}}, {"uniqueid": "MTK0157:3RWE2M8QWIH710DJA41277GI6X2N0B", "current_trial": 123, "dateTime": 1509380631574, "trialdata": {"rt": -1, "stimulus": "<p id=\"stim\">5</p>", "key_press": -1, "trial_type": "single-stim", "trial_index": 123, "time_elapsed": 866669, "internal_node_id": "0.0-91.0-5.0"}}, {"uniqueid": "MTK0157:3RWE2M8QWIH710DJA41277GI6X2N0B", "current_trial": 124, "dateTime": 1509380632575, "trialdata": {"rt": -1, "stimulus": "<p id=\"stim\">4</p>", "key_press": -1, "trial_type": "single-stim", "trial_index": 124, "time_elapsed": 867670, "internal_node_id": "0.0-91.0-6.0"}}, {"uniqueid": "MTK0157:3RWE2M8QWIH710DJA41277GI6X2N0B", "current_trial": 125, "dateTime": 1509380633577, "trialdata": {"rt": -1, "stimulus": "<p id=\"stim\">3</p>", "key_press": -1, "trial_type": "single-stim", "trial_index": 125, "time_elapsed": 868672, "internal_node_id": "0.0-91.0-7.0"}}, {"uniqueid": "MTK0157:3RWE2M8QWIH710DJA41277GI6X2N0B", "current_trial": 126, "dateTime": 1509380634579, "trialdata": {"rt": -1, "stimulus": "<p id=\"stim\">2</p>", "key_press": -1, "trial_type": "single-stim", "trial_index": 126, "time_elapsed": 869674, "internal_node_id": "0.0-91.0-8.0"}}, {"uniqueid": "MTK0157:3RWE2M8QWIH710DJA41277GI6X2N0B", "current_trial": 127, "dateTime": 1509380635592, "trialdata": {"rt": -1, "stimulus": "<p id=\"stim\">1</p>", "key_press": -1, "trial_type": "single-stim", "trial_index": 127, "time_elapsed": 870687, "internal_node_id": "0.0-91.0-9.0"}}, {"uniqueid": "MTK0157:3RWE2M8QWIH710DJA41277GI6X2N0B", "current_trial": 128, "dateTime": 1509380637096, "trialdata": {"rt": -1, "stimulus": "<p id=\"stim\">+</p>", "key_press": -1, "type": "FIXATION", "trial_type": "single-stim", "trial_index": 128, "time_elapsed": 872191, "internal_node_id": "0.0-92.0-0.0"}}, {"uniqueid": "MTK0157:3RWE2M8QWIH710DJA41277GI6X2N0B", "current_trial": 129, "dateTime": 1509380639518, "trialdata": {"rt": -1000, "stimulus": "/static/audio/wordpool/SHELTER.wav", "key_press": -1, "type": "PRES_AUD", "word": "shelter", "wordID": 1281, "conditions": [24, 1600, "a", 12000], "trial": 3, "serialpos": 0, "trial_type": "single-audio", "trial_index": 129, "time_elapsed": 874613, "internal_node_id": "0.0-93.0"}}, {"uniqueid": "MTK0157:3RWE2M8QWIH710DJA41277GI6X2N0B", "current_trial": 130, "dateTime": 1509380642006, "trialdata": {"rt": -1000, "stimulus": "/static/audio/wordpool/TEMPLE.wav", "key_press": -1, "type": "PRES_AUD", "word": "temple", "wordID": 1447, "conditions": [24, 1600, "a", 12000], "trial": 3, "serialpos": 1, "trial_type": "single-audio", "trial_index": 130, "time_elapsed": 877100, "internal_node_id": "0.0-94.0"}}, {"uniqueid": "MTK0157:3RWE2M8QWIH710DJA41277GI6X2N0B", "current_trial": 131, "dateTime": 1509380644548, "trialdata": {"rt": -1000, "stimulus": "/static/audio/wordpool/HEDGE.wav", "key_press": -1, "type": "PRES_AUD", "word": "hedge", "wordID": 698, "conditions": [24, 1600, "a", 12000], "trial": 3, "serialpos": 2, "trial_type": "single-audio", "trial_index": 131, "time_elapsed": 879642, "internal_node_id": "0.0-95.0"}}, {"uniqueid": "MTK0157:3RWE2M8QWIH710DJA41277GI6X2N0B", "current_trial": 132, "dateTime": 1509380647275, "trialdata": {"rt": -1000, "stimulus": "/static/audio/wordpool/POSTAGE.wav", "key_press": -1, "type": "PRES_AUD", "word": "postage", "wordID": 1112, "conditions": [24, 1600, "a", 12000], "trial": 3, "serialpos": 3, "trial_type": "single-audio", "trial_index": 132, "time_elapsed": 882370, "internal_node_id": "0.0-96.0"}}, {"uniqueid": "MTK0157:3RWE2M8QWIH710DJA41277GI6X2N0B", "current_trial": 133, "dateTime": 1509380649771, "trialdata": {"rt": -1000, "stimulus": "/static/audio/wordpool/DRUG.wav", "key_press": -1, "type": "PRES_AUD", "word": "drug", "wordID": 500, "conditions": [24, 1600, "a", 12000], "trial": 3, "serialpos": 4, "trial_type": "single-audio", "trial_index": 133, "time_elapsed": 884866, "internal_node_id": "0.0-97.0"}}, {"uniqueid": "MTK0157:3RWE2M8QWIH710DJA41277GI6X2N0B", "current_trial": 134, "dateTime": 1509380652392, "trialdata": {"rt": -1000, "stimulus": "/static/audio/wordpool/SHERIFF.wav", "key_press": -1, "type": "PRES_AUD", "word": "sheriff", "wordID": 1283, "conditions": [24, 1600, "a", 12000], "trial": 3, "serialpos": 5, "trial_type": "single-audio", "trial_index": 134, "time_elapsed": 887487, "internal_node_id": "0.0-98.0"}}, {"uniqueid": "MTK0157:3RWE2M8QWIH710DJA41277GI6X2N0B", "current_trial": 135, "dateTime": 1509380654795, "trialdata": {"rt": -1000, "stimulus": "/static/audio/wordpool/WRIST.wav", "key_press": -1, "type": "PRES_AUD", "word": "wrist", "wordID": 1625, "conditions": [24, 1600, "a", 12000], "trial": 3, "serialpos": 6, "trial_type": "single-audio", "trial_index": 135, "time_elapsed": 889890, "internal_node_id": "0.0-99.0"}}, {"uniqueid": "MTK0157:3RWE2M8QWIH710DJA41277GI6X2N0B", "current_trial": 136, "dateTime": 1509380657525, "trialdata": {"rt": -1000, "stimulus": "/static/audio/wordpool/SHOULDER.wav", "key_press": -1, "type": "PRES_AUD", "word": "shoulder", "wordID": 1293, "conditions": [24, 1600, "a", 12000], "trial": 3, "serialpos": 7, "trial_type": "single-audio", "trial_index": 136, "time_elapsed": 892620, "internal_node_id": "0.0-100.0"}}, {"uniqueid": "MTK0157:3RWE2M8QWIH710DJA41277GI6X2N0B", "current_trial": 137, "dateTime": 1509380660171, "trialdata": {"rt": -1000, "stimulus": "/static/audio/wordpool/ANKLE.wav", "key_press": -1, "type": "PRES_AUD", "word": "ankle", "wordID": 23, "conditions": [24, 1600, "a", 12000], "trial": 3, "serialpos": 8, "trial_type": "single-audio", "trial_index": 137, "time_elapsed": 895266, "internal_node_id": "0.0-101.0"}}, {"uniqueid": "MTK0157:3RWE2M8QWIH710DJA41277GI6X2N0B", "current_trial": 138, "dateTime": 1509380662697, "trialdata": {"rt": -1000, "stimulus": "/static/audio/wordpool/FINGER.wav", "key_press": -1, "type": "PRES_AUD", "word": "finger", "wordID": 566, "conditions": [24, 1600, "a", 12000], "trial": 3, "serialpos": 9, "trial_type": "single-audio", "trial_index": 138, "time_elapsed": 897791, "internal_node_id": "0.0-102.0"}}, {"uniqueid": "MTK0157:3RWE2M8QWIH710DJA41277GI6X2N0B", "current_trial": 139, "dateTime": 1509380665365, "trialdata": {"rt": -1000, "stimulus": "/static/audio/wordpool/ACTOR.wav", "key_press": -1, "type": "PRES_AUD", "word": "actor", "wordID": 4, "conditions": [24, 1600, "a", 12000], "trial": 3, "serialpos": 10, "trial_type": "single-audio", "trial_index": 139, "time_elapsed": 900460, "internal_node_id": "0.0-103.0"}}, {"uniqueid": "MTK0157:3RWE2M8QWIH710DJA41277GI6X2N0B", "current_trial": 140, "dateTime": 1509380668017, "trialdata": {"rt": -1000, "stimulus": "/static/audio/wordpool/EAGLE.wav", "key_press": -1, "type": "PRES_AUD", "word": "eagle", "wordID": 511, "conditions": [24, 1600, "a", 12000], "trial": 3, "serialpos": 11, "trial_type": "single-audio", "trial_index": 140, "time_elapsed": 903112, "internal_node_id": "0.0-104.0"}}, {"uniqueid": "MTK0157:3RWE2M8QWIH710DJA41277GI6X2N0B", "current_trial": 141, "dateTime": 1509380670662, "trialdata": {"rt": -1000, "stimulus": "/static/audio/wordpool/WOMAN.wav", "key_press": -1, "type": "PRES_AUD", "word": "woman", "wordID": 1619, "conditions": [24, 1600, "a", 12000], "trial": 3, "serialpos": 12, "trial_type": "single-audio", "trial_index": 141, "time_elapsed": 905756, "internal_node_id": "0.0-105.0"}}, {"uniqueid": "MTK0157:3RWE2M8QWIH710DJA41277GI6X2N0B", "current_trial": 142, "dateTime": 1509380673385, "trialdata": {"rt": -1000, "stimulus": "/static/audio/wordpool/BOYFRIEND.wav", "key_press": -1, "type": "PRES_AUD", "word": "boyfriend", "wordID": 161, "conditions": [24, 1600, "a", 12000], "trial": 3, "serialpos": 13, "trial_type": "single-audio", "trial_index": 142, "time_elapsed": 908480, "internal_node_id": "0.0-106.0"}}, {"uniqueid": "MTK0157:3RWE2M8QWIH710DJA41277GI6X2N0B", "current_trial": 143, "dateTime": 1509380675919, "trialdata": {"rt": -1000, "stimulus": "/static/audio/wordpool/TURTLE.wav", "key_press": -1, "type": "PRES_AUD", "word": "turtle", "wordID": 1521, "conditions": [24, 1600, "a", 12000], "trial": 3, "serialpos": 14, "trial_type": "single-audio", "trial_index": 143, "time_elapsed": 911014, "internal_node_id": "0.0-107.0"}}, {"uniqueid": "MTK0157:3RWE2M8QWIH710DJA41277GI6X2N0B", "current_trial": 144, "dateTime": 1509380678560, "trialdata": {"rt": -1000, "stimulus": "/static/audio/wordpool/SHARK.wav", "key_press": -1, "type": "PRES_AUD", "word": "shark", "wordID": 1274, "conditions": [24, 1600, "a", 12000], "trial": 3, "serialpos": 15, "trial_type": "single-audio", "trial_index": 144, "time_elapsed": 913654, "internal_node_id": "0.0-108.0"}}, {"uniqueid": "MTK0157:3RWE2M8QWIH710DJA41277GI6X2N0B", "current_trial": 145, "dateTime": 1509380681114, "trialdata": {"rt": -1000, "stimulus": "/static/audio/wordpool/DANCER.wav", "key_press": -1, "type": "PRES_AUD", "word": "dancer", "wordID": 436, "conditions": [24, 1600, "a", 12000], "trial": 3, "serialpos": 16, "trial_type": "single-audio", "trial_index": 145, "time_elapsed": 916208, "internal_node_id": "0.0-109.0"}}, {"uniqueid": "MTK0157:3RWE2M8QWIH710DJA41277GI6X2N0B", "current_trial": 146, "dateTime": 1509380683519, "trialdata": {"rt": -1000, "stimulus": "/static/audio/wordpool/CANAL.wav", "key_press": -1, "type": "PRES_AUD", "word": "canal", "wordID": 225, "conditions": [24, 1600, "a", 12000], "trial": 3, "serialpos": 17, "trial_type": "single-audio", "trial_index": 146, "time_elapsed": 918614, "internal_node_id": "0.0-110.0"}}, {"uniqueid": "MTK0157:3RWE2M8QWIH710DJA41277GI6X2N0B", "current_trial": 147, "dateTime": 1509380686194, "trialdata": {"rt": -1000, "stimulus": "/static/audio/wordpool/CRAYON.wav", "key_press": -1, "type": "PRES_AUD", "word": "crayon", "wordID": 400, "conditions": [24, 1600, "a", 12000], "trial": 3, "serialpos": 18, "trial_type": "single-audio", "trial_index": 147, "time_elapsed": 921289, "internal_node_id": "0.0-111.0"}}, {"uniqueid": "MTK0157:3RWE2M8QWIH710DJA41277GI6X2N0B", "current_trial": 148, "dateTime": 1509380688969, "trialdata": {"rt": -1000, "stimulus": "/static/audio/wordpool/ONION.wav", "key_press": -1, "type": "PRES_AUD", "word": "onion", "wordID": 976, "conditions": [24, 1600, "a", 12000], "trial": 3, "serialpos": 19, "trial_type": "single-audio", "trial_index": 148, "time_elapsed": 924064, "internal_node_id": "0.0-112.0"}}, {"uniqueid": "MTK0157:3RWE2M8QWIH710DJA41277GI6X2N0B", "current_trial": 149, "dateTime": 1509380691469, "trialdata": {"rt": -1000, "stimulus": "/static/audio/wordpool/LOVER.wav", "key_press": -1, "type": "PRES_AUD", "word": "lover", "wordID": 845, "conditions": [24, 1600, "a", 12000], "trial": 3, "serialpos": 20, "trial_type": "single-audio", "trial_index": 149, "time_elapsed": 926563, "internal_node_id": "0.0-113.0"}}, {"uniqueid": "MTK0157:3RWE2M8QWIH710DJA41277GI6X2N0B", "current_trial": 150, "dateTime": 1509380694024, "trialdata": {"rt": -1000, "stimulus": "/static/audio/wordpool/HIGHWAY.wav", "key_press": -1, "type": "PRES_AUD", "word": "highway", "wordID": 706, "conditions": [24, 1600, "a", 12000], "trial": 3, "serialpos": 21, "trial_type": "single-audio", "trial_index": 150, "time_elapsed": 929119, "internal_node_id": "0.0-114.0"}}, {"uniqueid": "MTK0157:3RWE2M8QWIH710DJA41277GI6X2N0B", "current_trial": 151, "dateTime": 1509380696542, "trialdata": {"rt": -1000, "stimulus": "/static/audio/wordpool/LAKE.wav", "key_press": -1, "type": "PRES_AUD", "word": "lake", "wordID": 795, "conditions": [24, 1600, "a", 12000], "trial": 3, "serialpos": 22, "trial_type": "single-audio", "trial_index": 151, "time_elapsed": 931637, "internal_node_id": "0.0-115.0"}}, {"uniqueid": "MTK0157:3RWE2M8QWIH710DJA41277GI6X2N0B", "current_trial": 152, "dateTime": 1509380699301, "trialdata": {"rt": -1000, "stimulus": "/static/audio/wordpool/TABLET.wav", "key_press": -1, "type": "PRES_AUD", "word": "tablet", "wordID": 1426, "conditions": [24, 1600, "a", 12000], "trial": 3, "serialpos": 23, "trial_type": "single-audio", "trial_index": 152, "time_elapsed": 934395, "internal_node_id": "0.0-116.0"}}, {"uniqueid": "MTK0157:3RWE2M8QWIH710DJA41277GI6X2N0B", "current_trial": 153, "dateTime": 1509380700594, "trialdata": {"rt": -1, "stimulus": "", "key_press": -1, "type": "PRE_RECALL_DELAY", "trial_type": "single-stim", "trial_index": 153, "time_elapsed": 935689, "internal_node_id": "0.0-117.0-0.0"}}, {"uniqueid": "MTK0157:3RWE2M8QWIH710DJA41277GI6X2N0B", "current_trial": 154, "dateTime": 1509380701096, "trialdata": {"rt": -1000, "stimulus": "/static/audio/400Hz.wav", "key_press": -1, "type": "PRE_RECALL_ALERT", "trial_type": "single-audio", "trial_index": 154, "time_elapsed": 936191, "internal_node_id": "0.0-118.0"}}, {"uniqueid": "MTK0157:3RWE2M8QWIH710DJA41277GI6X2N0B", "current_trial": 155, "dateTime": 1509380761103, "trialdata": {"rt": [4908, 11412, 16596, 21100, 26820, 32084, 40532, 48116, 54420, 59956], "recwords": ["tablet", "shark", "finger", "ankle", "drug", "dog", "woman", "crayon", "sheriff", "officer"], "type": "FREE_RECALL", "conditions": [24, 1600, "a", 12000], "trial": 3, "trial_type": "free-recall", "trial_index": 155, "time_elapsed": 996194, "internal_node_id": "0.0-119.0-0.0"}}, {"uniqueid": "MTK0157:3RWE2M8QWIH710DJA41277GI6X2N0B", "current_trial": 156, "dateTime": 1509380768351, "trialdata": {"rt": 5246, "key_press": 71, "type": "INSTRUCTIONS", "trial_type": "text", "trial_index": 156, "time_elapsed": 1003446, "internal_node_id": "0.0-120.0"}}, {"uniqueid": "MTK0157:3RWE2M8QWIH710DJA41277GI6X2N0B", "current_trial": 157, "dateTime": 1509380794386, "trialdata": {"rt": [3682, 6914, 9810, 13394, 17962, 21602], "responses": ["10", "10", "13", "23", "15", "15"], "num1": [1, 6, 5, 5, 4, 5, 2], "num2": [4, 1, 7, 9, 3, 8, 7], "num3": [5, 3, 1, 9, 8, 2, 9], "type": "DISTRACTOR", "conditions": [24, 1600, "a", 24000], "trial": 4, "trial_type": "math-distractor", "trial_index": 157, "time_elapsed": 1029480, "internal_node_id": "0.0-121.0"}}, {"uniqueid": "MTK0157:3RWE2M8QWIH710DJA41277GI6X2N0B", "current_trial": 158, "dateTime": 1509380797388, "trialdata": {"rt": -1, "stimulus": "<p id=\"stim\">10</p>", "key_press": -1, "trial_type": "single-stim", "trial_index": 158, "time_elapsed": 1032483, "internal_node_id": "0.0-122.0-0.0"}}, {"uniqueid": "MTK0157:3RWE2M8QWIH710DJA41277GI6X2N0B", "current_trial": 159, "dateTime": 1509380798391, "trialdata": {"rt": -1, "stimulus": "<p id=\"stim\">9</p>", "key_press": -1, "trial_type": "single-stim", "trial_index": 159, "time_elapsed": 1033486, "internal_node_id": "0.0-122.0-1.0"}}, {"uniqueid": "MTK0157:3RWE2M8QWIH710DJA41277GI6X2N0B", "current_trial": 160, "dateTime": 1509380799392, "trialdata": {"rt": -1, "stimulus": "<p id=\"stim\">8</p>", "key_press": -1, "trial_type": "single-stim", "trial_index": 160, "time_elapsed": 1034487, "internal_node_id": "0.0-122.0-2.0"}}, {"uniqueid": "MTK0157:3RWE2M8QWIH710DJA41277GI6X2N0B", "current_trial": 161, "dateTime": 1509380800393, "trialdata": {"rt": -1, "stimulus": "<p id=\"stim\">7</p>", "key_press": -1, "trial_type": "single-stim", "trial_index": 161, "time_elapsed": 1035488, "internal_node_id": "0.0-122.0-3.0"}}, {"uniqueid": "MTK0157:3RWE2M8QWIH710DJA41277GI6X2N0B", "current_trial": 162, "dateTime": 1509380801407, "trialdata": {"rt": -1, "stimulus": "<p id=\"stim\">6</p>", "key_press": -1, "trial_type": "single-stim", "trial_index": 162, "time_elapsed": 1036502, "internal_node_id": "0.0-122.0-4.0"}}, {"uniqueid": "MTK0157:3RWE2M8QWIH710DJA41277GI6X2N0B", "current_trial": 163, "dateTime": 1509380802409, "trialdata": {"rt": -1, "stimulus": "<p id=\"stim\">5</p>", "key_press": -1, "trial_type": "single-stim", "trial_index": 163, "time_elapsed": 1037504, "internal_node_id": "0.0-122.0-5.0"}}, {"uniqueid": "MTK0157:3RWE2M8QWIH710DJA41277GI6X2N0B", "current_trial": 164, "dateTime": 1509380803412, "trialdata": {"rt": -1, "stimulus": "<p id=\"stim\">4</p>", "key_press": -1, "trial_type": "single-stim", "trial_index": 164, "time_elapsed": 1038507, "internal_node_id": "0.0-122.0-6.0"}}, {"uniqueid": "MTK0157:3RWE2M8QWIH710DJA41277GI6X2N0B", "current_trial": 165, "dateTime": 1509380804414, "trialdata": {"rt": -1, "stimulus": "<p id=\"stim\">3</p>", "key_press": -1, "trial_type": "single-stim", "trial_index": 165, "time_elapsed": 1039509, "internal_node_id": "0.0-122.0-7.0"}}, {"uniqueid": "MTK0157:3RWE2M8QWIH710DJA41277GI6X2N0B", "current_trial": 166, "dateTime": 1509380805430, "trialdata": {"rt": -1, "stimulus": "<p id=\"stim\">2</p>", "key_press": -1, "trial_type": "single-stim", "trial_index": 166, "time_elapsed": 1040524, "internal_node_id": "0.0-122.0-8.0"}}, {"uniqueid": "MTK0157:3RWE2M8QWIH710DJA41277GI6X2N0B", "current_trial": 167, "dateTime": 1509380806433, "trialdata": {"rt": -1, "stimulus": "<p id=\"stim\">1</p>", "key_press": -1, "trial_type": "single-stim", "trial_index": 167, "time_elapsed": 1041528, "internal_node_id": "0.0-122.0-9.0"}}, {"uniqueid": "MTK0157:3RWE2M8QWIH710DJA41277GI6X2N0B", "current_trial": 168, "dateTime": 1509380807934, "trialdata": {"rt": -1, "stimulus": "<p id=\"stim\">+</p>", "key_press": -1, "type": "FIXATION", "trial_type": "single-stim", "trial_index": 168, "time_elapsed": 1043029, "internal_node_id": "0.0-123.0-0.0"}}, {"uniqueid": "MTK0157:3RWE2M8QWIH710DJA41277GI6X2N0B", "current_trial": 169, "dateTime": 1509380810485, "trialdata": {"rt": -1000, "stimulus": "/static/audio/wordpool/SWORD.wav", "key_press": -1, "type": "PRES_AUD", "word": "sword", "wordID": 1422, "conditions": [24, 1600, "a", 24000], "trial": 4, "serialpos": 0, "trial_type": "single-audio", "trial_index": 169, "time_elapsed": 1045580, "internal_node_id": "0.0-124.0"}}, {"uniqueid": "MTK0157:3RWE2M8QWIH710DJA41277GI6X2N0B", "current_trial": 170, "dateTime": 1509380812979, "trialdata": {"rt": -1000, "stimulus": "/static/audio/wordpool/BLACKBOARD.wav", "key_press": -1, "type": "PRES_AUD", "word": "blackboard", "wordID": 132, "conditions": [24, 1600, "a", 24000], "trial": 4, "serialpos": 1, "trial_type": "single-audio", "trial_index": 170, "time_elapsed": 1048073, "internal_node_id": "0.0-125.0"}}, {"uniqueid": "MTK0157:3RWE2M8QWIH710DJA41277GI6X2N0B", "current_trial": 171, "dateTime": 1509380815666, "trialdata": {"rt": -1000, "stimulus": "/static/audio/wordpool/SPIDER.wav", "key_press": -1, "type": "PRES_AUD", "word": "spider", "wordID": 1350, "conditions": [24, 1600, "a", 24000], "trial": 4, "serialpos": 2, "trial_type": "single-audio", "trial_index": 171, "time_elapsed": 1050761, "internal_node_id": "0.0-126.0"}}, {"uniqueid": "MTK0157:3RWE2M8QWIH710DJA41277GI6X2N0B", "current_trial": 172, "dateTime": 1509380818355, "trialdata": {"rt": -1000, "stimulus": "/static/audio/wordpool/TAXI.wav", "key_press": -1, "type": "PRES_AUD", "word": "taxi", "wordID": 1437, "conditions": [24, 1600, "a", 24000], "trial": 4, "serialpos": 3, "trial_type": "single-audio", "trial_index": 172, "time_elapsed": 1053450, "internal_node_id": "0.0-127.0"}}, {"uniqueid": "MTK0157:3RWE2M8QWIH710DJA41277GI6X2N0B", "current_trial": 173, "dateTime": 1509380820858, "trialdata": {"rt": -1000, "stimulus": "/static/audio/wordpool/WAGON.wav", "key_press": -1, "type": "PRES_AUD", "word": "wagon", "wordID": 1577, "conditions": [24, 1600, "a", 24000], "trial": 4, "serialpos": 4, "trial_type": "single-audio", "trial_index": 173, "time_elapsed": 1055952, "internal_node_id": "0.0-128.0"}}, {"uniqueid": "MTK0157:3RWE2M8QWIH710DJA41277GI6X2N0B", "current_trial": 174, "dateTime": 1509380823302, "trialdata": {"rt": -1000, "stimulus": "/static/audio/wordpool/YARN.wav", "key_press": -1, "type": "PRES_AUD", "word": "yarn", "wordID": 1630, "conditions": [24, 1600, "a", 24000], "trial": 4, "serialpos": 5, "trial_type": "single-audio", "trial_index": 174, "time_elapsed": 1058396, "internal_node_id": "0.0-129.0"}}, {"uniqueid": "MTK0157:3RWE2M8QWIH710DJA41277GI6X2N0B", "current_trial": 175, "dateTime": 1509380825741, "trialdata": {"rt": -1000, "stimulus": "/static/audio/wordpool/CYCLONE.wav", "key_press": -1, "type": "PRES_AUD", "word": "cyclone", "wordID": 430, "conditions": [24, 1600, "a", 24000], "trial": 4, "serialpos": 6, "trial_type": "single-audio", "trial_index": 175, "time_elapsed": 1060836, "internal_node_id": "0.0-130.0"}}, {"uniqueid": "MTK0157:3RWE2M8QWIH710DJA41277GI6X2N0B", "current_trial": 176, "dateTime": 1509380828299, "trialdata": {"rt": -1000, "stimulus": "/static/audio/wordpool/SEAL.wav", "key_press": -1, "type": "PRES_AUD", "word": "seal", "wordID": 1261, "conditions": [24, 1600, "a", 24000], "trial": 4, "serialpos": 7, "trial_type": "single-audio", "trial_index": 176, "time_elapsed": 1063394, "internal_node_id": "0.0-131.0"}}, {"uniqueid": "MTK0157:3RWE2M8QWIH710DJA41277GI6X2N0B", "current_trial": 177, "dateTime": 1509380831001, "trialdata": {"rt": -1000, "stimulus": "/static/audio/wordpool/PLUTO.wav", "key_press": -1, "type": "PRES_AUD", "word": "pluto", "wordID": 1091, "conditions": [24, 1600, "a", 24000], "trial": 4, "serialpos": 8, "trial_type": "single-audio", "trial_index": 177, "time_elapsed": 1066096, "internal_node_id": "0.0-132.0"}}, {"uniqueid": "MTK0157:3RWE2M8QWIH710DJA41277GI6X2N0B", "current_trial": 178, "dateTime": 1509380833677, "trialdata": {"rt": -1000, "stimulus": "/static/audio/wordpool/KNIFE.wav", "key_press": -1, "type": "PRES_AUD", "word": "knife", "wordID": 784, "conditions": [24, 1600, "a", 24000], "trial": 4, "serialpos": 9, "trial_type": "single-audio", "trial_index": 178, "time_elapsed": 1068772, "internal_node_id": "0.0-133.0"}}, {"uniqueid": "MTK0157:3RWE2M8QWIH710DJA41277GI6X2N0B", "current_trial": 179, "dateTime": 1509380836220, "trialdata": {"rt": -1000, "stimulus": "/static/audio/wordpool/WORLD.wav", "key_press": -1, "type": "PRES_AUD", "word": "world", "wordID": 1621, "conditions": [24, 1600, "a", 24000], "trial": 4, "serialpos": 10, "trial_type": "single-audio", "trial_index": 179, "time_elapsed": 1071315, "internal_node_id": "0.0-134.0"}}, {"uniqueid": "MTK0157:3RWE2M8QWIH710DJA41277GI6X2N0B", "current_trial": 180, "dateTime": 1509380838640, "trialdata": {"rt": -1000, "stimulus": "/static/audio/wordpool/GLOBE.wav", "key_press": -1, "type": "PRES_AUD", "word": "globe", "wordID": 640, "conditions": [24, 1600, "a", 24000], "trial": 4, "serialpos": 11, "trial_type": "single-audio", "trial_index": 180, "time_elapsed": 1073735, "internal_node_id": "0.0-135.0"}}, {"uniqueid": "MTK0157:3RWE2M8QWIH710DJA41277GI6X2N0B", "current_trial": 181, "dateTime": 1509380841335, "trialdata": {"rt": -1000, "stimulus": "/static/audio/wordpool/MATCH.wav", "key_press": -1, "type": "PRES_AUD", "word": "match", "wordID": 877, "conditions": [24, 1600, "a", 24000], "trial": 4, "serialpos": 12, "trial_type": "single-audio", "trial_index": 181, "time_elapsed": 1076430, "internal_node_id": "0.0-136.0"}}, {"uniqueid": "MTK0157:3RWE2M8QWIH710DJA41277GI6X2N0B", "current_trial": 182, "dateTime": 1509380843890, "trialdata": {"rt": -1000, "stimulus": "/static/audio/wordpool/OMELET.wav", "key_press": -1, "type": "PRES_AUD", "word": "omelet", "wordID": 975, "conditions": [24, 1600, "a", 24000], "trial": 4, "serialpos": 13, "trial_type": "single-audio", "trial_index": 182, "time_elapsed": 1078985, "internal_node_id": "0.0-137.0"}}, {"uniqueid": "MTK0157:3RWE2M8QWIH710DJA41277GI6X2N0B", "current_trial": 183, "dateTime": 1509380846482, "trialdata": {"rt": -1000, "stimulus": "/static/audio/wordpool/CANDY.wav", "key_press": -1, "type": "PRES_AUD", "word": "candy", "wordID": 229, "conditions": [24, 1600, "a", 24000], "trial": 4, "serialpos": 14, "trial_type": "single-audio", "trial_index": 183, "time_elapsed": 1081577, "internal_node_id": "0.0-138.0"}}, {"uniqueid": "MTK0157:3RWE2M8QWIH710DJA41277GI6X2N0B", "current_trial": 184, "dateTime": 1509380849085, "trialdata": {"rt": -1000, "stimulus": "/static/audio/wordpool/HUSBAND.wav", "key_press": -1, "type": "PRES_AUD", "word": "husband", "wordID": 727, "conditions": [24, 1600, "a", 24000], "trial": 4, "serialpos": 15, "trial_type": "single-audio", "trial_index": 184, "time_elapsed": 1084180, "internal_node_id": "0.0-139.0"}}, {"uniqueid": "MTK0157:3RWE2M8QWIH710DJA41277GI6X2N0B", "current_trial": 185, "dateTime": 1509380851796, "trialdata": {"rt": -1000, "stimulus": "/static/audio/wordpool/SISTER.wav", "key_press": -1, "type": "PRES_AUD", "word": "sister", "wordID": 1311, "conditions": [24, 1600, "a", 24000], "trial": 4, "serialpos": 16, "trial_type": "single-audio", "trial_index": 185, "time_elapsed": 1086890, "internal_node_id": "0.0-140.0"}}, {"uniqueid": "MTK0157:3RWE2M8QWIH710DJA41277GI6X2N0B", "current_trial": 186, "dateTime": 1509380854230, "trialdata": {"rt": -1000, "stimulus": "/static/audio/wordpool/FOOTBALL.wav", "key_press": -1, "type": "PRES_AUD", "word": "football", "wordID": 590, "conditions": [24, 1600, "a", 24000], "trial": 4, "serialpos": 17, "trial_type": "single-audio", "trial_index": 186, "time_elapsed": 1089324, "internal_node_id": "0.0-141.0"}}, {"uniqueid": "MTK0157:3RWE2M8QWIH710DJA41277GI6X2N0B", "current_trial": 187, "dateTime": 1509380856842, "trialdata": {"rt": -1000, "stimulus": "/static/audio/wordpool/SEAFOOD.wav", "key_press": -1, "type": "PRES_AUD", "word": "seafood", "wordID": 1259, "conditions": [24, 1600, "a", 24000], "trial": 4, "serialpos": 18, "trial_type": "single-audio", "trial_index": 187, "time_elapsed": 1091937, "internal_node_id": "0.0-142.0"}}, {"uniqueid": "MTK0157:3RWE2M8QWIH710DJA41277GI6X2N0B", "current_trial": 188, "dateTime": 1509380859360, "trialdata": {"rt": -1000, "stimulus": "/static/audio/wordpool/DONOR.wav", "key_press": -1, "type": "PRES_AUD", "word": "donor", "wordID": 484, "conditions": [24, 1600, "a", 24000], "trial": 4, "serialpos": 19, "trial_type": "single-audio", "trial_index": 188, "time_elapsed": 1094455, "internal_node_id": "0.0-143.0"}}, {"uniqueid": "MTK0157:3RWE2M8QWIH710DJA41277GI6X2N0B", "current_trial": 189, "dateTime": 1509380862014, "trialdata": {"rt": -1000, "stimulus": "/static/audio/wordpool/HEART.wav", "key_press": -1, "type": "PRES_AUD", "word": "heart", "wordID": 696, "conditions": [24, 1600, "a", 24000], "trial": 4, "serialpos": 20, "trial_type": "single-audio", "trial_index": 189, "time_elapsed": 1097109, "internal_node_id": "0.0-144.0"}}, {"uniqueid": "MTK0157:3RWE2M8QWIH710DJA41277GI6X2N0B", "current_trial": 190, "dateTime": 1509380864671, "trialdata": {"rt": -1000, "stimulus": "/static/audio/wordpool/MAPLE.wav", "key_press": -1, "type": "PRES_AUD", "word": "maple", "wordID": 865, "conditions": [24, 1600, "a", 24000], "trial": 4, "serialpos": 21, "trial_type": "single-audio", "trial_index": 190, "time_elapsed": 1099766, "internal_node_id": "0.0-145.0"}}, {"uniqueid": "MTK0157:3RWE2M8QWIH710DJA41277GI6X2N0B", "current_trial": 191, "dateTime": 1509380867301, "trialdata": {"rt": -1000, "stimulus": "/static/audio/wordpool/RABBIT.wav", "key_press": -1, "type": "PRES_AUD", "word": "rabbit", "wordID": 1151, "conditions": [24, 1600, "a", 24000], "trial": 4, "serialpos": 22, "trial_type": "single-audio", "trial_index": 191, "time_elapsed": 1102396, "internal_node_id": "0.0-146.0"}}, {"uniqueid": "MTK0157:3RWE2M8QWIH710DJA41277GI6X2N0B", "current_trial": 192, "dateTime": 1509380869902, "trialdata": {"rt": -1000, "stimulus": "/static/audio/wordpool/BACON.wav", "key_press": -1, "type": "PRES_AUD", "word": "bacon", "wordID": 66, "conditions": [24, 1600, "a", 24000], "trial": 4, "serialpos": 23, "trial_type": "single-audio", "trial_index": 192, "time_elapsed": 1104996, "internal_node_id": "0.0-147.0"}}, {"uniqueid": "MTK0157:3RWE2M8QWIH710DJA41277GI6X2N0B", "current_trial": 193, "dateTime": 1509380871258, "trialdata": {"rt": -1, "stimulus": "", "key_press": -1, "type": "PRE_RECALL_DELAY", "trial_type": "single-stim", "trial_index": 193, "time_elapsed": 1106353, "internal_node_id": "0.0-148.0-0.0"}}, {"uniqueid": "MTK0157:3RWE2M8QWIH710DJA41277GI6X2N0B", "current_trial": 194, "dateTime": 1509380871765, "trialdata": {"rt": -1000, "stimulus": "/static/audio/400Hz.wav", "key_press": -1, "type": "PRE_RECALL_ALERT", "trial_type": "single-audio", "trial_index": 194, "time_elapsed": 1106859, "internal_node_id": "0.0-149.0"}}, {"uniqueid": "MTK0157:3RWE2M8QWIH710DJA41277GI6X2N0B", "current_trial": 195, "dateTime": 1509380931775, "trialdata": {"rt": [5542, 12318, 18638, 28528, 36406, 47750, 55686], "recwords": ["taxi", "spider", "knife", "pluto", "wagon", "football", "bacon"], "type": "FREE_RECALL", "conditions": [24, 1600, "a", 24000], "trial": 4, "trial_type": "free-recall", "trial_index": 195, "time_elapsed": 1166865, "internal_node_id": "0.0-150.0-0.0"}}, {"uniqueid": "MTK0157:3RWE2M8QWIH710DJA41277GI6X2N0B", "current_trial": 196, "dateTime": 1509380940456, "trialdata": {"rt": 6678, "key_press": 71, "type": "INSTRUCTIONS", "trial_type": "text", "trial_index": 196, "time_elapsed": 1175551, "internal_node_id": "0.0-151.0"}}, {"uniqueid": "MTK0157:3RWE2M8QWIH710DJA41277GI6X2N0B", "current_trial": 197, "dateTime": 1509380954475, "trialdata": {"rt": [4662, 7086, 9462], "responses": ["17", "7", "8"], "num1": [4, 3, 6, 5], "num2": [4, 3, 1, 4], "num3": [9, 1, 1, 3], "type": "DISTRACTOR", "conditions": [12, 1600, "v", 12000], "trial": 5, "trial_type": "math-distractor", "trial_index": 197, "time_elapsed": 1189569, "internal_node_id": "0.0-152.0"}}, {"uniqueid": "MTK0157:3RWE2M8QWIH710DJA41277GI6X2N0B", "current_trial": 198, "dateTime": 1509380957479, "trialdata": {"rt": -1, "stimulus": "<p id=\"stim\">10</p>", "key_press": -1, "trial_type": "single-stim", "trial_index": 198, "time_elapsed": 1192574, "internal_node_id": "0.0-153.0-0.0"}}, {"uniqueid": "MTK0157:3RWE2M8QWIH710DJA41277GI6X2N0B", "current_trial": 199, "dateTime": 1509380958481, "trialdata": {"rt": -1, "stimulus": "<p id=\"stim\">9</p>", "key_press": -1, "trial_type": "single-stim", "trial_index": 199, "time_elapsed": 1193576, "internal_node_id": "0.0-153.0-1.0"}}, {"uniqueid": "MTK0157:3RWE2M8QWIH710DJA41277GI6X2N0B", "current_trial": 200, "dateTime": 1509380959484, "trialdata": {"rt": -1, "stimulus": "<p id=\"stim\">8</p>", "key_press": -1, "trial_type": "single-stim", "trial_index": 200, "time_elapsed": 1194579, "internal_node_id": "0.0-153.0-2.0"}}, {"uniqueid": "MTK0157:3RWE2M8QWIH710DJA41277GI6X2N0B", "current_trial": 201, "dateTime": 1509380960485, "trialdata": {"rt": -1, "stimulus": "<p id=\"stim\">7</p>", "key_press": -1, "trial_type": "single-stim", "trial_index": 201, "time_elapsed": 1195580, "internal_node_id": "0.0-153.0-3.0"}}, {"uniqueid": "MTK0157:3RWE2M8QWIH710DJA41277GI6X2N0B", "current_trial": 202, "dateTime": 1509380961501, "trialdata": {"rt": -1, "stimulus": "<p id=\"stim\">6</p>", "key_press": -1, "trial_type": "single-stim", "trial_index": 202, "time_elapsed": 1196596, "internal_node_id": "0.0-153.0-4.0"}}, {"uniqueid": "MTK0157:3RWE2M8QWIH710DJA41277GI6X2N0B", "current_trial": 203, "dateTime": 1509380962507, "trialdata": {"rt": -1, "stimulus": "<p id=\"stim\">5</p>", "key_press": -1, "trial_type": "single-stim", "trial_index": 203, "time_elapsed": 1197602, "internal_node_id": "0.0-153.0-5.0"}}, {"uniqueid": "MTK0157:3RWE2M8QWIH710DJA41277GI6X2N0B", "current_trial": 204, "dateTime": 1509380963519, "trialdata": {"rt": -1, "stimulus": "<p id=\"stim\">4</p>", "key_press": -1, "trial_type": "single-stim", "trial_index": 204, "time_elapsed": 1198614, "internal_node_id": "0.0-153.0-6.0"}}, {"uniqueid": "MTK0157:3RWE2M8QWIH710DJA41277GI6X2N0B", "current_trial": 205, "dateTime": 1509380964536, "trialdata": {"rt": -1, "stimulus": "<p id=\"stim\">3</p>", "key_press": -1, "trial_type": "single-stim", "trial_index": 205, "time_elapsed": 1199631, "internal_node_id": "0.0-153.0-7.0"}}, {"uniqueid": "MTK0157:3RWE2M8QWIH710DJA41277GI6X2N0B", "current_trial": 206, "dateTime": 1509380965539, "trialdata": {"rt": -1, "stimulus": "<p id=\"stim\">2</p>", "key_press": -1, "trial_type": "single-stim", "trial_index": 206, "time_elapsed": 1200634, "internal_node_id": "0.0-153.0-8.0"}}, {"uniqueid": "MTK0157:3RWE2M8QWIH710DJA41277GI6X2N0B", "current_trial": 207, "dateTime": 1509380966542, "trialdata": {"rt": -1, "stimulus": "<p id=\"stim\">1</p>", "key_press": -1, "trial_type": "single-stim", "trial_index": 207, "time_elapsed": 1201637, "internal_node_id": "0.0-153.0-9.0"}}, {"uniqueid": "MTK0157:3RWE2M8QWIH710DJA41277GI6X2N0B", "current_trial": 208, "dateTime": 1509380968044, "trialdata": {"rt": -1, "stimulus": "<p id=\"stim\">+</p>", "key_press": -1, "type": "FIXATION", "trial_type": "single-stim", "trial_index": 208, "time_elapsed": 1203139, "internal_node_id": "0.0-154.0-0.0"}}, {"uniqueid": "MTK0157:3RWE2M8QWIH710DJA41277GI6X2N0B", "current_trial": 209, "dateTime": 1509380969645, "trialdata": {"rt": -1, "stimulus": "<p id=\"stim\">PORK</p>", "key_press": -1, "type": "PRES_VIS", "word": "pork", "wordID": 1107, "conditions": [12, 1600, "v", 12000], "trial": 5, "serialpos": 0, "trial_type": "single-stim", "trial_index": 209, "time_elapsed": 1204740, "internal_node_id": "0.0-155.0"}}, {"uniqueid": "MTK0157:3RWE2M8QWIH710DJA41277GI6X2N0B", "current_trial": 210, "dateTime": 1509380972145, "trialdata": {"rt": -1, "stimulus": "<p id=\"stim\">SUPPER</p>", "key_press": -1, "type": "PRES_VIS", "word": "supper", "wordID": 1410, "conditions": [12, 1600, "v", 12000], "trial": 5, "serialpos": 1, "trial_type": "single-stim", "trial_index": 210, "time_elapsed": 1207239, "internal_node_id": "0.0-156.0"}}, {"uniqueid": "MTK0157:3RWE2M8QWIH710DJA41277GI6X2N0B", "current_trial": 211, "dateTime": 1509380974662, "trialdata": {"rt": -1, "stimulus": "<p id=\"stim\">LIPSTICK</p>", "key_press": -1, "type": "PRES_VIS", "word": "lipstick", "wordID": 828, "conditions": [12, 1600, "v", 12000], "trial": 5, "serialpos": 2, "trial_type": "single-stim", "trial_index": 211, "time_elapsed": 1209757, "internal_node_id": "0.0-157.0"}}, {"uniqueid": "MTK0157:3RWE2M8QWIH710DJA41277GI6X2N0B", "current_trial": 212, "dateTime": 1509380977112, "trialdata": {"rt": -1, "stimulus": "<p id=\"stim\">CHEST</p>", "key_press": -1, "type": "PRES_VIS", "word": "chest", "wordID": 294, "conditions": [12, 1600, "v", 12000], "trial": 5, "serialpos": 3, "trial_type": "single-stim", "trial_index": 212, "time_elapsed": 1212207, "internal_node_id": "0.0-158.0"}}, {"uniqueid": "MTK0157:3RWE2M8QWIH710DJA41277GI6X2N0B", "current_trial": 213, "dateTime": 1509380979637, "trialdata": {"rt": -1, "stimulus": "<p id=\"stim\">SLIME</p>", "key_press": -1, "type": "PRES_VIS", "word": "slime", "wordID": 1326, "conditions": [12, 1600, "v", 12000], "trial": 5, "serialpos": 4, "trial_type": "single-stim", "trial_index": 213, "time_elapsed": 1214732, "internal_node_id": "0.0-159.0"}}, {"uniqueid": "MTK0157:3RWE2M8QWIH710DJA41277GI6X2N0B", "current_trial": 214, "dateTime": 1509380982114, "trialdata": {"rt": -1, "stimulus": "<p id=\"stim\">COUSIN</p>", "key_press": -1, "type": "PRES_VIS", "word": "cousin", "wordID": 391, "conditions": [12, 1600, "v", 12000], "trial": 5, "serialpos": 5, "trial_type": "single-stim", "trial_index": 214, "time_elapsed": 1217209, "internal_node_id": "0.0-160.0"}}, {"uniqueid": "MTK0157:3RWE2M8QWIH710DJA41277GI6X2N0B", "current_trial": 215, "dateTime": 1509380984769, "trialdata": {"rt": -1, "stimulus": "<p id=\"stim\">DAUGHTER</p>", "key_press": -1, "type": "PRES_VIS", "word": "daughter", "wordID": 441, "conditions": [12, 1600, "v", 12000], "trial": 5, "serialpos": 6, "trial_type": "single-stim", "trial_index": 215, "time_elapsed": 1219864, "internal_node_id": "0.0-161.0"}}, {"uniqueid": "MTK0157:3RWE2M8QWIH710DJA41277GI6X2N0B", "current_trial": 216, "dateTime": 1509380987387, "trialdata": {"rt": -1, "stimulus": "<p id=\"stim\">PISTON</p>", "key_press": -1, "type": "PRES_VIS", "word": "piston", "wordID": 1075, "conditions": [12, 1600, "v", 12000], "trial": 5, "serialpos": 7, "trial_type": "single-stim", "trial_index": 216, "time_elapsed": 1222481, "internal_node_id": "0.0-162.0"}}, {"uniqueid": "MTK0157:3RWE2M8QWIH710DJA41277GI6X2N0B", "current_trial": 217, "dateTime": 1509380990190, "trialdata": {"rt": -1, "stimulus": "<p id=\"stim\">AIRPLANE</p>", "key_press": -1, "type": "PRES_VIS", "word": "airplane", "wordID": 11, "conditions": [12, 1600, "v", 12000], "trial": 5, "serialpos": 8, "trial_type": "single-stim", "trial_index": 217, "time_elapsed": 1225284, "internal_node_id": "0.0-163.0"}}, {"uniqueid": "MTK0157:3RWE2M8QWIH710DJA41277GI6X2N0B", "current_trial": 218, "dateTime": 1509380992644, "trialdata": {"rt": -1, "stimulus": "<p id=\"stim\">KETCHUP</p>", "key_press": -1, "type": "PRES_VIS", "word": "ketchup", "wordID": 770, "conditions": [12, 1600, "v", 12000], "trial": 5, "serialpos": 9, "trial_type": "single-stim", "trial_index": 218, "time_elapsed": 1227739, "internal_node_id": "0.0-164.0"}}, {"uniqueid": "MTK0157:3RWE2M8QWIH710DJA41277GI6X2N0B", "current_trial": 219, "dateTime": 1509380995304, "trialdata": {"rt": -1, "stimulus": "<p id=\"stim\">OX</p>", "key_press": -1, "type": "PRES_VIS", "word": "ox", "wordID": 993, "conditions": [12, 1600, "v", 12000], "trial": 5, "serialpos": 10, "trial_type": "single-stim", "trial_index": 219, "time_elapsed": 1230399, "internal_node_id": "0.0-165.0"}}, {"uniqueid": "MTK0157:3RWE2M8QWIH710DJA41277GI6X2N0B", "current_trial": 220, "dateTime": 1509380998074, "trialdata": {"rt": -1, "stimulus": "<p id=\"stim\">LUNCH</p>", "key_press": -1, "type": "PRES_VIS", "word": "lunch", "wordID": 848, "conditions": [12, 1600, "v", 12000], "trial": 5, "serialpos": 11, "trial_type": "single-stim", "trial_index": 220, "time_elapsed": 1233168, "internal_node_id": "0.0-166.0"}}, {"uniqueid": "MTK0157:3RWE2M8QWIH710DJA41277GI6X2N0B", "current_trial": 221, "dateTime": 1509381000501, "trialdata": {"rt": -1, "stimulus": "", "key_press": -1, "type": "PRE_RECALL_DELAY", "trial_type": "single-stim", "trial_index": 221, "time_elapsed": 1235596, "internal_node_id": "0.0-167.0-0.0"}}, {"uniqueid": "MTK0157:3RWE2M8QWIH710DJA41277GI6X2N0B", "current_trial": 222, "dateTime": 1509381001004, "trialdata": {"rt": -1000, "stimulus": "/static/audio/400Hz.wav", "key_press": -1, "type": "PRE_RECALL_ALERT", "trial_type": "single-audio", "trial_index": 222, "time_elapsed": 1236099, "internal_node_id": "0.0-168.0"}}, {"uniqueid": "MTK0157:3RWE2M8QWIH710DJA41277GI6X2N0B", "current_trial": 223, "dateTime": 1509381061013, "trialdata": {"rt": [6111, 11895, 19047, 27591, 34855, 41231, 47047, 54343], "recwords": ["lunch", "daughter", "pork", "sister", "cousin", "father", "chest", "ox"], "type": "FREE_RECALL", "conditions": [12, 1600, "v", 12000], "trial": 5, "trial_type": "free-recall", "trial_index": 223, "time_elapsed": 1296103, "internal_node_id": "0.0-169.0-0.0"}}, {"uniqueid": "MTK0157:3RWE2M8QWIH710DJA41277GI6X2N0B", "current_trial": 224, "dateTime": 1509381067928, "trialdata": {"rt": 4913, "key_press": 74, "type": "INSTRUCTIONS", "trial_type": "text", "trial_index": 224, "time_elapsed": 1303022, "internal_node_id": "0.0-170.0"}}, {"uniqueid": "MTK0157:3RWE2M8QWIH710DJA41277GI6X2N0B", "current_trial": 225, "dateTime": 1509381093935, "trialdata": {"rt": [2826, 6114, 9330, 12954, 15858, 18826, 22994], "responses": ["9", "19", "11", "24", "8", "11", "19"], "num1": [1, 9, 5, 8, 2, 3, 7, 6], "num2": [2, 8, 4, 9, 4, 3, 8, 9], "num3": [6, 2, 2, 5, 2, 5, 4, 5], "type": "DISTRACTOR", "conditions": [24, 1600, "v", 24000], "trial": 6, "trial_type": "math-distractor", "trial_index": 225, "time_elapsed": 1329030, "internal_node_id": "0.0-171.0"}}, {"uniqueid": "MTK0157:3RWE2M8QWIH710DJA41277GI6X2N0B", "current_trial": 226, "dateTime": 1509381096953, "trialdata": {"rt": -1, "stimulus": "<p id=\"stim\">10</p>", "key_press": -1, "trial_type": "single-stim", "trial_index": 226, "time_elapsed": 1332048, "internal_node_id": "0.0-172.0-0.0"}}, {"uniqueid": "MTK0157:3RWE2M8QWIH710DJA41277GI6X2N0B", "current_trial": 227, "dateTime": 1509381097955, "trialdata": {"rt": -1, "stimulus": "<p id=\"stim\">9</p>", "key_press": -1, "trial_type": "single-stim", "trial_index": 227, "time_elapsed": 1333050, "internal_node_id": "0.0-172.0-1.0"}}, {"uniqueid": "MTK0157:3RWE2M8QWIH710DJA41277GI6X2N0B", "current_trial": 228, "dateTime": 1509381098971, "trialdata": {"rt": -1, "stimulus": "<p id=\"stim\">8</p>", "key_press": -1, "trial_type": "single-stim", "trial_index": 228, "time_elapsed": 1334066, "internal_node_id": "0.0-172.0-2.0"}}, {"uniqueid": "MTK0157:3RWE2M8QWIH710DJA41277GI6X2N0B", "current_trial": 229, "dateTime": 1509381099988, "trialdata": {"rt": -1, "stimulus": "<p id=\"stim\">7</p>", "key_press": -1, "trial_type": "single-stim", "trial_index": 229, "time_elapsed": 1335083, "internal_node_id": "0.0-172.0-3.0"}}, {"uniqueid": "MTK0157:3RWE2M8QWIH710DJA41277GI6X2N0B", "current_trial": 230, "dateTime": 1509381100990, "trialdata": {"rt": -1, "stimulus": "<p id=\"stim\">6</p>", "key_press": -1, "trial_type": "single-stim", "trial_index": 230, "time_elapsed": 1336085, "internal_node_id": "0.0-172.0-4.0"}}, {"uniqueid": "MTK0157:3RWE2M8QWIH710DJA41277GI6X2N0B", "current_trial": 231, "dateTime": 1509381101992, "trialdata": {"rt": -1, "stimulus": "<p id=\"stim\">5</p>", "key_press": -1, "trial_type": "single-stim", "trial_index": 231, "time_elapsed": 1337086, "internal_node_id": "0.0-172.0-5.0"}}, {"uniqueid": "MTK0157:3RWE2M8QWIH710DJA41277GI6X2N0B", "current_trial": 232, "dateTime": 1509381102996, "trialdata": {"rt": -1, "stimulus": "<p id=\"stim\">4</p>", "key_press": -1, "trial_type": "single-stim", "trial_index": 232, "time_elapsed": 1338089, "internal_node_id": "0.0-172.0-6.0"}}, {"uniqueid": "MTK0157:3RWE2M8QWIH710DJA41277GI6X2N0B", "current_trial": 233, "dateTime": 1509381103999, "trialdata": {"rt": -1, "stimulus": "<p id=\"stim\">3</p>", "key_press": -1, "trial_type": "single-stim", "trial_index": 233, "time_elapsed": 1339094, "internal_node_id": "0.0-172.0-7.0"}}, {"uniqueid": "MTK0157:3RWE2M8QWIH710DJA41277GI6X2N0B", "current_trial": 234, "dateTime": 1509381105001, "trialdata": {"rt": -1, "stimulus": "<p id=\"stim\">2</p>", "key_press": -1, "trial_type": "single-stim", "trial_index": 234, "time_elapsed": 1340096, "internal_node_id": "0.0-172.0-8.0"}}, {"uniqueid": "MTK0157:3RWE2M8QWIH710DJA41277GI6X2N0B", "current_trial": 235, "dateTime": 1509381106004, "trialdata": {"rt": -1, "stimulus": "<p id=\"stim\">1</p>", "key_press": -1, "trial_type": "single-stim", "trial_index": 235, "time_elapsed": 1341098, "internal_node_id": "0.0-172.0-9.0"}}, {"uniqueid": "MTK0157:3RWE2M8QWIH710DJA41277GI6X2N0B", "current_trial": 236, "dateTime": 1509381107514, "trialdata": {"rt": -1, "stimulus": "<p id=\"stim\">+</p>", "key_press": -1, "type": "FIXATION", "trial_type": "single-stim", "trial_index": 236, "time_elapsed": 1342609, "internal_node_id": "0.0-173.0-0.0"}}, {"uniqueid": "MTK0157:3RWE2M8QWIH710DJA41277GI6X2N0B", "current_trial": 237, "dateTime": 1509381109131, "trialdata": {"rt": -1, "stimulus": "<p id=\"stim\">CHAMPAGNE</p>", "key_press": -1, "type": "PRES_VIS", "word": "champagne", "wordID": 277, "conditions": [24, 1600, "v", 24000], "trial": 6, "serialpos": 0, "trial_type": "single-stim", "trial_index": 237, "time_elapsed": 1344226, "internal_node_id": "0.0-174.0"}}, {"uniqueid": "MTK0157:3RWE2M8QWIH710DJA41277GI6X2N0B", "current_trial": 238, "dateTime": 1509381111595, "trialdata": {"rt": -1, "stimulus": "<p id=\"stim\">CITRUS</p>", "key_press": -1, "type": "PRES_VIS", "word": "citrus", "wordID": 312, "conditions": [24, 1600, "v", 24000], "trial": 6, "serialpos": 1, "trial_type": "single-stim", "trial_index": 238, "time_elapsed": 1346690, "internal_node_id": "0.0-175.0"}}, {"uniqueid": "MTK0157:3RWE2M8QWIH710DJA41277GI6X2N0B", "current_trial": 239, "dateTime": 1509381114385, "trialdata": {"rt": -1, "stimulus": "<p id=\"stim\">MILDEW</p>", "key_press": -1, "type": "PRES_VIS", "word": "mildew", "wordID": 892, "conditions": [24, 1600, "v", 24000], "trial": 6, "serialpos": 2, "trial_type": "single-stim", "trial_index": 239, "time_elapsed": 1349480, "internal_node_id": "0.0-176.0"}}, {"uniqueid": "MTK0157:3RWE2M8QWIH710DJA41277GI6X2N0B", "current_trial": 240, "dateTime": 1509381116924, "trialdata": {"rt": -1, "stimulus": "<p id=\"stim\">BLUEPRINT</p>", "key_press": -1, "type": "PRES_VIS", "word": "blueprint", "wordID": 141, "conditions": [24, 1600, "v", 24000], "trial": 6, "serialpos": 3, "trial_type": "single-stim", "trial_index": 240, "time_elapsed": 1352019, "internal_node_id": "0.0-177.0"}}, {"uniqueid": "MTK0157:3RWE2M8QWIH710DJA41277GI6X2N0B", "current_trial": 241, "dateTime": 1509381119388, "trialdata": {"rt": -1, "stimulus": "<p id=\"stim\">ARM</p>", "key_press": -1, "type": "PRES_VIS", "word": "arm", "wordID": 37, "conditions": [24, 1600, "v", 24000], "trial": 6, "serialpos": 4, "trial_type": "single-stim", "trial_index": 241, "time_elapsed": 1354483, "internal_node_id": "0.0-178.0"}}, {"uniqueid": "MTK0157:3RWE2M8QWIH710DJA41277GI6X2N0B", "current_trial": 242, "dateTime": 1509381122055, "trialdata": {"rt": -1, "stimulus": "<p id=\"stim\">RUG</p>", "key_press": -1, "type": "PRES_VIS", "word": "rug", "wordID": 1214, "conditions": [24, 1600, "v", 24000], "trial": 6, "serialpos": 5, "trial_type": "single-stim", "trial_index": 242, "time_elapsed": 1357149, "internal_node_id": "0.0-179.0"}}, {"uniqueid": "MTK0157:3RWE2M8QWIH710DJA41277GI6X2N0B", "current_trial": 243, "dateTime": 1509381124704, "trialdata": {"rt": -1, "stimulus": "<p id=\"stim\">TURKEY</p>", "key_press": -1, "type": "PRES_VIS", "word": "turkey", "wordID": 1519, "conditions": [24, 1600, "v", 24000], "trial": 6, "serialpos": 6, "trial_type": "single-stim", "trial_index": 243, "time_elapsed": 1359798, "internal_node_id": "0.0-180.0"}}, {"uniqueid": "MTK0157:3RWE2M8QWIH710DJA41277GI6X2N0B", "current_trial": 244, "dateTime": 1509381127159, "trialdata": {"rt": -1, "stimulus": "<p id=\"stim\">QUAIL</p>", "key_press": -1, "type": "PRES_VIS", "word": "quail", "wordID": 1146, "conditions": [24, 1600, "v", 24000], "trial": 6, "serialpos": 7, "trial_type": "single-stim", "trial_index": 244, "time_elapsed": 1362254, "internal_node_id": "0.0-181.0"}}, {"uniqueid": "MTK0157:3RWE2M8QWIH710DJA41277GI6X2N0B", "current_trial": 245, "dateTime": 1509381129872, "trialdata": {"rt": -1, "stimulus": "<p id=\"stim\">PACKAGE</p>", "key_press": -1, "type": "PRES_VIS", "word": "package", "wordID": 996, "conditions": [24, 1600, "v", 24000], "trial": 6, "serialpos": 8, "trial_type": "single-stim", "trial_index": 245, "time_elapsed": 1364967, "internal_node_id": "0.0-182.0"}}, {"uniqueid": "MTK0157:3RWE2M8QWIH710DJA41277GI6X2N0B", "current_trial": 246, "dateTime": 1509381132657, "trialdata": {"rt": -1, "stimulus": "<p id=\"stim\">PEPPER</p>", "key_press": -1, "type": "PRES_VIS", "word": "pepper", "wordID": 1046, "conditions": [24, 1600, "v", 24000], "trial": 6, "serialpos": 9, "trial_type": "single-stim", "trial_index": 246, "time_elapsed": 1367752, "internal_node_id": "0.0-183.0"}}, {"uniqueid": "MTK0157:3RWE2M8QWIH710DJA41277GI6X2N0B", "current_trial": 247, "dateTime": 1509381135225, "trialdata": {"rt": -1, "stimulus": "<p id=\"stim\">CARRIAGE</p>", "key_press": -1, "type": "PRES_VIS", "word": "carriage", "wordID": 247, "conditions": [24, 1600, "v", 24000], "trial": 6, "serialpos": 10, "trial_type": "single-stim", "trial_index": 247, "time_elapsed": 1370320, "internal_node_id": "0.0-184.0"}}, {"uniqueid": "MTK0157:3RWE2M8QWIH710DJA41277GI6X2N0B", "current_trial": 248, "dateTime": 1509381137805, "trialdata": {"rt": -1, "stimulus": "<p id=\"stim\">LEG</p>", "key_press": -1, "type": "PRES_VIS", "word": "leg", "wordID": 808, "conditions": [24, 1600, "v", 24000], "trial": 6, "serialpos": 11, "trial_type": "single-stim", "trial_index": 248, "time_elapsed": 1372899, "internal_node_id": "0.0-185.0"}}, {"uniqueid": "MTK0157:3RWE2M8QWIH710DJA41277GI6X2N0B", "current_trial": 249, "dateTime": 1509381140254, "trialdata": {"rt": -1, "stimulus": "<p id=\"stim\">LILY</p>", "key_press": -1, "type": "PRES_VIS", "word": "lily", "wordID": 820, "conditions": [24, 1600, "v", 24000], "trial": 6, "serialpos": 12, "trial_type": "single-stim", "trial_index": 249, "time_elapsed": 1375349, "internal_node_id": "0.0-186.0"}}, {"uniqueid": "MTK0157:3RWE2M8QWIH710DJA41277GI6X2N0B", "current_trial": 250, "dateTime": 1509381142717, "trialdata": {"rt": -1, "stimulus": "<p id=\"stim\">POWDER</p>", "key_press": -1, "type": "PRES_VIS", "word": "powder", "wordID": 1116, "conditions": [24, 1600, "v", 24000], "trial": 6, "serialpos": 13, "trial_type": "single-stim", "trial_index": 250, "time_elapsed": 1377811, "internal_node_id": "0.0-187.0"}}, {"uniqueid": "MTK0157:3RWE2M8QWIH710DJA41277GI6X2N0B", "current_trial": 251, "dateTime": 1509381145310, "trialdata": {"rt": -1, "stimulus": "<p id=\"stim\">BLENDER</p>", "key_press": -1, "type": "PRES_VIS", "word": "blender", "wordID": 135, "conditions": [24, 1600, "v", 24000], "trial": 6, "serialpos": 14, "trial_type": "single-stim", "trial_index": 251, "time_elapsed": 1380405, "internal_node_id": "0.0-188.0"}}, {"uniqueid": "MTK0157:3RWE2M8QWIH710DJA41277GI6X2N0B", "current_trial": 252, "dateTime": 1509381147952, "trialdata": {"rt": -1, "stimulus": "<p id=\"stim\">SADDLE</p>", "key_press": -1, "type": "PRES_VIS", "word": "saddle", "wordID": 1220, "conditions": [24, 1600, "v", 24000], "trial": 6, "serialpos": 15, "trial_type": "single-stim", "trial_index": 252, "time_elapsed": 1383047, "internal_node_id": "0.0-189.0"}}, {"uniqueid": "MTK0157:3RWE2M8QWIH710DJA41277GI6X2N0B", "current_trial": 253, "dateTime": 1509381150512, "trialdata": {"rt": -1, "stimulus": "<p id=\"stim\">CARROT</p>", "key_press": -1, "type": "PRES_VIS", "word": "carrot", "wordID": 248, "conditions": [24, 1600, "v", 24000], "trial": 6, "serialpos": 16, "trial_type": "single-stim", "trial_index": 253, "time_elapsed": 1385607, "internal_node_id": "0.0-190.0"}}, {"uniqueid": "MTK0157:3RWE2M8QWIH710DJA41277GI6X2N0B", "current_trial": 254, "dateTime": 1509381153053, "trialdata": {"rt": -1, "stimulus": "<p id=\"stim\">FLASK</p>", "key_press": -1, "type": "PRES_VIS", "word": "flask", "wordID": 575, "conditions": [24, 1600, "v", 24000], "trial": 6, "serialpos": 17, "trial_type": "single-stim", "trial_index": 254, "time_elapsed": 1388148, "internal_node_id": "0.0-191.0"}}, {"uniqueid": "MTK0157:3RWE2M8QWIH710DJA41277GI6X2N0B", "current_trial": 255, "dateTime": 1509381155748, "trialdata": {"rt": -1, "stimulus": "<p id=\"stim\">PIZZA</p>", "key_press": -1, "type": "PRES_VIS", "word": "pizza", "wordID": 1078, "conditions": [24, 1600, "v", 24000], "trial": 6, "serialpos": 18, "trial_type": "single-stim", "trial_index": 255, "time_elapsed": 1390843, "internal_node_id": "0.0-192.0"}}, {"uniqueid": "MTK0157:3RWE2M8QWIH710DJA41277GI6X2N0B", "current_trial": 256, "dateTime": 1509381158385, "trialdata": {"rt": -1, "stimulus": "<p id=\"stim\">DINER</p>", "key_press": -1, "type": "PRES_VIS", "word": "diner", "wordID": 466, "conditions": [24, 1600, "v", 24000], "trial": 6, "serialpos": 19, "trial_type": "single-stim", "trial_index": 256, "time_elapsed": 1393480, "internal_node_id": "0.0-193.0"}}, {"uniqueid": "MTK0157:3RWE2M8QWIH710DJA41277GI6X2N0B", "current_trial": 257, "dateTime": 1509381160933, "trialdata": {"rt": -1, "stimulus": "<p id=\"stim\">SHRUB</p>", "key_press": -1, "type": "PRES_VIS", "word": "shrub", "wordID": 1298, "conditions": [24, 1600, "v", 24000], "trial": 6, "serialpos": 20, "trial_type": "single-stim", "trial_index": 257, "time_elapsed": 1396028, "internal_node_id": "0.0-194.0"}}, {"uniqueid": "MTK0157:3RWE2M8QWIH710DJA41277GI6X2N0B", "current_trial": 258, "dateTime": 1509381163565, "trialdata": {"rt": -1, "stimulus": "<p id=\"stim\">LIZARD</p>", "key_press": -1, "type": "PRES_VIS", "word": "lizard", "wordID": 833, "conditions": [24, 1600, "v", 24000], "trial": 6, "serialpos": 21, "trial_type": "single-stim", "trial_index": 258, "time_elapsed": 1398659, "internal_node_id": "0.0-195.0"}}, {"uniqueid": "MTK0157:3RWE2M8QWIH710DJA41277GI6X2N0B", "current_trial": 259, "dateTime": 1509381165986, "trialdata": {"rt": -1, "stimulus": "<p id=\"stim\">ISLAND</p>", "key_press": -1, "type": "PRES_VIS", "word": "island", "wordID": 744, "conditions": [24, 1600, "v", 24000], "trial": 6, "serialpos": 22, "trial_type": "single-stim", "trial_index": 259, "time_elapsed": 1401081, "internal_node_id": "0.0-196.0"}}, {"uniqueid": "MTK0157:3RWE2M8QWIH710DJA41277GI6X2N0B", "current_trial": 260, "dateTime": 1509381168712, "trialdata": {"rt": -1, "stimulus": "<p id=\"stim\">BABY</p>", "key_press": -1, "type": "PRES_VIS", "word": "baby", "wordID": 63, "conditions": [24, 1600, "v", 24000], "trial": 6, "serialpos": 23, "trial_type": "single-stim", "trial_index": 260, "time_elapsed": 1403807, "internal_node_id": "0.0-197.0"}}, {"uniqueid": "MTK0157:3RWE2M8QWIH710DJA41277GI6X2N0B", "current_trial": 261, "dateTime": 1509381170932, "trialdata": {"rt": -1, "stimulus": "", "key_press": -1, "type": "PRE_RECALL_DELAY", "trial_type": "single-stim", "trial_index": 261, "time_elapsed": 1406026, "internal_node_id": "0.0-198.0-0.0"}}, {"uniqueid": "MTK0157:3RWE2M8QWIH710DJA41277GI6X2N0B", "current_trial": 262, "dateTime": 1509381171437, "trialdata": {"rt": -1000, "stimulus": "/static/audio/400Hz.wav", "key_press": -1, "type": "PRE_RECALL_ALERT", "trial_type": "single-audio", "trial_index": 262, "time_elapsed": 1406532, "internal_node_id": "0.0-199.0"}}, {"uniqueid": "MTK0157:3RWE2M8QWIH710DJA41277GI6X2N0B", "current_trial": 263, "dateTime": 1509381231455, "trialdata": {"rt": [3743, 11471, 14719, 21071, 31103, 38095, 41561, 51199, 59199], "recwords": ["baby", "pepper", "mildew", "leg", "carrot", "blender", "powder", "package", "turkey"], "type": "FREE_RECALL", "conditions": [24, 1600, "v", 24000], "trial": 6, "trial_type": "free-recall", "trial_index": 263, "time_elapsed": 1466545, "internal_node_id": "0.0-200.0-0.0"}}, {"uniqueid": "MTK0157:3RWE2M8QWIH710DJA41277GI6X2N0B", "current_trial": 264, "dateTime": 1509381252872, "trialdata": {"rt": 19415, "key_press": 71, "type": "INSTRUCTIONS", "trial_type": "text", "trial_index": 264, "time_elapsed": 1487966, "internal_node_id": "0.0-201.0"}}, {"uniqueid": "MTK0157:3RWE2M8QWIH710DJA41277GI6X2N0B", "current_trial": 265, "dateTime": 1509381278877, "trialdata": {"rt": [3532, 6371, 9227, 14467, 18540, 20611], "responses": ["11", "16", "13", "18", "7", "5"], "num1": [3, 6, 3, 7, 4, 1, 6], "num2": [1, 5, 5, 4, 1, 2, 5], "num3": [7, 5, 5, 7, 2, 2, 1], "type": "DISTRACTOR", "conditions": [12, 800, "a", 24000], "trial": 7, "trial_type": "math-distractor", "trial_index": 265, "time_elapsed": 1513972, "internal_node_id": "0.0-202.0"}}, {"uniqueid": "MTK0157:3RWE2M8QWIH710DJA41277GI6X2N0B", "current_trial": 266, "dateTime": 1509381281879, "trialdata": {"rt": -1, "stimulus": "<p id=\"stim\">10</p>", "key_press": -1, "trial_type": "single-stim", "trial_index": 266, "time_elapsed": 1516974, "internal_node_id": "0.0-203.0-0.0"}}, {"uniqueid": "MTK0157:3RWE2M8QWIH710DJA41277GI6X2N0B", "current_trial": 267, "dateTime": 1509381282881, "trialdata": {"rt": -1, "stimulus": "<p id=\"stim\">9</p>", "key_press": -1, "trial_type": "single-stim", "trial_index": 267, "time_elapsed": 1517976, "internal_node_id": "0.0-203.0-1.0"}}, {"uniqueid": "MTK0157:3RWE2M8QWIH710DJA41277GI6X2N0B", "current_trial": 268, "dateTime": 1509381283883, "trialdata": {"rt": -1, "stimulus": "<p id=\"stim\">8</p>", "key_press": -1, "trial_type": "single-stim", "trial_index": 268, "time_elapsed": 1518978, "internal_node_id": "0.0-203.0-2.0"}}, {"uniqueid": "MTK0157:3RWE2M8QWIH710DJA41277GI6X2N0B", "current_trial": 269, "dateTime": 1509381284891, "trialdata": {"rt": -1, "stimulus": "<p id=\"stim\">7</p>", "key_press": -1, "trial_type": "single-stim", "trial_index": 269, "time_elapsed": 1519985, "internal_node_id": "0.0-203.0-3.0"}}, {"uniqueid": "MTK0157:3RWE2M8QWIH710DJA41277GI6X2N0B", "current_trial": 270, "dateTime": 1509381285896, "trialdata": {"rt": -1, "stimulus": "<p id=\"stim\">6</p>", "key_press": -1, "trial_type": "single-stim", "trial_index": 270, "time_elapsed": 1520990, "internal_node_id": "0.0-203.0-4.0"}}, {"uni