{"condition": 0, "counterbalance": 174, "assignmentId": "3LJ7UR74RIKO0OVKT5O4JA6VPERN4C", "workerId": "MTK0514", "hitId": "306W7JMRYY5LVWVVCG46K7QMW8PB83", "currenttrial": 626, "bonus": 0, "data": [{"uniqueid": "MTK0514:3LJ7UR74RIKO0OVKT5O4JA6VPERN4C", "current_trial": 0, "dateTime": 1511197175338, "trialdata": {"rt": 2025, "key_press": 32, "type": "INSTRUCTIONS", "trial_type": "text", "trial_index": 0, "time_elapsed": 2029, "internal_node_id": "0.0-0.0"}}, {"uniqueid": "MTK0514:3LJ7UR74RIKO0OVKT5O4JA6VPERN4C", "current_trial": 1, "dateTime": 1511197199447, "trialdata": {"rt": 24105, "key_press": 32, "type": "INSTRUCTIONS", "trial_type": "text", "trial_index": 1, "time_elapsed": 26139, "internal_node_id": "0.0-1.0"}}, {"uniqueid": "MTK0514:3LJ7UR74RIKO0OVKT5O4JA6VPERN4C", "current_trial": 2, "dateTime": 1511197215766, "trialdata": {"rt": [16281], "responses": ["ocean"], "type": "AUDIO_TEST", "trial_type": "audio-test", "trial_index": 2, "time_elapsed": 42459, "internal_node_id": "0.0-2.0"}}, {"uniqueid": "MTK0514:3LJ7UR74RIKO0OVKT5O4JA6VPERN4C", "current_trial": 3, "dateTime": 1511197231798, "trialdata": {"rt": [16020], "responses": ["crystal"], "type": "AUDIO_TEST", "trial_type": "audio-test", "trial_index": 3, "time_elapsed": 58491, "internal_node_id": "0.0-3.0"}}, {"uniqueid": "MTK0514:3LJ7UR74RIKO0OVKT5O4JA6VPERN4C", "current_trial": 4, "dateTime": 1511197242078, "trialdata": {"rt": [10267], "responses": ["spice"], "type": "AUDIO_TEST", "trial_type": "audio-test", "trial_index": 4, "time_elapsed": 68771, "internal_node_id": "0.0-4.0"}}, {"uniqueid": "MTK0514:3LJ7UR74RIKO0OVKT5O4JA6VPERN4C", "current_trial": 5, "dateTime": 1511197283917, "trialdata": {"rt": 41082, "responses": "{\"Q0\":\"12:30am\",\"Q1\":\"7:00 am\",\"Q2\":\"5\"}", "type": "SLEEP_SURVEY", "trial_type": "survey-text", "trial_index": 5, "time_elapsed": 110609, "internal_node_id": "0.0-5.0"}}, {"uniqueid": "MTK0514:3LJ7UR74RIKO0OVKT5O4JA6VPERN4C", "current_trial": 6, "dateTime": 1511197360878, "trialdata": {"rt": 75958, "key_press": 32, "type": "INSTRUCTIONS", "trial_type": "text", "trial_index": 6, "time_elapsed": 187571, "internal_node_id": "0.0-6.0"}}, {"uniqueid": "MTK0514:3LJ7UR74RIKO0OVKT5O4JA6VPERN4C", "current_trial": 7, "dateTime": 1511197381701, "trialdata": {"rt": 20321, "key_press": 32, "type": "INSTRUCTIONS", "trial_type": "text", "trial_index": 7, "time_elapsed": 208394, "internal_node_id": "0.0-7.0"}}, {"uniqueid": "MTK0514:3LJ7UR74RIKO0OVKT5O4JA6VPERN4C", "current_trial": 8, "dateTime": 1511197397191, "trialdata": {"rt": 14988, "key_press": 32, "type": "INSTRUCTIONS", "trial_type": "text", "trial_index": 8, "time_elapsed": 223884, "internal_node_id": "0.0-8.0"}}, {"uniqueid": "MTK0514:3LJ7UR74RIKO0OVKT5O4JA6VPERN4C", "current_trial": 9, "dateTime": 1511197416212, "trialdata": {"rt": [4223, 8810, 14995], "responses": ["13", " 12", "20"], "num1": [4, 7, 4, 3], "num2": [7, 3, 9, 7], "num3": [2, 2, 7, 7], "type": "DISTRACTOR", "conditions": [18, 1200, "v", 18000], "trial": 0, "trial_type": "math-distractor", "trial_index": 9, "time_elapsed": 242905, "internal_node_id": "0.0-9.0"}}, {"uniqueid": "MTK0514:3LJ7UR74RIKO0OVKT5O4JA6VPERN4C", "current_trial": 10, "dateTime": 1511197419218, "trialdata": {"rt": -1, "stimulus": "<p id=\"stim\">10</p>", "key_press": -1, "trial_type": "single-stim", "trial_index": 10, "time_elapsed": 245910, "internal_node_id": "0.0-10.0-0.0"}}, {"uniqueid": "MTK0514:3LJ7UR74RIKO0OVKT5O4JA6VPERN4C", "current_trial": 11, "dateTime": 1511197420220, "trialdata": {"rt": -1, "stimulus": "<p id=\"stim\">9</p>", "key_press": -1, "trial_type": "single-stim", "trial_index": 11, "time_elapsed": 246913, "internal_node_id": "0.0-10.0-1.0"}}, {"uniqueid": "MTK0514:3LJ7UR74RIKO0OVKT5O4JA6VPERN4C", "current_trial": 12, "dateTime": 1511197421222, "trialdata": {"rt": -1, "stimulus": "<p id=\"stim\">8</p>", "key_press": -1, "trial_type": "single-stim", "trial_index": 12, "time_elapsed": 247915, "internal_node_id": "0.0-10.0-2.0"}}, {"uniqueid": "MTK0514:3LJ7UR74RIKO0OVKT5O4JA6VPERN4C", "current_trial": 13, "dateTime": 1511197422224, "trialdata": {"rt": -1, "stimulus": "<p id=\"stim\">7</p>", "key_press": -1, "trial_type": "single-stim", "trial_index": 13, "time_elapsed": 248917, "internal_node_id": "0.0-10.0-3.0"}}, {"uniqueid": "MTK0514:3LJ7UR74RIKO0OVKT5O4JA6VPERN4C", "current_trial": 14, "dateTime": 1511197423225, "trialdata": {"rt": -1, "stimulus": "<p id=\"stim\">6</p>", "key_press": -1, "trial_type": "single-stim", "trial_index": 14, "time_elapsed": 249918, "internal_node_id": "0.0-10.0-4.0"}}, {"uniqueid": "MTK0514:3LJ7UR74RIKO0OVKT5O4JA6VPERN4C", "current_trial": 15, "dateTime": 1511197424227, "trialdata": {"rt": -1, "stimulus": "<p id=\"stim\">5</p>", "key_press": -1, "trial_type": "single-stim", "trial_index": 15, "time_elapsed": 250920, "internal_node_id": "0.0-10.0-5.0"}}, {"uniqueid": "MTK0514:3LJ7UR74RIKO0OVKT5O4JA6VPERN4C", "current_trial": 16, "dateTime": 1511197425229, "trialdata": {"rt": -1, "stimulus": "<p id=\"stim\">4</p>", "key_press": -1, "trial_type": "single-stim", "trial_index": 16, "time_elapsed": 251922, "internal_node_id": "0.0-10.0-6.0"}}, {"uniqueid": "MTK0514:3LJ7UR74RIKO0OVKT5O4JA6VPERN4C", "current_trial": 17, "dateTime": 1511197426231, "trialdata": {"rt": -1, "stimulus": "<p id=\"stim\">3</p>", "key_press": -1, "trial_type": "single-stim", "trial_index": 17, "time_elapsed": 252924, "internal_node_id": "0.0-10.0-7.0"}}, {"uniqueid": "MTK0514:3LJ7UR74RIKO0OVKT5O4JA6VPERN4C", "current_trial": 18, "dateTime": 1511197427233, "trialdata": {"rt": -1, "stimulus": "<p id=\"stim\">2</p>", "key_press": -1, "trial_type": "single-stim", "trial_index": 18, "time_elapsed": 253926, "internal_node_id": "0.0-10.0-8.0"}}, {"uniqueid": "MTK0514:3LJ7UR74RIKO0OVKT5O4JA6VPERN4C", "current_trial": 19, "dateTime": 1511197428264, "trialdata": {"rt": -1, "stimulus": "<p id=\"stim\">1</p>", "key_press": -1, "trial_type": "single-stim", "trial_index": 19, "time_elapsed": 254957, "internal_node_id": "0.0-10.0-9.0"}}, {"uniqueid": "MTK0514:3LJ7UR74RIKO0OVKT5O4JA6VPERN4C", "current_trial": 20, "dateTime": 1511197429766, "trialdata": {"rt": -1, "stimulus": "<p id=\"stim\">+</p>", "key_press": -1, "type": "FIXATION", "trial_type": "single-stim", "trial_index": 20, "time_elapsed": 256459, "internal_node_id": "0.0-11.0-0.0"}}, {"uniqueid": "MTK0514:3LJ7UR74RIKO0OVKT5O4JA6VPERN4C", "current_trial": 21, "dateTime": 1511197430968, "trialdata": {"rt": -1, "stimulus": "<p id=\"stim\">COUSIN</p>", "key_press": -1, "type": "PRES_VIS", "word": "cousin", "wordID": 391, "conditions": [18, 1200, "v", 18000], "trial": 0, "serialpos": 0, "trial_type": "single-stim", "trial_index": 21, "time_elapsed": 257661, "internal_node_id": "0.0-12.0"}}, {"uniqueid": "MTK0514:3LJ7UR74RIKO0OVKT5O4JA6VPERN4C", "current_trial": 22, "dateTime": 1511197433301, "trialdata": {"rt": -1, "stimulus": "<p id=\"stim\">SAUSAGE</p>", "key_press": -1, "type": "PRES_VIS", "word": "sausage", "wordID": 1237, "conditions": [18, 1200, "v", 18000], "trial": 0, "serialpos": 1, "trial_type": "single-stim", "trial_index": 22, "time_elapsed": 259994, "internal_node_id": "0.0-13.0"}}, {"uniqueid": "MTK0514:3LJ7UR74RIKO0OVKT5O4JA6VPERN4C", "current_trial": 23, "dateTime": 1511197435333, "trialdata": {"rt": -1, "stimulus": "<p id=\"stim\">TRIBE</p>", "key_press": -1, "type": "PRES_VIS", "word": "tribe", "wordID": 1504, "conditions": [18, 1200, "v", 18000], "trial": 0, "serialpos": 2, "trial_type": "single-stim", "trial_index": 23, "time_elapsed": 262026, "internal_node_id": "0.0-14.0"}}, {"uniqueid": "MTK0514:3LJ7UR74RIKO0OVKT5O4JA6VPERN4C", "current_trial": 24, "dateTime": 1511197437338, "trialdata": {"rt": -1, "stimulus": "<p id=\"stim\">EGYPT</p>", "key_press": -1, "type": "PRES_VIS", "word": "egypt", "wordID": 518, "conditions": [18, 1200, "v", 18000], "trial": 0, "serialpos": 3, "trial_type": "single-stim", "trial_index": 24, "time_elapsed": 264031, "internal_node_id": "0.0-15.0"}}, {"uniqueid": "MTK0514:3LJ7UR74RIKO0OVKT5O4JA6VPERN4C", "current_trial": 25, "dateTime": 1511197439814, "trialdata": {"rt": -1, "stimulus": "<p id=\"stim\">PIMPLE</p>", "key_press": -1, "type": "PRES_VIS", "word": "pimple", "wordID": 1070, "conditions": [18, 1200, "v", 18000], "trial": 0, "serialpos": 4, "trial_type": "single-stim", "trial_index": 25, "time_elapsed": 266507, "internal_node_id": "0.0-16.0"}}, {"uniqueid": "MTK0514:3LJ7UR74RIKO0OVKT5O4JA6VPERN4C", "current_trial": 26, "dateTime": 1511197442167, "trialdata": {"rt": -1, "stimulus": "<p id=\"stim\">SWIMMER</p>", "key_press": -1, "type": "PRES_VIS", "word": "swimmer", "wordID": 1419, "conditions": [18, 1200, "v", 18000], "trial": 0, "serialpos": 5, "trial_type": "single-stim", "trial_index": 26, "time_elapsed": 268860, "internal_node_id": "0.0-17.0"}}, {"uniqueid": "MTK0514:3LJ7UR74RIKO0OVKT5O4JA6VPERN4C", "current_trial": 27, "dateTime": 1511197444370, "trialdata": {"rt": -1, "stimulus": "<p id=\"stim\">WORLD</p>", "key_press": -1, "type": "PRES_VIS", "word": "world", "wordID": 1621, "conditions": [18, 1200, "v", 18000], "trial": 0, "serialpos": 6, "trial_type": "single-stim", "trial_index": 27, "time_elapsed": 271063, "internal_node_id": "0.0-18.0"}}, {"uniqueid": "MTK0514:3LJ7UR74RIKO0OVKT5O4JA6VPERN4C", "current_trial": 28, "dateTime": 1511197446509, "trialdata": {"rt": -1, "stimulus": "<p id=\"stim\">CONCERT</p>", "key_press": -1, "type": "PRES_VIS", "word": "concert", "wordID": 359, "conditions": [18, 1200, "v", 18000], "trial": 0, "serialpos": 7, "trial_type": "single-stim", "trial_index": 28, "time_elapsed": 273202, "internal_node_id": "0.0-19.0"}}, {"uniqueid": "MTK0514:3LJ7UR74RIKO0OVKT5O4JA6VPERN4C", "current_trial": 29, "dateTime": 1511197448857, "trialdata": {"rt": -1, "stimulus": "<p id=\"stim\">PRIMATE</p>", "key_press": -1, "type": "PRES_VIS", "word": "primate", "wordID": 1122, "conditions": [18, 1200, "v", 18000], "trial": 0, "serialpos": 8, "trial_type": "single-stim", "trial_index": 29, "time_elapsed": 275550, "internal_node_id": "0.0-20.0"}}, {"uniqueid": "MTK0514:3LJ7UR74RIKO0OVKT5O4JA6VPERN4C", "current_trial": 30, "dateTime": 1511197451192, "trialdata": {"rt": -1, "stimulus": "<p id=\"stim\">PANTHER</p>", "key_press": -1, "type": "PRES_VIS", "word": "panther", "wordID": 1008, "conditions": [18, 1200, "v", 18000], "trial": 0, "serialpos": 9, "trial_type": "single-stim", "trial_index": 30, "time_elapsed": 277885, "internal_node_id": "0.0-21.0"}}, {"uniqueid": "MTK0514:3LJ7UR74RIKO0OVKT5O4JA6VPERN4C", "current_trial": 31, "dateTime": 1511197453391, "trialdata": {"rt": -1, "stimulus": "<p id=\"stim\">PUDDLE</p>", "key_press": -1, "type": "PRES_VIS", "word": "puddle", "wordID": 1139, "conditions": [18, 1200, "v", 18000], "trial": 0, "serialpos": 10, "trial_type": "single-stim", "trial_index": 31, "time_elapsed": 280084, "internal_node_id": "0.0-22.0"}}, {"uniqueid": "MTK0514:3LJ7UR74RIKO0OVKT5O4JA6VPERN4C", "current_trial": 32, "dateTime": 1511197455751, "trialdata": {"rt": -1, "stimulus": "<p id=\"stim\">RIVER</p>", "key_press": -1, "type": "PRES_VIS", "word": "river", "wordID": 1193, "conditions": [18, 1200, "v", 18000], "trial": 0, "serialpos": 11, "trial_type": "single-stim", "trial_index": 32, "time_elapsed": 282444, "internal_node_id": "0.0-23.0"}}, {"uniqueid": "MTK0514:3LJ7UR74RIKO0OVKT5O4JA6VPERN4C", "current_trial": 33, "dateTime": 1511197457843, "trialdata": {"rt": -1, "stimulus": "<p id=\"stim\">BLOUSE</p>", "key_press": -1, "type": "PRES_VIS", "word": "blouse", "wordID": 138, "conditions": [18, 1200, "v", 18000], "trial": 0, "serialpos": 12, "trial_type": "single-stim", "trial_index": 33, "time_elapsed": 284536, "internal_node_id": "0.0-24.0"}}, {"uniqueid": "MTK0514:3LJ7UR74RIKO0OVKT5O4JA6VPERN4C", "current_trial": 34, "dateTime": 1511197460179, "trialdata": {"rt": -1, "stimulus": "<p id=\"stim\">MUFFIN</p>", "key_press": -1, "type": "PRES_VIS", "word": "muffin", "wordID": 928, "conditions": [18, 1200, "v", 18000], "trial": 0, "serialpos": 13, "trial_type": "single-stim", "trial_index": 34, "time_elapsed": 286872, "internal_node_id": "0.0-25.0"}}, {"uniqueid": "MTK0514:3LJ7UR74RIKO0OVKT5O4JA6VPERN4C", "current_trial": 35, "dateTime": 1511197462372, "trialdata": {"rt": -1, "stimulus": "<p id=\"stim\">KEEPER</p>", "key_press": -1, "type": "PRES_VIS", "word": "keeper", "wordID": 768, "conditions": [18, 1200, "v", 18000], "trial": 0, "serialpos": 14, "trial_type": "single-stim", "trial_index": 35, "time_elapsed": 289065, "internal_node_id": "0.0-26.0"}}, {"uniqueid": "MTK0514:3LJ7UR74RIKO0OVKT5O4JA6VPERN4C", "current_trial": 36, "dateTime": 1511197464639, "trialdata": {"rt": -1, "stimulus": "<p id=\"stim\">STUDENT</p>", "key_press": -1, "type": "PRES_VIS", "word": "student", "wordID": 1394, "conditions": [18, 1200, "v", 18000], "trial": 0, "serialpos": 15, "trial_type": "single-stim", "trial_index": 36, "time_elapsed": 291331, "internal_node_id": "0.0-27.0"}}, {"uniqueid": "MTK0514:3LJ7UR74RIKO0OVKT5O4JA6VPERN4C", "current_trial": 37, "dateTime": 1511197466766, "trialdata": {"rt": -1, "stimulus": "<p id=\"stim\">CLAM</p>", "key_press": -1, "type": "PRES_VIS", "word": "clam", "wordID": 314, "conditions": [18, 1200, "v", 18000], "trial": 0, "serialpos": 16, "trial_type": "single-stim", "trial_index": 37, "time_elapsed": 293459, "internal_node_id": "0.0-28.0"}}, {"uniqueid": "MTK0514:3LJ7UR74RIKO0OVKT5O4JA6VPERN4C", "current_trial": 38, "dateTime": 1511197468975, "trialdata": {"rt": -1, "stimulus": "<p id=\"stim\">BULLET</p>", "key_press": -1, "type": "PRES_VIS", "word": "bullet", "wordID": 193, "conditions": [18, 1200, "v", 18000], "trial": 0, "serialpos": 17, "trial_type": "single-stim", "trial_index": 38, "time_elapsed": 295668, "internal_node_id": "0.0-29.0"}}, {"uniqueid": "MTK0514:3LJ7UR74RIKO0OVKT5O4JA6VPERN4C", "current_trial": 39, "dateTime": 1511197471250, "trialdata": {"rt": -1, "stimulus": "", "key_press": -1, "type": "PRE_RECALL_DELAY", "trial_type": "single-stim", "trial_index": 39, "time_elapsed": 297942, "internal_node_id": "0.0-30.0-0.0"}}, {"uniqueid": "MTK0514:3LJ7UR74RIKO0OVKT5O4JA6VPERN4C", "current_trial": 40, "dateTime": 1511197471754, "trialdata": {"rt": -1000, "stimulus": "/static/audio/400Hz.wav", "key_press": -1, "type": "PRE_RECALL_ALERT", "trial_type": "single-audio", "trial_index": 40, "time_elapsed": 298447, "internal_node_id": "0.0-31.0"}}, {"uniqueid": "MTK0514:3LJ7UR74RIKO0OVKT5O4JA6VPERN4C", "current_trial": 41, "dateTime": 1511197531766, "trialdata": {"rt": [2808, 4926, 7702, 10130, 17050, 20928, 33963, 38860], "recwords": ["river", "student", "calm", "panther", "puddle", "sausage", "pimple", ""], "type": "FREE_RECALL", "conditions": [18, 1200, "v", 18000], "trial": 0, "trial_type": "free-recall", "trial_index": 41, "time_elapsed": 358454, "internal_node_id": "0.0-32.0-0.0"}}, {"uniqueid": "MTK0514:3LJ7UR74RIKO0OVKT5O4JA6VPERN4C", "current_trial": 42, "dateTime": 1511197536247, "trialdata": {"rt": 2410, "key_press": 32, "type": "INSTRUCTIONS", "trial_type": "text", "trial_index": 42, "time_elapsed": 362940, "internal_node_id": "0.0-33.0"}}, {"uniqueid": "MTK0514:3LJ7UR74RIKO0OVKT5O4JA6VPERN4C", "current_trial": 43, "dateTime": 1511197556254, "trialdata": {"rt": [4515, 8821, 15771], "responses": ["12", "21", "15"], "num1": [4, 7, 1, 9], "num2": [1, 6, 8, 5], "num3": [7, 8, 6, 1], "type": "DISTRACTOR", "conditions": [18, 1200, "a", 18000], "trial": 1, "trial_type": "math-distractor", "trial_index": 43, "time_elapsed": 382946, "internal_node_id": "0.0-34.0"}}, {"uniqueid": "MTK0514:3LJ7UR74RIKO0OVKT5O4JA6VPERN4C", "current_trial": 44, "dateTime": 1511197559263, "trialdata": {"rt": -1, "stimulus": "<p id=\"stim\">10</p>", "key_press": -1, "trial_type": "single-stim", "trial_index": 44, "time_elapsed": 385956, "internal_node_id": "0.0-35.0-0.0"}}, {"uniqueid": "MTK0514:3LJ7UR74RIKO0OVKT5O4JA6VPERN4C", "current_trial": 45, "dateTime": 1511197560266, "trialdata": {"rt": -1, "stimulus": "<p id=\"stim\">9</p>", "key_press": -1, "trial_type": "single-stim", "trial_index": 45, "time_elapsed": 386959, "internal_node_id": "0.0-35.0-1.0"}}, {"uniqueid": "MTK0514:3LJ7UR74RIKO0OVKT5O4JA6VPERN4C", "current_trial": 46, "dateTime": 1511197561278, "trialdata": {"rt": -1, "stimulus": "<p id=\"stim\">8</p>", "key_press": -1, "trial_type": "single-stim", "trial_index": 46, "time_elapsed": 387971, "internal_node_id": "0.0-35.0-2.0"}}, {"uniqueid": "MTK0514:3LJ7UR74RIKO0OVKT5O4JA6VPERN4C", "current_trial": 47, "dateTime": 1511197562279, "trialdata": {"rt": -1, "stimulus": "<p id=\"stim\">7</p>", "key_press": -1, "trial_type": "single-stim", "trial_index": 47, "time_elapsed": 388972, "internal_node_id": "0.0-35.0-3.0"}}, {"uniqueid": "MTK0514:3LJ7UR74RIKO0OVKT5O4JA6VPERN4C", "current_trial": 48, "dateTime": 1511197563398, "trialdata": {"rt": -1, "stimulus": "<p id=\"stim\">6</p>", "key_press": -1, "trial_type": "single-stim", "trial_index": 48, "time_elapsed": 390091, "internal_node_id": "0.0-35.0-4.0"}}, {"uniqueid": "MTK0514:3LJ7UR74RIKO0OVKT5O4JA6VPERN4C", "current_trial": 49, "dateTime": 1511197564400, "trialdata": {"rt": -1, "stimulus": "<p id=\"stim\">5</p>", "key_press": -1, "trial_type": "single-stim", "trial_index": 49, "time_elapsed": 391093, "internal_node_id": "0.0-35.0-5.0"}}, {"uniqueid": "MTK0514:3LJ7UR74RIKO0OVKT5O4JA6VPERN4C", "current_trial": 50, "dateTime": 1511197565402, "trialdata": {"rt": -1, "stimulus": "<p id=\"stim\">4</p>", "key_press": -1, "trial_type": "single-stim", "trial_index": 50, "time_elapsed": 392095, "internal_node_id": "0.0-35.0-6.0"}}, {"uniqueid": "MTK0514:3LJ7UR74RIKO0OVKT5O4JA6VPERN4C", "current_trial": 51, "dateTime": 1511197566405, "trialdata": {"rt": -1, "stimulus": "<p id=\"stim\">3</p>", "key_press": -1, "trial_type": "single-stim", "trial_index": 51, "time_elapsed": 393097, "internal_node_id": "0.0-35.0-7.0"}}, {"uniqueid": "MTK0514:3LJ7UR74RIKO0OVKT5O4JA6VPERN4C", "current_trial": 52, "dateTime": 1511197567407, "trialdata": {"rt": -1, "stimulus": "<p id=\"stim\">2</p>", "key_press": -1, "trial_type": "single-stim", "trial_index": 52, "time_elapsed": 394100, "internal_node_id": "0.0-35.0-8.0"}}, {"uniqueid": "MTK0514:3LJ7UR74RIKO0OVKT5O4JA6VPERN4C", "current_trial": 53, "dateTime": 1511197568409, "trialdata": {"rt": -1, "stimulus": "<p id=\"stim\">1</p>", "key_press": -1, "trial_type": "single-stim", "trial_index": 53, "time_elapsed": 395102, "internal_node_id": "0.0-35.0-9.0"}}, {"uniqueid": "MTK0514:3LJ7UR74RIKO0OVKT5O4JA6VPERN4C", "current_trial": 54, "dateTime": 1511197569911, "trialdata": {"rt": -1, "stimulus": "<p id=\"stim\">+</p>", "key_press": -1, "type": "FIXATION", "trial_type": "single-stim", "trial_index": 54, "time_elapsed": 396604, "internal_node_id": "0.0-36.0-0.0"}}, {"uniqueid": "MTK0514:3LJ7UR74RIKO0OVKT5O4JA6VPERN4C", "current_trial": 55, "dateTime": 1511197571953, "trialdata": {"rt": -1000, "stimulus": "/static/audio/wordpool/KIDNEY.wav", "key_press": -1, "type": "PRES_AUD", "word": "kidney", "wordID": 775, "conditions": [18, 1200, "a", 18000], "trial": 1, "serialpos": 0, "trial_type": "single-audio", "trial_index": 55, "time_elapsed": 398645, "internal_node_id": "0.0-37.0"}}, {"uniqueid": "MTK0514:3LJ7UR74RIKO0OVKT5O4JA6VPERN4C", "current_trial": 56, "dateTime": 1511197574134, "trialdata": {"rt": -1000, "stimulus": "/static/audio/wordpool/COFFEE.wav", "key_press": -1, "type": "PRES_AUD", "word": "coffee", "wordID": 340, "conditions": [18, 1200, "a", 18000], "trial": 1, "serialpos": 1, "trial_type": "single-audio", "trial_index": 56, "time_elapsed": 400826, "internal_node_id": "0.0-38.0"}}, {"uniqueid": "MTK0514:3LJ7UR74RIKO0OVKT5O4JA6VPERN4C", "current_trial": 57, "dateTime": 1511197576207, "trialdata": {"rt": -1000, "stimulus": "/static/audio/wordpool/DANCER.wav", "key_press": -1, "type": "PRES_AUD", "word": "dancer", "wordID": 436, "conditions": [18, 1200, "a", 18000], "trial": 1, "serialpos": 2, "trial_type": "single-audio", "trial_index": 57, "time_elapsed": 402900, "internal_node_id": "0.0-39.0"}}, {"uniqueid": "MTK0514:3LJ7UR74RIKO0OVKT5O4JA6VPERN4C", "current_trial": 58, "dateTime": 1511197578268, "trialdata": {"rt": -1000, "stimulus": "/static/audio/wordpool/JUNGLE.wav", "key_press": -1, "type": "PRES_AUD", "word": "jungle", "wordID": 763, "conditions": [18, 1200, "a", 18000], "trial": 1, "serialpos": 3, "trial_type": "single-audio", "trial_index": 58, "time_elapsed": 404961, "internal_node_id": "0.0-40.0"}}, {"uniqueid": "MTK0514:3LJ7UR74RIKO0OVKT5O4JA6VPERN4C", "current_trial": 59, "dateTime": 1511197580472, "trialdata": {"rt": -1000, "stimulus": "/static/audio/wordpool/TWEEZERS.wav", "key_press": -1, "type": "PRES_AUD", "word": "tweezers", "wordID": 1525, "conditions": [18, 1200, "a", 18000], "trial": 1, "serialpos": 4, "trial_type": "single-audio", "trial_index": 59, "time_elapsed": 407164, "internal_node_id": "0.0-41.0"}}, {"uniqueid": "MTK0514:3LJ7UR74RIKO0OVKT5O4JA6VPERN4C", "current_trial": 60, "dateTime": 1511197582496, "trialdata": {"rt": -1000, "stimulus": "/static/audio/wordpool/WHISTLE.wav", "key_press": -1, "type": "PRES_AUD", "word": "whistle", "wordID": 1605, "conditions": [18, 1200, "a", 18000], "trial": 1, "serialpos": 5, "trial_type": "single-audio", "trial_index": 60, "time_elapsed": 409189, "internal_node_id": "0.0-42.0"}}, {"uniqueid": "MTK0514:3LJ7UR74RIKO0OVKT5O4JA6VPERN4C", "current_trial": 61, "dateTime": 1511197584578, "trialdata": {"rt": -1000, "stimulus": "/static/audio/wordpool/AIRPORT.wav", "key_press": -1, "type": "PRES_AUD", "word": "airport", "wordID": 12, "conditions": [18, 1200, "a", 18000], "trial": 1, "serialpos": 6, "trial_type": "single-audio", "trial_index": 61, "time_elapsed": 411271, "internal_node_id": "0.0-43.0"}}, {"uniqueid": "MTK0514:3LJ7UR74RIKO0OVKT5O4JA6VPERN4C", "current_trial": 62, "dateTime": 1511197586872, "trialdata": {"rt": -1000, "stimulus": "/static/audio/wordpool/CLOUD.wav", "key_press": -1, "type": "PRES_AUD", "word": "cloud", "wordID": 327, "conditions": [18, 1200, "a", 18000], "trial": 1, "serialpos": 7, "trial_type": "single-audio", "trial_index": 62, "time_elapsed": 413565, "internal_node_id": "0.0-44.0"}}, {"uniqueid": "MTK0514:3LJ7UR74RIKO0OVKT5O4JA6VPERN4C", "current_trial": 63, "dateTime": 1511197588891, "trialdata": {"rt": -1000, "stimulus": "/static/audio/wordpool/BARREL.wav", "key_press": -1, "type": "PRES_AUD", "word": "barrel", "wordID": 90, "conditions": [18, 1200, "a", 18000], "trial": 1, "serialpos": 8, "trial_type": "single-audio", "trial_index": 63, "time_elapsed": 415584, "internal_node_id": "0.0-45.0"}}, {"uniqueid": "MTK0514:3LJ7UR74RIKO0OVKT5O4JA6VPERN4C", "current_trial": 64, "dateTime": 1511197591231, "trialdata": {"rt": -1000, "stimulus": "/static/audio/wordpool/FILM.wav", "key_press": -1, "type": "PRES_AUD", "word": "film", "wordID": 564, "conditions": [18, 1200, "a", 18000], "trial": 1, "serialpos": 9, "trial_type": "single-audio", "trial_index": 64, "time_elapsed": 417924, "internal_node_id": "0.0-46.0"}}, {"uniqueid": "MTK0514:3LJ7UR74RIKO0OVKT5O4JA6VPERN4C", "current_trial": 65, "dateTime": 1511197593356, "trialdata": {"rt": -1000, "stimulus": "/static/audio/wordpool/CHAMPAGNE.wav", "key_press": -1, "type": "PRES_AUD", "word": "champagne", "wordID": 277, "conditions": [18, 1200, "a", 18000], "trial": 1, "serialpos": 10, "trial_type": "single-audio", "trial_index": 65, "time_elapsed": 420049, "internal_node_id": "0.0-47.0"}}, {"uniqueid": "MTK0514:3LJ7UR74RIKO0OVKT5O4JA6VPERN4C", "current_trial": 66, "dateTime": 1511197595548, "trialdata": {"rt": -1000, "stimulus": "/static/audio/wordpool/SEAFOOD.wav", "key_press": -1, "type": "PRES_AUD", "word": "seafood", "wordID": 1259, "conditions": [18, 1200, "a", 18000], "trial": 1, "serialpos": 11, "trial_type": "single-audio", "trial_index": 66, "time_elapsed": 422241, "internal_node_id": "0.0-48.0"}}, {"uniqueid": "MTK0514:3LJ7UR74RIKO0OVKT5O4JA6VPERN4C", "current_trial": 67, "dateTime": 1511197597849, "trialdata": {"rt": -1000, "stimulus": "/static/audio/wordpool/TAXI.wav", "key_press": -1, "type": "PRES_AUD", "word": "taxi", "wordID": 1437, "conditions": [18, 1200, "a", 18000], "trial": 1, "serialpos": 12, "trial_type": "single-audio", "trial_index": 67, "time_elapsed": 424541, "internal_node_id": "0.0-49.0"}}, {"uniqueid": "MTK0514:3LJ7UR74RIKO0OVKT5O4JA6VPERN4C", "current_trial": 68, "dateTime": 1511197599888, "trialdata": {"rt": -1000, "stimulus": "/static/audio/wordpool/JAPAN.wav", "key_press": -1, "type": "PRES_AUD", "word": "japan", "wordID": 748, "conditions": [18, 1200, "a", 18000], "trial": 1, "serialpos": 13, "trial_type": "single-audio", "trial_index": 68, "time_elapsed": 426575, "internal_node_id": "0.0-50.0"}}, {"uniqueid": "MTK0514:3LJ7UR74RIKO0OVKT5O4JA6VPERN4C", "current_trial": 69, "dateTime": 1511197602119, "trialdata": {"rt": -1000, "stimulus": "/static/audio/wordpool/FRANCE.wav", "key_press": -1, "type": "PRES_AUD", "word": "france", "wordID": 600, "conditions": [18, 1200, "a", 18000], "trial": 1, "serialpos": 14, "trial_type": "single-audio", "trial_index": 69, "time_elapsed": 428812, "internal_node_id": "0.0-51.0"}}, {"uniqueid": "MTK0514:3LJ7UR74RIKO0OVKT5O4JA6VPERN4C", "current_trial": 70, "dateTime": 1511197604472, "trialdata": {"rt": -1000, "stimulus": "/static/audio/wordpool/PROTON.wav", "key_press": -1, "type": "PRES_AUD", "word": "proton", "wordID": 1131, "conditions": [18, 1200, "a", 18000], "trial": 1, "serialpos": 15, "trial_type": "single-audio", "trial_index": 70, "time_elapsed": 431165, "internal_node_id": "0.0-52.0"}}, {"uniqueid": "MTK0514:3LJ7UR74RIKO0OVKT5O4JA6VPERN4C", "current_trial": 71, "dateTime": 1511197606673, "trialdata": {"rt": -1000, "stimulus": "/static/audio/wordpool/CREATURE.wav", "key_press": -1, "type": "PRES_AUD", "word": "creature", "wordID": 402, "conditions": [18, 1200, "a", 18000], "trial": 1, "serialpos": 16, "trial_type": "single-audio", "trial_index": 71, "time_elapsed": 433366, "internal_node_id": "0.0-53.0"}}, {"uniqueid": "MTK0514:3LJ7UR74RIKO0OVKT5O4JA6VPERN4C", "current_trial": 72, "dateTime": 1511197608939, "trialdata": {"rt": -1000, "stimulus": "/static/audio/wordpool/QUAIL.wav", "key_press": -1, "type": "PRES_AUD", "word": "quail", "wordID": 1146, "conditions": [18, 1200, "a", 18000], "trial": 1, "serialpos": 17, "trial_type": "single-audio", "trial_index": 72, "time_elapsed": 435632, "internal_node_id": "0.0-54.0"}}, {"uniqueid": "MTK0514:3LJ7UR74RIKO0OVKT5O4JA6VPERN4C", "current_trial": 73, "dateTime": 1511197610290, "trialdata": {"rt": -1, "stimulus": "", "key_press": -1, "type": "PRE_RECALL_DELAY", "trial_type": "single-stim", "trial_index": 73, "time_elapsed": 436983, "internal_node_id": "0.0-55.0-0.0"}}, {"uniqueid": "MTK0514:3LJ7UR74RIKO0OVKT5O4JA6VPERN4C", "current_trial": 74, "dateTime": 1511197610792, "trialdata": {"rt": -1000, "stimulus": "/static/audio/400Hz.wav", "key_press": -1, "type": "PRE_RECALL_ALERT", "trial_type": "single-audio", "trial_index": 74, "time_elapsed": 437485, "internal_node_id": "0.0-56.0"}}, {"uniqueid": "MTK0514:3LJ7UR74RIKO0OVKT5O4JA6VPERN4C", "current_trial": 75, "dateTime": 1511197670802, "trialdata": {"rt": [1930, 5001, 7170, 8477, 20934, 27309, 52884], "recwords": ["whale", "proton", "sydney", "whale", "dancer", "juice", "worker"], "type": "FREE_RECALL", "conditions": [18, 1200, "a", 18000], "trial": 1, "trial_type": "free-recall", "trial_index": 75, "time_elapsed": 497489, "internal_node_id": "0.0-57.0-0.0"}}, {"uniqueid": "MTK0514:3LJ7UR74RIKO0OVKT5O4JA6VPERN4C", "current_trial": 76, "dateTime": 1511197676477, "trialdata": {"rt": 3665, "key_press": 32, "type": "INSTRUCTIONS", "trial_type": "text", "trial_index": 76, "time_elapsed": 503161, "internal_node_id": "0.0-58.0"}}, {"uniqueid": "MTK0514:3LJ7UR74RIKO0OVKT5O4JA6VPERN4C", "current_trial": 77, "dateTime": 1511197689484, "trialdata": {"rt": [4176, 7217, 11293], "responses": ["19", "14", "21"], "num1": [8, 8, 8, 7], "num2": [3, 5, 8, 2], "num3": [9, 1, 5, 8], "type": "DISTRACTOR", "conditions": [24, 800, "v", 12000], "trial": 2, "trial_type": "math-distractor", "trial_index": 77, "time_elapsed": 516177, "internal_node_id": "0.0-59.0"}}, {"uniqueid": "MTK0514:3LJ7UR74RIKO0OVKT5O4JA6VPERN4C", "current_trial": 78, "dateTime": 1511197692487, "trialdata": {"rt": -1, "stimulus": "<p id=\"stim\">10</p>", "key_press": -1, "trial_type": "single-stim", "trial_index": 78, "time_elapsed": 519180, "internal_node_id": "0.0-60.0-0.0"}}, {"uniqueid": "MTK0514:3LJ7UR74RIKO0OVKT5O4JA6VPERN4C", "current_trial": 79, "dateTime": 1511197693490, "trialdata": {"rt": -1, "stimulus": "<p id=\"stim\">9</p>", "key_press": -1, "trial_type": "single-stim", "trial_index": 79, "time_elapsed": 520183, "internal_node_id": "0.0-60.0-1.0"}}, {"uniqueid": "MTK0514:3LJ7UR74RIKO0OVKT5O4JA6VPERN4C", "current_trial": 80, "dateTime": 1511197694492, "trialdata": {"rt": -1, "stimulus": "<p id=\"stim\">8</p>", "key_press": -1, "trial_type": "single-stim", "trial_index": 80, "time_elapsed": 521184, "internal_node_id": "0.0-60.0-2.0"}}, {"uniqueid": "MTK0514:3LJ7UR74RIKO0OVKT5O4JA6VPERN4C", "current_trial": 81, "dateTime": 1511197695494, "trialdata": {"rt": -1, "stimulus": "<p id=\"stim\">7</p>", "key_press": -1, "trial_type": "single-stim", "trial_index": 81, "time_elapsed": 522186, "internal_node_id": "0.0-60.0-3.0"}}, {"uniqueid": "MTK0514:3LJ7UR74RIKO0OVKT5O4JA6VPERN4C", "current_trial": 82, "dateTime": 1511197696522, "trialdata": {"rt": -1, "stimulus": "<p id=\"stim\">6</p>", "key_press": -1, "trial_type": "single-stim", "trial_index": 82, "time_elapsed": 523215, "internal_node_id": "0.0-60.0-4.0"}}, {"uniqueid": "MTK0514:3LJ7UR74RIKO0OVKT5O4JA6VPERN4C", "current_trial": 83, "dateTime": 1511197697525, "trialdata": {"rt": -1, "stimulus": "<p id=\"stim\">5</p>", "key_press": -1, "trial_type": "single-stim", "trial_index": 83, "time_elapsed": 524217, "internal_node_id": "0.0-60.0-5.0"}}, {"uniqueid": "MTK0514:3LJ7UR74RIKO0OVKT5O4JA6VPERN4C", "current_trial": 84, "dateTime": 1511197698705, "trialdata": {"rt": -1, "stimulus": "<p id=\"stim\">4</p>", "key_press": -1, "trial_type": "single-stim", "trial_index": 84, "time_elapsed": 525398, "internal_node_id": "0.0-60.0-6.0"}}, {"uniqueid": "MTK0514:3LJ7UR74RIKO0OVKT5O4JA6VPERN4C", "current_trial": 85, "dateTime": 1511197699707, "trialdata": {"rt": -1, "stimulus": "<p id=\"stim\">3</p>", "key_press": -1, "trial_type": "single-stim", "trial_index": 85, "time_elapsed": 526400, "internal_node_id": "0.0-60.0-7.0"}}, {"uniqueid": "MTK0514:3LJ7UR74RIKO0OVKT5O4JA6VPERN4C", "current_trial": 86, "dateTime": 1511197700748, "trialdata": {"rt": -1, "stimulus": "<p id=\"stim\">2</p>", "key_press": -1, "trial_type": "single-stim", "trial_index": 86, "time_elapsed": 527440, "internal_node_id": "0.0-60.0-8.0"}}, {"uniqueid": "MTK0514:3LJ7UR74RIKO0OVKT5O4JA6VPERN4C", "current_trial": 87, "dateTime": 1511197701750, "trialdata": {"rt": -1, "stimulus": "<p id=\"stim\">1</p>", "key_press": -1, "trial_type": "single-stim", "trial_index": 87, "time_elapsed": 528442, "internal_node_id": "0.0-60.0-9.0"}}, {"uniqueid": "MTK0514:3LJ7UR74RIKO0OVKT5O4JA6VPERN4C", "current_trial": 88, "dateTime": 1511197703252, "trialdata": {"rt": -1, "stimulus": "<p id=\"stim\">+</p>", "key_press": -1, "type": "FIXATION", "trial_type": "single-stim", "trial_index": 88, "time_elapsed": 529945, "internal_node_id": "0.0-61.0-0.0"}}, {"uniqueid": "MTK0514:3LJ7UR74RIKO0OVKT5O4JA6VPERN4C", "current_trial": 89, "dateTime": 1511197704054, "trialdata": {"rt": -1, "stimulus": "<p id=\"stim\">LILY</p>", "key_press": -1, "type": "PRES_VIS", "word": "lily", "wordID": 820, "conditions": [24, 800, "v", 12000], "trial": 2, "serialpos": 0, "trial_type": "single-stim", "trial_index": 89, "time_elapsed": 530747, "internal_node_id": "0.0-62.0"}}, {"uniqueid": "MTK0514:3LJ7UR74RIKO0OVKT5O4JA6VPERN4C", "current_trial": 90, "dateTime": 1511197705756, "trialdata": {"rt": -1, "stimulus": "<p id=\"stim\">ORANGE</p>", "key_press": -1, "type": "PRES_VIS", "word": "orange", "wordID": 979, "conditions": [24, 800, "v", 12000], "trial": 2, "serialpos": 1, "trial_type": "single-stim", "trial_index": 90, "time_elapsed": 532449, "internal_node_id": "0.0-63.0"}}, {"uniqueid": "MTK0514:3LJ7UR74RIKO0OVKT5O4JA6VPERN4C", "current_trial": 91, "dateTime": 1511197707862, "trialdata": {"rt": -1, "stimulus": "<p id=\"stim\">DRAGON</p>", "key_press": -1, "type": "PRES_VIS", "word": "dragon", "wordID": 491, "conditions": [24, 800, "v", 12000], "trial": 2, "serialpos": 2, "trial_type": "single-stim", "trial_index": 91, "time_elapsed": 534555, "internal_node_id": "0.0-64.0"}}, {"uniqueid": "MTK0514:3LJ7UR74RIKO0OVKT5O4JA6VPERN4C", "current_trial": 92, "dateTime": 1511197709489, "trialdata": {"rt": -1, "stimulus": "<p id=\"stim\">DENIM</p>", "key_press": -1, "type": "PRES_VIS", "word": "denim", "wordID": 445, "conditions": [24, 800, "v", 12000], "trial": 2, "serialpos": 3, "trial_type": "single-stim", "trial_index": 92, "time_elapsed": 536181, "internal_node_id": "0.0-65.0"}}, {"uniqueid": "MTK0514:3LJ7UR74RIKO0OVKT5O4JA6VPERN4C", "current_trial": 93, "dateTime": 1511197711316, "trialdata": {"rt": -1, "stimulus": "<p id=\"stim\">DRESS</p>", "key_press": -1, "type": "PRES_VIS", "word": "dress", "wordID": 494, "conditions": [24, 800, "v", 12000], "trial": 2, "serialpos": 4, "trial_type": "single-stim", "trial_index": 93, "time_elapsed": 538009, "internal_node_id": "0.0-66.0"}}, {"uniqueid": "MTK0514:3LJ7UR74RIKO0OVKT5O4JA6VPERN4C", "current_trial": 94, "dateTime": 1511197712933, "trialdata": {"rt": -1, "stimulus": "<p id=\"stim\">SHOULDER</p>", "key_press": -1, "type": "PRES_VIS", "word": "shoulder", "wordID": 1293, "conditions": [24, 800, "v", 12000], "trial": 2, "serialpos": 5, "trial_type": "single-stim", "trial_index": 94, "time_elapsed": 539626, "internal_node_id": "0.0-67.0"}}, {"uniqueid": "MTK0514:3LJ7UR74RIKO0OVKT5O4JA6VPERN4C", "current_trial": 95, "dateTime": 1511197714749, "trialdata": {"rt": -1, "stimulus": "<p id=\"stim\">TRANSPLANT</p>", "key_press": -1, "type": "PRES_VIS", "word": "transplant", "wordID": 1495, "conditions": [24, 800, "v", 12000], "trial": 2, "serialpos": 6, "trial_type": "single-stim", "trial_index": 95, "time_elapsed": 541442, "internal_node_id": "0.0-68.0"}}, {"uniqueid": "MTK0514:3LJ7UR74RIKO0OVKT5O4JA6VPERN4C", "current_trial": 96, "dateTime": 1511197716693, "trialdata": {"rt": -1, "stimulus": "<p id=\"stim\">ORCHID</p>", "key_press": -1, "type": "PRES_VIS", "word": "orchid", "wordID": 981, "conditions": [24, 800, "v", 12000], "trial": 2, "serialpos": 7, "trial_type": "single-stim", "trial_index": 96, "time_elapsed": 543385, "internal_node_id": "0.0-69.0"}}, {"uniqueid": "MTK0514:3LJ7UR74RIKO0OVKT5O4JA6VPERN4C", "current_trial": 97, "dateTime": 1511197718329, "trialdata": {"rt": -1, "stimulus": "<p id=\"stim\">SUMMIT</p>", "key_press": -1, "type": "PRES_VIS", "word": "summit", "wordID": 1404, "conditions": [24, 800, "v", 12000], "trial": 2, "serialpos": 8, "trial_type": "single-stim", "trial_index": 97, "time_elapsed": 545021, "internal_node_id": "0.0-70.0"}}, {"uniqueid": "MTK0514:3LJ7UR74RIKO0OVKT5O4JA6VPERN4C", "current_trial": 98, "dateTime": 1511197720224, "trialdata": {"rt": -1, "stimulus": "<p id=\"stim\">ULCER</p>", "key_press": -1, "type": "PRES_VIS", "word": "ulcer", "wordID": 1532, "conditions": [24, 800, "v", 12000], "trial": 2, "serialpos": 9, "trial_type": "single-stim", "trial_index": 98, "time_elapsed": 546916, "internal_node_id": "0.0-71.0"}}, {"uniqueid": "MTK0514:3LJ7UR74RIKO0OVKT5O4JA6VPERN4C", "current_trial": 99, "dateTime": 1511197721865, "trialdata": {"rt": -1, "stimulus": "<p id=\"stim\">LEG</p>", "key_press": -1, "type": "PRES_VIS", "word": "leg", "wordID": 808, "conditions": [24, 800, "v", 12000], "trial": 2, "serialpos": 10, "trial_type": "single-stim", "trial_index": 99, "time_elapsed": 548558, "internal_node_id": "0.0-72.0"}}, {"uniqueid": "MTK0514:3LJ7UR74RIKO0OVKT5O4JA6VPERN4C", "current_trial": 100, "dateTime": 1511197723516, "trialdata": {"rt": -1, "stimulus": "<p id=\"stim\">XEROX</p>", "key_press": -1, "type": "PRES_VIS", "word": "xerox", "wordID": 1627, "conditions": [24, 800, "v", 12000], "trial": 2, "serialpos": 11, "trial_type": "single-stim", "trial_index": 100, "time_elapsed": 550208, "internal_node_id": "0.0-73.0"}}, {"uniqueid": "MTK0514:3LJ7UR74RIKO0OVKT5O4JA6VPERN4C", "current_trial": 101, "dateTime": 1511197725264, "trialdata": {"rt": -1, "stimulus": "<p id=\"stim\">SCARF</p>", "key_press": -1, "type": "PRES_VIS", "word": "scarf", "wordID": 1245, "conditions": [24, 800, "v", 12000], "trial": 2, "serialpos": 12, "trial_type": "single-stim", "trial_index": 101, "time_elapsed": 551957, "internal_node_id": "0.0-74.0"}}, {"uniqueid": "MTK0514:3LJ7UR74RIKO0OVKT5O4JA6VPERN4C", "current_trial": 102, "dateTime": 1511197727120, "trialdata": {"rt": -1, "stimulus": "<p id=\"stim\">GRAVEL</p>", "key_press": -1, "type": "PRES_VIS", "word": "gravel", "wordID": 658, "conditions": [24, 800, "v", 12000], "trial": 2, "serialpos": 13, "trial_type": "single-stim", "trial_index": 102, "time_elapsed": 553813, "internal_node_id": "0.0-75.0"}}, {"uniqueid": "MTK0514:3LJ7UR74RIKO0OVKT5O4JA6VPERN4C", "current_trial": 103, "dateTime": 1511197729021, "trialdata": {"rt": -1, "stimulus": "<p id=\"stim\">GALLON</p>", "key_press": -1, "type": "PRES_VIS", "word": "gallon", "wordID": 617, "conditions": [24, 800, "v", 12000], "trial": 2, "serialpos": 14, "trial_type": "single-stim", "trial_index": 103, "time_elapsed": 555713, "internal_node_id": "0.0-76.0"}}, {"uniqueid": "MTK0514:3LJ7UR74RIKO0OVKT5O4JA6VPERN4C", "current_trial": 104, "dateTime": 1511197730862, "trialdata": {"rt": -1, "stimulus": "<p id=\"stim\">CHAUFFEUR</p>", "key_press": -1, "type": "PRES_VIS", "word": "chauffeur", "wordID": 282, "conditions": [24, 800, "v", 12000], "trial": 2, "serialpos": 15, "trial_type": "single-stim", "trial_index": 104, "time_elapsed": 557555, "internal_node_id": "0.0-77.0"}}, {"uniqueid": "MTK0514:3LJ7UR74RIKO0OVKT5O4JA6VPERN4C", "current_trial": 105, "dateTime": 1511197732692, "trialdata": {"rt": -1, "stimulus": "<p id=\"stim\">CRITIC</p>", "key_press": -1, "type": "PRES_VIS", "word": "critic", "wordID": 409, "conditions": [24, 800, "v", 12000], "trial": 2, "serialpos": 16, "trial_type": "single-stim", "trial_index": 105, "time_elapsed": 559384, "internal_node_id": "0.0-78.0"}}, {"uniqueid": "MTK0514:3LJ7UR74RIKO0OVKT5O4JA6VPERN4C", "current_trial": 106, "dateTime": 1511197734627, "trialdata": {"rt": -1, "stimulus": "<p id=\"stim\">TOASTER</p>", "key_press": -1, "type": "PRES_VIS", "word": "toaster", "wordID": 1471, "conditions": [24, 800, "v", 12000], "trial": 2, "serialpos": 17, "trial_type": "single-stim", "trial_index": 106, "time_elapsed": 561320, "internal_node_id": "0.0-79.0"}}, {"uniqueid": "MTK0514:3LJ7UR74RIKO0OVKT5O4JA6VPERN4C", "current_trial": 107, "dateTime": 1511197736367, "trialdata": {"rt": -1, "stimulus": "<p id=\"stim\">SWITCH</p>", "key_press": -1, "type": "PRES_VIS", "word": "switch", "wordID": 1421, "conditions": [24, 800, "v", 12000], "trial": 2, "serialpos": 18, "trial_type": "single-stim", "trial_index": 107, "time_elapsed": 563060, "internal_node_id": "0.0-80.0"}}, {"uniqueid": "MTK0514:3LJ7UR74RIKO0OVKT5O4JA6VPERN4C", "current_trial": 108, "dateTime": 1511197738109, "trialdata": {"rt": -1, "stimulus": "<p id=\"stim\">ATOM</p>", "key_press": -1, "type": "PRES_VIS", "word": "atom", "wordID": 54, "conditions": [24, 800, "v", 12000], "trial": 2, "serialpos": 19, "trial_type": "single-stim", "trial_index": 108, "time_elapsed": 564802, "internal_node_id": "0.0-81.0"}}, {"uniqueid": "MTK0514:3LJ7UR74RIKO0OVKT5O4JA6VPERN4C", "current_trial": 109, "dateTime": 1511197739933, "trialdata": {"rt": -1, "stimulus": "<p id=\"stim\">BISON</p>", "key_press": -1, "type": "PRES_VIS", "word": "bison", "wordID": 130, "conditions": [24, 800, "v", 12000], "trial": 2, "serialpos": 20, "trial_type": "single-stim", "trial_index": 109, "time_elapsed": 566626, "internal_node_id": "0.0-82.0"}}, {"uniqueid": "MTK0514:3LJ7UR74RIKO0OVKT5O4JA6VPERN4C", "current_trial": 110, "dateTime": 1511197741928, "trialdata": {"rt": -1, "stimulus": "<p id=\"stim\">CATTLE</p>", "key_press": -1, "type": "PRES_VIS", "word": "cattle", "wordID": 260, "conditions": [24, 800, "v", 12000], "trial": 2, "serialpos": 21, "trial_type": "single-stim", "trial_index": 110, "time_elapsed": 568620, "internal_node_id": "0.0-83.0"}}, {"uniqueid": "MTK0514:3LJ7UR74RIKO0OVKT5O4JA6VPERN4C", "current_trial": 111, "dateTime": 1511197743714, "trialdata": {"rt": -1, "stimulus": "<p id=\"stim\">SOFTBALL</p>", "key_press": -1, "type": "PRES_VIS", "word": "softball", "wordID": 1342, "conditions": [24, 800, "v", 12000], "trial": 2, "serialpos": 22, "trial_type": "single-stim", "trial_index": 111, "time_elapsed": 570407, "internal_node_id": "0.0-84.0"}}, {"uniqueid": "MTK0514:3LJ7UR74RIKO0OVKT5O4JA6VPERN4C", "current_trial": 112, "dateTime": 1511197745327, "trialdata": {"rt": -1, "stimulus": "<p id=\"stim\">SHIRT</p>", "key_press": -1, "type": "PRES_VIS", "word": "shirt", "wordID": 1286, "conditions": [24, 800, "v", 12000], "trial": 2, "serialpos": 23, "trial_type": "single-stim", "trial_index": 112, "time_elapsed": 572020, "internal_node_id": "0.0-85.0"}}, {"uniqueid": "MTK0514:3LJ7UR74RIKO0OVKT5O4JA6VPERN4C", "current_trial": 113, "dateTime": 1511197747808, "trialdata": {"rt": -1, "stimulus": "", "key_press": -1, "type": "PRE_RECALL_DELAY", "trial_type": "single-stim", "trial_index": 113, "time_elapsed": 574501, "internal_node_id": "0.0-86.0-0.0"}}, {"uniqueid": "MTK0514:3LJ7UR74RIKO0OVKT5O4JA6VPERN4C", "current_trial": 114, "dateTime": 1511197748309, "trialdata": {"rt": -1000, "stimulus": "/static/audio/400Hz.wav", "key_press": -1, "type": "PRE_RECALL_ALERT", "trial_type": "single-audio", "trial_index": 114, "time_elapsed": 575001, "internal_node_id": "0.0-87.0"}}, {"uniqueid": "MTK0514:3LJ7UR74RIKO0OVKT5O4JA6VPERN4C", "current_trial": 115, "dateTime": 1511197808325, "trialdata": {"rt": [1205, 5531, 6519, 8585, 11809, 15342, 22042, 45495, 51772], "recwords": ["shirt", "bishon", "atom", "barrel", "lily", "orange", "scarf", "gravy", "cruton"], "type": "FREE_RECALL", "conditions": [24, 800, "v", 12000], "trial": 2, "trial_type": "free-recall", "trial_index": 115, "time_elapsed": 635010, "internal_node_id": "0.0-88.0-0.0"}}, {"uniqueid": "MTK0514:3LJ7UR74RIKO0OVKT5O4JA6VPERN4C", "current_trial": 116, "dateTime": 1511197812103, "trialdata": {"rt": 1776, "key_press": 32, "type": "INSTRUCTIONS", "trial_type": "text", "trial_index": 116, "time_elapsed": 638796, "internal_node_id": "0.0-89.0"}}, {"uniqueid": "MTK0514:3LJ7UR74RIKO0OVKT5O4JA6VPERN4C", "current_trial": 117, "dateTime": 1511197838241, "trialdata": {"rt": [2854, 5755, 8860, 12056, 16248, 19820, 23658], "responses": ["7", "11", "19", "20", "21", "18", "13"], "num1": [3, 2, 8, 5, 8, 5, 7, 2], "num2": [2, 4, 4, 9, 7, 7, 5, 7], "num3": [2, 5, 7, 6, 6, 6, 1, 2], "type": "DISTRACTOR", "conditions": [24, 1600, "a", 24000], "trial": 3, "trial_type": "math-distractor", "trial_index": 117, "time_elapsed": 664934, "internal_node_id": "0.0-90.0"}}, {"uniqueid": "MTK0514:3LJ7UR74RIKO0OVKT5O4JA6VPERN4C", "current_trial": 118, "dateTime": 1511197841265, "trialdata": {"rt": -1, "stimulus": "<p id=\"stim\">10</p>", "key_press": -1, "trial_type": "single-stim", "trial_index": 118, "time_elapsed": 667958, "internal_node_id": "0.0-91.0-0.0"}}, {"uniqueid": "MTK0514:3LJ7UR74RIKO0OVKT5O4JA6VPERN4C", "current_trial": 119, "dateTime": 1511197842312, "trialdata": {"rt": -1, "stimulus": "<p id=\"stim\">9</p>", "key_press": -1, "trial_type": "single-stim", "trial_index": 119, "time_elapsed": 669005, "internal_node_id": "0.0-91.0-1.0"}}, {"uniqueid": "MTK0514:3LJ7UR74RIKO0OVKT5O4JA6VPERN4C", "current_trial": 120, "dateTime": 1511197843314, "trialdata": {"rt": -1, "stimulus": "<p id=\"stim\">8</p>", "key_press": -1, "trial_type": "single-stim", "trial_index": 120, "time_elapsed": 670006, "internal_node_id": "0.0-91.0-2.0"}}, {"uniqueid": "MTK0514:3LJ7UR74RIKO0OVKT5O4JA6VPERN4C", "current_trial": 121, "dateTime": 1511197844316, "trialdata": {"rt": -1, "stimulus": "<p id=\"stim\">7</p>", "key_press": -1, "trial_type": "single-stim", "trial_index": 121, "time_elapsed": 671008, "internal_node_id": "0.0-91.0-3.0"}}, {"uniqueid": "MTK0514:3LJ7UR74RIKO0OVKT5O4JA6VPERN4C", "current_trial": 122, "dateTime": 1511197845318, "trialdata": {"rt": -1, "stimulus": "<p id=\"stim\">6</p>", "key_press": -1, "trial_type": "single-stim", "trial_index": 122, "time_elapsed": 672010, "internal_node_id": "0.0-91.0-4.0"}}, {"uniqueid": "MTK0514:3LJ7UR74RIKO0OVKT5O4JA6VPERN4C", "current_trial": 123, "dateTime": 1511197846319, "trialdata": {"rt": -1, "stimulus": "<p id=\"stim\">5</p>", "key_press": -1, "trial_type": "single-stim", "trial_index": 123, "time_elapsed": 673012, "internal_node_id": "0.0-91.0-5.0"}}, {"uniqueid": "MTK0514:3LJ7UR74RIKO0OVKT5O4JA6VPERN4C", "current_trial": 124, "dateTime": 1511197847321, "trialdata": {"rt": -1, "stimulus": "<p id=\"stim\">4</p>", "key_press": -1, "trial_type": "single-stim", "trial_index": 124, "time_elapsed": 674014, "internal_node_id": "0.0-91.0-6.0"}}, {"uniqueid": "MTK0514:3LJ7UR74RIKO0OVKT5O4JA6VPERN4C", "current_trial": 125, "dateTime": 1511197848322, "trialdata": {"rt": -1, "stimulus": "<p id=\"stim\">3</p>", "key_press": -1, "trial_type": "single-stim", "trial_index": 125, "time_elapsed": 675015, "internal_node_id": "0.0-91.0-7.0"}}, {"uniqueid": "MTK0514:3LJ7UR74RIKO0OVKT5O4JA6VPERN4C", "current_trial": 126, "dateTime": 1511197849324, "trialdata": {"rt": -1, "stimulus": "<p id=\"stim\">2</p>", "key_press": -1, "trial_type": "single-stim", "trial_index": 126, "time_elapsed": 676016, "internal_node_id": "0.0-91.0-8.0"}}, {"uniqueid": "MTK0514:3LJ7UR74RIKO0OVKT5O4JA6VPERN4C", "current_trial": 127, "dateTime": 1511197850326, "trialdata": {"rt": -1, "stimulus": "<p id=\"stim\">1</p>", "key_press": -1, "trial_type": "single-stim", "trial_index": 127, "time_elapsed": 677018, "internal_node_id": "0.0-91.0-9.0"}}, {"uniqueid": "MTK0514:3LJ7UR74RIKO0OVKT5O4JA6VPERN4C", "current_trial": 128, "dateTime": 1511197851828, "trialdata": {"rt": -1, "stimulus": "<p id=\"stim\">+</p>", "key_press": -1, "type": "FIXATION", "trial_type": "single-stim", "trial_index": 128, "time_elapsed": 678521, "internal_node_id": "0.0-92.0-0.0"}}, {"uniqueid": "MTK0514:3LJ7UR74RIKO0OVKT5O4JA6VPERN4C", "current_trial": 129, "dateTime": 1511197854571, "trialdata": {"rt": -1000, "stimulus": "/static/audio/wordpool/ROBIN.wav", "key_press": -1, "type": "PRES_AUD", "word": "robin", "wordID": 1198, "conditions": [24, 1600, "a", 24000], "trial": 3, "serialpos": 0, "trial_type": "single-audio", "trial_index": 129, "time_elapsed": 681264, "internal_node_id": "0.0-93.0"}}, {"uniqueid": "MTK0514:3LJ7UR74RIKO0OVKT5O4JA6VPERN4C", "current_trial": 130, "dateTime": 1511197857299, "trialdata": {"rt": -1000, "stimulus": "/static/audio/wordpool/RADISH.wav", "key_press": -1, "type": "PRES_AUD", "word": "radish", "wordID": 1157, "conditions": [24, 1600, "a", 24000], "trial": 3, "serialpos": 1, "trial_type": "single-audio", "trial_index": 130, "time_elapsed": 683992, "internal_node_id": "0.0-94.0"}}, {"uniqueid": "MTK0514:3LJ7UR74RIKO0OVKT5O4JA6VPERN4C", "current_trial": 131, "dateTime": 1511197859740, "trialdata": {"rt": -1000, "stimulus": "/static/audio/wordpool/BEAKER.wav", "key_press": -1, "type": "PRES_AUD", "word": "beaker", "wordID": 103, "conditions": [24, 1600, "a", 24000], "trial": 3, "serialpos": 2, "trial_type": "single-audio", "trial_index": 131, "time_elapsed": 686433, "internal_node_id": "0.0-95.0"}}, {"uniqueid": "MTK0514:3LJ7UR74RIKO0OVKT5O4JA6VPERN4C", "current_trial": 132, "dateTime": 1511197862148, "trialdata": {"rt": -1000, "stimulus": "/static/audio/wordpool/LODGE.wav", "key_press": -1, "type": "PRES_AUD", "word": "lodge", "wordID": 838, "conditions": [24, 1600, "a", 24000], "trial": 3, "serialpos": 3, "trial_type": "single-audio", "trial_index": 132, "time_elapsed": 688841, "internal_node_id": "0.0-96.0"}}, {"uniqueid": "MTK0514:3LJ7UR74RIKO0OVKT5O4JA6VPERN4C", "current_trial": 133, "dateTime": 1511197864913, "trialdata": {"rt": -1000, "stimulus": "/static/audio/wordpool/COUNTY.wav", "key_press": -1, "type": "PRES_AUD", "word": "county", "wordID": 388, "conditions": [24, 1600, "a", 24000], "trial": 3, "serialpos": 4, "trial_type": "single-audio", "trial_index": 133, "time_elapsed": 691606, "internal_node_id": "0.0-97.0"}}, {"uniqueid": "MTK0514:3LJ7UR74RIKO0OVKT5O4JA6VPERN4C", "current_trial": 134, "dateTime": 1511197867482, "trialdata": {"rt": -1000, "stimulus": "/static/audio/wordpool/SHERIFF.wav", "key_press": -1, "type": "PRES_AUD", "word": "sheriff", "wordID": 1283, "conditions": [24, 1600, "a", 24000], "trial": 3, "serialpos": 5, "trial_type": "single-audio", "trial_index": 134, "time_elapsed": 694175, "internal_node_id": "0.0-98.0"}}, {"uniqueid": "MTK0514:3LJ7UR74RIKO0OVKT5O4JA6VPERN4C", "current_trial": 135, "dateTime": 1511197870129, "trialdata": {"rt": -1000, "stimulus": "/static/audio/wordpool/LIGHTNING.wav", "key_press": -1, "type": "PRES_AUD", "word": "lightning", "wordID": 819, "conditions": [24, 1600, "a", 24000], "trial": 3, "serialpos": 6, "trial_type": "single-audio", "trial_index": 135, "time_elapsed": 696822, "internal_node_id": "0.0-99.0"}}, {"uniqueid": "MTK0514:3LJ7UR74RIKO0OVKT5O4JA6VPERN4C", "current_trial": 136, "dateTime": 1511197872802, "trialdata": {"rt": -1000, "stimulus": "/static/audio/wordpool/FLAG.wav", "key_press": -1, "type": "PRES_AUD", "word": "flag", "wordID": 572, "conditions": [24, 1600, "a", 24000], "trial": 3, "serialpos": 7, "trial_type": "single-audio", "trial_index": 136, "time_elapsed": 699495, "internal_node_id": "0.0-100.0"}}, {"uniqueid": "MTK0514:3LJ7UR74RIKO0OVKT5O4JA6VPERN4C", "current_trial": 137, "dateTime": 1511197875344, "trialdata": {"rt": -1000, "stimulus": "/static/audio/wordpool/FLASK.wav", "key_press": -1, "type": "PRES_AUD", "word": "flask", "wordID": 575, "conditions": [24, 1600, "a", 24000], "trial": 3, "serialpos": 8, "trial_type": "single-audio", "trial_index": 137, "time_elapsed": 702036, "internal_node_id": "0.0-101.0"}}, {"uniqueid": "MTK0514:3LJ7UR74RIKO0OVKT5O4JA6VPERN4C", "current_trial": 138, "dateTime": 1511197878121, "trialdata": {"rt": -1000, "stimulus": "/static/audio/wordpool/ROCKET.wav", "key_press": -1, "type": "PRES_AUD", "word": "rocket", "wordID": 1201, "conditions": [24, 1600, "a", 24000], "trial": 3, "serialpos": 9, "trial_type": "single-audio", "trial_index": 138, "time_elapsed": 704813, "internal_node_id": "0.0-102.0"}}, {"uniqueid": "MTK0514:3LJ7UR74RIKO0OVKT5O4JA6VPERN4C", "current_trial": 139, "dateTime": 1511197880533, "trialdata": {"rt": -1000, "stimulus": "/static/audio/wordpool/COOKBOOK.wav", "key_press": -1, "type": "PRES_AUD", "word": "cookbook", "wordID": 372, "conditions": [24, 1600, "a", 24000], "trial": 3, "serialpos": 10, "trial_type": "single-audio", "trial_index": 139, "time_elapsed": 707225, "internal_node_id": "0.0-103.0"}}, {"uniqueid": "MTK0514:3LJ7UR74RIKO0OVKT5O4JA6VPERN4C", "current_trial": 140, "dateTime": 1511197883295, "trialdata": {"rt": -1000, "stimulus": "/static/audio/wordpool/YARN.wav", "key_press": -1, "type": "PRES_AUD", "word": "yarn", "wordID": 1630, "conditions": [24, 1600, "a", 24000], "trial": 3, "serialpos": 11, "trial_type": "single-audio", "trial_index": 140, "time_elapsed": 709988, "internal_node_id": "0.0-104.0"}}, {"uniqueid": "MTK0514:3LJ7UR74RIKO0OVKT5O4JA6VPERN4C", "current_trial": 141, "dateTime": 1511197885751, "trialdata": {"rt": -1000, "stimulus": "/static/audio/wordpool/INFANT.wav", "key_press": -1, "type": "PRES_AUD", "word": "infant", "wordID": 736, "conditions": [24, 1600, "a", 24000], "trial": 3, "serialpos": 12, "trial_type": "single-audio", "trial_index": 141, "time_elapsed": 712444, "internal_node_id": "0.0-105.0"}}, {"uniqueid": "MTK0514:3LJ7UR74RIKO0OVKT5O4JA6VPERN4C", "current_trial": 142, "dateTime": 1511197888469, "trialdata": {"rt": -1000, "stimulus": "/static/audio/wordpool/BROTHER.wav", "key_press": -1, "type": "PRES_AUD", "word": "brother", "wordID": 178, "conditions": [24, 1600, "a", 24000], "trial": 3, "serialpos": 13, "trial_type": "single-audio", "trial_index": 142, "time_elapsed": 715162, "internal_node_id": "0.0-106.0"}}, {"uniqueid": "MTK0514:3LJ7UR74RIKO0OVKT5O4JA6VPERN4C", "current_trial": 143, "dateTime": 1511197891066, "trialdata": {"rt": -1000, "stimulus": "/static/audio/wordpool/TOMBSTONE.wav", "key_press": -1, "type": "PRES_AUD", "word": "tombstone", "wordID": 1477, "conditions": [24, 1600, "a", 24000], "trial": 3, "serialpos": 14, "trial_type": "single-audio", "trial_index": 143, "time_elapsed": 717759, "internal_node_id": "0.0-107.0"}}, {"uniqueid": "MTK0514:3LJ7UR74RIKO0OVKT5O4JA6VPERN4C", "current_trial": 144, "dateTime": 1511197893705, "trialdata": {"rt": -1000, "stimulus": "/static/audio/wordpool/MILDEW.wav", "key_press": -1, "type": "PRES_AUD", "word": "mildew", "wordID": 892, "conditions": [24, 1600, "a", 24000], "trial": 3, "serialpos": 15, "trial_type": "single-audio", "trial_index": 144, "time_elapsed": 720398, "internal_node_id": "0.0-108.0"}}, {"uniqueid": "MTK0514:3LJ7UR74RIKO0OVKT5O4JA6VPERN4C", "current_trial": 145, "dateTime": 1511197896326, "trialdata": {"rt": -1000, "stimulus": "/static/audio/wordpool/HAWK.wav", "key_press": -1, "type": "PRES_AUD", "word": "hawk", "wordID": 691, "conditions": [24, 1600, "a", 24000], "trial": 3, "serialpos": 16, "trial_type": "single-audio", "trial_index": 145, "time_elapsed": 723019, "internal_node_id": "0.0-109.0"}}, {"uniqueid": "MTK0514:3LJ7UR74RIKO0OVKT5O4JA6VPERN4C", "current_trial": 146, "dateTime": 1511197899071, "trialdata": {"rt": -1000, "stimulus": "/static/audio/wordpool/RACKET.wav", "key_press": -1, "type": "PRES_AUD", "word": "racket", "wordID": 1154, "conditions": [24, 1600, "a", 24000], "trial": 3, "serialpos": 17, "trial_type": "single-audio", "trial_index": 146, "time_elapsed": 725764, "internal_node_id": "0.0-110.0"}}, {"uniqueid": "MTK0514:3LJ7UR74RIKO0OVKT5O4JA6VPERN4C", "current_trial": 147, "dateTime": 1511197901800, "trialdata": {"rt": -1000, "stimulus": "/static/audio/wordpool/SNAKE.wav", "key_press": -1, "type": "PRES_AUD", "word": "snake", "wordID": 1332, "conditions": [24, 1600, "a", 24000], "trial": 3, "serialpos": 18, "trial_type": "single-audio", "trial_index": 147, "time_elapsed": 728493, "internal_node_id": "0.0-111.0"}}, {"uniqueid": "MTK0514:3LJ7UR74RIKO0OVKT5O4JA6VPERN4C", "current_trial": 148, "dateTime": 1511197904311, "trialdata": {"rt": -1000, "stimulus": "/static/audio/wordpool/RAZOR.wav", "key_press": -1, "type": "PRES_AUD", "word": "razor", "wordID": 1170, "conditions": [24, 1600, "a", 24000], "trial": 3, "serialpos": 19, "trial_type": "single-audio", "trial_index": 148, "time_elapsed": 731004, "internal_node_id": "0.0-112.0"}}, {"uniqueid": "MTK0514:3LJ7UR74RIKO0OVKT5O4JA6VPERN4C", "current_trial": 149, "dateTime": 1511197906750, "trialdata": {"rt": -1000, "stimulus": "/static/audio/wordpool/SCISSORS.wav", "key_press": -1, "type": "PRES_AUD", "word": "scissors", "wordID": 1249, "conditions": [24, 1600, "a", 24000], "trial": 3, "serialpos": 20, "trial_type": "single-audio", "trial_index": 149, "time_elapsed": 733443, "internal_node_id": "0.0-113.0"}}, {"uniqueid": "MTK0514:3LJ7UR74RIKO0OVKT5O4JA6VPERN4C", "current_trial": 150, "dateTime": 1511197909500, "trialdata": {"rt": -1000, "stimulus": "/static/audio/wordpool/STATUE.wav", "key_press": -1, "type": "PRES_AUD", "word": "statue", "wordID": 1373, "conditions": [24, 1600, "a", 24000], "trial": 3, "serialpos": 21, "trial_type": "single-audio", "trial_index": 150, "time_elapsed": 736193, "internal_node_id": "0.0-114.0"}}, {"uniqueid": "MTK0514:3LJ7UR74RIKO0OVKT5O4JA6VPERN4C", "current_trial": 151, "dateTime": 1511197911932, "trialdata": {"rt": -1000, "stimulus": "/static/audio/wordpool/WITNESS.wav", "key_press": -1, "type": "PRES_AUD", "word": "witness", "wordID": 1617, "conditions": [24, 1600, "a", 24000], "trial": 3, "serialpos": 22, "trial_type": "single-audio", "trial_index": 151, "time_elapsed": 738624, "internal_node_id": "0.0-115.0"}}, {"uniqueid": "MTK0514:3LJ7UR74RIKO0OVKT5O4JA6VPERN4C", "current_trial": 152, "dateTime": 1511197914631, "trialdata": {"rt": -1000, "stimulus": "/static/audio/wordpool/SUITCASE.wav", "key_press": -1, "type": "PRES_AUD", "word": "suitcase", "wordID": 1402, "conditions": [24, 1600, "a", 24000], "trial": 3, "serialpos": 23, "trial_type": "single-audio", "trial_index": 152, "time_elapsed": 741324, "internal_node_id": "0.0-116.0"}}, {"uniqueid": "MTK0514:3LJ7UR74RIKO0OVKT5O4JA6VPERN4C", "current_trial": 153, "dateTime": 1511197915999, "trialdata": {"rt": -1, "stimulus": "", "key_press": -1, "type": "PRE_RECALL_DELAY", "trial_type": "single-stim", "trial_index": 153, "time_elapsed": 742691, "internal_node_id": "0.0-117.0-0.0"}}, {"uniqueid": "MTK0514:3LJ7UR74RIKO0OVKT5O4JA6VPERN4C", "current_trial": 154, "dateTime": 1511197916618, "trialdata": {"rt": -1000, "stimulus": "/static/audio/400Hz.wav", "key_press": -1, "type": "PRE_RECALL_ALERT", "trial_type": "single-audio", "trial_index": 154, "time_elapsed": 743310, "internal_node_id": "0.0-118.0"}}, {"uniqueid": "MTK0514:3LJ7UR74RIKO0OVKT5O4JA6VPERN4C", "current_trial": 155, "dateTime": 1511197976631, "trialdata": {"rt": [3827, 5020, 8103, 13928, 21281, 22800, 24957, 36912, 41280, 44774], "recwords": ["suitcase", "statue", "wizard", "reddish", "sherrif", "racket", "scissor", "robin", "rocket", "county"], "type": "FREE_RECALL", "conditions": [24, 1600, "a", 24000], "trial": 3, "trial_type": "free-recall", "trial_index": 155, "time_elapsed": 803316, "internal_node_id": "0.0-119.0-0.0"}}, {"uniqueid": "MTK0514:3LJ7UR74RIKO0OVKT5O4JA6VPERN4C", "current_trial": 156, "dateTime": 1511197979805, "trialdata": {"rt": 1171, "key_press": 32, "type": "INSTRUCTIONS", "trial_type": "text", "trial_index": 156, "time_elapsed": 806498, "internal_node_id": "0.0-120.0"}}, {"uniqueid": "MTK0514:3LJ7UR74RIKO0OVKT5O4JA6VPERN4C", "current_trial": 157, "dateTime": 1511197993813, "trialdata": {"rt": [2680, 6565, 10330], "responses": ["18", "11", "19"], "num1": [7, 3, 4, 9], "num2": [3, 6, 6, 9], "num3": [8, 2, 9, 2], "type": "DISTRACTOR", "conditions": [12, 800, "v", 12000], "trial": 4, "trial_type": "math-distractor", "trial_index": 157, "time_elapsed": 820506, "internal_node_id": "0.0-121.0"}}, {"uniqueid": "MTK0514:3LJ7UR74RIKO0OVKT5O4JA6VPERN4C", "current_trial": 158, "dateTime": 1511197996817, "trialdata": {"rt": -1, "stimulus": "<p id=\"stim\">10</p>", "key_press": -1, "trial_type": "single-stim", "trial_index": 158, "time_elapsed": 823509, "internal_node_id": "0.0-122.0-0.0"}}, {"uniqueid": "MTK0514:3LJ7UR74RIKO0OVKT5O4JA6VPERN4C", "current_trial": 159, "dateTime": 1511197997818, "trialdata": {"rt": -1, "stimulus": "<p id=\"stim\">9</p>", "key_press": -1, "trial_type": "single-stim", "trial_index": 159, "time_elapsed": 824511, "internal_node_id": "0.0-122.0-1.0"}}, {"uniqueid": "MTK0514:3LJ7UR74RIKO0OVKT5O4JA6VPERN4C", "current_trial": 160, "dateTime": 1511197998974, "trialdata": {"rt": -1, "stimulus": "<p id=\"stim\">8</p>", "key_press": -1, "trial_type": "single-stim", "trial_index": 160, "time_elapsed": 825667, "internal_node_id": "0.0-122.0-2.0"}}, {"uniqueid": "MTK0514:3LJ7UR74RIKO0OVKT5O4JA6VPERN4C", "current_trial": 161, "dateTime": 1511197999976, "trialdata": {"rt": -1, "stimulus": "<p id=\"stim\">7</p>", "key_press": -1, "trial_type": "single-stim", "trial_index": 161, "time_elapsed": 826668, "internal_node_id": "0.0-122.0-3.0"}}, {"uniqueid": "MTK0514:3LJ7UR74RIKO0OVKT5O4JA6VPERN4C", "current_trial": 162, "dateTime": 1511198000977, "trialdata": {"rt": -1, "stimulus": "<p id=\"stim\">6</p>", "key_press": -1, "trial_type": "single-stim", "trial_index": 162, "time_elapsed": 827669, "internal_node_id": "0.0-122.0-4.0"}}, {"uniqueid": "MTK0514:3LJ7UR74RIKO0OVKT5O4JA6VPERN4C", "current_trial": 163, "dateTime": 1511198001978, "trialdata": {"rt": -1, "stimulus": "<p id=\"stim\">5</p>", "key_press": -1, "trial_type": "single-stim", "trial_index": 163, "time_elapsed": 828671, "internal_node_id": "0.0-122.0-5.0"}}, {"uniqueid": "MTK0514:3LJ7UR74RIKO0OVKT5O4JA6VPERN4C", "current_trial": 164, "dateTime": 1511198003131, "trialdata": {"rt": -1, "stimulus": "<p id=\"stim\">4</p>", "key_press": -1, "trial_type": "single-stim", "trial_index": 164, "time_elapsed": 829824, "internal_node_id": "0.0-122.0-6.0"}}, {"uniqueid": "MTK0514:3LJ7UR74RIKO0OVKT5O4JA6VPERN4C", "current_trial": 165, "dateTime": 1511198004133, "trialdata": {"rt": -1, "stimulus": "<p id=\"stim\">3</p>", "key_press": -1, "trial_type": "single-stim", "trial_index": 165, "time_elapsed": 830825, "internal_node_id": "0.0-122.0-7.0"}}, {"uniqueid": "MTK0514:3LJ7UR74RIKO0OVKT5O4JA6VPERN4C", "current_trial": 166, "dateTime": 1511198005135, "trialdata": {"rt": -1, "stimulus": "<p id=\"stim\">2</p>", "key_press": -1, "trial_type": "single-stim", "trial_index": 166, "time_elapsed": 831828, "internal_node_id": "0.0-122.0-8.0"}}, {"uniqueid": "MTK0514:3LJ7UR74RIKO0OVKT5O4JA6VPERN4C", "current_trial": 167, "dateTime": 1511198006137, "trialdata": {"rt": -1, "stimulus": "<p id=\"stim\">1</p>", "key_press": -1, "trial_type": "single-stim", "trial_index": 167, "time_elapsed": 832829, "internal_node_id": "0.0-122.0-9.0"}}, {"uniqueid": "MTK0514:3LJ7UR74RIKO0OVKT5O4JA6VPERN4C", "current_trial": 168, "dateTime": 1511198007648, "trialdata": {"rt": -1, "stimulus": "<p id=\"stim\">+</p>", "key_press": -1, "type": "FIXATION", "trial_type": "single-stim", "trial_index": 168, "time_elapsed": 834340, "internal_node_id": "0.0-123.0-0.0"}}, {"uniqueid": "MTK0514:3LJ7UR74RIKO0OVKT5O4JA6VPERN4C", "current_trial": 169, "dateTime": 1511198008450, "trialdata": {"rt": -1, "stimulus": "<p id=\"stim\">STOVE</p>", "key_press": -1, "type": "PRES_VIS", "word": "stove", "wordID": 1387, "conditions": [12, 800, "v", 12000], "trial": 4, "serialpos": 0, "trial_type": "single-stim", "trial_index": 169, "time_elapsed": 835142, "internal_node_id": "0.0-124.0"}}, {"uniqueid": "MTK0514:3LJ7UR74RIKO0OVKT5O4JA6VPERN4C", "current_trial": 170, "dateTime": 1511198010342, "trialdata": {"rt": 16, "stimulus": "<p id=\"stim\">SALMON</p>", "key_press": 69, "type": "PRES_VIS", "word": "salmon", "wordID": 1226, "conditions": [12, 800, "v", 12000], "trial": 4, "serialpos": 1, "trial_type": "single-stim", "trial_index": 170, "time_elapsed": 837034, "internal_node_id": "0.0-125.0"}}, {"uniqueid": "MTK0514:3LJ7UR74RIKO0OVKT5O4JA6VPERN4C", "current_trial": 171, "dateTime": 1511198012028, "trialdata": {"rt": 535, "stimulus": "<p id=\"stim\">SPIDER</p>", "key_press": 83, "type": "PRES_VIS", "word": "spider", "wordID": 1350, "conditions": [12, 800, "v", 12000], "trial": 4, "serialpos": 2, "trial_type": "single-stim", "trial_index": 171, "time_elapsed": 838721, "internal_node_id": "0.0-126.0"}}, {"uniqueid": "MTK0514:3LJ7UR74RIKO0OVKT5O4JA6VPERN4C", "current_trial": 172, "dateTime": 1511198013783, "trialdata": {"rt": 686, "stimulus": "<p id=\"stim\">FLESH</p>", "key_press": 70, "type": "PRES_VIS", "word": "flesh", "wordID": 578, "conditions": [12, 800, "v", 12000], "trial": 4, "serialpos": 3, "trial_type": "single-stim", "trial_index": 172, "time_elapsed": 840475, "internal_node_id": "0.0-127.0"}}, {"uniqueid": "MTK0514:3LJ7UR74RIKO0OVKT5O4JA6VPERN4C", "current_trial": 173, "dateTime": 1511198015492, "trialdata": {"rt": 467, "stimulus": "<p id=\"stim\">SCALLOP</p>", "key_press": 83, "type": "PRES_VIS", "word": "scallop", "wordID": 1241, "conditions": [12, 800, "v", 12000], "trial": 4, "serialpos": 4, "trial_type": "single-stim", "trial_index": 173, "time_elapsed": 842185, "internal_node_id": "0.0-128.0"}}, {"uniqueid": "MTK0514:3LJ7UR74RIKO0OVKT5O4JA6VPERN4C", "current_trial": 174, "dateTime": 1511198017277, "trialdata": {"rt": 552, "stimulus": "<p id=\"stim\">ATLAS</p>", "key_press": 65, "type": "PRES_VIS", "word": "atlas", "wordID": 52, "conditions": [12, 800, "v", 12000], "trial": 4, "serialpos": 5, "trial_type": "single-stim", "trial_index": 174, "time_elapsed": 843969, "internal_node_id": "0.0-129.0"}}, {"uniqueid": "MTK0514:3LJ7UR74RIKO0OVKT5O4JA6VPERN4C", "current_trial": 175, "dateTime": 1511198019037, "trialdata": {"rt": 568, "stimulus": "<p id=\"stim\">TURTLE</p>", "key_press": 84, "type": "PRES_VIS", "word": "turtle", "wordID": 1521, "conditions": [12, 800, "v", 12000], "trial": 4, "serialpos": 6, "trial_type": "single-stim", "trial_index": 175, "time_elapsed": 845729, "internal_node_id": "0.0-130.0"}}, {"uniqueid": "MTK0514:3LJ7UR74RIKO0OVKT5O4JA6VPERN4C", "current_trial": 176, "dateTime": 1511198020765, "trialdata": {"rt": -1, "stimulus": "<p id=\"stim\">BRIEFCASE</p>", "key_press": -1, "type": "PRES_VIS", "word": "briefcase", "wordID": 174, "conditions": [12, 800, "v", 12000], "trial": 4, "serialpos": 7, "trial_type": "single-stim", "trial_index": 176, "time_elapsed": 847457, "internal_node_id": "0.0-131.0"}}, {"uniqueid": "MTK0514:3LJ7UR74RIKO0OVKT5O4JA6VPERN4C", "current_trial": 177, "dateTime": 1511198022530, "trialdata": {"rt": -1, "stimulus": "<p id=\"stim\">WARDROBE</p>", "key_press": -1, "type": "PRES_VIS", "word": "wardrobe", "wordID": 1586, "conditions": [12, 800, "v", 12000], "trial": 4, "serialpos": 8, "trial_type": "single-stim", "trial_index": 177, "time_elapsed": 849222, "internal_node_id": "0.0-132.0"}}, {"uniqueid": "MTK0514:3LJ7UR74RIKO0OVKT5O4JA6VPERN4C", "current_trial": 178, "dateTime": 1511198024357, "trialdata": {"rt": -1, "stimulus": "<p id=\"stim\">CLOTHES</p>", "key_press": -1, "type": "PRES_VIS", "word": "clothes", "wordID": 326, "conditions": [12, 800, "v", 12000], "trial": 4, "serialpos": 9, "trial_type": "single-stim", "trial_index": 178, "time_elapsed": 851049, "internal_node_id": "0.0-133.0"}}, {"uniqueid": "MTK0514:3LJ7UR74RIKO0OVKT5O4JA6VPERN4C", "current_trial": 179, "dateTime": 1511198025997, "trialdata": {"rt": -1, "stimulus": "<p id=\"stim\">SUPPER</p>", "key_press": -1, "type": "PRES_VIS", "word": "supper", "wordID": 1410, "conditions": [12, 800, "v", 12000], "trial": 4, "serialpos": 10, "trial_type": "single-stim", "trial_index": 179, "time_elapsed": 852689, "internal_node_id": "0.0-134.0"}}, {"uniqueid": "MTK0514:3LJ7UR74RIKO0OVKT5O4JA6VPERN4C", "current_trial": 180, "dateTime": 1511198027672, "trialdata": {"rt": -1, "stimulus": "<p id=\"stim\">CRAYON</p>", "key_press": -1, "type": "PRES_VIS", "word": "crayon", "wordID": 400, "conditions": [12, 800, "v", 12000], "trial": 4, "serialpos": 11, "trial_type": "single-stim", "trial_index": 180, "time_elapsed": 854364, "internal_node_id": "0.0-135.0"}}, {"uniqueid": "MTK0514:3LJ7UR74RIKO0OVKT5O4JA6VPERN4C", "current_trial": 181, "dateTime": 1511198030241, "trialdata": {"rt": -1, "stimulus": "", "key_press": -1, "type": "PRE_RECALL_DELAY", "trial_type": "single-stim", "trial_index": 181, "time_elapsed": 856933, "internal_node_id": "0.0-136.0-0.0"}}, {"uniqueid": "MTK0514:3LJ7UR74RIKO0OVKT5O4JA6VPERN4C", "current_trial": 182, "dateTime": 1511198030743, "trialdata": {"rt": -1000, "stimulus": "/static/audio/400Hz.wav", "key_press": -1, "type": "PRE_RECALL_ALERT", "trial_type": "single-audio", "trial_index": 182, "time_elapsed": 857436, "internal_node_id": "0.0-137.0"}}, {"uniqueid": "MTK0514:3LJ7UR74RIKO0OVKT5O4JA6VPERN4C", "current_trial": 183, "dateTime": 1511198090756, "trialdata": {"rt": [1613, 10911, 13365, 21026], "recwords": ["crayon", "suitcase", "stafford", "turtle"], "type": "FREE_RECALL", "conditions": [12, 800, "v", 12000], "trial": 4, "trial_type": "free-recall", "trial_index": 183, "time_elapsed": 917440, "internal_node_id": "0.0-138.0-0.0"}}, {"uniqueid": "MTK0514:3LJ7UR74RIKO0OVKT5O4JA6VPERN4C", "current_trial": 184, "dateTime": 1511198094111, "trialdata": {"rt": 1353, "key_press": 32, "type": "INSTRUCTIONS", "trial_type": "text", "trial_index": 184, "time_elapsed": 920804, "internal_node_id": "0.0-139.0"}}, {"uniqueid": "MTK0514:3LJ7UR74RIKO0OVKT5O4JA6VPERN4C", "current_trial": 185, "dateTime": 1511198120116, "trialdata": {"rt": [2723, 6048, 8747, 12866, 15116, 20164, 22539], "responses": ["16", "8", "11", "13", "21", "19", "24"], "num1": [6, 3, 2, 6, 8, 5, 9, 7], "num2": [7, 2, 2, 5, 5, 6, 9, 9], "num3": [3, 3, 7, 2, 8, 8, 6, 2], "type": "DISTRACTOR", "conditions": [12, 1600, "v", 24000], "trial": 5, "trial_type": "math-distractor", "trial_index": 185, "time_elapsed": 946809, "internal_node_id": "0.0-140.0"}}, {"uniqueid": "MTK0514:3LJ7UR74RIKO0OVKT5O4JA6VPERN4C", "current_trial": 186, "dateTime": 1511198123119, "trialdata": {"rt": -1, "stimulus": "<p id=\"stim\">10</p>", "key_press": -1, "trial_type": "single-stim", "trial_index": 186, "time_elapsed": 949811, "internal_node_id": "0.0-141.0-0.0"}}, {"uniqueid": "MTK0514:3LJ7UR74RIKO0OVKT5O4JA6VPERN4C", "current_trial": 187, "dateTime": 1511198124121, "trialdata": {"rt": -1, "stimulus": "<p id=\"stim\">9</p>", "key_press": -1, "trial_type": "single-stim", "trial_index": 187, "time_elapsed": 950814, "internal_node_id": "0.0-141.0-1.0"}}, {"uniqueid": "MTK0514:3LJ7UR74RIKO0OVKT5O4JA6VPERN4C", "current_trial": 188, "dateTime": 1511198125123, "trialdata": {"rt": -1, "stimulus": "<p id=\"stim\">8</p>", "key_press": -1, "trial_type": "single-stim", "trial_index": 188, "time_elapsed": 951815, "internal_node_id": "0.0-141.0-2.0"}}, {"uniqueid": "MTK0514:3LJ7UR74RIKO0OVKT5O4JA6VPERN4C", "current_trial": 189, "dateTime": 1511198126125, "trialdata": {"rt": -1, "stimulus": "<p id=\"stim\">7</p>", "key_press": -1, "trial_type": "single-stim", "trial_index": 189, "time_elapsed": 952818, "internal_node_id": "0.0-141.0-3.0"}}, {"uniqueid": "MTK0514:3LJ7UR74RIKO0OVKT5O4JA6VPERN4C", "current_trial": 190, "dateTime": 1511198127127, "trialdata": {"rt": -1, "stimulus": "<p id=\"stim\">6</p>", "key_press": -1, "trial_type": "single-stim", "trial_index": 190, "time_elapsed": 953819, "internal_node_id": "0.0-141.0-4.0"}}, {"uniqueid": "MTK0514:3LJ7UR74RIKO0OVKT5O4JA6VPERN4C", "current_trial": 191, "dateTime": 1511198128129, "trialdata": {"rt": -1, "stimulus": "<p id=\"stim\">5</p>", "key_press": -1, "trial_type": "single-stim", "trial_index": 191, "time_elapsed": 954821, "internal_node_id": "0.0-141.0-5.0"}}, {"uniqueid": "MTK0514:3LJ7UR74RIKO0OVKT5O4JA6VPERN4C", "current_trial": 192, "dateTime": 1511198129130, "trialdata": {"rt": -1, "stimulus": "<p id=\"stim\">4</p>", "key_press": -1, "trial_type": "single-stim", "trial_index": 192, "time_elapsed": 955823, "internal_node_id": "0.0-141.0-6.0"}}, {"uniqueid": "MTK0514:3LJ7UR74RIKO0OVKT5O4JA6VPERN4C", "current_trial": 193, "dateTime": 1511198130163, "trialdata": {"rt": -1, "stimulus": "<p id=\"stim\">3</p>", "key_press": -1, "trial_type": "single-stim", "trial_index": 193, "time_elapsed": 956856, "internal_node_id": "0.0-141.0-7.0"}}, {"uniqueid": "MTK0514:3LJ7UR74RIKO0OVKT5O4JA6VPERN4C", "current_trial": 194, "dateTime": 1511198131172, "trialdata": {"rt": -1, "stimulus": "<p id=\"stim\">2</p>", "key_press": -1, "trial_type": "single-stim", "trial_index": 194, "time_elapsed": 957865, "internal_node_id": "0.0-141.0-8.0"}}, {"uniqueid": "MTK0514:3LJ7UR74RIKO0OVKT5O4JA6VPERN4C", "current_trial": 195, "dateTime": 1511198132175, "trialdata": {"rt": -1, "stimulus": "<p id=\"stim\">1</p>", "key_press": -1, "trial_type": "single-stim", "trial_index": 195, "time_elapsed": 958868, "internal_node_id": "0.0-141.0-9.0"}}, {"uniqueid": "MTK0514:3LJ7UR74RIKO0OVKT5O4JA6VPERN4C", "current_trial": 196, "dateTime": 1511198133677, "trialdata": {"rt": -1, "stimulus": "<p id=\"stim\">+</p>", "key_press": -1, "type": "FIXATION", "trial_type": "single-stim", "trial_index": 196, "time_elapsed": 960370, "internal_node_id": "0.0-142.0-0.0"}}, {"uniqueid": "MTK0514:3LJ7UR74RIKO0OVKT5O4JA6VPERN4C", "current_trial": 197, "dateTime": 1511198135279, "trialdata": {"rt": -1, "stimulus": "<p id=\"stim\">NAPKIN</p>", "key_press": -1, "type": "PRES_VIS", "word": "napkin", "wordID": 936, "conditions": [12, 1600, "v", 24000], "trial": 5, "serialpos": 0, "trial_type": "single-stim", "trial_index": 197, "time_elapsed": 961972, "internal_node_id": "0.0-143.0"}}, {"uniqueid": "MTK0514:3LJ7UR74RIKO0OVKT5O4JA6VPERN4C", "current_trial": 198, "dateTime": 1511198137878, "trialdata": {"rt": -1, "stimulus": "<p id=\"stim\">ROOSTER</p>", "key_press": -1, "type": "PRES_VIS", "word": "rooster", "wordID": 1208, "conditions": [12, 1600, "v", 24000], "trial": 5, "serialpos": 1, "trial_type": "single-stim", "trial_index": 198, "time_elapsed": 964571, "internal_node_id": "0.0-144.0"}}, {"uniqueid": "MTK0514:3LJ7UR74RIKO0OVKT5O4JA6VPERN4C", "current_trial": 199, "dateTime": 1511198140665, "trialdata": {"rt": -1, "stimulus": "<p id=\"stim\">CAFE</p>", "key_press": -1, "type": "PRES_VIS", "word": "cafe", "wordID": 215, "conditions": [12, 1600, "v", 24000], "trial": 5, "serialpos": 2, "trial_type": "single-stim", "trial_index": 199, "time_elapsed": 967358, "internal_node_id": "0.0-145.0"}}, {"uniqueid": "MTK0514:3LJ7UR74RIKO0OVKT5O4JA6VPERN4C", "current_trial": 200, "dateTime": 1511198143245, "trialdata": {"rt": -1, "stimulus": "<p id=\"stim\">DINER</p>", "key_press": -1, "type": "PRES_VIS", "word": "diner", "wordID": 466, "conditions": [12, 1600, "v", 24000], "trial": 5, "serialpos": 3, "trial_type": "single-stim", "trial_index": 200, "time_elapsed": 969937, "internal_node_id": "0.0-146.0"}}, {"uniqueid": "MTK0514:3LJ7UR74RIKO0OVKT5O4JA6VPERN4C", "current_trial": 201, "dateTime": 1511198146022, "trialdata": {"rt": -1, "stimulus": "<p id=\"stim\">PASTRY</p>", "key_press": -1, "type": "PRES_VIS", "word": "pastry", "wordID": 1021, "conditions": [12, 1600, "v", 24000], "trial": 5, "serialpos": 4, "trial_type": "single-stim", "trial_index": 201, "time_elapsed": 972715, "internal_node_id": "0.0-147.0"}}, {"uniqueid": "MTK0514:3LJ7UR74RIKO0OVKT5O4JA6VPERN4C", "current_trial": 202, "dateTime": 1511198148624, "trialdata": {"rt": -1, "stimulus": "<p id=\"stim\">TILE</p>", "key_press": -1, "type": "PRES_VIS", "word": "tile", "wordID": 1467, "conditions": [12, 1600, "v", 24000], "trial": 5, "serialpos": 5, "trial_type": "single-stim", "trial_index": 202, "time_elapsed": 975317, "internal_node_id": "0.0-148.0"}}, {"uniqueid": "MTK0514:3LJ7UR74RIKO0OVKT5O4JA6VPERN4C", "current_trial": 203, "dateTime": 1511198151411, "trialdata": {"rt": -1, "stimulus": "<p id=\"stim\">PATIENT</p>", "key_press": -1, "type": "PRES_VIS", "word": "patient", "wordID": 1023, "conditions": [12, 1600, "v", 24000], "trial": 5, "serialpos": 6, "trial_type": "single-stim", "trial_index": 203, "time_elapsed": 978104, "internal_node_id": "0.0-149.0"}}, {"uniqueid": "MTK0514:3LJ7UR74RIKO0OVKT5O4JA6VPERN4C", "current_trial": 204, "dateTime": 1511198154141, "trialdata": {"rt": -1, "stimulus": "<p id=\"stim\">CANYON</p>", "key_press": -1, "type": "PRES_VIS", "word": "canyon", "wordID": 234, "conditions": [12, 1600, "v", 24000], "trial": 5, "serialpos": 7, "trial_type": "single-stim", "trial_index": 204, "time_elapsed": 980833, "internal_node_id": "0.0-150.0"}}, {"uniqueid": "MTK0514:3LJ7UR74RIKO0OVKT5O4JA6VPERN4C", "current_trial": 205, "dateTime": 1511198156969, "trialdata": {"rt": -1, "stimulus": "<p id=\"stim\">DRESSER</p>", "key_press": -1, "type": "PRES_VIS", "word": "dresser", "wordID": 495, "conditions": [12, 1600, "v", 24000], "trial": 5, "serialpos": 8, "trial_type": "single-stim", "trial_index": 205, "time_elapsed": 983661, "internal_node_id": "0.0-151.0"}}, {"uniqueid": "MTK0514:3LJ7UR74RIKO0OVKT5O4JA6VPERN4C", "current_trial": 206, "dateTime": 1511198159739, "trialdata": {"rt": -1, "stimulus": "<p id=\"stim\">FRIEND</p>", "key_press": -1, "type": "PRES_VIS", "word": "friend", "wordID": 605, "conditions": [12, 1600, "v", 24000], "trial": 5, "serialpos": 9, "trial_type": "single-stim", "trial_index": 206, "time_elapsed": 986432, "internal_node_id": "0.0-152.0"}}, {"uniqueid": "MTK0514:3LJ7UR74RIKO0OVKT5O4JA6VPERN4C", "current_trial": 207, "dateTime": 1511198162202, "trialdata": {"rt": -1, "stimulus": "<p id=\"stim\">NURSE</p>", "key_press": -1, "type": "PRES_VIS", "word": "nurse", "wordID": 962, "conditions": [12, 1600, "v", 24000], "trial": 5, "serialpos": 10, "trial_type": "single-stim", "trial_index": 207, "time_elapsed": 988895, "internal_node_id": "0.0-153.0"}}, {"uniqueid": "MTK0514:3LJ7UR74RIKO0OVKT5O4JA6VPERN4C", "current_trial": 208, "dateTime": 1511198164740, "trialdata": {"rt": -1, "stimulus": "<p id=\"stim\">PISTON</p>", "key_press": -1, "type": "PRES_VIS", "word": "piston", "wordID": 1075, "conditions": [12, 1600, "v", 24000], "trial": 5, "serialpos": 11, "trial_type": "single-stim", "trial_index": 208, "time_elapsed": 991432, "internal_node_id": "0.0-154.0"}}, {"uniqueid": "MTK0514:3LJ7UR74RIKO0OVKT5O4JA6VPERN4C", "current_trial": 209, "dateTime": 1511198167205, "trialdata": {"rt": -1, "stimulus": "", "key_press": -1, "type": "PRE_RECALL_DELAY", "trial_type": "single-stim", "trial_index": 209, "time_elapsed": 993898, "internal_node_id": "0.0-155.0-0.0"}}, {"uniqueid": "MTK0514:3LJ7UR74RIKO0OVKT5O4JA6VPERN4C", "current_trial": 210, "dateTime": 1511198167707, "trialdata": {"rt": -1000, "stimulus": "/static/audio/400Hz.wav", "key_press": -1, "type": "PRE_RECALL_ALERT", "trial_type": "single-audio", "trial_index": 210, "time_elapsed": 994399, "internal_node_id": "0.0-156.0"}}, {"uniqueid": "MTK0514:3LJ7UR74RIKO0OVKT5O4JA6VPERN4C", "current_trial": 211, "dateTime": 1511198227722, "trialdata": {"rt": [2225, 4609, 6219, 25583], "recwords": ["nurse", "stallion", "nurse", "rooster"], "type": "FREE_RECALL", "conditions": [12, 1600, "v", 24000], "trial": 5, "trial_type": "free-recall", "trial_index": 211, "time_elapsed": 1054405, "internal_node_id": "0.0-157.0-0.0"}}, {"uniqueid": "MTK0514:3LJ7UR74RIKO0OVKT5O4JA6VPERN4C", "current_trial": 212, "dateTime": 1511198234328, "trialdata": {"rt": 4604, "key_press": 32, "type": "INSTRUCTIONS", "trial_type": "text", "trial_index": 212, "time_elapsed": 1061021, "internal_node_id": "0.0-158.0"}}, {"uniqueid": "MTK0514:3LJ7UR74RIKO0OVKT5O4JA6VPERN4C", "current_trial": 213, "dateTime": 1511198248334, "trialdata": {"rt": [5435, 9750], "responses": ["14", "20"], "num1": [9, 6, 9], "num2": [3, 9, 5], "num3": [2, 5, 5], "type": "DISTRACTOR", "conditions": [12, 1600, "v", 12000], "trial": 6, "trial_type": "math-distractor", "trial_index": 213, "time_elapsed": 1075026, "internal_node_id": "0.0-159.0"}}, {"uniqueid": "MTK0514:3LJ7UR74RIKO0OVKT5O4JA6VPERN4C", "current_trial": 214, "dateTime": 1511198251337, "trialdata": {"rt": -1, "stimulus": "<p id=\"stim\">10</p>", "key_press": -1, "trial_type": "single-stim", "trial_index": 214, "time_elapsed": 1078030, "internal_node_id": "0.0-160.0-0.0"}}, {"uniqueid": "MTK0514:3LJ7UR74RIKO0OVKT5O4JA6VPERN4C", "current_trial": 215, "dateTime": 1511198252339, "trialdata": {"rt": -1, "stimulus": "<p id=\"stim\">9</p>", "key_press": -1, "trial_type": "single-stim", "trial_index": 215, "time_elapsed": 1079031, "internal_node_id": "0.0-160.0-1.0"}}, {"uniqueid": "MTK0514:3LJ7UR74RIKO0OVKT5O4JA6VPERN4C", "current_trial": 216, "dateTime": 1511198253340, "trialdata": {"rt": -1, "stimulus": "<p id=\"stim\">8</p>", "key_press": -1, "trial_type": "single-stim", "trial_index": 216, "time_elapsed": 1080033, "internal_node_id": "0.0-160.0-2.0"}}, {"uniqueid": "MTK0514:3LJ7UR74RIKO0OVKT5O4JA6VPERN4C", "current_trial": 217, "dateTime": 1511198254342, "trialdata": {"rt": -1, "stimulus": "<p id=\"stim\">7</p>", "key_press": -1, "trial_type": "single-stim", "trial_index": 217, "time_elapsed": 1081034, "internal_node_id": "0.0-160.0-3.0"}}, {"uniqueid": "MTK0514:3LJ7UR74RIKO0OVKT5O4JA6VPERN4C", "current_trial": 218, "dateTime": 1511198255344, "trialdata": {"rt": -1, "stimulus": "<p id=\"stim\">6</p>", "key_press": -1, "trial_type": "single-stim", "trial_index": 218, "time_elapsed": 1082037, "internal_node_id": "0.0-160.0-4.0"}}, {"uniqueid": "MTK0514:3LJ7UR74RIKO0OVKT5O4JA6VPERN4C", "current_trial": 219, "dateTime": 1511198256345, "trialdata": {"rt": -1, "stimulus": "<p id=\"stim\">5</p>", "key_press": -1, "trial_type": "single-stim", "trial_index": 219, "time_elapsed": 1083038, "internal_node_id": "0.0-160.0-5.0"}}, {"uniqueid": "MTK0514:3LJ7UR74RIKO0OVKT5O4JA6VPERN4C", "current_trial": 220, "dateTime": 1511198257347, "trialdata": {"rt": -1, "stimulus": "<p id=\"stim\">4</p>", "key_press": -1, "trial_type": "single-stim", "trial_index": 220, "time_elapsed": 1084040, "internal_node_id": "0.0-160.0-6.0"}}, {"uniqueid": "MTK0514:3LJ7UR74RIKO0OVKT5O4JA6VPERN4C", "current_trial": 221, "dateTime": 1511198258349, "trialdata": {"rt": -1, "stimulus": "<p id=\"stim\">3</p>", "key_press": -1, "trial_type": "single-stim", "trial_index": 221, "time_elapsed": 1085042, "internal_node_id": "0.0-160.0-7.0"}}, {"uniqueid": "MTK0514:3LJ7UR74RIKO0OVKT5O4JA6VPERN4C", "current_trial": 222, "dateTime": 1511198259350, "trialdata": {"rt": -1, "stimulus": "<p id=\"stim\">2</p>", "key_press": -1, "trial_type": "single-stim", "trial_index": 222, "time_elapsed": 1086043, "internal_node_id": "0.0-160.0-8.0"}}, {"uniqueid": "MTK0514:3LJ7UR74RIKO0OVKT5O4JA6VPERN4C", "current_trial": 223, "dateTime": 1511198260351, "trialdata": {"rt": -1, "stimulus": "<p id=\"stim\">1</p>", "key_press": -1, "trial_type": "single-stim", "trial_index": 223, "time_elapsed": 1087044, "internal_node_id": "0.0-160.0-9.0"}}, {"uniqueid": "MTK0514:3LJ7UR74RIKO0OVKT5O4JA6VPERN4C", "current_trial": 224, "dateTime": 1511198261852, "trialdata": {"rt": -1, "stimulus": "<p id=\"stim\">+</p>", "key_press": -1, "type": "FIXATION", "trial_type": "single-stim", "trial_index": 224, "time_elapsed": 1088545, "internal_node_id": "0.0-161.0-0.0"}}, {"uniqueid": "MTK0514:3LJ7UR74RIKO0OVKT5O4JA6VPERN4C", "current_trial": 225, "dateTime": 1511198263536, "trialdata": {"rt": -1, "stimulus": "<p id=\"stim\">HOSTESS</p>", "key_press": -1, "type": "PRES_VIS", "word": "hostess", "wordID": 722, "conditions": [12, 1600, "v", 12000], "trial": 6, "serialpos": 0, "trial_type": "single-stim", "trial_index": 225, "time_elapsed": 1090229, "internal_node_id": "0.0-162.0"}}, {"uniqueid": "MTK0514:3LJ7UR74RIKO0OVKT5O4JA6VPERN4C", "current_trial": 226, "dateTime": 1511198266048, "trialdata": {"rt": -1, "stimulus": "<p id=\"stim\">HORNET</p>", "key_press": -1, "type": "PRES_VIS", "word": "hornet", "wordID": 717, "conditions": [12, 1600, "v", 12000], "trial": 6, "serialpos": 1, "trial_type": "single-stim", "trial_index": 226, "time_elapsed": 1092741, "internal_node_id": "0.0-163.0"}}, {"uniqueid": "MTK0514:3LJ7UR74RIKO0OVKT5O4JA6VPERN4C", "current_trial": 227, "dateTime": 1511198269004, "trialdata": {"rt": -1, "stimulus": "<p id=\"stim\">POSSUM</p>", "key_press": -1, "type": "PRES_VIS", "word": "possum", "wordID": 1111, "conditions": [12, 1600, "v", 12000], "trial": 6, "serialpos": 2, "trial_type": "single-stim", "trial_index": 227, "time_elapsed": 1095697, "internal_node_id": "0.0-164.0"}}, {"uniqueid": "MTK0514:3LJ7UR74RIKO0OVKT5O4JA6VPERN4C", "current_trial": 228, "dateTime": 1511198271753, "trialdata": {"rt": -1, "stimulus": "<p id=\"stim\">IGLOO</p>", "key_press": -1, "type": "PRES_VIS", "word": "igloo", "wordID": 733, "conditions": [12, 1600, "v", 12000], "trial": 6, "serialpos": 3, "trial_type": "single-stim", "trial_index": 228, "time_elapsed": 1098446, "internal_node_id": "0.0-165.0"}}, {"uniqueid": "MTK0514:3LJ7UR74RIKO0OVKT5O4JA6VPERN4C", "current_trial": 229, "dateTime": 1511198274173, "trialdata": {"rt": -1, "stimulus": "<p id=\"stim\">SANDWICH</p>", "key_press": -1, "type": "PRES_VIS", "word": "sandwich", "wordID": 1231, "conditions": [12, 1600, "v", 12000], "trial": 6, "serialpos": 4, "trial_type": "single-stim", "trial_index": 229, "time_elapsed": 1100866, "internal_node_id": "0.0-166.0"}}, {"uniqueid": "MTK0514:3LJ7UR74RIKO0OVKT5O4JA6VPERN4C", "current_trial": 230, "dateTime": 1511198276760, "trialdata": {"rt": -1, "stimulus": "<p id=\"stim\">OMELET</p>", "key_press": -1, "type": "PRES_VIS", "word": "omelet", "wordID": 975, "conditions": [12, 1600, "v", 12000], "trial": 6, "serialpos": 5, "trial_type": "single-stim", "trial_index": 230, "time_elapsed": 1103452, "internal_node_id": "0.0-167.0"}}, {"uniqueid": "MTK0514:3LJ7UR74RIKO0OVKT5O4JA6VPERN4C", "current_trial": 231, "dateTime": 1511198279631, "trialdata": {"rt": -1, "stimulus": "<p id=\"stim\">WAITRESS</p>", "key_press": -1, "type": "PRES_VIS", "word": "waitress", "wordID": 1580, "conditions": [12, 1600, "v", 12000], "trial": 6, "serialpos": 6, "trial_type": "single-stim", "trial_index": 231, "time_elapsed": 1106323, "internal_node_id": "0.0-168.0"}}, {"uniqueid": "MTK0514:3LJ7UR74RIKO0OVKT5O4JA6VPERN4C", "current_trial": 232, "dateTime": 1511198282079, "trialdata": {"rt": -1, "stimulus": "<p id=\"stim\">CATCHER</p>", "key_press": -1, "type": "PRES_VIS", "word": "catcher", "wordID": 257, "conditions": [12, 1600, "v", 12000], "trial": 6, "serialpos": 7, "trial_type": "single-stim", "trial_index": 232, "time_elapsed": 1108772, "internal_node_id": "0.0-169.0"}}, {"uniqueid": "MTK0514:3LJ7UR74RIKO0OVKT5O4JA6VPERN4C", "current_trial": 233, "dateTime": 1511198284638, "trialdata": {"rt": -1, "stimulus": "<p id=\"stim\">GANGSTER</p>", "key_press": -1, "type": "PRES_VIS", "word": "gangster", "wordID": 619, "conditions": [12, 1600, "v", 12000], "trial": 6, "serialpos": 8, "trial_type": "single-stim", "trial_index": 233, "time_elapsed": 1111330, "internal_node_id": "0.0-170.0"}}, {"uniqueid": "MTK0514:3LJ7UR74RIKO0OVKT5O4JA6VPERN4C", "current_trial": 234, "dateTime": 1511198287257, "trialdata": {"rt": -1, "stimulus": "<p id=\"stim\">EUROPE</p>", "key_press": -1, "type": "PRES_VIS", "word": "europe", "wordID": 540, "conditions": [12, 1600, "v", 12000], "trial": 6, "serialpos": 9, "trial_type": "single-stim", "trial_index": 234, "time_elapsed": 1113950, "internal_node_id": "0.0-171.0"}}, {"uniqueid": "MTK0514:3LJ7UR74RIKO0OVKT5O4JA6VPERN4C", "current_trial": 235, "dateTime": 1511198289868, "trialdata": {"rt": -1, "stimulus": "<p id=\"stim\">HAMPER</p>", "key_press": -1, "type": "PRES_VIS", "word": "hamper", "wordID": 681, "conditions": [12, 1600, "v", 12000], "trial": 6, "serialpos": 10, "trial_type": "single-stim", "trial_index": 235, "time_elapsed": 1116561, "internal_node_id": "0.0-172.0"}}, {"uniqueid": "MTK0514:3LJ7UR74RIKO0OVKT5O4JA6VPERN4C", "current_trial": 236, "dateTime": 1511198292469, "trialdata": {"rt": -1, "stimulus": "<p id=\"stim\">UMPIRE</p>", "key_press": -1, "type": "PRES_VIS", "word": "umpire", "wordID": 1534, "conditions": [12, 1600, "v", 12000], "trial": 6, "serialpos": 11, "trial_type": "single-stim", "trial_index": 236, "time_elapsed": 1119161, "internal_node_id": "0.0-173.0"}}, {"uniqueid": "MTK0514:3LJ7UR74RIKO0OVKT5O4JA6VPERN4C", "current_trial": 237, "dateTime": 1511198294913, "trialdata": {"rt": -1, "stimulus": "", "key_press": -1, "type": "PRE_RECALL_DELAY", "trial_type": "single-stim", "trial_index": 237, "time_elapsed": 1121606, "internal_node_id": "0.0-174.0-0.0"}}, {"uniqueid": "MTK0514:3LJ7UR74RIKO0OVKT5O4JA6VPERN4C", "current_trial": 238, "dateTime": 1511198295415, "trialdata": {"rt": -1000, "stimulus": "/static/audio/400Hz.wav", "key_press": -1, "type": "PRE_RECALL_ALERT", "trial_type": "single-audio", "trial_index": 238, "time_elapsed": 1122108, "internal_node_id": "0.0-175.0"}}, {"uniqueid": "MTK0514:3LJ7UR74RIKO0OVKT5O4JA6VPERN4C", "current_trial": 239, "dateTime": 1511198355431, "trialdata": {"rt": [1999, 3769, 5547, 9602, 14322, 18319], "recwords": ["hostess", "hornet", "umpire", "sandwich", "omelet", "waitress"], "type": "FREE_RECALL", "conditions": [12, 1600, "v", 12000], "trial": 6, "trial_type": "free-recall", "trial_index": 239, "time_elapsed": 1182113, "internal_node_id": "0.0-176.0-0.0"}}, {"uniqueid": "MTK0514:3LJ7UR74RIKO0OVKT5O4JA6VPERN4C", "current_trial": 240, "dateTime": 1511198358761, "trialdata": {"rt": 1329, "key_press": 32, "type": "INSTRUCTIONS", "trial_type": "text", "trial_index": 240, "time_elapsed": 1185454, "internal_node_id": "0.0-177.0"}}, {"uniqueid": "MTK0514:3LJ7UR74RIKO0OVKT5O4JA6VPERN4C", "current_trial": 241, "dateTime": 1511198384765, "trialdata": {"rt": [3928, 7726, 9572, 12833, 14634, 16998, 18708, 21867], "responses": ["18", "17", "8", "19", "8", "10", "6", "25"], "num1": [8, 2, 2, 3, 2, 3, 2, 7, 8], "num2": [6, 7, 4, 8, 2, 3, 3, 9, 6], "num3": [4, 8, 2, 8, 4, 4, 1, 9, 9], "type": "DISTRACTOR", "conditions": [24, 1600, "v", 24000], "trial": 7, "trial_type": "math-distractor", "trial_index": 241, "time_elapsed": 1211458, "internal_node_id": "0.0-178.0"}}, {"uniqueid": "MTK0514:3LJ7UR74RIKO0OVKT5O4JA6VPERN4C", "current_trial": 242, "dateTime": 1511198387766, "trialdata": {"rt": -1, "stimulus": "<p id=\"stim\">10</p>", "key_press": -1, "trial_type": "single-stim", "trial_index": 242, "time_elapsed": 1214459, "internal_node_id": "0.0-179.0-0.0"}}, {"uniqueid": "MTK0514:3LJ7UR74RIKO0OVKT5O4JA6VPERN4C", "current_trial": 243, "dateTime": 1511198388767, "trialdata": {"rt": -1, "stimulus": "<p id=\"stim\">9</p>", "key_press": -1, "trial_type": "single-stim", "trial_index": 243, "time_elapsed": 1215459, "internal_node_id": "0.0-179.0-1.0"}}, {"uniqueid": "MTK0514:3LJ7UR74RIKO0OVKT5O4JA6VPERN4C", "current_trial": 244, "dateTime": 1511198389768, "trialdata": {"rt": -1, "stimulus": "<p id=\"stim\">8</p>", "key_press": -1, "trial_type": "single-stim", "trial_index": 244, "time_elapsed": 1216461, "internal_node_id": "0.0-179.0-2.0"}}, {"uniqueid": "MTK0514:3LJ7UR74RIKO0OVKT5O4JA6VPERN4C", "current_trial": 245, "dateTime": 1511198390769, "trialdata": {"rt": -1, "stimulus": "<p id=\"stim\">7</p>", "key_press": -1, "trial_type": "single-stim", "trial_index": 245, "time_elapsed": 1217461, "internal_node_id": "0.0-179.0-3.0"}}, {"uniqueid": "MTK0514:3LJ7UR74RIKO0OVKT5O4JA6VPERN4C", "current_trial": 246, "dateTime": 1511198391771, "trialdata": {"rt": -1, "stimulus": "<p id=\"stim\">6</p>", "key_press": -1, "trial_type": "single-stim", "trial_index": 246, "time_elapsed": 1218463, "internal_node_id": "0.0-179.0-4.0"}}, {"uniqueid": "MTK0514:3LJ7UR74RIKO0OVKT5O4JA6VPERN4C", "current_trial": 247, "dateTime": 1511198392773, "trialdata": {"rt": -1, "stimulus": "<p id=\"stim\">5</p>", "key_press": -1, "trial_type": "single-stim", "trial_index": 247, "time_elapsed": 1219465, "internal_node_id": "0.0-179.0-5.0"}}, {"uniqueid": "MTK0514:3LJ7UR74RIKO0OVKT5O4JA6VPERN4C", "current_trial": 248, "dateTime": 1511198393775, "trialdata": {"rt": -1, "stimulus": "<p id=\"stim\">4</p>", "key_press": -1, "trial_type": "single-stim", "trial_index": 248, "time_elapsed": 1220468, "internal_node_id": "0.0-179.0-6.0"}}, {"uniqueid": "MTK0514:3LJ7UR74RIKO0OVKT5O4JA6VPERN4C", "current_trial": 249, "dateTime": 1511198394776, "trialdata": {"rt": -1, "stimulus": "<p id=\"stim\">3</p>", "key_press": -1, "trial_type": "single-stim", "trial_index": 249, "time_elapsed": 1221469, "internal_node_id": "0.0-179.0-7.0"}}, {"uniqueid": "MTK0514:3LJ7UR74RIKO0OVKT5O4JA6VPERN4C", "current_trial": 250, "dateTime": 1511198395778, "trialdata": {"rt": -1, "stimulus": "<p id=\"stim\">2</p>", "key_press": -1, "trial_type": "single-stim", "trial_index": 250, "time_elapsed": 1222471, "internal_node_id": "0.0-179.0-8.0"}}, {"uniqueid": "MTK0514:3LJ7UR74RIKO0OVKT5O4JA6VPERN4C", "current_trial": 251, "dateTime": 1511198396780, "trialdata": {"rt": -1, "stimulus": "<p id=\"stim\">1</p>", "key_press": -1, "trial_type": "single-stim", "trial_index": 251, "time_elapsed": 1223473, "internal_node_id": "0.0-179.0-9.0"}}, {"uniqueid": "MTK0514:3LJ7UR74RIKO0OVKT5O4JA6VPERN4C", "current_trial": 252, "dateTime": 1511198398282, "trialdata": {"rt": -1, "stimulus": "<p id=\"stim\">+</p>", "key_press": -1, "type": "FIXATION", "trial_type": "single-stim", "trial_index": 252, "time_elapsed": 1224975, "internal_node_id": "0.0-180.0-0.0"}}, {"uniqueid": "MTK0514:3LJ7UR74RIKO0OVKT5O4JA6VPERN4C", "current_trial": 253, "dateTime": 1511198399883, "trialdata": {"rt": -1, "stimulus": "<p id=\"stim\">GRAVE</p>", "key_press": -1, "type": "PRES_VIS", "word": "grave", "wordID": 657, "conditions": [24, 1600, "v", 24000], "trial": 7, "serialpos": 0, "trial_type": "single-stim", "trial_index": 253, "time_elapsed": 1226576, "internal_node_id": "0.0-181.0"}}, {"uniqueid": "MTK0514:3LJ7UR74RIKO0OVKT5O4JA6VPERN4C", "current_trial": 254, "dateTime": 1511198402472, "trialdata": {"rt": -1, "stimulus": "<p id=\"stim\">TRUCK</p>", "key_press": -1, "type": "PRES_VIS", "word": "truck", "wordID": 1511, "conditions": [24, 1600, "v", 24000], "trial": 7, "serialpos": 1, "trial_type": "single-stim", "trial_index": 254, "time_elapsed": 1229164, "internal_node_id": "0.0-182.0"}}, {"uniqueid": "MTK0514:3LJ7UR74RIKO0OVKT5O4JA6VPERN4C", "current_trial": 255, "dateTime": 1511198405172, "trialdata": {"rt": -1, "stimulus": "<p id=\"stim\">DRIVER</p>", "key_press": -1, "type": "PRES_VIS", "word": "driver", "wordID": 498, "conditions": [24, 1600, "v", 24000], "trial": 7, "serialpos": 2, "trial_type": "single-stim", "trial_index": 255, "time_elapsed": 1231864, "internal_node_id": "0.0-183.0"}}, {"uniqueid": "MTK0514:3LJ7UR74RIKO0OVKT5O4JA6VPERN4C", "current_trial": 256, "dateTime": 1511198407586, "trialdata": {"rt": -1, "stimulus": "<p id=\"stim\">SHARK</p>", "key_press": -1, "type": "PRES_VIS", "word": "shark", "wordID": 1274, "conditions": [24, 1600, "v", 24000], "trial": 7, "serialpos": 3, "trial_type": "single-stim", "trial_index": 256, "time_elapsed": 1234279, "internal_node_id": "0.0-184.0"}}, {"uniqueid": "MTK0514:3LJ7UR74RIKO0OVKT5O4JA6VPERN4C", "current_trial": 257, "dateTime": 1511198410224, "trialdata": {"rt": -1, "stimulus": "<p id=\"stim\">PARSLEY</p>", "key_press": -1, "type": "PRES_VIS", "word": "parsley", "wordID": 1015, "conditions": [24, 1600, "v", 24000], "trial": 7, "serialpos": 4, "trial_type": "single-stim", "trial_index": 257, "time_elapsed": 1236917, "internal_node_id": "0.0-185.0"}}, {"uniqueid": "MTK0514:3LJ7UR74RIKO0OVKT5O4JA6VPERN4C", "current_trial": 258, "dateTime": 1511198412629, "trialdata": {"rt": -1, "stimulus": "<p id=\"stim\">DANDRUFF</p>", "key_press": -1, "type": "PRES_VIS", "word": "dandruff", "wordID": 438, "conditions": [24, 1600, "v", 24000], "trial": 7, "serialpos": 5, "trial_type": "single-stim", "trial_index": 258, "time_elapsed": 1239321, "internal_node_id": "0.0-186.0"}}, {"uniqueid": "MTK0514:3LJ7UR74RIKO0OVKT5O4JA6VPERN4C", "current_trial": 259, "dateTime": 1511198415116, "trialdata": {"rt": -1, "stimulus": "<p id=\"stim\">COLLEGE</p>", "key_press": -1, "type": "PRES_VIS", "word": "college", "wordID": 345, "conditions": [24, 1600, "v", 24000], "trial": 7, "serialpos": 6, "trial_type": "single-stim", "trial_index": 259, "time_elapsed": 1241809, "internal_node_id": "0.0-187.0"}}, {"uniqueid": "MTK0514:3LJ7UR74RIKO0OVKT5O4JA6VPERN4C", "current_trial": 260, "dateTime": 1511198417701, "trialdata": {"rt": -1, "stimulus": "<p id=\"stim\">MAMMAL</p>", "key_press": -1, "type": "PRES_VIS", "word": "mammal", "wordID": 860, "conditions": [24, 1600, "v", 24000], "trial": 7, "serialpos": 7, "trial_type": "single-stim", "trial_index": 260, "time_elapsed": 1244394, "internal_node_id": "0.0-188.0"}}, {"uniqueid": "MTK0514:3LJ7UR74RIKO0OVKT5O4JA6VPERN4C", "current_trial": 261, "dateTime": 1511198420384, "trialdata": {"rt": -1, "stimulus": "<p id=\"stim\">SLOPE</p>", "key_press": -1, "type": "PRES_VIS", "word": "slope", "wordID": 1327, "conditions": [24, 1600, "v", 24000], "trial": 7, "serialpos": 8, "trial_type": "single-stim", "trial_index": 261, "time_elapsed": 1247077, "internal_node_id": "0.0-189.0"}}, {"uniqueid": "MTK0514:3LJ7UR74RIKO0OVKT5O4JA6VPERN4C", "current_trial": 262, "dateTime": 1511198423049, "trialdata": {"rt": -1, "stimulus": "<p id=\"stim\">BUNNY</p>", "key_press": -1, "type": "PRES_VIS", "word": "bunny", "wordID": 197, "conditions": [24, 1600, "v", 24000], "trial": 7, "serialpos": 9, "trial_type": "single-stim", "trial_index": 262, "time_elapsed": 1249742, "internal_node_id": "0.0-190.0"}}, {"uniqueid": "MTK0514:3LJ7UR74RIKO0OVKT5O4JA6VPERN4C", "current_trial": 263, "dateTime": 1511198425469, "trialdata": {"rt": -1, "stimulus": "<p id=\"stim\">SNACK</p>", "key_press": -1, "type": "PRES_VIS", "word": "snack", "wordID": 1330, "conditions": [24, 1600, "v", 24000], "trial": 7, "serialpos": 10, "trial_type": "single-stim", "trial_index": 263, "time_elapsed": 1252162, "internal_node_id": "0.0-191.0"}}, {"uniqueid": "MTK0514:3LJ7UR74RIKO0OVKT5O4JA6VPERN4C", "current_trial": 264, "dateTime": 1511198428140, "trialdata": {"rt": -1, "stimulus": "<p id=\"stim\">PIGMENT</p>", "key_press": -1, "type": "PRES_VIS", "word": "pigment", "wordID": 1065, "conditions": [24, 1600, "v", 24000], "trial": 7, "serialpos": 11, "trial_type": "single-stim", "trial_index": 264, "time_elapsed": 1254833, "internal_node_id": "0.0-192.0"}}, {"uniqueid": "MTK0514:3LJ7UR74RIKO0OVKT5O4JA6VPERN4C", "current_trial": 265, "dateTime": 1511198430678, "trialdata": {"rt": -1, "stimulus": "<p id=\"stim\">DRUG</p>", "key_press": -1, "type": "PRES_VIS", "word": "drug", "wordID": 500, "conditions": [24, 1600, "v", 24000], "trial": 7, "serialpos": 12, "trial_type": "single-stim", "trial_index": 265, "time_elapsed": 1257371, "internal_node_id": "0.0-193.0"}}, {"uniqueid": "MTK0514:3LJ7UR74RIKO0OVKT5O4JA6VPERN4C", "current_trial": 266, "dateTime": 1511198433211, "trialdata": {"rt": -1, "stimulus": "<p id=\"stim\">TUTU</p>", "key_press": -1, "type": "PRES_VIS", "word": "tutu", "wordID": 1523, "conditions": [24, 1600, "v", 24000], "trial": 7, "serialpos": 13, "trial_type": "single-stim", "trial_index": 266, "time_elapsed": 1259904, "internal_node_id": "0.0-194.0"}}, {"uniqueid": "MTK0514:3LJ7UR74RIKO0OVKT5O4JA6VPERN4C", "current_trial": 267, "dateTime": 1511198435921, "trialdata": {"rt": -1, "stimulus": "<p id=\"stim\">MONSTER</p>", "key_press": -1, "type": "PRES_VIS", "word": "monster", "wordID": 911, "conditions": [24, 1600, "v", 24000], "trial": 7, "serialpos": 14, "trial_type": "single-stim", "trial_index": 267, "time_elapsed": 1262614, "internal_node_id": "0.0-195.0"}}, {"uniqueid": "MTK0514:3LJ7UR74RIKO0OVKT5O4JA6VPERN4C", "current_trial": 268, "dateTime": 1511198438429, "trialdata": {"rt": -1, "stimulus": "<p id=\"stim\">FIDDLE</p>", "key_press": -1, "type": "PRES_VIS", "word": "fiddle", "wordID": 560, "conditions": [24, 1600, "v", 24000], "trial": 7, "serialpos": 15, "trial_type": "single-stim", "trial_index": 268, "time_elapsed": 1265121, "internal_node_id": "0.0-196.0"}}, {"uniqueid": "MTK0514:3LJ7UR74RIKO0OVKT5O4JA6VPERN4C", "current_trial": 269, "dateTime": 1511198441160, "trialdata": {"rt": -1, "stimulus": "<p id=\"stim\">BUGGY</p>", "key_press": -1, "type": "PRES_VIS", "word": "buggy", "wordID": 187, "conditions": [24, 1600, "v", 24000], "trial": 7, "serialpos": 16, "trial_type": "single-stim", "trial_index": 269, "time_elapsed": 1267852, "internal_node_id": "0.0-197.0"}}, {"uniqueid": "MTK0514:3LJ7UR74RIKO0OVKT5O4JA6VPERN4C", "current_trial": 270, "dateTime": 1511198443747, "trialdata": {"rt": -1, "stimulus": "<p id=\"stim\">FLEET</p>", "key_press": -1, "type": "PRES_VIS", "word": "fleet", "wordID": 577, "conditions": [24, 1600, "v", 24000], "trial": 7, "serialpos": 17, "trial_type": "single-stim", "trial_index": 270, "time_elapsed": 1270440, "internal_node_id": "0.0-198.0"}}, {"uniqueid": "MTK0514:3LJ7UR74RIKO0OVKT5O4JA6VPERN4C", "current_trial": 271, "dateTime": 1511198446194, "trialdata": {"rt": -1, "stimulus": "<p id=\"stim\">PATROL</p>", "key_press": -1, "type": "PRES_VIS", "word": "patrol", "wordID": 1026, "conditions": [24, 1600, "v", 24000], "trial": 7, "serialpos": 18, "trial_type": "single-stim", "trial_index": 271, "time_elapsed": 1272887, "internal_node_id": "0.0-199.0"}}, {"uniqueid": "MTK0514:3LJ7UR74RIKO0OVKT5O4JA6VPERN4C", "current_trial": 272, "dateTime": 1511198448767, "trialdata": {"rt": -1, "stimulus": "<p id=\"stim\">CASHIER</p>", "key_press": -1, "type": "PRES_VIS", "word": "cashier", "wordID": 253, "conditions": [24, 1600, "v", 24000], "trial": 7, "serialpos": 19, "trial_type": "single-stim", "trial_index": 272, "time_elapsed": 1275459, "internal_node_id": "0.0-200.0"}}, {"uniqueid": "MTK0514:3LJ7UR74RIKO0OVKT5O4JA6VPERN4C", "current_trial": 273, "dateTime": 1511198451263, "trialdata": {"rt": -1, "stimulus": "<p id=\"stim