{"condition": 0, "counterbalance": 116, "assignmentId": "3IGI0VL648RS4H52CP3DX8C046DNO8", "workerId": "MTK0214", "hitId": "304QEQWKZPRNW1F1LHWDXCK3JN5O0X", "currenttrial": 625, "bonus": 0, "data": [{"uniqueid": "MTK0214:3IGI0VL648RS4H52CP3DX8C046DNO8", "current_trial": 0, "dateTime": 1509550022493, "trialdata": {"rt": 1921, "key_press": 72, "type": "INSTRUCTIONS", "trial_type": "text", "trial_index": 0, "time_elapsed": 1924, "internal_node_id": "0.0-0.0"}}, {"uniqueid": "MTK0214:3IGI0VL648RS4H52CP3DX8C046DNO8", "current_trial": 1, "dateTime": 1509550042864, "trialdata": {"rt": 20367, "key_press": 74, "type": "INSTRUCTIONS", "trial_type": "text", "trial_index": 1, "time_elapsed": 22295, "internal_node_id": "0.0-1.0"}}, {"uniqueid": "MTK0214:3IGI0VL648RS4H52CP3DX8C046DNO8", "current_trial": 2, "dateTime": 1509550049510, "trialdata": {"rt": [6635], "responses": ["ocean"], "type": "AUDIO_TEST", "trial_type": "audio-test", "trial_index": 2, "time_elapsed": 28941, "internal_node_id": "0.0-2.0"}}, {"uniqueid": "MTK0214:3IGI0VL648RS4H52CP3DX8C046DNO8", "current_trial": 3, "dateTime": 1509550054101, "trialdata": {"rt": [4587], "responses": ["crystal"], "type": "AUDIO_TEST", "trial_type": "audio-test", "trial_index": 3, "time_elapsed": 33532, "internal_node_id": "0.0-3.0"}}, {"uniqueid": "MTK0214:3IGI0VL648RS4H52CP3DX8C046DNO8", "current_trial": 4, "dateTime": 1509550058989, "trialdata": {"rt": [4884], "responses": ["spice"], "type": "AUDIO_TEST", "trial_type": "audio-test", "trial_index": 4, "time_elapsed": 38420, "internal_node_id": "0.0-4.0"}}, {"uniqueid": "MTK0214:3IGI0VL648RS4H52CP3DX8C046DNO8", "current_trial": 5, "dateTime": 1509550063120, "trialdata": {"rt": 3377, "key_press": 74, "type": "INSTRUCTIONS", "trial_type": "text", "trial_index": 5, "time_elapsed": 42551, "internal_node_id": "0.0-5.0"}}, {"uniqueid": "MTK0214:3IGI0VL648RS4H52CP3DX8C046DNO8", "current_trial": 6, "dateTime": 1509550087146, "trialdata": {"rt": 24025, "key_press": 74, "type": "INSTRUCTIONS", "trial_type": "text", "trial_index": 6, "time_elapsed": 66576, "internal_node_id": "0.0-6.0"}}, {"uniqueid": "MTK0214:3IGI0VL648RS4H52CP3DX8C046DNO8", "current_trial": 7, "dateTime": 1509550097762, "trialdata": {"rt": 10615, "key_press": 74, "type": "INSTRUCTIONS", "trial_type": "text", "trial_index": 7, "time_elapsed": 77193, "internal_node_id": "0.0-7.0"}}, {"uniqueid": "MTK0214:3IGI0VL648RS4H52CP3DX8C046DNO8", "current_trial": 8, "dateTime": 1509550106472, "trialdata": {"rt": 8710, "key_press": 74, "type": "INSTRUCTIONS", "trial_type": "text", "trial_index": 8, "time_elapsed": 85903, "internal_node_id": "0.0-8.0"}}, {"uniqueid": "MTK0214:3IGI0VL648RS4H52CP3DX8C046DNO8", "current_trial": 9, "dateTime": 1509550125481, "trialdata": {"rt": [4360, 7496, 9775, 13367, 16095], "responses": ["7", "13", "9", "16", "10"], "num1": [1, 3, 3, 9, 2, 9], "num2": [5, 1, 1, 4, 6, 7], "num3": [1, 9, 5, 3, 2, 8], "type": "DISTRACTOR", "conditions": [18, 1200, "v", 18000], "trial": 0, "trial_type": "math-distractor", "trial_index": 9, "time_elapsed": 104912, "internal_node_id": "0.0-9.0"}}, {"uniqueid": "MTK0214:3IGI0VL648RS4H52CP3DX8C046DNO8", "current_trial": 10, "dateTime": 1509550128489, "trialdata": {"rt": -1, "stimulus": "<p id=\"stim\">10</p>", "key_press": -1, "trial_type": "single-stim", "trial_index": 10, "time_elapsed": 107920, "internal_node_id": "0.0-10.0-0.0"}}, {"uniqueid": "MTK0214:3IGI0VL648RS4H52CP3DX8C046DNO8", "current_trial": 11, "dateTime": 1509550129491, "trialdata": {"rt": -1, "stimulus": "<p id=\"stim\">9</p>", "key_press": -1, "trial_type": "single-stim", "trial_index": 11, "time_elapsed": 108922, "internal_node_id": "0.0-10.0-1.0"}}, {"uniqueid": "MTK0214:3IGI0VL648RS4H52CP3DX8C046DNO8", "current_trial": 12, "dateTime": 1509550130495, "trialdata": {"rt": -1, "stimulus": "<p id=\"stim\">8</p>", "key_press": -1, "trial_type": "single-stim", "trial_index": 12, "time_elapsed": 109926, "internal_node_id": "0.0-10.0-2.0"}}, {"uniqueid": "MTK0214:3IGI0VL648RS4H52CP3DX8C046DNO8", "current_trial": 13, "dateTime": 1509550131499, "trialdata": {"rt": -1, "stimulus": "<p id=\"stim\">7</p>", "key_press": -1, "trial_type": "single-stim", "trial_index": 13, "time_elapsed": 110930, "internal_node_id": "0.0-10.0-3.0"}}, {"uniqueid": "MTK0214:3IGI0VL648RS4H52CP3DX8C046DNO8", "current_trial": 14, "dateTime": 1509550132504, "trialdata": {"rt": -1, "stimulus": "<p id=\"stim\">6</p>", "key_press": -1, "trial_type": "single-stim", "trial_index": 14, "time_elapsed": 111934, "internal_node_id": "0.0-10.0-4.0"}}, {"uniqueid": "MTK0214:3IGI0VL648RS4H52CP3DX8C046DNO8", "current_trial": 15, "dateTime": 1509550133508, "trialdata": {"rt": -1, "stimulus": "<p id=\"stim\">5</p>", "key_press": -1, "trial_type": "single-stim", "trial_index": 15, "time_elapsed": 112939, "internal_node_id": "0.0-10.0-5.0"}}, {"uniqueid": "MTK0214:3IGI0VL648RS4H52CP3DX8C046DNO8", "current_trial": 16, "dateTime": 1509550134512, "trialdata": {"rt": -1, "stimulus": "<p id=\"stim\">4</p>", "key_press": -1, "trial_type": "single-stim", "trial_index": 16, "time_elapsed": 113942, "internal_node_id": "0.0-10.0-6.0"}}, {"uniqueid": "MTK0214:3IGI0VL648RS4H52CP3DX8C046DNO8", "current_trial": 17, "dateTime": 1509550135516, "trialdata": {"rt": -1, "stimulus": "<p id=\"stim\">3</p>", "key_press": -1, "trial_type": "single-stim", "trial_index": 17, "time_elapsed": 114947, "internal_node_id": "0.0-10.0-7.0"}}, {"uniqueid": "MTK0214:3IGI0VL648RS4H52CP3DX8C046DNO8", "current_trial": 18, "dateTime": 1509550136520, "trialdata": {"rt": -1, "stimulus": "<p id=\"stim\">2</p>", "key_press": -1, "trial_type": "single-stim", "trial_index": 18, "time_elapsed": 115951, "internal_node_id": "0.0-10.0-8.0"}}, {"uniqueid": "MTK0214:3IGI0VL648RS4H52CP3DX8C046DNO8", "current_trial": 19, "dateTime": 1509550137524, "trialdata": {"rt": -1, "stimulus": "<p id=\"stim\">1</p>", "key_press": -1, "trial_type": "single-stim", "trial_index": 19, "time_elapsed": 116955, "internal_node_id": "0.0-10.0-9.0"}}, {"uniqueid": "MTK0214:3IGI0VL648RS4H52CP3DX8C046DNO8", "current_trial": 20, "dateTime": 1509550139027, "trialdata": {"rt": -1, "stimulus": "<p id=\"stim\">+</p>", "key_press": -1, "type": "FIXATION", "trial_type": "single-stim", "trial_index": 20, "time_elapsed": 118458, "internal_node_id": "0.0-11.0-0.0"}}, {"uniqueid": "MTK0214:3IGI0VL648RS4H52CP3DX8C046DNO8", "current_trial": 21, "dateTime": 1509550140228, "trialdata": {"rt": -1, "stimulus": "<p id=\"stim\">BREAST</p>", "key_press": -1, "type": "PRES_VIS", "word": "breast", "wordID": 170, "conditions": [18, 1200, "v", 18000], "trial": 0, "serialpos": 0, "trial_type": "single-stim", "trial_index": 21, "time_elapsed": 119659, "internal_node_id": "0.0-12.0"}}, {"uniqueid": "MTK0214:3IGI0VL648RS4H52CP3DX8C046DNO8", "current_trial": 22, "dateTime": 1509550142318, "trialdata": {"rt": -1, "stimulus": "<p id=\"stim\">DENIM</p>", "key_press": -1, "type": "PRES_VIS", "word": "denim", "wordID": 445, "conditions": [18, 1200, "v", 18000], "trial": 0, "serialpos": 1, "trial_type": "single-stim", "trial_index": 22, "time_elapsed": 121749, "internal_node_id": "0.0-13.0"}}, {"uniqueid": "MTK0214:3IGI0VL648RS4H52CP3DX8C046DNO8", "current_trial": 23, "dateTime": 1509550144349, "trialdata": {"rt": -1, "stimulus": "<p id=\"stim\">SCULPTURE</p>", "key_press": -1, "type": "PRES_VIS", "word": "sculpture", "wordID": 1257, "conditions": [18, 1200, "v", 18000], "trial": 0, "serialpos": 2, "trial_type": "single-stim", "trial_index": 23, "time_elapsed": 123780, "internal_node_id": "0.0-14.0"}}, {"uniqueid": "MTK0214:3IGI0VL648RS4H52CP3DX8C046DNO8", "current_trial": 24, "dateTime": 1509550146679, "trialdata": {"rt": -1, "stimulus": "<p id=\"stim\">PASTA</p>", "key_press": -1, "type": "PRES_VIS", "word": "pasta", "wordID": 1020, "conditions": [18, 1200, "v", 18000], "trial": 0, "serialpos": 3, "trial_type": "single-stim", "trial_index": 24, "time_elapsed": 126110, "internal_node_id": "0.0-15.0"}}, {"uniqueid": "MTK0214:3IGI0VL648RS4H52CP3DX8C046DNO8", "current_trial": 25, "dateTime": 1509550149009, "trialdata": {"rt": -1, "stimulus": "<p id=\"stim\">MATCH</p>", "key_press": -1, "type": "PRES_VIS", "word": "match", "wordID": 877, "conditions": [18, 1200, "v", 18000], "trial": 0, "serialpos": 4, "trial_type": "single-stim", "trial_index": 25, "time_elapsed": 128440, "internal_node_id": "0.0-16.0"}}, {"uniqueid": "MTK0214:3IGI0VL648RS4H52CP3DX8C046DNO8", "current_trial": 26, "dateTime": 1509550151110, "trialdata": {"rt": -1, "stimulus": "<p id=\"stim\">RATTLE</p>", "key_press": -1, "type": "PRES_VIS", "word": "rattle", "wordID": 1169, "conditions": [18, 1200, "v", 18000], "trial": 0, "serialpos": 5, "trial_type": "single-stim", "trial_index": 26, "time_elapsed": 130541, "internal_node_id": "0.0-17.0"}}, {"uniqueid": "MTK0214:3IGI0VL648RS4H52CP3DX8C046DNO8", "current_trial": 27, "dateTime": 1509550153229, "trialdata": {"rt": -1, "stimulus": "<p id=\"stim\">JUGGLER</p>", "key_press": -1, "type": "PRES_VIS", "word": "juggler", "wordID": 762, "conditions": [18, 1200, "v", 18000], "trial": 0, "serialpos": 6, "trial_type": "single-stim", "trial_index": 27, "time_elapsed": 132660, "internal_node_id": "0.0-18.0"}}, {"uniqueid": "MTK0214:3IGI0VL648RS4H52CP3DX8C046DNO8", "current_trial": 28, "dateTime": 1509550155522, "trialdata": {"rt": -1, "stimulus": "<p id=\"stim\">SWITCH</p>", "key_press": -1, "type": "PRES_VIS", "word": "switch", "wordID": 1421, "conditions": [18, 1200, "v", 18000], "trial": 0, "serialpos": 7, "trial_type": "single-stim", "trial_index": 28, "time_elapsed": 134952, "internal_node_id": "0.0-19.0"}}, {"uniqueid": "MTK0214:3IGI0VL648RS4H52CP3DX8C046DNO8", "current_trial": 29, "dateTime": 1509550157553, "trialdata": {"rt": -1, "stimulus": "<p id=\"stim\">BLOCKADE</p>", "key_press": -1, "type": "PRES_VIS", "word": "blockade", "wordID": 136, "conditions": [18, 1200, "v", 18000], "trial": 0, "serialpos": 8, "trial_type": "single-stim", "trial_index": 29, "time_elapsed": 136984, "internal_node_id": "0.0-20.0"}}, {"uniqueid": "MTK0214:3IGI0VL648RS4H52CP3DX8C046DNO8", "current_trial": 30, "dateTime": 1509550159909, "trialdata": {"rt": -1, "stimulus": "<p id=\"stim\">ARMY</p>", "key_press": -1, "type": "PRES_VIS", "word": "army", "wordID": 38, "conditions": [18, 1200, "v", 18000], "trial": 0, "serialpos": 9, "trial_type": "single-stim", "trial_index": 30, "time_elapsed": 139340, "internal_node_id": "0.0-21.0"}}, {"uniqueid": "MTK0214:3IGI0VL648RS4H52CP3DX8C046DNO8", "current_trial": 31, "dateTime": 1509550162277, "trialdata": {"rt": -1, "stimulus": "<p id=\"stim\">WORKER</p>", "key_press": -1, "type": "PRES_VIS", "word": "worker", "wordID": 1620, "conditions": [18, 1200, "v", 18000], "trial": 0, "serialpos": 10, "trial_type": "single-stim", "trial_index": 31, "time_elapsed": 141708, "internal_node_id": "0.0-22.0"}}, {"uniqueid": "MTK0214:3IGI0VL648RS4H52CP3DX8C046DNO8", "current_trial": 32, "dateTime": 1509550164628, "trialdata": {"rt": -1, "stimulus": "<p id=\"stim\">BIKE</p>", "key_press": -1, "type": "PRES_VIS", "word": "bike", "wordID": 124, "conditions": [18, 1200, "v", 18000], "trial": 0, "serialpos": 11, "trial_type": "single-stim", "trial_index": 32, "time_elapsed": 144059, "internal_node_id": "0.0-23.0"}}, {"uniqueid": "MTK0214:3IGI0VL648RS4H52CP3DX8C046DNO8", "current_trial": 33, "dateTime": 1509550166758, "trialdata": {"rt": -1, "stimulus": "<p id=\"stim\">TOASTER</p>", "key_press": -1, "type": "PRES_VIS", "word": "toaster", "wordID": 1471, "conditions": [18, 1200, "v", 18000], "trial": 0, "serialpos": 12, "trial_type": "single-stim", "trial_index": 33, "time_elapsed": 146189, "internal_node_id": "0.0-24.0"}}, {"uniqueid": "MTK0214:3IGI0VL648RS4H52CP3DX8C046DNO8", "current_trial": 34, "dateTime": 1509550168766, "trialdata": {"rt": -1, "stimulus": "<p id=\"stim\">LEADER</p>", "key_press": -1, "type": "PRES_VIS", "word": "leader", "wordID": 806, "conditions": [18, 1200, "v", 18000], "trial": 0, "serialpos": 13, "trial_type": "single-stim", "trial_index": 34, "time_elapsed": 148197, "internal_node_id": "0.0-25.0"}}, {"uniqueid": "MTK0214:3IGI0VL648RS4H52CP3DX8C046DNO8", "current_trial": 35, "dateTime": 1509550171053, "trialdata": {"rt": -1, "stimulus": "<p id=\"stim\">LION</p>", "key_press": -1, "type": "PRES_VIS", "word": "lion", "wordID": 826, "conditions": [18, 1200, "v", 18000], "trial": 0, "serialpos": 14, "trial_type": "single-stim", "trial_index": 35, "time_elapsed": 150483, "internal_node_id": "0.0-26.0"}}, {"uniqueid": "MTK0214:3IGI0VL648RS4H52CP3DX8C046DNO8", "current_trial": 36, "dateTime": 1509550173403, "trialdata": {"rt": -1, "stimulus": "<p id=\"stim\">PIGMENT</p>", "key_press": -1, "type": "PRES_VIS", "word": "pigment", "wordID": 1065, "conditions": [18, 1200, "v", 18000], "trial": 0, "serialpos": 15, "trial_type": "single-stim", "trial_index": 36, "time_elapsed": 152834, "internal_node_id": "0.0-27.0"}}, {"uniqueid": "MTK0214:3IGI0VL648RS4H52CP3DX8C046DNO8", "current_trial": 37, "dateTime": 1509550175630, "trialdata": {"rt": -1, "stimulus": "<p id=\"stim\">SANDWICH</p>", "key_press": -1, "type": "PRES_VIS", "word": "sandwich", "wordID": 1231, "conditions": [18, 1200, "v", 18000], "trial": 0, "serialpos": 16, "trial_type": "single-stim", "trial_index": 37, "time_elapsed": 155061, "internal_node_id": "0.0-28.0"}}, {"uniqueid": "MTK0214:3IGI0VL648RS4H52CP3DX8C046DNO8", "current_trial": 38, "dateTime": 1509550178029, "trialdata": {"rt": -1, "stimulus": "<p id=\"stim\">HATCHET</p>", "key_press": -1, "type": "PRES_VIS", "word": "hatchet", "wordID": 690, "conditions": [18, 1200, "v", 18000], "trial": 0, "serialpos": 17, "trial_type": "single-stim", "trial_index": 38, "time_elapsed": 157460, "internal_node_id": "0.0-29.0"}}, {"uniqueid": "MTK0214:3IGI0VL648RS4H52CP3DX8C046DNO8", "current_trial": 39, "dateTime": 1509550180414, "trialdata": {"rt": -1, "stimulus": "", "key_press": -1, "type": "PRE_RECALL_DELAY", "trial_type": "single-stim", "trial_index": 39, "time_elapsed": 159845, "internal_node_id": "0.0-30.0-0.0"}}, {"uniqueid": "MTK0214:3IGI0VL648RS4H52CP3DX8C046DNO8", "current_trial": 40, "dateTime": 1509550180917, "trialdata": {"rt": -1000, "stimulus": "/static/audio/400Hz.wav", "key_press": -1, "type": "PRE_RECALL_ALERT", "trial_type": "single-audio", "trial_index": 40, "time_elapsed": 160348, "internal_node_id": "0.0-31.0"}}, {"uniqueid": "MTK0214:3IGI0VL648RS4H52CP3DX8C046DNO8", "current_trial": 41, "dateTime": 1509550240923, "trialdata": {"rt": [3482, 5266, 7138, 8258, 11114, 13226, 16889, 19265, 27697, 40019, 57933], "recwords": ["lion", "army", "blockade", "denim", "sandwich", "rattle", "sculpture", "pasta", "juggler", "bike", "chest"], "type": "FREE_RECALL", "conditions": [18, 1200, "v", 18000], "trial": 0, "trial_type": "free-recall", "trial_index": 41, "time_elapsed": 220350, "internal_node_id": "0.0-32.0-0.0"}}, {"uniqueid": "MTK0214:3IGI0VL648RS4H52CP3DX8C046DNO8", "current_trial": 42, "dateTime": 1509550244753, "trialdata": {"rt": 1826, "key_press": 72, "type": "INSTRUCTIONS", "trial_type": "text", "trial_index": 42, "time_elapsed": 224184, "internal_node_id": "0.0-33.0"}}, {"uniqueid": "MTK0214:3IGI0VL648RS4H52CP3DX8C046DNO8", "current_trial": 43, "dateTime": 1509550264760, "trialdata": {"rt": [5174, 6686, 9462, 12286, 15606], "responses": ["25", "6", "20", "17", "19"], "num1": [7, 4, 6, 4, 7, 5], "num2": [9, 1, 8, 9, 5, 9], "num3": [9, 1, 6, 4, 7, 1], "type": "DISTRACTOR", "conditions": [18, 1200, "a", 18000], "trial": 1, "trial_type": "math-distractor", "trial_index": 43, "time_elapsed": 244191, "internal_node_id": "0.0-34.0"}}, {"uniqueid": "MTK0214:3IGI0VL648RS4H52CP3DX8C046DNO8", "current_trial": 44, "dateTime": 1509550267765, "trialdata": {"rt": -1, "stimulus": "<p id=\"stim\">10</p>", "key_press": -1, "trial_type": "single-stim", "trial_index": 44, "time_elapsed": 247196, "internal_node_id": "0.0-35.0-0.0"}}, {"uniqueid": "MTK0214:3IGI0VL648RS4H52CP3DX8C046DNO8", "current_trial": 45, "dateTime": 1509550268770, "trialdata": {"rt": -1, "stimulus": "<p id=\"stim\">9</p>", "key_press": -1, "trial_type": "single-stim", "trial_index": 45, "time_elapsed": 248201, "internal_node_id": "0.0-35.0-1.0"}}, {"uniqueid": "MTK0214:3IGI0VL648RS4H52CP3DX8C046DNO8", "current_trial": 46, "dateTime": 1509550269774, "trialdata": {"rt": -1, "stimulus": "<p id=\"stim\">8</p>", "key_press": -1, "trial_type": "single-stim", "trial_index": 46, "time_elapsed": 249205, "internal_node_id": "0.0-35.0-2.0"}}, {"uniqueid": "MTK0214:3IGI0VL648RS4H52CP3DX8C046DNO8", "current_trial": 47, "dateTime": 1509550270778, "trialdata": {"rt": -1, "stimulus": "<p id=\"stim\">7</p>", "key_press": -1, "trial_type": "single-stim", "trial_index": 47, "time_elapsed": 250209, "internal_node_id": "0.0-35.0-3.0"}}, {"uniqueid": "MTK0214:3IGI0VL648RS4H52CP3DX8C046DNO8", "current_trial": 48, "dateTime": 1509550271784, "trialdata": {"rt": -1, "stimulus": "<p id=\"stim\">6</p>", "key_press": -1, "trial_type": "single-stim", "trial_index": 48, "time_elapsed": 251215, "internal_node_id": "0.0-35.0-4.0"}}, {"uniqueid": "MTK0214:3IGI0VL648RS4H52CP3DX8C046DNO8", "current_trial": 49, "dateTime": 1509550272790, "trialdata": {"rt": -1, "stimulus": "<p id=\"stim\">5</p>", "key_press": -1, "trial_type": "single-stim", "trial_index": 49, "time_elapsed": 252221, "internal_node_id": "0.0-35.0-5.0"}}, {"uniqueid": "MTK0214:3IGI0VL648RS4H52CP3DX8C046DNO8", "current_trial": 50, "dateTime": 1509550273792, "trialdata": {"rt": -1, "stimulus": "<p id=\"stim\">4</p>", "key_press": -1, "trial_type": "single-stim", "trial_index": 50, "time_elapsed": 253223, "internal_node_id": "0.0-35.0-6.0"}}, {"uniqueid": "MTK0214:3IGI0VL648RS4H52CP3DX8C046DNO8", "current_trial": 51, "dateTime": 1509550274798, "trialdata": {"rt": -1, "stimulus": "<p id=\"stim\">3</p>", "key_press": -1, "trial_type": "single-stim", "trial_index": 51, "time_elapsed": 254229, "internal_node_id": "0.0-35.0-7.0"}}, {"uniqueid": "MTK0214:3IGI0VL648RS4H52CP3DX8C046DNO8", "current_trial": 52, "dateTime": 1509550275804, "trialdata": {"rt": -1, "stimulus": "<p id=\"stim\">2</p>", "key_press": -1, "trial_type": "single-stim", "trial_index": 52, "time_elapsed": 255235, "internal_node_id": "0.0-35.0-8.0"}}, {"uniqueid": "MTK0214:3IGI0VL648RS4H52CP3DX8C046DNO8", "current_trial": 53, "dateTime": 1509550276809, "trialdata": {"rt": -1, "stimulus": "<p id=\"stim\">1</p>", "key_press": -1, "trial_type": "single-stim", "trial_index": 53, "time_elapsed": 256240, "internal_node_id": "0.0-35.0-9.0"}}, {"uniqueid": "MTK0214:3IGI0VL648RS4H52CP3DX8C046DNO8", "current_trial": 54, "dateTime": 1509550278312, "trialdata": {"rt": -1, "stimulus": "<p id=\"stim\">+</p>", "key_press": -1, "type": "FIXATION", "trial_type": "single-stim", "trial_index": 54, "time_elapsed": 257743, "internal_node_id": "0.0-36.0-0.0"}}, {"uniqueid": "MTK0214:3IGI0VL648RS4H52CP3DX8C046DNO8", "current_trial": 55, "dateTime": 1509550280438, "trialdata": {"rt": -1000, "stimulus": "/static/audio/wordpool/FARMER.wav", "key_press": -1, "type": "PRES_AUD", "word": "farmer", "wordID": 552, "conditions": [18, 1200, "a", 18000], "trial": 1, "serialpos": 0, "trial_type": "single-audio", "trial_index": 55, "time_elapsed": 259869, "internal_node_id": "0.0-37.0"}}, {"uniqueid": "MTK0214:3IGI0VL648RS4H52CP3DX8C046DNO8", "current_trial": 56, "dateTime": 1509550282638, "trialdata": {"rt": -1000, "stimulus": "/static/audio/wordpool/WITNESS.wav", "key_press": -1, "type": "PRES_AUD", "word": "witness", "wordID": 1617, "conditions": [18, 1200, "a", 18000], "trial": 1, "serialpos": 1, "trial_type": "single-audio", "trial_index": 56, "time_elapsed": 262069, "internal_node_id": "0.0-38.0"}}, {"uniqueid": "MTK0214:3IGI0VL648RS4H52CP3DX8C046DNO8", "current_trial": 57, "dateTime": 1509550284774, "trialdata": {"rt": -1000, "stimulus": "/static/audio/wordpool/MOP.wav", "key_press": -1, "type": "PRES_AUD", "word": "mop", "wordID": 915, "conditions": [18, 1200, "a", 18000], "trial": 1, "serialpos": 2, "trial_type": "single-audio", "trial_index": 57, "time_elapsed": 264205, "internal_node_id": "0.0-39.0"}}, {"uniqueid": "MTK0214:3IGI0VL648RS4H52CP3DX8C046DNO8", "current_trial": 58, "dateTime": 1509550286887, "trialdata": {"rt": -1000, "stimulus": "/static/audio/wordpool/SISTER.wav", "key_press": -1, "type": "PRES_AUD", "word": "sister", "wordID": 1311, "conditions": [18, 1200, "a", 18000], "trial": 1, "serialpos": 3, "trial_type": "single-audio", "trial_index": 58, "time_elapsed": 266318, "internal_node_id": "0.0-40.0"}}, {"uniqueid": "MTK0214:3IGI0VL648RS4H52CP3DX8C046DNO8", "current_trial": 59, "dateTime": 1509550289070, "trialdata": {"rt": -1000, "stimulus": "/static/audio/wordpool/OINTMENT.wav", "key_press": -1, "type": "PRES_AUD", "word": "ointment", "wordID": 973, "conditions": [18, 1200, "a", 18000], "trial": 1, "serialpos": 4, "trial_type": "single-audio", "trial_index": 59, "time_elapsed": 268500, "internal_node_id": "0.0-41.0"}}, {"uniqueid": "MTK0214:3IGI0VL648RS4H52CP3DX8C046DNO8", "current_trial": 60, "dateTime": 1509550291194, "trialdata": {"rt": -1000, "stimulus": "/static/audio/wordpool/BANQUET.wav", "key_press": -1, "type": "PRES_AUD", "word": "banquet", "wordID": 85, "conditions": [18, 1200, "a", 18000], "trial": 1, "serialpos": 5, "trial_type": "single-audio", "trial_index": 60, "time_elapsed": 270625, "internal_node_id": "0.0-42.0"}}, {"uniqueid": "MTK0214:3IGI0VL648RS4H52CP3DX8C046DNO8", "current_trial": 61, "dateTime": 1509550293452, "trialdata": {"rt": -1000, "stimulus": "/static/audio/wordpool/ROBIN.wav", "key_press": -1, "type": "PRES_AUD", "word": "robin", "wordID": 1198, "conditions": [18, 1200, "a", 18000], "trial": 1, "serialpos": 6, "trial_type": "single-audio", "trial_index": 61, "time_elapsed": 272883, "internal_node_id": "0.0-43.0"}}, {"uniqueid": "MTK0214:3IGI0VL648RS4H52CP3DX8C046DNO8", "current_trial": 62, "dateTime": 1509550295694, "trialdata": {"rt": -1000, "stimulus": "/static/audio/wordpool/BRICK.wav", "key_press": -1, "type": "PRES_AUD", "word": "brick", "wordID": 171, "conditions": [18, 1200, "a", 18000], "trial": 1, "serialpos": 7, "trial_type": "single-audio", "trial_index": 62, "time_elapsed": 275124, "internal_node_id": "0.0-44.0"}}, {"uniqueid": "MTK0214:3IGI0VL648RS4H52CP3DX8C046DNO8", "current_trial": 63, "dateTime": 1509550297916, "trialdata": {"rt": -1000, "stimulus": "/static/audio/wordpool/PILOT.wav", "key_press": -1, "type": "PRES_AUD", "word": "pilot", "wordID": 1069, "conditions": [18, 1200, "a", 18000], "trial": 1, "serialpos": 8, "trial_type": "single-audio", "trial_index": 63, "time_elapsed": 277347, "internal_node_id": "0.0-45.0"}}, {"uniqueid": "MTK0214:3IGI0VL648RS4H52CP3DX8C046DNO8", "current_trial": 64, "dateTime": 1509550300163, "trialdata": {"rt": -1000, "stimulus": "/static/audio/wordpool/COTTAGE.wav", "key_press": -1, "type": "PRES_AUD", "word": "cottage", "wordID": 383, "conditions": [18, 1200, "a", 18000], "trial": 1, "serialpos": 9, "trial_type": "single-audio", "trial_index": 64, "time_elapsed": 279594, "internal_node_id": "0.0-46.0"}}, {"uniqueid": "MTK0214:3IGI0VL648RS4H52CP3DX8C046DNO8", "current_trial": 65, "dateTime": 1509550302283, "trialdata": {"rt": -1000, "stimulus": "/static/audio/wordpool/ANKLE.wav", "key_press": -1, "type": "PRES_AUD", "word": "ankle", "wordID": 23, "conditions": [18, 1200, "a", 18000], "trial": 1, "serialpos": 10, "trial_type": "single-audio", "trial_index": 65, "time_elapsed": 281714, "internal_node_id": "0.0-47.0"}}, {"uniqueid": "MTK0214:3IGI0VL648RS4H52CP3DX8C046DNO8", "current_trial": 66, "dateTime": 1509550304522, "trialdata": {"rt": -1000, "stimulus": "/static/audio/wordpool/DORM.wav", "key_press": -1, "type": "PRES_AUD", "word": "dorm", "wordID": 487, "conditions": [18, 1200, "a", 18000], "trial": 1, "serialpos": 11, "trial_type": "single-audio", "trial_index": 66, "time_elapsed": 283953, "internal_node_id": "0.0-48.0"}}, {"uniqueid": "MTK0214:3IGI0VL648RS4H52CP3DX8C046DNO8", "current_trial": 67, "dateTime": 1509550306548, "trialdata": {"rt": -1000, "stimulus": "/static/audio/wordpool/SCRIBBLE.wav", "key_press": -1, "type": "PRES_AUD", "word": "scribble", "wordID": 1255, "conditions": [18, 1200, "a", 18000], "trial": 1, "serialpos": 12, "trial_type": "single-audio", "trial_index": 67, "time_elapsed": 285979, "internal_node_id": "0.0-49.0"}}, {"uniqueid": "MTK0214:3IGI0VL648RS4H52CP3DX8C046DNO8", "current_trial": 68, "dateTime": 1509550308837, "trialdata": {"rt": -1000, "stimulus": "/static/audio/wordpool/CURTAIN.wav", "key_press": -1, "type": "PRES_AUD", "word": "curtain", "wordID": 426, "conditions": [18, 1200, "a", 18000], "trial": 1, "serialpos": 13, "trial_type": "single-audio", "trial_index": 68, "time_elapsed": 288266, "internal_node_id": "0.0-50.0"}}, {"uniqueid": "MTK0214:3IGI0VL648RS4H52CP3DX8C046DNO8", "current_trial": 69, "dateTime": 1509550310908, "trialdata": {"rt": -1000, "stimulus": "/static/audio/wordpool/CELLAR.wav", "key_press": -1, "type": "PRES_AUD", "word": "cellar", "wordID": 266, "conditions": [18, 1200, "a", 18000], "trial": 1, "serialpos": 14, "trial_type": "single-audio", "trial_index": 69, "time_elapsed": 290338, "internal_node_id": "0.0-51.0"}}, {"uniqueid": "MTK0214:3IGI0VL648RS4H52CP3DX8C046DNO8", "current_trial": 70, "dateTime": 1509550313191, "trialdata": {"rt": -1000, "stimulus": "/static/audio/wordpool/GRILL.wav", "key_press": -1, "type": "PRES_AUD", "word": "grill", "wordID": 660, "conditions": [18, 1200, "a", 18000], "trial": 1, "serialpos": 15, "trial_type": "single-audio", "trial_index": 70, "time_elapsed": 292621, "internal_node_id": "0.0-52.0"}}, {"uniqueid": "MTK0214:3IGI0VL648RS4H52CP3DX8C046DNO8", "current_trial": 71, "dateTime": 1509550315395, "trialdata": {"rt": -1000, "stimulus": "/static/audio/wordpool/SHELF.wav", "key_press": -1, "type": "PRES_AUD", "word": "shelf", "wordID": 1279, "conditions": [18, 1200, "a", 18000], "trial": 1, "serialpos": 16, "trial_type": "single-audio", "trial_index": 71, "time_elapsed": 294826, "internal_node_id": "0.0-53.0"}}, {"uniqueid": "MTK0214:3IGI0VL648RS4H52CP3DX8C046DNO8", "current_trial": 72, "dateTime": 1509550317536, "trialdata": {"rt": -1000, "stimulus": "/static/audio/wordpool/CASHEW.wav", "key_press": -1, "type": "PRES_AUD", "word": "cashew", "wordID": 252, "conditions": [18, 1200, "a", 18000], "trial": 1, "serialpos": 17, "trial_type": "single-audio", "trial_index": 72, "time_elapsed": 296967, "internal_node_id": "0.0-54.0"}}, {"uniqueid": "MTK0214:3IGI0VL648RS4H52CP3DX8C046DNO8", "current_trial": 73, "dateTime": 1509550318820, "trialdata": {"rt": -1, "stimulus": "", "key_press": -1, "type": "PRE_RECALL_DELAY", "trial_type": "single-stim", "trial_index": 73, "time_elapsed": 298250, "internal_node_id": "0.0-55.0-0.0"}}, {"uniqueid": "MTK0214:3IGI0VL648RS4H52CP3DX8C046DNO8", "current_trial": 74, "dateTime": 1509550319321, "trialdata": {"rt": -1000, "stimulus": "/static/audio/400Hz.wav", "key_press": -1, "type": "PRE_RECALL_ALERT", "trial_type": "single-audio", "trial_index": 74, "time_elapsed": 298752, "internal_node_id": "0.0-56.0"}}, {"uniqueid": "MTK0214:3IGI0VL648RS4H52CP3DX8C046DNO8", "current_trial": 75, "dateTime": 1509550379326, "trialdata": {"rt": [3970, 6522, 8562, 10770, 13681, 22875, 29788, 34628], "recwords": ["dorm", "brick", "sucker", "mop", "curtain", "cashew", "mop", "sister"], "type": "FREE_RECALL", "conditions": [18, 1200, "a", 18000], "trial": 1, "trial_type": "free-recall", "trial_index": 75, "time_elapsed": 358755, "internal_node_id": "0.0-57.0-0.0"}}, {"uniqueid": "MTK0214:3IGI0VL648RS4H52CP3DX8C046DNO8", "current_trial": 76, "dateTime": 1509550382698, "trialdata": {"rt": 1371, "key_press": 72, "type": "INSTRUCTIONS", "trial_type": "text", "trial_index": 76, "time_elapsed": 362129, "internal_node_id": "0.0-58.0"}}, {"uniqueid": "MTK0214:3IGI0VL648RS4H52CP3DX8C046DNO8", "current_trial": 77, "dateTime": 1509550407706, "trialdata": {"rt": [2348, 5316, 7548, 10019, 14293, 18723, 21851], "responses": ["11", "17", "9", "20", "19", "21", "20"], "num1": [9, 4, 1, 9, 8, 5, 5, 5], "num2": [1, 4, 6, 9, 5, 7, 6, 6], "num3": [1, 9, 2, 2, 6, 9, 9, 5], "type": "DISTRACTOR", "conditions": [12, 800, "v", 24000], "trial": 2, "trial_type": "math-distractor", "trial_index": 77, "time_elapsed": 387137, "internal_node_id": "0.0-59.0"}}, {"uniqueid": "MTK0214:3IGI0VL648RS4H52CP3DX8C046DNO8", "current_trial": 78, "dateTime": 1509550410713, "trialdata": {"rt": -1, "stimulus": "<p id=\"stim\">10</p>", "key_press": -1, "trial_type": "single-stim", "trial_index": 78, "time_elapsed": 390144, "internal_node_id": "0.0-60.0-0.0"}}, {"uniqueid": "MTK0214:3IGI0VL648RS4H52CP3DX8C046DNO8", "current_trial": 79, "dateTime": 1509550411717, "trialdata": {"rt": -1, "stimulus": "<p id=\"stim\">9</p>", "key_press": -1, "trial_type": "single-stim", "trial_index": 79, "time_elapsed": 391148, "internal_node_id": "0.0-60.0-1.0"}}, {"uniqueid": "MTK0214:3IGI0VL648RS4H52CP3DX8C046DNO8", "current_trial": 80, "dateTime": 1509550412721, "trialdata": {"rt": -1, "stimulus": "<p id=\"stim\">8</p>", "key_press": -1, "trial_type": "single-stim", "trial_index": 80, "time_elapsed": 392152, "internal_node_id": "0.0-60.0-2.0"}}, {"uniqueid": "MTK0214:3IGI0VL648RS4H52CP3DX8C046DNO8", "current_trial": 81, "dateTime": 1509550413725, "trialdata": {"rt": -1, "stimulus": "<p id=\"stim\">7</p>", "key_press": -1, "trial_type": "single-stim", "trial_index": 81, "time_elapsed": 393156, "internal_node_id": "0.0-60.0-3.0"}}, {"uniqueid": "MTK0214:3IGI0VL648RS4H52CP3DX8C046DNO8", "current_trial": 82, "dateTime": 1509550414729, "trialdata": {"rt": -1, "stimulus": "<p id=\"stim\">6</p>", "key_press": -1, "trial_type": "single-stim", "trial_index": 82, "time_elapsed": 394160, "internal_node_id": "0.0-60.0-4.0"}}, {"uniqueid": "MTK0214:3IGI0VL648RS4H52CP3DX8C046DNO8", "current_trial": 83, "dateTime": 1509550415733, "trialdata": {"rt": -1, "stimulus": "<p id=\"stim\">5</p>", "key_press": -1, "trial_type": "single-stim", "trial_index": 83, "time_elapsed": 395164, "internal_node_id": "0.0-60.0-5.0"}}, {"uniqueid": "MTK0214:3IGI0VL648RS4H52CP3DX8C046DNO8", "current_trial": 84, "dateTime": 1509550416737, "trialdata": {"rt": -1, "stimulus": "<p id=\"stim\">4</p>", "key_press": -1, "trial_type": "single-stim", "trial_index": 84, "time_elapsed": 396168, "internal_node_id": "0.0-60.0-6.0"}}, {"uniqueid": "MTK0214:3IGI0VL648RS4H52CP3DX8C046DNO8", "current_trial": 85, "dateTime": 1509550417741, "trialdata": {"rt": -1, "stimulus": "<p id=\"stim\">3</p>", "key_press": -1, "trial_type": "single-stim", "trial_index": 85, "time_elapsed": 397172, "internal_node_id": "0.0-60.0-7.0"}}, {"uniqueid": "MTK0214:3IGI0VL648RS4H52CP3DX8C046DNO8", "current_trial": 86, "dateTime": 1509550418745, "trialdata": {"rt": -1, "stimulus": "<p id=\"stim\">2</p>", "key_press": -1, "trial_type": "single-stim", "trial_index": 86, "time_elapsed": 398176, "internal_node_id": "0.0-60.0-8.0"}}, {"uniqueid": "MTK0214:3IGI0VL648RS4H52CP3DX8C046DNO8", "current_trial": 87, "dateTime": 1509550419749, "trialdata": {"rt": -1, "stimulus": "<p id=\"stim\">1</p>", "key_press": -1, "trial_type": "single-stim", "trial_index": 87, "time_elapsed": 399180, "internal_node_id": "0.0-60.0-9.0"}}, {"uniqueid": "MTK0214:3IGI0VL648RS4H52CP3DX8C046DNO8", "current_trial": 88, "dateTime": 1509550421253, "trialdata": {"rt": -1, "stimulus": "<p id=\"stim\">+</p>", "key_press": -1, "type": "FIXATION", "trial_type": "single-stim", "trial_index": 88, "time_elapsed": 400683, "internal_node_id": "0.0-61.0-0.0"}}, {"uniqueid": "MTK0214:3IGI0VL648RS4H52CP3DX8C046DNO8", "current_trial": 89, "dateTime": 1509550422054, "trialdata": {"rt": -1, "stimulus": "<p id=\"stim\">PEACH</p>", "key_press": -1, "type": "PRES_VIS", "word": "peach", "wordID": 1030, "conditions": [12, 800, "v", 24000], "trial": 2, "serialpos": 0, "trial_type": "single-stim", "trial_index": 89, "time_elapsed": 401485, "internal_node_id": "0.0-62.0"}}, {"uniqueid": "MTK0214:3IGI0VL648RS4H52CP3DX8C046DNO8", "current_trial": 90, "dateTime": 1509550423806, "trialdata": {"rt": -1, "stimulus": "<p id=\"stim\">BLOUSE</p>", "key_press": -1, "type": "PRES_VIS", "word": "blouse", "wordID": 138, "conditions": [12, 800, "v", 24000], "trial": 2, "serialpos": 1, "trial_type": "single-stim", "trial_index": 90, "time_elapsed": 403237, "internal_node_id": "0.0-63.0"}}, {"uniqueid": "MTK0214:3IGI0VL648RS4H52CP3DX8C046DNO8", "current_trial": 91, "dateTime": 1509550425634, "trialdata": {"rt": -1, "stimulus": "<p id=\"stim\">GALLON</p>", "key_press": -1, "type": "PRES_VIS", "word": "gallon", "wordID": 617, "conditions": [12, 800, "v", 24000], "trial": 2, "serialpos": 2, "trial_type": "single-stim", "trial_index": 91, "time_elapsed": 405065, "internal_node_id": "0.0-64.0"}}, {"uniqueid": "MTK0214:3IGI0VL648RS4H52CP3DX8C046DNO8", "current_trial": 92, "dateTime": 1509550427436, "trialdata": {"rt": -1, "stimulus": "<p id=\"stim\">OZONE</p>", "key_press": -1, "type": "PRES_VIS", "word": "ozone", "wordID": 995, "conditions": [12, 800, "v", 24000], "trial": 2, "serialpos": 3, "trial_type": "single-stim", "trial_index": 92, "time_elapsed": 406867, "internal_node_id": "0.0-65.0"}}, {"uniqueid": "MTK0214:3IGI0VL648RS4H52CP3DX8C046DNO8", "current_trial": 93, "dateTime": 1509550429181, "trialdata": {"rt": -1, "stimulus": "<p id=\"stim\">VALVE</p>", "key_press": -1, "type": "PRES_VIS", "word": "valve", "wordID": 1545, "conditions": [12, 800, "v", 24000], "trial": 2, "serialpos": 4, "trial_type": "single-stim", "trial_index": 93, "time_elapsed": 408612, "internal_node_id": "0.0-66.0"}}, {"uniqueid": "MTK0214:3IGI0VL648RS4H52CP3DX8C046DNO8", "current_trial": 94, "dateTime": 1509550430912, "trialdata": {"rt": -1, "stimulus": "<p id=\"stim\">PISTON</p>", "key_press": -1, "type": "PRES_VIS", "word": "piston", "wordID": 1075, "conditions": [12, 800, "v", 24000], "trial": 2, "serialpos": 5, "trial_type": "single-stim", "trial_index": 94, "time_elapsed": 410343, "internal_node_id": "0.0-67.0"}}, {"uniqueid": "MTK0214:3IGI0VL648RS4H52CP3DX8C046DNO8", "current_trial": 95, "dateTime": 1509550432592, "trialdata": {"rt": -1, "stimulus": "<p id=\"stim\">GUITAR</p>", "key_press": -1, "type": "PRES_VIS", "word": "guitar", "wordID": 669, "conditions": [12, 800, "v", 24000], "trial": 2, "serialpos": 6, "trial_type": "single-stim", "trial_index": 95, "time_elapsed": 412023, "internal_node_id": "0.0-68.0"}}, {"uniqueid": "MTK0214:3IGI0VL648RS4H52CP3DX8C046DNO8", "current_trial": 96, "dateTime": 1509550434259, "trialdata": {"rt": -1, "stimulus": "<p id=\"stim\">PIZZA</p>", "key_press": -1, "type": "PRES_VIS", "word": "pizza", "wordID": 1078, "conditions": [12, 800, "v", 24000], "trial": 2, "serialpos": 7, "trial_type": "single-stim", "trial_index": 96, "time_elapsed": 413690, "internal_node_id": "0.0-69.0"}}, {"uniqueid": "MTK0214:3IGI0VL648RS4H52CP3DX8C046DNO8", "current_trial": 97, "dateTime": 1509550436064, "trialdata": {"rt": -1, "stimulus": "<p id=\"stim\">WINDOW</p>", "key_press": -1, "type": "PRES_VIS", "word": "window", "wordID": 1610, "conditions": [12, 800, "v", 24000], "trial": 2, "serialpos": 8, "trial_type": "single-stim", "trial_index": 97, "time_elapsed": 415495, "internal_node_id": "0.0-70.0"}}, {"uniqueid": "MTK0214:3IGI0VL648RS4H52CP3DX8C046DNO8", "current_trial": 98, "dateTime": 1509550437817, "trialdata": {"rt": -1, "stimulus": "<p id=\"stim\">FLASK</p>", "key_press": -1, "type": "PRES_VIS", "word": "flask", "wordID": 575, "conditions": [12, 800, "v", 24000], "trial": 2, "serialpos": 9, "trial_type": "single-stim", "trial_index": 98, "time_elapsed": 417248, "internal_node_id": "0.0-71.0"}}, {"uniqueid": "MTK0214:3IGI0VL648RS4H52CP3DX8C046DNO8", "current_trial": 99, "dateTime": 1509550439523, "trialdata": {"rt": -1, "stimulus": "<p id=\"stim\">FLUTE</p>", "key_press": -1, "type": "PRES_VIS", "word": "flute", "wordID": 584, "conditions": [12, 800, "v", 24000], "trial": 2, "serialpos": 10, "trial_type": "single-stim", "trial_index": 99, "time_elapsed": 418954, "internal_node_id": "0.0-72.0"}}, {"uniqueid": "MTK0214:3IGI0VL648RS4H52CP3DX8C046DNO8", "current_trial": 100, "dateTime": 1509550441316, "trialdata": {"rt": -1, "stimulus": "<p id=\"stim\">BEEF</p>", "key_press": -1, "type": "PRES_VIS", "word": "beef", "wordID": 112, "conditions": [12, 800, "v", 24000], "trial": 2, "serialpos": 11, "trial_type": "single-stim", "trial_index": 100, "time_elapsed": 420747, "internal_node_id": "0.0-73.0"}}, {"uniqueid": "MTK0214:3IGI0VL648RS4H52CP3DX8C046DNO8", "current_trial": 101, "dateTime": 1509550443534, "trialdata": {"rt": -1, "stimulus": "", "key_press": -1, "type": "PRE_RECALL_DELAY", "trial_type": "single-stim", "trial_index": 101, "time_elapsed": 422964, "internal_node_id": "0.0-74.0-0.0"}}, {"uniqueid": "MTK0214:3IGI0VL648RS4H52CP3DX8C046DNO8", "current_trial": 102, "dateTime": 1509550444036, "trialdata": {"rt": -1000, "stimulus": "/static/audio/400Hz.wav", "key_press": -1, "type": "PRE_RECALL_ALERT", "trial_type": "single-audio", "trial_index": 102, "time_elapsed": 423467, "internal_node_id": "0.0-75.0"}}, {"uniqueid": "MTK0214:3IGI0VL648RS4H52CP3DX8C046DNO8", "current_trial": 103, "dateTime": 1509550504039, "trialdata": {"rt": [2383, 4199, 5871, 7566, 9239, 10031, 12175, 17598, 27589, 42557], "recwords": ["beef", "flute", "guitar", "ozone", "peach", "blouse", "pizza", "valve", "gallon", "flute"], "type": "FREE_RECALL", "conditions": [12, 800, "v", 24000], "trial": 2, "trial_type": "free-recall", "trial_index": 103, "time_elapsed": 483468, "internal_node_id": "0.0-76.0-0.0"}}, {"uniqueid": "MTK0214:3IGI0VL648RS4H52CP3DX8C046DNO8", "current_trial": 104, "dateTime": 1509550507099, "trialdata": {"rt": 1054, "key_press": 74, "type": "INSTRUCTIONS", "trial_type": "text", "trial_index": 104, "time_elapsed": 486530, "internal_node_id": "0.0-77.0"}}, {"uniqueid": "MTK0214:3IGI0VL648RS4H52CP3DX8C046DNO8", "current_trial": 105, "dateTime": 1509550521106, "trialdata": {"rt": [5259, 11426], "responses": ["21", "23"], "num1": [9, 9, 3], "num2": [7, 7, 5], "num3": [5, 7, 7], "type": "DISTRACTOR", "conditions": [24, 800, "v", 12000], "trial": 3, "trial_type": "math-distractor", "trial_index": 105, "time_elapsed": 500537, "internal_node_id": "0.0-78.0"}}, {"uniqueid": "MTK0214:3IGI0VL648RS4H52CP3DX8C046DNO8", "current_trial": 106, "dateTime": 1509550524112, "trialdata": {"rt": -1, "stimulus": "<p id=\"stim\">10</p>", "key_press": -1, "trial_type": "single-stim", "trial_index": 106, "time_elapsed": 503542, "internal_node_id": "0.0-79.0-0.0"}}, {"uniqueid": "MTK0214:3IGI0VL648RS4H52CP3DX8C046DNO8", "current_trial": 107, "dateTime": 1509550525116, "trialdata": {"rt": -1, "stimulus": "<p id=\"stim\">9</p>", "key_press": -1, "trial_type": "single-stim", "trial_index": 107, "time_elapsed": 504547, "internal_node_id": "0.0-79.0-1.0"}}, {"uniqueid": "MTK0214:3IGI0VL648RS4H52CP3DX8C046DNO8", "current_trial": 108, "dateTime": 1509550526120, "trialdata": {"rt": -1, "stimulus": "<p id=\"stim\">8</p>", "key_press": -1, "trial_type": "single-stim", "trial_index": 108, "time_elapsed": 505551, "internal_node_id": "0.0-79.0-2.0"}}, {"uniqueid": "MTK0214:3IGI0VL648RS4H52CP3DX8C046DNO8", "current_trial": 109, "dateTime": 1509550527124, "trialdata": {"rt": -1, "stimulus": "<p id=\"stim\">7</p>", "key_press": -1, "trial_type": "single-stim", "trial_index": 109, "time_elapsed": 506555, "internal_node_id": "0.0-79.0-3.0"}}, {"uniqueid": "MTK0214:3IGI0VL648RS4H52CP3DX8C046DNO8", "current_trial": 110, "dateTime": 1509550528129, "trialdata": {"rt": -1, "stimulus": "<p id=\"stim\">6</p>", "key_press": -1, "trial_type": "single-stim", "trial_index": 110, "time_elapsed": 507559, "internal_node_id": "0.0-79.0-4.0"}}, {"uniqueid": "MTK0214:3IGI0VL648RS4H52CP3DX8C046DNO8", "current_trial": 111, "dateTime": 1509550529133, "trialdata": {"rt": -1, "stimulus": "<p id=\"stim\">5</p>", "key_press": -1, "trial_type": "single-stim", "trial_index": 111, "time_elapsed": 508563, "internal_node_id": "0.0-79.0-5.0"}}, {"uniqueid": "MTK0214:3IGI0VL648RS4H52CP3DX8C046DNO8", "current_trial": 112, "dateTime": 1509550530137, "trialdata": {"rt": -1, "stimulus": "<p id=\"stim\">4</p>", "key_press": -1, "trial_type": "single-stim", "trial_index": 112, "time_elapsed": 509568, "internal_node_id": "0.0-79.0-6.0"}}, {"uniqueid": "MTK0214:3IGI0VL648RS4H52CP3DX8C046DNO8", "current_trial": 113, "dateTime": 1509550531141, "trialdata": {"rt": -1, "stimulus": "<p id=\"stim\">3</p>", "key_press": -1, "trial_type": "single-stim", "trial_index": 113, "time_elapsed": 510572, "internal_node_id": "0.0-79.0-7.0"}}, {"uniqueid": "MTK0214:3IGI0VL648RS4H52CP3DX8C046DNO8", "current_trial": 114, "dateTime": 1509550532145, "trialdata": {"rt": -1, "stimulus": "<p id=\"stim\">2</p>", "key_press": -1, "trial_type": "single-stim", "trial_index": 114, "time_elapsed": 511576, "internal_node_id": "0.0-79.0-8.0"}}, {"uniqueid": "MTK0214:3IGI0VL648RS4H52CP3DX8C046DNO8", "current_trial": 115, "dateTime": 1509550533149, "trialdata": {"rt": -1, "stimulus": "<p id=\"stim\">1</p>", "key_press": -1, "trial_type": "single-stim", "trial_index": 115, "time_elapsed": 512580, "internal_node_id": "0.0-79.0-9.0"}}, {"uniqueid": "MTK0214:3IGI0VL648RS4H52CP3DX8C046DNO8", "current_trial": 116, "dateTime": 1509550534652, "trialdata": {"rt": -1, "stimulus": "<p id=\"stim\">+</p>", "key_press": -1, "type": "FIXATION", "trial_type": "single-stim", "trial_index": 116, "time_elapsed": 514083, "internal_node_id": "0.0-80.0-0.0"}}, {"uniqueid": "MTK0214:3IGI0VL648RS4H52CP3DX8C046DNO8", "current_trial": 117, "dateTime": 1509550535453, "trialdata": {"rt": -1, "stimulus": "<p id=\"stim\">SALMON</p>", "key_press": -1, "type": "PRES_VIS", "word": "salmon", "wordID": 1226, "conditions": [24, 800, "v", 12000], "trial": 3, "serialpos": 0, "trial_type": "single-stim", "trial_index": 117, "time_elapsed": 514884, "internal_node_id": "0.0-81.0"}}, {"uniqueid": "MTK0214:3IGI0VL648RS4H52CP3DX8C046DNO8", "current_trial": 118, "dateTime": 1509550537449, "trialdata": {"rt": -1, "stimulus": "<p id=\"stim\">SNAKE</p>", "key_press": -1, "type": "PRES_VIS", "word": "snake", "wordID": 1332, "conditions": [24, 800, "v", 12000], "trial": 3, "serialpos": 1, "trial_type": "single-stim", "trial_index": 118, "time_elapsed": 516880, "internal_node_id": "0.0-82.0"}}, {"uniqueid": "MTK0214:3IGI0VL648RS4H52CP3DX8C046DNO8", "current_trial": 119, "dateTime": 1509550539150, "trialdata": {"rt": -1, "stimulus": "<p id=\"stim\">EMPIRE</p>", "key_press": -1, "type": "PRES_VIS", "word": "empire", "wordID": 529, "conditions": [24, 800, "v", 12000], "trial": 3, "serialpos": 2, "trial_type": "single-stim", "trial_index": 119, "time_elapsed": 518581, "internal_node_id": "0.0-83.0"}}, {"uniqueid": "MTK0214:3IGI0VL648RS4H52CP3DX8C046DNO8", "current_trial": 120, "dateTime": 1509550541123, "trialdata": {"rt": -1, "stimulus": "<p id=\"stim\">ROBOT</p>", "key_press": -1, "type": "PRES_VIS", "word": "robot", "wordID": 1199, "conditions": [24, 800, "v", 12000], "trial": 3, "serialpos": 3, "trial_type": "single-stim", "trial_index": 120, "time_elapsed": 520554, "internal_node_id": "0.0-84.0"}}, {"uniqueid": "MTK0214:3IGI0VL648RS4H52CP3DX8C046DNO8", "current_trial": 121, "dateTime": 1509550542946, "trialdata": {"rt": -1, "stimulus": "<p id=\"stim\">MATTRESS</p>", "key_press": -1, "type": "PRES_VIS", "word": "mattress", "wordID": 878, "conditions": [24, 800, "v", 12000], "trial": 3, "serialpos": 4, "trial_type": "single-stim", "trial_index": 121, "time_elapsed": 522377, "internal_node_id": "0.0-85.0"}}, {"uniqueid": "MTK0214:3IGI0VL648RS4H52CP3DX8C046DNO8", "current_trial": 122, "dateTime": 1509550544582, "trialdata": {"rt": -1, "stimulus": "<p id=\"stim\">PEBBLE</p>", "key_press": -1, "type": "PRES_VIS", "word": "pebble", "wordID": 1034, "conditions": [24, 800, "v", 12000], "trial": 3, "serialpos": 5, "trial_type": "single-stim", "trial_index": 122, "time_elapsed": 524013, "internal_node_id": "0.0-86.0"}}, {"uniqueid": "MTK0214:3IGI0VL648RS4H52CP3DX8C046DNO8", "current_trial": 123, "dateTime": 1509550546480, "trialdata": {"rt": -1, "stimulus": "<p id=\"stim\">RABBIT</p>", "key_press": -1, "type": "PRES_VIS", "word": "rabbit", "wordID": 1151, "conditions": [24, 800, "v", 12000], "trial": 3, "serialpos": 6, "trial_type": "single-stim", "trial_index": 123, "time_elapsed": 525911, "internal_node_id": "0.0-87.0"}}, {"uniqueid": "MTK0214:3IGI0VL648RS4H52CP3DX8C046DNO8", "current_trial": 124, "dateTime": 1509550548192, "trialdata": {"rt": -1, "stimulus": "<p id=\"stim\">FOX</p>", "key_press": -1, "type": "PRES_VIS", "word": "fox", "wordID": 597, "conditions": [24, 800, "v", 12000], "trial": 3, "serialpos": 7, "trial_type": "single-stim", "trial_index": 124, "time_elapsed": 527623, "internal_node_id": "0.0-88.0"}}, {"uniqueid": "MTK0214:3IGI0VL648RS4H52CP3DX8C046DNO8", "current_trial": 125, "dateTime": 1509550550032, "trialdata": {"rt": -1, "stimulus": "<p id=\"stim\">QUEEN</p>", "key_press": -1, "type": "PRES_VIS", "word": "queen", "wordID": 1148, "conditions": [24, 800, "v", 12000], "trial": 3, "serialpos": 8, "trial_type": "single-stim", "trial_index": 125, "time_elapsed": 529463, "internal_node_id": "0.0-89.0"}}, {"uniqueid": "MTK0214:3IGI0VL648RS4H52CP3DX8C046DNO8", "current_trial": 126, "dateTime": 1509550551669, "trialdata": {"rt": -1, "stimulus": "<p id=\"stim\">FIDDLE</p>", "key_press": -1, "type": "PRES_VIS", "word": "fiddle", "wordID": 560, "conditions": [24, 800, "v", 12000], "trial": 3, "serialpos": 9, "trial_type": "single-stim", "trial_index": 126, "time_elapsed": 531100, "internal_node_id": "0.0-90.0"}}, {"uniqueid": "MTK0214:3IGI0VL648RS4H52CP3DX8C046DNO8", "current_trial": 127, "dateTime": 1509550553346, "trialdata": {"rt": -1, "stimulus": "<p id=\"stim\">COUCH</p>", "key_press": -1, "type": "PRES_VIS", "word": "couch", "wordID": 385, "conditions": [24, 800, "v", 12000], "trial": 3, "serialpos": 10, "trial_type": "single-stim", "trial_index": 127, "time_elapsed": 532777, "internal_node_id": "0.0-91.0"}}, {"uniqueid": "MTK0214:3IGI0VL648RS4H52CP3DX8C046DNO8", "current_trial": 128, "dateTime": 1509550555325, "trialdata": {"rt": -1, "stimulus": "<p id=\"stim\">NECKLACE</p>", "key_press": -1, "type": "PRES_VIS", "word": "necklace", "wordID": 939, "conditions": [24, 800, "v", 12000], "trial": 3, "serialpos": 11, "trial_type": "single-stim", "trial_index": 128, "time_elapsed": 534756, "internal_node_id": "0.0-92.0"}}, {"uniqueid": "MTK0214:3IGI0VL648RS4H52CP3DX8C046DNO8", "current_trial": 129, "dateTime": 1509550557009, "trialdata": {"rt": -1, "stimulus": "<p id=\"stim\">COOKBOOK</p>", "key_press": -1, "type": "PRES_VIS", "word": "cookbook", "wordID": 372, "conditions": [24, 800, "v", 12000], "trial": 3, "serialpos": 12, "trial_type": "single-stim", "trial_index": 129, "time_elapsed": 536439, "internal_node_id": "0.0-93.0"}}, {"uniqueid": "MTK0214:3IGI0VL648RS4H52CP3DX8C046DNO8", "current_trial": 130, "dateTime": 1509550558846, "trialdata": {"rt": -1, "stimulus": "<p id=\"stim\">TERMITE</p>", "key_press": -1, "type": "PRES_VIS", "word": "termite", "wordID": 1450, "conditions": [24, 800, "v", 12000], "trial": 3, "serialpos": 13, "trial_type": "single-stim", "trial_index": 130, "time_elapsed": 538277, "internal_node_id": "0.0-94.0"}}, {"uniqueid": "MTK0214:3IGI0VL648RS4H52CP3DX8C046DNO8", "current_trial": 131, "dateTime": 1509550560590, "trialdata": {"rt": -1, "stimulus": "<p id=\"stim\">CHEST</p>", "key_press": -1, "type": "PRES_VIS", "word": "chest", "wordID": 294, "conditions": [24, 800, "v", 12000], "trial": 3, "serialpos": 14, "trial_type": "single-stim", "trial_index": 131, "time_elapsed": 540020, "internal_node_id": "0.0-95.0"}}, {"uniqueid": "MTK0214:3IGI0VL648RS4H52CP3DX8C046DNO8", "current_trial": 132, "dateTime": 1509550562383, "trialdata": {"rt": -1, "stimulus": "<p id=\"stim\">INFANT</p>", "key_press": -1, "type": "PRES_VIS", "word": "infant", "wordID": 736, "conditions": [24, 800, "v", 12000], "trial": 3, "serialpos": 15, "trial_type": "single-stim", "trial_index": 132, "time_elapsed": 541814, "internal_node_id": "0.0-96.0"}}, {"uniqueid": "MTK0214:3IGI0VL648RS4H52CP3DX8C046DNO8", "current_trial": 133, "dateTime": 1509550564153, "trialdata": {"rt": -1, "stimulus": "<p id=\"stim\">BABY</p>", "key_press": -1, "type": "PRES_VIS", "word": "baby", "wordID": 63, "conditions": [24, 800, "v", 12000], "trial": 3, "serialpos": 16, "trial_type": "single-stim", "trial_index": 133, "time_elapsed": 543584, "internal_node_id": "0.0-97.0"}}, {"uniqueid": "MTK0214:3IGI0VL648RS4H52CP3DX8C046DNO8", "current_trial": 134, "dateTime": 1509550566121, "trialdata": {"rt": -1, "stimulus": "<p id=\"stim\">MAPLE</p>", "key_press": -1, "type": "PRES_VIS", "word": "maple", "wordID": 865, "conditions": [24, 800, "v", 12000], "trial": 3, "serialpos": 17, "trial_type": "single-stim", "trial_index": 134, "time_elapsed": 545551, "internal_node_id": "0.0-98.0"}}, {"uniqueid": "MTK0214:3IGI0VL648RS4H52CP3DX8C046DNO8", "current_trial": 135, "dateTime": 1509550567728, "trialdata": {"rt": -1, "stimulus": "<p id=\"stim\">GHETTO</p>", "key_press": -1, "type": "PRES_VIS", "word": "ghetto", "wordID": 632, "conditions": [24, 800, "v", 12000], "trial": 3, "serialpos": 18, "trial_type": "single-stim", "trial_index": 135, "time_elapsed": 547159, "internal_node_id": "0.0-99.0"}}, {"uniqueid": "MTK0214:3IGI0VL648RS4H52CP3DX8C046DNO8", "current_trial": 136, "dateTime": 1509550569562, "trialdata": {"rt": -1, "stimulus": "<p id=\"stim\">FOREHEAD</p>", "key_press": -1, "type": "PRES_VIS", "word": "forehead", "wordID": 591, "conditions": [24, 800, "v", 12000], "trial": 3, "serialpos": 19, "trial_type": "single-stim", "trial_index": 136, "time_elapsed": 548993, "internal_node_id": "0.0-100.0"}}, {"uniqueid": "MTK0214:3IGI0VL648RS4H52CP3DX8C046DNO8", "current_trial": 137, "dateTime": 1509550571408, "trialdata": {"rt": -1, "stimulus": "<p id=\"stim\">LOVER</p>", "key_press": -1, "type": "PRES_VIS", "word": "lover", "wordID": 845, "conditions": [24, 800, "v", 12000], "trial": 3, "serialpos": 20, "trial_type": "single-stim", "trial_index": 137, "time_elapsed": 550839, "internal_node_id": "0.0-101.0"}}, {"uniqueid": "MTK0214:3IGI0VL648RS4H52CP3DX8C046DNO8", "current_trial": 138, "dateTime": 1509550573085, "trialdata": {"rt": -1, "stimulus": "<p id=\"stim\">LAVA</p>", "key_press": -1, "type": "PRES_VIS", "word": "lava", "wordID": 803, "conditions": [24, 800, "v", 12000], "trial": 3, "serialpos": 21, "trial_type": "single-stim", "trial_index": 138, "time_elapsed": 552516, "internal_node_id": "0.0-102.0"}}, {"uniqueid": "MTK0214:3IGI0VL648RS4H52CP3DX8C046DNO8", "current_trial": 139, "dateTime": 1509550575041, "trialdata": {"rt": -1, "stimulus": "<p id=\"stim\">WASP</p>", "key_press": -1, "type": "PRES_VIS", "word": "wasp", "wordID": 1592, "conditions": [24, 800, "v", 12000], "trial": 3, "serialpos": 22, "trial_type": "single-stim", "trial_index": 139, "time_elapsed": 554472, "internal_node_id": "0.0-103.0"}}, {"uniqueid": "MTK0214:3IGI0VL648RS4H52CP3DX8C046DNO8", "current_trial": 140, "dateTime": 1509550576681, "trialdata": {"rt": -1, "stimulus": "<p id=\"stim\">OYSTER</p>", "key_press": -1, "type": "PRES_VIS", "word": "oyster", "wordID": 994, "conditions": [24, 800, "v", 12000], "trial": 3, "serialpos": 23, "trial_type": "single-stim", "trial_index": 140, "time_elapsed": 556112, "internal_node_id": "0.0-104.0"}}, {"uniqueid": "MTK0214:3IGI0VL648RS4H52CP3DX8C046DNO8", "current_trial": 141, "dateTime": 1509550578733, "trialdata": {"rt": -1, "stimulus": "", "key_press": -1, "type": "PRE_RECALL_DELAY", "trial_type": "single-stim", "trial_index": 141, "time_elapsed": 558163, "internal_node_id": "0.0-105.0-0.0"}}, {"uniqueid": "MTK0214:3IGI0VL648RS4H52CP3DX8C046DNO8", "current_trial": 142, "dateTime": 1509550579234, "trialdata": {"rt": -1000, "stimulus": "/static/audio/400Hz.wav", "key_press": -1, "type": "PRE_RECALL_ALERT", "trial_type": "single-audio", "trial_index": 142, "time_elapsed": 558665, "internal_node_id": "0.0-106.0"}}, {"uniqueid": "MTK0214:3IGI0VL648RS4H52CP3DX8C046DNO8", "current_trial": 143, "dateTime": 1509550639237, "trialdata": {"rt": [2455, 4240, 5424, 7585, 9001, 10633, 12849, 14873, 16057, 18200, 22168, 34813, 41133, 48387], "recwords": ["infant", "baby", "ghetto", "rabbit", "fox", "wasp", "oyster", "snake", "salmon", "termite", "lava", "rabbit", "queen", "lava"], "type": "FREE_RECALL", "conditions": [24, 800, "v", 12000], "trial": 3, "trial_type": "free-recall", "trial_index": 143, "time_elapsed": 618666, "internal_node_id": "0.0-107.0-0.0"}}, {"uniqueid": "MTK0214:3IGI0VL648RS4H52CP3DX8C046DNO8", "current_trial": 144, "dateTime": 1509550642530, "trialdata": {"rt": 1288, "key_press": 74, "type": "INSTRUCTIONS", "trial_type": "text", "trial_index": 144, "time_elapsed": 621961, "internal_node_id": "0.0-108.0"}}, {"uniqueid": "MTK0214:3IGI0VL648RS4H52CP3DX8C046DNO8", "current_trial": 145, "dateTime": 1509550668539, "trialdata": {"rt": [2747, 6714, 9274, 11754, 16236, 20403, 22844], "responses": ["16", "17", "24", "7", "26", "10", "15"], "num1": [8, 5, 8, 4, 9, 2, 1, 6], "num2": [4, 4, 8, 1, 9, 3, 9, 3], "num3": [4, 8, 8, 2, 8, 5, 5, 4], "type": "DISTRACTOR", "conditions": [24, 1600, "a", 24000], "trial": 4, "trial_type": "math-distractor", "trial_index": 145, "time_elapsed": 647970, "internal_node_id": "0.0-109.0"}}, {"uniqueid": "MTK0214:3IGI0VL648RS4H52CP3DX8C046DNO8", "current_trial": 146, "dateTime": 1509550671545, "trialdata": {"rt": -1, "stimulus": "<p id=\"stim\">10</p>", "key_press": -1, "trial_type": "single-stim", "trial_index": 146, "time_elapsed": 650976, "internal_node_id": "0.0-110.0-0.0"}}, {"uniqueid": "MTK0214:3IGI0VL648RS4H52CP3DX8C046DNO8", "current_trial": 147, "dateTime": 1509550672549, "trialdata": {"rt": -1, "stimulus": "<p id=\"stim\">9</p>", "key_press": -1, "trial_type": "single-stim", "trial_index": 147, "time_elapsed": 651980, "internal_node_id": "0.0-110.0-1.0"}}, {"uniqueid": "MTK0214:3IGI0VL648RS4H52CP3DX8C046DNO8", "current_trial": 148, "dateTime": 1509550673553, "trialdata": {"rt": -1, "stimulus": "<p id=\"stim\">8</p>", "key_press": -1, "trial_type": "single-stim", "trial_index": 148, "time_elapsed": 652984, "internal_node_id": "0.0-110.0-2.0"}}, {"uniqueid": "MTK0214:3IGI0VL648RS4H52CP3DX8C046DNO8", "current_trial": 149, "dateTime": 1509550674558, "trialdata": {"rt": -1, "stimulus": "<p id=\"stim\">7</p>", "key_press": -1, "trial_type": "single-stim", "trial_index": 149, "time_elapsed": 653988, "internal_node_id": "0.0-110.0-3.0"}}, {"uniqueid": "MTK0214:3IGI0VL648RS4H52CP3DX8C046DNO8", "current_trial": 150, "dateTime": 1509550675562, "trialdata": {"rt": -1, "stimulus": "<p id=\"stim\">6</p>", "key_press": -1, "trial_type": "single-stim", "trial_index": 150, "time_elapsed": 654992, "internal_node_id": "0.0-110.0-4.0"}}, {"uniqueid": "MTK0214:3IGI0VL648RS4H52CP3DX8C046DNO8", "current_trial": 151, "dateTime": 1509550676567, "trialdata": {"rt": -1, "stimulus": "<p id=\"stim\">5</p>", "key_press": -1, "trial_type": "single-stim", "trial_index": 151, "time_elapsed": 655998, "internal_node_id": "0.0-110.0-5.0"}}, {"uniqueid": "MTK0214:3IGI0VL648RS4H52CP3DX8C046DNO8", "current_trial": 152, "dateTime": 1509550677573, "trialdata": {"rt": -1, "stimulus": "<p id=\"stim\">4</p>", "key_press": -1, "trial_type": "single-stim", "trial_index": 152, "time_elapsed": 657004, "internal_node_id": "0.0-110.0-6.0"}}, {"uniqueid": "MTK0214:3IGI0VL648RS4H52CP3DX8C046DNO8", "current_trial": 153, "dateTime": 1509550678578, "trialdata": {"rt": -1, "stimulus": "<p id=\"stim\">3</p>", "key_press": -1, "trial_type": "single-stim", "trial_index": 153, "time_elapsed": 658009, "internal_node_id": "0.0-110.0-7.0"}}, {"uniqueid": "MTK0214:3IGI0VL648RS4H52CP3DX8C046DNO8", "current_trial": 154, "dateTime": 1509550679584, "trialdata": {"rt": -1, "stimulus": "<p id=\"stim\">2</p>", "key_press": -1, "trial_type": "single-stim", "trial_index": 154, "time_elapsed": 659014, "internal_node_id": "0.0-110.0-8.0"}}, {"uniqueid": "MTK0214:3IGI0VL648RS4H52CP3DX8C046DNO8", "current_trial": 155, "dateTime": 1509550680589, "trialdata": {"rt": -1, "stimulus": "<p id=\"stim\">1</p>", "key_press": -1, "trial_type": "single-stim", "trial_index": 155, "time_elapsed": 660020, "internal_node_id": "0.0-110.0-9.0"}}, {"uniqueid": "MTK0214:3IGI0VL648RS4H52CP3DX8C046DNO8", "current_trial": 156, "dateTime": 1509550682091, "trialdata": {"rt": -1, "stimulus": "<p id=\"stim\">+</p>", "key_press": -1, "type": "FIXATION", "trial_type": "single-stim", "trial_index": 156, "time_elapsed": 661522, "internal_node_id": "0.0-111.0-0.0"}}, {"uniqueid": "MTK0214:3IGI0VL648RS4H52CP3DX8C046DNO8", "current_trial": 157, "dateTime": 1509550684851, "trialdata": {"rt": -1000, "stimulus": "/static/audio/wordpool/TURTLE.wav", "key_press": -1, "type": "PRES_AUD", "word": "turtle", "wordID": 1521, "conditions": [24, 1600, "a", 24000], "trial": 4, "serialpos": 0, "trial_type": "single-audio", "trial_index": 157, "time_elapsed": 664282, "internal_node_id": "0.0-112.0"}}, {"uniqueid": "MTK0214:3IGI0VL648RS4H52CP3DX8C046DNO8", "current_trial": 158, "dateTime": 1509550687579, "trialdata": {"rt": -1000, "stimulus": "/static/audio/wordpool/UMPIRE.wav", "key_press": -1, "type": "PRES_AUD", "word": "umpire", "wordID": 1534, "conditions": [24, 1600, "a", 24000], "trial": 4, "serialpos": 1, "trial_type": "single-audio", "trial_index": 158, "time_elapsed": 667010, "internal_node_id": "0.0-113.0"}}, {"uniqueid": "MTK0214:3IGI0VL648RS4H52CP3DX8C046DNO8", "current_trial": 159, "dateTime": 1509550690110, "trialdata": {"rt": -1000, "stimulus": "/static/audio/wordpool/RAZOR.wav", "key_press": -1, "type": "PRES_AUD", "word": "razor", "wordID": 1170, "conditions": [24, 1600, "a", 24000], "trial": 4, "serialpos": 2, "trial_type": "single-audio", "trial_index": 159, "time_elapsed": 669540, "internal_node_id": "0.0-114.0"}}, {"uniqueid": "MTK0214:3IGI0VL648RS4H52CP3DX8C046DNO8", "current_trial": 160, "dateTime": 1509550692850, "trialdata": {"rt": -1000, "stimulus": "/static/audio/wordpool/SHORTCAKE.wav", "key_press": -1, "type": "PRES_AUD", "word": "shortcake", "wordID": 1291, "conditions": [24, 1600, "a", 24000], "trial": 4, "serialpos": 3, "trial_type": "single-audio", "trial_index": 160, "time_elapsed": 672281, "internal_node_id": "0.0-115.0"}}, {"uniqueid": "MTK0214:3IGI0VL648RS4H52CP3DX8C046DNO8", "current_trial": 161, "dateTime": 1509550695319, "trialdata": {"rt": -1000, "stimulus": "/static/audio/wordpool/CANYON.wav", "key_press": -1, "type": "PRES_AUD", "word": "canyon", "wordID": 234, "conditions": [24, 1600, "a", 24000], "trial": 4, "serialpos": 4, "trial_type": "single-audio", "trial_index": 161, "time_elapsed": 674750, "internal_node_id": "0.0-116.0"}}, {"uniqueid": "MTK0214:3IGI0VL648RS4H52CP3DX8C046DNO8", "current_trial": 162, "dateTime": 1509550697795, "trialdata": {"rt": -1000, "stimulus": "/static/audio/wordpool/LAGOON.wav", "key_press": -1, "type": "PRES_AUD", "word": "lagoon", "wordID": 794, "conditions": [24, 1600, "a", 24000], "trial": 4, "serialpos": 5, "trial_type": "single-audio", "trial_index": 162, "time_elapsed": 677226, "internal_node_id": "0.0-117.0"}}, {"uniqueid": "MTK0214:3IGI0VL648RS4H52CP3DX8C046DNO8", "current_trial": 163, "dateTime": 1509550700301, "trialdata": {"rt": -1000, "stimulus": "/static/audio/wordpool/WIFE.wav", "key_press": -1, "type": "PRES_AUD", "word": "wife", "wordID": 1608, "conditions": [24, 1600, "a", 24000], "trial": 4, "serialpos": 6, "trial_type": "single-audio", "trial_index": 163, "time_elapsed": 679732, "internal_node_id": "0.0-118.0"}}, {"uniqueid": "MTK0214:3IGI0VL648RS4H52CP3DX8C046DNO8", "current_trial": 164, "dateTime": 1509550702852, "trialdata": {"rt": -1000, "stimulus": "/static/audio/wordpool/SADDLE.wav", "key_press": -1, "type": "PRES_AUD", "word": "saddle", "wordID": 1220, "conditions": [24, 1600, "a", 24000], "trial": 4, "serialpos": 7, "trial_type": "single-audio", "trial_index": 164, "time_elapsed": 682282, "internal_node_id": "0.0-119.0"}}, {"uniqueid": "MTK0214:3IGI0VL648RS4H52CP3DX8C046DNO8", "current_trial": 165, "dateTime": 1509550705551, "trialdata": {"rt": -1000, "stimulus": "/static/audio/wordpool/BISON.wav", "key_press": -1, "type": "PRES_AUD", "word": "bison", "wordID": 130, "conditions": [24, 1600, "a", 24000], "trial": 4, "serialpos": 8, "trial_type": "single-audio", "trial_index": 165, "time_elapsed": 684982, "internal_node_id": "0.0-120.0"}}, {"uniqueid": "MTK0214:3IGI0VL648RS4H52CP3DX8C046DNO8", "current_trial": 166, "dateTime": 1509550708267, "trialdata": {"rt": -1000, "stimulus": "/static/audio/wordpool/CATTLE.wav", "key_press": -1, "type": "PRES_AUD", "word": "cattle", "wordID": 260, "conditions": [24, 1600, "a", 24000], "trial": 4, "serialpos": 9, "trial_type": "single-audio", "trial_index": 166, "time_elapsed": 687698, "internal_node_id": "0.0-121.0"}}, {"uniqueid": "MTK0214:3IGI0VL648RS4H52CP3DX8C046DNO8", "current_trial": 167, "dateTime": 1509550710868, "trialdata": {"rt": -1000, "stimulus": "/static/audio/wordpool/TOURIST.wav", "key_press": -1, "type": "PRES_AUD", "word": "tourist", "wordID": 1487, "conditions": [24, 1600, "a", 24000], "trial": 4, "serialpos": 10, "trial_type": "single-audio", "trial_index": 167, "time_elapsed": 690299, "internal_node_id": "0.0-122.0"}}, {"uniqueid": "MTK0214:3IGI0VL648RS4H52CP3DX8C046DNO8", "current_trial": 168, "dateTime": 1509550713509, "trialdata": {"rt": -1000, "stimulus": "/static/audio/wordpool/SPOUSE.wav", "key_press": -1, "type": "PRES_AUD", "word": "spouse", "wordID": 1357, "conditions": [24, 1600, "a", 24000], "trial": 4, "serialpos": 11, "trial_type": "single-audio", "trial_index": 168, "time_elapsed": 692940, "internal_node_id": "0.0-123.0"}}, {"uniqueid": "MTK0214:3IGI0VL648RS4H52CP3DX8C046DNO8", "current_trial": 169, "dateTime": 1509550716144, "trialdata": {"rt": -1000, "stimulus": "/static/audio/wordpool/BUNNY.wav", "key_press": -1, "type": "PRES_AUD", "word": "bunny", "wordID": 197, "conditions": [24, 1600, "a", 24000], "trial": 4, "serialpos": 12, "trial_type": "single-audio", "trial_index": 169, "time_elapsed": 695575, "internal_node_id": "0.0-124.0"}}, {"uniqueid": "MTK0214:3IGI0VL648RS4H52CP3DX8C046DNO8", "current_trial": 170, "dateTime": 1509550718861, "trialdata": {"rt": -1000, "stimulus": "/static/audio/wordpool/BRACES.wav", "key_press": -1, "type": "PRES_AUD", "word": "braces", "wordID": 163, "conditions": [24, 1600, "a", 24000], "trial": 4, "serialpos": 13, "trial_type": "single-audio", "trial_index": 170, "time_elapsed": 698292, "internal_node_id": "0.0-125.0"}}, {"uniqueid": "MTK0214:3IGI0VL648RS4H52CP3DX8C046DNO8", "current_trial": 171, "dateTime": 1509550721415, "trialdata": {"rt": -1000, "stimulus": "/static/audio/wordpool/NAPKIN.wav", "key_press": -1, "type": "PRES_AUD", "word": "napkin", "wordID": 936, "conditions": [24, 1600, "a", 24000], "trial": 4, "serialpos": 14, "trial_type": "single-audio", "trial_index": 171, "time_elapsed": 700846, "internal_node_id": "0.0-126.0"}}, {"uniqueid": "MTK0214:3IGI0VL648RS4H52CP3DX8C046DNO8", "current_trial": 172, "dateTime": 1509550724026, "trialdata": {"rt": -1000, "stimulus": "/static/audio/wordpool/PUPPY.wav", "key_press": -1, "type": "PRES_AUD", "word": "puppy", "wordID": 1143, "conditions": [24, 1600, "a", 24000], "trial": 4, "serialpos": 15, "trial_type": "single-audio", "trial_index": 172, "time_elapsed": 703456, "internal_node_id": "0.0-127.0"}}, {"uniqueid": "MTK0214:3IGI0VL648RS4H52CP3DX8C046DNO8", "current_trial": 173, "dateTime": 1509550726773, "trialdata": {"rt": -1000, "stimulus": "/static/audio/wordpool/PISTOL.wav", "key_press": -1, "type": "PRES_AUD", "word": "pistol", "wordID": 1074, "conditions": [24, 1600, "a", 24000], "trial": 4, "serialpos": 16, "trial_type": "single-audio", "trial_index": 173, "time_elapsed": 706204, "internal_node_id": "0.0-128.0"}}, {"uniqueid": "MTK0214:3IGI0VL648RS4H52CP3DX8C046DNO8", "current_trial": 174, "dateTime": 1509550729386, "trialdata": {"rt": -1000, "stimulus": "/static/audio/wordpool/POCKET.wav", "key_press": -1, "type": "PRES_AUD", "word": "pocket", "wordID": 1092, "conditions": [24, 1600, "a", 24000], "trial": 4, "serialpos": 17, "trial_type": "single-audio", "trial_index": 174, "time_elapsed": 708816, "internal_node_id": "0.0-129.0"}}, {"uniqueid": "MTK0214:3IGI0VL648RS4H52CP3DX8C046DNO8", "current_trial": 175, "dateTime": 1509550732137, "trialdata": {"rt": -1000, "stimulus": "/static/audio/wordpool/CITRUS.wav", "key_press": -1, "type": "PRES_AUD", "word": "citrus", "wordID": 312, "conditions": [24, 1600, "a", 24000], "trial": 4, "serialpos": 18, "trial_type": "single-audio", "trial_index": 175, "time_elapsed": 711568, "internal_node_id": "0.0-130.0"}}, {"uniqueid": "MTK0214:3IGI0VL648RS4H52CP3DX8C046DNO8", "current_trial": 176, "dateTime": 1509550734889, "trialdata": {"rt": -1000, "stimulus": "/static/audio/wordpool/PEANUT.wav", "key_press": -1, "type": "PRES_AUD", "word": "peanut", "wordID": 1031, "conditions": [24, 1600, "a", 24000], "trial": 4, "serialpos": 19, "trial_type": "single-audio", "trial_index": 176, "time_elapsed": 714320, "internal_node_id": "0.0-131.0"}}, {"uniqueid": "MTK0214:3IGI0VL648RS4H52CP3DX8C046DNO8", "current_trial": 177, "dateTime": 1509550737390, "trialdata": {"rt": -1000, "stimulus": "/static/audio/wordpool/YACHT.wav", "key_press": -1, "type": "PRES_AUD", "word": "yacht", "wordID": 1628, "conditions": [24, 1600, "a", 24000], "trial": 4, "serialpos": 20, "trial_type": "single-audio", "trial_index": 177, "time_elapsed": 716821, "internal_node_id": "0.0-132.0"}}, {"uniqueid": "MTK0214:3IGI0VL648RS4H52CP3DX8C046DNO8", "current_trial": 178, "dateTime": 1509550739935, "trialdata": {"rt": -1000, "stimulus": "/static/audio/wordpool/DRESSER.wav", "key_press": -1, "type": "PRES_AUD", "word": "dresser", "wordID": 495, "conditions": [24, 1600, "a", 24000], "trial": 4, "serialpos": 21, "trial_type": "single-audio", "trial_index": 178, "time_elapsed": 719365, "internal_node_id": "0.0-133.0"}}, {"uniqueid": "MTK0214:3IGI0VL648RS4H52CP3DX8C046DNO8", "current_trial": 179, "dateTime": 1509550742658, "trialdata": {"rt": -1000, "stimulus": "/static/audio/wordpool/BROOK.wav", "key_press": -1, "type": "PRES_AUD", "word": "brook", "wordID": 176, "conditions": [24, 1600, "a", 24000], "trial": 4, "serialpos": 22, "trial_type": "single-audio", "trial_index": 179, "time_elapsed": 722089, "internal_node_id": "0.0-134.0"}}, {"uniqueid": "MTK0214:3IGI0VL648RS4H52CP3DX8C046DNO8", "current_trial": 180, "dateTime": 1509550745430, "trialdata": {"rt": -1000, "stimulus": "/static/audio/wordpool/RIVER.wav", "key_press": -1, "type": "PRES_AUD", "word": "river", "wordID": 1193, "conditions": [24, 1600, "a", 24000], "trial": 4, "serialpos": 23, "trial_type": "single-audio", "trial_index": 180, "time_elapsed": 724861, "internal_node_id": "0.0-135.0"}}, {"uniqueid": "MTK0214:3IGI0VL648RS4H52CP3DX8C046DNO8", "current_trial": 181, "dateTime": 1509550746684, "trialdata": {"rt": -1, "stimulus": "", "key_press": -1, "type": "PRE_RECALL_DELAY", "trial_type": "single-stim", "trial_index": 181, "time_elapsed": 726115, "internal_node_id": "0.0-136.0-0.0"}}, {"uniqueid": "MTK0214:3IGI0VL648RS4H52CP3DX8C046DNO8", "current_trial": 182, "dateTime": 1509550747186, "trialdata": {"rt": -1000, "stimulus": "/static/audio/400Hz.wav", "key_press": -1, "type": "PRE_RECALL_ALERT", "trial_type": "single-audio", "trial_index": 182, "time_elapsed": 726616, "internal_node_id": "0.0-137.0"}}, {"uniqueid": "MTK0214:3IGI0VL648RS4H52CP3DX8C046DNO8", "current_trial": 183, "dateTime": 1509550807192, "trialdata": {"rt": [2832, 5656, 7672, 8768, 11344, 15104, 16080, 20440, 25496, 26384, 30712, 34680, 48227], "recwords": ["peanut", "citrus", "napkin", "bunny", "turtle", "wife", "spouse", "shortcake", "cattle", "bison", "saddle", "brrok", "canyon"], "type": "FREE_RECALL", "conditions": [24, 1600, "a", 24000], "trial": 4, "trial_type": "free-recall", "trial_index": 183, "time_elapsed": 786621, "internal_node_id": "0.0-138.0-0.0"}}, {"uniqueid": "MTK0214:3IGI0VL648RS4H52CP3DX8C046DNO8", "current_trial": 184, "dateTime": 1509550810580, "trialdata": {"rt": 1382, "key_press": 74, "type": "INSTRUCTIONS", "trial_type": "text", "trial_index": 184, "time_elapsed": 790010, "internal_node_id": "0.0-139.0"}}, {"uniqueid": "MTK0214:3IGI0VL648RS4H52CP3DX8C046DNO8", "current_trial": 185, "dateTime": 1509550836587, "trialdata": {"rt": [3360, 5144, 10808, 12976, 18604, 19971, 21739], "responses": ["20", "6", "18", "12", "18", "12", "10"], "num1": [8, 3, 7, 1, 7, 8, 8, 7], "num2": [6, 2, 5, 4, 5, 2, 1, 9], "num3": [6, 1, 6, 7, 6, 2, 1, 3], "type": "DISTRACTOR", "conditions": [24, 800, "v", 24000], "trial": 5, "trial_type": "math-distractor", "trial_index": 185, "time_elapsed": 816018, "internal_node_id": "0.0-140.0"}}, {"uniqueid": "MTK0214:3IGI0VL648RS4H52CP3DX8C046DNO8", "current_trial": 186, "dateTime": 1509550839593, "trialdata": {"rt": -1, "stimulus": "<p id=\"stim\">10</p>", "key_press": -1, "trial_type": "single-stim", "trial_index": 186, "time_elapsed": 819024, "internal_node_id": "0.0-141.0-0.0"}}, {"uniqueid": "MTK0214:3IGI0VL648RS4H52CP3DX8C046DNO8", "current_trial": 187, "dateTime": 1509550840597, "trialdata": {"rt": -1, "stimulus": "<p id=\"stim\">9</p>", "key_press": -1, "trial_type": "single-stim", "trial_index": 187, "time_elapsed": 820028, "internal_node_id": "0.0-141.0-1.0"}}, {"uniqueid": "MTK0214:3IGI0VL648RS4H52CP3DX8C046DNO8", "current_trial": 188, "dateTime": 1509550841601, "trialdata": {"rt": -1, "stimulus": "<p id=\"stim\">8</p>", "key_press": -1, "trial_type": "single-stim", "trial_index": 188, "time_elapsed": 821032, "internal_node_id": "0.0-141.0-2.0"}}, {"uniqueid": "MTK0214:3IGI0VL648RS4H52CP3DX8C046DNO8", "current_trial": 189, "dateTime": 1509550842605, "trialdata": {"rt": -1, "stimulus": "<p id=\"stim\">7</p>", "key_press": -1, "trial_type": "single-stim", "trial_index": 189, "time_elapsed": 822036, "internal_node_id": "0.0-141.0-3.0"}}, {"uniqueid": "MTK0214:3IGI0VL648RS4H52CP3DX8C046DNO8", "current_trial": 190, "dateTime": 1509550843609, "trialdata": {"rt": -1, "stimulus": "<p id=\"stim\">6</p>", "key_press": -1, "trial_type": "single-stim", "trial_index": 190, "time_elapsed": 823040, "internal_node_id": "0.0-141.0-4.0"}}, {"uniqueid": "MTK0214:3IGI0VL648RS4H52CP3DX8C046DNO8", "current_trial": 191, "dateTime": 1509550844613, "trialdata": {"rt": -1, "stimulus": "<p id=\"stim\">5</p>", "key_press": -1, "trial_type": "single-stim", "trial_index": 191, "time_elapsed": 824044, "internal_node_id": "0.0-141.0-5.0"}}, {"uniqueid": "MTK0214:3IGI0VL648RS4H52CP3DX8C046DNO8", "current_trial": 192, "dateTime": 1509550845617, "trialdata": {"rt": -1, "stimulus": "<p id=\"stim\">4</p>", "key_press": -1, "trial_type": "single-stim", "trial_index": 192, "time_elapsed": 825048, "internal_node_id": "0.0-141.0-6.0"}}, {"uniqueid": "MTK0214:3IGI0VL648RS4H52CP3DX8C046DNO8", "current_trial": 193, "dateTime": 1509550846621, "trialdata": {"rt": -1, "stimulus": "<p id=\"stim\">3</p>", "key_press": -1, "trial_type": "single-stim", "trial_index": 193, "time_elapsed": 826052, "internal_node_id": "0.0-141.0-7.0"}}, {"uniqueid": "MTK0214:3IGI0VL648RS4H52CP3DX8C046DNO8", "current_trial": 194, "dateTime": 1509550847626, "trialdata": {"rt": -1, "stimulus": "<p id=\"stim\">2</p>", "key_press": -1, "trial_type": "single-stim", "trial_index": 194, "time_elapsed": 827056, "internal_node_id": "0.0-141.0-8.0"}}, {"uniqueid": "MTK0214:3IGI0VL648RS4H52CP3DX8C046DNO8", "current_trial": 195, "dateTime": 1509550848629, "trialdata": {"rt": -1, "stimulus": "<p id=\"stim\">1</p>", "key_press": -1, "trial_type": "single-stim", "trial_index": 195, "time_elapsed": 828060, "internal_node_id": "0.0-141.0-9.0"}}, {"uniqueid": "MTK0214:3IGI0VL648RS4H52CP3DX8C046DNO8", "current_trial": 196, "dateTime": 1509550850133, "trialdata": {"rt": -1, "stimulus": "<p id=\"stim\">+</p>", "key_press": -1, "type": "FIXATION", "trial_type": "single-stim", "trial_index": 196, "time_elapsed": 829563, "internal_node_id": "0.0-142.0-0.0"}}, {"uniqueid": "MTK0214:3IGI0VL648RS4H52CP3DX8C046DNO8", "current_trial": 197, "dateTime": 1509550850934, "trialdata": {"rt": -1, "stimulus": "<p id=\"stim\">TUBA</p>", "key_press": -1, "type": "PRES_VIS", "word": "tuba", "wordID": 1514, "conditions": [24, 800, "v", 24000], "trial": 5, "serialpos": 0, "trial_type": "single-stim", "trial_index": 197, "time_elapsed": 830364, "internal_node_id": "0.0-143.0"}}, {"uniqueid": "MTK0214:3IGI0VL648RS4H52CP3DX8C046DNO8", "current_trial": 198, "dateTime": 1509550852803, "trialdata": {"rt": -1, "stimulus": "<p id=\"stim\">OFFICE</p>", "key_press": -1, "type": "PRES_VIS", "word": "office", "wordID": 971, "conditions": [24, 800, "v", 24000], "trial": 5, "serialpos": 1, "trial_type": "single-stim", "trial_index": 198, "time_elapsed": 832233, "internal_node_id": "0.0-144.0"}}, {"uniqueid": "MTK0214:3IGI0VL648RS4H52CP3DX8C046DNO8", "current_trial": 199, "dateTime": 1509550854735, "trialdata": {"rt": -1, "stimulus": "<p id=\"stim\">TWEEZERS</p>", "key_press": -1, "type": "PRES_VIS", "word": "tweezers", "wordID": 1525, "conditions": [24, 800, "v", 24000], "trial": 5, "serialpos": 2, "trial_type": "single-stim", "trial_index": 199, "time_elapsed": 834166, "internal_node_id": "0.0-145.0"}}, {"uniqueid": "MTK0214:3IGI0VL648RS4H52CP3DX8C046DNO8", "current_trial": 200, "dateTime": 1509550856502, "trialdata": {"rt": -1, "stimulus": "<p id=\"stim\">PARSLEY</p>", "key_press": -1, "type": "PRES_VIS", "word": "parsley", "wordID": 1015, "conditions": [24, 800, "v", 24000], "trial": 5, "serialpos": 3, "trial_type": "single-stim", "trial_index": 200, "time_elapsed": 835933, "internal_node_id": "0.0-146.0"}}, {"uniqueid": "MTK0214:3IGI0VL648RS4H52CP3DX8C046DNO8", "current_trial": 201, "dateTime": 1509550858351, "trialdata": {"rt": -1, "stimulus": "<p id=\"stim\">THIEF</p>", "key_press": -1, "type": "PRES_VIS", "word": "thief", "wordID": 1455, "conditions": [24, 800, "v", 24000], "trial": 5, "serialpos": 4, "trial_type": "single-stim", "trial_index": 201, "time_elapsed": 837782, "internal_node_id": "0.0-147.0"}}, {"uniqueid": "MTK0214:3IGI0VL648RS4H52CP3DX8C046DNO8", "current_trial": 202, "dateTime": 1509550860252, "trialdata": {"rt": -1, "stimulus": "<p id=\"stim\">KLEENEX</p>", "key_press": -1, "type": "PRES_VIS", "word": "kleenex", "wordID": 781, "conditions": [24, 800, "v", 24000], "trial": 5, "serialpos": 5, "trial_type": "single-stim", "trial_index": 202, "time_elapsed": 839683, "internal_node_id": "0.0-148.0"}}, {"uniqueid": "MTK0214:3IGI0VL648RS4H52CP3DX8C046DNO8", "current_trial": 203, "dateTime": 1509550861857, "trialdata": {"rt": -1, "stimulus": "<p id=\"stim\">PICTURE</p>", "key_press": -1, "type": "PRES_VIS", "word": "picture", "wordID": 1060, "conditions": [24, 800, "v", 24000], "trial": 5, "serialpos": 6, "trial_type": "single-stim", "trial_index": 203, "time_elapsed": 841288, "internal_node_id": "0.0-149.0"}}, {"uniqueid": "MTK0214:3IGI0VL648RS4H52CP3DX8C046DNO8", "current_trial": 204, "dateTime": 1509550863504, "trialdata": {"rt": -1, "stimulus": "<p id=\"stim\">HARP</p>", "key_press": -1, "type": "PRES_VIS", "word": "harp", "wordID": 688, "conditions": [24, 800, "v", 24000], "trial": 5, "serialpos": 7, "trial_type": "single-stim", "trial_index": 204, "time_elapsed": 842934, "internal_node_id": "0.0-150.0"}}, {"uniqueid": "MTK0214:3IGI0VL648RS4H52CP3DX8C046DNO8", "current_trial": 205, "dateTime": 1509550865380, "trialdata": {"rt": -1, "stimulus": "<p id=\"stim\">SCALPEL</p>", "key_press": -1, "type": "PRES_VIS", "word": "scalpel", "wordID": 1242, "conditions": [24, 800, "v", 24000], "trial": 5, "serialpos": 8, "trial_type": "single-stim", "trial_index": 205, "time_elapsed": 844810, "internal_node_id": "0.0-151.0"}}, {"uniqueid": "MTK0214:3IGI0VL648RS4H52CP3DX8C046DNO8", "current_trial": 206, "dateTime": 1509550867260, "trialdata": {"rt": -1, "stimulus": "<p id=\"stim\">SIBLING</p>", "key_press": -1, "type": "PRES_VIS", "word": "sibling", "wordID": 1300, "conditions": [24, 800, "v", 24000], "trial": 5, "serialpos": 9, "trial_type": "single-stim", "trial_index": 206, "time_elapsed": 846691, "internal_node_id": "0.0-152.0"}}, {"uniqueid": "MTK0214:3IGI0VL648RS4H52CP3DX8C046DNO8", "current_trial": 207, "dateTime": 1509550869106, "trialdata": {"rt": -1, "stimulus": "<p id=\"stim\">COUSIN</p>", "key_press": -1, "type": "PRES_VIS", "word": "cousin", "wordID": 391, "conditions": [24, 800, "v", 24000], "trial": 5, "serialpos": 10, "trial_type": "single-stim", "trial_index": 207, "time_elapsed": 848536, "internal_node_id": "0.0-153.0"}}, {"uniqueid": "MTK0214:3IGI0VL648RS4H52CP3DX8C046DNO8", "current_trial": 208, "dateTime": 1509550870904, "trialdata": {"rt": -1, "stimulus": "<p id=\"stim\">PIANO</p>", "key_press": -1, "type": "PRES_VIS", "word": "piano", "wordID": 1056, "conditions": [24, 800, "v", 24000], "trial": 5, "serialpos": 11, "trial_type": "single-stim", "trial_index": 208, "time_elapsed": 850334, "internal_node_id": "0.0-154.0"}}, {"uniqueid": "MTK0214:3IGI0VL648RS4H52CP3DX8C046DNO8", "current_trial": 209, "dateTime": 1509550872692, "trialdata": {"rt": -1, "stimulus": "<p id=\"stim\">ROD</p>", "key_press": -1, "type": "PRES_VIS", "word": "rod", "wordID": 1202, "conditions": [24, 800, "v", 24000], "trial": 5, "serialpos": 12, "trial_type": "single-stim", "trial_index": 209, "time_elapsed": 852123, "internal_node_id": "0.0-155.0"}}, {"uniqueid": "MTK0214:3IGI0VL648RS4H52CP3DX8C046DNO8", "current_trial": 210, "dateTime": 1509550874539, "trialdata": {"rt": -1, "stimulus": "<p id=\"stim\">GYMNAST</p>", "key_press": -1, "type": "PRES_VIS", "word": "gymnast", "wordID": 674, "conditions": [24, 800, "v", 24000], "trial": 5, "serialpos": 13, "trial_type": "single-stim", "trial_index": 210, "time_elapsed": 853970, "internal_node_id": "0.0-156.0"}}, {"uniqueid": "MTK0214:3IGI0VL648RS4H52CP3DX8C046DNO8", "current_trial": 211, "dateTime": 1509550876525, "trialdata": {"rt": -1, "stimulus": "<p id=\"stim\">BARREL</p>", "key_press": -1, "type": "PRES_VIS", "word": "barrel", "wordID": 90, "conditions": [24, 800, "v", 24000], "trial": 5, "serialpos": 14, "trial_type": "single-stim", "trial_index": 211, "time_elapsed": 855956, "internal_node_id": "0.0-157.0"}}, {"uniqueid": "MTK0214:3IGI0VL648RS4H52CP3DX8C046DNO8", "current_trial": 212, "dateTime": 1509550878485, "trialdata": {"rt": -1, "stimulus": "<p id=\"stim\">RIFLE</p>", "key_press": -1, "type": "PRES_VIS", "word": "rifle", "wordID": 1191, "conditions": [24, 800, "v", 24000], "trial": 5, "serialpos": 15, "trial_type": "single-stim", "trial_index": 212, "time_elapsed": 857916, "internal_node_id": "0.0-158.0"}}, {"uniqueid": "MTK0214:3IGI0VL648RS4H52CP3DX8C046DNO8", "current_trial": 213, "dateTime": 1509550880290, "trialdata": {"rt": -1, "stimulus": "<p id=\"stim\">CASKET</p>", "key_press": -1, "type": "PRES_VIS", "word": "casket", "wordID": 254, "conditions": [24, 800, "v", 24000], "trial": 5, "serialpos": 16, "trial_type": "single-stim", "trial_index": 213, "time_elapsed": 859720, "internal_node_id": "0.0-159.0"}}, {"uniqueid": "MTK0214:3IGI0VL648RS4H52CP3DX8C046DNO8", "current_trial": 214, "dateTime": 1509550882007, "trialdata": {"rt": -1, "stimulus": "<p id=\"stim\">DANDRUFF</p>", "key_press": -1, "type": "PRES_VIS", "word": "dandruff", "wordID": 438, "conditions": [24, 800, "v", 24000], "trial": 5, "serialpos": 17, "trial_type": "single-stim", "trial_index": 214, "time_elapsed": 861438, "internal_node_id": "0.0-160.0"}}, {"uniqueid": "MTK0214:3IGI0VL648RS4H52CP3DX8C046DNO8", "current_trial": 215, "dateTime": 1509550883714, "trialdata": {"rt": -1, "stimulus": "<p id=\"stim\">ROOSTER</p>", "key_press": -1, "type": "PRES_VIS", "word": "rooster", "wordID": 1208, "conditions": [24, 800, "v", 24000], "trial": 5, "serialpos": 18, "trial_type": "single-stim", "trial_index": 215, "time_elapsed": 863145, "internal_node_id": "0.0-161.0"}}, {"uniqueid": "MTK0214:3IGI0VL648RS4H52CP3DX8C046DNO8", "current_trial": 216, "dateTime": 1509550885349, "trialdata": {"rt": -1, "stimulus": "<p id=\"stim\">MUSTARD</p>", "key_press": -1, "type": "PRES_VIS", "word": "mustard", "wordID": 934, "conditions": [24, 800, "v", 24000], "trial": 5, "serialpos": 19, "trial_type": "single-stim", "trial_index": 216, "time_elapsed": 864780, "internal_node_id": "0.0-162.0"}}, {"uniqueid": "MTK0214:3IGI0VL648RS4H52CP3DX8C046DNO8", "current_trial": 217, "dateTime": 1509550886993, "trialdata": {"rt": -1, "stimulus": "<p id=\"stim\">HOOD</p>", "key_press": -1, "type": "PRES_VIS", "word": "hood", "wordID": 713, "conditions": [24, 800, "v", 24000], "trial": 5, "serialpos": 20, "trial_type": "single-stim", "trial_index": 217, "time_elapsed": 866424, "internal_node_id": "0.0-163.0"}}, {"uniqueid": "MTK0214:3IGI0VL648RS4H52CP3DX8C046DNO8", "current_trial": 218, "dateTime": 1509550888882, "trialdata": {"rt": -1, "stimulus": "<p id=\"stim\">LUGGAGE</p>", "key_press": -1, "type": "PRES_VIS", "word": "luggage", "wordID": 846, "conditions": [24, 800, "v", 24000], "trial": 5, "serialpos": 21, "trial_type": "single-stim", "trial_index": 218, "time_elapsed": 868313, "internal_node_id": "0.0-164.0"}}, {"uniqueid": "MTK0214:3IGI0VL648RS4H52CP3DX8C046DNO8", "current_trial": 219, "dateTime": 1509550890818, "trialdata": {"rt": -1, "stimulus": "<p id=\"stim\">SUITCASE</p>", "key_press": -1, "type": "PRES_VIS", "word": "suitcase", "wordID": 1402, "conditions": [24, 800, "v", 24000], "trial": 5, "serialpos": 22, "trial_type": "single-stim", "trial_index": 219, "time_elapsed": 870249, "internal_node_id": "0.0-165.0"}}, {"uniqueid": "MTK0214:3IGI0VL648RS4H52CP3DX8C046DNO8", "current_trial": 220, "dateTime": 1509550892431, "trialdata": {"rt": -1, "stimulus": "<p id=\"stim\">DANCER</p>", "key_press": -1, "type": "PRES_VIS", "word": "dancer", "wordID": 436, "conditions": [24, 800, "v", 24000], "trial": 5, "serialpos": 23, "trial_type": "single-stim", "trial_index": 220, "time_elapsed": 871862, "internal_node_id": "0.0-166.0"}}, {"uniqueid": "MTK0214:3IGI0VL648RS4H52CP3DX8C046DNO8", "current_trial": 221, "dateTime": 1509550894950, "trialdata": {"rt": -1, "stimulus": "", "key_press": -1, "type": "PRE_RECALL_DELAY", "trial_type": "single-stim", "trial_index": 221, "time_elapsed": 874381, "internal_node_id": "0.0-167.0-0.0"}}, {"uniqueid": "MTK0214:3IGI0VL648RS4H52CP3DX8C046DNO8", "current_trial": 222, "dateTime": 1509550895452, "trialdata": {"rt": -1000, "stimulus": "/static/audio/400Hz.wav", "key_press": -1, "type": "PRE_RECALL_ALERT", "trial_type": "single-audio", "trial_index": 222, "time_elapsed": 874882, "internal_node_id": "0.0-168.0"}}, {"uniqueid": "MTK0214:3IGI0VL648RS4H52CP3DX8C046DNO8", "current_trial": 223, "dateTime": 1509550955456, "trialdata": {"rt": [1831, 3192, 5615, 7176, 14405, 19284, 20012, 22668, 24772, 32636, 53482], "recwords": ["tuba", "piano", "gymnast", "cousin", "sibling", "mustard", "hood", "harp", "dancer", "parsley", "office"], "type": "FREE_RECALL", "conditions": [24, 800, "v", 24000], "trial": 5, "trial_type": "free-recall", "trial_index": 223, "time_elapsed": 934884, "internal_node_id": "0.0-169.0-0.0"}}, {"uniqueid": "MTK0214:3IGI0VL648RS4H52CP3DX8C046DNO8", "current_trial": 224, "dateTime": 1509550958516, "trialdata": {"rt": 1056, "key_press": 74, "type": "INSTRUCTIONS", "trial_type": "text", "trial_index": 224, "time_elapsed": 937947, "internal_node_id": "0.0-170.0"}}, {"uniqueid": "MTK0214:3IGI0VL648RS4H52CP3DX8C046DNO8", "current_trial": 225, "dateTime": 1509550984524, "trialdata": {"rt": [1681, 5978, 10693, 14757, 16830, 19653, 22565], "responses": ["6", "18", "19", "15", "15", "12", "20"], "num1": [4, 3, 7, 9, 7, 7, 8, 6], "num2": [1, 6, 4, 4, 5, 4, 6, 7], "num3": [1, 9, 8, 2, 3, 1, 6, 2], "type": "DISTRACTOR", "conditions": [24, 1600, "v", 24000], "trial": 6, "trial_type": "math-distractor", "trial_index": 225, "time_elapsed": 963955, "internal_node_id": "0.0-171.0"}}, {"uniqueid": "MTK0214:3IGI0VL648RS4H52CP3DX8C046DNO8", "current_trial": 226, "dateTime": 1509550987531, "trialdata": {"rt": -1, "stimulus": "<p id=\"stim\">10</p>", "key_press": -1, "trial_type": "single-stim", "trial_index": 226, "time_elapsed": 966961, "internal_node_id": "0.0-172.0-0.0"}}, {"uniqueid": "MTK0214:3IGI0VL648RS4H52CP3DX8C046DNO8", "current_trial": 227, "dateTime": 1509550988536, "trialdata": {"rt": -1, "stimulus": "<p id=\"stim\">9</p>", "key_press": -1, "trial_type": "single-stim", "trial_index": 227, "time_elapsed": 967967, "internal_node_id": "0.0-172.0-1.0"}}, {"uniqueid": "MTK0214:3IGI0VL648RS4H52CP3DX8C046DNO8", "current_trial": 228, "dateTime": 1509550989542, "trialdata": {"rt": -1, "stimulus": "<p id=\"stim\">8</p>", "key_press": -1, "trial_type": "single-stim", "trial_index": 228, "time_elapsed": 968973, "internal_node_id": "0.0-172.0-2.0"}}, {"uniqueid": "MTK0214:3IGI0VL648RS4H52CP3DX8C046DNO8", "current_trial": 229, "dateTime": 1509550990548, "trialdata": {"rt": -1, "stimulus": "<p id=\"stim\">7</p>", "key_press": -1, "trial_type": "single-stim", "trial_index": 229, "time_elapsed": 969979, "internal_node_id": "0.0-172.0-3.0"}}, {"uniqueid": "MTK0214:3IGI0VL648RS4H52CP3DX8C046DNO8", "current_trial": 230, "dateTime": 1509550991553, "trialdata": {"rt": -1, "stimulus": "<p id=\"stim\">6</p>", "key_press": -1, "trial_type": "single-stim", "trial_index": 230, "time_elapsed": 970984, "internal_node_id": "0.0-172.0-4.0"}}, {"uniqueid": "MTK0214:3IGI0VL648RS4H52CP3DX8C046DNO8", "current_trial": 231, "dateTime": 1509550992557, "trialdata": {"rt": -1, "stimulus": "<p id=\"stim\">5</p>", "key_press": -1, "trial_type": "single-stim", "trial_index": 231, "time_elapsed": 971988, "internal_node_id": "0.0-172.0-5.0"}}, {"uniqueid": "MTK0214:3IGI0VL648RS4H52CP3DX8C046DNO8", "current_trial": 232, "dateTime": 1509550993562, "trialdata": {"rt": -1, "stimulus": "<p id=\"stim\">4</p>", "key_press": -1, "trial_type": "single-stim", "trial_index": 232, "time_elapsed": 972993, "internal_node_id": "0.0-172.0-6.0"}}, {"uniqueid": "MTK0214:3IGI0VL648RS4H52CP3DX8C046DNO8", "current_trial": 233, "dateTime": 1509550994568, "trialdata": {"rt": -1, "stimulus": "<p id=\"stim\">3</p>", "key_press": -1, "trial_type": "single-stim", "trial_index": 233, "time_elapsed": 973999, "internal_node_id": "0.0-172.0-7.0"}}, {"uniqueid": "MTK0214:3IGI0VL648RS4H52CP3DX8C046DNO8", "current_trial": 234, "dateTime": 1509550995574, "trialdata": {"rt": -1, "stimulus": "<p id=\"stim\">2</p>", "key_press": -1, "trial_type": "single-stim", "trial_index": 234, "time_elapsed": 975005, "internal_node_id": "0.0-172.0-8.0"}}, {"uniqueid": "MTK0214:3IGI0VL648RS4H52CP3DX8C046DNO8", "current_trial": 235, "dateTime": 1509550996579, "trialdata": {"rt": -1, "stimulus": "<p id=\"stim\">1</p>", "key_press": -1, "trial_type": "single-stim", "trial_index": 235, "time_elapsed": 976010, "internal_node_id": "0.0-172.0-9.0"}}, {"uniqueid": "MTK0214:3IGI0VL648RS4H52CP3DX8C046DNO8", "current_trial": 236, "dateTime": 1509550998082, "trialdata": {"rt": -1, "stimulus": "<p id=\"stim\">+</p>", "key_press": -1, "type": "FIXATION", "trial_type": "single-stim", "trial_index": 236, "time_elapsed": 977512, "internal_node_id": "0.0-173.0-0.0"}}, {"uniqueid": "MTK0214:3IGI0VL648RS4H52CP3DX8C046DNO8", "current_trial": 237, "dateTime": 1509550999684, "trialdata": {"rt": -1, "stimulus": "<p id=\"stim\">ACTOR</p>", "key_press": -1, "type": "PRES_VIS", "word": "actor", "wordID": 4, "conditions": [24, 1600, "v", 24000], "trial": 6, "serialpos": 0, "trial_type": "single-stim", "trial_index": 237, "time_elapsed": 979114, "internal_node_id": "0.0-174.0"}}, {"uniqueid": "MTK0214:3IGI0VL648RS4H52CP3DX8C046DNO8", "current_trial": 238, "dateTime": 1509551002290, "trialdata": {"rt": -1, "stimulus": "<p id=\"stim\">FILM</p>", "key_press": -1, "type": "PRES_VIS", "word": "film", "wordID": 564, "conditions": [24, 1600, "v", 24000], "trial": 6, "serialpos": 1, "trial_type": "single-stim", "trial_index": 238, "time_elapsed": 981721, "internal_node_id": "0.0-175.0"}}, {"uniqueid": "MTK0214:3IGI0VL648RS4H52CP3DX8C046DNO8", "current_trial": 239, "dateTime": 1509551004948, "trialdata": {"rt": -1, "stimulus": "<p id=\"stim\">SPHINX</p>", "key_press": -1, "type": "PRES_VIS", "word": "sphinx", "wordID": 1348, "conditions": [24, 1600, "v", 24000], "trial": 6, "serialpos": 2, "trial_type": "single-stim", "trial_index": 239, "time_elapsed": 984379, "internal_node_id": "0.0-176.0"}}, {"uniqueid": "MTK0214:3IGI0VL648RS4H52CP3DX8C046DNO8", "current_trial": 240, "dateTime": 1509551007612, "trialdata": {"rt": -1, "stimulus": "<p id=\"stim\">CRUTCH</p>", "key_press": -1, "type": "PRES_VIS", "word": "crutch", "wordID": 416, "conditions": [24, 1600, "v", 24000], "trial": 6, "serialpos": 3, "trial_type": "single-stim", "trial_index": 240, "time_elapsed": 987043, "internal_node_id": "0.0-177.0"}}, {"uniqueid": "MTK0214:3IGI0VL648RS4H52CP3DX8C046DNO8", "current_trial": 241, "dateTime": 1509551010282, "trialdata": {"rt": -1, "stimulus": "<p id=\"stim\">STOVE</p>", "key_press": -1, "type": "PRES_VIS", "word": "stove", "wordID": 1387, "conditions": [24, 1600, "v", 24000], "trial": 6, "serialpos": 4, "trial_type": "single-stim", "trial_index": 241, "time_elapsed": 989713, "internal_node_id": "0.0-178.0"}}, {"uniqueid": "MTK0214:3IGI0VL648RS4H52CP3DX8C046DNO8", "current_trial": 242, "dateTime": 1509551012946, "trialdata": {"rt": -1, "stimulus": "<p id=\"stim\">SWIMMER</p>", "key_press": -1, "type": "PRES_VIS", "word": "swimmer", "wordID": 1419, "conditions": [24, 1600, "v", 24000], "trial": 6, "serialpos": 5, "trial_type": "single-stim", "trial_index": 242, "time_elapsed": 992377, "internal_node_id": "0.0-179.0"}}, {"uniqueid": "MTK0214:3IGI0VL648RS4H52CP3DX8C046DNO8", "current_trial": 243, "dateTime": 1509551015650, "trialdata": {"rt": -1, "stimulus": "<p id=\"stim\">LIZARD</p>", "key_press": -1, "type": "PRES_VIS", "word": "lizard", "wordID": 833, "conditions": [24, 1600, "v", 24000], "trial": 6, "serialpos": 6, "trial_type": "single-stim", "trial_index": 243, "time_elapsed": 995081, "internal_node_id": "0.0-180.0"}}, {"uniqueid": "MTK0214:3IGI0VL648RS4H52CP3DX8C046DNO8", "current_trial": 244, "dateTime": 1509551018413, "trialdata": {"rt": -1, "stimulus": "<p id=\"stim\">REPORT</p>", "key_press": -1, "type": "PRES_VIS", "word": "report", "wordID": 1183, "conditions": [24, 1600, "v", 24000], "trial": 6, "serialpos": 7, "trial_type": "single-stim", "trial_index": 244, "time_elapsed": 997844, "internal_node_id": "0.0-181.0"}}, {"uniqueid": "MTK0214:3IGI0VL648RS4H52CP3DX8C046DNO8", "current_trial": 245, "dateTime": 1509551021210, "trialdata": {"rt": -1, "stimulus": "<p id=\"stim\">ATOM</p>", "key_press": -1, "type": "PRES_VIS", "word": "atom", "wordID": 54, "conditions": [24, 1600, "v", 24000], "trial": 6, "serialpos": 8, "trial_type": "single-stim", "trial_index": 245, "time_elapsed": 1000641, "internal_node_id": "0.0-182.0"}}, {"uniqueid": "MTK0214:3IGI0VL648RS4H52CP3DX8C046DNO8", "current_trial": 246, "dateTime": 1509551023735, "trialdata": {"rt": -1, "stimulus": "<p id=\"stim\">MISTER</p>", "key_press": -1, "type": "PRES_VIS", "word": "mister", "wordID": 900, "conditions": [24, 1600, "v", 24000], "trial": 6, "serialpos": 9, "trial_type": "single-stim", "trial_index": 246, "time_elapsed": 1003166, "internal_node_id": "0.0-183.0"}}, {"uniqueid": "MTK0214:3IGI0VL648RS4H52CP3DX8C046DNO8", "current_trial": 247, "dateTime": 1509551026533, "trialdata": {"rt": -1, "stimulus": "<p id=\"stim\">BACON</p>", "key_press": -1, "type": "PRES_VIS", "word": "bacon", "wordID": 66, "conditions": [24, 1600, "v", 24000], "trial": 6, "serialpos": 10, "trial_type": "single-stim", "trial_index": 247, "time_elapsed": 1005964, "internal_node_id": "0.0-184.0"}}, {"uniqueid": "MTK0214:3IGI0VL648RS4H52CP3DX8C046DNO8", "current_trial": 248, "dateTime": 1509551029202, "trialdata": {"rt": -1, "stimulus": "<p id=\"stim\">SURVEY</p>", "key_press": -1, "type": "PRES_VIS", "word": "survey", "wordID": 1413, "conditions": [24, 1600, "v", 24000], "trial": 6, "serialpos": 11, "trial_type": "single-stim", "trial_index": 248, "time_elapsed": 1008633, "internal_node_id": "0.0-185.0"}}, {"uniqueid": "MTK0214:3IGI0VL648RS4H52CP3DX8C046DNO8", "current_trial": 249, "dateTime": 1509551031814, "trialdata": {"rt": -1, "stimulus": "<p id=\"stim\">CHIPMUNK</p>", "key_press": -1, "type": "PRES_VIS", "word": "chipmunk", "wordID": 303, "conditions": [24, 1600, "v", 24000], "trial": 6, "serialpos": 12, "trial_type": "single-stim", "trial_index": 249, "time_elapsed": 1011245, "internal_node_id": "0.0-186.0"}}, {"uniqueid": "MTK0214:3IGI0VL648RS4H52CP3DX8C046DNO8", "current_trial": 250, "dateTime": 1509551034548, "trialdata": {"rt": -1, "stimulus": "<p id=\"stim\">BEAVER</p>", "key_press": -1, "type": "PRES_VIS", "word": "beaver", "wordID": 108, "conditions": [24, 1600, "v", 24000], "trial": 6, "serialpos": 13, "trial_type": "single-stim", "trial_index": 250, "time_elapsed": 1013979, "internal_node_id": "0.0-187.0"}}, {"uniqueid": "MTK0214:3IGI0VL648RS4H52CP3DX8C046DNO8", "current_trial": 251, "dateTime": 1509551037267, "trialdata": {"rt": -1, "stimulus": "<p id=\"stim\">OUTDOORS</p>", "key_press": -1, "type": "PRES_VIS", "word": "outdoors", "wordID": 986, "conditions": [24, 1600, "v", 24000], "trial": 6, "serialpos": 14, "trial_type": "single-stim", "trial_index": 251, "time_elapsed": 1016698, "internal_node_id": "0.0-188.0"}}, {"uniqueid": "MTK0214:3IGI0VL648RS4H52CP3DX8C046DNO8", "current_trial": 252, "dateTime": 1509551039702, "trialdata": {"rt": -1, "stimulus": "<p id=\"stim\">BRIEFCASE</p>", "key_press": -1, "type": "PRES_VIS", "word": "briefcase", "wordID": 174, "conditions": [24, 1600, "v", 24000], "trial": 6, "serialpos": 15, "trial_type": "single-stim", "trial_index": 252, "time_elapsed": 1019133, "internal_node_id": "0.0-189.0"}}, {"uniqueid": "MTK0214:3IGI0VL648RS4H52CP3DX8C046DNO8", "current_trial": 253, "dateTime": 1509551042493, "trialdata": {"rt": -1, "stimulus": "<p id=\"stim\">COUNTY</p>", "key_press": -1, "type": "PRES_VIS", "word": "county", "wordID": 388, "conditions": [24, 1600, "v", 24000], "trial": 6, "serialpos": 16, "trial_type": "single-stim", "trial_index": 253, "time_elapsed": 1021924, "internal_node_id": "0.0-190.0"}}, {"uniqueid": "MTK0214:3IGI0VL648RS4H52CP3DX8C046DNO8", "current_trial": 254, "dateTime": 1509551045268, "trialdata": {"rt": -1, "stimulus": "<p id=\"stim\">BEAST</p>", "key_press": -1, "type": "PRES_VIS", "word": "beast", "wordID": 107, "conditions": [24, 1600, "v", 24000], "trial": 6, "serialpos": 17, "trial_type": "single-stim", "trial_index": 254, "time_elapsed": 1024698, "internal_node_id": "0.0-191.0"}}, {"uniqueid": "MTK0214:3IGI0VL648RS4H52CP3DX8C046DNO8", "current_trial": 255, "dateTime": 1509551047752, "trialdata": {"rt": -1, "stimulus": "<p id=\"stim\">LACE</p>", "key_press": -1, "type": "PRES_VIS", "word": "lace", "wordID": 791, "conditions": [24, 1600, "v", 24000], "trial": 6, "serialpos": 18, "trial_type": "single-stim", "trial_index": 255, "time_elapsed": 1027182, "internal_node_id": "0.0-192.0"}}, {"uniqueid": "MTK0214:3IGI0VL648RS4H52CP3DX8C046DNO8", "current_trial": 256, "dateTime": 1509551050276, "trialdata": {"rt": -1, "stimulus": "<p id=\"stim\">ZIPPER</p>", "key_press": -1, "type": "PRES_VIS", "word": "zipper", "wordID": 1635, "conditions": [24, 1600, "v", 24000], "trial": 6, "serialpos": 19, "trial_type": "single-stim", "trial_index": 256, "time_elapsed": 1029707, "internal_node_id": "0.0-193.0"}}, {"uniqueid": "MTK0214:3IGI0VL648RS4H52CP3DX8C046DNO8", "current_trial": 257, "dateTime": 1509551052778, "trialdata": {"rt": -1, "stimulus": "<p id=\"stim\">WASHER</p>", "key_press": -1, "type": "PRES_VIS", "word": "washer", "wordID": 1591, "conditions": [24, 1600, "v", 24000], "trial": 6, "serialpos": 20, "trial_type": "single-stim", "trial_index": 257, "time_elapsed": 1032209, "internal_node_id": "0.0-194.0"}}, {"uniqueid": "MTK0214:3IGI0VL648RS4H52CP3DX8C046DNO8", "current_trial": 258, "dateTime": 1509551055204, "trialdata": {"rt": -1, "stimulus": "<p id=\"stim\">SHERIFF</p>", "key_press": -1, "type": "PRES_VIS", "word": "sheriff", "wordID": 1283, "conditions": [24, 1600, "v", 24000], "trial": 6, "serialpos": 21, "trial_type": "single-stim", "trial_index": 258, "time_elapsed": 1034635, "internal_node_id": "0.0-195.0"}}, {"uniqueid": "MTK0214:3IGI0VL648RS4H52CP3DX8C046DNO8", "current_trial": 259, "dateTime": 1509551057839, "trialdata": {"rt": -1, "stimulus": "<p id=\"stim\">FOOTBALL</p>", "key_press": -1, "type": "PRES_VIS", "word": "football", "wordID": 590, "conditions": [24, 1600, "v", 24000], "trial": 6, "serialpos": 22, "trial_type": "single-stim", "trial_index": 259, "time_elapsed": 1037269, "internal_node_id": "0.0-196.0"}}, {"uniqueid": "MTK0214:3IGI0VL648RS4H52CP3DX8C046DNO8", "current_trial": 260, "dateTime": 1509551060329, "trialdata": {"rt": -1, "stimulus": "<p id=\"stim\">ELBOW</p>", "key_press": -1, "type": "PRES_VIS", "word": "elbow", "wordID": 519, "conditions": [24, 1600, "v", 24000], "trial": 6, "serialpos": 23, "trial_type": "single-stim", "trial_index": 260, "time_elapsed": 1039759, "internal_node_id": "0.0-197.0"}}, {"uniqueid": "MTK0214:3IGI0VL648RS4H52CP3DX8C046DNO8", "current_trial": 261, "dateTime": 1509551062871, "trialdata": {"rt": -1, "stimulus": "", "key_press": -1, "type": "PRE_RECALL_DELAY", "trial_type": "single-stim", "trial_index": 261, "time_elapsed": 1042301, "internal_node_id": "0.0-198.0-0.0"}}, {"uniqueid": "MTK0214:3IGI0VL648RS4H52CP3DX8C046DNO8", "current_trial": 262, "dateTime": 1509551063372, "trialdata": {"rt": -1000, "stimulus": "/static/audio/400Hz.wav", "key_press": -1, "type": "PRE_RECALL_ALERT", "trial_type": "single-audio", "trial_index": 262, "time_elapsed": 1042803, "internal_node_id": "0.0-199.0"}}, {"uniqueid": "MTK0214:3IGI0VL648RS4H52CP3DX8C046DNO8", "current_trial": 263, "dateTime": 1509551123377, "trialdata": {"rt": [2840, 4359, 7199, 9391, 11287, 17407, 18295, 21119, 28310, 48498], "recwords": ["actor", "film", "stove", "beaver", "beast", "chipmunk", "lace", "football", "bacon", "survey"], "type": "FREE_RECALL", "conditions": [24, 1600, "v", 24000], "trial": 6, "trial_type": "free-recall", "trial_index": 263, "time_elapsed": 1102805, "internal_node_id": "0.0-200.0-0.0"}}, {"uniqueid": "MTK0214:3IGI0VL648RS4H52CP3DX8C046DNO8", "current_trial": 264, "dateTime": 1509551125919, "trialdata": {"rt": 536, "key_press": 74, "type": "INSTRUCTIONS", "trial_type": "text", "trial_index": 264, "time_elapsed": 1105350, "internal_node_id": "0.0-201.0"}}, {"uniqueid": "MTK0214:3IGI0VL648RS4H52CP3DX8C046DNO8", "current_trial": 265, "dateTime": 1509551139927, "trialdata": {"rt": [5553, 10529], "responses": ["15", "19"], "num1": [2, 7, 4], "num2": [6, 9, 4], "num3": [7, 5, 2], "type": "DISTRACTOR", "conditions": [12, 800, "v", 12000], "trial": 7, "trial_type": "math-distractor", "trial_index": 265, "time_elapsed": 1119358, "internal_node_id": "0.0-202.0"}}, {"uniqueid": "MTK0214:3IGI0VL648RS4H52CP3DX8C046DNO8", "current_trial": 266, "dateTime": 1509551142932, "trialdata": {"rt": -1, "stimulus": "<p id=\"stim\">10</p>", "key_press": -1, "trial_type": "single-stim", "trial_index": 266, "time_elapsed": 1122363, "internal_node_id": "0.0-203.0-0.0"}}, {"uniqueid": "MTK0214:3IGI0VL648RS4H52CP3DX8C046DNO8", "current_trial": 267, "dateTime": 1509551143936, "trialdata": {"rt": -1, "stimulus": "<p id=\"stim\">9</p>", "key_press": -1, "trial_type": "single-stim", "trial_index": 267, "time_elapsed": 1123367, "internal_node_id": "0.0-203.0-1.0"}}, {"uniqueid": "MTK0214:3IGI0VL648RS4H52CP3DX8C046DNO8", "current_trial": 268, "dateTime": 1509551144940, "trialdata": {"rt": -1, "stimulus": "<p id=\"stim\">8</p>", "key_press": -1, "trial_type": "single-stim", "trial_index": 268, "time_elapsed": 1124371, "internal_node_id": "0.0-203.0-2.0"}}, {"uniqueid": "MTK0214:3IGI0VL648RS4H52CP3DX8C046DNO8", "current_trial": 269, "dateTime": 1509551145945, "trialdata": {"rt": -1, "stimulus": "<p id=\"stim\">7</p>", "key_press": -1, "trial_type": "single-stim", "trial_index": 269, "time_elapsed": 1125375, "internal_node_id": "0.0-203.0-3.0"}}, {"uniqueid": "MTK0214:3IGI0VL648RS4H52CP3DX8C046DNO8", "current_trial": 270, "dateTime": 1509551146949, "trialdata": {"rt": -1, "stimulus": "<p id=\"stim\">6</p>", "key_pres