{"condition": 0, "counterbalance": 64, "assignmentId": "30BUDKLTXE2221M7EB4VYFI0ASJE50", "workerId": "MTK0304", "hitId": "30ZKOOGW2WDY1M6I7HVVAMJ80DF1AH", "currenttrial": 626, "bonus": 0, "data": [{"uniqueid": "MTK0304:30BUDKLTXE2221M7EB4VYFI0ASJE50", "current_trial": 0, "dateTime": 1510701678067, "trialdata": {"rt": 85473, "key_press": 32, "type": "INSTRUCTIONS", "trial_type": "text", "trial_index": 0, "time_elapsed": 85476, "internal_node_id": "0.0-0.0"}}, {"uniqueid": "MTK0304:30BUDKLTXE2221M7EB4VYFI0ASJE50", "current_trial": 1, "dateTime": 1510701846738, "trialdata": {"rt": 168668, "key_press": 32, "type": "INSTRUCTIONS", "trial_type": "text", "trial_index": 1, "time_elapsed": 254146, "internal_node_id": "0.0-1.0"}}, {"uniqueid": "MTK0304:30BUDKLTXE2221M7EB4VYFI0ASJE50", "current_trial": 2, "dateTime": 1510701860157, "trialdata": {"rt": [13406], "responses": ["ocean"], "type": "AUDIO_TEST", "trial_type": "audio-test", "trial_index": 2, "time_elapsed": 267566, "internal_node_id": "0.0-2.0"}}, {"uniqueid": "MTK0304:30BUDKLTXE2221M7EB4VYFI0ASJE50", "current_trial": 3, "dateTime": 1510701868624, "trialdata": {"rt": [8465], "responses": ["crystal"], "type": "AUDIO_TEST", "trial_type": "audio-test", "trial_index": 3, "time_elapsed": 276033, "internal_node_id": "0.0-3.0"}}, {"uniqueid": "MTK0304:30BUDKLTXE2221M7EB4VYFI0ASJE50", "current_trial": 4, "dateTime": 1510701876323, "trialdata": {"rt": [7695], "responses": ["spice"], "type": "AUDIO_TEST", "trial_type": "audio-test", "trial_index": 4, "time_elapsed": 283732, "internal_node_id": "0.0-4.0"}}, {"uniqueid": "MTK0304:30BUDKLTXE2221M7EB4VYFI0ASJE50", "current_trial": 5, "dateTime": 1510701907214, "trialdata": {"rt": 30137, "responses": "{\"Q0\":\"10:30\",\"Q1\":\"6:30\",\"Q2\":\"4\"}", "type": "SLEEP_SURVEY", "trial_type": "survey-text", "trial_index": 5, "time_elapsed": 314623, "internal_node_id": "0.0-5.0"}}, {"uniqueid": "MTK0304:30BUDKLTXE2221M7EB4VYFI0ASJE50", "current_trial": 6, "dateTime": 1510701983037, "trialdata": {"rt": 74821, "key_press": 13, "type": "INSTRUCTIONS", "trial_type": "text", "trial_index": 6, "time_elapsed": 390446, "internal_node_id": "0.0-6.0"}}, {"uniqueid": "MTK0304:30BUDKLTXE2221M7EB4VYFI0ASJE50", "current_trial": 7, "dateTime": 1510701995347, "trialdata": {"rt": 11808, "key_press": 13, "type": "INSTRUCTIONS", "trial_type": "text", "trial_index": 7, "time_elapsed": 402756, "internal_node_id": "0.0-7.0"}}, {"uniqueid": "MTK0304:30BUDKLTXE2221M7EB4VYFI0ASJE50", "current_trial": 8, "dateTime": 1510702002847, "trialdata": {"rt": 6998, "key_press": 13, "type": "INSTRUCTIONS", "trial_type": "text", "trial_index": 8, "time_elapsed": 410255, "internal_node_id": "0.0-8.0"}}, {"uniqueid": "MTK0304:30BUDKLTXE2221M7EB4VYFI0ASJE50", "current_trial": 9, "dateTime": 1510702021857, "trialdata": {"rt": [3832, 9425, 16411], "responses": ["18", "15", "17"], "num1": [2, 6, 9, 6], "num2": [7, 3, 4, 5], "num3": [9, 6, 4, 4], "type": "DISTRACTOR", "conditions": [18, 1200, "a", 18000], "trial": 0, "trial_type": "math-distractor", "trial_index": 9, "time_elapsed": 429266, "internal_node_id": "0.0-9.0"}}, {"uniqueid": "MTK0304:30BUDKLTXE2221M7EB4VYFI0ASJE50", "current_trial": 10, "dateTime": 1510702024860, "trialdata": {"rt": -1, "stimulus": "<p id=\"stim\">10</p>", "key_press": -1, "trial_type": "single-stim", "trial_index": 10, "time_elapsed": 432269, "internal_node_id": "0.0-10.0-0.0"}}, {"uniqueid": "MTK0304:30BUDKLTXE2221M7EB4VYFI0ASJE50", "current_trial": 11, "dateTime": 1510702025863, "trialdata": {"rt": -1, "stimulus": "<p id=\"stim\">9</p>", "key_press": -1, "trial_type": "single-stim", "trial_index": 11, "time_elapsed": 433272, "internal_node_id": "0.0-10.0-1.0"}}, {"uniqueid": "MTK0304:30BUDKLTXE2221M7EB4VYFI0ASJE50", "current_trial": 12, "dateTime": 1510702026866, "trialdata": {"rt": -1, "stimulus": "<p id=\"stim\">8</p>", "key_press": -1, "trial_type": "single-stim", "trial_index": 12, "time_elapsed": 434275, "internal_node_id": "0.0-10.0-2.0"}}, {"uniqueid": "MTK0304:30BUDKLTXE2221M7EB4VYFI0ASJE50", "current_trial": 13, "dateTime": 1510702027868, "trialdata": {"rt": -1, "stimulus": "<p id=\"stim\">7</p>", "key_press": -1, "trial_type": "single-stim", "trial_index": 13, "time_elapsed": 435277, "internal_node_id": "0.0-10.0-3.0"}}, {"uniqueid": "MTK0304:30BUDKLTXE2221M7EB4VYFI0ASJE50", "current_trial": 14, "dateTime": 1510702028871, "trialdata": {"rt": -1, "stimulus": "<p id=\"stim\">6</p>", "key_press": -1, "trial_type": "single-stim", "trial_index": 14, "time_elapsed": 436280, "internal_node_id": "0.0-10.0-4.0"}}, {"uniqueid": "MTK0304:30BUDKLTXE2221M7EB4VYFI0ASJE50", "current_trial": 15, "dateTime": 1510702029873, "trialdata": {"rt": -1, "stimulus": "<p id=\"stim\">5</p>", "key_press": -1, "trial_type": "single-stim", "trial_index": 15, "time_elapsed": 437282, "internal_node_id": "0.0-10.0-5.0"}}, {"uniqueid": "MTK0304:30BUDKLTXE2221M7EB4VYFI0ASJE50", "current_trial": 16, "dateTime": 1510702030875, "trialdata": {"rt": -1, "stimulus": "<p id=\"stim\">4</p>", "key_press": -1, "trial_type": "single-stim", "trial_index": 16, "time_elapsed": 438284, "internal_node_id": "0.0-10.0-6.0"}}, {"uniqueid": "MTK0304:30BUDKLTXE2221M7EB4VYFI0ASJE50", "current_trial": 17, "dateTime": 1510702031877, "trialdata": {"rt": -1, "stimulus": "<p id=\"stim\">3</p>", "key_press": -1, "trial_type": "single-stim", "trial_index": 17, "time_elapsed": 439286, "internal_node_id": "0.0-10.0-7.0"}}, {"uniqueid": "MTK0304:30BUDKLTXE2221M7EB4VYFI0ASJE50", "current_trial": 18, "dateTime": 1510702032878, "trialdata": {"rt": -1, "stimulus": "<p id=\"stim\">2</p>", "key_press": -1, "trial_type": "single-stim", "trial_index": 18, "time_elapsed": 440287, "internal_node_id": "0.0-10.0-8.0"}}, {"uniqueid": "MTK0304:30BUDKLTXE2221M7EB4VYFI0ASJE50", "current_trial": 19, "dateTime": 1510702033880, "trialdata": {"rt": -1, "stimulus": "<p id=\"stim\">1</p>", "key_press": -1, "trial_type": "single-stim", "trial_index": 19, "time_elapsed": 441289, "internal_node_id": "0.0-10.0-9.0"}}, {"uniqueid": "MTK0304:30BUDKLTXE2221M7EB4VYFI0ASJE50", "current_trial": 20, "dateTime": 1510702035382, "trialdata": {"rt": -1, "stimulus": "<p id=\"stim\">+</p>", "key_press": -1, "type": "FIXATION", "trial_type": "single-stim", "trial_index": 20, "time_elapsed": 442791, "internal_node_id": "0.0-11.0-0.0"}}, {"uniqueid": "MTK0304:30BUDKLTXE2221M7EB4VYFI0ASJE50", "current_trial": 21, "dateTime": 1510702037634, "trialdata": {"rt": -1000, "stimulus": "/static/audio/wordpool/PLAYGROUND.wav", "key_press": -1, "type": "PRES_AUD", "word": "playground", "wordID": 1086, "conditions": [18, 1200, "a", 18000], "trial": 0, "serialpos": 0, "trial_type": "single-audio", "trial_index": 21, "time_elapsed": 445043, "internal_node_id": "0.0-12.0"}}, {"uniqueid": "MTK0304:30BUDKLTXE2221M7EB4VYFI0ASJE50", "current_trial": 22, "dateTime": 1510702039672, "trialdata": {"rt": -1000, "stimulus": "/static/audio/wordpool/SEAGULL.wav", "key_press": -1, "type": "PRES_AUD", "word": "seagull", "wordID": 1260, "conditions": [18, 1200, "a", 18000], "trial": 0, "serialpos": 1, "trial_type": "single-audio", "trial_index": 22, "time_elapsed": 447081, "internal_node_id": "0.0-13.0"}}, {"uniqueid": "MTK0304:30BUDKLTXE2221M7EB4VYFI0ASJE50", "current_trial": 23, "dateTime": 1510702041809, "trialdata": {"rt": -1000, "stimulus": "/static/audio/wordpool/FRIEND.wav", "key_press": -1, "type": "PRES_AUD", "word": "friend", "wordID": 605, "conditions": [18, 1200, "a", 18000], "trial": 0, "serialpos": 2, "trial_type": "single-audio", "trial_index": 23, "time_elapsed": 449217, "internal_node_id": "0.0-14.0"}}, {"uniqueid": "MTK0304:30BUDKLTXE2221M7EB4VYFI0ASJE50", "current_trial": 24, "dateTime": 1510702043953, "trialdata": {"rt": -1000, "stimulus": "/static/audio/wordpool/CROWN.wav", "key_press": -1, "type": "PRES_AUD", "word": "crown", "wordID": 414, "conditions": [18, 1200, "a", 18000], "trial": 0, "serialpos": 3, "trial_type": "single-audio", "trial_index": 24, "time_elapsed": 451361, "internal_node_id": "0.0-15.0"}}, {"uniqueid": "MTK0304:30BUDKLTXE2221M7EB4VYFI0ASJE50", "current_trial": 25, "dateTime": 1510702046143, "trialdata": {"rt": -1000, "stimulus": "/static/audio/wordpool/LODGE.wav", "key_press": -1, "type": "PRES_AUD", "word": "lodge", "wordID": 838, "conditions": [18, 1200, "a", 18000], "trial": 0, "serialpos": 4, "trial_type": "single-audio", "trial_index": 25, "time_elapsed": 453552, "internal_node_id": "0.0-16.0"}}, {"uniqueid": "MTK0304:30BUDKLTXE2221M7EB4VYFI0ASJE50", "current_trial": 26, "dateTime": 1510702048278, "trialdata": {"rt": -1000, "stimulus": "/static/audio/wordpool/OINTMENT.wav", "key_press": -1, "type": "PRES_AUD", "word": "ointment", "wordID": 973, "conditions": [18, 1200, "a", 18000], "trial": 0, "serialpos": 5, "trial_type": "single-audio", "trial_index": 26, "time_elapsed": 455687, "internal_node_id": "0.0-17.0"}}, {"uniqueid": "MTK0304:30BUDKLTXE2221M7EB4VYFI0ASJE50", "current_trial": 27, "dateTime": 1510702050494, "trialdata": {"rt": -1000, "stimulus": "/static/audio/wordpool/GRILL.wav", "key_press": -1, "type": "PRES_AUD", "word": "grill", "wordID": 660, "conditions": [18, 1200, "a", 18000], "trial": 0, "serialpos": 6, "trial_type": "single-audio", "trial_index": 27, "time_elapsed": 457903, "internal_node_id": "0.0-18.0"}}, {"uniqueid": "MTK0304:30BUDKLTXE2221M7EB4VYFI0ASJE50", "current_trial": 28, "dateTime": 1510702052811, "trialdata": {"rt": -1000, "stimulus": "/static/audio/wordpool/CABIN.wav", "key_press": -1, "type": "PRES_AUD", "word": "cabin", "wordID": 210, "conditions": [18, 1200, "a", 18000], "trial": 0, "serialpos": 7, "trial_type": "single-audio", "trial_index": 28, "time_elapsed": 460220, "internal_node_id": "0.0-19.0"}}, {"uniqueid": "MTK0304:30BUDKLTXE2221M7EB4VYFI0ASJE50", "current_trial": 29, "dateTime": 1510702055077, "trialdata": {"rt": -1000, "stimulus": "/static/audio/wordpool/LIGHTNING.wav", "key_press": -1, "type": "PRES_AUD", "word": "lightning", "wordID": 819, "conditions": [18, 1200, "a", 18000], "trial": 0, "serialpos": 8, "trial_type": "single-audio", "trial_index": 29, "time_elapsed": 462486, "internal_node_id": "0.0-20.0"}}, {"uniqueid": "MTK0304:30BUDKLTXE2221M7EB4VYFI0ASJE50", "current_trial": 30, "dateTime": 1510702057270, "trialdata": {"rt": -1000, "stimulus": "/static/audio/wordpool/SHOULDER.wav", "key_press": -1, "type": "PRES_AUD", "word": "shoulder", "wordID": 1293, "conditions": [18, 1200, "a", 18000], "trial": 0, "serialpos": 9, "trial_type": "single-audio", "trial_index": 30, "time_elapsed": 464679, "internal_node_id": "0.0-21.0"}}, {"uniqueid": "MTK0304:30BUDKLTXE2221M7EB4VYFI0ASJE50", "current_trial": 31, "dateTime": 1510702059382, "trialdata": {"rt": -1000, "stimulus": "/static/audio/wordpool/SADDLE.wav", "key_press": -1, "type": "PRES_AUD", "word": "saddle", "wordID": 1220, "conditions": [18, 1200, "a", 18000], "trial": 0, "serialpos": 10, "trial_type": "single-audio", "trial_index": 31, "time_elapsed": 466790, "internal_node_id": "0.0-22.0"}}, {"uniqueid": "MTK0304:30BUDKLTXE2221M7EB4VYFI0ASJE50", "current_trial": 32, "dateTime": 1510702061755, "trialdata": {"rt": -1000, "stimulus": "/static/audio/wordpool/SALT.wav", "key_press": -1, "type": "PRES_AUD", "word": "salt", "wordID": 1228, "conditions": [18, 1200, "a", 18000], "trial": 0, "serialpos": 11, "trial_type": "single-audio", "trial_index": 32, "time_elapsed": 469164, "internal_node_id": "0.0-23.0"}}, {"uniqueid": "MTK0304:30BUDKLTXE2221M7EB4VYFI0ASJE50", "current_trial": 33, "dateTime": 1510702064011, "trialdata": {"rt": -1000, "stimulus": "/static/audio/wordpool/FLUTE.wav", "key_press": -1, "type": "PRES_AUD", "word": "flute", "wordID": 584, "conditions": [18, 1200, "a", 18000], "trial": 0, "serialpos": 12, "trial_type": "single-audio", "trial_index": 33, "time_elapsed": 471420, "internal_node_id": "0.0-24.0"}}, {"uniqueid": "MTK0304:30BUDKLTXE2221M7EB4VYFI0ASJE50", "current_trial": 34, "dateTime": 1510702066095, "trialdata": {"rt": -1000, "stimulus": "/static/audio/wordpool/MOTOR.wav", "key_press": -1, "type": "PRES_AUD", "word": "motor", "wordID": 921, "conditions": [18, 1200, "a", 18000], "trial": 0, "serialpos": 13, "trial_type": "single-audio", "trial_index": 34, "time_elapsed": 473504, "internal_node_id": "0.0-25.0"}}, {"uniqueid": "MTK0304:30BUDKLTXE2221M7EB4VYFI0ASJE50", "current_trial": 35, "dateTime": 1510702068482, "trialdata": {"rt": -1000, "stimulus": "/static/audio/wordpool/EXPERT.wav", "key_press": -1, "type": "PRES_AUD", "word": "expert", "wordID": 542, "conditions": [18, 1200, "a", 18000], "trial": 0, "serialpos": 14, "trial_type": "single-audio", "trial_index": 35, "time_elapsed": 475890, "internal_node_id": "0.0-26.0"}}, {"uniqueid": "MTK0304:30BUDKLTXE2221M7EB4VYFI0ASJE50", "current_trial": 36, "dateTime": 1510702070759, "trialdata": {"rt": -1000, "stimulus": "/static/audio/wordpool/PROTON.wav", "key_press": -1, "type": "PRES_AUD", "word": "proton", "wordID": 1131, "conditions": [18, 1200, "a", 18000], "trial": 0, "serialpos": 15, "trial_type": "single-audio", "trial_index": 36, "time_elapsed": 478168, "internal_node_id": "0.0-27.0"}}, {"uniqueid": "MTK0304:30BUDKLTXE2221M7EB4VYFI0ASJE50", "current_trial": 37, "dateTime": 1510702073043, "trialdata": {"rt": -1000, "stimulus": "/static/audio/wordpool/CARRIAGE.wav", "key_press": -1, "type": "PRES_AUD", "word": "carriage", "wordID": 247, "conditions": [18, 1200, "a", 18000], "trial": 0, "serialpos": 16, "trial_type": "single-audio", "trial_index": 37, "time_elapsed": 480452, "internal_node_id": "0.0-28.0"}}, {"uniqueid": "MTK0304:30BUDKLTXE2221M7EB4VYFI0ASJE50", "current_trial": 38, "dateTime": 1510702075380, "trialdata": {"rt": -1000, "stimulus": "/static/audio/wordpool/PADDING.wav", "key_press": -1, "type": "PRES_AUD", "word": "padding", "wordID": 998, "conditions": [18, 1200, "a", 18000], "trial": 0, "serialpos": 17, "trial_type": "single-audio", "trial_index": 38, "time_elapsed": 482788, "internal_node_id": "0.0-29.0"}}, {"uniqueid": "MTK0304:30BUDKLTXE2221M7EB4VYFI0ASJE50", "current_trial": 39, "dateTime": 1510702076644, "trialdata": {"rt": -1, "stimulus": "", "key_press": -1, "type": "PRE_RECALL_DELAY", "trial_type": "single-stim", "trial_index": 39, "time_elapsed": 484052, "internal_node_id": "0.0-30.0-0.0"}}, {"uniqueid": "MTK0304:30BUDKLTXE2221M7EB4VYFI0ASJE50", "current_trial": 40, "dateTime": 1510702077146, "trialdata": {"rt": -1000, "stimulus": "/static/audio/400Hz.wav", "key_press": -1, "type": "PRE_RECALL_ALERT", "trial_type": "single-audio", "trial_index": 40, "time_elapsed": 484555, "internal_node_id": "0.0-31.0"}}, {"uniqueid": "MTK0304:30BUDKLTXE2221M7EB4VYFI0ASJE50", "current_trial": 41, "dateTime": 1510702137156, "trialdata": {"rt": [2670, 4572, 7882, 9980, 12396, 15458, 17599, 25364, 51513, 55892], "recwords": ["padding", "expert", "proton", "playground", "seagull", "salt", "cabin", "cabbage", "ointment", "grill"], "type": "FREE_RECALL", "conditions": [18, 1200, "a", 18000], "trial": 0, "trial_type": "free-recall", "trial_index": 41, "time_elapsed": 544560, "internal_node_id": "0.0-32.0-0.0"}}, {"uniqueid": "MTK0304:30BUDKLTXE2221M7EB4VYFI0ASJE50", "current_trial": 42, "dateTime": 1510702141282, "trialdata": {"rt": 2125, "key_press": 13, "type": "INSTRUCTIONS", "trial_type": "text", "trial_index": 42, "time_elapsed": 548691, "internal_node_id": "0.0-33.0"}}, {"uniqueid": "MTK0304:30BUDKLTXE2221M7EB4VYFI0ASJE50", "current_trial": 43, "dateTime": 1510702161287, "trialdata": {"rt": [3622, 6363, 9497, 14855], "responses": ["13", "14", "17", "21"], "num1": [5, 7, 1, 3, 7], "num2": [7, 5, 8, 9, 9], "num3": [1, 2, 8, 9, 5], "type": "DISTRACTOR", "conditions": [18, 1200, "v", 18000], "trial": 1, "trial_type": "math-distractor", "trial_index": 43, "time_elapsed": 568696, "internal_node_id": "0.0-34.0"}}, {"uniqueid": "MTK0304:30BUDKLTXE2221M7EB4VYFI0ASJE50", "current_trial": 44, "dateTime": 1510702164291, "trialdata": {"rt": -1, "stimulus": "<p id=\"stim\">10</p>", "key_press": -1, "trial_type": "single-stim", "trial_index": 44, "time_elapsed": 571699, "internal_node_id": "0.0-35.0-0.0"}}, {"uniqueid": "MTK0304:30BUDKLTXE2221M7EB4VYFI0ASJE50", "current_trial": 45, "dateTime": 1510702165293, "trialdata": {"rt": -1, "stimulus": "<p id=\"stim\">9</p>", "key_press": -1, "trial_type": "single-stim", "trial_index": 45, "time_elapsed": 572701, "internal_node_id": "0.0-35.0-1.0"}}, {"uniqueid": "MTK0304:30BUDKLTXE2221M7EB4VYFI0ASJE50", "current_trial": 46, "dateTime": 1510702166295, "trialdata": {"rt": -1, "stimulus": "<p id=\"stim\">8</p>", "key_press": -1, "trial_type": "single-stim", "trial_index": 46, "time_elapsed": 573704, "internal_node_id": "0.0-35.0-2.0"}}, {"uniqueid": "MTK0304:30BUDKLTXE2221M7EB4VYFI0ASJE50", "current_trial": 47, "dateTime": 1510702167297, "trialdata": {"rt": -1, "stimulus": "<p id=\"stim\">7</p>", "key_press": -1, "trial_type": "single-stim", "trial_index": 47, "time_elapsed": 574706, "internal_node_id": "0.0-35.0-3.0"}}, {"uniqueid": "MTK0304:30BUDKLTXE2221M7EB4VYFI0ASJE50", "current_trial": 48, "dateTime": 1510702168298, "trialdata": {"rt": -1, "stimulus": "<p id=\"stim\">6</p>", "key_press": -1, "trial_type": "single-stim", "trial_index": 48, "time_elapsed": 575707, "internal_node_id": "0.0-35.0-4.0"}}, {"uniqueid": "MTK0304:30BUDKLTXE2221M7EB4VYFI0ASJE50", "current_trial": 49, "dateTime": 1510702169301, "trialdata": {"rt": -1, "stimulus": "<p id=\"stim\">5</p>", "key_press": -1, "trial_type": "single-stim", "trial_index": 49, "time_elapsed": 576709, "internal_node_id": "0.0-35.0-5.0"}}, {"uniqueid": "MTK0304:30BUDKLTXE2221M7EB4VYFI0ASJE50", "current_trial": 50, "dateTime": 1510702170302, "trialdata": {"rt": -1, "stimulus": "<p id=\"stim\">4</p>", "key_press": -1, "trial_type": "single-stim", "trial_index": 50, "time_elapsed": 577711, "internal_node_id": "0.0-35.0-6.0"}}, {"uniqueid": "MTK0304:30BUDKLTXE2221M7EB4VYFI0ASJE50", "current_trial": 51, "dateTime": 1510702171306, "trialdata": {"rt": -1, "stimulus": "<p id=\"stim\">3</p>", "key_press": -1, "trial_type": "single-stim", "trial_index": 51, "time_elapsed": 578714, "internal_node_id": "0.0-35.0-7.0"}}, {"uniqueid": "MTK0304:30BUDKLTXE2221M7EB4VYFI0ASJE50", "current_trial": 52, "dateTime": 1510702172307, "trialdata": {"rt": -1, "stimulus": "<p id=\"stim\">2</p>", "key_press": -1, "trial_type": "single-stim", "trial_index": 52, "time_elapsed": 579716, "internal_node_id": "0.0-35.0-8.0"}}, {"uniqueid": "MTK0304:30BUDKLTXE2221M7EB4VYFI0ASJE50", "current_trial": 53, "dateTime": 1510702173310, "trialdata": {"rt": -1, "stimulus": "<p id=\"stim\">1</p>", "key_press": -1, "trial_type": "single-stim", "trial_index": 53, "time_elapsed": 580719, "internal_node_id": "0.0-35.0-9.0"}}, {"uniqueid": "MTK0304:30BUDKLTXE2221M7EB4VYFI0ASJE50", "current_trial": 54, "dateTime": 1510702174812, "trialdata": {"rt": -1, "stimulus": "<p id=\"stim\">+</p>", "key_press": -1, "type": "FIXATION", "trial_type": "single-stim", "trial_index": 54, "time_elapsed": 582221, "internal_node_id": "0.0-36.0-0.0"}}, {"uniqueid": "MTK0304:30BUDKLTXE2221M7EB4VYFI0ASJE50", "current_trial": 55, "dateTime": 1510702176016, "trialdata": {"rt": -1, "stimulus": "<p id=\"stim\">JELLY</p>", "key_press": -1, "type": "PRES_VIS", "word": "jelly", "wordID": 754, "conditions": [18, 1200, "v", 18000], "trial": 1, "serialpos": 0, "trial_type": "single-stim", "trial_index": 55, "time_elapsed": 583424, "internal_node_id": "0.0-37.0"}}, {"uniqueid": "MTK0304:30BUDKLTXE2221M7EB4VYFI0ASJE50", "current_trial": 56, "dateTime": 1510702178231, "trialdata": {"rt": -1, "stimulus": "<p id=\"stim\">LADY</p>", "key_press": -1, "type": "PRES_VIS", "word": "lady", "wordID": 793, "conditions": [18, 1200, "v", 18000], "trial": 1, "serialpos": 1, "trial_type": "single-stim", "trial_index": 56, "time_elapsed": 585640, "internal_node_id": "0.0-38.0"}}, {"uniqueid": "MTK0304:30BUDKLTXE2221M7EB4VYFI0ASJE50", "current_trial": 57, "dateTime": 1510702180384, "trialdata": {"rt": -1, "stimulus": "<p id=\"stim\">SUPPER</p>", "key_press": -1, "type": "PRES_VIS", "word": "supper", "wordID": 1410, "conditions": [18, 1200, "v", 18000], "trial": 1, "serialpos": 2, "trial_type": "single-stim", "trial_index": 57, "time_elapsed": 587792, "internal_node_id": "0.0-39.0"}}, {"uniqueid": "MTK0304:30BUDKLTXE2221M7EB4VYFI0ASJE50", "current_trial": 58, "dateTime": 1510702182520, "trialdata": {"rt": -1, "stimulus": "<p id=\"stim\">SMOG</p>", "key_press": -1, "type": "PRES_VIS", "word": "smog", "wordID": 1329, "conditions": [18, 1200, "v", 18000], "trial": 1, "serialpos": 3, "trial_type": "single-stim", "trial_index": 58, "time_elapsed": 589928, "internal_node_id": "0.0-40.0"}}, {"uniqueid": "MTK0304:30BUDKLTXE2221M7EB4VYFI0ASJE50", "current_trial": 59, "dateTime": 1510702184896, "trialdata": {"rt": -1, "stimulus": "<p id=\"stim\">OUTLAW</p>", "key_press": -1, "type": "PRES_VIS", "word": "outlaw", "wordID": 988, "conditions": [18, 1200, "v", 18000], "trial": 1, "serialpos": 4, "trial_type": "single-stim", "trial_index": 59, "time_elapsed": 592304, "internal_node_id": "0.0-41.0"}}, {"uniqueid": "MTK0304:30BUDKLTXE2221M7EB4VYFI0ASJE50", "current_trial": 60, "dateTime": 1510702187173, "trialdata": {"rt": -1, "stimulus": "<p id=\"stim\">ZEBRA</p>", "key_press": -1, "type": "PRES_VIS", "word": "zebra", "wordID": 1634, "conditions": [18, 1200, "v", 18000], "trial": 1, "serialpos": 5, "trial_type": "single-stim", "trial_index": 60, "time_elapsed": 594581, "internal_node_id": "0.0-42.0"}}, {"uniqueid": "MTK0304:30BUDKLTXE2221M7EB4VYFI0ASJE50", "current_trial": 61, "dateTime": 1510702189561, "trialdata": {"rt": -1, "stimulus": "<p id=\"stim\">STATUE</p>", "key_press": -1, "type": "PRES_VIS", "word": "statue", "wordID": 1373, "conditions": [18, 1200, "v", 18000], "trial": 1, "serialpos": 6, "trial_type": "single-stim", "trial_index": 61, "time_elapsed": 596970, "internal_node_id": "0.0-43.0"}}, {"uniqueid": "MTK0304:30BUDKLTXE2221M7EB4VYFI0ASJE50", "current_trial": 62, "dateTime": 1510702191721, "trialdata": {"rt": -1, "stimulus": "<p id=\"stim\">DAUGHTER</p>", "key_press": -1, "type": "PRES_VIS", "word": "daughter", "wordID": 441, "conditions": [18, 1200, "v", 18000], "trial": 1, "serialpos": 7, "trial_type": "single-stim", "trial_index": 62, "time_elapsed": 599129, "internal_node_id": "0.0-44.0"}}, {"uniqueid": "MTK0304:30BUDKLTXE2221M7EB4VYFI0ASJE50", "current_trial": 63, "dateTime": 1510702193935, "trialdata": {"rt": -1, "stimulus": "<p id=\"stim\">MUSTARD</p>", "key_press": -1, "type": "PRES_VIS", "word": "mustard", "wordID": 934, "conditions": [18, 1200, "v", 18000], "trial": 1, "serialpos": 8, "trial_type": "single-stim", "trial_index": 63, "time_elapsed": 601342, "internal_node_id": "0.0-45.0"}}, {"uniqueid": "MTK0304:30BUDKLTXE2221M7EB4VYFI0ASJE50", "current_trial": 64, "dateTime": 1510702196314, "trialdata": {"rt": -1, "stimulus": "<p id=\"stim\">HELMET</p>", "key_press": -1, "type": "PRES_VIS", "word": "helmet", "wordID": 701, "conditions": [18, 1200, "v", 18000], "trial": 1, "serialpos": 9, "trial_type": "single-stim", "trial_index": 64, "time_elapsed": 603722, "internal_node_id": "0.0-46.0"}}, {"uniqueid": "MTK0304:30BUDKLTXE2221M7EB4VYFI0ASJE50", "current_trial": 65, "dateTime": 1510702198320, "trialdata": {"rt": -1, "stimulus": "<p id=\"stim\">WHISTLE</p>", "key_press": -1, "type": "PRES_VIS", "word": "whistle", "wordID": 1605, "conditions": [18, 1200, "v", 18000], "trial": 1, "serialpos": 10, "trial_type": "single-stim", "trial_index": 65, "time_elapsed": 605726, "internal_node_id": "0.0-47.0"}}, {"uniqueid": "MTK0304:30BUDKLTXE2221M7EB4VYFI0ASJE50", "current_trial": 66, "dateTime": 1510702200341, "trialdata": {"rt": -1, "stimulus": "<p id=\"stim\">HIGHWAY</p>", "key_press": -1, "type": "PRES_VIS", "word": "highway", "wordID": 706, "conditions": [18, 1200, "v", 18000], "trial": 1, "serialpos": 11, "trial_type": "single-stim", "trial_index": 66, "time_elapsed": 607749, "internal_node_id": "0.0-48.0"}}, {"uniqueid": "MTK0304:30BUDKLTXE2221M7EB4VYFI0ASJE50", "current_trial": 67, "dateTime": 1510702202383, "trialdata": {"rt": -1, "stimulus": "<p id=\"stim\">LUMBER</p>", "key_press": -1, "type": "PRES_VIS", "word": "lumber", "wordID": 847, "conditions": [18, 1200, "v", 18000], "trial": 1, "serialpos": 12, "trial_type": "single-stim", "trial_index": 67, "time_elapsed": 609791, "internal_node_id": "0.0-49.0"}}, {"uniqueid": "MTK0304:30BUDKLTXE2221M7EB4VYFI0ASJE50", "current_trial": 68, "dateTime": 1510702204532, "trialdata": {"rt": -1, "stimulus": "<p id=\"stim\">BARLEY</p>", "key_press": -1, "type": "PRES_VIS", "word": "barley", "wordID": 87, "conditions": [18, 1200, "v", 18000], "trial": 1, "serialpos": 13, "trial_type": "single-stim", "trial_index": 68, "time_elapsed": 611937, "internal_node_id": "0.0-50.0"}}, {"uniqueid": "MTK0304:30BUDKLTXE2221M7EB4VYFI0ASJE50", "current_trial": 69, "dateTime": 1510702206932, "trialdata": {"rt": -1, "stimulus": "<p id=\"stim\">XEROX</p>", "key_press": -1, "type": "PRES_VIS", "word": "xerox", "wordID": 1627, "conditions": [18, 1200, "v", 18000], "trial": 1, "serialpos": 14, "trial_type": "single-stim", "trial_index": 69, "time_elapsed": 614340, "internal_node_id": "0.0-51.0"}}, {"uniqueid": "MTK0304:30BUDKLTXE2221M7EB4VYFI0ASJE50", "current_trial": 70, "dateTime": 1510702209140, "trialdata": {"rt": -1, "stimulus": "<p id=\"stim\">SALAD</p>", "key_press": -1, "type": "PRES_VIS", "word": "salad", "wordID": 1223, "conditions": [18, 1200, "v", 18000], "trial": 1, "serialpos": 15, "trial_type": "single-stim", "trial_index": 70, "time_elapsed": 616549, "internal_node_id": "0.0-52.0"}}, {"uniqueid": "MTK0304:30BUDKLTXE2221M7EB4VYFI0ASJE50", "current_trial": 71, "dateTime": 1510702211307, "trialdata": {"rt": -1, "stimulus": "<p id=\"stim\">BRANCH</p>", "key_press": -1, "type": "PRES_VIS", "word": "branch", "wordID": 167, "conditions": [18, 1200, "v", 18000], "trial": 1, "serialpos": 16, "trial_type": "single-stim", "trial_index": 71, "time_elapsed": 618715, "internal_node_id": "0.0-53.0"}}, {"uniqueid": "MTK0304:30BUDKLTXE2221M7EB4VYFI0ASJE50", "current_trial": 72, "dateTime": 1510702213588, "trialdata": {"rt": -1, "stimulus": "<p id=\"stim\">WAITER</p>", "key_press": -1, "type": "PRES_VIS", "word": "waiter", "wordID": 1579, "conditions": [18, 1200, "v", 18000], "trial": 1, "serialpos": 17, "trial_type": "single-stim", "trial_index": 72, "time_elapsed": 620997, "internal_node_id": "0.0-54.0"}}, {"uniqueid": "MTK0304:30BUDKLTXE2221M7EB4VYFI0ASJE50", "current_trial": 73, "dateTime": 1510702215854, "trialdata": {"rt": -1, "stimulus": "", "key_press": -1, "type": "PRE_RECALL_DELAY", "trial_type": "single-stim", "trial_index": 73, "time_elapsed": 623262, "internal_node_id": "0.0-55.0-0.0"}}, {"uniqueid": "MTK0304:30BUDKLTXE2221M7EB4VYFI0ASJE50", "current_trial": 74, "dateTime": 1510702216361, "trialdata": {"rt": -1000, "stimulus": "/static/audio/400Hz.wav", "key_press": -1, "type": "PRE_RECALL_ALERT", "trial_type": "single-audio", "trial_index": 74, "time_elapsed": 623769, "internal_node_id": "0.0-56.0"}}, {"uniqueid": "MTK0304:30BUDKLTXE2221M7EB4VYFI0ASJE50", "current_trial": 75, "dateTime": 1510702276369, "trialdata": {"rt": [2321, 3641, 4670, 6311, 13328, 18222, 35886], "recwords": ["waiter", "branch", "salad", "barley", "waiter", "branch", "shoulder"], "type": "FREE_RECALL", "conditions": [18, 1200, "v", 18000], "trial": 1, "trial_type": "free-recall", "trial_index": 75, "time_elapsed": 683774, "internal_node_id": "0.0-57.0-0.0"}}, {"uniqueid": "MTK0304:30BUDKLTXE2221M7EB4VYFI0ASJE50", "current_trial": 76, "dateTime": 1510702280590, "trialdata": {"rt": 2217, "key_press": 32, "type": "INSTRUCTIONS", "trial_type": "text", "trial_index": 76, "time_elapsed": 687996, "internal_node_id": "0.0-58.0"}}, {"uniqueid": "MTK0304:30BUDKLTXE2221M7EB4VYFI0ASJE50", "current_trial": 77, "dateTime": 1510702305592, "trialdata": {"rt": [2965, 7899, 10441, 12676, 18901, 21525], "responses": ["10", "19", "10", "14", "20", "9"], "num1": [2, 9, 7, 7, 8, 2, 3], "num2": [6, 8, 1, 2, 7, 1, 8], "num3": [2, 2, 2, 5, 5, 6, 7], "type": "DISTRACTOR", "conditions": [24, 1600, "v", 24000], "trial": 2, "trial_type": "math-distractor", "trial_index": 77, "time_elapsed": 713001, "internal_node_id": "0.0-59.0"}}, {"uniqueid": "MTK0304:30BUDKLTXE2221M7EB4VYFI0ASJE50", "current_trial": 78, "dateTime": 1510702308595, "trialdata": {"rt": -1, "stimulus": "<p id=\"stim\">10</p>", "key_press": -1, "trial_type": "single-stim", "trial_index": 78, "time_elapsed": 716004, "internal_node_id": "0.0-60.0-0.0"}}, {"uniqueid": "MTK0304:30BUDKLTXE2221M7EB4VYFI0ASJE50", "current_trial": 79, "dateTime": 1510702309596, "trialdata": {"rt": -1, "stimulus": "<p id=\"stim\">9</p>", "key_press": -1, "trial_type": "single-stim", "trial_index": 79, "time_elapsed": 717005, "internal_node_id": "0.0-60.0-1.0"}}, {"uniqueid": "MTK0304:30BUDKLTXE2221M7EB4VYFI0ASJE50", "current_trial": 80, "dateTime": 1510702310599, "trialdata": {"rt": -1, "stimulus": "<p id=\"stim\">8</p>", "key_press": -1, "trial_type": "single-stim", "trial_index": 80, "time_elapsed": 718008, "internal_node_id": "0.0-60.0-2.0"}}, {"uniqueid": "MTK0304:30BUDKLTXE2221M7EB4VYFI0ASJE50", "current_trial": 81, "dateTime": 1510702311601, "trialdata": {"rt": -1, "stimulus": "<p id=\"stim\">7</p>", "key_press": -1, "trial_type": "single-stim", "trial_index": 81, "time_elapsed": 719010, "internal_node_id": "0.0-60.0-3.0"}}, {"uniqueid": "MTK0304:30BUDKLTXE2221M7EB4VYFI0ASJE50", "current_trial": 82, "dateTime": 1510702312603, "trialdata": {"rt": -1, "stimulus": "<p id=\"stim\">6</p>", "key_press": -1, "trial_type": "single-stim", "trial_index": 82, "time_elapsed": 720012, "internal_node_id": "0.0-60.0-4.0"}}, {"uniqueid": "MTK0304:30BUDKLTXE2221M7EB4VYFI0ASJE50", "current_trial": 83, "dateTime": 1510702313604, "trialdata": {"rt": -1, "stimulus": "<p id=\"stim\">5</p>", "key_press": -1, "trial_type": "single-stim", "trial_index": 83, "time_elapsed": 721013, "internal_node_id": "0.0-60.0-5.0"}}, {"uniqueid": "MTK0304:30BUDKLTXE2221M7EB4VYFI0ASJE50", "current_trial": 84, "dateTime": 1510702314607, "trialdata": {"rt": -1, "stimulus": "<p id=\"stim\">4</p>", "key_press": -1, "trial_type": "single-stim", "trial_index": 84, "time_elapsed": 722016, "internal_node_id": "0.0-60.0-6.0"}}, {"uniqueid": "MTK0304:30BUDKLTXE2221M7EB4VYFI0ASJE50", "current_trial": 85, "dateTime": 1510702315608, "trialdata": {"rt": -1, "stimulus": "<p id=\"stim\">3</p>", "key_press": -1, "trial_type": "single-stim", "trial_index": 85, "time_elapsed": 723017, "internal_node_id": "0.0-60.0-7.0"}}, {"uniqueid": "MTK0304:30BUDKLTXE2221M7EB4VYFI0ASJE50", "current_trial": 86, "dateTime": 1510702316612, "trialdata": {"rt": -1, "stimulus": "<p id=\"stim\">2</p>", "key_press": -1, "trial_type": "single-stim", "trial_index": 86, "time_elapsed": 724020, "internal_node_id": "0.0-60.0-8.0"}}, {"uniqueid": "MTK0304:30BUDKLTXE2221M7EB4VYFI0ASJE50", "current_trial": 87, "dateTime": 1510702317614, "trialdata": {"rt": -1, "stimulus": "<p id=\"stim\">1</p>", "key_press": -1, "trial_type": "single-stim", "trial_index": 87, "time_elapsed": 725022, "internal_node_id": "0.0-60.0-9.0"}}, {"uniqueid": "MTK0304:30BUDKLTXE2221M7EB4VYFI0ASJE50", "current_trial": 88, "dateTime": 1510702319118, "trialdata": {"rt": -1, "stimulus": "<p id=\"stim\">+</p>", "key_press": -1, "type": "FIXATION", "trial_type": "single-stim", "trial_index": 88, "time_elapsed": 726527, "internal_node_id": "0.0-61.0-0.0"}}, {"uniqueid": "MTK0304:30BUDKLTXE2221M7EB4VYFI0ASJE50", "current_trial": 89, "dateTime": 1510702320719, "trialdata": {"rt": -1, "stimulus": "<p id=\"stim\">CREATURE</p>", "key_press": -1, "type": "PRES_VIS", "word": "creature", "wordID": 402, "conditions": [24, 1600, "v", 24000], "trial": 2, "serialpos": 0, "trial_type": "single-stim", "trial_index": 89, "time_elapsed": 728128, "internal_node_id": "0.0-62.0"}}, {"uniqueid": "MTK0304:30BUDKLTXE2221M7EB4VYFI0ASJE50", "current_trial": 90, "dateTime": 1510702323402, "trialdata": {"rt": -1, "stimulus": "<p id=\"stim\">LOVER</p>", "key_press": -1, "type": "PRES_VIS", "word": "lover", "wordID": 845, "conditions": [24, 1600, "v", 24000], "trial": 2, "serialpos": 1, "trial_type": "single-stim", "trial_index": 90, "time_elapsed": 730811, "internal_node_id": "0.0-63.0"}}, {"uniqueid": "MTK0304:30BUDKLTXE2221M7EB4VYFI0ASJE50", "current_trial": 91, "dateTime": 1510702326177, "trialdata": {"rt": -1, "stimulus": "<p id=\"stim\">GIRL</p>", "key_press": -1, "type": "PRES_VIS", "word": "girl", "wordID": 636, "conditions": [24, 1600, "v", 24000], "trial": 2, "serialpos": 2, "trial_type": "single-stim", "trial_index": 91, "time_elapsed": 733585, "internal_node_id": "0.0-64.0"}}, {"uniqueid": "MTK0304:30BUDKLTXE2221M7EB4VYFI0ASJE50", "current_trial": 92, "dateTime": 1510702328929, "trialdata": {"rt": -1, "stimulus": "<p id=\"stim\">PRINCESS</p>", "key_press": -1, "type": "PRES_VIS", "word": "princess", "wordID": 1124, "conditions": [24, 1600, "v", 24000], "trial": 2, "serialpos": 3, "trial_type": "single-stim", "trial_index": 92, "time_elapsed": 736338, "internal_node_id": "0.0-65.0"}}, {"uniqueid": "MTK0304:30BUDKLTXE2221M7EB4VYFI0ASJE50", "current_trial": 93, "dateTime": 1510702331613, "trialdata": {"rt": -1, "stimulus": "<p id=\"stim\">MATCH</p>", "key_press": -1, "type": "PRES_VIS", "word": "match", "wordID": 877, "conditions": [24, 1600, "v", 24000], "trial": 2, "serialpos": 4, "trial_type": "single-stim", "trial_index": 93, "time_elapsed": 739021, "internal_node_id": "0.0-66.0"}}, {"uniqueid": "MTK0304:30BUDKLTXE2221M7EB4VYFI0ASJE50", "current_trial": 94, "dateTime": 1510702334243, "trialdata": {"rt": -1, "stimulus": "<p id=\"stim\">SHORTCAKE</p>", "key_press": -1, "type": "PRES_VIS", "word": "shortcake", "wordID": 1291, "conditions": [24, 1600, "v", 24000], "trial": 2, "serialpos": 5, "trial_type": "single-stim", "trial_index": 94, "time_elapsed": 741652, "internal_node_id": "0.0-67.0"}}, {"uniqueid": "MTK0304:30BUDKLTXE2221M7EB4VYFI0ASJE50", "current_trial": 95, "dateTime": 1510702336691, "trialdata": {"rt": -1, "stimulus": "<p id=\"stim\">PIZZA</p>", "key_press": -1, "type": "PRES_VIS", "word": "pizza", "wordID": 1078, "conditions": [24, 1600, "v", 24000], "trial": 2, "serialpos": 6, "trial_type": "single-stim", "trial_index": 95, "time_elapsed": 744100, "internal_node_id": "0.0-68.0"}}, {"uniqueid": "MTK0304:30BUDKLTXE2221M7EB4VYFI0ASJE50", "current_trial": 96, "dateTime": 1510702339447, "trialdata": {"rt": -1, "stimulus": "<p id=\"stim\">BROTHER</p>", "key_press": -1, "type": "PRES_VIS", "word": "brother", "wordID": 178, "conditions": [24, 1600, "v", 24000], "trial": 2, "serialpos": 7, "trial_type": "single-stim", "trial_index": 96, "time_elapsed": 746856, "internal_node_id": "0.0-69.0"}}, {"uniqueid": "MTK0304:30BUDKLTXE2221M7EB4VYFI0ASJE50", "current_trial": 97, "dateTime": 1510702341924, "trialdata": {"rt": -1, "stimulus": "<p id=\"stim\">DRAGON</p>", "key_press": -1, "type": "PRES_VIS", "word": "dragon", "wordID": 491, "conditions": [24, 1600, "v", 24000], "trial": 2, "serialpos": 8, "trial_type": "single-stim", "trial_index": 97, "time_elapsed": 749332, "internal_node_id": "0.0-70.0"}}, {"uniqueid": "MTK0304:30BUDKLTXE2221M7EB4VYFI0ASJE50", "current_trial": 98, "dateTime": 1510702344384, "trialdata": {"rt": -1, "stimulus": "<p id=\"stim\">SCALLOP</p>", "key_press": -1, "type": "PRES_VIS", "word": "scallop", "wordID": 1241, "conditions": [24, 1600, "v", 24000], "trial": 2, "serialpos": 9, "trial_type": "single-stim", "trial_index": 98, "time_elapsed": 751793, "internal_node_id": "0.0-71.0"}}, {"uniqueid": "MTK0304:30BUDKLTXE2221M7EB4VYFI0ASJE50", "current_trial": 99, "dateTime": 1510702346945, "trialdata": {"rt": -1, "stimulus": "<p id=\"stim\">KETCHUP</p>", "key_press": -1, "type": "PRES_VIS", "word": "ketchup", "wordID": 770, "conditions": [24, 1600, "v", 24000], "trial": 2, "serialpos": 10, "trial_type": "single-stim", "trial_index": 99, "time_elapsed": 754354, "internal_node_id": "0.0-72.0"}}, {"uniqueid": "MTK0304:30BUDKLTXE2221M7EB4VYFI0ASJE50", "current_trial": 100, "dateTime": 1510702349359, "trialdata": {"rt": -1, "stimulus": "<p id=\"stim\">BATHTUB</p>", "key_press": -1, "type": "PRES_VIS", "word": "bathtub", "wordID": 99, "conditions": [24, 1600, "v", 24000], "trial": 2, "serialpos": 11, "trial_type": "single-stim", "trial_index": 100, "time_elapsed": 756768, "internal_node_id": "0.0-73.0"}}, {"uniqueid": "MTK0304:30BUDKLTXE2221M7EB4VYFI0ASJE50", "current_trial": 101, "dateTime": 1510702351802, "trialdata": {"rt": -1, "stimulus": "<p id=\"stim\">DANDRUFF</p>", "key_press": -1, "type": "PRES_VIS", "word": "dandruff", "wordID": 438, "conditions": [24, 1600, "v", 24000], "trial": 2, "serialpos": 12, "trial_type": "single-stim", "trial_index": 101, "time_elapsed": 759211, "internal_node_id": "0.0-74.0"}}, {"uniqueid": "MTK0304:30BUDKLTXE2221M7EB4VYFI0ASJE50", "current_trial": 102, "dateTime": 1510702354221, "trialdata": {"rt": -1, "stimulus": "<p id=\"stim\">MASK</p>", "key_press": -1, "type": "PRES_VIS", "word": "mask", "wordID": 875, "conditions": [24, 1600, "v", 24000], "trial": 2, "serialpos": 13, "trial_type": "single-stim", "trial_index": 102, "time_elapsed": 761630, "internal_node_id": "0.0-75.0"}}, {"uniqueid": "MTK0304:30BUDKLTXE2221M7EB4VYFI0ASJE50", "current_trial": 103, "dateTime": 1510702356739, "trialdata": {"rt": -1, "stimulus": "<p id=\"stim\">TEMPLE</p>", "key_press": -1, "type": "PRES_VIS", "word": "temple", "wordID": 1447, "conditions": [24, 1600, "v", 24000], "trial": 2, "serialpos": 14, "trial_type": "single-stim", "trial_index": 103, "time_elapsed": 764148, "internal_node_id": "0.0-76.0"}}, {"uniqueid": "MTK0304:30BUDKLTXE2221M7EB4VYFI0ASJE50", "current_trial": 104, "dateTime": 1510702359253, "trialdata": {"rt": -1, "stimulus": "<p id=\"stim\">CREVICE</p>", "key_press": -1, "type": "PRES_VIS", "word": "crevice", "wordID": 404, "conditions": [24, 1600, "v", 24000], "trial": 2, "serialpos": 15, "trial_type": "single-stim", "trial_index": 104, "time_elapsed": 766659, "internal_node_id": "0.0-77.0"}}, {"uniqueid": "MTK0304:30BUDKLTXE2221M7EB4VYFI0ASJE50", "current_trial": 105, "dateTime": 1510702361986, "trialdata": {"rt": -1, "stimulus": "<p id=\"stim\">LEG</p>", "key_press": -1, "type": "PRES_VIS", "word": "leg", "wordID": 808, "conditions": [24, 1600, "v", 24000], "trial": 2, "serialpos": 16, "trial_type": "single-stim", "trial_index": 105, "time_elapsed": 769394, "internal_node_id": "0.0-78.0"}}, {"uniqueid": "MTK0304:30BUDKLTXE2221M7EB4VYFI0ASJE50", "current_trial": 106, "dateTime": 1510702364399, "trialdata": {"rt": -1, "stimulus": "<p id=\"stim\">ANKLE</p>", "key_press": -1, "type": "PRES_VIS", "word": "ankle", "wordID": 23, "conditions": [24, 1600, "v", 24000], "trial": 2, "serialpos": 17, "trial_type": "single-stim", "trial_index": 106, "time_elapsed": 771808, "internal_node_id": "0.0-79.0"}}, {"uniqueid": "MTK0304:30BUDKLTXE2221M7EB4VYFI0ASJE50", "current_trial": 107, "dateTime": 1510702366907, "trialdata": {"rt": -1, "stimulus": "<p id=\"stim\">NURSE</p>", "key_press": -1, "type": "PRES_VIS", "word": "nurse", "wordID": 962, "conditions": [24, 1600, "v", 24000], "trial": 2, "serialpos": 18, "trial_type": "single-stim", "trial_index": 107, "time_elapsed": 774316, "internal_node_id": "0.0-80.0"}}, {"uniqueid": "MTK0304:30BUDKLTXE2221M7EB4VYFI0ASJE50", "current_trial": 108, "dateTime": 1510702369667, "trialdata": {"rt": -1, "stimulus": "<p id=\"stim\">CUSTARD</p>", "key_press": -1, "type": "PRES_VIS", "word": "custard", "wordID": 428, "conditions": [24, 1600, "v", 24000], "trial": 2, "serialpos": 19, "trial_type": "single-stim", "trial_index": 108, "time_elapsed": 777076, "internal_node_id": "0.0-81.0"}}, {"uniqueid": "MTK0304:30BUDKLTXE2221M7EB4VYFI0ASJE50", "current_trial": 109, "dateTime": 1510702372105, "trialdata": {"rt": -1, "stimulus": "<p id=\"stim\">SPACE</p>", "key_press": -1, "type": "PRES_VIS", "word": "space", "wordID": 1344, "conditions": [24, 1600, "v", 24000], "trial": 2, "serialpos": 20, "trial_type": "single-stim", "trial_index": 109, "time_elapsed": 779514, "internal_node_id": "0.0-82.0"}}, {"uniqueid": "MTK0304:30BUDKLTXE2221M7EB4VYFI0ASJE50", "current_trial": 110, "dateTime": 1510702374529, "trialdata": {"rt": -1, "stimulus": "<p id=\"stim\">ONION</p>", "key_press": -1, "type": "PRES_VIS", "word": "onion", "wordID": 976, "conditions": [24, 1600, "v", 24000], "trial": 2, "serialpos": 21, "trial_type": "single-stim", "trial_index": 110, "time_elapsed": 781937, "internal_node_id": "0.0-83.0"}}, {"uniqueid": "MTK0304:30BUDKLTXE2221M7EB4VYFI0ASJE50", "current_trial": 111, "dateTime": 1510702377170, "trialdata": {"rt": -1, "stimulus": "<p id=\"stim\">CHURCH</p>", "key_press": -1, "type": "PRES_VIS", "word": "church", "wordID": 306, "conditions": [24, 1600, "v", 24000], "trial": 2, "serialpos": 22, "trial_type": "single-stim", "trial_index": 111, "time_elapsed": 784579, "internal_node_id": "0.0-84.0"}}, {"uniqueid": "MTK0304:30BUDKLTXE2221M7EB4VYFI0ASJE50", "current_trial": 112, "dateTime": 1510702379799, "trialdata": {"rt": -1, "stimulus": "<p id=\"stim\">PATIENT</p>", "key_press": -1, "type": "PRES_VIS", "word": "patient", "wordID": 1023, "conditions": [24, 1600, "v", 24000], "trial": 2, "serialpos": 23, "trial_type": "single-stim", "trial_index": 112, "time_elapsed": 787208, "internal_node_id": "0.0-85.0"}}, {"uniqueid": "MTK0304:30BUDKLTXE2221M7EB4VYFI0ASJE50", "current_trial": 113, "dateTime": 1510702381887, "trialdata": {"rt": -1, "stimulus": "", "key_press": -1, "type": "PRE_RECALL_DELAY", "trial_type": "single-stim", "trial_index": 113, "time_elapsed": 789296, "internal_node_id": "0.0-86.0-0.0"}}, {"uniqueid": "MTK0304:30BUDKLTXE2221M7EB4VYFI0ASJE50", "current_trial": 114, "dateTime": 1510702382390, "trialdata": {"rt": -1000, "stimulus": "/static/audio/400Hz.wav", "key_press": -1, "type": "PRE_RECALL_ALERT", "trial_type": "single-audio", "trial_index": 114, "time_elapsed": 789798, "internal_node_id": "0.0-87.0"}}, {"uniqueid": "MTK0304:30BUDKLTXE2221M7EB4VYFI0ASJE50", "current_trial": 115, "dateTime": 1510702442396, "trialdata": {"rt": [4939, 6165, 7519, 8896, 21265, 27749, 34289, 35535, 59312], "recwords": ["patient", "nurse", "creature", "crevice", "nurse", "princess", "leg", "ankle", "patient"], "type": "FREE_RECALL", "conditions": [24, 1600, "v", 24000], "trial": 2, "trial_type": "free-recall", "trial_index": 115, "time_elapsed": 849801, "internal_node_id": "0.0-88.0-0.0"}}, {"uniqueid": "MTK0304:30BUDKLTXE2221M7EB4VYFI0ASJE50", "current_trial": 116, "dateTime": 1510702445867, "trialdata": {"rt": 1467, "key_press": 32, "type": "INSTRUCTIONS", "trial_type": "text", "trial_index": 116, "time_elapsed": 853276, "internal_node_id": "0.0-89.0"}}, {"uniqueid": "MTK0304:30BUDKLTXE2221M7EB4VYFI0ASJE50", "current_trial": 117, "dateTime": 1510702471872, "trialdata": {"rt": [6048, 10831, 14015, 16184, 18161, 21662, 23845], "responses": ["21", "20", "12", "16", "13", "13", "11"], "num1": [6, 7, 1, 9, 1, 5, 8, 4], "num2": [8, 9, 4, 5, 6, 7, 1, 7], "num3": [5, 4, 7, 2, 6, 6, 2, 5], "type": "DISTRACTOR", "conditions": [24, 1600, "a", 24000], "trial": 3, "trial_type": "math-distractor", "trial_index": 117, "time_elapsed": 879281, "internal_node_id": "0.0-90.0"}}, {"uniqueid": "MTK0304:30BUDKLTXE2221M7EB4VYFI0ASJE50", "current_trial": 118, "dateTime": 1510702474877, "trialdata": {"rt": -1, "stimulus": "<p id=\"stim\">10</p>", "key_press": -1, "trial_type": "single-stim", "trial_index": 118, "time_elapsed": 882286, "internal_node_id": "0.0-91.0-0.0"}}, {"uniqueid": "MTK0304:30BUDKLTXE2221M7EB4VYFI0ASJE50", "current_trial": 119, "dateTime": 1510702475878, "trialdata": {"rt": -1, "stimulus": "<p id=\"stim\">9</p>", "key_press": -1, "trial_type": "single-stim", "trial_index": 119, "time_elapsed": 883287, "internal_node_id": "0.0-91.0-1.0"}}, {"uniqueid": "MTK0304:30BUDKLTXE2221M7EB4VYFI0ASJE50", "current_trial": 120, "dateTime": 1510702476880, "trialdata": {"rt": -1, "stimulus": "<p id=\"stim\">8</p>", "key_press": -1, "trial_type": "single-stim", "trial_index": 120, "time_elapsed": 884289, "internal_node_id": "0.0-91.0-2.0"}}, {"uniqueid": "MTK0304:30BUDKLTXE2221M7EB4VYFI0ASJE50", "current_trial": 121, "dateTime": 1510702477884, "trialdata": {"rt": -1, "stimulus": "<p id=\"stim\">7</p>", "key_press": -1, "trial_type": "single-stim", "trial_index": 121, "time_elapsed": 885292, "internal_node_id": "0.0-91.0-3.0"}}, {"uniqueid": "MTK0304:30BUDKLTXE2221M7EB4VYFI0ASJE50", "current_trial": 122, "dateTime": 1510702478886, "trialdata": {"rt": -1, "stimulus": "<p id=\"stim\">6</p>", "key_press": -1, "trial_type": "single-stim", "trial_index": 122, "time_elapsed": 886294, "internal_node_id": "0.0-91.0-4.0"}}, {"uniqueid": "MTK0304:30BUDKLTXE2221M7EB4VYFI0ASJE50", "current_trial": 123, "dateTime": 1510702479888, "trialdata": {"rt": -1, "stimulus": "<p id=\"stim\">5</p>", "key_press": -1, "trial_type": "single-stim", "trial_index": 123, "time_elapsed": 887297, "internal_node_id": "0.0-91.0-5.0"}}, {"uniqueid": "MTK0304:30BUDKLTXE2221M7EB4VYFI0ASJE50", "current_trial": 124, "dateTime": 1510702480890, "trialdata": {"rt": -1, "stimulus": "<p id=\"stim\">4</p>", "key_press": -1, "trial_type": "single-stim", "trial_index": 124, "time_elapsed": 888299, "internal_node_id": "0.0-91.0-6.0"}}, {"uniqueid": "MTK0304:30BUDKLTXE2221M7EB4VYFI0ASJE50", "current_trial": 125, "dateTime": 1510702481892, "trialdata": {"rt": -1, "stimulus": "<p id=\"stim\">3</p>", "key_press": -1, "trial_type": "single-stim", "trial_index": 125, "time_elapsed": 889301, "internal_node_id": "0.0-91.0-7.0"}}, {"uniqueid": "MTK0304:30BUDKLTXE2221M7EB4VYFI0ASJE50", "current_trial": 126, "dateTime": 1510702482893, "trialdata": {"rt": -1, "stimulus": "<p id=\"stim\">2</p>", "key_press": -1, "trial_type": "single-stim", "trial_index": 126, "time_elapsed": 890302, "internal_node_id": "0.0-91.0-8.0"}}, {"uniqueid": "MTK0304:30BUDKLTXE2221M7EB4VYFI0ASJE50", "current_trial": 127, "dateTime": 1510702483895, "trialdata": {"rt": -1, "stimulus": "<p id=\"stim\">1</p>", "key_press": -1, "trial_type": "single-stim", "trial_index": 127, "time_elapsed": 891304, "internal_node_id": "0.0-91.0-9.0"}}, {"uniqueid": "MTK0304:30BUDKLTXE2221M7EB4VYFI0ASJE50", "current_trial": 128, "dateTime": 1510702485397, "trialdata": {"rt": -1, "stimulus": "<p id=\"stim\">+</p>", "key_press": -1, "type": "FIXATION", "trial_type": "single-stim", "trial_index": 128, "time_elapsed": 892806, "internal_node_id": "0.0-92.0-0.0"}}, {"uniqueid": "MTK0304:30BUDKLTXE2221M7EB4VYFI0ASJE50", "current_trial": 129, "dateTime": 1510702488039, "trialdata": {"rt": -1000, "stimulus": "/static/audio/wordpool/POPCORN.wav", "key_press": -1, "type": "PRES_AUD", "word": "popcorn", "wordID": 1103, "conditions": [24, 1600, "a", 24000], "trial": 3, "serialpos": 0, "trial_type": "single-audio", "trial_index": 129, "time_elapsed": 895448, "internal_node_id": "0.0-93.0"}}, {"uniqueid": "MTK0304:30BUDKLTXE2221M7EB4VYFI0ASJE50", "current_trial": 130, "dateTime": 1510702490458, "trialdata": {"rt": -1000, "stimulus": "/static/audio/wordpool/GRAPE.wav", "key_press": -1, "type": "PRES_AUD", "word": "grape", "wordID": 653, "conditions": [24, 1600, "a", 24000], "trial": 3, "serialpos": 1, "trial_type": "single-audio", "trial_index": 130, "time_elapsed": 897867, "internal_node_id": "0.0-94.0"}}, {"uniqueid": "MTK0304:30BUDKLTXE2221M7EB4VYFI0ASJE50", "current_trial": 131, "dateTime": 1510702493260, "trialdata": {"rt": -1000, "stimulus": "/static/audio/wordpool/INMATE.wav", "key_press": -1, "type": "PRES_AUD", "word": "inmate", "wordID": 737, "conditions": [24, 1600, "a", 24000], "trial": 3, "serialpos": 2, "trial_type": "single-audio", "trial_index": 131, "time_elapsed": 900669, "internal_node_id": "0.0-95.0"}}, {"uniqueid": "MTK0304:30BUDKLTXE2221M7EB4VYFI0ASJE50", "current_trial": 132, "dateTime": 1510702495782, "trialdata": {"rt": -1000, "stimulus": "/static/audio/wordpool/CANDY.wav", "key_press": -1, "type": "PRES_AUD", "word": "candy", "wordID": 229, "conditions": [24, 1600, "a", 24000], "trial": 3, "serialpos": 3, "trial_type": "single-audio", "trial_index": 132, "time_elapsed": 903190, "internal_node_id": "0.0-96.0"}}, {"uniqueid": "MTK0304:30BUDKLTXE2221M7EB4VYFI0ASJE50", "current_trial": 133, "dateTime": 1510702498223, "trialdata": {"rt": -1000, "stimulus": "/static/audio/wordpool/BUG.wav", "key_press": -1, "type": "PRES_AUD", "word": "bug", "wordID": 186, "conditions": [24, 1600, "a", 24000], "trial": 3, "serialpos": 4, "trial_type": "single-audio", "trial_index": 133, "time_elapsed": 905632, "internal_node_id": "0.0-97.0"}}, {"uniqueid": "MTK0304:30BUDKLTXE2221M7EB4VYFI0ASJE50", "current_trial": 134, "dateTime": 1510702500703, "trialdata": {"rt": -1000, "stimulus": "/static/audio/wordpool/TERMITE.wav", "key_press": -1, "type": "PRES_AUD", "word": "termite", "wordID": 1450, "conditions": [24, 1600, "a", 24000], "trial": 3, "serialpos": 5, "trial_type": "single-audio", "trial_index": 134, "time_elapsed": 908112, "internal_node_id": "0.0-98.0"}}, {"uniqueid": "MTK0304:30BUDKLTXE2221M7EB4VYFI0ASJE50", "current_trial": 135, "dateTime": 1510702503212, "trialdata": {"rt": -1000, "stimulus": "/static/audio/wordpool/BARREL.wav", "key_press": -1, "type": "PRES_AUD", "word": "barrel", "wordID": 90, "conditions": [24, 1600, "a", 24000], "trial": 3, "serialpos": 6, "trial_type": "single-audio", "trial_index": 135, "time_elapsed": 910620, "internal_node_id": "0.0-99.0"}}, {"uniqueid": "MTK0304:30BUDKLTXE2221M7EB4VYFI0ASJE50", "current_trial": 136, "dateTime": 1510702505792, "trialdata": {"rt": -1000, "stimulus": "/static/audio/wordpool/PASTA.wav", "key_press": -1, "type": "PRES_AUD", "word": "pasta", "wordID": 1020, "conditions": [24, 1600, "a", 24000], "trial": 3, "serialpos": 7, "trial_type": "single-audio", "trial_index": 136, "time_elapsed": 913200, "internal_node_id": "0.0-100.0"}}, {"uniqueid": "MTK0304:30BUDKLTXE2221M7EB4VYFI0ASJE50", "current_trial": 137, "dateTime": 1510702508462, "trialdata": {"rt": -1000, "stimulus": "/static/audio/wordpool/OMELET.wav", "key_press": -1, "type": "PRES_AUD", "word": "omelet", "wordID": 975, "conditions": [24, 1600, "a", 24000], "trial": 3, "serialpos": 8, "trial_type": "single-audio", "trial_index": 137, "time_elapsed": 915871, "internal_node_id": "0.0-101.0"}}, {"uniqueid": "MTK0304:30BUDKLTXE2221M7EB4VYFI0ASJE50", "current_trial": 138, "dateTime": 1510702511005, "trialdata": {"rt": -1000, "stimulus": "/static/audio/wordpool/SODA.wav", "key_press": -1, "type": "PRES_AUD", "word": "soda", "wordID": 1340, "conditions": [24, 1600, "a", 24000], "trial": 3, "serialpos": 9, "trial_type": "single-audio", "trial_index": 138, "time_elapsed": 918414, "internal_node_id": "0.0-102.0"}}, {"uniqueid": "MTK0304:30BUDKLTXE2221M7EB4VYFI0ASJE50", "current_trial": 139, "dateTime": 1510702513789, "trialdata": {"rt": -1000, "stimulus": "/static/audio/wordpool/CELLAR.wav", "key_press": -1, "type": "PRES_AUD", "word": "cellar", "wordID": 266, "conditions": [24, 1600, "a", 24000], "trial": 3, "serialpos": 10, "trial_type": "single-audio", "trial_index": 139, "time_elapsed": 921198, "internal_node_id": "0.0-103.0"}}, {"uniqueid": "MTK0304:30BUDKLTXE2221M7EB4VYFI0ASJE50", "current_trial": 140, "dateTime": 1510702516311, "trialdata": {"rt": -1000, "stimulus": "/static/audio/wordpool/CRAB.wav", "key_press": -1, "type": "PRES_AUD", "word": "crab", "wordID": 396, "conditions": [24, 1600, "a", 24000], "trial": 3, "serialpos": 11, "trial_type": "single-audio", "trial_index": 140, "time_elapsed": 923720, "internal_node_id": "0.0-104.0"}}, {"uniqueid": "MTK0304:30BUDKLTXE2221M7EB4VYFI0ASJE50", "current_trial": 141, "dateTime": 1510702518888, "trialdata": {"rt": -1000, "stimulus": "/static/audio/wordpool/DENIM.wav", "key_press": -1, "type": "PRES_AUD", "word": "denim", "wordID": 445, "conditions": [24, 1600, "a", 24000], "trial": 3, "serialpos": 12, "trial_type": "single-audio", "trial_index": 141, "time_elapsed": 926297, "internal_node_id": "0.0-105.0"}}, {"uniqueid": "MTK0304:30BUDKLTXE2221M7EB4VYFI0ASJE50", "current_trial": 142, "dateTime": 1510702521624, "trialdata": {"rt": -1000, "stimulus": "/static/audio/wordpool/RAFT.wav", "key_press": -1, "type": "PRES_AUD", "word": "raft", "wordID": 1158, "conditions": [24, 1600, "a", 24000], "trial": 3, "serialpos": 13, "trial_type": "single-audio", "trial_index": 142, "time_elapsed": 929032, "internal_node_id": "0.0-106.0"}}, {"uniqueid": "MTK0304:30BUDKLTXE2221M7EB4VYFI0ASJE50", "current_trial": 143, "dateTime": 1510702524125, "trialdata": {"rt": -1000, "stimulus": "/static/audio/wordpool/SALMON.wav", "key_press": -1, "type": "PRES_AUD", "word": "salmon", "wordID": 1226, "conditions": [24, 1600, "a", 24000], "trial": 3, "serialpos": 14, "trial_type": "single-audio", "trial_index": 143, "time_elapsed": 931534, "internal_node_id": "0.0-107.0"}}, {"uniqueid": "MTK0304:30BUDKLTXE2221M7EB4VYFI0ASJE50", "current_trial": 144, "dateTime": 1510702526725, "trialdata": {"rt": -1000, "stimulus": "/static/audio/wordpool/TROUT.wav", "key_press": -1, "type": "PRES_AUD", "word": "trout", "wordID": 1510, "conditions": [24, 1600, "a", 24000], "trial": 3, "serialpos": 15, "trial_type": "single-audio", "trial_index": 144, "time_elapsed": 934134, "internal_node_id": "0.0-108.0"}}, {"uniqueid": "MTK0304:30BUDKLTXE2221M7EB4VYFI0ASJE50", "current_trial": 145, "dateTime": 1510702529230, "trialdata": {"rt": -1000, "stimulus": "/static/audio/wordpool/ICEBERG.wav", "key_press": -1, "type": "PRES_AUD", "word": "iceberg", "wordID": 730, "conditions": [24, 1600, "a", 24000], "trial": 3, "serialpos": 16, "trial_type": "single-audio", "trial_index": 145, "time_elapsed": 936639, "internal_node_id": "0.0-109.0"}}, {"uniqueid": "MTK0304:30BUDKLTXE2221M7EB4VYFI0ASJE50", "current_trial": 146, "dateTime": 1510702531733, "trialdata": {"rt": -1000, "stimulus": "/static/audio/wordpool/COMET.wav", "key_press": -1, "type": "PRES_AUD", "word": "comet", "wordID": 352, "conditions": [24, 1600, "a", 24000], "trial": 3, "serialpos": 17, "trial_type": "single-audio", "trial_index": 146, "time_elapsed": 939142, "internal_node_id": "0.0-110.0"}}, {"uniqueid": "MTK0304:30BUDKLTXE2221M7EB4VYFI0ASJE50", "current_trial": 147, "dateTime": 1510702534428, "trialdata": {"rt": -1000, "stimulus": "/static/audio/wordpool/BLOUSE.wav", "key_press": -1, "type": "PRES_AUD", "word": "blouse", "wordID": 138, "conditions": [24, 1600, "a", 24000], "trial": 3, "serialpos": 18, "trial_type": "single-audio", "trial_index": 147, "time_elapsed": 941837, "internal_node_id": "0.0-111.0"}}, {"uniqueid": "MTK0304:30BUDKLTXE2221M7EB4VYFI0ASJE50", "current_trial": 148, "dateTime": 1510702537008, "trialdata": {"rt": -1000, "stimulus": "/static/audio/wordpool/SWORD.wav", "key_press": -1, "type": "PRES_AUD", "word": "sword", "wordID": 1422, "conditions": [24, 1600, "a", 24000], "trial": 3, "serialpos": 19, "trial_type": "single-audio", "trial_index": 148, "time_elapsed": 944417, "internal_node_id": "0.0-112.0"}}, {"uniqueid": "MTK0304:30BUDKLTXE2221M7EB4VYFI0ASJE50", "current_trial": 149, "dateTime": 1510702539627, "trialdata": {"rt": -1000, "stimulus": "/static/audio/wordpool/FOX.wav", "key_press": -1, "type": "PRES_AUD", "word": "fox", "wordID": 597, "conditions": [24, 1600, "a", 24000], "trial": 3, "serialpos": 20, "trial_type": "single-audio", "trial_index": 149, "time_elapsed": 947035, "internal_node_id": "0.0-113.0"}}, {"uniqueid": "MTK0304:30BUDKLTXE2221M7EB4VYFI0ASJE50", "current_trial": 150, "dateTime": 1510702542095, "trialdata": {"rt": -1000, "stimulus": "/static/audio/wordpool/TREAT.wav", "key_press": -1, "type": "PRES_AUD", "word": "treat", "wordID": 1500, "conditions": [24, 1600, "a", 24000], "trial": 3, "serialpos": 21, "trial_type": "single-audio", "trial_index": 150, "time_elapsed": 949503, "internal_node_id": "0.0-114.0"}}, {"uniqueid": "MTK0304:30BUDKLTXE2221M7EB4VYFI0ASJE50", "current_trial": 151, "dateTime": 1510702544649, "trialdata": {"rt": -1000, "stimulus": "/static/audio/wordpool/LABEL.wav", "key_press": -1, "type": "PRES_AUD", "word": "label", "wordID": 789, "conditions": [24, 1600, "a", 24000], "trial": 3, "serialpos": 22, "trial_type": "single-audio", "trial_index": 151, "time_elapsed": 952058, "internal_node_id": "0.0-115.0"}}, {"uniqueid": "MTK0304:30BUDKLTXE2221M7EB4VYFI0ASJE50", "current_trial": 152, "dateTime": 1510702547074, "trialdata": {"rt": -1000, "stimulus": "/static/audio/wordpool/FLASHLIGHT.wav", "key_press": -1, "type": "PRES_AUD", "word": "flashlight", "wordID": 574, "conditions": [24, 1600, "a", 24000], "trial": 3, "serialpos": 23, "trial_type": "single-audio", "trial_index": 152, "time_elapsed": 954483, "internal_node_id": "0.0-116.0"}}, {"uniqueid": "MTK0304:30BUDKLTXE2221M7EB4VYFI0ASJE50", "current_trial": 153, "dateTime": 1510702548404, "trialdata": {"rt": -1, "stimulus": "", "key_press": -1, "type": "PRE_RECALL_DELAY", "trial_type": "single-stim", "trial_index": 153, "time_elapsed": 955813, "internal_node_id": "0.0-117.0-0.0"}}, {"uniqueid": "MTK0304:30BUDKLTXE2221M7EB4VYFI0ASJE50", "current_trial": 154, "dateTime": 1510702548905, "trialdata": {"rt": -1000, "stimulus": "/static/audio/400Hz.wav", "key_press": -1, "type": "PRE_RECALL_ALERT", "trial_type": "single-audio", "trial_index": 154, "time_elapsed": 956314, "internal_node_id": "0.0-118.0"}}, {"uniqueid": "MTK0304:30BUDKLTXE2221M7EB4VYFI0ASJE50", "current_trial": 155, "dateTime": 1510702608916, "trialdata": {"rt": [2278, 4132, 5074, 5897, 21458, 27015], "recwords": ["label", "flashlight", "treat", "fox", "label", "treat"], "type": "FREE_RECALL", "conditions": [24, 1600, "a", 24000], "trial": 3, "trial_type": "free-recall", "trial_index": 155, "time_elapsed": 1016318, "internal_node_id": "0.0-119.0-0.0"}}, {"uniqueid": "MTK0304:30BUDKLTXE2221M7EB4VYFI0ASJE50", "current_trial": 156, "dateTime": 1510702612066, "trialdata": {"rt": 1148, "key_press": 13, "type": "INSTRUCTIONS", "trial_type": "text", "trial_index": 156, "time_elapsed": 1019475, "internal_node_id": "0.0-120.0"}}, {"uniqueid": "MTK0304:30BUDKLTXE2221M7EB4VYFI0ASJE50", "current_trial": 157, "dateTime": 1510702638071, "trialdata": {"rt": [3841, 6175, 8784, 12340, 14278, 16696, 19116, 22614], "responses": ["17", "10", "9", "11", "17", "11", "18", "21"], "num1": [4, 8, 4, 2, 8, 2, 4, 8, 5], "num2": [8, 1, 2, 4, 8, 1, 7, 6, 9], "num3": [5, 1, 3, 5, 1, 8, 7, 6, 4], "type": "DISTRACTOR", "conditions": [12, 800, "v", 24000], "trial": 4, "trial_type": "math-distractor", "trial_index": 157, "time_elapsed": 1045479, "internal_node_id": "0.0-121.0"}}, {"uniqueid": "MTK0304:30BUDKLTXE2221M7EB4VYFI0ASJE50", "current_trial": 158, "dateTime": 1510702641072, "trialdata": {"rt": -1, "stimulus": "<p id=\"stim\">10</p>", "key_press": -1, "trial_type": "single-stim", "trial_index": 158, "time_elapsed": 1048481, "internal_node_id": "0.0-122.0-0.0"}}, {"uniqueid": "MTK0304:30BUDKLTXE2221M7EB4VYFI0ASJE50", "current_trial": 159, "dateTime": 1510702642076, "trialdata": {"rt": -1, "stimulus": "<p id=\"stim\">9</p>", "key_press": -1, "trial_type": "single-stim", "trial_index": 159, "time_elapsed": 1049484, "internal_node_id": "0.0-122.0-1.0"}}, {"uniqueid": "MTK0304:30BUDKLTXE2221M7EB4VYFI0ASJE50", "current_trial": 160, "dateTime": 1510702643077, "trialdata": {"rt": -1, "stimulus": "<p id=\"stim\">8</p>", "key_press": -1, "trial_type": "single-stim", "trial_index": 160, "time_elapsed": 1050486, "internal_node_id": "0.0-122.0-2.0"}}, {"uniqueid": "MTK0304:30BUDKLTXE2221M7EB4VYFI0ASJE50", "current_trial": 161, "dateTime": 1510702644079, "trialdata": {"rt": -1, "stimulus": "<p id=\"stim\">7</p>", "key_press": -1, "trial_type": "single-stim", "trial_index": 161, "time_elapsed": 1051487, "internal_node_id": "0.0-122.0-3.0"}}, {"uniqueid": "MTK0304:30BUDKLTXE2221M7EB4VYFI0ASJE50", "current_trial": 162, "dateTime": 1510702645081, "trialdata": {"rt": -1, "stimulus": "<p id=\"stim\">6</p>", "key_press": -1, "trial_type": "single-stim", "trial_index": 162, "time_elapsed": 1052489, "internal_node_id": "0.0-122.0-4.0"}}, {"uniqueid": "MTK0304:30BUDKLTXE2221M7EB4VYFI0ASJE50", "current_trial": 163, "dateTime": 1510702646082, "trialdata": {"rt": -1, "stimulus": "<p id=\"stim\">5</p>", "key_press": -1, "trial_type": "single-stim", "trial_index": 163, "time_elapsed": 1053491, "internal_node_id": "0.0-122.0-5.0"}}, {"uniqueid": "MTK0304:30BUDKLTXE2221M7EB4VYFI0ASJE50", "current_trial": 164, "dateTime": 1510702647085, "trialdata": {"rt": -1, "stimulus": "<p id=\"stim\">4</p>", "key_press": -1, "trial_type": "single-stim", "trial_index": 164, "time_elapsed": 1054494, "internal_node_id": "0.0-122.0-6.0"}}, {"uniqueid": "MTK0304:30BUDKLTXE2221M7EB4VYFI0ASJE50", "current_trial": 165, "dateTime": 1510702648087, "trialdata": {"rt": -1, "stimulus": "<p id=\"stim\">3</p>", "key_press": -1, "trial_type": "single-stim", "trial_index": 165, "time_elapsed": 1055496, "internal_node_id": "0.0-122.0-7.0"}}, {"uniqueid": "MTK0304:30BUDKLTXE2221M7EB4VYFI0ASJE50", "current_trial": 166, "dateTime": 1510702649089, "trialdata": {"rt": -1, "stimulus": "<p id=\"stim\">2</p>", "key_press": -1, "trial_type": "single-stim", "trial_index": 166, "time_elapsed": 1056498, "internal_node_id": "0.0-122.0-8.0"}}, {"uniqueid": "MTK0304:30BUDKLTXE2221M7EB4VYFI0ASJE50", "current_trial": 167, "dateTime": 1510702650091, "trialdata": {"rt": -1, "stimulus": "<p id=\"stim\">1</p>", "key_press": -1, "trial_type": "single-stim", "trial_index": 167, "time_elapsed": 1057500, "internal_node_id": "0.0-122.0-9.0"}}, {"uniqueid": "MTK0304:30BUDKLTXE2221M7EB4VYFI0ASJE50", "current_trial": 168, "dateTime": 1510702651596, "trialdata": {"rt": -1, "stimulus": "<p id=\"stim\">+</p>", "key_press": -1, "type": "FIXATION", "trial_type": "single-stim", "trial_index": 168, "time_elapsed": 1059002, "internal_node_id": "0.0-123.0-0.0"}}, {"uniqueid": "MTK0304:30BUDKLTXE2221M7EB4VYFI0ASJE50", "current_trial": 169, "dateTime": 1510702652398, "trialdata": {"rt": -1, "stimulus": "<p id=\"stim\">ATLAS</p>", "key_press": -1, "type": "PRES_VIS", "word": "atlas", "wordID": 52, "conditions": [12, 800, "v", 24000], "trial": 4, "serialpos": 0, "trial_type": "single-stim", "trial_index": 169, "time_elapsed": 1059807, "internal_node_id": "0.0-124.0"}}, {"uniqueid": "MTK0304:30BUDKLTXE2221M7EB4VYFI0ASJE50", "current_trial": 170, "dateTime": 1510702654025, "trialdata": {"rt": -1, "stimulus": "<p id=\"stim\">SKIRT</p>", "key_press": -1, "type": "PRES_VIS", "word": "skirt", "wordID": 1318, "conditions": [12, 800, "v", 24000], "trial": 4, "serialpos": 1, "trial_type": "single-stim", "trial_index": 170, "time_elapsed": 1061433, "internal_node_id": "0.0-125.0"}}, {"uniqueid": "MTK0304:30BUDKLTXE2221M7EB4VYFI0ASJE50", "current_trial": 171, "dateTime": 1510702655895, "trialdata": {"rt": -1, "stimulus": "<p id=\"stim\">TOMBSTONE</p>", "key_press": -1, "type": "PRES_VIS", "word": "tombstone", "wordID": 1477, "conditions": [12, 800, "v", 24000], "trial": 4, "serialpos": 2, "trial_type": "single-stim", "trial_index": 171, "time_elapsed": 1063304, "internal_node_id": "0.0-126.0"}}, {"uniqueid": "MTK0304:30BUDKLTXE2221M7EB4VYFI0ASJE50", "current_trial": 172, "dateTime": 1510702657523, "trialdata": {"rt": -1, "stimulus": "<p id=\"stim\">BRACES</p>", "key_press": -1, "type": "PRES_VIS", "word": "braces", "wordID": 163, "conditions": [12, 800, "v", 24000], "trial": 4, "serialpos": 3, "trial_type": "single-stim", "trial_index": 172, "time_elapsed": 1064932, "internal_node_id": "0.0-127.0"}}, {"uniqueid": "MTK0304:30BUDKLTXE2221M7EB4VYFI0ASJE50", "current_trial": 173, "dateTime": 1510702659224, "trialdata": {"rt": -1, "stimulus": "<p id=\"stim\">TABLET</p>", "key_press": -1, "type": "PRES_VIS", "word": "tablet", "wordID": 1426, "conditions": [12, 800, "v", 24000], "trial": 4, "serialpos": 4, "trial_type": "single-stim", "trial_index": 173, "time_elapsed": 1066633, "internal_node_id": "0.0-128.0"}}, {"uniqueid": "MTK0304:30BUDKLTXE2221M7EB4VYFI0ASJE50", "current_trial": 174, "dateTime": 1510702660872, "trialdata": {"rt": -1, "stimulus": "<p id=\"stim\">BANKER</p>", "key_press": -1, "type": "PRES_VIS", "word": "banker", "wordID": 83, "conditions": [12, 800, "v", 24000], "trial": 4, "serialpos": 5, "trial_type": "single-stim", "trial_index": 174, "time_elapsed": 1068281, "internal_node_id": "0.0-129.0"}}, {"uniqueid": "MTK0304:30BUDKLTXE2221M7EB4VYFI0ASJE50", "current_trial": 175, "dateTime": 1510702662498, "trialdata": {"rt": -1, "stimulus": "<p id=\"stim\">PORK</p>", "key_press": -1, "type": "PRES_VIS", "word": "pork", "wordID": 1107, "conditions": [12, 800, "v", 24000], "trial": 4, "serialpos": 6, "trial_type": "single-stim", "trial_index": 175, "time_elapsed": 1069907, "internal_node_id": "0.0-130.0"}}, {"uniqueid": "MTK0304:30BUDKLTXE2221M7EB4VYFI0ASJE50", "current_trial": 176, "dateTime": 1510702664453, "trialdata": {"rt": -1, "stimulus": "<p id=\"stim\">SAUSAGE</p>", "key_press": -1, "type": "PRES_VIS", "word": "sausage", "wordID": 1237, "conditions": [12, 800, "v", 24000], "trial": 4, "serialpos": 7, "trial_type": "single-stim", "trial_index": 176, "time_elapsed": 1071862, "internal_node_id": "0.0-131.0"}}, {"uniqueid": "MTK0304:30BUDKLTXE2221M7EB4VYFI0ASJE50", "current_trial": 177, "dateTime": 1510702666234, "trialdata": {"rt": -1, "stimulus": "<p id=\"stim\">PLUTO</p>", "key_press": -1, "type": "PRES_VIS", "word": "pluto", "wordID": 1091, "conditions": [12, 800, "v", 24000], "trial": 4, "serialpos": 8, "trial_type": "single-stim", "trial_index": 177, "time_elapsed": 1073642, "internal_node_id": "0.0-132.0"}}, {"uniqueid": "MTK0304:30BUDKLTXE2221M7EB4VYFI0ASJE50", "current_trial": 178, "dateTime": 1510702667956, "trialdata": {"rt": -1, "stimulus": "<p id=\"stim\">WORLD</p>", "key_press": -1, "type": "PRES_VIS", "word": "world", "wordID": 1621, "conditions": [12, 800, "v", 24000], "trial": 4, "serialpos": 9, "trial_type": "single-stim", "trial_index": 178, "time_elapsed": 1075365, "internal_node_id": "0.0-133.0"}}, {"uniqueid": "MTK0304:30BUDKLTXE2221M7EB4VYFI0ASJE50", "current_trial": 179, "dateTime": 1510702669764, "trialdata": {"rt": -1, "stimulus": "<p id=\"stim\">DRESS</p>", "key_press": -1, "type": "PRES_VIS", "word": "dress", "wordID": 494, "conditions": [12, 800, "v", 24000], "trial": 4, "serialpos": 10, "trial_type": "single-stim", "trial_index": 179, "time_elapsed": 1077173, "internal_node_id": "0.0-134.0"}}, {"uniqueid": "MTK0304:30BUDKLTXE2221M7EB4VYFI0ASJE50", "current_trial": 180, "dateTime": 1510702671414, "trialdata": {"rt": -1, "stimulus": "<p id=\"stim\">HATCHET</p>", "key_press": -1, "type": "PRES_VIS", "word": "hatchet", "wordID": 690, "conditions": [12, 800, "v", 24000], "trial": 4, "serialpos": 11, "trial_type": "single-stim", "trial_index": 180, "time_elapsed": 1078823, "internal_node_id": "0.0-135.0"}}, {"uniqueid": "MTK0304:30BUDKLTXE2221M7EB4VYFI0ASJE50", "current_trial": 181, "dateTime": 1510702673798, "trialdata": {"rt": -1, "stimulus": "", "key_press": -1, "type": "PRE_RECALL_DELAY", "trial_type": "single-stim", "trial_index": 181, "time_elapsed": 1081207, "internal_node_id": "0.0-136.0-0.0"}}, {"uniqueid": "MTK0304:30BUDKLTXE2221M7EB4VYFI0ASJE50", "current_trial": 182, "dateTime": 1510702674301, "trialdata": {"rt": -1000, "stimulus": "/static/audio/400Hz.wav", "key_press": -1, "type": "PRE_RECALL_ALERT", "trial_type": "single-audio", "trial_index": 182, "time_elapsed": 1081709, "internal_node_id": "0.0-137.0"}}, {"uniqueid": "MTK0304:30BUDKLTXE2221M7EB4VYFI0ASJE50", "current_trial": 183, "dateTime": 1510702734310, "trialdata": {"rt": [2593, 4147, 5937, 8890, 11181, 17899, 28073, 44179, 45719], "recwords": ["hatchet", "skirt", "dress", "sword", "tablet", "atlas", "hatchet", "world", "pluto"], "type": "FREE_RECALL", "conditions": [12, 800, "v", 24000], "trial": 4, "trial_type": "free-recall", "trial_index": 183, "time_elapsed": 1141714, "internal_node_id": "0.0-138.0-0.0"}}, {"uniqueid": "MTK0304:30BUDKLTXE2221M7EB4VYFI0ASJE50", "current_trial": 184, "dateTime": 1510702743316, "trialdata": {"rt": 7004, "key_press": 32, "type": "INSTRUCTIONS", "trial_type": "text", "trial_index": 184, "time_elapsed": 1150725, "internal_node_id": "0.0-139.0"}}, {"uniqueid": "MTK0304:30BUDKLTXE2221M7EB4VYFI0ASJE50", "current_trial": 185, "dateTime": 1510702757321, "trialdata": {"rt": [2317, 7717, 11049], "responses": ["14", "20", "17"], "num1": [6, 6, 3, 8], "num2": [1, 9, 7, 5], "num3": [7, 5, 7, 4], "type": "DISTRACTOR", "conditions": [24, 1600, "a", 12000], "trial": 5, "trial_type": "math-distractor", "trial_index": 185, "time_elapsed": 1164730, "internal_node_id": "0.0-140.0"}}, {"uniqueid": "MTK0304:30BUDKLTXE2221M7EB4VYFI0ASJE50", "current_trial": 186, "dateTime": 1510702760324, "trialdata": {"rt": -1, "stimulus": "<p id=\"stim\">10</p>", "key_press": -1, "trial_type": "single-stim", "trial_index": 186, "time_elapsed": 1167733, "internal_node_id": "0.0-141.0-0.0"}}, {"uniqueid": "MTK0304:30BUDKLTXE2221M7EB4VYFI0ASJE50", "current_trial": 187, "dateTime": 1510702761325, "trialdata": {"rt": -1, "stimulus": "<p id=\"stim\">9</p>", "key_press": -1, "trial_type": "single-stim", "trial_index": 187, "time_elapsed": 1168734, "internal_node_id": "0.0-141.0-1.0"}}, {"uniqueid": "MTK0304:30BUDKLTXE2221M7EB4VYFI0ASJE50", "current_trial": 188, "dateTime": 1510702762327, "trialdata": {"rt": -1, "stimulus": "<p id=\"stim\">8</p>", "key_press": -1, "trial_type": "single-stim", "trial_index": 188, "time_elapsed": 1169736, "internal_node_id": "0.0-141.0-2.0"}}, {"uniqueid": "MTK0304:30BUDKLTXE2221M7EB4VYFI0ASJE50", "current_trial": 189, "dateTime": 1510702763329, "trialdata": {"rt": -1, "stimulus": "<p id=\"stim\">7</p>", "key_press": -1, "trial_type": "single-stim", "trial_index": 189, "time_elapsed": 1170738, "internal_node_id": "0.0-141.0-3.0"}}, {"uniqueid": "MTK0304:30BUDKLTXE2221M7EB4VYFI0ASJE50", "current_trial": 190, "dateTime": 1510702764331, "trialdata": {"rt": -1, "stimulus": "<p id=\"stim\">6</p>", "key_press": -1, "trial_type": "single-stim", "trial_index": 190, "time_elapsed": 1171740, "internal_node_id": "0.0-141.0-4.0"}}, {"uniqueid": "MTK0304:30BUDKLTXE2221M7EB4VYFI0ASJE50", "current_trial": 191, "dateTime": 1510702765333, "trialdata": {"rt": -1, "stimulus": "<p id=\"stim\">5</p>", "key_press": -1, "trial_type": "single-stim", "trial_index": 191, "time_elapsed": 1172742, "internal_node_id": "0.0-141.0-5.0"}}, {"uniqueid": "MTK0304:30BUDKLTXE2221M7EB4VYFI0ASJE50", "current_trial": 192, "dateTime": 1510702766335, "trialdata": {"rt": -1, "stimulus": "<p id=\"stim\">4</p>", "key_press": -1, "trial_type": "single-stim", "trial_index": 192, "time_elapsed": 1173744, "internal_node_id": "0.0-141.0-6.0"}}, {"uniqueid": "MTK0304:30BUDKLTXE2221M7EB4VYFI0ASJE50", "current_trial": 193, "dateTime": 1510702767337, "trialdata": {"rt": -1, "stimulus": "<p id=\"stim\">3</p>", "key_press": -1, "trial_type": "single-stim", "trial_index": 193, "time_elapsed": 1174746, "internal_node_id": "0.0-141.0-7.0"}}, {"uniqueid": "MTK0304:30BUDKLTXE2221M7EB4VYFI0ASJE50", "current_trial": 194, "dateTime": 1510702768339, "trialdata": {"rt": -1, "stimulus": "<p id=\"stim\">2</p>", "key_press": -1, "trial_type": "single-stim", "trial_index": 194, "time_elapsed": 1175748, "internal_node_id": "0.0-141.0-8.0"}}, {"uniqueid": "MTK0304:30BUDKLTXE2221M7EB4VYFI0ASJE50", "current_trial": 195, "dateTime": 1510702769342, "trialdata": {"rt": -1, "stimulus": "<p id=\"stim\">1</p>", "key_press": -1, "trial_type": "single-stim", "trial_index": 195, "time_elapsed": 1176750, "internal_node_id": "0.0-141.0-9.0"}}, {"uniqueid": "MTK0304:30BUDKLTXE2221M7EB4VYFI0ASJE50", "current_trial": 196, "dateTime": 1510702770845, "trialdata": {"rt": -1, "stimulus": "<p id=\"stim\">+</p>", "key_press": -1, "type": "FIXATION", "trial_type": "single-stim", "trial_index": 196, "time_elapsed": 1178253, "internal_node_id": "0.0-142.0-0.0"}}, {"uniqueid": "MTK0304:30BUDKLTXE2221M7EB4VYFI0ASJE50", "current_trial": 197, "dateTime": 1510702773603, "trialdata": {"rt": -1000, "stimulus": "/static/audio/wordpool/PORTRAIT.wav", "key_press": -1, "type": "PRES_AUD", "word": "portrait", "wordID": 1110, "conditions": [24, 1600, "a", 12000], "trial": 5, "serialpos": 0, "trial_type": "single-audio", "trial_index": 197, "time_elapsed": 1181012, "internal_node_id": "0.0-143.0"}}, {"uniqueid": "MTK0304:30BUDKLTXE2221M7EB4VYFI0ASJE50", "current_trial": 198, "dateTime": 1510702776309, "trialdata": {"rt": -1000, "stimulus": "/static/audio/wordpool/VELVET.wav", "key_press": -1, "type": "PRES_AUD", "word": "velvet", "wordID": 1554, "conditions": [24, 1600, "a", 12000], "trial": 5, "serialpos": 1, "trial_type": "single-audio", "trial_index": 198, "time_elapsed": 1183718, "internal_node_id": "0.0-144.0"}}, {"uniqueid": "MTK0304:30BUDKLTXE2221M7EB4VYFI0ASJE50", "current_trial": 199, "dateTime": 1510702778737, "trialdata": {"rt": -1000, "stimulus": "/static/audio/wordpool/SUNSET.wav", "key_press": -1, "type": "PRES_AUD", "word": "sunset", "wordID": 1407, "conditions": [24, 1600, "a", 12000], "trial": 5, "serialpos": 2, "trial_type": "single-audio", "trial_index": 199, "time_elapsed": 1186146, "internal_node_id": "0.0-145.0"}}, {"uniqueid": "MTK0304:30BUDKLTXE2221M7EB4VYFI0ASJE50", "current_trial": 200, "dateTime": 1510702781293, "trialdata": {"rt": -1000, "stimulus": "/static/audio/wordpool/PASSAGE.wav", "key_press": -1, "type": "PRES_AUD", "word": "passage", "wordID": 1018, "conditions": [24, 1600, "a", 12000], "trial": 5, "serialpos": 3, "trial_type": "single-audio", "trial_index": 200, "time_elapsed": 1188702, "internal_node_id": "0.0-146.0"}}, {"uniqueid": "MTK0304:30BUDKLTXE2221M7EB4VYFI0ASJE50", "current_trial": 201, "dateTime": 1510702783856, "trialdata": {"rt": -1000, "stimulus": "/static/audio/wordpool/SCARF.wav", "key_press": -1, "type": "PRES_AUD", "word": "scarf", "wordID": 1245, "conditions": [24, 1600, "a", 12000], "trial": 5, "serialpos": 4, "trial_type": "single-audio", "trial_index": 201, "time_elapsed": 1191265, "internal_node_id": "0.0-147.0"}}, {"uniqueid": "MTK0304:30BUDKLTXE2221M7EB4VYFI0ASJE50", "current_trial": 202, "dateTime": 1510702786415, "trialdata": {"rt": -1000, "stimulus": "/static/audio/wordpool/JELLO.wav", "key_press": -1, "type": "PRES_AUD", "word": "jello", "wordID": 753, "conditions": [24, 1600, "a", 12000], "trial": 5, "serialpos": 5, "trial_type": "single-audio", "trial_index": 202, "time_elapsed": 1193824, "internal_node_id": "0.0-148.0"}}, {"uniqueid": "MTK0304:30BUDKLTXE2221M7EB4VYFI0ASJE50", "current_trial": 203, "dateTime": 1510702789061, "trialdata": {"rt": -1000, "stimulus": "/static/audio/wordpool/SCOTCH.wav", "key_press": -1, "type": "PRES_AUD", "word": "scotch", "wordID": 1250, "conditions": [24, 1600, "a", 12000], "trial": 5, "serialpos": 6, "trial_type": "single-audio", "trial_index": 203, "time_elapsed": 1196470, "internal_node_id": "0.0-149.0"}}, {"uniqueid": "MTK0304:30BUDKLTXE2221M7EB4VYFI0ASJE50", "current_trial": 204, "dateTime": 1510702791847, "trialdata": {"rt": -1000, "stimulus": "/static/audio/wordpool/BRANDY.wav", "key_press": -1, "type": "PRES_AUD", "word": "brandy", "wordID": 168, "conditions": [24, 1600, "a", 12000], "trial": 5, "serialpos": 7, "trial_type": "single-audio", "trial_index": 204, "time_elapsed": 1199256, "internal_node_id": "0.0-150.0"}}, {"uniqueid": "MTK0304:30BUDKLTXE2221M7EB4VYFI0ASJE50", "current_trial": 205, "dateTime": 1510702794349, "trialdata": {"rt": -1000, "stimulus": "/static/audio/wordpool/BUBBLE.wav", "key_press": -1, "type": "PRES_AUD", "word": "bubble", "wordID": 182, "conditions": [24, 1600, "a", 12000], "trial": 5, "serialpos": 8, "trial_type": "single-audio", "trial_index": 205, "time_elapsed": 1201757, "internal_node_id": "0.0-151.0"}}, {"uniqueid": "MTK0304:30BUDKLTXE2221M7EB4VYFI0ASJE50", "current_trial": 206, "dateTime": 1510702796880, "trialdata": {"rt": -1000, "stimulus": "/static/audio/wordpool/PISTOL.wav", "key_press": -1, "type": "PRES_AUD", "word": "pistol", "wordID": 1074, "conditions": [24, 1600, "a", 12000], "trial": 5, "serialpos": 9, "trial_type": "single-audio", "trial_index": 206, "time_elapsed": 1204288, "internal_node_id": "0.0-152.0"}}, {"uniqueid": "MTK0304:30BUDKLTXE2221M7EB4VYFI0ASJE50", "current_trial": 207, "dateTime": 1510702799638, "trialdata": {"rt": -1000, "stimulus": "/static/audio/wordpool/COUNTRY.wav", "key_press": -1, "type": "PRES_AUD", "word": "country", "wordID": 387, "conditions": [24, 1600, "a", 12000], "trial": 5, "serialpos": 10, "trial_type": "single-audio", "trial_index": 207, "time_elapsed": 1207047, "internal_node_id": "0.0-153.0"}}, {"uniqueid": "MTK0304:30BUDKLTXE2221M7EB4VYFI0ASJE50", "current_trial": 208, "dateTime": 1510702802196, "trialdata": {"rt": -1000, "stimulus": "/static/audio/wordpool/LACE.wav", "key_press": -1, "type": "PRES_AUD", "word": "lace", "wordID": 791, "conditions": [24, 1600, "a", 12000], "trial": 5, "serialpos": 11, "trial_type": "single-audio", "trial_index": 208, "time_elapsed": 1209605, "internal_node_id": "0.0-154.0"}}, {"uniqueid": "MTK0304:30BUDKLTXE2221M7EB4VYFI0ASJE50", "current_trial": 209, "dateTime": 1510702804988, "trialdata": {"rt": -1000, "stimulus": "/static/audio/wordpool/TABLE.wav", "key_press": -1, "type": "PRES_AUD", "word": "table", "wordID": 1425, "conditions": [24, 1600, "a", 12000], "trial": 5, "serialpos": 12, "trial_type": "single-audio", "trial_index": 209, "time_elapsed": 1212397, "internal_node_id": "0.0-155.0"}}, {"uniqueid": "MTK0304:30BUDKLTXE2221M7EB4VYFI0ASJE50", "current_trial": 210, "dateTime": 1510702807749, "trialdata": {"rt": -1000, "stimulus": "/static/audio/wordpool/GARBAGE.wav", "key_press": -1, "type": "PRES_AUD", "word": "garbage", "wordID": 621, "conditions": [24, 1600, "a", 12000], "trial": 5, "serialpos": 13, "trial_type": "single-audio", "trial_index": 210, "time_elapsed": 1215158, "internal_node_id": "0.0-156.0"}}, {"uniqueid": "MTK0304:30BUDKLTXE2221M7EB4VYFI0ASJE50", "current_trial": 211, "dateTime": 1510702810473, "trialdata": {"rt": -1000, "stimulus": "/static/audio/wordpool/MOTEL.wav", "key_press": -1, "type": "PRES_AUD", "word": "motel", "wordID": 918, "conditions": [24, 1600, "a", 12000], "trial": 5, "serialpos": 14, "trial_type": "single-audio", "trial_index": 211, "time_elapsed": 1217882, "internal_node_id": "0.0-157.0"}}, {"uniqueid": "MTK0304:30BUDKLTXE2221M7EB4VYFI0ASJE50", "current_trial": 212, "dateTime": 1510702813131, "trialdata": {"rt": -1000, "stimulus": "/static/audio/wordpool/NOMAD.wav", "key_press": -1, "type": "PRES_AUD", "word": "nomad", "wordID": 954, "conditions": [24, 1600, "a", 12000], "trial": 5, "serialpos": 15, "trial_type": "single-audio", "trial_index": 212, "time_elapsed": 1220540, "internal_node_id": "0.0-158.0"}}, {"uniqueid": "MTK0304:30BUDKLTXE2221M7EB4VYFI0ASJE50", "current_trial": 213, "dateTime": 1510702815583, "trialdata": {"rt": -1000, "stimulus": "/static/audio/wordpool/TORTOISE.wav", "key_press": -1, "type": "PRES_AUD", "word": "tortoise", "wordID": 1485, "conditions": [24, 1600, "a", 12000], "trial": 5, "serialpos": 16, "trial_type": "single-audio", "trial_index": 213, "time_elapsed": 1222992, "internal_node_id": "0.0-159.0"}}, {"uniqueid": "MTK0304:30BUDKLTXE2221M7EB4VYFI0ASJE50", "current_trial": 214, "dateTime": 1510702818087, "trialdata": {"rt": -1000, "stimulus": "/static/audio/wordpool/PANTHER.wav", "key_press": -1, "type": "PRES_AUD", "word": "panther", "wordID": 1008, "conditions": [24, 1600, "a", 12000], "trial": 5, "serialpos": 17, "trial_type": "single-audio", "trial_index": 214, "time_elapsed": 1225496, "internal_node_id": "0.0-160.0"}}, {"uniqueid": "MTK0304:30BUDKLTXE2221M7EB4VYFI0ASJE50", "current_trial": 215, "dateTime": 1510702820573, "trialdata": {"rt": -1000, "stimulus": "/static/audio/wordpool/BEAVER.wav", "key_press": -1, "type": "PRES_AUD", "word": "beaver", "wordID": 108, "conditions": [24, 1600, "a", 12000], "trial": 5, "serialpos": 18, "trial_type": "single-audio", "trial_index": 215, "time_elapsed": 1227981, "internal_node_id": "0.0-161.0"}}, {"uniqueid": "MTK0304:30BUDKLTXE2221M7EB4VYFI0ASJE50", "current_trial": 216, "dateTime": 1510702823285, "trialdata": {"rt": -1000, "stimulus": "/static/audio/wordpool/WIDOW.wav", "key_press": -1, "type": "PRES_AUD", "word": "widow", "wordID": 1607, "conditions": [24, 1600, "a", 12000], "trial": 5, "serialpos": 19, "trial_type": "single-audio", "trial_index": 216, "time_elapsed": 1230694, "internal_node_id": "0.0-162.0"}}, {"uniqueid": "MTK0304:30BUDKLTXE2221M7EB4VYFI0ASJE50", "current_trial": 217, "dateTime": 1510702825822, "trialdata": {"rt": -1000, "stimulus": "/static/audio/wordpool/ATOM.wav", "key_press": -1, "type": "PRES_AUD", "word": "atom", "wordID": 54, "conditions": [24, 1600, "a", 12000], "trial": 5, "serialpos": 20, "trial_type": "single-audio", "trial_index": 217, "time_elapsed": 1233231, "internal_node_id": "0.0-163.0"}}, {"uniqueid": "MTK0304:30BUDKLTXE2221M7EB4VYFI0ASJE50", "current_trial": 218, "dateTime": 1510702828439, "trialdata": {"rt": -1000, "stimulus": "/static/audio/wordpool/RABBIT.wav", "key_press": -1, "type": "PRES_AUD", "word": "rabbit", "wordID": 1151, "conditions": [24, 1600, "a", 12000], "trial": 5, "serialpos": 21, "trial_type": "single-audio", "trial_index": 218, "time_elapsed": 1235848, "internal_node_id": "0.0-164.0"}}, {"uniqueid": "MTK0304:30BUDKLTXE2221M7EB4VYFI0ASJE50", "current_trial": 219, "dateTime": 1510702831150, "trialdata": {"rt": -1000, "stimulus": "/static/audio/wordpool/DIVER.wav", "key_press": -1, "type": "PRES_AUD", "word": "diver", "wordID": 475, "conditions": [24, 1600, "a", 12000], "trial": 5, "serialpos": 22, "trial_type": "single-audio", "trial_index": 219, "time_elapsed": 1238558, "internal_node_id": "0.0-165.0"}}, {"uniqueid": "MTK0304:30BUDKLTXE2221M7EB4VYFI0ASJE50", "current_trial": 220, "dateTime": 1510702833553, "trialdata": {"rt": -1000, "stimulus": "/static/audio/wordpool/YARN.wav", "key_press": -1, "type": "PRES_AUD", "word": "yarn", "wordID": 1630, "conditions": [24, 1600, "a", 12000], "trial": 5, "serialpos": 23, "trial_type": "single-audio", "trial_index": 220, "time_elapsed": 1240962, "internal_node_id": "0.0-166.0"}}, {"uniqueid": "MTK0304:30BUDKLTXE2221M7EB4VYFI0ASJE50", "current_trial": 221, "dateTime": 1510702834857, "trialdata": {"rt": -1, "stimulus": "", "key_press": -1, "type": "PRE_RECALL_DELAY", "trial_type": "single-stim", "trial_index": 221, "time_elapsed": 1242265, "internal_node_id": "0.0-167.0-0.0"}}, {"uniqueid": "MTK0304:30BUDKLTXE2221M7EB4VYFI0ASJE50", "current_trial": 222, "dateTime": 1510702835361, "trialdata": {"rt": -1000, "stimulus": "/static/audio/400Hz.wav", "key_press": -1, "type": "PRE_RECALL_ALERT", "trial_type": "single-audio", "trial_index": 222, "time_elapsed": 1242770, "internal_node_id": "0.0-168.0"}}, {"uniqueid": "MTK0304:30BUDKLTXE2221M7EB4VYFI0ASJE50", "current_trial": 223, "dateTime": 1510702895371, "trialdata": {"rt": [1899, 3386, 4899, 6088, 8089, 10838, 29100], "recwords": ["yarn", "autumn", "rabbit", "beaver", "tortoise", "scarf", "portrait"], "type": "FREE_RECALL", "conditions": [24, 1600, "a", 12000], "trial": 5, "trial_type": "free-recall", "trial_index": 223, "time_elapsed": 1302773, "internal_node_id": "0.0-169.0-0.0"}}, {"uniqueid": "MTK0304:30BUDKLTXE2221M7EB4VYFI0ASJE50", "current_trial": 224, "dateTime": 1510702898399, "trialdata": {"rt": 1024, "key_press": 32, "type": "INSTRUCTIONS", "trial_type": "text", "trial_index": 224, "time_elapsed": 1305805, "internal_node_id": "0.0-170.0"}}, {"uniqueid": "MTK0304:30BUDKLTXE2221M7EB4VYFI0ASJE50", "current_trial": 225, "dateTime": 1510702924403, "trialdata": {"rt": [2798, 6784, 10377, 12986, 15862, 18940], "responses": ["15", "22", "17", "17", "17", "11"], "num1": [9, 7, 8, 4, 2, 2, 3], "num2": [3, 6, 7, 4, 9, 6, 4], "num3": [3, 9, 2, 9, 6, 3, 8], "type": "DISTRACTOR", "conditions": [12, 1600, "a", 24000], "trial": 6, "trial_type": "math-distractor", "trial_index": 225, "time_elapsed": 1331812, "internal_node_id": "0.0-171.0"}}, {"uniqueid": "MTK0304:30BUDKLTXE2221M7EB4VYFI0ASJE50", "current_trial": 226, "dateTime": 1510702927406, "trialdata": {"rt": -1, "stimulus": "<p id=\"stim\">10</p>", "key_press": -1, "trial_type": "single-stim", "trial_index": 226, "time_elapsed": 1334815, "internal_node_id": "0.0-172.0-0.0"}}, {"uniqueid": "MTK0304:30BUDKLTXE2221M7EB4VYFI0ASJE50", "current_trial": 227, "dateTime": 1510702928408, "trialdata": {"rt": -1, "stimulus": "<p id=\"stim\">9</p>", "key_press": -1, "trial_type": "single-stim", "trial_index": 227, "time_elapsed": 1335816, "internal_node_id": "0.0-172.0-1.0"}}, {"uniqueid": "MTK0304:30BUDKLTXE2221M7EB4VYFI0ASJE50", "current_trial": 228, "dateTime": 1510702929408, "trialdata": {"rt": -1, "stimulus": "<p id=\"stim\">8</p>", "key_press": -1, "trial_type": "single-stim", "trial_index": 228, "time_elapsed": 1336817, "internal_node_id": "0.0-172.0-2.0"}}, {"uniqueid": "MTK0304:30BUDKLTXE2221M7EB4VYFI0ASJE50", "current_trial": 229, "dateTime": 1510702930410, "trialdata": {"rt": -1, "stimulus": "<p id=\"stim\">7</p>", "key_press": -1, "trial_type": "single-stim", "trial_index": 229, "time_elapsed": 1337819, "internal_node_id": "0.0-172.0-3.0"}}, {"uniqueid": "MTK0304:30BUDKLTXE2221M7EB4VYFI0ASJE50", "current_trial": 230, "dateTime": 1510702931412, "trialdata": {"rt": -1, "stimulus": "<p id=\"stim\">6</p>", "key_press": -1, "trial_type": "single-stim", "trial_index": 230, "time_elapsed": 1338821, "internal_node_id": "0.0-172.0-4.0"}}, {"uniqueid": "MTK0304:30BUDKLTXE2221M7EB4VYFI0ASJE50", "current_trial": 231, "dateTime": 1510702932414, "trialdata": {"rt": -1, "stimulus": "<p id=\"stim\">5</p>", "key_press": -1, "trial_type": "single-stim", "trial_index": 231, "time_elapsed": 1339823, "internal_node_id": "0.0-172.0-5.0"}}, {"uniqueid": "MTK0304:30BUDKLTXE2221M7EB4VYFI0ASJE50", "current_trial": 232, "dateTime": 1510702933418, "trialdata": {"rt": -1, "stimulus": "<p id=\"stim\">4</p>", "key_press": -1, "trial_type": "single-stim", "trial_index": 232, "time_elapsed": 1340827, "internal_node_id": "0.0-172.0-6.0"}}, {"uniqueid": "MTK0304:30BUDKLTXE2221M7EB4VYFI0ASJE50", "current_trial": 233, "dateTime": 1510702934420, "trialdata": {"rt": -1, "stimulus": "<p id=\"stim\">3</p>", "key_press": -1, "trial_type": "single-stim", "trial_index": 233, "time_elapsed": 1341829, "internal_node_id": "0.0-172.0-7.0"}}, {"uniqueid": "MTK0304:30BUDKLTXE2221M7EB4VYFI0ASJE50", "current_trial": 234, "dateTime": 1510702935422, "trialdata": {"rt": -1, "stimulus": "<p id=\"stim\">2</p>", "key_press": -1, "trial_type": "single-stim", "trial_index": 234, "time_elapsed": 1342831, "internal_node_id": "0.0-172.0-8.0"}}, {"uniqueid": "MTK0304:30BUDKLTXE2221M7EB4VYFI0ASJE50", "current_trial": 235, "dateTime": 1510702936425, "trialdata": {"rt": -1, "stimulus": "<p id=\"stim\">1</p>", "key_press": -1, "trial_type": "single-stim", "trial_index": 235, "time_elapsed": 1343833, "internal_node_id": "0.0-172.0-9.0"}}, {"uniqueid": "MTK0304:30BUDKLTXE2221M7EB4VYFI0ASJE50", "current_trial": 236, "dateTime": 1510702937925, "trialdata": {"rt": -1, "stimulus": "<p id=\"stim\">+</p>", "key_press": -1, "type": "FIXATION", "trial_type": "single-stim", "trial_index": 236, "time_elapsed": 1345334, "internal_node_id": "0.0-173.0-0.0"}}, {"uniqueid": "MTK0304:30BUDKLTXE2221M7EB4VYFI0ASJE50", "current_trial": 237, "dateTime": 1510702940488, "trialdata": {"rt": -1000, "stimulus": "/static/audio/wordpool/ROBIN.wav", "key_press": -1, "type": "PRES_AUD", "word": "robin", "wordID": 1198, "conditions": [12, 1600, "a", 24000], "trial": 6, "serialpos": 0, "trial_type": "single-audio", "trial_index": 237, "time_elapsed": 1347897, "internal_node_id": "0.0-174.0"}}, {"uniqueid": "MTK0304:30BUDKLTXE2221M7EB4VYFI0ASJE50", "current_trial": 238, "dateTime": 1510702943206, "trialdata": {"rt": -1000, "stimulus": "/static/audio/wordpool/WASP.wav", "key_press": -1, "type": "PRES_AUD", "word": "wasp", "wordID": 1592, "conditions": [12, 1600, "a", 24000], "trial": 6, "serialpos": 1, "trial_type": "single-audio", "trial_index": 238, "time_elapsed": 1350615, "internal_node_id": "0.0-175.0"}}, {"uniqueid": "MTK0304:30BUDKLTXE2221M7EB4VYFI0ASJE50", "current_trial": 239, "dateTime": 1510702945676, "trialdata": {"rt": -1000, "stimulus": "/static/audio/wordpool/CAFE.wav", "key_press": -1, "type": "PRES_AUD", "word": "cafe", "wordID": 215, "conditions": [12, 1600, "a", 24000], "trial": 6, "serialpos": 2, "trial_type": "single-audio", "trial_index": 239, "time_elapsed": 1353085, "internal_node_id": "0.0-176.0"}}, {"uniqueid": "MTK0304:30BUDKLTXE2221M7EB4VYFI0ASJE50", "current_trial": 240, "dateTime": 1510702948451, "trialdata": {"rt": -1000, "stimulus": "/static/audio/wordpool/STAR.wav", "key_press": -1, "type": "PRES_AUD", "word": "star", "wordID": 1372, "conditions": [12, 1600, "a", 24000], "trial": 6, "serialpos": 3, "trial_type": "single-audio", "trial_index": 240, "time_elapsed": 1355859, "internal_node_id": "0.0-177.0"}}, {"uniqueid": "MTK0304:30BUDKLTXE2221M7EB4VYFI0ASJE50", "current_trial": 241, "dateTime": 1510702950980, "trialdata": {"rt": -1000, "stimulus": "/static/audio/wordpool/RAZOR.wav", "key_press": -1, "type": "PRES_AUD", "word": "razor", "wordID": 1170, "conditions": [12, 1600, "a", 24000], "trial": 6, "serialpos": 4, "trial_type": "single-audio", "trial_index": 241, "time_elapsed": 1358389, "internal_node_id": "0.0-178.0"}}, {"uniqueid": "MTK0304:30BUDKLTXE2221M7EB4VYFI0ASJE50", "current_trial": 242, "dateTime": 1510702953729, "trialdata": {"rt": -1000, "stimulus": "/static/audio/wordpool/SPOUSE.wav", "key_press": -1, "type": "PRES_AUD", "word": "spouse", "wordID": 1357, "conditions": [12, 1600, "a", 24000], "trial": 6, "serialpos": 5, "trial_type": "single-audio", "trial_index": 242, "time_elapsed": 1361138, "internal_node_id": "0.0-179.0"}}, {"uniqueid": "MTK0304:30BUDKLTXE2221M7EB4VYFI0ASJE50", "current_trial": 243, "dateTime": 1510702956531, "trialdata": {"rt": -1000, "stimulus": "/static/audio/wordpool/SPHINX.wav", "key_press": -1, "type": "PRES_AUD", "word": "sphinx", "wordID": 1348, "conditions": [12, 1600, "a", 24000], "trial": 6, "serialpos": 6, "trial_type": "single-audio", "trial_index": 243, "time_elapsed": 1363940, "internal_node_id": "0.0-180.0"}}, {"uniqueid": "MTK0304:30BUDKLTXE2221M7EB4VYFI0ASJE50", "current_trial": 244, "dateTime": 1510702958953, "trialdata": {"rt": -1000, "stimulus": "/static/audio/wordpool/GLASS.wav", "key_press": -1, "type": "PRES_AUD", "word": "glass", "wordID": 638, "conditions": [12, 1600, "a", 24000], "trial": 6, "serialpos": 7, "trial_type": "single-audio", "trial_index": 244, "time_elapsed": 1366361, "internal_node_id": "0.0-181.0"}}, {"uniqueid": "MTK0304:30BUDKLTXE2221M7EB4VYFI0ASJE50", "current_trial": 245, "dateTime": 1510702961660, "trialdata": {"rt": -1000, "stimulus": "/static/audio/wordpool/ORANGE.wav", "key_press": -1, "type": "PRES_AUD", "word": "orange", "wordID": 979, "conditions": [12, 1600, "a", 24000], "trial": 6, "serialpos": 8, "trial_type": "single-audio", "trial_index": 245, "time_elapsed": 1369069, "internal_node_id": "0.0-182.0"}}, {"uniqueid": "MTK0304:30BUDKLTXE2221M7EB4VYFI0ASJE50", "current_trial": 246, "dateTime": 1510702964217, "trialdata": {"rt": -1000, "stimulus": "/static/audio/wordpool/BADGE.wav", "key_press": -1, "type": "PRES_AUD", "word": "badge", "wordID": 67, "conditions": [12, 1600, "a", 24000], "trial": 6, "serialpos": 9, "trial_type": "single-audio", "trial_index": 246, "time_elapsed": 1371626, "internal_node_id": "0.0-183.0"}}, {"uniqueid": "MTK0304:30BUDKLTXE2221M7EB4VYFI0ASJE50", "current_trial": 247, "dateTime": 1510702966799, "trialdata": {"rt": -1000, "stimulus": "/static/audio/wordpool/SPONGE.wav", "key_press": -1, "type": "PRES_AUD", "word": "sponge", "wordID": 1354, "conditions": [12, 1600, "a", 24000], "trial": 6, "serialpos": 10, "trial_type": "single-audio", "trial_index": 247, "time_elapsed": 1374207, "internal_node_id": "0.0-184.0"}}, {"uniqueid": "MTK0304:30BUDKLTXE2221M7EB4VYFI0ASJE50", "current_trial": 248, "dateTime": 1510702969343, "trialdata": {"rt": -1000, "stimulus": "/static/audio/wordpool/DINER.wav", "key_press": -1, "type": "PRES_AUD", "word": "diner", "wordID": 466, "conditions": [12, 1600, "a", 24000], "trial": 6, "serialpos": 11, "trial_type": "single-audio", "trial_index": 248, "time_elapsed": 1376752, "internal_node_id": "0.0-185.0"}}, {"uniqueid": "MTK0304:30BUDKLTXE2221M7EB4VYFI0ASJE50", "current_trial": 249, "dateTime": 1510702970632, "trialdata": {"rt": -1, "stimulus": "", "key_press": -1, "type": "PRE_RECALL_DELAY", "trial_type": "single-stim", "trial_index": 249, "time_elapsed": 1378041, "internal_node_id": "0.0-186.0-0.0"}}, {"uniqueid": "MTK0304:30BUDKLTXE2221M7EB4VYFI0ASJE50", "current_trial": 250, "dateTime": 1510702971134, "trialdata": {"rt": -1000, "stimulus": "/static/audio/400Hz.wav", "key_press": -1, "type": "PRE_RECALL_ALERT", "trial_type": "single-audio", "trial_index": 250, "time_elapsed": 1378543, "internal_node_id": "0.0-187.0"}}, {"uniqueid": "MTK0304:30BUDKLTXE2221M7EB4VYFI0ASJE50", "current_trial": 251, "dateTime": 1510703031141, "trialdata": {"rt": [1717, 2635, 4339, 5740, 7406, 9574, 12772, 19015, 20084, 25620, 26585, 29167, 30291], "recwords": ["sponge", "diner", "glass", "spinx", "spouce", "spouse", "razor", "sponge", "diner", "star", "cafe", "orange", "badge"], "type": "FREE_RECALL", "conditions": [12, 1600, "a", 24000], "trial": 6, "trial_type": "free-recall", "trial_index": 251, "time_elapsed": 1438546, "internal_node_id": "0.0-188.0-0.0"}}, {"uniqueid": "MTK0304:30BUDKLTXE2221M7EB4VYFI0ASJE50", "current_trial": 252, "dateTime": 1510703034091, "trialdata": {"rt": 949, "key_press": 32, "type": "INSTRUCTIONS", "trial_type": "text", "trial_index": 252, "time_elapsed": 1441500, "internal_node_id": "0.0-189.0"}}, {"uniqueid": "MTK0304:30BUDKLTXE2221M7EB4VYFI0ASJE50", "current_trial": 253, "dateTime": 1510703060096, "trialdata": {"rt": [2138, 6104, 9117, 11746, 15153, 19243, 22831], "responses": ["13", "18", "18", "12", "10", "16", "12"], "num1": [6, 6, 5, 3, 2, 6, 2, 4], "num2": [6, 9, 8, 1, 3, 7, 7, 3], "num3": [1, 3, 5, 8, 5, 3, 3, 4], "type": "DISTRACTOR", "conditions": [12, 800, "a", 24000], "trial": 7, "trial_type": "math-distractor", "trial_index": 253, "time_elapsed": 1467505, "internal_node_id": "0.0-190.0"}}, {"uniqueid": "MTK0304:30BUDKLTXE2221M7EB4VYFI0ASJE50", "current_trial": 254, "dateTime": 1510703063099, "trialdata": {"rt": -1, "stimulus": "<p id=\"stim\">10</p>", "key_press": -1, "trial_type": "single-stim", "trial_index": 254, "time_elapsed": 1470507, "internal_node_id": "0.0-191.0-0.0"}}, {"uniqueid": "MTK0304:30BUDKLTXE2221M7EB4VYFI0ASJE50", "current_trial": 255, "dateTime": 1510703064100, "trialdata": {"rt": -1, "stimulus": "<p id=\"stim\">9</p>", "key_press": -1, "trial_type": "single-stim", "trial_index": 255, "time_elapsed": 1471509, "internal_node_id": "0.0-191.0-1.0"}}, {"uniqueid": "MTK0304:30BUDKLTXE2221M7EB4VYFI0ASJE50", "current_trial": 256, "dateTime": 1510703065101, "trialdata": {"rt": -1, "stimulus": "<p id=\"stim\">8</p>", "key_press": -1, "trial_type": "single-stim", "trial_index": 256, "time_elapsed": 1472510, "internal_node_id": "0.0-191.0-2.0"}}, {"uniqueid": "MTK0304:30BUDKLTXE2221M7EB4VYFI0ASJE50", "current_trial": 257, "dateTime": 1510703066104, "trialdata": {"rt": -1, "stimulus": "<p id=\"stim\">7</p>", "key_press": -1, "trial_type": "single-stim", "trial_index": 257, "time_elapsed": 1473513, "internal_node_id": "0.0-191.0-3.0"}}, {"uniqueid": "MTK0304:30BUDKLTXE2221M7EB4VYFI0ASJE50", "current_trial": 258, "dateTime": 1510703067106, "trialdata": {"rt": -1, "stimulus": "<p id=\"stim\">6</p>", "key_press": -1, "trial_type": "single-stim", "trial_index": 258, "time_elapsed": 1474514, "internal_node_id": "0.0-191.0-4.0"}}, {"uniqueid": "MTK0304:30BUDKLTXE2221M7EB4VYFI0ASJE50", "current_trial": 259, "dateTime": 1510703068108, "trialdata": {"rt": -1, "stimulus": "<p id=\"stim\">5</p>", "key_press": -1, "trial_type": "single-stim", "trial_index": 259, "time_elapsed": 1475516, "internal_node_id": "0.0-191.0-5.0"}}, {"uniqueid": "MTK0304:30BUDKLTXE2221M7EB4VYFI0ASJE50", "current_trial": 260, "dateTime": 1510703069108, "trialdata": {"rt": -1, "stimulus": "<p id=\"stim\">4</p>", "key_press": -1, "trial_type": "single-stim", "trial_index": 260, "time_elapsed": 1476517, "internal_node_id": "0.0-191.0-6.0"}}, {"uniqueid": "MTK0304:30BUDKLTXE2221M7EB4VYFI0ASJE50", "current_trial": 261, "dateTime": 1510703070112, "trialdata": {"rt": -1, "stimulus": "<p id=\"stim\">3</p>", "key_press": -1, "trial_type": "single-stim", "trial_index": 261, "time_elapsed": 1477520, "internal_node_id": "0.0-191.0-7.0"}}, {"uniqueid": "MTK0304:30BUDKLTXE2221M7EB4VYFI0ASJE50", "current_trial": 262, "dateTime": 1510703071114, "trialdata": {"rt": -1, "stimulus": "<p id=\"stim\">2</p>", "key_press": -1, "trial_type": "single-stim", "trial_index": 262, "time_elapsed": 1478523, "internal_node_id": "0.0-191.0-8.0"}}, {"uniqueid": "MTK0304:30BUDKLTXE2221M7EB4VYFI0ASJE50", "current_trial": 263, "dateTime": 1510703072116, "trialdata": {"rt": -1, "stimulus": "<p id=\"stim\">1</p>", "key_press": -1, "trial_type": "single-stim", "trial_index": 263, "time_elapsed": 1479524, "internal_node_id": "0.0-191.0-9.0"}}, {"uniqueid": "MTK0304:30BUDKLTXE2221M7EB4VYFI0ASJE50", "current_trial": 264, "dateTime": 1510703073618, "trialdata": {"rt": -1, "stimulus": "<p id=\"stim\">+</p>", "key_press": -1, "type": "FIXATION", "trial_type": "single-stim", "trial_index": 264, "time_elapsed": 1481026, "internal_node_id": "0.0-192.0-0.0"}}, {"uniqueid": "MTK0304:30BUDKLTXE2221M7EB4VYFI0ASJE50", "current_trial": 265, "dateTime": 1510703075440, "trialdata": {"rt": -1000, "stimulus": "/static/audio/wordpool/CLOTHES.wav", "key_press": -1, "type": "PRES_AUD", "word": "clothes", "wordID": 326, "conditions": [12, 800, "a", 24000], "trial": 7, "serialpos": 0, "trial_type": "single-audio", "trial_index": 265, "time_elapsed": 1482849, "internal_node_id": "0.0-193.0"}}, {"uniqueid": "MTK0304:30BUDKLTXE2221M7EB4VYFI0ASJE50", "current_trial": 266, "dateTime": 1510703077181, "trialdata": {"rt": -1000, "stimulus": "/static/audio/wordpool/GUITAR.wav", "key_press": -1, "type": "PRES_AUD", "word": "guitar", "wordID": 669, "conditions": [12, 800, "a", 24000], "trial": 7, "serialpos": 1, "trial_type": "single-audio", "trial_index": 266, "time_elapsed": 1484590, "internal_node_id": "0.0-194.0"}}, {"uniqueid": "MTK0304:30BUDKLTXE2221M7EB4VYFI0ASJE50", "current_trial": 267, "dateTime": 1510703079146, "trialdata": {"rt": -1000, "stimulus": "/static/audio/wordpool/KNIFE.wav", "key_press": -1, "type": "PRES_AUD", "word": "knife", "wordID": 784, "conditions": [12, 800, "a", 24000], "trial": 7, "serialpos": 2, "trial_type": "single-audio", "trial_index": 267, "time_elapsed": 1486555, "internal_node_id": "0.0-195.0"}}, {"uniqueid": "MTK0304:30BUDKLTXE2221M7EB4VYFI0ASJE50", "current_trial": 268, "dateTime": 1510703080980, "trialdata": {"rt": -1000, "stimulus": "/static/audio/wordpool/LETTUCE.wav", "key_press": -1, "type": "PRES_AUD", "word": "lettuce", "wordID": 813, "conditions": [12, 800, "a", 24000], "trial": 7, "serialpos": 3, "trial_type": "single-audio", "trial_index": 268, "time_elapsed": 1488389, "internal_node_id": "0.0-196.0"}}, {"uniqueid": "MTK0304:30BUDKLTXE2221M7EB4VYFI0ASJE50", "current_trial": 269, "dateTime": 1510703082749, "trialdata": {"rt": -1000, "stimulus": "/static/audio/wordpool/TUNNEL.wav", "key_press": -1, "type": "PRES_AUD", "word": "tunnel", "wordID": 1518, "conditions": [12, 800, "a", 24000], "trial": 7, "serialpos": 4, "trial_type": "single-audio", "trial_index": 269, "time_elapsed": 1490158, "internal_node_id": "0.0-197.0"}}, {"uniqueid": "MTK0304:30BUDKLTXE2221M7EB4VYFI0ASJE50", "current_trial": 270, "dateTime": 1510703084570, "trialdata": {"rt": -1000, "stimulus": "/static/audio/wordpool/JOURNAL.wav", "key_press": -1, "type": "PRES_AUD", "word": "journal", "wordID": 759, "conditions": [12, 800, "a", 24000], "trial": 7, "serialpos": 5, "trial_type": "single-audio", "trial_index": 270, "time_elapsed": 1491979, "internal_node_id": "0.0-198.0"}}, {"uniqueid": "MTK0304:30BUDKLTXE2221M7EB4VYFI0ASJE50", "current_trial": 271, "dateTime": 15107030