{"condition": 0, "counterbalance": 35, "assignmentId": "36U2A8VAG263QPO1LZKV77TYQ4EKYM", "workerId": "MTK0413", "hitId": "3PGQRAZX02RZRO3F06OV99OOT7GYSZ", "currenttrial": 626, "bonus": 0, "data": [{"uniqueid": "MTK0413:36U2A8VAG263QPO1LZKV77TYQ4EKYM", "current_trial": 0, "dateTime": 1510859493865, "trialdata": {"rt": 2404, "key_press": 32, "type": "INSTRUCTIONS", "trial_type": "text", "trial_index": 0, "time_elapsed": 2418, "internal_node_id": "0.0-0.0"}}, {"uniqueid": "MTK0413:36U2A8VAG263QPO1LZKV77TYQ4EKYM", "current_trial": 1, "dateTime": 1510859512597, "trialdata": {"rt": 18722, "key_press": 86, "type": "INSTRUCTIONS", "trial_type": "text", "trial_index": 1, "time_elapsed": 21152, "internal_node_id": "0.0-1.0"}}, {"uniqueid": "MTK0413:36U2A8VAG263QPO1LZKV77TYQ4EKYM", "current_trial": 2, "dateTime": 1510859529422, "trialdata": {"rt": [16748], "responses": ["ocean"], "type": "AUDIO_TEST", "trial_type": "audio-test", "trial_index": 2, "time_elapsed": 37978, "internal_node_id": "0.0-2.0"}}, {"uniqueid": "MTK0413:36U2A8VAG263QPO1LZKV77TYQ4EKYM", "current_trial": 3, "dateTime": 1510859536401, "trialdata": {"rt": [6970], "responses": ["crystal"], "type": "AUDIO_TEST", "trial_type": "audio-test", "trial_index": 3, "time_elapsed": 44957, "internal_node_id": "0.0-3.0"}}, {"uniqueid": "MTK0413:36U2A8VAG263QPO1LZKV77TYQ4EKYM", "current_trial": 4, "dateTime": 1510859541417, "trialdata": {"rt": [5007], "responses": ["spice"], "type": "AUDIO_TEST", "trial_type": "audio-test", "trial_index": 4, "time_elapsed": 49973, "internal_node_id": "0.0-4.0"}}, {"uniqueid": "MTK0413:36U2A8VAG263QPO1LZKV77TYQ4EKYM", "current_trial": 5, "dateTime": 1510859560884, "trialdata": {"rt": 18709, "responses": "{\"Q0\":\"11:00\",\"Q1\":\"8:30\",\"Q2\":\"4\"}", "type": "SLEEP_SURVEY", "trial_type": "survey-text", "trial_index": 5, "time_elapsed": 69440, "internal_node_id": "0.0-5.0"}}, {"uniqueid": "MTK0413:36U2A8VAG263QPO1LZKV77TYQ4EKYM", "current_trial": 6, "dateTime": 1510859597357, "trialdata": {"rt": 35469, "key_press": 32, "type": "INSTRUCTIONS", "trial_type": "text", "trial_index": 6, "time_elapsed": 105912, "internal_node_id": "0.0-6.0"}}, {"uniqueid": "MTK0413:36U2A8VAG263QPO1LZKV77TYQ4EKYM", "current_trial": 7, "dateTime": 1510859611925, "trialdata": {"rt": 14066, "key_press": 32, "type": "INSTRUCTIONS", "trial_type": "text", "trial_index": 7, "time_elapsed": 120481, "internal_node_id": "0.0-7.0"}}, {"uniqueid": "MTK0413:36U2A8VAG263QPO1LZKV77TYQ4EKYM", "current_trial": 8, "dateTime": 1510859626643, "trialdata": {"rt": 14213, "key_press": 32, "type": "INSTRUCTIONS", "trial_type": "text", "trial_index": 8, "time_elapsed": 135198, "internal_node_id": "0.0-8.0"}}, {"uniqueid": "MTK0413:36U2A8VAG263QPO1LZKV77TYQ4EKYM", "current_trial": 9, "dateTime": 1510859645692, "trialdata": {"rt": [3183, 5578, 8288, 10804, 13154, 15411], "responses": ["8", "12", "8", "5", "14", "13"], "num1": [1, 5, 2, 2, 9, 4, 9], "num2": [5, 1, 3, 1, 1, 6, 8], "num3": [2, 6, 3, 2, 4, 3, 5], "type": "DISTRACTOR", "conditions": [18, 1200, "v", 18000], "trial": 0, "trial_type": "math-distractor", "trial_index": 9, "time_elapsed": 154247, "internal_node_id": "0.0-9.0"}}, {"uniqueid": "MTK0413:36U2A8VAG263QPO1LZKV77TYQ4EKYM", "current_trial": 10, "dateTime": 1510859648695, "trialdata": {"rt": -1, "stimulus": "<p id=\"stim\">10</p>", "key_press": -1, "trial_type": "single-stim", "trial_index": 10, "time_elapsed": 157251, "internal_node_id": "0.0-10.0-0.0"}}, {"uniqueid": "MTK0413:36U2A8VAG263QPO1LZKV77TYQ4EKYM", "current_trial": 11, "dateTime": 1510859649696, "trialdata": {"rt": -1, "stimulus": "<p id=\"stim\">9</p>", "key_press": -1, "trial_type": "single-stim", "trial_index": 11, "time_elapsed": 158252, "internal_node_id": "0.0-10.0-1.0"}}, {"uniqueid": "MTK0413:36U2A8VAG263QPO1LZKV77TYQ4EKYM", "current_trial": 12, "dateTime": 1510859650701, "trialdata": {"rt": -1, "stimulus": "<p id=\"stim\">8</p>", "key_press": -1, "trial_type": "single-stim", "trial_index": 12, "time_elapsed": 159257, "internal_node_id": "0.0-10.0-2.0"}}, {"uniqueid": "MTK0413:36U2A8VAG263QPO1LZKV77TYQ4EKYM", "current_trial": 13, "dateTime": 1510859651702, "trialdata": {"rt": -1, "stimulus": "<p id=\"stim\">7</p>", "key_press": -1, "trial_type": "single-stim", "trial_index": 13, "time_elapsed": 160258, "internal_node_id": "0.0-10.0-3.0"}}, {"uniqueid": "MTK0413:36U2A8VAG263QPO1LZKV77TYQ4EKYM", "current_trial": 14, "dateTime": 1510859652705, "trialdata": {"rt": -1, "stimulus": "<p id=\"stim\">6</p>", "key_press": -1, "trial_type": "single-stim", "trial_index": 14, "time_elapsed": 161261, "internal_node_id": "0.0-10.0-4.0"}}, {"uniqueid": "MTK0413:36U2A8VAG263QPO1LZKV77TYQ4EKYM", "current_trial": 15, "dateTime": 1510859653708, "trialdata": {"rt": -1, "stimulus": "<p id=\"stim\">5</p>", "key_press": -1, "trial_type": "single-stim", "trial_index": 15, "time_elapsed": 162264, "internal_node_id": "0.0-10.0-5.0"}}, {"uniqueid": "MTK0413:36U2A8VAG263QPO1LZKV77TYQ4EKYM", "current_trial": 16, "dateTime": 1510859654712, "trialdata": {"rt": -1, "stimulus": "<p id=\"stim\">4</p>", "key_press": -1, "trial_type": "single-stim", "trial_index": 16, "time_elapsed": 163267, "internal_node_id": "0.0-10.0-6.0"}}, {"uniqueid": "MTK0413:36U2A8VAG263QPO1LZKV77TYQ4EKYM", "current_trial": 17, "dateTime": 1510859655713, "trialdata": {"rt": -1, "stimulus": "<p id=\"stim\">3</p>", "key_press": -1, "trial_type": "single-stim", "trial_index": 17, "time_elapsed": 164269, "internal_node_id": "0.0-10.0-7.0"}}, {"uniqueid": "MTK0413:36U2A8VAG263QPO1LZKV77TYQ4EKYM", "current_trial": 18, "dateTime": 1510859656716, "trialdata": {"rt": -1, "stimulus": "<p id=\"stim\">2</p>", "key_press": -1, "trial_type": "single-stim", "trial_index": 18, "time_elapsed": 165271, "internal_node_id": "0.0-10.0-8.0"}}, {"uniqueid": "MTK0413:36U2A8VAG263QPO1LZKV77TYQ4EKYM", "current_trial": 19, "dateTime": 1510859657717, "trialdata": {"rt": -1, "stimulus": "<p id=\"stim\">1</p>", "key_press": -1, "trial_type": "single-stim", "trial_index": 19, "time_elapsed": 166273, "internal_node_id": "0.0-10.0-9.0"}}, {"uniqueid": "MTK0413:36U2A8VAG263QPO1LZKV77TYQ4EKYM", "current_trial": 20, "dateTime": 1510859659218, "trialdata": {"rt": -1, "stimulus": "<p id=\"stim\">+</p>", "key_press": -1, "type": "FIXATION", "trial_type": "single-stim", "trial_index": 20, "time_elapsed": 167774, "internal_node_id": "0.0-11.0-0.0"}}, {"uniqueid": "MTK0413:36U2A8VAG263QPO1LZKV77TYQ4EKYM", "current_trial": 21, "dateTime": 1510859660420, "trialdata": {"rt": -1, "stimulus": "<p id=\"stim\">QUARTER</p>", "key_press": -1, "type": "PRES_VIS", "word": "quarter", "wordID": 1147, "conditions": [18, 1200, "v", 18000], "trial": 0, "serialpos": 0, "trial_type": "single-stim", "trial_index": 21, "time_elapsed": 168976, "internal_node_id": "0.0-12.0"}}, {"uniqueid": "MTK0413:36U2A8VAG263QPO1LZKV77TYQ4EKYM", "current_trial": 22, "dateTime": 1510859662663, "trialdata": {"rt": -1, "stimulus": "<p id=\"stim\">AIRPLANE</p>", "key_press": -1, "type": "PRES_VIS", "word": "airplane", "wordID": 11, "conditions": [18, 1200, "v", 18000], "trial": 0, "serialpos": 1, "trial_type": "single-stim", "trial_index": 22, "time_elapsed": 171219, "internal_node_id": "0.0-13.0"}}, {"uniqueid": "MTK0413:36U2A8VAG263QPO1LZKV77TYQ4EKYM", "current_trial": 23, "dateTime": 1510859664672, "trialdata": {"rt": -1, "stimulus": "<p id=\"stim\">BOYFRIEND</p>", "key_press": -1, "type": "PRES_VIS", "word": "boyfriend", "wordID": 161, "conditions": [18, 1200, "v", 18000], "trial": 0, "serialpos": 2, "trial_type": "single-stim", "trial_index": 23, "time_elapsed": 173228, "internal_node_id": "0.0-14.0"}}, {"uniqueid": "MTK0413:36U2A8VAG263QPO1LZKV77TYQ4EKYM", "current_trial": 24, "dateTime": 1510859666828, "trialdata": {"rt": -1, "stimulus": "<p id=\"stim\">SWIMMER</p>", "key_press": -1, "type": "PRES_VIS", "word": "swimmer", "wordID": 1419, "conditions": [18, 1200, "v", 18000], "trial": 0, "serialpos": 3, "trial_type": "single-stim", "trial_index": 24, "time_elapsed": 175381, "internal_node_id": "0.0-15.0"}}, {"uniqueid": "MTK0413:36U2A8VAG263QPO1LZKV77TYQ4EKYM", "current_trial": 25, "dateTime": 1510859668861, "trialdata": {"rt": -1, "stimulus": "<p id=\"stim\">BELLY</p>", "key_press": -1, "type": "PRES_VIS", "word": "belly", "wordID": 118, "conditions": [18, 1200, "v", 18000], "trial": 0, "serialpos": 4, "trial_type": "single-stim", "trial_index": 25, "time_elapsed": 177416, "internal_node_id": "0.0-16.0"}}, {"uniqueid": "MTK0413:36U2A8VAG263QPO1LZKV77TYQ4EKYM", "current_trial": 26, "dateTime": 1510859671000, "trialdata": {"rt": -1, "stimulus": "<p id=\"stim\">RAZOR</p>", "key_press": -1, "type": "PRES_VIS", "word": "razor", "wordID": 1170, "conditions": [18, 1200, "v", 18000], "trial": 0, "serialpos": 5, "trial_type": "single-stim", "trial_index": 26, "time_elapsed": 179556, "internal_node_id": "0.0-17.0"}}, {"uniqueid": "MTK0413:36U2A8VAG263QPO1LZKV77TYQ4EKYM", "current_trial": 27, "dateTime": 1510859673300, "trialdata": {"rt": -1, "stimulus": "<p id=\"stim\">GAZELLE</p>", "key_press": -1, "type": "PRES_VIS", "word": "gazelle", "wordID": 627, "conditions": [18, 1200, "v", 18000], "trial": 0, "serialpos": 6, "trial_type": "single-stim", "trial_index": 27, "time_elapsed": 181856, "internal_node_id": "0.0-18.0"}}, {"uniqueid": "MTK0413:36U2A8VAG263QPO1LZKV77TYQ4EKYM", "current_trial": 28, "dateTime": 1510859675319, "trialdata": {"rt": -1, "stimulus": "<p id=\"stim\">DOLPHIN</p>", "key_press": -1, "type": "PRES_VIS", "word": "dolphin", "wordID": 482, "conditions": [18, 1200, "v", 18000], "trial": 0, "serialpos": 7, "trial_type": "single-stim", "trial_index": 28, "time_elapsed": 183875, "internal_node_id": "0.0-19.0"}}, {"uniqueid": "MTK0413:36U2A8VAG263QPO1LZKV77TYQ4EKYM", "current_trial": 29, "dateTime": 1510859677644, "trialdata": {"rt": -1, "stimulus": "<p id=\"stim\">PLATE</p>", "key_press": -1, "type": "PRES_VIS", "word": "plate", "wordID": 1085, "conditions": [18, 1200, "v", 18000], "trial": 0, "serialpos": 8, "trial_type": "single-stim", "trial_index": 29, "time_elapsed": 186200, "internal_node_id": "0.0-20.0"}}, {"uniqueid": "MTK0413:36U2A8VAG263QPO1LZKV77TYQ4EKYM", "current_trial": 30, "dateTime": 1510859679818, "trialdata": {"rt": -1, "stimulus": "<p id=\"stim\">VAGRANT</p>", "key_press": -1, "type": "PRES_VIS", "word": "vagrant", "wordID": 1543, "conditions": [18, 1200, "v", 18000], "trial": 0, "serialpos": 9, "trial_type": "single-stim", "trial_index": 30, "time_elapsed": 188373, "internal_node_id": "0.0-21.0"}}, {"uniqueid": "MTK0413:36U2A8VAG263QPO1LZKV77TYQ4EKYM", "current_trial": 31, "dateTime": 1510859681885, "trialdata": {"rt": -1, "stimulus": "<p id=\"stim\">BACON</p>", "key_press": -1, "type": "PRES_VIS", "word": "bacon", "wordID": 66, "conditions": [18, 1200, "v", 18000], "trial": 0, "serialpos": 10, "trial_type": "single-stim", "trial_index": 31, "time_elapsed": 190441, "internal_node_id": "0.0-22.0"}}, {"uniqueid": "MTK0413:36U2A8VAG263QPO1LZKV77TYQ4EKYM", "current_trial": 32, "dateTime": 1510859683922, "trialdata": {"rt": -1, "stimulus": "<p id=\"stim\">LEADER</p>", "key_press": -1, "type": "PRES_VIS", "word": "leader", "wordID": 806, "conditions": [18, 1200, "v", 18000], "trial": 0, "serialpos": 11, "trial_type": "single-stim", "trial_index": 32, "time_elapsed": 192478, "internal_node_id": "0.0-23.0"}}, {"uniqueid": "MTK0413:36U2A8VAG263QPO1LZKV77TYQ4EKYM", "current_trial": 33, "dateTime": 1510859686318, "trialdata": {"rt": -1, "stimulus": "<p id=\"stim\">AWARD</p>", "key_press": -1, "type": "PRES_VIS", "word": "award", "wordID": 62, "conditions": [18, 1200, "v", 18000], "trial": 0, "serialpos": 12, "trial_type": "single-stim", "trial_index": 33, "time_elapsed": 194874, "internal_node_id": "0.0-24.0"}}, {"uniqueid": "MTK0413:36U2A8VAG263QPO1LZKV77TYQ4EKYM", "current_trial": 34, "dateTime": 1510859688650, "trialdata": {"rt": -1, "stimulus": "<p id=\"stim\">GIRL</p>", "key_press": -1, "type": "PRES_VIS", "word": "girl", "wordID": 636, "conditions": [18, 1200, "v", 18000], "trial": 0, "serialpos": 13, "trial_type": "single-stim", "trial_index": 34, "time_elapsed": 197206, "internal_node_id": "0.0-25.0"}}, {"uniqueid": "MTK0413:36U2A8VAG263QPO1LZKV77TYQ4EKYM", "current_trial": 35, "dateTime": 1510859690932, "trialdata": {"rt": -1, "stimulus": "<p id=\"stim\">LUNCH</p>", "key_press": -1, "type": "PRES_VIS", "word": "lunch", "wordID": 848, "conditions": [18, 1200, "v", 18000], "trial": 0, "serialpos": 14, "trial_type": "single-stim", "trial_index": 35, "time_elapsed": 199487, "internal_node_id": "0.0-26.0"}}, {"uniqueid": "MTK0413:36U2A8VAG263QPO1LZKV77TYQ4EKYM", "current_trial": 36, "dateTime": 1510859692952, "trialdata": {"rt": -1, "stimulus": "<p id=\"stim\">BOX</p>", "key_press": -1, "type": "PRES_VIS", "word": "box", "wordID": 158, "conditions": [18, 1200, "v", 18000], "trial": 0, "serialpos": 15, "trial_type": "single-stim", "trial_index": 36, "time_elapsed": 201508, "internal_node_id": "0.0-27.0"}}, {"uniqueid": "MTK0413:36U2A8VAG263QPO1LZKV77TYQ4EKYM", "current_trial": 37, "dateTime": 1510859694992, "trialdata": {"rt": -1, "stimulus": "<p id=\"stim\">CIGAR</p>", "key_press": -1, "type": "PRES_VIS", "word": "cigar", "wordID": 307, "conditions": [18, 1200, "v", 18000], "trial": 0, "serialpos": 16, "trial_type": "single-stim", "trial_index": 37, "time_elapsed": 203548, "internal_node_id": "0.0-28.0"}}, {"uniqueid": "MTK0413:36U2A8VAG263QPO1LZKV77TYQ4EKYM", "current_trial": 38, "dateTime": 1510859697182, "trialdata": {"rt": -1, "stimulus": "<p id=\"stim\">STAR</p>", "key_press": -1, "type": "PRES_VIS", "word": "star", "wordID": 1372, "conditions": [18, 1200, "v", 18000], "trial": 0, "serialpos": 17, "trial_type": "single-stim", "trial_index": 38, "time_elapsed": 205737, "internal_node_id": "0.0-29.0"}}, {"uniqueid": "MTK0413:36U2A8VAG263QPO1LZKV77TYQ4EKYM", "current_trial": 39, "dateTime": 1510859699607, "trialdata": {"rt": -1, "stimulus": "", "key_press": -1, "type": "PRE_RECALL_DELAY", "trial_type": "single-stim", "trial_index": 39, "time_elapsed": 208163, "internal_node_id": "0.0-30.0-0.0"}}, {"uniqueid": "MTK0413:36U2A8VAG263QPO1LZKV77TYQ4EKYM", "current_trial": 40, "dateTime": 1510859700123, "trialdata": {"rt": -1000, "stimulus": "/static/audio/400Hz.wav", "key_press": -1, "type": "PRE_RECALL_ALERT", "trial_type": "single-audio", "trial_index": 40, "time_elapsed": 208679, "internal_node_id": "0.0-31.0"}}, {"uniqueid": "MTK0413:36U2A8VAG263QPO1LZKV77TYQ4EKYM", "current_trial": 41, "dateTime": 1510859760134, "trialdata": {"rt": [5657, 7863, 9392, 11892, 13373, 15272, 16656, 18402, 20282, 22607, 25212, 32710], "recwords": ["dolphin", "airplane", "belly", "boyfriend", "girl", "lunch", "box", "award", "vagrant", "gazelle", "star", "quarter"], "type": "FREE_RECALL", "conditions": [18, 1200, "v", 18000], "trial": 0, "trial_type": "free-recall", "trial_index": 41, "time_elapsed": 268684, "internal_node_id": "0.0-32.0-0.0"}}, {"uniqueid": "MTK0413:36U2A8VAG263QPO1LZKV77TYQ4EKYM", "current_trial": 42, "dateTime": 1510859764042, "trialdata": {"rt": 1906, "key_press": 32, "type": "INSTRUCTIONS", "trial_type": "text", "trial_index": 42, "time_elapsed": 272598, "internal_node_id": "0.0-33.0"}}, {"uniqueid": "MTK0413:36U2A8VAG263QPO1LZKV77TYQ4EKYM", "current_trial": 43, "dateTime": 1510859784055, "trialdata": {"rt": [3136, 7051, 11515, 17137], "responses": ["10", "20", "21", "21"], "num1": [5, 8, 7, 7, 5], "num2": [4, 3, 9, 9, 2], "num3": [1, 9, 5, 5, 6], "type": "DISTRACTOR", "conditions": [18, 1200, "a", 18000], "trial": 1, "trial_type": "math-distractor", "trial_index": 43, "time_elapsed": 292611, "internal_node_id": "0.0-34.0"}}, {"uniqueid": "MTK0413:36U2A8VAG263QPO1LZKV77TYQ4EKYM", "current_trial": 44, "dateTime": 1510859787062, "trialdata": {"rt": -1, "stimulus": "<p id=\"stim\">10</p>", "key_press": -1, "trial_type": "single-stim", "trial_index": 44, "time_elapsed": 295617, "internal_node_id": "0.0-35.0-0.0"}}, {"uniqueid": "MTK0413:36U2A8VAG263QPO1LZKV77TYQ4EKYM", "current_trial": 45, "dateTime": 1510859788064, "trialdata": {"rt": -1, "stimulus": "<p id=\"stim\">9</p>", "key_press": -1, "trial_type": "single-stim", "trial_index": 45, "time_elapsed": 296620, "internal_node_id": "0.0-35.0-1.0"}}, {"uniqueid": "MTK0413:36U2A8VAG263QPO1LZKV77TYQ4EKYM", "current_trial": 46, "dateTime": 1510859789067, "trialdata": {"rt": -1, "stimulus": "<p id=\"stim\">8</p>", "key_press": -1, "trial_type": "single-stim", "trial_index": 46, "time_elapsed": 297623, "internal_node_id": "0.0-35.0-2.0"}}, {"uniqueid": "MTK0413:36U2A8VAG263QPO1LZKV77TYQ4EKYM", "current_trial": 47, "dateTime": 1510859790071, "trialdata": {"rt": -1, "stimulus": "<p id=\"stim\">7</p>", "key_press": -1, "trial_type": "single-stim", "trial_index": 47, "time_elapsed": 298627, "internal_node_id": "0.0-35.0-3.0"}}, {"uniqueid": "MTK0413:36U2A8VAG263QPO1LZKV77TYQ4EKYM", "current_trial": 48, "dateTime": 1510859791075, "trialdata": {"rt": -1, "stimulus": "<p id=\"stim\">6</p>", "key_press": -1, "trial_type": "single-stim", "trial_index": 48, "time_elapsed": 299630, "internal_node_id": "0.0-35.0-4.0"}}, {"uniqueid": "MTK0413:36U2A8VAG263QPO1LZKV77TYQ4EKYM", "current_trial": 49, "dateTime": 1510859792082, "trialdata": {"rt": -1, "stimulus": "<p id=\"stim\">5</p>", "key_press": -1, "trial_type": "single-stim", "trial_index": 49, "time_elapsed": 300638, "internal_node_id": "0.0-35.0-5.0"}}, {"uniqueid": "MTK0413:36U2A8VAG263QPO1LZKV77TYQ4EKYM", "current_trial": 50, "dateTime": 1510859793090, "trialdata": {"rt": -1, "stimulus": "<p id=\"stim\">4</p>", "key_press": -1, "trial_type": "single-stim", "trial_index": 50, "time_elapsed": 301645, "internal_node_id": "0.0-35.0-6.0"}}, {"uniqueid": "MTK0413:36U2A8VAG263QPO1LZKV77TYQ4EKYM", "current_trial": 51, "dateTime": 1510859794094, "trialdata": {"rt": -1, "stimulus": "<p id=\"stim\">3</p>", "key_press": -1, "trial_type": "single-stim", "trial_index": 51, "time_elapsed": 302650, "internal_node_id": "0.0-35.0-7.0"}}, {"uniqueid": "MTK0413:36U2A8VAG263QPO1LZKV77TYQ4EKYM", "current_trial": 52, "dateTime": 1510859795100, "trialdata": {"rt": -1, "stimulus": "<p id=\"stim\">2</p>", "key_press": -1, "trial_type": "single-stim", "trial_index": 52, "time_elapsed": 303655, "internal_node_id": "0.0-35.0-8.0"}}, {"uniqueid": "MTK0413:36U2A8VAG263QPO1LZKV77TYQ4EKYM", "current_trial": 53, "dateTime": 1510859796103, "trialdata": {"rt": -1, "stimulus": "<p id=\"stim\">1</p>", "key_press": -1, "trial_type": "single-stim", "trial_index": 53, "time_elapsed": 304659, "internal_node_id": "0.0-35.0-9.0"}}, {"uniqueid": "MTK0413:36U2A8VAG263QPO1LZKV77TYQ4EKYM", "current_trial": 54, "dateTime": 1510859797605, "trialdata": {"rt": -1, "stimulus": "<p id=\"stim\">+</p>", "key_press": -1, "type": "FIXATION", "trial_type": "single-stim", "trial_index": 54, "time_elapsed": 306161, "internal_node_id": "0.0-36.0-0.0"}}, {"uniqueid": "MTK0413:36U2A8VAG263QPO1LZKV77TYQ4EKYM", "current_trial": 55, "dateTime": 1510859799970, "trialdata": {"rt": -1000, "stimulus": "/static/audio/wordpool/TRUCK.wav", "key_press": -1, "type": "PRES_AUD", "word": "truck", "wordID": 1511, "conditions": [18, 1200, "a", 18000], "trial": 1, "serialpos": 0, "trial_type": "single-audio", "trial_index": 55, "time_elapsed": 308526, "internal_node_id": "0.0-37.0"}}, {"uniqueid": "MTK0413:36U2A8VAG263QPO1LZKV77TYQ4EKYM", "current_trial": 56, "dateTime": 1510859802110, "trialdata": {"rt": -1000, "stimulus": "/static/audio/wordpool/HAND.wav", "key_press": -1, "type": "PRES_AUD", "word": "hand", "wordID": 682, "conditions": [18, 1200, "a", 18000], "trial": 1, "serialpos": 1, "trial_type": "single-audio", "trial_index": 56, "time_elapsed": 310666, "internal_node_id": "0.0-38.0"}}, {"uniqueid": "MTK0413:36U2A8VAG263QPO1LZKV77TYQ4EKYM", "current_trial": 57, "dateTime": 1510859804481, "trialdata": {"rt": -1000, "stimulus": "/static/audio/wordpool/LAVA.wav", "key_press": -1, "type": "PRES_AUD", "word": "lava", "wordID": 803, "conditions": [18, 1200, "a", 18000], "trial": 1, "serialpos": 2, "trial_type": "single-audio", "trial_index": 57, "time_elapsed": 313036, "internal_node_id": "0.0-39.0"}}, {"uniqueid": "MTK0413:36U2A8VAG263QPO1LZKV77TYQ4EKYM", "current_trial": 58, "dateTime": 1510859806710, "trialdata": {"rt": -1000, "stimulus": "/static/audio/wordpool/COUSIN.wav", "key_press": -1, "type": "PRES_AUD", "word": "cousin", "wordID": 391, "conditions": [18, 1200, "a", 18000], "trial": 1, "serialpos": 3, "trial_type": "single-audio", "trial_index": 58, "time_elapsed": 315266, "internal_node_id": "0.0-40.0"}}, {"uniqueid": "MTK0413:36U2A8VAG263QPO1LZKV77TYQ4EKYM", "current_trial": 59, "dateTime": 1510859809098, "trialdata": {"rt": -1000, "stimulus": "/static/audio/wordpool/DRUG.wav", "key_press": -1, "type": "PRES_AUD", "word": "drug", "wordID": 500, "conditions": [18, 1200, "a", 18000], "trial": 1, "serialpos": 4, "trial_type": "single-audio", "trial_index": 59, "time_elapsed": 317654, "internal_node_id": "0.0-41.0"}}, {"uniqueid": "MTK0413:36U2A8VAG263QPO1LZKV77TYQ4EKYM", "current_trial": 60, "dateTime": 1510859811358, "trialdata": {"rt": -1000, "stimulus": "/static/audio/wordpool/TEACHER.wav", "key_press": -1, "type": "PRES_AUD", "word": "teacher", "wordID": 1439, "conditions": [18, 1200, "a", 18000], "trial": 1, "serialpos": 5, "trial_type": "single-audio", "trial_index": 60, "time_elapsed": 319914, "internal_node_id": "0.0-42.0"}}, {"uniqueid": "MTK0413:36U2A8VAG263QPO1LZKV77TYQ4EKYM", "current_trial": 61, "dateTime": 1510859813700, "trialdata": {"rt": -1000, "stimulus": "/static/audio/wordpool/BARREL.wav", "key_press": -1, "type": "PRES_AUD", "word": "barrel", "wordID": 90, "conditions": [18, 1200, "a", 18000], "trial": 1, "serialpos": 6, "trial_type": "single-audio", "trial_index": 61, "time_elapsed": 322256, "internal_node_id": "0.0-43.0"}}, {"uniqueid": "MTK0413:36U2A8VAG263QPO1LZKV77TYQ4EKYM", "current_trial": 62, "dateTime": 1510859815763, "trialdata": {"rt": -1000, "stimulus": "/static/audio/wordpool/KLEENEX.wav", "key_press": -1, "type": "PRES_AUD", "word": "kleenex", "wordID": 781, "conditions": [18, 1200, "a", 18000], "trial": 1, "serialpos": 7, "trial_type": "single-audio", "trial_index": 62, "time_elapsed": 324319, "internal_node_id": "0.0-44.0"}}, {"uniqueid": "MTK0413:36U2A8VAG263QPO1LZKV77TYQ4EKYM", "current_trial": 63, "dateTime": 1510859817873, "trialdata": {"rt": -1000, "stimulus": "/static/audio/wordpool/GROUND.wav", "key_press": -1, "type": "PRES_AUD", "word": "ground", "wordID": 665, "conditions": [18, 1200, "a", 18000], "trial": 1, "serialpos": 8, "trial_type": "single-audio", "trial_index": 63, "time_elapsed": 326429, "internal_node_id": "0.0-45.0"}}, {"uniqueid": "MTK0413:36U2A8VAG263QPO1LZKV77TYQ4EKYM", "current_trial": 64, "dateTime": 1510859820109, "trialdata": {"rt": -1000, "stimulus": "/static/audio/wordpool/HONEY.wav", "key_press": -1, "type": "PRES_AUD", "word": "honey", "wordID": 712, "conditions": [18, 1200, "a", 18000], "trial": 1, "serialpos": 9, "trial_type": "single-audio", "trial_index": 64, "time_elapsed": 328665, "internal_node_id": "0.0-46.0"}}, {"uniqueid": "MTK0413:36U2A8VAG263QPO1LZKV77TYQ4EKYM", "current_trial": 65, "dateTime": 1510859822164, "trialdata": {"rt": -1000, "stimulus": "/static/audio/wordpool/FINGER.wav", "key_press": -1, "type": "PRES_AUD", "word": "finger", "wordID": 566, "conditions": [18, 1200, "a", 18000], "trial": 1, "serialpos": 10, "trial_type": "single-audio", "trial_index": 65, "time_elapsed": 330720, "internal_node_id": "0.0-47.0"}}, {"uniqueid": "MTK0413:36U2A8VAG263QPO1LZKV77TYQ4EKYM", "current_trial": 66, "dateTime": 1510859824550, "trialdata": {"rt": -1000, "stimulus": "/static/audio/wordpool/RECORD.wav", "key_press": -1, "type": "PRES_AUD", "word": "record", "wordID": 1175, "conditions": [18, 1200, "a", 18000], "trial": 1, "serialpos": 11, "trial_type": "single-audio", "trial_index": 66, "time_elapsed": 333106, "internal_node_id": "0.0-48.0"}}, {"uniqueid": "MTK0413:36U2A8VAG263QPO1LZKV77TYQ4EKYM", "current_trial": 67, "dateTime": 1510859826925, "trialdata": {"rt": -1000, "stimulus": "/static/audio/wordpool/TYPIST.wav", "key_press": -1, "type": "PRES_AUD", "word": "typist", "wordID": 1531, "conditions": [18, 1200, "a", 18000], "trial": 1, "serialpos": 12, "trial_type": "single-audio", "trial_index": 67, "time_elapsed": 335480, "internal_node_id": "0.0-49.0"}}, {"uniqueid": "MTK0413:36U2A8VAG263QPO1LZKV77TYQ4EKYM", "current_trial": 68, "dateTime": 1510859828947, "trialdata": {"rt": -1000, "stimulus": "/static/audio/wordpool/FLIPPER.wav", "key_press": -1, "type": "PRES_AUD", "word": "flipper", "wordID": 579, "conditions": [18, 1200, "a", 18000], "trial": 1, "serialpos": 13, "trial_type": "single-audio", "trial_index": 68, "time_elapsed": 337494, "internal_node_id": "0.0-50.0"}}, {"uniqueid": "MTK0413:36U2A8VAG263QPO1LZKV77TYQ4EKYM", "current_trial": 69, "dateTime": 1510859831355, "trialdata": {"rt": -1000, "stimulus": "/static/audio/wordpool/POISON.wav", "key_press": -1, "type": "PRES_AUD", "word": "poison", "wordID": 1095, "conditions": [18, 1200, "a", 18000], "trial": 1, "serialpos": 14, "trial_type": "single-audio", "trial_index": 69, "time_elapsed": 339911, "internal_node_id": "0.0-51.0"}}, {"uniqueid": "MTK0413:36U2A8VAG263QPO1LZKV77TYQ4EKYM", "current_trial": 70, "dateTime": 1510859833463, "trialdata": {"rt": -1000, "stimulus": "/static/audio/wordpool/PARSLEY.wav", "key_press": -1, "type": "PRES_AUD", "word": "parsley", "wordID": 1015, "conditions": [18, 1200, "a", 18000], "trial": 1, "serialpos": 15, "trial_type": "single-audio", "trial_index": 70, "time_elapsed": 342019, "internal_node_id": "0.0-52.0"}}, {"uniqueid": "MTK0413:36U2A8VAG263QPO1LZKV77TYQ4EKYM", "current_trial": 71, "dateTime": 1510859835712, "trialdata": {"rt": -1000, "stimulus": "/static/audio/wordpool/DUSTPAN.wav", "key_press": -1, "type": "PRES_AUD", "word": "dustpan", "wordID": 508, "conditions": [18, 1200, "a", 18000], "trial": 1, "serialpos": 16, "trial_type": "single-audio", "trial_index": 71, "time_elapsed": 344267, "internal_node_id": "0.0-53.0"}}, {"uniqueid": "MTK0413:36U2A8VAG263QPO1LZKV77TYQ4EKYM", "current_trial": 72, "dateTime": 1510859838021, "trialdata": {"rt": -1000, "stimulus": "/static/audio/wordpool/COUNTY.wav", "key_press": -1, "type": "PRES_AUD", "word": "county", "wordID": 388, "conditions": [18, 1200, "a", 18000], "trial": 1, "serialpos": 17, "trial_type": "single-audio", "trial_index": 72, "time_elapsed": 346577, "internal_node_id": "0.0-54.0"}}, {"uniqueid": "MTK0413:36U2A8VAG263QPO1LZKV77TYQ4EKYM", "current_trial": 73, "dateTime": 1510859839334, "trialdata": {"rt": -1, "stimulus": "", "key_press": -1, "type": "PRE_RECALL_DELAY", "trial_type": "single-stim", "trial_index": 73, "time_elapsed": 347890, "internal_node_id": "0.0-55.0-0.0"}}, {"uniqueid": "MTK0413:36U2A8VAG263QPO1LZKV77TYQ4EKYM", "current_trial": 74, "dateTime": 1510859839841, "trialdata": {"rt": -1000, "stimulus": "/static/audio/400Hz.wav", "key_press": -1, "type": "PRE_RECALL_ALERT", "trial_type": "single-audio", "trial_index": 74, "time_elapsed": 348396, "internal_node_id": "0.0-56.0"}}, {"uniqueid": "MTK0413:36U2A8VAG263QPO1LZKV77TYQ4EKYM", "current_trial": 75, "dateTime": 1510859899852, "trialdata": {"rt": [3378, 5546, 7900, 12398, 14621, 35146, 38226], "recwords": ["county", "dustpan", "poison", "parsley", "finger", "truck", "ink"], "type": "FREE_RECALL", "conditions": [18, 1200, "a", 18000], "trial": 1, "trial_type": "free-recall", "trial_index": 75, "time_elapsed": 408404, "internal_node_id": "0.0-57.0-0.0"}}, {"uniqueid": "MTK0413:36U2A8VAG263QPO1LZKV77TYQ4EKYM", "current_trial": 76, "dateTime": 1510859904179, "trialdata": {"rt": 2315, "key_press": 32, "type": "INSTRUCTIONS", "trial_type": "text", "trial_index": 76, "time_elapsed": 412725, "internal_node_id": "0.0-58.0"}}, {"uniqueid": "MTK0413:36U2A8VAG263QPO1LZKV77TYQ4EKYM", "current_trial": 77, "dateTime": 1510859929185, "trialdata": {"rt": [4675, 8136, 12486, 16075, 18761, 22507], "responses": ["23", "20", "14", "15", "14", "15"], "num1": [8, 9, 3, 2, 2, 3, 1], "num2": [6, 7, 3, 9, 8, 3, 6], "num3": [9, 4, 8, 4, 4, 9, 9], "type": "DISTRACTOR", "conditions": [24, 1600, "a", 24000], "trial": 2, "trial_type": "math-distractor", "trial_index": 77, "time_elapsed": 437741, "internal_node_id": "0.0-59.0"}}, {"uniqueid": "MTK0413:36U2A8VAG263QPO1LZKV77TYQ4EKYM", "current_trial": 78, "dateTime": 1510859932188, "trialdata": {"rt": -1, "stimulus": "<p id=\"stim\">10</p>", "key_press": -1, "trial_type": "single-stim", "trial_index": 78, "time_elapsed": 440744, "internal_node_id": "0.0-60.0-0.0"}}, {"uniqueid": "MTK0413:36U2A8VAG263QPO1LZKV77TYQ4EKYM", "current_trial": 79, "dateTime": 1510859933189, "trialdata": {"rt": -1, "stimulus": "<p id=\"stim\">9</p>", "key_press": -1, "trial_type": "single-stim", "trial_index": 79, "time_elapsed": 441745, "internal_node_id": "0.0-60.0-1.0"}}, {"uniqueid": "MTK0413:36U2A8VAG263QPO1LZKV77TYQ4EKYM", "current_trial": 80, "dateTime": 1510859934191, "trialdata": {"rt": -1, "stimulus": "<p id=\"stim\">8</p>", "key_press": -1, "trial_type": "single-stim", "trial_index": 80, "time_elapsed": 442747, "internal_node_id": "0.0-60.0-2.0"}}, {"uniqueid": "MTK0413:36U2A8VAG263QPO1LZKV77TYQ4EKYM", "current_trial": 81, "dateTime": 1510859935193, "trialdata": {"rt": -1, "stimulus": "<p id=\"stim\">7</p>", "key_press": -1, "trial_type": "single-stim", "trial_index": 81, "time_elapsed": 443749, "internal_node_id": "0.0-60.0-3.0"}}, {"uniqueid": "MTK0413:36U2A8VAG263QPO1LZKV77TYQ4EKYM", "current_trial": 82, "dateTime": 1510859936196, "trialdata": {"rt": -1, "stimulus": "<p id=\"stim\">6</p>", "key_press": -1, "trial_type": "single-stim", "trial_index": 82, "time_elapsed": 444752, "internal_node_id": "0.0-60.0-4.0"}}, {"uniqueid": "MTK0413:36U2A8VAG263QPO1LZKV77TYQ4EKYM", "current_trial": 83, "dateTime": 1510859937200, "trialdata": {"rt": -1, "stimulus": "<p id=\"stim\">5</p>", "key_press": -1, "trial_type": "single-stim", "trial_index": 83, "time_elapsed": 445755, "internal_node_id": "0.0-60.0-5.0"}}, {"uniqueid": "MTK0413:36U2A8VAG263QPO1LZKV77TYQ4EKYM", "current_trial": 84, "dateTime": 1510859938202, "trialdata": {"rt": -1, "stimulus": "<p id=\"stim\">4</p>", "key_press": -1, "trial_type": "single-stim", "trial_index": 84, "time_elapsed": 446757, "internal_node_id": "0.0-60.0-6.0"}}, {"uniqueid": "MTK0413:36U2A8VAG263QPO1LZKV77TYQ4EKYM", "current_trial": 85, "dateTime": 1510859939203, "trialdata": {"rt": -1, "stimulus": "<p id=\"stim\">3</p>", "key_press": -1, "trial_type": "single-stim", "trial_index": 85, "time_elapsed": 447759, "internal_node_id": "0.0-60.0-7.0"}}, {"uniqueid": "MTK0413:36U2A8VAG263QPO1LZKV77TYQ4EKYM", "current_trial": 86, "dateTime": 1510859940205, "trialdata": {"rt": -1, "stimulus": "<p id=\"stim\">2</p>", "key_press": -1, "trial_type": "single-stim", "trial_index": 86, "time_elapsed": 448761, "internal_node_id": "0.0-60.0-8.0"}}, {"uniqueid": "MTK0413:36U2A8VAG263QPO1LZKV77TYQ4EKYM", "current_trial": 87, "dateTime": 1510859941206, "trialdata": {"rt": -1, "stimulus": "<p id=\"stim\">1</p>", "key_press": -1, "trial_type": "single-stim", "trial_index": 87, "time_elapsed": 449762, "internal_node_id": "0.0-60.0-9.0"}}, {"uniqueid": "MTK0413:36U2A8VAG263QPO1LZKV77TYQ4EKYM", "current_trial": 88, "dateTime": 1510859942711, "trialdata": {"rt": -1, "stimulus": "<p id=\"stim\">+</p>", "key_press": -1, "type": "FIXATION", "trial_type": "single-stim", "trial_index": 88, "time_elapsed": 451263, "internal_node_id": "0.0-61.0-0.0"}}, {"uniqueid": "MTK0413:36U2A8VAG263QPO1LZKV77TYQ4EKYM", "current_trial": 89, "dateTime": 1510859945317, "trialdata": {"rt": -1000, "stimulus": "/static/audio/wordpool/LIVER.wav", "key_press": -1, "type": "PRES_AUD", "word": "liver", "wordID": 832, "conditions": [24, 1600, "a", 24000], "trial": 2, "serialpos": 0, "trial_type": "single-audio", "trial_index": 89, "time_elapsed": 453872, "internal_node_id": "0.0-62.0"}}, {"uniqueid": "MTK0413:36U2A8VAG263QPO1LZKV77TYQ4EKYM", "current_trial": 90, "dateTime": 1510859948063, "trialdata": {"rt": -1000, "stimulus": "/static/audio/wordpool/VELVET.wav", "key_press": -1, "type": "PRES_AUD", "word": "velvet", "wordID": 1554, "conditions": [24, 1600, "a", 24000], "trial": 2, "serialpos": 1, "trial_type": "single-audio", "trial_index": 90, "time_elapsed": 456618, "internal_node_id": "0.0-63.0"}}, {"uniqueid": "MTK0413:36U2A8VAG263QPO1LZKV77TYQ4EKYM", "current_trial": 91, "dateTime": 1510859950672, "trialdata": {"rt": -1000, "stimulus": "/static/audio/wordpool/LILY.wav", "key_press": -1, "type": "PRES_AUD", "word": "lily", "wordID": 820, "conditions": [24, 1600, "a", 24000], "trial": 2, "serialpos": 2, "trial_type": "single-audio", "trial_index": 91, "time_elapsed": 459227, "internal_node_id": "0.0-64.0"}}, {"uniqueid": "MTK0413:36U2A8VAG263QPO1LZKV77TYQ4EKYM", "current_trial": 92, "dateTime": 1510859953135, "trialdata": {"rt": -1000, "stimulus": "/static/audio/wordpool/SILK.wav", "key_press": -1, "type": "PRES_AUD", "word": "silk", "wordID": 1306, "conditions": [24, 1600, "a", 24000], "trial": 2, "serialpos": 3, "trial_type": "single-audio", "trial_index": 92, "time_elapsed": 461690, "internal_node_id": "0.0-65.0"}}, {"uniqueid": "MTK0413:36U2A8VAG263QPO1LZKV77TYQ4EKYM", "current_trial": 93, "dateTime": 1510859955836, "trialdata": {"rt": -1000, "stimulus": "/static/audio/wordpool/LAMP.wav", "key_press": -1, "type": "PRES_AUD", "word": "lamp", "wordID": 797, "conditions": [24, 1600, "a", 24000], "trial": 2, "serialpos": 4, "trial_type": "single-audio", "trial_index": 93, "time_elapsed": 464392, "internal_node_id": "0.0-66.0"}}, {"uniqueid": "MTK0413:36U2A8VAG263QPO1LZKV77TYQ4EKYM", "current_trial": 94, "dateTime": 1510859958367, "trialdata": {"rt": -1000, "stimulus": "/static/audio/wordpool/PIMPLE.wav", "key_press": -1, "type": "PRES_AUD", "word": "pimple", "wordID": 1070, "conditions": [24, 1600, "a", 24000], "trial": 2, "serialpos": 5, "trial_type": "single-audio", "trial_index": 94, "time_elapsed": 466923, "internal_node_id": "0.0-67.0"}}, {"uniqueid": "MTK0413:36U2A8VAG263QPO1LZKV77TYQ4EKYM", "current_trial": 95, "dateTime": 1510859961167, "trialdata": {"rt": -1000, "stimulus": "/static/audio/wordpool/BLUEPRINT.wav", "key_press": -1, "type": "PRES_AUD", "word": "blueprint", "wordID": 141, "conditions": [24, 1600, "a", 24000], "trial": 2, "serialpos": 6, "trial_type": "single-audio", "trial_index": 95, "time_elapsed": 469723, "internal_node_id": "0.0-68.0"}}, {"uniqueid": "MTK0413:36U2A8VAG263QPO1LZKV77TYQ4EKYM", "current_trial": 96, "dateTime": 1510859963605, "trialdata": {"rt": -1000, "stimulus": "/static/audio/wordpool/JUDGE.wav", "key_press": -1, "type": "PRES_AUD", "word": "judge", "wordID": 760, "conditions": [24, 1600, "a", 24000], "trial": 2, "serialpos": 7, "trial_type": "single-audio", "trial_index": 96, "time_elapsed": 472161, "internal_node_id": "0.0-69.0"}}, {"uniqueid": "MTK0413:36U2A8VAG263QPO1LZKV77TYQ4EKYM", "current_trial": 97, "dateTime": 1510859966276, "trialdata": {"rt": -1000, "stimulus": "/static/audio/wordpool/JURY.wav", "key_press": -1, "type": "PRES_AUD", "word": "jury", "wordID": 765, "conditions": [24, 1600, "a", 24000], "trial": 2, "serialpos": 8, "trial_type": "single-audio", "trial_index": 97, "time_elapsed": 474832, "internal_node_id": "0.0-70.0"}}, {"uniqueid": "MTK0413:36U2A8VAG263QPO1LZKV77TYQ4EKYM", "current_trial": 98, "dateTime": 1510859969015, "trialdata": {"rt": -1000, "stimulus": "/static/audio/wordpool/ANKLE.wav", "key_press": -1, "type": "PRES_AUD", "word": "ankle", "wordID": 23, "conditions": [24, 1600, "a", 24000], "trial": 2, "serialpos": 9, "trial_type": "single-audio", "trial_index": 98, "time_elapsed": 477571, "internal_node_id": "0.0-71.0"}}, {"uniqueid": "MTK0413:36U2A8VAG263QPO1LZKV77TYQ4EKYM", "current_trial": 99, "dateTime": 1510859971562, "trialdata": {"rt": -1000, "stimulus": "/static/audio/wordpool/PLAID.wav", "key_press": -1, "type": "PRES_AUD", "word": "plaid", "wordID": 1079, "conditions": [24, 1600, "a", 24000], "trial": 2, "serialpos": 10, "trial_type": "single-audio", "trial_index": 99, "time_elapsed": 480117, "internal_node_id": "0.0-72.0"}}, {"uniqueid": "MTK0413:36U2A8VAG263QPO1LZKV77TYQ4EKYM", "current_trial": 100, "dateTime": 1510859974293, "trialdata": {"rt": -1000, "stimulus": "/static/audio/wordpool/ROCKET.wav", "key_press": -1, "type": "PRES_AUD", "word": "rocket", "wordID": 1201, "conditions": [24, 1600, "a", 24000], "trial": 2, "serialpos": 11, "trial_type": "single-audio", "trial_index": 100, "time_elapsed": 482849, "internal_node_id": "0.0-73.0"}}, {"uniqueid": "MTK0413:36U2A8VAG263QPO1LZKV77TYQ4EKYM", "current_trial": 101, "dateTime": 1510859977077, "trialdata": {"rt": -1000, "stimulus": "/static/audio/wordpool/KIDNEY.wav", "key_press": -1, "type": "PRES_AUD", "word": "kidney", "wordID": 775, "conditions": [24, 1600, "a", 24000], "trial": 2, "serialpos": 12, "trial_type": "single-audio", "trial_index": 101, "time_elapsed": 485633, "internal_node_id": "0.0-74.0"}}, {"uniqueid": "MTK0413:36U2A8VAG263QPO1LZKV77TYQ4EKYM", "current_trial": 102, "dateTime": 1510859979767, "trialdata": {"rt": -1000, "stimulus": "/static/audio/wordpool/BOUQUET.wav", "key_press": -1, "type": "PRES_AUD", "word": "bouquet", "wordID": 156, "conditions": [24, 1600, "a", 24000], "trial": 2, "serialpos": 13, "trial_type": "single-audio", "trial_index": 102, "time_elapsed": 488323, "internal_node_id": "0.0-75.0"}}, {"uniqueid": "MTK0413:36U2A8VAG263QPO1LZKV77TYQ4EKYM", "current_trial": 103, "dateTime": 1510859982471, "trialdata": {"rt": -1000, "stimulus": "/static/audio/wordpool/DINER.wav", "key_press": -1, "type": "PRES_AUD", "word": "diner", "wordID": 466, "conditions": [24, 1600, "a", 24000], "trial": 2, "serialpos": 14, "trial_type": "single-audio", "trial_index": 103, "time_elapsed": 491026, "internal_node_id": "0.0-76.0"}}, {"uniqueid": "MTK0413:36U2A8VAG263QPO1LZKV77TYQ4EKYM", "current_trial": 104, "dateTime": 1510859985270, "trialdata": {"rt": -1000, "stimulus": "/static/audio/wordpool/SALAD.wav", "key_press": -1, "type": "PRES_AUD", "word": "salad", "wordID": 1223, "conditions": [24, 1600, "a", 24000], "trial": 2, "serialpos": 15, "trial_type": "single-audio", "trial_index": 104, "time_elapsed": 493826, "internal_node_id": "0.0-77.0"}}, {"uniqueid": "MTK0413:36U2A8VAG263QPO1LZKV77TYQ4EKYM", "current_trial": 105, "dateTime": 1510859987830, "trialdata": {"rt": -1000, "stimulus": "/static/audio/wordpool/SIBLING.wav", "key_press": -1, "type": "PRES_AUD", "word": "sibling", "wordID": 1300, "conditions": [24, 1600, "a", 24000], "trial": 2, "serialpos": 16, "trial_type": "single-audio", "trial_index": 105, "time_elapsed": 496386, "internal_node_id": "0.0-78.0"}}, {"uniqueid": "MTK0413:36U2A8VAG263QPO1LZKV77TYQ4EKYM", "current_trial": 106, "dateTime": 1510859990426, "trialdata": {"rt": -1000, "stimulus": "/static/audio/wordpool/NOTEBOOK.wav", "key_press": -1, "type": "PRES_AUD", "word": "notebook", "wordID": 958, "conditions": [24, 1600, "a", 24000], "trial": 2, "serialpos": 17, "trial_type": "single-audio", "trial_index": 106, "time_elapsed": 498982, "internal_node_id": "0.0-79.0"}}, {"uniqueid": "MTK0413:36U2A8VAG263QPO1LZKV77TYQ4EKYM", "current_trial": 107, "dateTime": 1510859992864, "trialdata": {"rt": -1000, "stimulus": "/static/audio/wordpool/DORM.wav", "key_press": -1, "type": "PRES_AUD", "word": "dorm", "wordID": 487, "conditions": [24, 1600, "a", 24000], "trial": 2, "serialpos": 18, "trial_type": "single-audio", "trial_index": 107, "time_elapsed": 501420, "internal_node_id": "0.0-80.0"}}, {"uniqueid": "MTK0413:36U2A8VAG263QPO1LZKV77TYQ4EKYM", "current_trial": 108, "dateTime": 1510859995348, "trialdata": {"rt": -1000, "stimulus": "/static/audio/wordpool/TRANSPLANT.wav", "key_press": -1, "type": "PRES_AUD", "word": "transplant", "wordID": 1495, "conditions": [24, 1600, "a", 24000], "trial": 2, "serialpos": 19, "trial_type": "single-audio", "trial_index": 108, "time_elapsed": 503904, "internal_node_id": "0.0-81.0"}}, {"uniqueid": "MTK0413:36U2A8VAG263QPO1LZKV77TYQ4EKYM", "current_trial": 109, "dateTime": 1510859998008, "trialdata": {"rt": -1000, "stimulus": "/static/audio/wordpool/SPOON.wav", "key_press": -1, "type": "PRES_AUD", "word": "spoon", "wordID": 1356, "conditions": [24, 1600, "a", 24000], "trial": 2, "serialpos": 20, "trial_type": "single-audio", "trial_index": 109, "time_elapsed": 506564, "internal_node_id": "0.0-82.0"}}, {"uniqueid": "MTK0413:36U2A8VAG263QPO1LZKV77TYQ4EKYM", "current_trial": 110, "dateTime": 1510860000710, "trialdata": {"rt": -1000, "stimulus": "/static/audio/wordpool/PORTRAIT.wav", "key_press": -1, "type": "PRES_AUD", "word": "portrait", "wordID": 1110, "conditions": [24, 1600, "a", 24000], "trial": 2, "serialpos": 21, "trial_type": "single-audio", "trial_index": 110, "time_elapsed": 509265, "internal_node_id": "0.0-83.0"}}, {"uniqueid": "MTK0413:36U2A8VAG263QPO1LZKV77TYQ4EKYM", "current_trial": 111, "dateTime": 1510860003324, "trialdata": {"rt": -1000, "stimulus": "/static/audio/wordpool/PICTURE.wav", "key_press": -1, "type": "PRES_AUD", "word": "picture", "wordID": 1060, "conditions": [24, 1600, "a", 24000], "trial": 2, "serialpos": 22, "trial_type": "single-audio", "trial_index": 111, "time_elapsed": 511880, "internal_node_id": "0.0-84.0"}}, {"uniqueid": "MTK0413:36U2A8VAG263QPO1LZKV77TYQ4EKYM", "current_trial": 112, "dateTime": 1510860005803, "trialdata": {"rt": -1000, "stimulus": "/static/audio/wordpool/PUPPY.wav", "key_press": -1, "type": "PRES_AUD", "word": "puppy", "wordID": 1143, "conditions": [24, 1600, "a", 24000], "trial": 2, "serialpos": 23, "trial_type": "single-audio", "trial_index": 112, "time_elapsed": 514358, "internal_node_id": "0.0-85.0"}}, {"uniqueid": "MTK0413:36U2A8VAG263QPO1LZKV77TYQ4EKYM", "current_trial": 113, "dateTime": 1510860007090, "trialdata": {"rt": -1, "stimulus": "", "key_press": -1, "type": "PRE_RECALL_DELAY", "trial_type": "single-stim", "trial_index": 113, "time_elapsed": 515646, "internal_node_id": "0.0-86.0-0.0"}}, {"uniqueid": "MTK0413:36U2A8VAG263QPO1LZKV77TYQ4EKYM", "current_trial": 114, "dateTime": 1510860007594, "trialdata": {"rt": -1000, "stimulus": "/static/audio/400Hz.wav", "key_press": -1, "type": "PRE_RECALL_ALERT", "trial_type": "single-audio", "trial_index": 114, "time_elapsed": 516150, "internal_node_id": "0.0-87.0"}}, {"uniqueid": "MTK0413:36U2A8VAG263QPO1LZKV77TYQ4EKYM", "current_trial": 115, "dateTime": 1510860067603, "trialdata": {"rt": [4305, 8018, 12106, 14561, 15907, 20061, 21492, 29426], "recwords": ["liver", "puppy", "rocket", "judge", "jury", "spoon", "salad", "lily"], "type": "FREE_RECALL", "conditions": [24, 1600, "a", 24000], "trial": 2, "trial_type": "free-recall", "trial_index": 115, "time_elapsed": 576156, "internal_node_id": "0.0-88.0-0.0"}}, {"uniqueid": "MTK0413:36U2A8VAG263QPO1LZKV77TYQ4EKYM", "current_trial": 116, "dateTime": 1510860078289, "trialdata": {"rt": 8685, "key_press": 32, "type": "INSTRUCTIONS", "trial_type": "text", "trial_index": 116, "time_elapsed": 586845, "internal_node_id": "0.0-89.0"}}, {"uniqueid": "MTK0413:36U2A8VAG263QPO1LZKV77TYQ4EKYM", "current_trial": 117, "dateTime": 1510860104294, "trialdata": {"rt": [3481, 7430, 9784, 13412, 15972, 18277, 21819], "responses": ["14", "20", "10", "18", "14", "10", "8"], "num1": [4, 5, 7, 5, 5, 1, 4, 1], "num2": [9, 7, 1, 7, 4, 1, 2, 5], "num3": [1, 8, 2, 6, 5, 8, 2, 4], "type": "DISTRACTOR", "conditions": [24, 800, "v", 24000], "trial": 3, "trial_type": "math-distractor", "trial_index": 117, "time_elapsed": 612849, "internal_node_id": "0.0-90.0"}}, {"uniqueid": "MTK0413:36U2A8VAG263QPO1LZKV77TYQ4EKYM", "current_trial": 118, "dateTime": 1510860107298, "trialdata": {"rt": -1, "stimulus": "<p id=\"stim\">10</p>", "key_press": -1, "trial_type": "single-stim", "trial_index": 118, "time_elapsed": 615854, "internal_node_id": "0.0-91.0-0.0"}}, {"uniqueid": "MTK0413:36U2A8VAG263QPO1LZKV77TYQ4EKYM", "current_trial": 119, "dateTime": 1510860108315, "trialdata": {"rt": -1, "stimulus": "<p id=\"stim\">9</p>", "key_press": -1, "trial_type": "single-stim", "trial_index": 119, "time_elapsed": 616871, "internal_node_id": "0.0-91.0-1.0"}}, {"uniqueid": "MTK0413:36U2A8VAG263QPO1LZKV77TYQ4EKYM", "current_trial": 120, "dateTime": 1510860109320, "trialdata": {"rt": -1, "stimulus": "<p id=\"stim\">8</p>", "key_press": -1, "trial_type": "single-stim", "trial_index": 120, "time_elapsed": 617875, "internal_node_id": "0.0-91.0-2.0"}}, {"uniqueid": "MTK0413:36U2A8VAG263QPO1LZKV77TYQ4EKYM", "current_trial": 121, "dateTime": 1510860110323, "trialdata": {"rt": -1, "stimulus": "<p id=\"stim\">7</p>", "key_press": -1, "trial_type": "single-stim", "trial_index": 121, "time_elapsed": 618878, "internal_node_id": "0.0-91.0-3.0"}}, {"uniqueid": "MTK0413:36U2A8VAG263QPO1LZKV77TYQ4EKYM", "current_trial": 122, "dateTime": 1510860111326, "trialdata": {"rt": -1, "stimulus": "<p id=\"stim\">6</p>", "key_press": -1, "trial_type": "single-stim", "trial_index": 122, "time_elapsed": 619882, "internal_node_id": "0.0-91.0-4.0"}}, {"uniqueid": "MTK0413:36U2A8VAG263QPO1LZKV77TYQ4EKYM", "current_trial": 123, "dateTime": 1510860112329, "trialdata": {"rt": -1, "stimulus": "<p id=\"stim\">5</p>", "key_press": -1, "trial_type": "single-stim", "trial_index": 123, "time_elapsed": 620885, "internal_node_id": "0.0-91.0-5.0"}}, {"uniqueid": "MTK0413:36U2A8VAG263QPO1LZKV77TYQ4EKYM", "current_trial": 124, "dateTime": 1510860113338, "trialdata": {"rt": -1, "stimulus": "<p id=\"stim\">4</p>", "key_press": -1, "trial_type": "single-stim", "trial_index": 124, "time_elapsed": 621894, "internal_node_id": "0.0-91.0-6.0"}}, {"uniqueid": "MTK0413:36U2A8VAG263QPO1LZKV77TYQ4EKYM", "current_trial": 125, "dateTime": 1510860114339, "trialdata": {"rt": -1, "stimulus": "<p id=\"stim\">3</p>", "key_press": -1, "trial_type": "single-stim", "trial_index": 125, "time_elapsed": 622895, "internal_node_id": "0.0-91.0-7.0"}}, {"uniqueid": "MTK0413:36U2A8VAG263QPO1LZKV77TYQ4EKYM", "current_trial": 126, "dateTime": 1510860115342, "trialdata": {"rt": -1, "stimulus": "<p id=\"stim\">2</p>", "key_press": -1, "trial_type": "single-stim", "trial_index": 126, "time_elapsed": 623897, "internal_node_id": "0.0-91.0-8.0"}}, {"uniqueid": "MTK0413:36U2A8VAG263QPO1LZKV77TYQ4EKYM", "current_trial": 127, "dateTime": 1510860116343, "trialdata": {"rt": -1, "stimulus": "<p id=\"stim\">1</p>", "key_press": -1, "trial_type": "single-stim", "trial_index": 127, "time_elapsed": 624899, "internal_node_id": "0.0-91.0-9.0"}}, {"uniqueid": "MTK0413:36U2A8VAG263QPO1LZKV77TYQ4EKYM", "current_trial": 128, "dateTime": 1510860117849, "trialdata": {"rt": -1, "stimulus": "<p id=\"stim\">+</p>", "key_press": -1, "type": "FIXATION", "trial_type": "single-stim", "trial_index": 128, "time_elapsed": 626404, "internal_node_id": "0.0-92.0-0.0"}}, {"uniqueid": "MTK0413:36U2A8VAG263QPO1LZKV77TYQ4EKYM", "current_trial": 129, "dateTime": 1510860118652, "trialdata": {"rt": -1, "stimulus": "<p id=\"stim\">FRUIT</p>", "key_press": -1, "type": "PRES_VIS", "word": "fruit", "wordID": 609, "conditions": [24, 800, "v", 24000], "trial": 3, "serialpos": 0, "trial_type": "single-stim", "trial_index": 129, "time_elapsed": 627207, "internal_node_id": "0.0-93.0"}}, {"uniqueid": "MTK0413:36U2A8VAG263QPO1LZKV77TYQ4EKYM", "current_trial": 130, "dateTime": 1510860120498, "trialdata": {"rt": -1, "stimulus": "<p id=\"stim\">TWIG</p>", "key_press": -1, "type": "PRES_VIS", "word": "twig", "wordID": 1526, "conditions": [24, 800, "v", 24000], "trial": 3, "serialpos": 1, "trial_type": "single-stim", "trial_index": 130, "time_elapsed": 629054, "internal_node_id": "0.0-94.0"}}, {"uniqueid": "MTK0413:36U2A8VAG263QPO1LZKV77TYQ4EKYM", "current_trial": 131, "dateTime": 1510860122430, "trialdata": {"rt": -1, "stimulus": "<p id=\"stim\">FLOWER</p>", "key_press": -1, "type": "PRES_VIS", "word": "flower", "wordID": 583, "conditions": [24, 800, "v", 24000], "trial": 3, "serialpos": 2, "trial_type": "single-stim", "trial_index": 131, "time_elapsed": 630986, "internal_node_id": "0.0-95.0"}}, {"uniqueid": "MTK0413:36U2A8VAG263QPO1LZKV77TYQ4EKYM", "current_trial": 132, "dateTime": 1510860124254, "trialdata": {"rt": -1, "stimulus": "<p id=\"stim\">DAISY</p>", "key_press": -1, "type": "PRES_VIS", "word": "daisy", "wordID": 434, "conditions": [24, 800, "v", 24000], "trial": 3, "serialpos": 3, "trial_type": "single-stim", "trial_index": 132, "time_elapsed": 632810, "internal_node_id": "0.0-96.0"}}, {"uniqueid": "MTK0413:36U2A8VAG263QPO1LZKV77TYQ4EKYM", "current_trial": 133, "dateTime": 1510860126023, "trialdata": {"rt": -1, "stimulus": "<p id=\"stim\">CUSTARD</p>", "key_press": -1, "type": "PRES_VIS", "word": "custard", "wordID": 428, "conditions": [24, 800, "v", 24000], "trial": 3, "serialpos": 4, "trial_type": "single-stim", "trial_index": 133, "time_elapsed": 634579, "internal_node_id": "0.0-97.0"}}, {"uniqueid": "MTK0413:36U2A8VAG263QPO1LZKV77TYQ4EKYM", "current_trial": 134, "dateTime": 1510860127980, "trialdata": {"rt": -1, "stimulus": "<p id=\"stim\">GLOVE</p>", "key_press": -1, "type": "PRES_VIS", "word": "glove", "wordID": 641, "conditions": [24, 800, "v", 24000], "trial": 3, "serialpos": 5, "trial_type": "single-stim", "trial_index": 134, "time_elapsed": 636536, "internal_node_id": "0.0-98.0"}}, {"uniqueid": "MTK0413:36U2A8VAG263QPO1LZKV77TYQ4EKYM", "current_trial": 135, "dateTime": 1510860129783, "trialdata": {"rt": -1, "stimulus": "<p id=\"stim\">CHAMPAGNE</p>", "key_press": -1, "type": "PRES_VIS", "word": "champagne", "wordID": 277, "conditions": [24, 800, "v", 24000], "trial": 3, "serialpos": 6, "trial_type": "single-stim", "trial_index": 135, "time_elapsed": 638339, "internal_node_id": "0.0-99.0"}}, {"uniqueid": "MTK0413:36U2A8VAG263QPO1LZKV77TYQ4EKYM", "current_trial": 136, "dateTime": 1510860131398, "trialdata": {"rt": -1, "stimulus": "<p id=\"stim\">TART</p>", "key_press": -1, "type": "PRES_VIS", "word": "tart", "wordID": 1435, "conditions": [24, 800, "v", 24000], "trial": 3, "serialpos": 7, "trial_type": "single-stim", "trial_index": 136, "time_elapsed": 639954, "internal_node_id": "0.0-100.0"}}, {"uniqueid": "MTK0413:36U2A8VAG263QPO1LZKV77TYQ4EKYM", "current_trial": 137, "dateTime": 1510860133327, "trialdata": {"rt": -1, "stimulus": "<p id=\"stim\">JELLY</p>", "key_press": -1, "type": "PRES_VIS", "word": "jelly", "wordID": 754, "conditions": [24, 800, "v", 24000], "trial": 3, "serialpos": 8, "trial_type": "single-stim", "trial_index": 137, "time_elapsed": 641883, "internal_node_id": "0.0-101.0"}}, {"uniqueid": "MTK0413:36U2A8VAG263QPO1LZKV77TYQ4EKYM", "current_trial": 138, "dateTime": 1510860135031, "trialdata": {"rt": -1, "stimulus": "<p id=\"stim\">GRAVE</p>", "key_press": -1, "type": "PRES_VIS", "word": "grave", "wordID": 657, "conditions": [24, 800, "v", 24000], "trial": 3, "serialpos": 9, "trial_type": "single-stim", "trial_index": 138, "time_elapsed": 643587, "internal_node_id": "0.0-102.0"}}, {"uniqueid": "MTK0413:36U2A8VAG263QPO1LZKV77TYQ4EKYM", "current_trial": 139, "dateTime": 1510860137029, "trialdata": {"rt": -1, "stimulus": "<p id=\"stim\">ANTLER</p>", "key_press": -1, "type": "PRES_VIS", "word": "antler", "wordID": 28, "conditions": [24, 800, "v", 24000], "trial": 3, "serialpos": 10, "trial_type": "single-stim", "trial_index": 139, "time_elapsed": 645584, "internal_node_id": "0.0-103.0"}}, {"uniqueid": "MTK0413:36U2A8VAG263QPO1LZKV77TYQ4EKYM", "current_trial": 140, "dateTime": 1510860138674, "trialdata": {"rt": -1, "stimulus": "<p id=\"stim\">CRAB</p>", "key_press": -1, "type": "PRES_VIS", "word": "crab", "wordID": 396, "conditions": [24, 800, "v", 24000], "trial": 3, "serialpos": 11, "trial_type": "single-stim", "trial_index": 140, "time_elapsed": 647229, "internal_node_id": "0.0-104.0"}}, {"uniqueid": "MTK0413:36U2A8VAG263QPO1LZKV77TYQ4EKYM", "current_trial": 141, "dateTime": 1510860140635, "trialdata": {"rt": -1, "stimulus": "<p id=\"stim\">ARM</p>", "key_press": -1, "type": "PRES_VIS", "word": "arm", "wordID": 37, "conditions": [24, 800, "v", 24000], "trial": 3, "serialpos": 12, "trial_type": "single-stim", "trial_index": 141, "time_elapsed": 649191, "internal_node_id": "0.0-105.0"}}, {"uniqueid": "MTK0413:36U2A8VAG263QPO1LZKV77TYQ4EKYM", "current_trial": 142, "dateTime": 1510860142288, "trialdata": {"rt": -1, "stimulus": "<p id=\"stim\">KITCHEN</p>", "key_press": -1, "type": "PRES_VIS", "word": "kitchen", "wordID": 777, "conditions": [24, 800, "v", 24000], "trial": 3, "serialpos": 13, "trial_type": "single-stim", "trial_index": 142, "time_elapsed": 650844, "internal_node_id": "0.0-106.0"}}, {"uniqueid": "MTK0413:36U2A8VAG263QPO1LZKV77TYQ4EKYM", "current_trial": 143, "dateTime": 1510860143988, "trialdata": {"rt": -1, "stimulus": "<p id=\"stim\">SEAFOOD</p>", "key_press": -1, "type": "PRES_VIS", "word": "seafood", "wordID": 1259, "conditions": [24, 800, "v", 24000], "trial": 3, "serialpos": 14, "trial_type": "single-stim", "trial_index": 143, "time_elapsed": 652544, "internal_node_id": "0.0-107.0"}}, {"uniqueid": "MTK0413:36U2A8VAG263QPO1LZKV77TYQ4EKYM", "current_trial": 144, "dateTime": 1510860145963, "trialdata": {"rt": -1, "stimulus": "<p id=\"stim\">STONE</p>", "key_press": -1, "type": "PRES_VIS", "word": "stone", "wordID": 1384, "conditions": [24, 800, "v", 24000], "trial": 3, "serialpos": 15, "trial_type": "single-stim", "trial_index": 144, "time_elapsed": 654518, "internal_node_id": "0.0-108.0"}}, {"uniqueid": "MTK0413:36U2A8VAG263QPO1LZKV77TYQ4EKYM", "current_trial": 145, "dateTime": 1510860147790, "trialdata": {"rt": -1, "stimulus": "<p id=\"stim\">LEG</p>", "key_press": -1, "type": "PRES_VIS", "word": "leg", "wordID": 808, "conditions": [24, 800, "v", 24000], "trial": 3, "serialpos": 16, "trial_type": "single-stim", "trial_index": 145, "time_elapsed": 656346, "internal_node_id": "0.0-109.0"}}, {"uniqueid": "MTK0413:36U2A8VAG263QPO1LZKV77TYQ4EKYM", "current_trial": 146, "dateTime": 1510860149621, "trialdata": {"rt": -1, "stimulus": "<p id=\"stim\">CATTLE</p>", "key_press": -1, "type": "PRES_VIS", "word": "cattle", "wordID": 260, "conditions": [24, 800, "v", 24000], "trial": 3, "serialpos": 17, "trial_type": "single-stim", "trial_index": 146, "time_elapsed": 658177, "internal_node_id": "0.0-110.0"}}, {"uniqueid": "MTK0413:36U2A8VAG263QPO1LZKV77TYQ4EKYM", "current_trial": 147, "dateTime": 1510860151283, "trialdata": {"rt": -1, "stimulus": "<p id=\"stim\">BEEF</p>", "key_press": -1, "type": "PRES_VIS", "word": "beef", "wordID": 112, "conditions": [24, 800, "v", 24000], "trial": 3, "serialpos": 18, "trial_type": "single-stim", "trial_index": 147, "time_elapsed": 659839, "internal_node_id": "0.0-111.0"}}, {"uniqueid": "MTK0413:36U2A8VAG263QPO1LZKV77TYQ4EKYM", "current_trial": 148, "dateTime": 1510860153100, "trialdata": {"rt": -1, "stimulus": "<p id=\"stim\">WAITER</p>", "key_press": -1, "type": "PRES_VIS", "word": "waiter", "wordID": 1579, "conditions": [24, 800, "v", 24000], "trial": 3, "serialpos": 19, "trial_type": "single-stim", "trial_index": 148, "time_elapsed": 661656, "internal_node_id": "0.0-112.0"}}, {"uniqueid": "MTK0413:36U2A8VAG263QPO1LZKV77TYQ4EKYM", "current_trial": 149, "dateTime": 1510860154930, "trialdata": {"rt": -1, "stimulus": "<p id=\"stim\">POPCORN</p>", "key_press": -1, "type": "PRES_VIS", "word": "popcorn", "wordID": 1103, "conditions": [24, 800, "v", 24000], "trial": 3, "serialpos": 20, "trial_type": "single-stim", "trial_index": 149, "time_elapsed": 663486, "internal_node_id": "0.0-113.0"}}, {"uniqueid": "MTK0413:36U2A8VAG263QPO1LZKV77TYQ4EKYM", "current_trial": 150, "dateTime": 1510860156834, "trialdata": {"rt": -1, "stimulus": "<p id=\"stim\">TUTU</p>", "key_press": -1, "type": "PRES_VIS", "word": "tutu", "wordID": 1523, "conditions": [24, 800, "v", 24000], "trial": 3, "serialpos": 21, "trial_type": "single-stim", "trial_index": 150, "time_elapsed": 665389, "internal_node_id": "0.0-114.0"}}, {"uniqueid": "MTK0413:36U2A8VAG263QPO1LZKV77TYQ4EKYM", "current_trial": 151, "dateTime": 1510860158501, "trialdata": {"rt": -1, "stimulus": "<p id=\"stim\">PREACHER</p>", "key_press": -1, "type": "PRES_VIS", "word": "preacher", "wordID": 1118, "conditions": [24, 800, "v", 24000], "trial": 3, "serialpos": 22, "trial_type": "single-stim", "trial_index": 151, "time_elapsed": 667057, "internal_node_id": "0.0-115.0"}}, {"uniqueid": "MTK0413:36U2A8VAG263QPO1LZKV77TYQ4EKYM", "current_trial": 152, "dateTime": 1510860160120, "trialdata": {"rt": -1, "stimulus": "<p id=\"stim\">LUGGAGE</p>", "key_press": -1, "type": "PRES_VIS", "word": "luggage", "wordID": 846, "conditions": [24, 800, "v", 24000], "trial": 3, "serialpos": 23, "trial_type": "single-stim", "trial_index": 152, "time_elapsed": 668676, "internal_node_id": "0.0-116.0"}}, {"uniqueid": "MTK0413:36U2A8VAG263QPO1LZKV77TYQ4EKYM", "current_trial": 153, "dateTime": 1510860162613, "trialdata": {"rt": -1, "stimulus": "", "key_press": -1, "type": "PRE_RECALL_DELAY", "trial_type": "single-stim", "trial_index": 153, "time_elapsed": 671169, "internal_node_id": "0.0-117.0-0.0"}}, {"uniqueid": "MTK0413:36U2A8VAG263QPO1LZKV77TYQ4EKYM", "current_trial": 154, "dateTime": 1510860163117, "trialdata": {"rt": -1000, "stimulus": "/static/audio/400Hz.wav", "key_press": -1, "type": "PRE_RECALL_ALERT", "trial_type": "single-audio", "trial_index": 154, "time_elapsed": 671673, "internal_node_id": "0.0-118.0"}}, {"uniqueid": "MTK0413:36U2A8VAG263QPO1LZKV77TYQ4EKYM", "current_trial": 155, "dateTime": 1510860223128, "trialdata": {"rt": [4626, 6909, 9162, 11022, 14292, 17307, 25845, 30874], "recwords": ["arm", "kitchen", "cattle", "beef", "jelly", "champagne", "flower", "kitchen"], "type": "FREE_RECALL", "conditions": [24, 800, "v", 24000], "trial": 3, "trial_type": "free-recall", "trial_index": 155, "time_elapsed": 731678, "internal_node_id": "0.0-119.0-0.0"}}, {"uniqueid": "MTK0413:36U2A8VAG263QPO1LZKV77TYQ4EKYM", "current_trial": 156, "dateTime": 1510860227523, "trialdata": {"rt": 2394, "key_press": 32, "type": "INSTRUCTIONS", "trial_type": "text", "trial_index": 156, "time_elapsed": 736079, "internal_node_id": "0.0-120.0"}}, {"uniqueid": "MTK0413:36U2A8VAG263QPO1LZKV77TYQ4EKYM", "current_trial": 157, "dateTime": 1510860253528, "trialdata": {"rt": [3868, 6482, 8521, 10912, 13956, 16049, 18852, 20912, 23134], "responses": ["16", "19", "18", "14", "19", "17", "16", "14", "14"], "num1": [1, 9, 5, 8, 7, 4, 6, 6, 1, 8], "num2": [8, 5, 5, 4, 9, 6, 3, 1, 6, 4], "num3": [7, 5, 8, 2, 3, 7, 7, 7, 7, 5], "type": "DISTRACTOR", "conditions": [12, 800, "v", 24000], "trial": 4, "trial_type": "math-distractor", "trial_index": 157, "time_elapsed": 762084, "internal_node_id": "0.0-121.0"}}, {"uniqueid": "MTK0413:36U2A8VAG263QPO1LZKV77TYQ4EKYM", "current_trial": 158, "dateTime": 1510860256530, "trialdata": {"rt": -1, "stimulus": "<p id=\"stim\">10</p>", "key_press": -1, "trial_type": "single-stim", "trial_index": 158, "time_elapsed": 765086, "internal_node_id": "0.0-122.0-0.0"}}, {"uniqueid": "MTK0413:36U2A8VAG263QPO1LZKV77TYQ4EKYM", "current_trial": 159, "dateTime": 1510860257531, "trialdata": {"rt": -1, "stimulus": "<p id=\"stim\">9</p>", "key_press": -1, "trial_type": "single-stim", "trial_index": 159, "time_elapsed": 766087, "internal_node_id": "0.0-122.0-1.0"}}, {"uniqueid": "MTK0413:36U2A8VAG263QPO1LZKV77TYQ4EKYM", "current_trial": 160, "dateTime": 1510860258532, "trialdata": {"rt": -1, "stimulus": "<p id=\"stim\">8</p>", "key_press": -1, "trial_type": "single-stim", "trial_index": 160, "time_elapsed": 767088, "internal_node_id": "0.0-122.0-2.0"}}, {"uniqueid": "MTK0413:36U2A8VAG263QPO1LZKV77TYQ4EKYM", "current_trial": 161, "dateTime": 1510860259535, "trialdata": {"rt": -1, "stimulus": "<p id=\"stim\">7</p>", "key_press": -1, "trial_type": "single-stim", "trial_index": 161, "time_elapsed": 768091, "internal_node_id": "0.0-122.0-3.0"}}, {"uniqueid": "MTK0413:36U2A8VAG263QPO1LZKV77TYQ4EKYM", "current_trial": 162, "dateTime": 1510860260536, "trialdata": {"rt": -1, "stimulus": "<p id=\"stim\">6</p>", "key_press": -1, "trial_type": "single-stim", "trial_index": 162, "time_elapsed": 769092, "internal_node_id": "0.0-122.0-4.0"}}, {"uniqueid": "MTK0413:36U2A8VAG263QPO1LZKV77TYQ4EKYM", "current_trial": 163, "dateTime": 1510860261538, "trialdata": {"rt": -1, "stimulus": "<p id=\"stim\">5</p>", "key_press": -1, "trial_type": "single-stim", "trial_index": 163, "time_elapsed": 770094, "internal_node_id": "0.0-122.0-5.0"}}, {"uniqueid": "MTK0413:36U2A8VAG263QPO1LZKV77TYQ4EKYM", "current_trial": 164, "dateTime": 1510860262539, "trialdata": {"rt": -1, "stimulus": "<p id=\"stim\">4</p>", "key_press": -1, "trial_type": "single-stim", "trial_index": 164, "time_elapsed": 771095, "internal_node_id": "0.0-122.0-6.0"}}, {"uniqueid": "MTK0413:36U2A8VAG263QPO1LZKV77TYQ4EKYM", "current_trial": 165, "dateTime": 1510860263542, "trialdata": {"rt": -1, "stimulus": "<p id=\"stim\">3</p>", "key_press": -1, "trial_type": "single-stim", "trial_index": 165, "time_elapsed": 772098, "internal_node_id": "0.0-122.0-7.0"}}, {"uniqueid": "MTK0413:36U2A8VAG263QPO1LZKV77TYQ4EKYM", "current_trial": 166, "dateTime": 1510860264544, "trialdata": {"rt": -1, "stimulus": "<p id=\"stim\">2</p>", "key_press": -1, "trial_type": "single-stim", "trial_index": 166, "time_elapsed": 773100, "internal_node_id": "0.0-122.0-8.0"}}, {"uniqueid": "MTK0413:36U2A8VAG263QPO1LZKV77TYQ4EKYM", "current_trial": 167, "dateTime": 1510860265546, "trialdata": {"rt": -1, "stimulus": "<p id=\"stim\">1</p>", "key_press": -1, "trial_type": "single-stim", "trial_index": 167, "time_elapsed": 774102, "internal_node_id": "0.0-122.0-9.0"}}, {"uniqueid": "MTK0413:36U2A8VAG263QPO1LZKV77TYQ4EKYM", "current_trial": 168, "dateTime": 1510860267048, "trialdata": {"rt": -1, "stimulus": "<p id=\"stim\">+</p>", "key_press": -1, "type": "FIXATION", "trial_type": "single-stim", "trial_index": 168, "time_elapsed": 775604, "internal_node_id": "0.0-123.0-0.0"}}, {"uniqueid": "MTK0413:36U2A8VAG263QPO1LZKV77TYQ4EKYM", "current_trial": 169, "dateTime": 1510860267851, "trialdata": {"rt": -1, "stimulus": "<p id=\"stim\">CHEST</p>", "key_press": -1, "type": "PRES_VIS", "word": "chest", "wordID": 294, "conditions": [12, 800, "v", 24000], "trial": 4, "serialpos": 0, "trial_type": "single-stim", "trial_index": 169, "time_elapsed": 776407, "internal_node_id": "0.0-124.0"}}, {"uniqueid": "MTK0413:36U2A8VAG263QPO1LZKV77TYQ4EKYM", "current_trial": 170, "dateTime": 1510860269572, "trialdata": {"rt": -1, "stimulus": "<p id=\"stim\">FOREHEAD</p>", "key_press": -1, "type": "PRES_VIS", "word": "forehead", "wordID": 591, "conditions": [12, 800, "v", 24000], "trial": 4, "serialpos": 1, "trial_type": "single-stim", "trial_index": 170, "time_elapsed": 778128, "internal_node_id": "0.0-125.0"}}, {"uniqueid": "MTK0413:36U2A8VAG263QPO1LZKV77TYQ4EKYM", "current_trial": 171, "dateTime": 1510860271558, "trialdata": {"rt": -1, "stimulus": "<p id=\"stim\">BABY</p>", "key_press": -1, "type": "PRES_VIS", "word": "baby", "wordID": 63, "conditions": [12, 800, "v", 24000], "trial": 4, "serialpos": 2, "trial_type": "single-stim", "trial_index": 171, "time_elapsed": 780114, "internal_node_id": "0.0-126.0"}}, {"uniqueid": "MTK0413:36U2A8VAG263QPO1LZKV77TYQ4EKYM", "current_trial": 172, "dateTime": 1510860273309, "trialdata": {"rt": -1, "stimulus": "<p id=\"stim\">ITEM</p>", "key_press": -1, "type": "PRES_VIS", "word": "item", "wordID": 745, "conditions": [12, 800, "v", 24000], "trial": 4, "serialpos": 3, "trial_type": "single-stim", "trial_index": 172, "time_elapsed": 781864, "internal_node_id": "0.0-127.0"}}, {"uniqueid": "MTK0413:36U2A8VAG263QPO1LZKV77TYQ4EKYM", "current_trial": 173, "dateTime": 1510860274986, "trialdata": {"rt": -1, "stimulus": "<p id=\"stim\">HATCHET</p>", "key_press": -1, "type": "PRES_VIS", "word": "hatchet", "wordID": 690, "conditions": [12, 800, "v", 24000], "trial": 4, "serialpos": 4, "trial_type": "single-stim", "trial_index": 173, "time_elapsed": 783542, "internal_node_id": "0.0-128.0"}}, {"uniqueid": "MTK0413:36U2A8VAG263QPO1LZKV77TYQ4EKYM", "current_trial": 174, "dateTime": 1510860276635, "trialdata": {"rt": -1, "stimulus": "<p id=\"stim\">SLUG</p>", "key_press": -1, "type": "PRES_VIS", "word": "slug", "wordID": 1328, "conditions": [12, 800, "v", 24000], "trial": 4, "serialpos": 5, "trial_type": "single-stim", "trial_index": 174, "time_elapsed": 785191, "internal_node_id": "0.0-129.0"}}, {"uniqueid": "MTK0413:36U2A8VAG263QPO1LZKV77TYQ4EKYM", "current_trial": 175, "dateTime": 1510860278567, "trialdata": {"rt": -1, "stimulus": "<p id=\"stim\">BRANCH</p>", "key_press": -1, "type": "PRES_VIS", "word": "branch", "wordID": 167, "conditions": [12, 800, "v", 24000], "trial": 4, "serialpos": 6, "trial_type": "single-stim", "trial_index": 175, "time_elapsed": 787123, "internal_node_id": "0.0-130.0"}}, {"uniqueid": "MTK0413:36U2A8VAG263QPO1LZKV77TYQ4EKYM", "current_trial": 176, "dateTime": 1510860280408, "trialdata": {"rt": -1, "stimulus": "<p id=\"stim\">HOOK</p>", "key_press": -1, "type": "PRES_VIS", "word": "hook", "wordID": 714, "conditions": [12, 800, "v", 24000], "trial": 4, "serialpos": 7, "trial_type": "single-stim", "trial_index": 176, "time_elapsed": 788964, "internal_node_id": "0.0-131.0"}}, {"uniqueid": "MTK0413:36U2A8VAG263QPO1LZKV77TYQ4EKYM", "current_trial": 177, "dateTime": 1510860282408, "trialdata": {"rt": -1, "stimulus": "<p id=\"stim\">APPLE</p>", "key_press": -1, "type": "PRES_VIS", "word": "apple", "wordID": 32, "conditions": [12, 800, "v", 24000], "trial": 4, "serialpos": 8, "trial_type": "single-stim", "trial_index": 177, "time_elapsed": 790964, "internal_node_id": "0.0-132.0"}}, {"uniqueid": "MTK0413:36U2A8VAG263QPO1LZKV77TYQ4EKYM", "current_trial": 178, "dateTime": 1510860284397, "trialdata": {"rt": -1, "stimulus": "<p id=\"stim\">SODA</p>", "key_press": -1, "type": "PRES_VIS", "word": "soda", "wordID": 1340, "conditions": [12, 800, "v", 24000], "trial": 4, "serialpos": 9, "trial_type": "single-stim", "trial_index": 178, "time_elapsed": 792953, "internal_node_id": "0.0-133.0"}}, {"uniqueid": "MTK0413:36U2A8VAG263QPO1LZKV77TYQ4EKYM", "current_trial": 179, "dateTime": 1510860286021, "trialdata": {"rt": -1, "stimulus": "<p id=\"stim\">CHILD</p>", "key_press": -1, "type": "PRES_VIS", "word": "child", "wordID": 298, "conditions": [12, 800, "v", 24000], "trial": 4, "serialpos": 10, "trial_type": "single-stim", "trial_index": 179, "time_elapsed": 794577, "internal_node_id": "0.0-134.0"}}, {"uniqueid": "MTK0413:36U2A8VAG263QPO1LZKV77TYQ4EKYM", "current_trial": 180, "dateTime": 1510860287999, "trialdata": {"rt": -1, "stimulus": "<p id=\"stim\">HAMPER</p>", "key_press": -1, "type": "PRES_VIS", "word": "hamper", "wordID": 681, "conditions": [12, 800, "v", 24000], "trial": 4, "serialpos": 11, "trial_type": "single-stim", "trial_index": 180, "time_elapsed": 796555, "internal_node_id": "0.0-135.0"}}, {"uniqueid": "MTK0413:36U2A8VAG263QPO1LZKV77TYQ4EKYM", "current_trial": 181, "dateTime": 1510860290483, "trialdata": {"rt": -1, "stimulus": "", "key_press": -1, "type": "PRE_RECALL_DELAY", "trial_type": "single-stim", "trial_index": 181, "time_elapsed": 799039, "internal_node_id": "0.0-136.0-0.0"}}, {"uniqueid": "MTK0413:36U2A8VAG263QPO1LZKV77TYQ4EKYM", "current_trial": 182, "dateTime": 1510860290986, "trialdata": {"rt": -1000, "stimulus": "/static/audio/400Hz.wav", "key_press": -1, "type": "PRE_RECALL_ALERT", "trial_type": "single-audio", "trial_index": 182, "time_elapsed": 799542, "internal_node_id": "0.0-137.0"}}, {"uniqueid": "MTK0413:36U2A8VAG263QPO1LZKV77TYQ4EKYM", "current_trial": 183, "dateTime": 1510860350997, "trialdata": {"rt": [4968, 7641, 10586, 21756], "recwords": ["hamper", "branch", "apple", "chest"], "type": "FREE_RECALL", "conditions": [12, 800, "v", 24000], "trial": 4, "trial_type": "free-recall", "trial_index": 183, "time_elapsed": 859547, "internal_node_id": "0.0-138.0-0.0"}}, {"uniqueid": "MTK0413:36U2A8VAG263QPO1LZKV77TYQ4EKYM", "current_trial": 184, "dateTime": 1510860354750, "trialdata": {"rt": 1751, "key_press": 32, "type": "INSTRUCTIONS", "trial_type": "text", "trial_index": 184, "time_elapsed": 863306, "internal_node_id": "0.0-139.0"}}, {"uniqueid": "MTK0413:36U2A8VAG263QPO1LZKV77TYQ4EKYM", "current_trial": 185, "dateTime": 1510860368757, "trialdata": {"rt": [1917, 4107, 7166, 9267, 11419], "responses": ["11", "9", "16", "10", "19"], "num1": [4, 4, 9, 2, 1, 5], "num2": [4, 4, 2, 2, 9, 1], "num3": [3, 1, 5, 6, 9, 5], "type": "DISTRACTOR", "conditions": [24, 800, "a", 12000], "trial": 5, "trial_type": "math-distractor", "trial_index": 185, "time_elapsed": 877313, "internal_node_id": "0.0-140.0"}}, {"uniqueid": "MTK0413:36U2A8VAG263QPO1LZKV77TYQ4EKYM", "current_trial": 186, "dateTime": 1510860371761, "trialdata": {"rt": -1, "stimulus": "<p id=\"stim\">10</p>", "key_press": -1, "trial_type": "single-stim", "trial_index": 186, "time_elapsed": 880315, "internal_node_id": "0.0-141.0-0.0"}}, {"uniqueid": "MTK0413:36U2A8VAG263QPO1LZKV77TYQ4EKYM", "current_trial": 187, "dateTime": 1510860372764, "trialdata": {"rt": -1, "stimulus": "<p id=\"stim\">9</p>", "key_press": -1, "trial_type": "single-stim", "trial_index": 187, "time_elapsed": 881320, "internal_node_id": "0.0-141.0-1.0"}}, {"uniqueid": "MTK0413:36U2A8VAG263QPO1LZKV77TYQ4EKYM", "current_trial": 188, "dateTime": 1510860373766, "trialdata": {"rt": -1, "stimulus": "<p id=\"stim\">8</p>", "key_press": -1, "trial_type": "single-stim", "trial_index": 188, "time_elapsed": 882322, "internal_node_id": "0.0-141.0-2.0"}}, {"uniqueid": "MTK0413:36U2A8VAG263QPO1LZKV77TYQ4EKYM", "current_trial": 189, "dateTime": 1510860374770, "trialdata": {"rt": -1, "stimulus": "<p id=\"stim\">7</p>", "key_press": -1, "trial_type": "single-stim", "trial_index": 189, "time_elapsed": 883326, "internal_node_id": "0.0-141.0-3.0"}}, {"uniqueid": "MTK0413:36U2A8VAG263QPO1LZKV77TYQ4EKYM", "current_trial": 190, "dateTime": 1510860375771, "trialdata": {"rt": -1, "stimulus": "<p id=\"stim\">6</p>", "key_press": -1, "trial_type": "single-stim", "trial_index": 190, "time_elapsed": 884327, "internal_node_id": "0.0-141.0-4.0"}}, {"uniqueid": "MTK0413:36U2A8VAG263QPO1LZKV77TYQ4EKYM", "current_trial": 191, "dateTime": 1510860376774, "trialdata": {"rt": -1, "stimulus": "<p id=\"stim\">5</p>", "key_press": -1, "trial_type": "single-stim", "trial_index": 191, "time_elapsed": 885330, "internal_node_id": "0.0-141.0-5.0"}}, {"uniqueid": "MTK0413:36U2A8VAG263QPO1LZKV77TYQ4EKYM", "current_trial": 192, "dateTime": 1510860377776, "trialdata": {"rt": -1, "stimulus": "<p id=\"stim\">4</p>", "key_press": -1, "trial_type": "single-stim", "trial_index": 192, "time_elapsed": 886331, "internal_node_id": "0.0-141.0-6.0"}}, {"uniqueid": "MTK0413:36U2A8VAG263QPO1LZKV77TYQ4EKYM", "current_trial": 193, "dateTime": 1510860378779, "trialdata": {"rt": -1, "stimulus": "<p id=\"stim\">3</p>", "key_press": -1, "trial_type": "single-stim", "trial_index": 193, "time_elapsed": 887335, "internal_node_id": "0.0-141.0-7.0"}}, {"uniqueid": "MTK0413:36U2A8VAG263QPO1LZKV77TYQ4EKYM", "current_trial": 194, "dateTime": 1510860379781, "trialdata": {"rt": -1, "stimulus": "<p id=\"stim\">2</p>", "key_press": -1, "trial_type": "single-stim", "trial_index": 194, "time_elapsed": 888337, "internal_node_id": "0.0-141.0-8.0"}}, {"uniqueid": "MTK0413:36U2A8VAG263QPO1LZKV77TYQ4EKYM", "current_trial": 195, "dateTime": 1510860380786, "trialdata": {"rt": -1, "stimulus": "<p id=\"stim\">1</p>", "key_press": -1, "trial_type": "single-stim", "trial_index": 195, "time_elapsed": 889342, "internal_node_id": "0.0-141.0-9.0"}}, {"uniqueid": "MTK0413:36U2A8VAG263QPO1LZKV77TYQ4EKYM", "current_trial": 196, "dateTime": 1510860382288, "trialdata": {"rt": -1, "stimulus": "<p id=\"stim\">+</p>", "key_press": -1, "type": "FIXATION", "trial_type": "single-stim", "trial_index": 196, "time_elapsed": 890844, "internal_node_id": "0.0-142.0-0.0"}}, {"uniqueid": "MTK0413:36U2A8VAG263QPO1LZKV77TYQ4EKYM", "current_trial": 197, "dateTime": 1510860384246, "trialdata": {"rt": -1000, "stimulus": "/static/audio/wordpool/PORK.wav", "key_press": -1, "type": "PRES_AUD", "word": "pork", "wordID": 1107, "conditions": [24, 800, "a", 12000], "trial": 5, "serialpos": 0, "trial_type": "single-audio", "trial_index": 197, "time_elapsed": 892801, "internal_node_id": "0.0-143.0"}}, {"uniqueid": "MTK0413:36U2A8VAG263QPO1LZKV77TYQ4EKYM", "current_trial": 198, "dateTime": 1510860385996, "trialdata": {"rt": -1000, "stimulus": "/static/audio/wordpool/SKILLET.wav", "key_press": -1, "type": "PRES_AUD", "word": "skillet", "wordID": 1316, "conditions": [24, 800, "a", 12000], "trial": 5, "serialpos": 1, "trial_type": "single-audio", "trial_index": 198, "time_elapsed": 894552, "internal_node_id": "0.0-144.0"}}, {"uniqueid": "MTK0413:36U2A8VAG263QPO1LZKV77TYQ4EKYM", "current_trial": 199, "dateTime": 1510860387837, "trialdata": {"rt": -1000, "stimulus": "/static/audio/wordpool/GRILL.wav", "key_press": -1, "type": "PRES_AUD", "word": "grill", "wordID": 660, "conditions": [24, 800, "a", 12000], "trial": 5, "serialpos": 2, "trial_type": "single-audio", "trial_index": 199, "time_elapsed": 896393, "internal_node_id": "0.0-145.0"}}, {"uniqueid": "MTK0413:36U2A8VAG263QPO1LZKV77TYQ4EKYM", "current_trial": 200, "dateTime": 1510860389640, "trialdata": {"rt": -1000, "stimulus": "/static/audio/wordpool/DRESSER.wav", "key_press": -1, "type": "PRES_AUD", "word": "dresser", "wordID": 495, "conditions": [24, 800, "a", 12000], "trial": 5, "serialpos": 3, "trial_type": "single-audio", "trial_index": 200, "time_elapsed": 898196, "internal_node_id": "0.0-146.0"}}, {"uniqueid": "MTK0413:36U2A8VAG263QPO1LZKV77TYQ4EKYM", "current_trial": 201, "dateTime": 1510860391371, "trialdata": {"rt": -1000, "stimulus": "/static/audio/wordpool/CURTAIN.wav", "key_press": -1, "type": "PRES_AUD", "word": "curtain", "wordID": 426, "conditions": [24, 800, "a", 12000], "trial": 5, "serialpos": 4, "trial_type": "single-audio", "trial_index": 201, "time_elapsed": 899927, "internal_node_id": "0.0-147.0"}}, {"uniqueid": "MTK0413:36U2A8VAG263QPO1LZKV77TYQ4EKYM", "current_trial": 202, "dateTime": 1510860393310, "trialdata": {"rt": -1000, "stimulus": "/static/audio/wordpool/CANAL.wav", "key_press": -1, "type": "PRES_AUD", "word": "canal", "wordID": 225, "conditions": [24, 800, "a", 12000], "trial": 5, "serialpos": 5, "trial_type": "single-audio", "trial_index": 202, "time_elapsed": 901866, "internal_node_id": "0.0-148.0"}}, {"uniqueid": "MTK0413:36U2A8VAG263QPO1LZKV77TYQ4EKYM", "current_trial": 203, "dateTime": 1510860395282, "trialdata": {"rt": -1000, "stimulus": "/static/audio/wordpool/FUNGUS.wav", "key_press": -1, "type": "PRES_AUD", "word": "fungus", "wordID": 613, "conditions": [24, 800, "a", 12000], "trial": 5, "serialpos": 6, "trial_type": "single-audio", "trial_index": 203, "time_elapsed": 903837, "internal_node_id": "0.0-149.0"}}, {"uniqueid": "MTK0413:36U2A8VAG263QPO1LZKV77TYQ4EKYM", "current_trial": 204, "dateTime": 1510860397052, "trialdata": {"rt": -1000, "stimulus": "/static/audio/wordpool/SAUSAGE.wav", "key_press": -1, "type": "PRES_AUD", "word": "sausage", "wordID": 1237, "conditions": [24, 800, "a", 12000], "trial": 5, "serialpos": 7, "trial_type": "single-audio", "trial_index": 204, "time_elapsed": 905607, "internal_node_id": "0.0-150.0"}}, {"uniqueid": "MTK0413:36U2A8VAG263QPO1LZKV77TYQ4EKYM", "current_trial": 205, "dateTime": 1510860398754, "trialdata": {"rt": -1000, "stimulus": "/static/audio/wordpool/NURSE.wav", "key_press": -1, "type": "PRES_AUD", "word": "nurse", "wordID": 962, "conditions": [24, 800, "a", 12000], "trial": 5, "serialpos": 8, "trial_type": "single-audio", "trial_index": 205, "time_elapsed": 907310, "internal_node_id": "0.0-151.0"}}, {"uniqueid": "MTK0413:36U2A8VAG263QPO1LZKV77TYQ4EKYM", "current_trial": 206, "dateTime": 1510860400530, "trialdata": {"rt": -1000, "stimulus": "/static/audio/wordpool/PASSAGE.wav", "key_press": -1, "type": "PRES_AUD", "word": "passage", "wordID": 1018, "conditions": [24, 800, "a", 12000], "trial": 5, "serialpos": 9, "trial_type": "single-audio", "trial_index": 206, "time_elapsed": 909086, "internal_node_id": "0.0-152.0"}}, {"uniqueid": "MTK0413:36U2A8VAG263QPO1LZKV77TYQ4EKYM", "current_trial": 207, "dateTime": 1510860402242, "trialdata": {"rt": -1000, "stimulus": "/static/audio/wordpool/FLASHLIGHT.wav", "key_press": -1, "type": "PRES_AUD", "word": "flashlight", "wordID": 574, "conditions": [24, 800, "a", 12000], "trial": 5, "serialpos": 10, "trial_type": "single-audio", "trial_index": 207, "time_elapsed": 910798, "internal_node_id": "0.0-153.0"}}, {"uniqueid": "MTK0413:36U2A8VAG263QPO1LZKV77TYQ4EKYM", "current_trial": 208, "dateTime": 1510860403996, "trialdata": {"rt": -1000, "stimulus": "/static/audio/wordpool/FRIEND.wav", "key_press": -1, "type": "PRES_AUD", "word": "friend", "wordID": 605, "conditions": [24, 800, "a", 12000], "trial": 5, "serialpos": 11, "trial_type": "single-audio", "trial_index": 208, "time_elapsed": 912551, "internal_node_id": "0.0-154.0"}}, {"uniqueid": "MTK0413:36U2A8VAG263QPO1LZKV77TYQ4EKYM", "current_trial": 209, "dateTime": 1510860405892, "trialdata": {"rt": -1000, "stimulus": "/static/audio/wordpool/DASHBOARD.wav", "key_press": -1, "type": "PRES_AUD", "word": "dashboard", "wordID": 440, "conditions": [24, 800, "a", 12000], "trial": 5, "serialpos": 12, "trial_type": "single-audio", "trial_index": 209, "time_elapsed": 914448, "internal_node_id": "0.0-155.0"}}, {"uniqueid": "MTK0413:36U2A8VAG263QPO1LZKV77TYQ4EKYM", "current_trial": 210, "dateTime": 1510860407502, "trialdata": {"rt": -1000, "stimulus": "/static/audio/wordpool/TOASTER.wav", "key_press": -1, "type": "PRES_AUD", "word": "toaster", "wordID": 1471, "conditions": [24, 800, "a", 12000], "trial": 5, "serialpos": 13, "trial_type": "single-audio", "trial_index": 210, "time_elapsed": 916058, "internal_node_id": "0.0-156.0"}}, {"uniqueid": "MTK0413:36U2A8VAG263QPO1LZKV77TYQ4EKYM", "current_trial": 211, "dateTime": 1510860409307, "trialdata": {"rt": -1000, "stimulus": "/static/audio/wordpool/ICING.wav", "key_press": -1, "type": "PRES_AUD", "word": "icing", "wordID": 731, "conditions": [24, 800, "a", 12000], "trial": 5, "serialpos": 14, "trial_type": "single-audio", "trial_index": 211, "time_elapsed": 917863, "internal_node_id": "0.0-157.0"}}, {"uniqueid": "MTK0413:36U2A8VAG263QPO1LZKV77TYQ4EKYM", "current_trial": 212, "dateTime": 1510860411208, "trialdata": {"rt": -1000, "stimulus": "/static/audio/wordpool/GYMNAST.wav", "key_press": -1, "type": "PRES_AUD", "word": "gymnast", "wordID": 674, "conditions": [24, 800, "a", 12000], "trial": 5, "serialpos": 15, "trial_type": "single-audio", "trial_index": 212, "time_elapsed": 919764, "internal_node_id": "0.0-158.0"}}, {"uniqueid": "MTK0413:36U2A8VAG263QPO1LZKV77TYQ4EKYM", "current_trial": 213, "dateTime": 1510860412926, "trialdata": {"rt": -1000, "stimulus": "/static/audio/wordpool/DANCER.wav", "key_press": -1, "type": "PRES_AUD", "word": "dancer", "wordID": 436, "conditions": [24, 800, "a", 12000], "trial": 5, "serialpos": 16, "trial_type": "single-audio", "trial_index": 213, "time_elapsed": 921481, "internal_node_id": "0.0-159.0"}}, {"uniqueid": "MTK0413:36U2A8VAG263QPO1LZKV77TYQ4EKYM", "current_trial": 214, "dateTime": 1510860414849, "trialdata": {"rt": -1000, "stimulus": "/static/audio/wordpool/FLESH.wav", "key_press": -1, "type": "PRES_AUD", "word": "flesh", "wordID": 578, "conditions": [24, 800, "a", 12000], "trial": 5, "serialpos": 17, "trial_type": "single-audio", "trial_index": 214, "time_elapsed": 923405, "internal_node_id": "0.0-160.0"}}, {"uniqueid": "MTK0413:36U2A8VAG263QPO1LZKV77TYQ4EKYM", "current_trial": 215, "dateTime": 1510860416693, "trialdata": {"rt": -1000, "stimulus": "/static/audio/wordpool/SHOULDER.wav", "key_press": -1, "type": "PRES_AUD", "word": "shoulder", "wordID": 1293, "conditions": [24, 800, "a", 12000], "trial": 5, "serialpos": 18, "trial_type": "single-audio", "trial_index": 215, "time_elapsed": 925249, "internal_node_id": "0.0-161.0"}}, {"uniqueid": "MTK0413:36U2A8VAG263QPO1LZKV77TYQ4EKYM", "current_trial": 216, "dateTime": 1510860418367, "trialdata": {"rt": -1000, "stimulus": "/static/audio/wordpool/NOMAD.wav", "key_press": -1, "type": "PRES_AUD", "word": "nomad", "wordID": 954, "conditions": [24, 800, "a", 12000], "trial": 5, "serialpos": 19, "trial_type": "single-audio", "trial_index": 216, "time_elapsed": 926923, "internal_node_id": "0.0-162.0"}}, {"uniqueid": "MTK0413:36U2A8VAG263QPO1LZKV77TYQ4EKYM", "current_trial": 217, "dateTime": 1510860420230, "trialdata": {"rt": -1000, "stimulus": "/static/audio/wordpool/CARROT.wav", "key_press": -1, "type": "PRES_AUD", "word": "carrot", "wordID": 248, "conditions": [24, 800, "a", 12000], "trial": 5, "serialpos": 20, "trial_type": "single-audio", "trial_index": 217, "time_elapsed": 928786, "internal_node_id": "0.0-163.0"}}, {"uniqueid": "MTK0413:36U2A8VAG263QPO1LZKV77TYQ4EKYM", "current_trial": 218, "dateTime": 1510860421979, "trialdata": {"rt": -1000, "stimulus": "/static/audio/wordpool/STOMACH.wav", "key_press": -1, "type": "PRES_AUD", "word": "stomach", "wordID": 1383, "conditions": [24, 800, "a", 12000], "trial": 5, "serialpos": 21, "trial_type": "single-audio", "trial_index": 218, "time_elapsed": 930535, "internal_node_id": "0.0-164.0"}}, {"uniqueid": "MTK0413:36U2A8VAG263QPO1LZKV77TYQ4EKYM", "current_trial": 219, "dateTime": 1510860423686, "trialdata": {"rt": -1000, "stimulus": "/static/audio/wordpool/PARENT.wav", "key_press": -1, "type": "PRES_AUD", "word": "parent", "wordID": 1012, "conditions": [24, 800, "a", 12000], "trial": 5, "serialpos": 22, "trial_type": "single-audio", "trial_index": 219, "time_elapsed": 932242, "internal_node_id": "0.0-165.0"}}, {"uniqueid": "MTK0413:36U2A8VAG263QPO1LZKV77TYQ4EKYM", "current_trial": 220, "dateTime": 1510860425649, "trialdata": {"rt": -1000, "stimulus": "/static/audio/wordpool/ELBOW.wav", "key_press": -1, "type": "PRES_AUD", "word": "elbow", "wordID": 519, "conditions": [24, 800, "a", 12000], "trial": 5, "serialpos": 23, "trial_type": "single-audio", "trial_index": 220, "time_elapsed": 934205, "internal_node_id": "0.0-166.0"}}, {"uniqueid": "MTK0413:36U2A8VAG263QPO1LZKV77TYQ4EKYM", "current_trial": 221, "dateTime": 1510860426861, "trialdata": {"rt": -1, "stimulus": "", "key_press": -1, "type": "PRE_RECALL_DELAY", "trial_type": "single-stim", "trial_index": 221, "time_elapsed": 935417, "internal_node_id": "0.0-167.0-0.0"}}, {"uniqueid": "MTK0413:36U2A8VAG263QPO1LZKV77TYQ4EKYM", "current_trial": 222, "dateTime": 1510860427366, "trialdata": {"rt": -1000, "stimulus": "/static/audio/400Hz.wav", "key_press": -1, "type": "PRE_RECALL_ALERT", "trial_type": "single-audio", "trial_index": 222, "time_elapsed": 935922, "internal_node_id": "0.0-168.0"}}, {"uniqueid": "MTK0413:36U2A8VAG263QPO1LZKV77TYQ4EKYM", "current_trial": 223, "dateTime": 1510860487376, "trialdata": {"rt": [4870, 8174, 14807, 18461, 23709, 26213], "recwords": ["flesh", "carrot", "sausage", "grill", "friend", "toaster"], "type": "FREE_RECALL", "conditions": [24, 800, "a", 12000], "trial": 5, "trial_type": "free-recall", "trial_index": 223, "time_elapsed": 995925, "internal_node_id": "0.0-169.0-0.0"}}, {"uniqueid": "MTK0413:36U2A8VAG263QPO1LZKV77TYQ4EKYM", "current_trial": 224, "dateTime": 1510860490784, "trialdata": {"rt": 1407, "key_press": 32, "type": "INSTRUCTIONS", "trial_type": "text", "trial_index": 224, "time_elapsed": 999340, "internal_node_id": "0.0-170.0"}}, {"uniqueid": "MTK0413:36U2A8VAG263QPO1LZKV77TYQ4EKYM", "current_trial": 225, "dateTime": 1510860516789, "trialdata": {"rt": [2324, 7426, 9208, 12926, 15582, 18278, 21439], "responses": ["19", "21", "10", "17", "13", "8", "16"], "num1": [9, 5, 4, 8, 7, 3, 7, 2], "num2": [7, 7, 4, 3, 3, 1, 1, 3], "num3": [3, 9, 2, 6, 3, 4, 8, 4], "type": "DISTRACTOR", "conditions": [24, 1600, "v", 24000], "trial": 6, "trial_type": "math-distractor", "trial_index": 225, "time_elapsed": 1025345, "internal_node_id": "0.0-171.0"}}, {"uniqueid": "MTK0413:36U2A8VAG263QPO1LZKV77TYQ4EKYM", "current_trial": 226, "dateTime": 1510860519791, "trialdata": {"rt": -1, "stimulus": "<p id=\"stim\">10</p>", "key_press": -1, "trial_type": "single-stim", "trial_index": 226, "time_elapsed": 1028347, "internal_node_id": "0.0-172.0-0.0"}}, {"uniqueid": "MTK0413:36U2A8VAG263QPO1LZKV77TYQ4EKYM", "current_trial": 227, "dateTime": 1510860520798, "trialdata": {"rt": -1, "stimulus": "<p id=\"stim\">9</p>", "key_press": -1, "trial_type": "single-stim", "trial_index": 227, "time_elapsed": 1029353, "internal_node_id": "0.0-172.0-1.0"}}, {"uniqueid": "MTK0413:36U2A8VAG263QPO1LZKV77TYQ4EKYM", "current_trial": 228, "dateTime": 1510860521800, "trialdata": {"rt": -1, "stimulus": "<p id=\"stim\">8</p>", "key_press": -1, "trial_type": "single-stim", "trial_index": 228, "time_elapsed": 1030355, "internal_node_id": "0.0-172.0-2.0"}}, {"uniqueid": "MTK0413:36U2A8VAG263QPO1LZKV77TYQ4EKYM", "current_trial": 229, "dateTime": 1510860522801, "trialdata": {"rt": -1, "stimulus": "<p id=\"stim\">7</p>", "key_press": -1, "trial_type": "single-stim", "trial_index": 229, "time_elapsed": 1031357, "internal_node_id": "0.0-172.0-3.0"}}, {"uniqueid": "MTK0413:36U2A8VAG263QPO1LZKV77TYQ4EKYM", "current_trial": 230, "dateTime": 1510860523803, "trialdata": {"rt": -1, "stimulus": "<p id=\"stim\">6</p>", "key_press": -1, "trial_type": "single-stim", "trial_index": 230, "time_elapsed": 1032359, "internal_node_id": "0.0-172.0-4.0"}}, {"uniqueid": "MTK0413:36U2A8VAG263QPO1LZKV77TYQ4EKYM", "current_trial": 231, "dateTime": 1510860524806, "trialdata": {"rt": -1, "stimulus": "<p id=\"stim\">5</p>", "key_press": -1, "trial_type": "single-stim", "trial_index": 231, "time_elapsed": 1033362, "internal_node_id": "0.0-172.0-5.0"}}, {"uniqueid": "MTK0413:36U2A8VAG263QPO1LZKV77TYQ4EKYM", "current_trial": 232, "dateTime": 1510860525808, "trialdata": {"rt": -1, "stimulus": "<p id=\"stim\">4</p>", "key_press": -1, "trial_type": "single-stim", "trial_index": 232, "time_elapsed": 1034364, "internal_node_id": "0.0-172.0-6.0"}}, {"uniqueid": "MTK0413:36U2A8VAG263QPO1LZKV77TYQ4EKYM", "current_trial": 233, "dateTime": 1510860526813, "trialdata": {"rt": -1, "stimulus": "<p id=\"stim\">3</p>", "key_press": -1, "trial_type": "single-stim", "trial_index": 233, "time_elapsed": 1035368, "internal_node_id": "0.0-172.0-7.0"}}, {"uniqueid": "MTK0413:36U2A8VAG263QPO1LZKV77TYQ4EKYM", "current_trial": 234, "dateTime": 1510860527815, "trialdata": {"rt": -1, "stimulus": "<p id=\"stim\">2</p>", "key_press": -1, "trial_type": "single-stim", "trial_index": 234, "time_elapsed": 1036371, "internal_node_id": "0.0-172.0-8.0"}}, {"uniqueid": "MTK0413:36U2A8VAG263QPO1LZKV77TYQ4EKYM", "current_trial": 235, "dateTime": 1510860528818, "trialdata": {"rt": -1, "stimulus": "<p id=\"stim\">1</p>", "key_press": -1, "trial_type": "single-stim", "trial_index": 235, "time_elapsed": 1037374, "internal_node_id": "0.0-172.0-9.0"}}, {"uniqueid": "MTK0413:36U2A8VAG263QPO1LZKV77TYQ4EKYM", "current_trial": 236, "dateTime": 1510860530320, "trialdata": {"rt": -1, "stimulus": "<p id=\"stim\">+</p>", "key_press": -1, "type": "FIXATION", "trial_type": "single-stim", "trial_index": 236, "time_elapsed": 1038876, "internal_node_id": "0.0-173.0-0.0"}}, {"uniqueid": "MTK0413:36U2A8VAG263QPO1LZKV77TYQ4EKYM", "current_trial": 237, "dateTime": 1510860531921, "trialdata": {"rt": -1, "stimulus": "<p id=\"stim\">COSTUME</p>", "key_press": -1, "type": "PRES_VIS", "word": "costume", "wordID": 382, "conditions": [24, 1600, "v", 24000], "trial": 6, "serialpos": 0, "trial_type": "single-stim", "trial_index": 237, "time_elapsed": 1040477, "internal_node_id": "0.0-174.0"}}, {"uniqueid": "MTK0413:36U2A8VAG263QPO1LZKV77TYQ4EKYM", "current_trial": 238, "dateTime": 1510860534521, "trialdata": {"rt": -1, "stimulus": "<p id=\"stim\">RABBIT</p>", "key_press": -1, "type": "PRES_VIS", "word": "rabbit", "wordID": 1151, "conditions": [24, 1600, "v", 24000], "trial": 6, "serialpos": 1, "trial_type": "single-stim", "trial_index": 238, "time_elapsed": 1043077, "internal_node_id": "0.0-175.0"}}, {"uniqueid": "MTK0413:36U2A8VAG263QPO1LZKV77TYQ4EKYM", "current_trial": 239, "dateTime": 1510860536936, "trialdata": {"rt": -1, "stimulus": "<p id=\"stim\">MILK</p>", "key_press": -1, "type": "PRES_VIS", "word": "milk", "wordID": 894, "conditions": [24, 1600, "v", 24000], "trial": 6, "serialpos": 2, "trial_type": "single-stim", "trial_index": 239, "time_elapsed": 1045492, "internal_node_id": "0.0-176.0"}}, {"uniqueid": "MTK0413:36U2A8VAG263QPO1LZKV77TYQ4EKYM", "current_trial": 240, "dateTime": 1510860539639, "trialdata": {"rt": -1, "stimulus": "<p id=\"stim\">SWORD</p>", "key_press": -1, "type": "PRES_VIS", "word": "sword", "wordID": 1422, "conditions": [24, 1600, "v", 24000], "trial": 6, "serialpos": 3, "trial_type": "single-stim", "trial_index": 240, "time_elapsed": 1048195, "internal_node_id": "0.0-177.0"}}, {"uniqueid": "MTK0413:36U2A8VAG263QPO1LZKV77TYQ4EKYM", "current_trial": 241, "dateTime": 1510860542198, "trialdata": {"rt": -1, "stimulus": "<p id=\"stim\">BUNNY</p>", "key_press": -1, "type": "PRES_VIS", "word": "bunny", "wordID": 197, "conditions": [24, 1600, "v", 24000], "trial": 6, "serialpos": 4, "trial_type": "single-stim", "trial_index": 241, "time_elapsed": 1050754, "internal_node_id": "0.0-178.0"}}, {"uniqueid": "MTK0413:36U2A8VAG263QPO1LZKV77TYQ4EKYM", "current_trial": 242, "dateTime": 1510860544811, "trialdata": {"rt": -1, "stimulus": "<p id=\"stim\">TUBA</p>", "key_press": -1, "type": "PRES_VIS", "word": "tuba", "wordID": 1514, "conditions": [24, 1600, "v", 24000], "trial": 6, "serialpos": 5, "trial_type": "single-stim", "trial_index": 242, "time_elapsed": 1053367, "internal_node_id": "0.0-179.0"}}, {"uniqueid": "MTK0413:36U2A8VAG263QPO1LZKV77TYQ4EKYM", "current_trial": 243, "dateTime": 1510860547567, "trialdata": {"rt": -1, "stimulus": "<p id=\"stim\">INMATE</p>", "key_press": -1, "type": "PRES_VIS", "word": "inmate", "wordID": 737, "conditions": [24, 1600, "v", 24000], "trial": 6, "serialpos": 6, "trial_type": "single-stim", "trial_index": 243, "time_elapsed": 1056123, "internal_node_id": "0.0-180.0"}}, {"uniqueid": "MTK0413:36U2A8VAG263QPO1LZKV77TYQ4EKYM", "current_trial": 244, "dateTime": 1510860550054, "trialdata": {"rt": -1, "stimulus": "<p id=\"stim\">WORKER</p>", "key_press": -1, "type": "PRES_VIS", "word": "worker", "wordID": 1620, "conditions": [24, 1600, "v", 24000], "trial": 6, "serialpos": 7, "trial_type": "single-stim", "trial_index": 244, "time_elapsed": 1058610, "internal_node_id": "0.0-181.0"}}, {"uniqueid": "MTK0413:36U2A8VAG263QPO1LZKV77TYQ4EKYM", "current_trial": 245, "dateTime": 1510860552571, "trialdata": {"rt": -1, "stimulus": "<p id=\"stim\">SEAGULL</p>", "key_press": -1, "type": "PRES_VIS", "word": "seagull", "wordID": 1260, "conditions": [24, 1600, "v", 24000], "trial": 6, "serialpos": 8, "trial_type": "single-stim", "trial_index": 245, "time_elapsed": 1061127, "internal_node_id": "0.0-182.0"}}, {"uniqueid": "MTK0413:36U2A8VAG263QPO1LZKV77TYQ4EKYM", "current_trial": 246, "dateTime": 1510860555275, "trialdata": {"rt": -1, "stimulus": "<p id=\"stim\">PASTA</p>", "key_press": -1, "type": "PRES_VIS", "word": "pasta", "wordID": 1020, "conditions": [24, 1600, "v", 24000], "trial": 6, "serialpos": 9, "trial_type": "single-stim", "trial_index": 246, "time_elapsed": 1063831, "internal_node_id": "0.0-183.0"}}, {"uniqueid": "MTK0413:36U2A8VAG263QPO1LZKV77TYQ4EKYM", "current_trial": 247, "dateTime": 1510860557713, "trialdata": {"rt": -1, "stimulus": "<p id=\"stim\">DAUGHTER</p>", "key_press": -1, "type": "PRES_VIS", "word": "daughter", "wordID": 441, "conditions": [24, 1600, "v", 24000], "trial": 6, "serialpos": 10, "trial_type": "single-stim", "trial_index": 247, "time_elapsed": 1066269, "internal_node_id": "0.0-184.0"}}, {"uniqueid": "MTK0413:36U2A8VAG263QPO1LZKV77TYQ4EKYM", "current_trial": 248, "dateTime": 1510860560420, "trialdata": {"rt": -1, "stimulus": "<p id=\"stim\">WOMAN</p>", "key_press": -1, "type": "PRES_VIS", "word": "woman", "wordID": 1619, "conditions": [24, 1600, "v", 24000], "trial": 6, "serialpos": 11, "trial_type": "single-stim", "trial_index": 248, "time_elapsed": 1068976, "internal_node_id": "0.0-185.0"}}, {"uniqueid": "MTK0413:36U2A8VAG263QPO1LZKV77TYQ4EKYM", "current_trial": 249, "dateTime": 1510860562967, "trialdata": {"rt": -1, "stimulus": "<p id=\"stim\">COMPASS</p>", "key_press": -1, "type": "PRES_VIS", "word": "compass", "wordID": 357, "conditions": [24, 1600, "v", 24000], "trial": 6, "serialpos": 12, "trial_type": "single-stim", "trial_index": 249, "time_elapsed": 1071523, "internal_node_id": "0.0-186.0"}}, {"uniqueid": "MTK0413:36U2A8VAG263QPO1LZKV77TYQ4EKYM", "current_trial": 250, "dateTime": 1510860565684, "trialdata": {"rt": -1, "stimulus": "<p id=\"stim\">HANDBAG</p>", "key_press": -1, "type": "PRES_VIS", "word": "handbag", "wordID": 683, "conditions": [24, 1600, "v", 24000], "trial": 6, "serialpos": 13, "trial_type": "single-stim", "trial_index": 250, "time_elapsed": 1074240, "internal_node_id": "0.0-187.0"}}, {"uniqueid": "MTK0413:36U2A8VAG263QPO1LZKV77TYQ4EKYM", "current_trial": 251, "dateTime": 1510860568261, "trialdata": {"rt": -1, "stimulus": "<p id=\"stim\">SERVER</p>", "key_press": -1, "type": "PRES_VIS", "word": "server", "wordID": 1271, "conditions": [24, 1600, "v", 24000], "trial": 6, "serialpos": 14, "trial_type": "single-stim", "trial_index": 251, "time_elapsed": 1076816, "internal_node_id": "0.0-188.0"}}, {"uniqueid": "MTK0413:36U2A8VAG263QPO1LZKV77TYQ4EKYM", "current_trial": 252, "dateTime": 1510860571059, "trialdata": {"rt": -1, "stimulus": "<p id=\"stim\">COCKTAIL</p>", "key_press": -1, "type": "PRES_VIS", "word": "cocktail", "wordID": 337, "conditions": [24, 1600, "v", 24000], "trial": 6, "serialpos": 15, "trial_type": "single-stim", "trial_index": 252, "time_elapsed": 1079615, "internal_node_id": "0.0-189.0"}}, {"uniqueid": "MTK0413:36U2A8VAG263QPO1LZKV77TYQ4EKYM", "current_trial": 253, "dateTime": 1510860573689, "trialdata": {"rt": -1, "stimulus": "<p id=\"stim\">HUSBAND</p>", "key_press": -1, "type": "PRES_VIS", "word": "husband", "wordID": 727, "conditions": [24, 1600, "v", 24000], "trial": 6, "serialpos": 16, "trial_type": "single-stim", "trial_index": 253, "time_elapsed": 1082244, "internal_node_id": "0.0-190.0"}}, {"uniqueid": "MTK0413:36U2A8VAG263QPO1LZKV77TYQ4EKYM", "current_trial": 254, "dateTime": 1510860576345, "trialdata": {"rt": -1, "stimulus": "<p id=\"stim\">BROOK</p>", "key_press": -1, "type": "PRES_VIS", "word": "brook", "wordID": 176, "conditions": [24, 1600, "v", 24000], "trial": 6, "serialpos": 17, "trial_type": "single-stim", "trial_index": 254, "time_elapsed": 1084901, "internal_node_id": "0.0-191.0"}}, {"uniqueid": "MTK0413:36U2A8VAG263QPO1LZKV77TYQ4EKYM", "current_trial": 255, "dateTime": 1510860579095, "trialdata": {"rt": -1, "stimulus": "<p id=\"stim\">SNAKE</p>", "key_press": -1, "type": "PRES_VIS", "word": "snake", "wordID": 1332, "conditions": [24, 1600, "v", 24000], "trial": 6, "serialpos": 18, "trial_type": "single-stim", "trial_index": 255, "time_elapsed": 1087651, "internal_node_id": "0.0-192.0"}}, {"uniqueid": "MTK0413:36U2A8VAG263QPO1LZKV77TYQ4EKYM", "current_trial": 256, "dateTime": 1510860581512, "trialdata": {"rt": -1, "stimulus": "<p id=\"stim\">COBRA</p>", "key_press": -1, "type": "PRES_VIS", "word": "cobra", "wordID": 335, "conditions": [24, 1600, "v", 24000], "trial": 6, "serialpos": 19, "trial_type": "single-stim", "trial_index": 256, "time_elapsed": 1090065, "internal_node_id": "0.0-193.0"}}, {"uniqueid": "MTK0413:36U2A8VAG263QPO1LZKV77TYQ4EKYM", "current_trial": 257, "dateTime": 1510860584129, "trialdata": {"rt": -1, "stimulus": "<p id=\"stim\">GRAVEL</p>", "key_press": -1, "type": "PRES_VIS", "word": "gravel", "wordID": 658, "conditions": [24, 1600, "v", 24000], "trial": 6, "serialpos": 20, "trial_type": "single-stim", "trial_index": 257, "time_elapsed": 1092685, "internal_node_id": "0.0-194.0"}}, {"uniqueid": "MTK0413:36U2A8VAG263QPO1LZKV77TYQ4EKYM", "current_trial": 258, "dateTime": 1510860586859, "trialdata": {"rt": -1, "stimulus": "<p id=\"stim\">ROD</p>", "key_press": -1, "type": "PRES_VIS", "word": "rod", "wordID": 1202, "conditions": [24, 1600, "v", 24000], "trial": 6, "serialpos": 21, "trial_type": "single-stim", "trial_index": 258, "time_elapsed": 1095415, "internal_node_id": "0.0-195.0"}}, {"uniqueid": "MTK0413:36U2A8VAG263QPO1LZKV77TYQ4EKYM", "current_trial": 259, "dateTime": 1510860589282, "trialdata": {"rt": -1, "stimulus": "<p id=\"stim\">NECKLACE</p>", "key_press": -1, "type": "PRES_VIS", "word": "necklace", "wordID": 939, "conditions": [24, 1600, "v", 24000], "trial": 6, "serialpos": 22, "trial_type": "single-stim", "trial_index": 259, "time_elapsed": 1097838, "internal_node_id": "0.0-196.0"}}, {"uniqueid": "MTK0413:36U2A8VAG263QPO1LZKV77TYQ4EKYM", "current_trial": 260, "dateTime": 1510860591898, "trialdata": {"rt": -1, "stimulus": "<p id=\"stim\">LOVER</p>", "key_press": -1, "type": "PRES_VIS", "word": "lover", "wordID": 845, "conditions": [24, 1600, "v", 24000], "trial": 6, "serialpos": 23, "trial_type": "single-stim", "trial_index": 260, "time_elapsed": 1100454, "internal_node_id": "0.0-197.0"}}, {"uniqueid": "MTK0413:36U2A8VAG263QPO1LZKV77TYQ4EKYM", "current_trial": 261, "dateTime": 1510860594011, "trialdata": {"rt": -1, "stimulus": "", "key_press": -1, "type": "PRE_RECALL_DELAY", "trial_type": "single-stim", "trial_index": 261, "time_elapsed": 1102567, "internal_node_id": "0.0-198.0-0.0"}}, {"uniqueid": "MTK0413:36U2A8VAG263QPO1LZKV77TYQ4EKYM", "current_trial": 262, "dateTime": 1510860594515, "trialdata": {"rt": -1000, "stimulus": "/static/audio/400Hz.wav", "key_press": -1, "type": "PRE_RECALL_ALERT", "trial_type": "single-audio", "trial_index": 262, "time_elapsed": 1103071, "internal_node_id": "0.0-199.0"}}, {"uniqueid": "MTK0413:36U2A8VAG263QPO1LZKV77TYQ4EKYM", "current_trial": 263, "dateTime": 1510860654538, "trialdata": {"rt": [2734, 5141, 9371, 18441, 19615, 25138, 34538], "recwords": ["lover", "necklace", "pasta", "husband", "lover", "snake", "costume"], "type": "FREE_RECALL", "conditions": [24, 1600, "v", 24000], "trial": 6, "trial_type": "free-recall", "trial_index": 263, "time_elapsed": 1163077, "internal_node_id": "0.0-200.0-0.0"}}, {"uniqueid": "MTK0413:36U2A8VAG263QPO1LZKV77TYQ4EKYM", "current_trial": 264, "dateTime": 1510860660441, "trialdata": {"rt": 3900, "key_press": 32, "type": "INSTRUCTIONS", "trial_type": "text", "trial_index": 264, "time_elapsed": 1168997, "internal_node_id": "0.0-201.0"}}, {"uniqueid": "MTK0413:36U2A8VAG263QPO1LZKV77TYQ4EKYM", "current_trial": 265, "dateTime": 1510860674447, "trialdata": {"rt": [2335, 4460, 6559, 9146, 11621], "responses": ["12", "13", "21", "15", "6"], "num1": [3, 3, 5, 2, 2, 3], "num2": [6, 3, 8, 5, 3, 7], "num3": [3, 7, 8, 8, 1, 6], "type": "DISTRACTOR", "conditions": [12, 800, "a", 12000], "trial": 7, "trial_type": "math-distractor", "trial_index": 265, "time_elapsed": 1183002, "internal_node_id": "0.0-202.0"}}, {"uniqueid": "MTK0413:36U2A8VAG263QPO1LZKV77TYQ4EKYM", "current_trial": 266, "dateTime": 1510860677448, "trialdata": {"rt": -1, "stimulus": "<p id=\"stim\">10</p>", "key_press": -1, "trial_type": "single-stim", "trial_index": 266, "time_elapsed": 1186004, "internal_node_id": "0.0-203.0-0.0"}}, {"uniqueid": "MTK0413:36U2A8VAG263QPO1LZKV77TYQ4EKYM", "current_trial": 267, "dateTime": 1510860678451, "trialdata": {"rt": -1, "stimulus": "<p id=\"stim\">9</p>", "key_press": -1, "trial_type": "single-stim", "trial_index": 267, "time_elapsed": 1187006, "internal_node_id": "0.0-203.0-1.0"}}, {"uniqueid": "MTK0413:36U2A8VAG263QPO1LZKV77TYQ4EKYM", "current_trial": 268, "dateTime": 1510860679452, "trialdata": {"rt": -1, "stimulus": "<p id=\"stim\">8</p>", "key_press": -1, "trial_type": "single-stim", "trial_index": 268, "time_elapsed": 1188008, "internal_node_id": "0.0-203.0-2.0"}}, {"uniqueid": "MTK0413:36U2A8VAG263QPO1LZKV77TYQ4EKYM", "current_trial": 269, "dateTime": 1510860680453, "trialdata": {"rt": -1, "stimulus": "<p id=\"stim\">7</p>", "key_press": -1, "trial_type": "single-stim", "trial_index": 269, "time_elapsed": 1189009, "internal_node_id": "0.0-203.0-3.0"}}, {"uniqueid": "MTK0413:36U2A8VAG263QPO1LZKV77TYQ4EKYM", "current_trial": 270, "dat