{"condition": 0, "counterbalance": 959, "assignmentId": "3FIJLY1B6VBY1P4MT1XFE38HE9BFPE", "workerId": "MTK0466", "hitId": "385MDVINFCM23GPPYBXTWBCLMHHJWL", "currenttrial": 626, "bonus": 0, "data": [{"uniqueid": "MTK0466:3FIJLY1B6VBY1P4MT1XFE38HE9BFPE", "current_trial": 0, "dateTime": 1510934444572, "trialdata": {"rt": 6385, "key_press": 32, "type": "INSTRUCTIONS", "trial_type": "text", "trial_index": 0, "time_elapsed": 6388, "internal_node_id": "0.0-0.0"}}, {"uniqueid": "MTK0466:3FIJLY1B6VBY1P4MT1XFE38HE9BFPE", "current_trial": 1, "dateTime": 1510934495811, "trialdata": {"rt": 51237, "key_press": 32, "type": "INSTRUCTIONS", "trial_type": "text", "trial_index": 1, "time_elapsed": 57628, "internal_node_id": "0.0-1.0"}}, {"uniqueid": "MTK0466:3FIJLY1B6VBY1P4MT1XFE38HE9BFPE", "current_trial": 2, "dateTime": 1510934502107, "trialdata": {"rt": [6268], "responses": ["ocean"], "type": "AUDIO_TEST", "trial_type": "audio-test", "trial_index": 2, "time_elapsed": 63924, "internal_node_id": "0.0-2.0"}}, {"uniqueid": "MTK0466:3FIJLY1B6VBY1P4MT1XFE38HE9BFPE", "current_trial": 3, "dateTime": 1510934509851, "trialdata": {"rt": [7739], "responses": ["crystal"], "type": "AUDIO_TEST", "trial_type": "audio-test", "trial_index": 3, "time_elapsed": 71668, "internal_node_id": "0.0-3.0"}}, {"uniqueid": "MTK0466:3FIJLY1B6VBY1P4MT1XFE38HE9BFPE", "current_trial": 4, "dateTime": 1510934514138, "trialdata": {"rt": [4282], "responses": ["spice"], "type": "AUDIO_TEST", "trial_type": "audio-test", "trial_index": 4, "time_elapsed": 75955, "internal_node_id": "0.0-4.0"}}, {"uniqueid": "MTK0466:3FIJLY1B6VBY1P4MT1XFE38HE9BFPE", "current_trial": 5, "dateTime": 1510934536709, "trialdata": {"rt": 21818, "responses": "{\"Q0\":\"10:00pm\",\"Q1\":\"5:00am\",\"Q2\":\"3\"}", "type": "SLEEP_SURVEY", "trial_type": "survey-text", "trial_index": 5, "time_elapsed": 98526, "internal_node_id": "0.0-5.0"}}, {"uniqueid": "MTK0466:3FIJLY1B6VBY1P4MT1XFE38HE9BFPE", "current_trial": 6, "dateTime": 1510934570831, "trialdata": {"rt": 33122, "key_press": 32, "type": "INSTRUCTIONS", "trial_type": "text", "trial_index": 6, "time_elapsed": 132648, "internal_node_id": "0.0-6.0"}}, {"uniqueid": "MTK0466:3FIJLY1B6VBY1P4MT1XFE38HE9BFPE", "current_trial": 7, "dateTime": 1510934591871, "trialdata": {"rt": 20539, "key_press": 32, "type": "INSTRUCTIONS", "trial_type": "text", "trial_index": 7, "time_elapsed": 153688, "internal_node_id": "0.0-7.0"}}, {"uniqueid": "MTK0466:3FIJLY1B6VBY1P4MT1XFE38HE9BFPE", "current_trial": 8, "dateTime": 1510934595771, "trialdata": {"rt": 3399, "key_press": 32, "type": "INSTRUCTIONS", "trial_type": "text", "trial_index": 8, "time_elapsed": 157588, "internal_node_id": "0.0-8.0"}}, {"uniqueid": "MTK0466:3FIJLY1B6VBY1P4MT1XFE38HE9BFPE", "current_trial": 9, "dateTime": 1510934614775, "trialdata": {"rt": [3412, 5724, 8084, 10180, 11700, 13779, 15892, 17852], "responses": ["11", "24", "14", "19", "16", "16", "22", "8"], "num1": [7, 8, 5, 5, 3, 7, 8, 4, 1], "num2": [3, 6, 6, 9, 7, 6, 7, 1, 6], "num3": [1, 8, 3, 5, 6, 3, 7, 3, 7], "type": "DISTRACTOR", "conditions": [18, 1200, "v", 18000], "trial": 0, "trial_type": "math-distractor", "trial_index": 9, "time_elapsed": 176592, "internal_node_id": "0.0-9.0"}}, {"uniqueid": "MTK0466:3FIJLY1B6VBY1P4MT1XFE38HE9BFPE", "current_trial": 10, "dateTime": 1510934617776, "trialdata": {"rt": -1, "stimulus": "<p id=\"stim\">10</p>", "key_press": -1, "trial_type": "single-stim", "trial_index": 10, "time_elapsed": 179592, "internal_node_id": "0.0-10.0-0.0"}}, {"uniqueid": "MTK0466:3FIJLY1B6VBY1P4MT1XFE38HE9BFPE", "current_trial": 11, "dateTime": 1510934618776, "trialdata": {"rt": -1, "stimulus": "<p id=\"stim\">9</p>", "key_press": -1, "trial_type": "single-stim", "trial_index": 11, "time_elapsed": 180593, "internal_node_id": "0.0-10.0-1.0"}}, {"uniqueid": "MTK0466:3FIJLY1B6VBY1P4MT1XFE38HE9BFPE", "current_trial": 12, "dateTime": 1510934619776, "trialdata": {"rt": -1, "stimulus": "<p id=\"stim\">8</p>", "key_press": -1, "trial_type": "single-stim", "trial_index": 12, "time_elapsed": 181593, "internal_node_id": "0.0-10.0-2.0"}}, {"uniqueid": "MTK0466:3FIJLY1B6VBY1P4MT1XFE38HE9BFPE", "current_trial": 13, "dateTime": 1510934620776, "trialdata": {"rt": -1, "stimulus": "<p id=\"stim\">7</p>", "key_press": -1, "trial_type": "single-stim", "trial_index": 13, "time_elapsed": 182593, "internal_node_id": "0.0-10.0-3.0"}}, {"uniqueid": "MTK0466:3FIJLY1B6VBY1P4MT1XFE38HE9BFPE", "current_trial": 14, "dateTime": 1510934621776, "trialdata": {"rt": -1, "stimulus": "<p id=\"stim\">6</p>", "key_press": -1, "trial_type": "single-stim", "trial_index": 14, "time_elapsed": 183593, "internal_node_id": "0.0-10.0-4.0"}}, {"uniqueid": "MTK0466:3FIJLY1B6VBY1P4MT1XFE38HE9BFPE", "current_trial": 15, "dateTime": 1510934622777, "trialdata": {"rt": -1, "stimulus": "<p id=\"stim\">5</p>", "key_press": -1, "trial_type": "single-stim", "trial_index": 15, "time_elapsed": 184594, "internal_node_id": "0.0-10.0-5.0"}}, {"uniqueid": "MTK0466:3FIJLY1B6VBY1P4MT1XFE38HE9BFPE", "current_trial": 16, "dateTime": 1510934623778, "trialdata": {"rt": -1, "stimulus": "<p id=\"stim\">4</p>", "key_press": -1, "trial_type": "single-stim", "trial_index": 16, "time_elapsed": 185595, "internal_node_id": "0.0-10.0-6.0"}}, {"uniqueid": "MTK0466:3FIJLY1B6VBY1P4MT1XFE38HE9BFPE", "current_trial": 17, "dateTime": 1510934624779, "trialdata": {"rt": -1, "stimulus": "<p id=\"stim\">3</p>", "key_press": -1, "trial_type": "single-stim", "trial_index": 17, "time_elapsed": 186596, "internal_node_id": "0.0-10.0-7.0"}}, {"uniqueid": "MTK0466:3FIJLY1B6VBY1P4MT1XFE38HE9BFPE", "current_trial": 18, "dateTime": 1510934625779, "trialdata": {"rt": -1, "stimulus": "<p id=\"stim\">2</p>", "key_press": -1, "trial_type": "single-stim", "trial_index": 18, "time_elapsed": 187596, "internal_node_id": "0.0-10.0-8.0"}}, {"uniqueid": "MTK0466:3FIJLY1B6VBY1P4MT1XFE38HE9BFPE", "current_trial": 19, "dateTime": 1510934626779, "trialdata": {"rt": -1, "stimulus": "<p id=\"stim\">1</p>", "key_press": -1, "trial_type": "single-stim", "trial_index": 19, "time_elapsed": 188596, "internal_node_id": "0.0-10.0-9.0"}}, {"uniqueid": "MTK0466:3FIJLY1B6VBY1P4MT1XFE38HE9BFPE", "current_trial": 20, "dateTime": 1510934628279, "trialdata": {"rt": -1, "stimulus": "<p id=\"stim\">+</p>", "key_press": -1, "type": "FIXATION", "trial_type": "single-stim", "trial_index": 20, "time_elapsed": 190096, "internal_node_id": "0.0-11.0-0.0"}}, {"uniqueid": "MTK0466:3FIJLY1B6VBY1P4MT1XFE38HE9BFPE", "current_trial": 21, "dateTime": 1510934629481, "trialdata": {"rt": -1, "stimulus": "<p id=\"stim\">DASHBOARD</p>", "key_press": -1, "type": "PRES_VIS", "word": "dashboard", "wordID": 440, "conditions": [18, 1200, "v", 18000], "trial": 0, "serialpos": 0, "trial_type": "single-stim", "trial_index": 21, "time_elapsed": 191298, "internal_node_id": "0.0-12.0"}}, {"uniqueid": "MTK0466:3FIJLY1B6VBY1P4MT1XFE38HE9BFPE", "current_trial": 22, "dateTime": 1510934631647, "trialdata": {"rt": -1, "stimulus": "<p id=\"stim\">DUST</p>", "key_press": -1, "type": "PRES_VIS", "word": "dust", "wordID": 507, "conditions": [18, 1200, "v", 18000], "trial": 0, "serialpos": 1, "trial_type": "single-stim", "trial_index": 22, "time_elapsed": 193464, "internal_node_id": "0.0-13.0"}}, {"uniqueid": "MTK0466:3FIJLY1B6VBY1P4MT1XFE38HE9BFPE", "current_trial": 23, "dateTime": 1510934633845, "trialdata": {"rt": -1, "stimulus": "<p id=\"stim\">PEBBLE</p>", "key_press": -1, "type": "PRES_VIS", "word": "pebble", "wordID": 1034, "conditions": [18, 1200, "v", 18000], "trial": 0, "serialpos": 2, "trial_type": "single-stim", "trial_index": 23, "time_elapsed": 195662, "internal_node_id": "0.0-14.0"}}, {"uniqueid": "MTK0466:3FIJLY1B6VBY1P4MT1XFE38HE9BFPE", "current_trial": 24, "dateTime": 1510934635850, "trialdata": {"rt": -1, "stimulus": "<p id=\"stim\">COCOON</p>", "key_press": -1, "type": "PRES_VIS", "word": "cocoon", "wordID": 338, "conditions": [18, 1200, "v", 18000], "trial": 0, "serialpos": 3, "trial_type": "single-stim", "trial_index": 24, "time_elapsed": 197667, "internal_node_id": "0.0-15.0"}}, {"uniqueid": "MTK0466:3FIJLY1B6VBY1P4MT1XFE38HE9BFPE", "current_trial": 25, "dateTime": 1510934638114, "trialdata": {"rt": -1, "stimulus": "<p id=\"stim\">RUG</p>", "key_press": -1, "type": "PRES_VIS", "word": "rug", "wordID": 1214, "conditions": [18, 1200, "v", 18000], "trial": 0, "serialpos": 4, "trial_type": "single-stim", "trial_index": 25, "time_elapsed": 199931, "internal_node_id": "0.0-16.0"}}, {"uniqueid": "MTK0466:3FIJLY1B6VBY1P4MT1XFE38HE9BFPE", "current_trial": 26, "dateTime": 1510934640489, "trialdata": {"rt": -1, "stimulus": "<p id=\"stim\">CLOUD</p>", "key_press": -1, "type": "PRES_VIS", "word": "cloud", "wordID": 327, "conditions": [18, 1200, "v", 18000], "trial": 0, "serialpos": 5, "trial_type": "single-stim", "trial_index": 26, "time_elapsed": 202306, "internal_node_id": "0.0-17.0"}}, {"uniqueid": "MTK0466:3FIJLY1B6VBY1P4MT1XFE38HE9BFPE", "current_trial": 27, "dateTime": 1510934642756, "trialdata": {"rt": -1, "stimulus": "<p id=\"stim\">OUTFIT</p>", "key_press": -1, "type": "PRES_VIS", "word": "outfit", "wordID": 987, "conditions": [18, 1200, "v", 18000], "trial": 0, "serialpos": 6, "trial_type": "single-stim", "trial_index": 27, "time_elapsed": 204573, "internal_node_id": "0.0-18.0"}}, {"uniqueid": "MTK0466:3FIJLY1B6VBY1P4MT1XFE38HE9BFPE", "current_trial": 28, "dateTime": 1510934644907, "trialdata": {"rt": -1, "stimulus": "<p id=\"stim\">SPACE</p>", "key_press": -1, "type": "PRES_VIS", "word": "space", "wordID": 1344, "conditions": [18, 1200, "v", 18000], "trial": 0, "serialpos": 7, "trial_type": "single-stim", "trial_index": 28, "time_elapsed": 206724, "internal_node_id": "0.0-19.0"}}, {"uniqueid": "MTK0466:3FIJLY1B6VBY1P4MT1XFE38HE9BFPE", "current_trial": 29, "dateTime": 1510934647175, "trialdata": {"rt": -1, "stimulus": "<p id=\"stim\">AIRPLANE</p>", "key_press": -1, "type": "PRES_VIS", "word": "airplane", "wordID": 11, "conditions": [18, 1200, "v", 18000], "trial": 0, "serialpos": 8, "trial_type": "single-stim", "trial_index": 29, "time_elapsed": 208992, "internal_node_id": "0.0-20.0"}}, {"uniqueid": "MTK0466:3FIJLY1B6VBY1P4MT1XFE38HE9BFPE", "current_trial": 30, "dateTime": 1510934649355, "trialdata": {"rt": -1, "stimulus": "<p id=\"stim\">MATCH</p>", "key_press": -1, "type": "PRES_VIS", "word": "match", "wordID": 877, "conditions": [18, 1200, "v", 18000], "trial": 0, "serialpos": 9, "trial_type": "single-stim", "trial_index": 30, "time_elapsed": 211172, "internal_node_id": "0.0-21.0"}}, {"uniqueid": "MTK0466:3FIJLY1B6VBY1P4MT1XFE38HE9BFPE", "current_trial": 31, "dateTime": 1510934651471, "trialdata": {"rt": -1, "stimulus": "<p id=\"stim\">MILDEW</p>", "key_press": -1, "type": "PRES_VIS", "word": "mildew", "wordID": 892, "conditions": [18, 1200, "v", 18000], "trial": 0, "serialpos": 10, "trial_type": "single-stim", "trial_index": 31, "time_elapsed": 213288, "internal_node_id": "0.0-22.0"}}, {"uniqueid": "MTK0466:3FIJLY1B6VBY1P4MT1XFE38HE9BFPE", "current_trial": 32, "dateTime": 1510934653863, "trialdata": {"rt": -1, "stimulus": "<p id=\"stim\">SILK</p>", "key_press": -1, "type": "PRES_VIS", "word": "silk", "wordID": 1306, "conditions": [18, 1200, "v", 18000], "trial": 0, "serialpos": 11, "trial_type": "single-stim", "trial_index": 32, "time_elapsed": 215680, "internal_node_id": "0.0-23.0"}}, {"uniqueid": "MTK0466:3FIJLY1B6VBY1P4MT1XFE38HE9BFPE", "current_trial": 33, "dateTime": 1510934656210, "trialdata": {"rt": -1, "stimulus": "<p id=\"stim\">XEROX</p>", "key_press": -1, "type": "PRES_VIS", "word": "xerox", "wordID": 1627, "conditions": [18, 1200, "v", 18000], "trial": 0, "serialpos": 12, "trial_type": "single-stim", "trial_index": 33, "time_elapsed": 218027, "internal_node_id": "0.0-24.0"}}, {"uniqueid": "MTK0466:3FIJLY1B6VBY1P4MT1XFE38HE9BFPE", "current_trial": 34, "dateTime": 1510934658230, "trialdata": {"rt": -1, "stimulus": "<p id=\"stim\">RELISH</p>", "key_press": -1, "type": "PRES_VIS", "word": "relish", "wordID": 1182, "conditions": [18, 1200, "v", 18000], "trial": 0, "serialpos": 13, "trial_type": "single-stim", "trial_index": 34, "time_elapsed": 220047, "internal_node_id": "0.0-25.0"}}, {"uniqueid": "MTK0466:3FIJLY1B6VBY1P4MT1XFE38HE9BFPE", "current_trial": 35, "dateTime": 1510934660549, "trialdata": {"rt": -1, "stimulus": "<p id=\"stim\">SUSPECT</p>", "key_press": -1, "type": "PRES_VIS", "word": "suspect", "wordID": 1414, "conditions": [18, 1200, "v", 18000], "trial": 0, "serialpos": 14, "trial_type": "single-stim", "trial_index": 35, "time_elapsed": 222366, "internal_node_id": "0.0-26.0"}}, {"uniqueid": "MTK0466:3FIJLY1B6VBY1P4MT1XFE38HE9BFPE", "current_trial": 36, "dateTime": 1510934662592, "trialdata": {"rt": -1, "stimulus": "<p id=\"stim\">GRAVEL</p>", "key_press": -1, "type": "PRES_VIS", "word": "gravel", "wordID": 658, "conditions": [18, 1200, "v", 18000], "trial": 0, "serialpos": 15, "trial_type": "single-stim", "trial_index": 36, "time_elapsed": 224409, "internal_node_id": "0.0-27.0"}}, {"uniqueid": "MTK0466:3FIJLY1B6VBY1P4MT1XFE38HE9BFPE", "current_trial": 37, "dateTime": 1510934664788, "trialdata": {"rt": -1, "stimulus": "<p id=\"stim\">DENIM</p>", "key_press": -1, "type": "PRES_VIS", "word": "denim", "wordID": 445, "conditions": [18, 1200, "v", 18000], "trial": 0, "serialpos": 16, "trial_type": "single-stim", "trial_index": 37, "time_elapsed": 226605, "internal_node_id": "0.0-28.0"}}, {"uniqueid": "MTK0466:3FIJLY1B6VBY1P4MT1XFE38HE9BFPE", "current_trial": 38, "dateTime": 1510934666859, "trialdata": {"rt": -1, "stimulus": "<p id=\"stim\">CYCLONE</p>", "key_press": -1, "type": "PRES_VIS", "word": "cyclone", "wordID": 430, "conditions": [18, 1200, "v", 18000], "trial": 0, "serialpos": 17, "trial_type": "single-stim", "trial_index": 38, "time_elapsed": 228676, "internal_node_id": "0.0-29.0"}}, {"uniqueid": "MTK0466:3FIJLY1B6VBY1P4MT1XFE38HE9BFPE", "current_trial": 39, "dateTime": 1510934669005, "trialdata": {"rt": -1, "stimulus": "", "key_press": -1, "type": "PRE_RECALL_DELAY", "trial_type": "single-stim", "trial_index": 39, "time_elapsed": 230822, "internal_node_id": "0.0-30.0-0.0"}}, {"uniqueid": "MTK0466:3FIJLY1B6VBY1P4MT1XFE38HE9BFPE", "current_trial": 40, "dateTime": 1510934669523, "trialdata": {"rt": -1000, "stimulus": "/static/audio/400Hz.wav", "key_press": -1, "type": "PRE_RECALL_ALERT", "trial_type": "single-audio", "trial_index": 40, "time_elapsed": 231340, "internal_node_id": "0.0-31.0"}}, {"uniqueid": "MTK0466:3FIJLY1B6VBY1P4MT1XFE38HE9BFPE", "current_trial": 41, "dateTime": 1510934729525, "trialdata": {"rt": [3962, 6418, 8194, 9866, 11425, 13227, 15938, 20266, 25162, 27354], "recwords": ["cyclone", "space", "pebble", "cocoon", "xerox", "cloud", "dust", "denim", "dashboard", "airplane"], "type": "FREE_RECALL", "conditions": [18, 1200, "v", 18000], "trial": 0, "trial_type": "free-recall", "trial_index": 41, "time_elapsed": 291339, "internal_node_id": "0.0-32.0-0.0"}}, {"uniqueid": "MTK0466:3FIJLY1B6VBY1P4MT1XFE38HE9BFPE", "current_trial": 42, "dateTime": 1510934732796, "trialdata": {"rt": 1270, "key_press": 32, "type": "INSTRUCTIONS", "trial_type": "text", "trial_index": 42, "time_elapsed": 294613, "internal_node_id": "0.0-33.0"}}, {"uniqueid": "MTK0466:3FIJLY1B6VBY1P4MT1XFE38HE9BFPE", "current_trial": 43, "dateTime": 1510934752798, "trialdata": {"rt": [1966, 4470, 6518, 12462, 14246, 16630], "responses": ["7", "20", "16", "21", "15", "8"], "num1": [1, 4, 1, 7, 6, 2, 8], "num2": [5, 7, 7, 6, 5, 4, 8], "num3": [1, 9, 8, 8, 4, 2, 8], "type": "DISTRACTOR", "conditions": [18, 1200, "a", 18000], "trial": 1, "trial_type": "math-distractor", "trial_index": 43, "time_elapsed": 314615, "internal_node_id": "0.0-34.0"}}, {"uniqueid": "MTK0466:3FIJLY1B6VBY1P4MT1XFE38HE9BFPE", "current_trial": 44, "dateTime": 1510934755798, "trialdata": {"rt": -1, "stimulus": "<p id=\"stim\">10</p>", "key_press": -1, "trial_type": "single-stim", "trial_index": 44, "time_elapsed": 317615, "internal_node_id": "0.0-35.0-0.0"}}, {"uniqueid": "MTK0466:3FIJLY1B6VBY1P4MT1XFE38HE9BFPE", "current_trial": 45, "dateTime": 1510934756798, "trialdata": {"rt": -1, "stimulus": "<p id=\"stim\">9</p>", "key_press": -1, "trial_type": "single-stim", "trial_index": 45, "time_elapsed": 318615, "internal_node_id": "0.0-35.0-1.0"}}, {"uniqueid": "MTK0466:3FIJLY1B6VBY1P4MT1XFE38HE9BFPE", "current_trial": 46, "dateTime": 1510934757798, "trialdata": {"rt": -1, "stimulus": "<p id=\"stim\">8</p>", "key_press": -1, "trial_type": "single-stim", "trial_index": 46, "time_elapsed": 319615, "internal_node_id": "0.0-35.0-2.0"}}, {"uniqueid": "MTK0466:3FIJLY1B6VBY1P4MT1XFE38HE9BFPE", "current_trial": 47, "dateTime": 1510934758798, "trialdata": {"rt": -1, "stimulus": "<p id=\"stim\">7</p>", "key_press": -1, "trial_type": "single-stim", "trial_index": 47, "time_elapsed": 320615, "internal_node_id": "0.0-35.0-3.0"}}, {"uniqueid": "MTK0466:3FIJLY1B6VBY1P4MT1XFE38HE9BFPE", "current_trial": 48, "dateTime": 1510934759798, "trialdata": {"rt": -1, "stimulus": "<p id=\"stim\">6</p>", "key_press": -1, "trial_type": "single-stim", "trial_index": 48, "time_elapsed": 321615, "internal_node_id": "0.0-35.0-4.0"}}, {"uniqueid": "MTK0466:3FIJLY1B6VBY1P4MT1XFE38HE9BFPE", "current_trial": 49, "dateTime": 1510934760798, "trialdata": {"rt": -1, "stimulus": "<p id=\"stim\">5</p>", "key_press": -1, "trial_type": "single-stim", "trial_index": 49, "time_elapsed": 322615, "internal_node_id": "0.0-35.0-5.0"}}, {"uniqueid": "MTK0466:3FIJLY1B6VBY1P4MT1XFE38HE9BFPE", "current_trial": 50, "dateTime": 1510934761798, "trialdata": {"rt": -1, "stimulus": "<p id=\"stim\">4</p>", "key_press": -1, "trial_type": "single-stim", "trial_index": 50, "time_elapsed": 323615, "internal_node_id": "0.0-35.0-6.0"}}, {"uniqueid": "MTK0466:3FIJLY1B6VBY1P4MT1XFE38HE9BFPE", "current_trial": 51, "dateTime": 1510934762798, "trialdata": {"rt": -1, "stimulus": "<p id=\"stim\">3</p>", "key_press": -1, "trial_type": "single-stim", "trial_index": 51, "time_elapsed": 324615, "internal_node_id": "0.0-35.0-7.0"}}, {"uniqueid": "MTK0466:3FIJLY1B6VBY1P4MT1XFE38HE9BFPE", "current_trial": 52, "dateTime": 1510934763798, "trialdata": {"rt": -1, "stimulus": "<p id=\"stim\">2</p>", "key_press": -1, "trial_type": "single-stim", "trial_index": 52, "time_elapsed": 325615, "internal_node_id": "0.0-35.0-8.0"}}, {"uniqueid": "MTK0466:3FIJLY1B6VBY1P4MT1XFE38HE9BFPE", "current_trial": 53, "dateTime": 1510934764798, "trialdata": {"rt": -1, "stimulus": "<p id=\"stim\">1</p>", "key_press": -1, "trial_type": "single-stim", "trial_index": 53, "time_elapsed": 326615, "internal_node_id": "0.0-35.0-9.0"}}, {"uniqueid": "MTK0466:3FIJLY1B6VBY1P4MT1XFE38HE9BFPE", "current_trial": 54, "dateTime": 1510934766298, "trialdata": {"rt": -1, "stimulus": "<p id=\"stim\">+</p>", "key_press": -1, "type": "FIXATION", "trial_type": "single-stim", "trial_index": 54, "time_elapsed": 328115, "internal_node_id": "0.0-36.0-0.0"}}, {"uniqueid": "MTK0466:3FIJLY1B6VBY1P4MT1XFE38HE9BFPE", "current_trial": 55, "dateTime": 1510934768463, "trialdata": {"rt": -1000, "stimulus": "/static/audio/wordpool/MONSTER.wav", "key_press": -1, "type": "PRES_AUD", "word": "monster", "wordID": 911, "conditions": [18, 1200, "a", 18000], "trial": 1, "serialpos": 0, "trial_type": "single-audio", "trial_index": 55, "time_elapsed": 330280, "internal_node_id": "0.0-37.0"}}, {"uniqueid": "MTK0466:3FIJLY1B6VBY1P4MT1XFE38HE9BFPE", "current_trial": 56, "dateTime": 1510934770636, "trialdata": {"rt": -1000, "stimulus": "/static/audio/wordpool/TREAT.wav", "key_press": -1, "type": "PRES_AUD", "word": "treat", "wordID": 1500, "conditions": [18, 1200, "a", 18000], "trial": 1, "serialpos": 1, "trial_type": "single-audio", "trial_index": 56, "time_elapsed": 332453, "internal_node_id": "0.0-38.0"}}, {"uniqueid": "MTK0466:3FIJLY1B6VBY1P4MT1XFE38HE9BFPE", "current_trial": 57, "dateTime": 1510934772967, "trialdata": {"rt": -1000, "stimulus": "/static/audio/wordpool/YARN.wav", "key_press": -1, "type": "PRES_AUD", "word": "yarn", "wordID": 1630, "conditions": [18, 1200, "a", 18000], "trial": 1, "serialpos": 2, "trial_type": "single-audio", "trial_index": 57, "time_elapsed": 334784, "internal_node_id": "0.0-39.0"}}, {"uniqueid": "MTK0466:3FIJLY1B6VBY1P4MT1XFE38HE9BFPE", "current_trial": 58, "dateTime": 1510934775082, "trialdata": {"rt": -1000, "stimulus": "/static/audio/wordpool/DINER.wav", "key_press": -1, "type": "PRES_AUD", "word": "diner", "wordID": 466, "conditions": [18, 1200, "a", 18000], "trial": 1, "serialpos": 3, "trial_type": "single-audio", "trial_index": 58, "time_elapsed": 336899, "internal_node_id": "0.0-40.0"}}, {"uniqueid": "MTK0466:3FIJLY1B6VBY1P4MT1XFE38HE9BFPE", "current_trial": 59, "dateTime": 1510934777336, "trialdata": {"rt": -1000, "stimulus": "/static/audio/wordpool/FUNGUS.wav", "key_press": -1, "type": "PRES_AUD", "word": "fungus", "wordID": 613, "conditions": [18, 1200, "a", 18000], "trial": 1, "serialpos": 4, "trial_type": "single-audio", "trial_index": 59, "time_elapsed": 339153, "internal_node_id": "0.0-41.0"}}, {"uniqueid": "MTK0466:3FIJLY1B6VBY1P4MT1XFE38HE9BFPE", "current_trial": 60, "dateTime": 1510934779631, "trialdata": {"rt": -1000, "stimulus": "/static/audio/wordpool/KNIFE.wav", "key_press": -1, "type": "PRES_AUD", "word": "knife", "wordID": 784, "conditions": [18, 1200, "a", 18000], "trial": 1, "serialpos": 5, "trial_type": "single-audio", "trial_index": 60, "time_elapsed": 341448, "internal_node_id": "0.0-42.0"}}, {"uniqueid": "MTK0466:3FIJLY1B6VBY1P4MT1XFE38HE9BFPE", "current_trial": 61, "dateTime": 1510934781689, "trialdata": {"rt": -1000, "stimulus": "/static/audio/wordpool/BODY.wav", "key_press": -1, "type": "PRES_AUD", "word": "body", "wordID": 144, "conditions": [18, 1200, "a", 18000], "trial": 1, "serialpos": 6, "trial_type": "single-audio", "trial_index": 61, "time_elapsed": 343506, "internal_node_id": "0.0-43.0"}}, {"uniqueid": "MTK0466:3FIJLY1B6VBY1P4MT1XFE38HE9BFPE", "current_trial": 62, "dateTime": 1510934784004, "trialdata": {"rt": -1000, "stimulus": "/static/audio/wordpool/PACKAGE.wav", "key_press": -1, "type": "PRES_AUD", "word": "package", "wordID": 996, "conditions": [18, 1200, "a", 18000], "trial": 1, "serialpos": 7, "trial_type": "single-audio", "trial_index": 62, "time_elapsed": 345821, "internal_node_id": "0.0-44.0"}}, {"uniqueid": "MTK0466:3FIJLY1B6VBY1P4MT1XFE38HE9BFPE", "current_trial": 63, "dateTime": 1510934786390, "trialdata": {"rt": -1000, "stimulus": "/static/audio/wordpool/SURVEY.wav", "key_press": -1, "type": "PRES_AUD", "word": "survey", "wordID": 1413, "conditions": [18, 1200, "a", 18000], "trial": 1, "serialpos": 8, "trial_type": "single-audio", "trial_index": 63, "time_elapsed": 348207, "internal_node_id": "0.0-45.0"}}, {"uniqueid": "MTK0466:3FIJLY1B6VBY1P4MT1XFE38HE9BFPE", "current_trial": 64, "dateTime": 1510934788484, "trialdata": {"rt": -1000, "stimulus": "/static/audio/wordpool/SIBLING.wav", "key_press": -1, "type": "PRES_AUD", "word": "sibling", "wordID": 1300, "conditions": [18, 1200, "a", 18000], "trial": 1, "serialpos": 9, "trial_type": "single-audio", "trial_index": 64, "time_elapsed": 350301, "internal_node_id": "0.0-46.0"}}, {"uniqueid": "MTK0466:3FIJLY1B6VBY1P4MT1XFE38HE9BFPE", "current_trial": 65, "dateTime": 1510934790647, "trialdata": {"rt": -1000, "stimulus": "/static/audio/wordpool/PASSAGE.wav", "key_press": -1, "type": "PRES_AUD", "word": "passage", "wordID": 1018, "conditions": [18, 1200, "a", 18000], "trial": 1, "serialpos": 10, "trial_type": "single-audio", "trial_index": 65, "time_elapsed": 352464, "internal_node_id": "0.0-47.0"}}, {"uniqueid": "MTK0466:3FIJLY1B6VBY1P4MT1XFE38HE9BFPE", "current_trial": 66, "dateTime": 1510934792674, "trialdata": {"rt": -1000, "stimulus": "/static/audio/wordpool/STICKER.wav", "key_press": -1, "type": "PRES_AUD", "word": "sticker", "wordID": 1381, "conditions": [18, 1200, "a", 18000], "trial": 1, "serialpos": 11, "trial_type": "single-audio", "trial_index": 66, "time_elapsed": 354491, "internal_node_id": "0.0-48.0"}}, {"uniqueid": "MTK0466:3FIJLY1B6VBY1P4MT1XFE38HE9BFPE", "current_trial": 67, "dateTime": 1510934794804, "trialdata": {"rt": -1000, "stimulus": "/static/audio/wordpool/ONION.wav", "key_press": -1, "type": "PRES_AUD", "word": "onion", "wordID": 976, "conditions": [18, 1200, "a", 18000], "trial": 1, "serialpos": 12, "trial_type": "single-audio", "trial_index": 67, "time_elapsed": 356621, "internal_node_id": "0.0-49.0"}}, {"uniqueid": "MTK0466:3FIJLY1B6VBY1P4MT1XFE38HE9BFPE", "current_trial": 68, "dateTime": 1510934796975, "trialdata": {"rt": -1000, "stimulus": "/static/audio/wordpool/FLASK.wav", "key_press": -1, "type": "PRES_AUD", "word": "flask", "wordID": 575, "conditions": [18, 1200, "a", 18000], "trial": 1, "serialpos": 13, "trial_type": "single-audio", "trial_index": 68, "time_elapsed": 358790, "internal_node_id": "0.0-50.0"}}, {"uniqueid": "MTK0466:3FIJLY1B6VBY1P4MT1XFE38HE9BFPE", "current_trial": 69, "dateTime": 1510934799060, "trialdata": {"rt": -1000, "stimulus": "/static/audio/wordpool/CHURCH.wav", "key_press": -1, "type": "PRES_AUD", "word": "church", "wordID": 306, "conditions": [18, 1200, "a", 18000], "trial": 1, "serialpos": 14, "trial_type": "single-audio", "trial_index": 69, "time_elapsed": 360877, "internal_node_id": "0.0-51.0"}}, {"uniqueid": "MTK0466:3FIJLY1B6VBY1P4MT1XFE38HE9BFPE", "current_trial": 70, "dateTime": 1510934801196, "trialdata": {"rt": -1000, "stimulus": "/static/audio/wordpool/LIGHTNING.wav", "key_press": -1, "type": "PRES_AUD", "word": "lightning", "wordID": 819, "conditions": [18, 1200, "a", 18000], "trial": 1, "serialpos": 15, "trial_type": "single-audio", "trial_index": 70, "time_elapsed": 363013, "internal_node_id": "0.0-52.0"}}, {"uniqueid": "MTK0466:3FIJLY1B6VBY1P4MT1XFE38HE9BFPE", "current_trial": 71, "dateTime": 1510934803206, "trialdata": {"rt": -1000, "stimulus": "/static/audio/wordpool/CROSS.wav", "key_press": -1, "type": "PRES_AUD", "word": "cross", "wordID": 412, "conditions": [18, 1200, "a", 18000], "trial": 1, "serialpos": 16, "trial_type": "single-audio", "trial_index": 71, "time_elapsed": 365023, "internal_node_id": "0.0-53.0"}}, {"uniqueid": "MTK0466:3FIJLY1B6VBY1P4MT1XFE38HE9BFPE", "current_trial": 72, "dateTime": 1510934805291, "trialdata": {"rt": -1000, "stimulus": "/static/audio/wordpool/PADDING.wav", "key_press": -1, "type": "PRES_AUD", "word": "padding", "wordID": 998, "conditions": [18, 1200, "a", 18000], "trial": 1, "serialpos": 17, "trial_type": "single-audio", "trial_index": 72, "time_elapsed": 367108, "internal_node_id": "0.0-54.0"}}, {"uniqueid": "MTK0466:3FIJLY1B6VBY1P4MT1XFE38HE9BFPE", "current_trial": 73, "dateTime": 1510934806514, "trialdata": {"rt": -1, "stimulus": "", "key_press": -1, "type": "PRE_RECALL_DELAY", "trial_type": "single-stim", "trial_index": 73, "time_elapsed": 368331, "internal_node_id": "0.0-55.0-0.0"}}, {"uniqueid": "MTK0466:3FIJLY1B6VBY1P4MT1XFE38HE9BFPE", "current_trial": 74, "dateTime": 1510934807014, "trialdata": {"rt": -1000, "stimulus": "/static/audio/400Hz.wav", "key_press": -1, "type": "PRE_RECALL_ALERT", "trial_type": "single-audio", "trial_index": 74, "time_elapsed": 368831, "internal_node_id": "0.0-56.0"}}, {"uniqueid": "MTK0466:3FIJLY1B6VBY1P4MT1XFE38HE9BFPE", "current_trial": 75, "dateTime": 1510934867016, "trialdata": {"rt": [2848, 4744, 6224, 7312, 8496, 12224, 16160, 28016, 34293, 43261, 57373], "recwords": ["lightening", "padding", "cross", "knife", "fungus", "church", "body", "diner", "monster", "padding", "package"], "type": "FREE_RECALL", "conditions": [18, 1200, "a", 18000], "trial": 1, "trial_type": "free-recall", "trial_index": 75, "time_elapsed": 428831, "internal_node_id": "0.0-57.0-0.0"}}, {"uniqueid": "MTK0466:3FIJLY1B6VBY1P4MT1XFE38HE9BFPE", "current_trial": 76, "dateTime": 1510934870569, "trialdata": {"rt": 1549, "key_press": 32, "type": "INSTRUCTIONS", "trial_type": "text", "trial_index": 76, "time_elapsed": 432382, "internal_node_id": "0.0-58.0"}}, {"uniqueid": "MTK0466:3FIJLY1B6VBY1P4MT1XFE38HE9BFPE", "current_trial": 77, "dateTime": 1510934883572, "trialdata": {"rt": [2338, 3890, 6954, 9002, 10674], "responses": ["21", "132", "11", "18", "13"], "num1": [8, 9, 8, 4, 7, 6], "num2": [7, 1, 1, 5, 2, 1], "num3": [6, 3, 2, 9, 4, 4], "type": "DISTRACTOR", "conditions": [12, 1600, "a", 12000], "trial": 2, "trial_type": "math-distractor", "trial_index": 77, "time_elapsed": 445389, "internal_node_id": "0.0-59.0"}}, {"uniqueid": "MTK0466:3FIJLY1B6VBY1P4MT1XFE38HE9BFPE", "current_trial": 78, "dateTime": 1510934886572, "trialdata": {"rt": -1, "stimulus": "<p id=\"stim\">10</p>", "key_press": -1, "trial_type": "single-stim", "trial_index": 78, "time_elapsed": 448389, "internal_node_id": "0.0-60.0-0.0"}}, {"uniqueid": "MTK0466:3FIJLY1B6VBY1P4MT1XFE38HE9BFPE", "current_trial": 79, "dateTime": 1510934887573, "trialdata": {"rt": -1, "stimulus": "<p id=\"stim\">9</p>", "key_press": -1, "trial_type": "single-stim", "trial_index": 79, "time_elapsed": 449390, "internal_node_id": "0.0-60.0-1.0"}}, {"uniqueid": "MTK0466:3FIJLY1B6VBY1P4MT1XFE38HE9BFPE", "current_trial": 80, "dateTime": 1510934888573, "trialdata": {"rt": -1, "stimulus": "<p id=\"stim\">8</p>", "key_press": -1, "trial_type": "single-stim", "trial_index": 80, "time_elapsed": 450390, "internal_node_id": "0.0-60.0-2.0"}}, {"uniqueid": "MTK0466:3FIJLY1B6VBY1P4MT1XFE38HE9BFPE", "current_trial": 81, "dateTime": 1510934889573, "trialdata": {"rt": -1, "stimulus": "<p id=\"stim\">7</p>", "key_press": -1, "trial_type": "single-stim", "trial_index": 81, "time_elapsed": 451390, "internal_node_id": "0.0-60.0-3.0"}}, {"uniqueid": "MTK0466:3FIJLY1B6VBY1P4MT1XFE38HE9BFPE", "current_trial": 82, "dateTime": 1510934890573, "trialdata": {"rt": -1, "stimulus": "<p id=\"stim\">6</p>", "key_press": -1, "trial_type": "single-stim", "trial_index": 82, "time_elapsed": 452390, "internal_node_id": "0.0-60.0-4.0"}}, {"uniqueid": "MTK0466:3FIJLY1B6VBY1P4MT1XFE38HE9BFPE", "current_trial": 83, "dateTime": 1510934891573, "trialdata": {"rt": -1, "stimulus": "<p id=\"stim\">5</p>", "key_press": -1, "trial_type": "single-stim", "trial_index": 83, "time_elapsed": 453390, "internal_node_id": "0.0-60.0-5.0"}}, {"uniqueid": "MTK0466:3FIJLY1B6VBY1P4MT1XFE38HE9BFPE", "current_trial": 84, "dateTime": 1510934892573, "trialdata": {"rt": -1, "stimulus": "<p id=\"stim\">4</p>", "key_press": -1, "trial_type": "single-stim", "trial_index": 84, "time_elapsed": 454390, "internal_node_id": "0.0-60.0-6.0"}}, {"uniqueid": "MTK0466:3FIJLY1B6VBY1P4MT1XFE38HE9BFPE", "current_trial": 85, "dateTime": 1510934893573, "trialdata": {"rt": -1, "stimulus": "<p id=\"stim\">3</p>", "key_press": -1, "trial_type": "single-stim", "trial_index": 85, "time_elapsed": 455390, "internal_node_id": "0.0-60.0-7.0"}}, {"uniqueid": "MTK0466:3FIJLY1B6VBY1P4MT1XFE38HE9BFPE", "current_trial": 86, "dateTime": 1510934894573, "trialdata": {"rt": -1, "stimulus": "<p id=\"stim\">2</p>", "key_press": -1, "trial_type": "single-stim", "trial_index": 86, "time_elapsed": 456390, "internal_node_id": "0.0-60.0-8.0"}}, {"uniqueid": "MTK0466:3FIJLY1B6VBY1P4MT1XFE38HE9BFPE", "current_trial": 87, "dateTime": 1510934895573, "trialdata": {"rt": -1, "stimulus": "<p id=\"stim\">1</p>", "key_press": -1, "trial_type": "single-stim", "trial_index": 87, "time_elapsed": 457390, "internal_node_id": "0.0-60.0-9.0"}}, {"uniqueid": "MTK0466:3FIJLY1B6VBY1P4MT1XFE38HE9BFPE", "current_trial": 88, "dateTime": 1510934897073, "trialdata": {"rt": -1, "stimulus": "<p id=\"stim\">+</p>", "key_press": -1, "type": "FIXATION", "trial_type": "single-stim", "trial_index": 88, "time_elapsed": 458890, "internal_node_id": "0.0-61.0-0.0"}}, {"uniqueid": "MTK0466:3FIJLY1B6VBY1P4MT1XFE38HE9BFPE", "current_trial": 89, "dateTime": 1510934899758, "trialdata": {"rt": -1000, "stimulus": "/static/audio/wordpool/MAPLE.wav", "key_press": -1, "type": "PRES_AUD", "word": "maple", "wordID": 865, "conditions": [12, 1600, "a", 12000], "trial": 2, "serialpos": 0, "trial_type": "single-audio", "trial_index": 89, "time_elapsed": 461575, "internal_node_id": "0.0-62.0"}}, {"uniqueid": "MTK0466:3FIJLY1B6VBY1P4MT1XFE38HE9BFPE", "current_trial": 90, "dateTime": 1510934902321, "trialdata": {"rt": -1000, "stimulus": "/static/audio/wordpool/TERMITE.wav", "key_press": -1, "type": "PRES_AUD", "word": "termite", "wordID": 1450, "conditions": [12, 1600, "a", 12000], "trial": 2, "serialpos": 1, "trial_type": "single-audio", "trial_index": 90, "time_elapsed": 464138, "internal_node_id": "0.0-63.0"}}, {"uniqueid": "MTK0466:3FIJLY1B6VBY1P4MT1XFE38HE9BFPE", "current_trial": 91, "dateTime": 1510934904723, "trialdata": {"rt": -1000, "stimulus": "/static/audio/wordpool/BOYFRIEND.wav", "key_press": -1, "type": "PRES_AUD", "word": "boyfriend", "wordID": 161, "conditions": [12, 1600, "a", 12000], "trial": 2, "serialpos": 2, "trial_type": "single-audio", "trial_index": 91, "time_elapsed": 466540, "internal_node_id": "0.0-64.0"}}, {"uniqueid": "MTK0466:3FIJLY1B6VBY1P4MT1XFE38HE9BFPE", "current_trial": 92, "dateTime": 1510934907438, "trialdata": {"rt": -1000, "stimulus": "/static/audio/wordpool/LILY.wav", "key_press": -1, "type": "PRES_AUD", "word": "lily", "wordID": 820, "conditions": [12, 1600, "a", 12000], "trial": 2, "serialpos": 3, "trial_type": "single-audio", "trial_index": 92, "time_elapsed": 469255, "internal_node_id": "0.0-65.0"}}, {"uniqueid": "MTK0466:3FIJLY1B6VBY1P4MT1XFE38HE9BFPE", "current_trial": 93, "dateTime": 1510934909945, "trialdata": {"rt": -1000, "stimulus": "/static/audio/wordpool/SHORTCAKE.wav", "key_press": -1, "type": "PRES_AUD", "word": "shortcake", "wordID": 1291, "conditions": [12, 1600, "a", 12000], "trial": 2, "serialpos": 4, "trial_type": "single-audio", "trial_index": 93, "time_elapsed": 471762, "internal_node_id": "0.0-66.0"}}, {"uniqueid": "MTK0466:3FIJLY1B6VBY1P4MT1XFE38HE9BFPE", "current_trial": 94, "dateTime": 1510934912498, "trialdata": {"rt": -1000, "stimulus": "/static/audio/wordpool/GIRL.wav", "key_press": -1, "type": "PRES_AUD", "word": "girl", "wordID": 636, "conditions": [12, 1600, "a", 12000], "trial": 2, "serialpos": 5, "trial_type": "single-audio", "trial_index": 94, "time_elapsed": 474315, "internal_node_id": "0.0-67.0"}}, {"uniqueid": "MTK0466:3FIJLY1B6VBY1P4MT1XFE38HE9BFPE", "current_trial": 95, "dateTime": 1510934915147, "trialdata": {"rt": -1000, "stimulus": "/static/audio/wordpool/FOOT.wav", "key_press": -1, "type": "PRES_AUD", "word": "foot", "wordID": 589, "conditions": [12, 1600, "a", 12000], "trial": 2, "serialpos": 6, "trial_type": "single-audio", "trial_index": 95, "time_elapsed": 476964, "internal_node_id": "0.0-68.0"}}, {"uniqueid": "MTK0466:3FIJLY1B6VBY1P4MT1XFE38HE9BFPE", "current_trial": 96, "dateTime": 1510934917729, "trialdata": {"rt": -1000, "stimulus": "/static/audio/wordpool/CUPBOARD.wav", "key_press": -1, "type": "PRES_AUD", "word": "cupboard", "wordID": 424, "conditions": [12, 1600, "a", 12000], "trial": 2, "serialpos": 7, "trial_type": "single-audio", "trial_index": 96, "time_elapsed": 479546, "internal_node_id": "0.0-69.0"}}, {"uniqueid": "MTK0466:3FIJLY1B6VBY1P4MT1XFE38HE9BFPE", "current_trial": 97, "dateTime": 1510934920156, "trialdata": {"rt": -1000, "stimulus": "/static/audio/wordpool/TRACTOR.wav", "key_press": -1, "type": "PRES_AUD", "word": "tractor", "wordID": 1492, "conditions": [12, 1600, "a", 12000], "trial": 2, "serialpos": 8, "trial_type": "single-audio", "trial_index": 97, "time_elapsed": 481973, "internal_node_id": "0.0-70.0"}}, {"uniqueid": "MTK0466:3FIJLY1B6VBY1P4MT1XFE38HE9BFPE", "current_trial": 98, "dateTime": 1510934922841, "trialdata": {"rt": -1000, "stimulus": "/static/audio/wordpool/POSSUM.wav", "key_press": -1, "type": "PRES_AUD", "word": "possum", "wordID": 1111, "conditions": [12, 1600, "a", 12000], "trial": 2, "serialpos": 9, "trial_type": "single-audio", "trial_index": 98, "time_elapsed": 484658, "internal_node_id": "0.0-71.0"}}, {"uniqueid": "MTK0466:3FIJLY1B6VBY1P4MT1XFE38HE9BFPE", "current_trial": 99, "dateTime": 1510934925273, "trialdata": {"rt": -1000, "stimulus": "/static/audio/wordpool/FOX.wav", "key_press": -1, "type": "PRES_AUD", "word": "fox", "wordID": 597, "conditions": [12, 1600, "a", 12000], "trial": 2, "serialpos": 10, "trial_type": "single-audio", "trial_index": 99, "time_elapsed": 487090, "internal_node_id": "0.0-72.0"}}, {"uniqueid": "MTK0466:3FIJLY1B6VBY1P4MT1XFE38HE9BFPE", "current_trial": 100, "dateTime": 1510934927793, "trialdata": {"rt": -1000, "stimulus": "/static/audio/wordpool/OZONE.wav", "key_press": -1, "type": "PRES_AUD", "word": "ozone", "wordID": 995, "conditions": [12, 1600, "a", 12000], "trial": 2, "serialpos": 11, "trial_type": "single-audio", "trial_index": 100, "time_elapsed": 489610, "internal_node_id": "0.0-73.0"}}, {"uniqueid": "MTK0466:3FIJLY1B6VBY1P4MT1XFE38HE9BFPE", "current_trial": 101, "dateTime": 1510934929005, "trialdata": {"rt": -1, "stimulus": "", "key_press": -1, "type": "PRE_RECALL_DELAY", "trial_type": "single-stim", "trial_index": 101, "time_elapsed": 490822, "internal_node_id": "0.0-74.0-0.0"}}, {"uniqueid": "MTK0466:3FIJLY1B6VBY1P4MT1XFE38HE9BFPE", "current_trial": 102, "dateTime": 1510934929505, "trialdata": {"rt": -1000, "stimulus": "/static/audio/400Hz.wav", "key_press": -1, "type": "PRE_RECALL_ALERT", "trial_type": "single-audio", "trial_index": 102, "time_elapsed": 491322, "internal_node_id": "0.0-75.0"}}, {"uniqueid": "MTK0466:3FIJLY1B6VBY1P4MT1XFE38HE9BFPE", "current_trial": 103, "dateTime": 1510934989506, "trialdata": {"rt": [1599, 3575, 4903, 6535, 7767, 9943, 11479, 23431, 27895, 55940, 57468], "recwords": ["fox", "possum", "ozone", "tractor", "foot", "boyfriend", "girl", "shortcake", "box", "maple", "termite"], "type": "FREE_RECALL", "conditions": [12, 1600, "a", 12000], "trial": 2, "trial_type": "free-recall", "trial_index": 103, "time_elapsed": 551321, "internal_node_id": "0.0-76.0-0.0"}}, {"uniqueid": "MTK0466:3FIJLY1B6VBY1P4MT1XFE38HE9BFPE", "current_trial": 104, "dateTime": 1510934992654, "trialdata": {"rt": 1148, "key_press": 32, "type": "INSTRUCTIONS", "trial_type": "text", "trial_index": 104, "time_elapsed": 554471, "internal_node_id": "0.0-77.0"}}, {"uniqueid": "MTK0466:3FIJLY1B6VBY1P4MT1XFE38HE9BFPE", "current_trial": 105, "dateTime": 1510935006656, "trialdata": {"rt": [2224, 4759, 6695, 8863, 10439, 11791], "responses": ["10", "26", "17", "9", "12", "5"], "num1": [2, 9, 9, 2, 4, 1, 8], "num2": [4, 8, 5, 3, 2, 1, 8], "num3": [4, 9, 3, 4, 6, 3, 9], "type": "DISTRACTOR", "conditions": [24, 800, "a", 12000], "trial": 3, "trial_type": "math-distractor", "trial_index": 105, "time_elapsed": 568472, "internal_node_id": "0.0-78.0"}}, {"uniqueid": "MTK0466:3FIJLY1B6VBY1P4MT1XFE38HE9BFPE", "current_trial": 106, "dateTime": 1510935009656, "trialdata": {"rt": -1, "stimulus": "<p id=\"stim\">10</p>", "key_press": -1, "trial_type": "single-stim", "trial_index": 106, "time_elapsed": 571473, "internal_node_id": "0.0-79.0-0.0"}}, {"uniqueid": "MTK0466:3FIJLY1B6VBY1P4MT1XFE38HE9BFPE", "current_trial": 107, "dateTime": 1510935010656, "trialdata": {"rt": -1, "stimulus": "<p id=\"stim\">9</p>", "key_press": -1, "trial_type": "single-stim", "trial_index": 107, "time_elapsed": 572473, "internal_node_id": "0.0-79.0-1.0"}}, {"uniqueid": "MTK0466:3FIJLY1B6VBY1P4MT1XFE38HE9BFPE", "current_trial": 108, "dateTime": 1510935011656, "trialdata": {"rt": -1, "stimulus": "<p id=\"stim\">8</p>", "key_press": -1, "trial_type": "single-stim", "trial_index": 108, "time_elapsed": 573473, "internal_node_id": "0.0-79.0-2.0"}}, {"uniqueid": "MTK0466:3FIJLY1B6VBY1P4MT1XFE38HE9BFPE", "current_trial": 109, "dateTime": 1510935012656, "trialdata": {"rt": -1, "stimulus": "<p id=\"stim\">7</p>", "key_press": -1, "trial_type": "single-stim", "trial_index": 109, "time_elapsed": 574473, "internal_node_id": "0.0-79.0-3.0"}}, {"uniqueid": "MTK0466:3FIJLY1B6VBY1P4MT1XFE38HE9BFPE", "current_trial": 110, "dateTime": 1510935013657, "trialdata": {"rt": -1, "stimulus": "<p id=\"stim\">6</p>", "key_press": -1, "trial_type": "single-stim", "trial_index": 110, "time_elapsed": 575474, "internal_node_id": "0.0-79.0-4.0"}}, {"uniqueid": "MTK0466:3FIJLY1B6VBY1P4MT1XFE38HE9BFPE", "current_trial": 111, "dateTime": 1510935014657, "trialdata": {"rt": -1, "stimulus": "<p id=\"stim\">5</p>", "key_press": -1, "trial_type": "single-stim", "trial_index": 111, "time_elapsed": 576474, "internal_node_id": "0.0-79.0-5.0"}}, {"uniqueid": "MTK0466:3FIJLY1B6VBY1P4MT1XFE38HE9BFPE", "current_trial": 112, "dateTime": 1510935015658, "trialdata": {"rt": -1, "stimulus": "<p id=\"stim\">4</p>", "key_press": -1, "trial_type": "single-stim", "trial_index": 112, "time_elapsed": 577475, "internal_node_id": "0.0-79.0-6.0"}}, {"uniqueid": "MTK0466:3FIJLY1B6VBY1P4MT1XFE38HE9BFPE", "current_trial": 113, "dateTime": 1510935016658, "trialdata": {"rt": -1, "stimulus": "<p id=\"stim\">3</p>", "key_press": -1, "trial_type": "single-stim", "trial_index": 113, "time_elapsed": 578475, "internal_node_id": "0.0-79.0-7.0"}}, {"uniqueid": "MTK0466:3FIJLY1B6VBY1P4MT1XFE38HE9BFPE", "current_trial": 114, "dateTime": 1510935017658, "trialdata": {"rt": -1, "stimulus": "<p id=\"stim\">2</p>", "key_press": -1, "trial_type": "single-stim", "trial_index": 114, "time_elapsed": 579475, "internal_node_id": "0.0-79.0-8.0"}}, {"uniqueid": "MTK0466:3FIJLY1B6VBY1P4MT1XFE38HE9BFPE", "current_trial": 115, "dateTime": 1510935018654, "trialdata": {"rt": -1, "stimulus": "<p id=\"stim\">1</p>", "key_press": -1, "trial_type": "single-stim", "trial_index": 115, "time_elapsed": 580471, "internal_node_id": "0.0-79.0-9.0"}}, {"uniqueid": "MTK0466:3FIJLY1B6VBY1P4MT1XFE38HE9BFPE", "current_trial": 116, "dateTime": 1510935020154, "trialdata": {"rt": -1, "stimulus": "<p id=\"stim\">+</p>", "key_press": -1, "type": "FIXATION", "trial_type": "single-stim", "trial_index": 116, "time_elapsed": 581971, "internal_node_id": "0.0-80.0-0.0"}}, {"uniqueid": "MTK0466:3FIJLY1B6VBY1P4MT1XFE38HE9BFPE", "current_trial": 117, "dateTime": 1510935022024, "trialdata": {"rt": -1000, "stimulus": "/static/audio/wordpool/CANYON.wav", "key_press": -1, "type": "PRES_AUD", "word": "canyon", "wordID": 234, "conditions": [24, 800, "a", 12000], "trial": 3, "serialpos": 0, "trial_type": "single-audio", "trial_index": 117, "time_elapsed": 583841, "internal_node_id": "0.0-81.0"}}, {"uniqueid": "MTK0466:3FIJLY1B6VBY1P4MT1XFE38HE9BFPE", "current_trial": 118, "dateTime": 1510935023794, "trialdata": {"rt": -1000, "stimulus": "/static/audio/wordpool/CRATER.wav", "key_press": -1, "type": "PRES_AUD", "word": "crater", "wordID": 399, "conditions": [24, 800, "a", 12000], "trial": 3, "serialpos": 1, "trial_type": "single-audio", "trial_index": 118, "time_elapsed": 585611, "internal_node_id": "0.0-82.0"}}, {"uniqueid": "MTK0466:3FIJLY1B6VBY1P4MT1XFE38HE9BFPE", "current_trial": 119, "dateTime": 1510935025434, "trialdata": {"rt": -1000, "stimulus": "/static/audio/wordpool/CANAL.wav", "key_press": -1, "type": "PRES_AUD", "word": "canal", "wordID": 225, "conditions": [24, 800, "a", 12000], "trial": 3, "serialpos": 2, "trial_type": "single-audio", "trial_index": 119, "time_elapsed": 587251, "internal_node_id": "0.0-83.0"}}, {"uniqueid": "MTK0466:3FIJLY1B6VBY1P4MT1XFE38HE9BFPE", "current_trial": 120, "dateTime": 1510935027167, "trialdata": {"rt": -1000, "stimulus": "/static/audio/wordpool/FRUIT.wav", "key_press": -1, "type": "PRES_AUD", "word": "fruit", "wordID": 609, "conditions": [24, 800, "a", 12000], "trial": 3, "serialpos": 3, "trial_type": "single-audio", "trial_index": 120, "time_elapsed": 588984, "internal_node_id": "0.0-84.0"}}, {"uniqueid": "MTK0466:3FIJLY1B6VBY1P4MT1XFE38HE9BFPE", "current_trial": 121, "dateTime": 1510935029034, "trialdata": {"rt": -1000, "stimulus": "/static/audio/wordpool/MATTRESS.wav", "key_press": -1, "type": "PRES_AUD", "word": "mattress", "wordID": 878, "conditions": [24, 800, "a", 12000], "trial": 3, "serialpos": 4, "trial_type": "single-audio", "trial_index": 121, "time_elapsed": 590851, "internal_node_id": "0.0-85.0"}}, {"uniqueid": "MTK0466:3FIJLY1B6VBY1P4MT1XFE38HE9BFPE", "current_trial": 122, "dateTime": 1510935030975, "trialdata": {"rt": -1000, "stimulus": "/static/audio/wordpool/TWEEZERS.wav", "key_press": -1, "type": "PRES_AUD", "word": "tweezers", "wordID": 1525, "conditions": [24, 800, "a", 12000], "trial": 3, "serialpos": 5, "trial_type": "single-audio", "trial_index": 122, "time_elapsed": 592792, "internal_node_id": "0.0-86.0"}}, {"uniqueid": "MTK0466:3FIJLY1B6VBY1P4MT1XFE38HE9BFPE", "current_trial": 123, "dateTime": 1510935032612, "trialdata": {"rt": -1000, "stimulus": "/static/audio/wordpool/PLIERS.wav", "key_press": -1, "type": "PRES_AUD", "word": "pliers", "wordID": 1088, "conditions": [24, 800, "a", 12000], "trial": 3, "serialpos": 6, "trial_type": "single-audio", "trial_index": 123, "time_elapsed": 594429, "internal_node_id": "0.0-87.0"}}, {"uniqueid": "MTK0466:3FIJLY1B6VBY1P4MT1XFE38HE9BFPE", "current_trial": 124, "dateTime": 1510935034219, "trialdata": {"rt": -1000, "stimulus": "/static/audio/wordpool/DENTIST.wav", "key_press": -1, "type": "PRES_AUD", "word": "dentist", "wordID": 446, "conditions": [24, 800, "a", 12000], "trial": 3, "serialpos": 7, "trial_type": "single-audio", "trial_index": 124, "time_elapsed": 596036, "internal_node_id": "0.0-88.0"}}, {"uniqueid": "MTK0466:3FIJLY1B6VBY1P4MT1XFE38HE9BFPE", "current_trial": 125, "dateTime": 1510935035885, "trialdata": {"rt": -1000, "stimulus": "/static/audio/wordpool/TUNNEL.wav", "key_press": -1, "type": "PRES_AUD", "word": "tunnel", "wordID": 1518, "conditions": [24, 800, "a", 12000], "trial": 3, "serialpos": 8, "trial_type": "single-audio", "trial_index": 125, "time_elapsed": 597702, "internal_node_id": "0.0-89.0"}}, {"uniqueid": "MTK0466:3FIJLY1B6VBY1P4MT1XFE38HE9BFPE", "current_trial": 126, "dateTime": 1510935037547, "trialdata": {"rt": -1000, "stimulus": "/static/audio/wordpool/APPLE.wav", "key_press": -1, "type": "PRES_AUD", "word": "apple", "wordID": 32, "conditions": [24, 800, "a", 12000], "trial": 3, "serialpos": 9, "trial_type": "single-audio", "trial_index": 126, "time_elapsed": 599364, "internal_node_id": "0.0-90.0"}}, {"uniqueid": "MTK0466:3FIJLY1B6VBY1P4MT1XFE38HE9BFPE", "current_trial": 127, "dateTime": 1510935039197, "trialdata": {"rt": -1000, "stimulus": "/static/audio/wordpool/FILM.wav", "key_press": -1, "type": "PRES_AUD", "word": "film", "wordID": 564, "conditions": [24, 800, "a", 12000], "trial": 3, "serialpos": 10, "trial_type": "single-audio", "trial_index": 127, "time_elapsed": 601014, "internal_node_id": "0.0-91.0"}}, {"uniqueid": "MTK0466:3FIJLY1B6VBY1P4MT1XFE38HE9BFPE", "current_trial": 128, "dateTime": 1510935041098, "trialdata": {"rt": -1000, "stimulus": "/static/audio/wordpool/RABBIT.wav", "key_press": -1, "type": "PRES_AUD", "word": "rabbit", "wordID": 1151, "conditions": [24, 800, "a", 12000], "trial": 3, "serialpos": 11, "trial_type": "single-audio", "trial_index": 128, "time_elapsed": 602915, "internal_node_id": "0.0-92.0"}}, {"uniqueid": "MTK0466:3FIJLY1B6VBY1P4MT1XFE38HE9BFPE", "current_trial": 129, "dateTime": 1510935042933, "trialdata": {"rt": -1000, "stimulus": "/static/audio/wordpool/CATTLE.wav", "key_press": -1, "type": "PRES_AUD", "word": "cattle", "wordID": 260, "conditions": [24, 800, "a", 12000], "trial": 3, "serialpos": 12, "trial_type": "single-audio", "trial_index": 129, "time_elapsed": 604750, "internal_node_id": "0.0-93.0"}}, {"uniqueid": "MTK0466:3FIJLY1B6VBY1P4MT1XFE38HE9BFPE", "current_trial": 130, "dateTime": 1510935044665, "trialdata": {"rt": -1000, "stimulus": "/static/audio/wordpool/HEADBAND.wav", "key_press": -1, "type": "PRES_AUD", "word": "headband", "wordID": 695, "conditions": [24, 800, "a", 12000], "trial": 3, "serialpos": 13, "trial_type": "single-audio", "trial_index": 130, "time_elapsed": 606482, "internal_node_id": "0.0-94.0"}}, {"uniqueid": "MTK0466:3FIJLY1B6VBY1P4MT1XFE38HE9BFPE", "current_trial": 131, "dateTime": 1510935046517, "trialdata": {"rt": -1000, "stimulus": "/static/audio/wordpool/NOTEBOOK.wav", "key_press": -1, "type": "PRES_AUD", "word": "notebook", "wordID": 958, "conditions": [24, 800, "a", 12000], "trial": 3, "serialpos": 14, "trial_type": "single-audio", "trial_index": 131, "time_elapsed": 608334, "internal_node_id": "0.0-95.0"}}, {"uniqueid": "MTK0466:3FIJLY1B6VBY1P4MT1XFE38HE9BFPE", "current_trial": 132, "dateTime": 1510935048185, "trialdata": {"rt": -1000, "stimulus": "/static/audio/wordpool/OUTLAW.wav", "key_press": -1, "type": "PRES_AUD", "word": "outlaw", "wordID": 988, "conditions": [24, 800, "a", 12000], "trial": 3, "serialpos": 15, "trial_type": "single-audio", "trial_index": 132, "time_elapsed": 610002, "internal_node_id": "0.0-96.0"}}, {"uniqueid": "MTK0466:3FIJLY1B6VBY1P4MT1XFE38HE9BFPE", "current_trial": 133, "dateTime": 1510935050173, "trialdata": {"rt": -1000, "stimulus": "/static/audio/wordpool/WOMAN.wav", "key_press": -1, "type": "PRES_AUD", "word": "woman", "wordID": 1619, "conditions": [24, 800, "a", 12000], "trial": 3, "serialpos": 16, "trial_type": "single-audio", "trial_index": 133, "time_elapsed": 611990, "internal_node_id": "0.0-97.0"}}, {"uniqueid": "MTK0466:3FIJLY1B6VBY1P4MT1XFE38HE9BFPE", "current_trial": 134, "dateTime": 1510935052096, "trialdata": {"rt": -1000, "stimulus": "/static/audio/wordpool/MACHINE.wav", "key_press": -1, "type": "PRES_AUD", "word": "machine", "wordID": 851, "conditions": [24, 800, "a", 12000], "trial": 3, "serialpos": 17, "trial_type": "single-audio", "trial_index": 134, "time_elapsed": 613913, "internal_node_id": "0.0-98.0"}}, {"uniqueid": "MTK0466:3FIJLY1B6VBY1P4MT1XFE38HE9BFPE", "current_trial": 135, "dateTime": 1510935053840, "trialdata": {"rt": -1000, "stimulus": "/static/audio/wordpool/SHOULDER.wav", "key_press": -1, "type": "PRES_AUD", "word": "shoulder", "wordID": 1293, "conditions": [24, 800, "a", 12000], "trial": 3, "serialpos": 18, "trial_type": "single-audio", "trial_index": 135, "time_elapsed": 615657, "internal_node_id": "0.0-99.0"}}, {"uniqueid": "MTK0466:3FIJLY1B6VBY1P4MT1XFE38HE9BFPE", "current_trial": 136, "dateTime": 1510935055480, "trialdata": {"rt": -1000, "stimulus": "/static/audio/wordpool/WRIST.wav", "key_press": -1, "type": "PRES_AUD", "word": "wrist", "wordID": 1625, "conditions": [24, 800, "a", 12000], "trial": 3, "serialpos": 19, "trial_type": "single-audio", "trial_index": 136, "time_elapsed": 617297, "internal_node_id": "0.0-100.0"}}, {"uniqueid": "MTK0466:3FIJLY1B6VBY1P4MT1XFE38HE9BFPE", "current_trial": 137, "dateTime": 1510935057413, "trialdata": {"rt": -1000, "stimulus": "/static/audio/wordpool/TART.wav", "key_press": -1, "type": "PRES_AUD", "word": "tart", "wordID": 1435, "conditions": [24, 800, "a", 12000], "trial": 3, "serialpos": 20, "trial_type": "single-audio", "trial_index": 137, "time_elapsed": 619230, "internal_node_id": "0.0-101.0"}}, {"uniqueid": "MTK0466:3FIJLY1B6VBY1P4MT1XFE38HE9BFPE", "current_trial": 138, "dateTime": 1510935059329, "trialdata": {"rt": -1000, "stimulus": "/static/audio/wordpool/PLASTER.wav", "key_press": -1, "type": "PRES_AUD", "word": "plaster", "wordID": 1084, "conditions": [24, 800, "a", 12000], "trial": 3, "serialpos": 21, "trial_type": "single-audio", "trial_index": 138, "time_elapsed": 621146, "internal_node_id": "0.0-102.0"}}, {"uniqueid": "MTK0466:3FIJLY1B6VBY1P4MT1XFE38HE9BFPE", "current_trial": 139, "dateTime": 1510935061279, "trialdata": {"rt": -1000, "stimulus": "/static/audio/wordpool/SHRUB.wav", "key_press": -1, "type": "PRES_AUD", "word": "shrub", "wordID": 1298, "conditions": [24, 800, "a", 12000], "trial": 3, "serialpos": 22, "trial_type": "single-audio", "trial_index": 139, "time_elapsed": 623096, "internal_node_id": "0.0-103.0"}}, {"uniqueid": "MTK0466:3FIJLY1B6VBY1P4MT1XFE38HE9BFPE", "current_trial": 140, "dateTime": 1510935063210, "trialdata": {"rt": -1000, "stimulus": "/static/audio/wordpool/LADY.wav", "key_press": -1, "type": "PRES_AUD", "word": "lady", "wordID": 793, "conditions": [24, 800, "a", 12000], "trial": 3, "serialpos": 23, "trial_type": "single-audio", "trial_index": 140, "time_elapsed": 625027, "internal_node_id": "0.0-104.0"}}, {"uniqueid": "MTK0466:3FIJLY1B6VBY1P4MT1XFE38HE9BFPE", "current_trial": 141, "dateTime": 1510935064505, "trialdata": {"rt": -1, "stimulus": "", "key_press": -1, "type": "PRE_RECALL_DELAY", "trial_type": "single-stim", "trial_index": 141, "time_elapsed": 626322, "internal_node_id": "0.0-105.0-0.0"}}, {"uniqueid": "MTK0466:3FIJLY1B6VBY1P4MT1XFE38HE9BFPE", "current_trial": 142, "dateTime": 1510935065005, "trialdata": {"rt": -1000, "stimulus": "/static/audio/400Hz.wav", "key_press": -1, "type": "PRE_RECALL_ALERT", "trial_type": "single-audio", "trial_index": 142, "time_elapsed": 626822, "internal_node_id": "0.0-106.0"}}, {"uniqueid": "MTK0466:3FIJLY1B6VBY1P4MT1XFE38HE9BFPE", "current_trial": 143, "dateTime": 1510935125012, "trialdata": {"rt": [1796, 3116, 5276, 7068, 8844, 10316, 14758, 17206, 27446, 31310, 35686, 37174, 38878], "recwords": ["lady", "shrub", "outlaw", "canyon", "crater", "dentist", "cattle", "rabbit", "woman", "machine", "notebook", "wrist", "shoulder"], "type": "FREE_RECALL", "conditions": [24, 800, "a", 12000], "trial": 3, "trial_type": "free-recall", "trial_index": 143, "time_elapsed": 686825, "internal_node_id": "0.0-107.0-0.0"}}, {"uniqueid": "MTK0466:3FIJLY1B6VBY1P4MT1XFE38HE9BFPE", "current_trial": 144, "dateTime": 1510935127845, "trialdata": {"rt": 832, "key_press": 32, "type": "INSTRUCTIONS", "trial_type": "text", "trial_index": 144, "time_elapsed": 689661, "internal_node_id": "0.0-108.0"}}, {"uniqueid": "MTK0466:3FIJLY1B6VBY1P4MT1XFE38HE9BFPE", "current_trial": 145, "dateTime": 1510935153849, "trialdata": {"rt": [1590, 3198, 5261, 7782, 10944, 12800, 15304, 18224, 20112, 21999], "responses": ["9", "13", "8", "15", "19", "14", "22", "19", "18", "16"], "num1": [2, 8, 1, 4, 3, 8, 5, 8, 8, 5, 7], "num2": [6, 1, 3, 9, 8, 3, 9, 4, 8, 7, 3], "num3": [1, 4, 5, 4, 8, 3, 8, 7, 2, 3, 6], "type": "DISTRACTOR", "conditions": [24, 800, "v", 24000], "trial": 4, "trial_type": "math-distractor", "trial_index": 145, "time_elapsed": 715666, "internal_node_id": "0.0-109.0"}}, {"uniqueid": "MTK0466:3FIJLY1B6VBY1P4MT1XFE38HE9BFPE", "current_trial": 146, "dateTime": 1510935156849, "trialdata": {"rt": -1, "stimulus": "<p id=\"stim\">10</p>", "key_press": -1, "trial_type": "single-stim", "trial_index": 146, "time_elapsed": 718666, "internal_node_id": "0.0-110.0-0.0"}}, {"uniqueid": "MTK0466:3FIJLY1B6VBY1P4MT1XFE38HE9BFPE", "current_trial": 147, "dateTime": 1510935157849, "trialdata": {"rt": -1, "stimulus": "<p id=\"stim\">9</p>", "key_press": -1, "trial_type": "single-stim", "trial_index": 147, "time_elapsed": 719666, "internal_node_id": "0.0-110.0-1.0"}}, {"uniqueid": "MTK0466:3FIJLY1B6VBY1P4MT1XFE38HE9BFPE", "current_trial": 148, "dateTime": 1510935158849, "trialdata": {"rt": -1, "stimulus": "<p id=\"stim\">8</p>", "key_press": -1, "trial_type": "single-stim", "trial_index": 148, "time_elapsed": 720666, "internal_node_id": "0.0-110.0-2.0"}}, {"uniqueid": "MTK0466:3FIJLY1B6VBY1P4MT1XFE38HE9BFPE", "current_trial": 149, "dateTime": 1510935159849, "trialdata": {"rt": -1, "stimulus": "<p id=\"stim\">7</p>", "key_press": -1, "trial_type": "single-stim", "trial_index": 149, "time_elapsed": 721666, "internal_node_id": "0.0-110.0-3.0"}}, {"uniqueid": "MTK0466:3FIJLY1B6VBY1P4MT1XFE38HE9BFPE", "current_trial": 150, "dateTime": 1510935160849, "trialdata": {"rt": -1, "stimulus": "<p id=\"stim\">6</p>", "key_press": -1, "trial_type": "single-stim", "trial_index": 150, "time_elapsed": 722666, "internal_node_id": "0.0-110.0-4.0"}}, {"uniqueid": "MTK0466:3FIJLY1B6VBY1P4MT1XFE38HE9BFPE", "current_trial": 151, "dateTime": 1510935161849, "trialdata": {"rt": -1, "stimulus": "<p id=\"stim\">5</p>", "key_press": -1, "trial_type": "single-stim", "trial_index": 151, "time_elapsed": 723666, "internal_node_id": "0.0-110.0-5.0"}}, {"uniqueid": "MTK0466:3FIJLY1B6VBY1P4MT1XFE38HE9BFPE", "current_trial": 152, "dateTime": 1510935162849, "trialdata": {"rt": -1, "stimulus": "<p id=\"stim\">4</p>", "key_press": -1, "trial_type": "single-stim", "trial_index": 152, "time_elapsed": 724666, "internal_node_id": "0.0-110.0-6.0"}}, {"uniqueid": "MTK0466:3FIJLY1B6VBY1P4MT1XFE38HE9BFPE", "current_trial": 153, "dateTime": 1510935163849, "trialdata": {"rt": -1, "stimulus": "<p id=\"stim\">3</p>", "key_press": -1, "trial_type": "single-stim", "trial_index": 153, "time_elapsed": 725666, "internal_node_id": "0.0-110.0-7.0"}}, {"uniqueid": "MTK0466:3FIJLY1B6VBY1P4MT1XFE38HE9BFPE", "current_trial": 154, "dateTime": 1510935164849, "trialdata": {"rt": -1, "stimulus": "<p id=\"stim\">2</p>", "key_press": -1, "trial_type": "single-stim", "trial_index": 154, "time_elapsed": 726666, "internal_node_id": "0.0-110.0-8.0"}}, {"uniqueid": "MTK0466:3FIJLY1B6VBY1P4MT1XFE38HE9BFPE", "current_trial": 155, "dateTime": 1510935165849, "trialdata": {"rt": -1, "stimulus": "<p id=\"stim\">1</p>", "key_press": -1, "trial_type": "single-stim", "trial_index": 155, "time_elapsed": 727666, "internal_node_id": "0.0-110.0-9.0"}}, {"uniqueid": "MTK0466:3FIJLY1B6VBY1P4MT1XFE38HE9BFPE", "current_trial": 156, "dateTime": 1510935167349, "trialdata": {"rt": -1, "stimulus": "<p id=\"stim\">+</p>", "key_press": -1, "type": "FIXATION", "trial_type": "single-stim", "trial_index": 156, "time_elapsed": 729166, "internal_node_id": "0.0-111.0-0.0"}}, {"uniqueid": "MTK0466:3FIJLY1B6VBY1P4MT1XFE38HE9BFPE", "current_trial": 157, "dateTime": 1510935168149, "trialdata": {"rt": -1, "stimulus": "<p id=\"stim\">STOMACH</p>", "key_press": -1, "type": "PRES_VIS", "word": "stomach", "wordID": 1383, "conditions": [24, 800, "v", 24000], "trial": 4, "serialpos": 0, "trial_type": "single-stim", "trial_index": 157, "time_elapsed": 729966, "internal_node_id": "0.0-112.0"}}, {"uniqueid": "MTK0466:3FIJLY1B6VBY1P4MT1XFE38HE9BFPE", "current_trial": 158, "dateTime": 1510935169852, "trialdata": {"rt": -1, "stimulus": "<p id=\"stim\">BEEF</p>", "key_press": -1, "type": "PRES_VIS", "word": "beef", "wordID": 112, "conditions": [24, 800, "v", 24000], "trial": 4, "serialpos": 1, "trial_type": "single-stim", "trial_index": 158, "time_elapsed": 731669, "internal_node_id": "0.0-113.0"}}, {"uniqueid": "MTK0466:3FIJLY1B6VBY1P4MT1XFE38HE9BFPE", "current_trial": 159, "dateTime": 1510935171678, "trialdata": {"rt": -1, "stimulus": "<p id=\"stim\">GRAPE</p>", "key_press": -1, "type": "PRES_VIS", "word": "grape", "wordID": 653, "conditions": [24, 800, "v", 24000], "trial": 4, "serialpos": 2, "trial_type": "single-stim", "trial_index": 159, "time_elapsed": 733495, "internal_node_id": "0.0-114.0"}}, {"uniqueid": "MTK0466:3FIJLY1B6VBY1P4MT1XFE38HE9BFPE", "current_trial": 160, "dateTime": 1510935173361, "trialdata": {"rt": -1, "stimulus": "<p id=\"stim\">LION</p>", "key_press": -1, "type": "PRES_VIS", "word": "lion", "wordID": 826, "conditions": [24, 800, "v", 24000], "trial": 4, "serialpos": 3, "trial_type": "single-stim", "trial_index": 160, "time_elapsed": 735178, "internal_node_id": "0.0-115.0"}}, {"uniqueid": "MTK0466:3FIJLY1B6VBY1P4MT1XFE38HE9BFPE", "current_trial": 161, "dateTime": 1510935174990, "trialdata": {"rt": -1, "stimulus": "<p id=\"stim\">GARDEN</p>", "key_press": -1, "type": "PRES_VIS", "word": "garden", "wordID": 622, "conditions": [24, 800, "v", 24000], "trial": 4, "serialpos": 4, "trial_type": "single-stim", "trial_index": 161, "time_elapsed": 736807, "internal_node_id": "0.0-116.0"}}, {"uniqueid": "MTK0466:3FIJLY1B6VBY1P4MT1XFE38HE9BFPE", "current_trial": 162, "dateTime": 1510935176805, "trialdata": {"rt": -1, "stimulus": "<p id=\"stim\">BACON</p>", "key_press": -1, "type": "PRES_VIS", "word": "bacon", "wordID": 66, "conditions": [24, 800, "v", 24000], "trial": 4, "serialpos": 5, "trial_type": "single-stim", "trial_index": 162, "time_elapsed": 738622, "internal_node_id": "0.0-117.0"}}, {"uniqueid": "MTK0466:3FIJLY1B6VBY1P4MT1XFE38HE9BFPE", "current_trial": 163, "dateTime": 1510935178625, "trialdata": {"rt": -1, "stimulus": "<p id=\"stim\">SANDWICH</p>", "key_press": -1, "type": "PRES_VIS", "word": "sandwich", "wordID": 1231, "conditions": [24, 800, "v", 24000], "trial": 4, "serialpos": 6, "trial_type": "single-stim", "trial_index": 163, "time_elapsed": 740442, "internal_node_id": "0.0-118.0"}}, {"uniqueid": "MTK0466:3FIJLY1B6VBY1P4MT1XFE38HE9BFPE", "current_trial": 164, "dateTime": 1510935180421, "trialdata": {"rt": -1, "stimulus": "<p id=\"stim\">CHEST</p>", "key_press": -1, "type": "PRES_VIS", "word": "chest", "wordID": 294, "conditions": [24, 800, "v", 24000], "trial": 4, "serialpos": 7, "trial_type": "single-stim", "trial_index": 164, "time_elapsed": 742238, "internal_node_id": "0.0-119.0"}}, {"uniqueid": "MTK0466:3FIJLY1B6VBY1P4MT1XFE38HE9BFPE", "current_trial": 165, "dateTime": 1510935182294, "trialdata": {"rt": -1, "stimulus": "<p id=\"stim\">SODA</p>", "key_press": -1, "type": "PRES_VIS", "word": "soda", "wordID": 1340, "conditions": [24, 800, "v", 24000], "trial": 4, "serialpos": 8, "trial_type": "single-stim", "trial_index": 165, "time_elapsed": 744111, "internal_node_id": "0.0-120.0"}}, {"uniqueid": "MTK0466:3FIJLY1B6VBY1P4MT1XFE38HE9BFPE", "current_trial": 166, "dateTime": 1510935183992, "trialdata": {"rt": -1, "stimulus": "<p id=\"stim\">TUTU</p>", "key_press": -1, "type": "PRES_VIS", "word": "tutu", "wordID": 1523, "conditions": [24, 800, "v", 24000], "trial": 4, "serialpos": 9, "trial_type": "single-stim", "trial_index": 166, "time_elapsed": 745809, "internal_node_id": "0.0-121.0"}}, {"uniqueid": "MTK0466:3FIJLY1B6VBY1P4MT1XFE38HE9BFPE", "current_trial": 167, "dateTime": 1510935185920, "trialdata": {"rt": -1, "stimulus": "<p id=\"stim\">DONOR</p>", "key_press": -1, "type": "PRES_VIS", "word": "donor", "wordID": 484, "conditions": [24, 800, "v", 24000], "trial": 4, "serialpos": 10, "trial_type": "single-stim", "trial_index": 167, "time_elapsed": 747737, "internal_node_id": "0.0-122.0"}}, {"uniqueid": "MTK0466:3FIJLY1B6VBY1P4MT1XFE38HE9BFPE", "current_trial": 168, "dateTime": 1510935187854, "trialdata": {"rt": -1, "stimulus": "<p id=\"stim\">AUTHOR</p>", "key_press": -1, "type": "PRES_VIS", "word": "author", "wordID": 60, "conditions": [24, 800, "v", 24000], "trial": 4, "serialpos": 11, "trial_type": "single-stim", "trial_index": 168, "time_elapsed": 749671, "internal_node_id": "0.0-123.0"}}, {"uniqueid": "MTK0466:3FIJLY1B6VBY1P4MT1XFE38HE9BFPE", "current_trial": 169, "dateTime": 1510935189763, "trialdata": {"rt": -1, "stimulus": "<p id=\"stim\">ROBOT</p>", "key_press": -1, "type": "PRES_VIS", "word": "robot", "wordID": 1199, "conditions": [24, 800, "v", 24000], "trial": 4, "serialpos": 12, "trial_type": "single-stim", "trial_index": 169, "time_elapsed": 751579, "internal_node_id": "0.0-124.0"}}, {"uniqueid": "MTK0466:3FIJLY1B6VBY1P4MT1XFE38HE9BFPE", "current_trial": 170, "dateTime": 1510935191561, "trialdata": {"rt": -1, "stimulus": "<p id=\"stim\">BANK</p>", "key_press": -1, "type": "PRES_VIS", "word": "bank", "wordID": 82, "conditions": [24, 800, "v", 24000], "trial": 4, "serialpos": 13, "trial_type": "single-stim", "trial_index": 170, "time_elapsed": 753378, "internal_node_id": "0.0-125.0"}}, {"uniqueid": "MTK0466:3FIJLY1B6VBY1P4MT1XFE38HE9BFPE", "current_trial": 171, "dateTime": 1510935193485, "trialdata": {"rt": -1, "stimulus": "<p id=\"stim\">BANKER</p>", "key_press": -1, "type": "PRES_VIS", "word": "banker", "wordID": 83, "conditions": [24, 800, "v", 24000], "trial": 4, "serialpos": 14, "trial_type": "single-stim", "trial_index": 171, "time_elapsed": 755302, "internal_node_id": "0.0-126.0"}}, {"uniqueid": "MTK0466:3FIJLY1B6VBY1P4MT1XFE38HE9BFPE", "current_trial": 172, "dateTime": 1510935195284, "trialdata": {"rt": -1, "stimulus": "<p id=\"stim\">STOVE</p>", "key_press": -1, "type": "PRES_VIS", "word": "stove", "wordID": 1387, "conditions": [24, 800, "v", 24000], "trial": 4, "serialpos": 15, "trial_type": "single-stim", "trial_index": 172, "time_elapsed": 757101, "internal_node_id": "0.0-127.0"}}, {"uniqueid": "MTK0466:3FIJLY1B6VBY1P4MT1XFE38HE9BFPE", "current_trial": 173, "dateTime": 1510935197247, "trialdata": {"rt": -1, "stimulus": "<p id=\"stim\">MOTEL</p>", "key_press": -1, "type": "PRES_VIS", "word": "motel", "wordID": 918, "conditions": [24, 800, "v", 24000], "trial": 4, "serialpos": 16, "trial_type": "single-stim", "trial_index": 173, "time_elapsed": 759064, "internal_node_id": "0.0-128.0"}}, {"uniqueid": "MTK0466:3FIJLY1B6VBY1P4MT1XFE38HE9BFPE", "current_trial": 174, "dateTime": 1510935199164, "trialdata": {"rt": -1, "stimulus": "<p id=\"stim\">SHOVEL</p>", "key_press": -1, "type": "PRES_VIS", "word": "shovel", "wordID": 1294, "conditions": [24, 800, "v", 24000], "trial": 4, "serialpos": 17, "trial_type": "single-stim", "trial_index": 174, "time_elapsed": 760981, "internal_node_id": "0.0-129.0"}}, {"uniqueid": "MTK0466:3FIJLY1B6VBY1P4MT1XFE38HE9BFPE", "current_trial": 175, "dateTime": 1510935201115, "trialdata": {"rt": -1, "stimulus": "<p id=\"stim\">PARROT</p>", "key_press": -1, "type": "PRES_VIS", "word": "parrot", "wordID": 1014, "conditions": [24, 800, "v", 24000], "trial": 4, "serialpos": 18, "trial_type": "single-stim", "trial_index": 175, "time_elapsed": 762932, "internal_node_id": "0.0-130.0"}}, {"uniqueid": "MTK0466:3FIJLY1B6VBY1P4MT1XFE38HE9BFPE", "current_trial": 176, "dateTime": 1510935203094, "trialdata": {"rt": -1, "stimulus": "<p id=\"stim\">GOBLIN</p>", "key_press": -1, "type": "PRES_VIS", "word": "goblin", "wordID": 644, "conditions": [24, 800, "v", 24000], "trial": 4, "serialpos": 19, "trial_type": "single-stim", "trial_index": 176, "time_elapsed": 764911, "internal_node_id": "0.0-131.0"}}, {"uniqueid": "MTK0466:3FIJLY1B6VBY1P4MT1XFE38HE9BFPE", "current_trial": 177, "dateTime": 1510935205078, "trialdata": {"rt": -1, "stimulus": "<p id=\"stim\">REBEL</p>", "key_press": -1, "type": "PRES_VIS", "word": "rebel", "wordID": 1171, "conditions": [24, 800, "v", 24000], "trial": 4, "serialpos": 20, "trial_type": "single-stim", "trial_index": 177, "time_elapsed": 766895, "internal_node_id": "0.0-132.0"}}, {"uniqueid": "MTK0466:3FIJLY1B6VBY1P4MT1XFE38HE9BFPE", "current_trial": 178, "dateTime": 1510935207058, "trialdata": {"rt": -1, "stimulus": "<p id=\"stim\">DRAGON</p>", "key_press": -1, "type": "PRES_VIS", "word": "dragon", "wordID": 491, "conditions": [24, 800, "v", 24000], "trial": 4, "serialpos": 21, "trial_type": "single-stim", "trial_index": 178, "time_elapsed": 768875, "internal_node_id": "0.0-133.0"}}, {"uniqueid": "MTK0466:3FIJLY1B6VBY1P4MT1XFE38HE9BFPE", "current_trial": 179, "dateTime": 1510935208922, "trialdata": {"rt": -1, "stimulus": "<p id=\"stim\">ROOSTER</p>", "key_press": -1, "type": "PRES_VIS", "word": "rooster", "wordID": 1208, "conditions": [24, 800, "v", 24000], "trial": 4, "serialpos": 22, "trial_type": "single-stim", "trial_index": 179, "time_elapsed": 770739, "internal_node_id": "0.0-134.0"}}, {"uniqueid": "MTK0466:3FIJLY1B6VBY1P4MT1XFE38HE9BFPE", "current_trial": 180, "dateTime": 1510935210545, "trialdata": {"rt": -1, "stimulus": "<p id=\"stim\">NURSE</p>", "key_press": -1, "type": "PRES_VIS", "word": "nurse", "wordID": 962, "conditions": [24, 800, "v", 24000], "trial": 4, "serialpos": 23, "trial_type": "single-stim", "trial_index": 180, "time_elapsed": 772362, "internal_node_id": "0.0-135.0"}}, {"uniqueid": "MTK0466:3FIJLY1B6VBY1P4MT1XFE38HE9BFPE", "current_trial": 181, "dateTime": 1510935212706, "trialdata": {"rt": -1, "stimulus": "", "key_press": -1, "type": "PRE_RECALL_DELAY", "trial_type": "single-stim", "trial_index": 181, "time_elapsed": 774523, "internal_node_id": "0.0-136.0-0.0"}}, {"uniqueid": "MTK0466:3FIJLY1B6VBY1P4MT1XFE38HE9BFPE", "current_trial": 182, "dateTime": 1510935213206, "trialdata": {"rt": -1000, "stimulus": "/static/audio/400Hz.wav", "key_press": -1, "type": "PRE_RECALL_ALERT", "trial_type": "single-audio", "trial_index": 182, "time_elapsed": 775023, "internal_node_id": "0.0-137.0"}}, {"uniqueid": "MTK0466:3FIJLY1B6VBY1P4MT1XFE38HE9BFPE", "current_trial": 183, "dateTime": 1510935273214, "trialdata": {"rt": [2626, 4274, 5626, 7698, 10227, 18914, 20570, 24858, 26546, 27970, 31698, 44761, 49485], "recwords": ["goblin", "dragon", "lion", "rooster", "rebel", "stomach", "grape", "food", "soda", "chest", "tutu", "shovel", "beef"], "type": "FREE_RECALL", "conditions": [24, 800, "v", 24000], "trial": 4, "trial_type": "free-recall", "trial_index": 183, "time_elapsed": 835028, "internal_node_id": "0.0-138.0-0.0"}}, {"uniqueid": "MTK0466:3FIJLY1B6VBY1P4MT1XFE38HE9BFPE", "current_trial": 184, "dateTime": 1510935275950, "trialdata": {"rt": 734, "key_press": 32, "type": "INSTRUCTIONS", "trial_type": "text", "trial_index": 184, "time_elapsed": 837767, "internal_node_id": "0.0-139.0"}}, {"uniqueid": "MTK0466:3FIJLY1B6VBY1P4MT1XFE38HE9BFPE", "current_trial": 185, "dateTime": 1510935301952, "trialdata": {"rt": [2637, 4125, 5509, 7317, 9045, 10613, 12309, 15725, 17269, 19133, 21109, 22509], "responses": ["16", "17", "11", "21", "15", "12", "21", "24", "10", "9", "18", "15"], "num1": [2, 5, 1, 8, 3, 1, 8, 9, 1, 1, 1, 5, 8], "num2": [9, 5, 3, 4, 8, 2, 5, 7, 8, 6, 8, 5, 4], "num3": [5, 7, 7, 9, 4, 9, 8, 8, 1, 2, 9, 5, 7], "type": "DISTRACTOR", "conditions": [12, 800, "a", 24000], "trial": 5, "trial_type": "math-distractor", "trial_index": 185, "time_elapsed": 863768, "internal_node_id": "0.0-140.0"}}, {"uniqueid": "MTK0466:3FIJLY1B6VBY1P4MT1XFE38HE9BFPE", "current_trial": 186, "dateTime": 1510935304952, "trialdata": {"rt": -1, "stimulus": "<p id=\"stim\">10</p>", "key_press": -1, "trial_type": "single-stim", "trial_index": 186, "time_elapsed": 866769, "internal_node_id": "0.0-141.0-0.0"}}, {"uniqueid": "MTK0466:3FIJLY1B6VBY1P4MT1XFE38HE9BFPE", "current_trial": 187, "dateTime": 1510935305952, "trialdata": {"rt": -1, "stimulus": "<p id=\"stim\">9</p>", "key_press": -1, "trial_type": "single-stim", "trial_index": 187, "time_elapsed": 867769, "internal_node_id": "0.0-141.0-1.0"}}, {"uniqueid": "MTK0466:3FIJLY1B6VBY1P4MT1XFE38HE9BFPE", "current_trial": 188, "dateTime": 1510935306952, "trialdata": {"rt": -1, "stimulus": "<p id=\"stim\">8</p>", "key_press": -1, "trial_type": "single-stim", "trial_index": 188, "time_elapsed": 868769, "internal_node_id": "0.0-141.0-2.0"}}, {"uniqueid": "MTK0466:3FIJLY1B6VBY1P4MT1XFE38HE9BFPE", "current_trial": 189, "dateTime": 1510935307953, "trialdata": {"rt": -1, "stimulus": "<p id=\"stim\">7</p>", "key_press": -1, "trial_type": "single-stim", "trial_index": 189, "time_elapsed": 869770, "internal_node_id": "0.0-141.0-3.0"}}, {"uniqueid": "MTK0466:3FIJLY1B6VBY1P4MT1XFE38HE9BFPE", "current_trial": 190, "dateTime": 1510935308953, "trialdata": {"rt": -1, "stimulus": "<p id=\"stim\">6</p>", "key_press": -1, "trial_type": "single-stim", "trial_index": 190, "time_elapsed": 870770, "internal_node_id": "0.0-141.0-4.0"}}, {"uniqueid": "MTK0466:3FIJLY1B6VBY1P4MT1XFE38HE9BFPE", "current_trial": 191, "dateTime": 1510935309955, "trialdata": {"rt": -1, "stimulus": "<p id=\"stim\">5</p>", "key_press": -1, "trial_type": "single-stim", "trial_index": 191, "time_elapsed": 871772, "internal_node_id": "0.0-141.0-5.0"}}, {"uniqueid": "MTK0466:3FIJLY1B6VBY1P4MT1XFE38HE9BFPE", "current_trial": 192, "dateTime": 1510935310956, "trialdata": {"rt": -1, "stimulus": "<p id=\"stim\">4</p>", "key_press": -1, "trial_type": "single-stim", "trial_index": 192, "time_elapsed": 872773, "internal_node_id": "0.0-141.0-6.0"}}, {"uniqueid": "MTK0466:3FIJLY1B6VBY1P4MT1XFE38HE9BFPE", "current_trial": 193, "dateTime": 1510935311956, "trialdata": {"rt": -1, "stimulus": "<p id=\"stim\">3</p>", "key_press": -1, "trial_type": "single-stim", "trial_index": 193, "time_elapsed": 873773, "internal_node_id": "0.0-141.0-7.0"}}, {"uniqueid": "MTK0466:3FIJLY1B6VBY1P4MT1XFE38HE9BFPE", "current_trial": 194, "dateTime": 1510935312956, "trialdata": {"rt": -1, "stimulus": "<p id=\"stim\">2</p>", "key_press": -1, "trial_type": "single-stim", "trial_index": 194, "time_elapsed": 874773, "internal_node_id": "0.0-141.0-8.0"}}, {"uniqueid": "MTK0466:3FIJLY1B6VBY1P4MT1XFE38HE9BFPE", "current_trial": 195, "dateTime": 1510935313956, "trialdata": {"rt": -1, "stimulus": "<p id=\"stim\">1</p>", "key_press": -1, "trial_type": "single-stim", "trial_index": 195, "time_elapsed": 875773, "internal_node_id": "0.0-141.0-9.0"}}, {"uniqueid": "MTK0466:3FIJLY1B6VBY1P4MT1XFE38HE9BFPE", "current_trial": 196, "dateTime": 1510935315456, "trialdata": {"rt": -1, "stimulus": "<p id=\"stim\">+</p>", "key_press": -1, "type": "FIXATION", "trial_type": "single-stim", "trial_index": 196, "time_elapsed": 877273, "internal_node_id": "0.0-142.0-0.0"}}, {"uniqueid": "MTK0466:3FIJLY1B6VBY1P4MT1XFE38HE9BFPE", "current_trial": 197, "dateTime": 1510935317282, "trialdata": {"rt": -1000, "stimulus": "/static/audio/wordpool/BREAST.wav", "key_press": -1, "type": "PRES_AUD", "word": "breast", "wordID": 170, "conditions": [12, 800, "a", 24000], "trial": 5, "serialpos": 0, "trial_type": "single-audio", "trial_index": 197, "time_elapsed": 879099, "internal_node_id": "0.0-143.0"}}, {"uniqueid": "MTK0466:3FIJLY1B6VBY1P4MT1XFE38HE9BFPE", "current_trial": 198, "dateTime": 1510935319088, "trialdata": {"rt": -1000, "stimulus": "/static/audio/wordpool/PUPPY.wav", "key_press": -1, "type": "PRES_AUD", "word": "puppy", "wordID": 1143, "conditions": [12, 800, "a", 24000], "trial": 5, "serialpos": 1, "trial_type": "single-audio", "trial_index": 198, "time_elapsed": 880904, "internal_node_id": "0.0-144.0"}}, {"uniqueid": "MTK0466:3FIJLY1B6VBY1P4MT1XFE38HE9BFPE", "current_trial": 199, "dateTime": 1510935320825, "trialdata": {"rt": -1000, "stimulus": "/static/audio/wordpool/MAILBOX.wav", "key_press": -1, "type": "PRES_AUD", "word": "mailbox", "wordID": 856, "conditions": [12, 800, "a", 24000], "trial": 5, "serialpos": 2, "trial_type": "single-audio", "trial_index": 199, "time_elapsed": 882642, "internal_node_id": "0.0-145.0"}}, {"uniqueid": "MTK0466:3FIJLY1B6VBY1P4MT1XFE38HE9BFPE", "current_trial": 200, "dateTime": 1510935322568, "trialdata": {"rt": -1000, "stimulus": "/static/audio/wordpool/GARBAGE.wav", "key_press": -1, "type": "PRES_AUD", "word": "garbage", "wordID": 621, "conditions": [12, 800, "a", 24000], "trial": 5, "serialpos": 3, "trial_type": "single-audio", "trial_index": 200, "time_elapsed": 884385, "internal_node_id": "0.0-146.0"}}, {"uniqueid": "MTK0466:3FIJLY1B6VBY1P4MT1XFE38HE9BFPE", "current_trial": 201, "dateTime": 1510935324259, "trialdata": {"rt": -1000, "stimulus": "/static/audio/wordpool/ROD.wav", "key_press": -1, "type": "PRES_AUD", "word": "rod", "wordID": 1202, "conditions": [12, 800, "a", 24000], "trial": 5, "serialpos": 4, "trial_type": "single-audio", "trial_index": 201, "time_elapsed": 886076, "internal_node_id": "0.0-147.0"}}, {"uniqueid": "MTK0466:3FIJLY1B6VBY1P4MT1XFE38HE9BFPE", "current_trial": 202, "dateTime": 1510935325879, "trialdata": {"rt": -1000, "stimulus": "/static/audio/wordpool/BARLEY.wav", "key_press": -1, "type": "PRES_AUD", "word": "barley", "wordID": 87, "conditions": [12, 800, "a", 24000], "trial": 5, "serialpos": 5, "trial_type": "single-audio", "trial_index": 202, "time_elapsed": 887696, "internal_node_id": "0.0-148.0"}}, {"uniqueid": "MTK0466:3FIJLY1B6VBY1P4MT1XFE38HE9BFPE", "current_trial": 203, "dateTime": 1510935327649, "trialdata": {"rt": -1000, "stimulus": "/static/audio/wordpool/WORKER.wav", "key_press": -1, "type": "PRES_AUD", "word": "worker", "wordID": 1620, "conditions": [12, 800, "a", 24000], "trial": 5, "serialpos": 6, "trial_type": "single-audio", "trial_index": 203, "time_elapsed": 889466, "internal_node_id": "0.0-149.0"}}, {"uniqueid": "MTK0466:3FIJLY1B6VBY1P4MT1XFE38HE9BFPE", "current_trial": 204, "dateTime": 1510935329523, "trialdata": {"rt": -1000, "stimulus": "/static/audio/wordpool/KIDNEY.wav", "key_press": -1, "type": "PRES_AUD", "word": "kidney", "wordID": 775, "conditions": [12, 800, "a", 24000], "trial": 5, "serialpos": 7, "trial_type": "single-audio", "trial_index": 204, "time_elapsed": 891340, "internal_node_id": "0.0-150.0"}}, {"uniqueid": "MTK0466:3FIJLY1B6VBY1P4MT1XFE38HE9BFPE", "current_trial": 205, "dateTime": 1510935331496, "trialdata": {"rt": -1000, "stimulus": "/static/audio/wordpool/LETTUCE.wav", "key_press": -1, "type": "PRES_AUD", "word": "lettuce", "wordID": 813, "conditions": [12, 800, "a", 24000], "trial": 5, "serialpos": 8, "trial_type": "single-audio", "trial_index": 205, "time_elapsed": 893313, "internal_node_id": "0.0-151.0"}}, {"uniqueid": "MTK0466:3FIJLY1B6VBY1P4MT1XFE38HE9BFPE", "current_trial": 206, "dateTime": 1510935333114, "trialdata": {"rt": -1000, "stimulus": "/static/audio/wordpool/CABBAGE.wav", "key_press": -1, "type": "PRES_AUD", "word": "cabbage", "wordID": 209, "conditions": [12, 800, "a", 24000], "trial": 5, "serialpos": 9, "trial_type": "single-audio", "trial_index": 206, "time_elapsed": 894931, "internal_node_id": "0.0-152.0"}}, {"uniqueid": "MTK0466:3FIJLY1B6VBY1P4MT1XFE38HE9BFPE", "current_trial": 207, "dateTime": 1510935334887, "trialdata": {"rt": -1000, "stimulus": "/static/audio/wordpool/LIVER.wav", "key_press": -1, "type": "PRES_AUD", "word": "liver", "wordID": 832, "conditions": [12, 800, "a", 24000], "trial": 5, "serialpos": 10, "trial_type": "single-audio", "trial_index": 207, "time_elapsed": 896704, "internal_node_id": "0.0-153.0"}}, {"uniqueid": "MTK0466:3FIJLY1B6VBY1P4MT1XFE38HE9BFPE", "current_trial": 208, "dateTime": 1510935336519, "trialdata": {"rt": -1000, "stimulus": "/static/audio/wordpool/JUNGLE.wav", "key_press": -1, "type": "PRES_AUD", "word": "jungle", "wordID": 763, "conditions": [12, 800, "a", 24000], "trial": 5, "serialpos": 11, "trial_type": "single-audio", "trial_index": 208, "time_elapsed": 898336, "internal_node_id": "0.0-154.0"}}, {"uniqueid": "MTK0466:3FIJLY1B6VBY1P4MT1XFE38HE9BFPE", "current_trial": 209, "dateTime": 1510935337842, "trialdata": {"rt": -1, "stimulus": "", "key_press": -1, "type": "PRE_RECALL_DELAY", "trial_type": "single-stim", "trial_index": 209, "time_elapsed": 899659, "internal_node_id": "0.0-155.0-0.0"}}, {"uniqueid": "MTK0466:3FIJLY1B6VBY1P4MT1XFE38HE9BFPE", "current_trial": 210, "dateTime": 1510935338342, "trialdata": {"rt": -1000, "stimulus": "/static/audio/400Hz.wav", "key_press": -1, "type": "PRE_RECALL_ALERT", "trial_type": "single-audio", "trial_index": 210, "time_elapsed": 900159, "internal_node_id": "0.0-156.0"}}, {"uniqueid": "MTK0466:3FIJLY1B6VBY1P4MT1XFE38HE9BFPE", "current_trial": 211, "dateTime": 1510935398349, "trialdata": {"rt": [2400, 3752, 5200, 6775, 8192, 9464, 13768, 15424], "recwords": ["jungle", "liver", "kidney", "breast", "puppy", "worker", "cabbage", "lettuce"], "type": "FREE_RECALL", "conditions": [12, 800, "a", 24000], "trial": 5, "trial_type": "free-recall", "trial_index": 211, "time_elapsed": 960162, "internal_node_id": "0.0-157.0-0.0"}}, {"uniqueid": "MTK0466:3FIJLY1B6VBY1P4MT1XFE38HE9BFPE", "current_trial": 212, "dateTime": 1510935401242, "trialdata": {"rt": 893, "key_press": 32, "type": "INSTRUCTIONS", "trial_type": "text", "trial_index": 212, "time_elapsed": 963059, "internal_node_id": "0.0-158.0"}}, {"uniqueid": "MTK0466:3FIJLY1B6VBY1P4MT1XFE38HE9BFPE", "current_trial": 213, "dateTime": 1510935415244, "trialdata": {"rt": [2222, 4830, 6854, 8526, 10342], "responses": ["18", "22", "13", "16", "15"], "num1": [7, 8, 5, 3, 9, 8], "num2": [7, 9, 6, 8, 4, 8], "num3": [4, 5, 2, 5, 2, 2], "type": "DISTRACTOR", "conditions": [24, 1600, "v", 12000], "trial": 6, "trial_type": "math-distractor", "trial_index": 213, "time_elapsed": 977060, "internal_node_id": "0.0-159.0"}}, {"uniqueid": "MTK0466:3FIJLY1B6VBY1P4MT1XFE38HE9BFPE", "current_trial": 214, "dateTime": 1510935418244, "trialdata": {"rt": -1, "stimulus": "<p id=\"stim\">10</p>", "key_press": -1, "trial_type": "single-stim", "trial_index": 214, "time_elapsed": 980061, "internal_node_id": "0.0-160.0-0.0"}}, {"uniqueid": "MTK0466:3FIJLY1B6VBY1P4MT1XFE38HE9BFPE", "current_trial": 215, "dateTime": 1510935419244, "trialdata": {"rt": -1, "stimulus": "<p id=\"stim\">9</p>", "key_press": -1, "trial_type": "single-stim", "trial_index": 215, "time_elapsed": 981061, "internal_node_id": "0.0-160.0-1.0"}}, {"uniqueid": "MTK0466:3FIJLY1B6VBY1P4MT1XFE38HE9BFPE", "current_trial": 216, "dateTime": 1510935420244, "trialdata": {"rt": -1, "stimulus": "<p id=\"stim\">8</p>", "key_press": -1, "trial_type": "single-stim", "trial_index": 216, "time_elapsed": 982061, "internal_node_id": "0.0-160.0-2.0"}}, {"uniqueid": "MTK0466:3FIJLY1B6VBY1P4MT1XFE38HE9BFPE", "current_trial": 217, "dateTime": 1510935421244, "trialdata": {"rt": -1, "stimulus": "<p id=\"stim\">7</p>", "key_press": -1, "trial_type": "single-stim", "trial_index": 217, "time_elapsed": 983061, "internal_node_id": "0.0-160.0-3.0"}}, {"uniqueid": "MTK0466:3FIJLY1B6VBY1P4MT1XFE38HE9BFPE", "current_trial": 218, "dateTime": 1510935422244, "trialdata": {"rt": -1, "stimulus": "<p id=\"stim\">6</p>", "key_press": -1, "trial_type": "single-stim", "trial_index": 218, "time_elapsed": 984061, "internal_node_id": "0.0-160.0-4.0"}}, {"uniqueid": "MTK0466:3FIJLY1B6VBY1P4MT1XFE38HE9BFPE", "current_trial": 219, "dateTime": 1510935423244, "trialdata": {"rt": -1, "stimulus": "<p id=\"stim\">5</p>", "key_press": -1, "trial_type": "single-stim", "trial_index": 219, "time_elapsed": 985061, "internal_node_id": "0.0-160.0-5.0"}}, {"uniqueid": "MTK0466:3FIJLY1B6VBY1P4MT1XFE38HE9BFPE", "current_trial": 220, "dateTime": 1510935424244, "trialdata": {"rt": -1, "stimulus": "<p id=\"stim\">4</p>", "key_press": -1, "trial_type": "single-stim", "trial_index": 220, "time_elapsed": 986061, "internal_node_id": "0.0-160.0-6.0"}}, {"uniqueid": "MTK0466:3FIJLY1B6VBY1P4MT1XFE38HE9BFPE", "current_trial": 221, "dateTime": 1510935425244, "trialdata": {"rt": -1, "stimulus": "<p id=\"stim\">3</p>", "key_press": -1, "trial_type": "single-stim", "trial_index": 221, "time_elapsed": 987061, "internal_node_id": "0.0-160.0-7.0"}}, {"uniqueid": "MTK0466:3FIJLY1B6VBY1P4MT1XFE38HE9BFPE", "current_trial": 222, "dateTime": 1510935426244, "trialdata": {"rt": -1, "stimulus": "<p id=\"stim\">2</p>", "key_press": -1, "trial_type": "single-stim", "trial_index": 222, "time_elapsed": 988061, "internal_node_id": "0.0-160.0-8.0"}}, {"uniqueid": "MTK0466:3FIJLY1B6VBY1P4MT1XFE38HE9BFPE", "current_trial": 223, "dateTime": 1510935427244, "trialdata": {"rt": -1, "stimulus": "<p id=\"stim\">1</p>", "key_press": -1, "trial_type": "single-stim", "trial_index": 223, "time_elapsed": 989061, "internal_node_id": "0.0-160.0-9.0"}}, {"uniqueid": "MTK0466:3FIJLY1B6VBY1P4MT1XFE38HE9BFPE", "current_trial": 224, "dateTime": 1510935428744, "trialdata": {"rt": -1, "stimulus": "<p id=\"stim\">+</p>", "key_press": -1, "type": "FIXATION", "trial_type": "single-stim", "trial_index": 224, "time_elapsed": 990561, "internal_node_id": "0.0-161.0-0.0"}}, {"uniqueid": "MTK0466:3FIJLY1B6VBY1P4MT1XFE38HE9BFPE", "current_trial": 225, "dateTime": 1510935430344, "trialdata": {"rt": -1, "stimulus": "<p id=\"stim\">LUNCH</p>", "key_press": -1, "type": "PRES_VIS", "word": "lunch", "wordID": 848, "conditions": [24, 1600, "v", 12000], "trial": 6, "serialpos": 0, "trial_type": "single-stim", "trial_index": 225, "time_elapsed": 992161, "internal_node_id": "0.0-162.0"}}, {"uniqueid": "MTK0466:3FIJLY1B6VBY1P4MT1XFE38HE9BFPE", "current_trial": 226, "dateTime": 1510935433048, "trialdata": {"rt": -1, "stimulus": "<p id=\"stim\">WAITRESS</p>", "key_press": -1, "type": "PRES_VIS", "word": "waitress", "wordID": 1580, "conditions": [24, 1600, "v", 12000], "trial": 6, "serialpos": 1, "trial_type": "single-stim", "trial_index": 226, "time_elapsed": 994865, "internal_node_id": "0.0-163.0"}}, {"uniqueid": "MTK0466:3FIJLY1B6VBY1P4MT1XFE38HE9BFPE", "current_trial": 227, "dateTime": 1510935435797, "trialdata": {"rt": -1, "stimulus": "<p id=\"stim\">POLICE</p>", "key_press": -1, "type": "PRES_VIS", "word": "police", "wordID": 1097, "conditions": [24, 1600, "v", 12000], "trial": 6, "serialpos": 2, "trial_type": "single-stim", "trial_index": 227, "time_elapsed": 997614, "internal_node_id": "0.0-164.0"}}, {"uniqueid": "MTK0466:3FIJLY1B6VBY1P4MT1XFE38HE9BFPE", "current_trial": 228, "dateTime": 1510935438383, "trialdata": {"rt": -1, "stimulus": "<p id=\"stim\">SPONGE</p>", "key_press": -1, "type": "PRES_VIS", "word": "sponge", "wordID": 1354, "conditions": [24, 1600, "v", 12000], "trial": 6, "serialpos": 3, "trial_type": "single-stim", "trial_index": 228, "time_elapsed": 1000200, "internal_node_id": "0.0-165.0"}}, {"uniqueid": "MTK0466:3FIJLY1B6VBY1P4MT1XFE38HE9BFPE", "current_trial": 229, "dateTime": 1510935440913, "trialdata": {"rt": -1, "stimulus": "<p id=\"stim\">SNACK</p>", "key_press": -1, "type": "PRES_VIS", "word": "snack", "wordID": 1330, "conditions": [24, 1600, "v", 12000], "trial": 6, "serialpos": 4, "trial_type": "single-stim", "trial_index": 229, "time_elapsed": 1002730, "internal_node_id": "0.0-166.0"}}, {"uniqueid": "MTK0466:3FIJLY1B6VBY1P4MT1XFE38HE9BFPE", "current_trial": 230, "dateTime": 1510935443512, "trialdata": {"rt": -1, "stimulus": "<p id=\"stim\">UNCLE</p>", "key_press": -1, "type": "PRES_VIS", "word": "uncle", "wordID": 1535, "conditions": [24, 1600, "v", 12000], "trial": 6, "serialpos": 5, "trial_type": "single-stim", "trial_index": 230, "time_elapsed": 1005328, "internal_node_id": "0.0-167.0"}}, {"uniqueid": "MTK0466:3FIJLY1B6VBY1P4MT1XFE38HE9BFPE", "current_trial": 231, "dateTime": 1510935446298, "trialdata": {"rt": -1, "stimulus": "<p id=\"stim\">PIANO</p>", "key_press": -1, "type": "PRES_VIS", "word": "piano", "wordID": 1056, "conditions": [24, 1600, "v", 12000], "trial": 6, "serialpos": 6, "trial_type": "single-stim", "trial_index": 231, "time_elapsed": 1008115, "internal_node_id": "0.0-168.0"}}, {"uniqueid": "MTK0466:3FIJLY1B6VBY1P4MT1XFE38HE9BFPE", "current_trial": 232, "dateTime": 1510935448707, "trialdata": {"rt": -1, "stimulus": "<p id=\"stim\">BATHTUB</p>", "key_press": -1, "type": "PRES_VIS", "word": "bathtub", "wordID": 99, "conditions": [24, 1600, "v", 12000], "trial": 6, "serialpos": 7, "trial_type": "single-stim", "trial_index": 232, "time_elapsed": 1010524, "internal_node_id": "0.0-169.0"}}, {"uniqueid": "MTK0466:3FIJLY1B6VBY1P4MT1XFE38HE9BFPE", "current_trial": 233, "dateTime": 1510935451298, "trialdata": {"rt": -1, "stimulus": "<p id=\"stim\">QUEEN</p>", "key_press": -1, "type": "PRES_VIS", "word": "queen", "wordID": 1148, "conditions": [24, 1600, "v", 12000], "trial": 6, "serialpos": 8, "trial_type": "single-stim", "trial_index": 233, "time_elapsed": 1013115, "internal_node_id": "0.0-170.0"}}, {"uniqueid": "MTK0466:3FIJLY1B6VBY1P4MT1XFE38HE9BFPE", "current_trial": 234, "dateTime": 1510935453946, "trialdata": {"rt": -1, "stimulus": "<p id=\"stim\">WORLD</p>", "key_press": -1, "type": "PRES_VIS", "word": "world", "wordID": 1621, "conditions": [24, 1600, "v", 12000], "trial": 6, "serialpos": 9, "trial_type": "single-stim", "trial_index": 234, "time_elapsed": 1015763, "internal_node_id": "0.0-171.0"}}, {"uniqueid": "MTK0466:3FIJLY1B6VBY1P4MT1XFE38HE9BFPE", "current_trial": 235, "dateTime": 1510935456530, "trialdata": {"rt": -1, "stimulus": "<p id=\"stim\">GLOBE</p>", "key_press": -1, "type": "PRES_VIS", "word": "globe", "wordID": 640, "conditions": [24, 1600, "v", 12000], "trial": 6, "serialpos": 10, "trial_type": "single-stim", "trial_index": 235, "time_elapsed": 1018347, "internal_node_id": "0.0-172.0"}}, {"uniqueid": "MTK0466:3FIJLY1B6VBY1P4MT1XFE38HE9BFPE", "current_trial": 236, "dateTime": 1510935459117, "trialdata": {"rt": -1, "stimulus": "<p id=\"stim\">SLIDE</p>", "key_press": -1, "type": "PRES_VIS", "word": "slide", "wordID": 1325, "conditions": [24, 1600, "v", 12000], "trial": 6, "serialpos": 11, "trial_type": "single-stim", "trial_index": 236, "time_elapsed": 1020934, "internal_node_id": "0.0-173.0"}}, {"uniqueid": "MTK0466:3FIJLY1B6VBY1P4MT1XFE38HE9BFPE", "current_trial": 237, "dateTime": 1510935461639, "trialdata": {"rt": -1, "stimulus": "<p id=\"stim\">BRACES</p>", "key_press": -1, "type": "PRES_VIS", "word": "braces", "wordID": 163, "conditions": [24, 1600, "v", 12000], "trial": 6, "serialpos": 12, "trial_type": "single-stim", "trial_index": 237, "time_elapsed": 1023456, "internal_node_id": "0.0-174.0"}}, {"uniqueid": "MTK0466:3FIJLY1B6VBY1P4MT1XFE38HE9BFPE", "current_trial": 238, "dateTime": 1510935464292, "trialdata": {"rt": -1, "stimulus": "<p id=\"stim\">OYSTER</p>", "key_press": -1, "type": "PRES_VIS", "word": "oyster", "wordID": 994, "conditions": [24, 1600, "v", 12000], "trial": 6, "serialpos": 13, "trial_type": "single-stim", "trial_index": 238, "time_elapsed": 1026109, "internal_node_id": "0.0-175.0"}}, {"uniqueid": "MTK0466:3FIJLY1B6VBY1P4MT1XFE38HE9BFPE", "current_trial": 239, "dateTime": 1510935466726, "trialdata": {"rt": -1, "stimulus": "<p id=\"stim\">SALMON</p>", "key_press": -1, "type": "PRES_VIS", "word": "salmon", "wordID": 1226, "conditions": [24, 1600, "v", 12000], "trial": 6, "serialpos": 14, "trial_type": "single-stim", "trial_index": 239, "time_elapsed": 1028543, "internal_node_id": "0.0-176.0"}}, {"uniqueid": "MTK0466:3FIJLY1B6VBY1P4MT1XFE38HE9BFPE", "current_trial": 240, "dateTime": 1510935469204, "trialdata": {"rt": -1, "stimulus": "<p id=\"stim\">GYMNAST</p>", "key_press": -1, "type": "PRES_VIS", "word": "gymnast", "wordID": 674, "conditions": [24, 1600, "v", 12000], "trial": 6, "serialpos": 15, "trial_type": "single-stim", "trial_index": 240, "time_elapsed": 1031021, "internal_node_id": "0.0-177.0"}}, {"uniqueid": "MTK0466:3FIJLY1B6VBY1P4MT1XFE38HE9BFPE", "current_trial": 241, "dateTime": 1510935471823, "trialdata": {"rt": -1, "stimulus": "<p id=\"stim\">CANDY</p>", "key_press": -1, "type": "PRES_VIS", "word": "candy", "wordID": 229, "conditions": [24, 1600, "v", 12000], "trial": 6, "serialpos": 16, "trial_type": "single-stim", "trial_index": 241, "time_elapsed": 1033640, "internal_node_id": "0.0-178.0"}}, {"uniqueid": "MTK0466:3FIJLY1B6VBY1P4MT1XFE38HE9BFPE", "current_trial": 242, "dateTime": 1510935474537, "trialdata": {"rt": -1, "stimulus": "<p id=\"stim\">WINDOW</p>", "key_press": -1, "type": "PRES_VIS", "word": "window", "wordID": 1610, "conditions": [24, 1600, "v", 12000], "trial": 6, "serialpos": 17, "trial_type": "single-stim", "trial_index": 242, "time_elapsed": 1036354, "internal_node_id": "0.0-179.0"}}, {"uniqueid": "MTK0466:3FIJLY1B6VBY1P4MT1XFE38HE9BFPE", "current_trial": 243, "dateTime": 1510935477117, "trialdata": {"rt": -1, "stimulus": "<p id=\"stim\">CELLAR</p>", "key_press": -1, "type": "PRES_VIS", "word": "cellar", "wordID": 266, "conditions": [24, 1600, "v", 12000], "trial": 6, "serialpos": 18, "trial_type": "single-stim", "trial_index": 243, "time_elapsed": 1038934, "internal_node_id": "0.0-180.0"}}, {"uniqueid": "MTK0466:3FIJLY1B6VBY1P4MT1XFE38HE9BFPE", "current_trial": 244, "dateTime": 1510935479708, "trialdata": {"rt": -1, "stimulus": "<p id=\"stim\">NEUTRON</p>", "key_press": -1, "type": "PRES_VIS", "word": "neutron", "wordID": 946, "conditions": [24, 1600, "v", 12000], "trial": 6, "serialpos": 19, "trial_type": "single-stim", "trial_index": 244, "time_elapsed": 1041525, "internal_node_id": "0.0-181.0"}}, {"uniqueid": "MTK0466:3FIJLY1B6VBY1P4MT1XFE38HE9BFPE", "current_trial": 245, "dateTime": 1510935482418, "trialdata": {"rt": -1, "stimulus": "<p id=\"stim\">SWIMMER</p>", "key_press": -1, "type": "PRES_VIS", "word": "swimmer", "wordID": 1419, "conditions": [24, 1600, "v", 12000], "trial": 6, "serialpos": 20, "trial_type": "single-stim", "trial_index": 245, "time_elapsed": 1044235, "internal_node_id": "0.0-182.0"}}, {"uniqueid": "MTK0466:3FIJLY1B6VBY1P4MT1XFE38HE9BFPE", "current_trial": 246, "dateTime": 1510935484933, "trialdata": {"rt": -1, "stimulus": "<p id=\"stim\">LODGE</p>", "key_press": -1, "type": "PRES_VIS", "word": "lodge", "wordID": 838, "conditions": [24, 1600, "v", 12000], "trial": 6, "serialpos": 21, "trial_type": "single-stim", "trial_index": 246, "time_elapsed": 1046750, "internal_node_id": "0.0-183.0"}}, {"uniqueid": "MTK0466:3FIJLY1B6VBY1P4MT1XFE38HE9BFPE", "current_trial": 247, "dateTime": 1510935487724, "trialdata": {"rt": -1, "stimulus": "<p id=\"stim\">BRANDY</p>", "key_press": -1, "type": "PRES_VIS", "word": "brandy", "wordID": 168, "conditions": [24, 1600, "v", 12000], "trial": 6, "serialpos": 22, "trial_type": "single-stim", "trial_index": 247, "time_elapsed": 1049541, "internal_node_id": "0.0-184.0"}}, {"uniqueid": "MTK0466:3FIJLY1B6VBY1P4MT1XFE38HE9BFPE", "current_trial": 248, "dateTime": 1510935490306, "trialdata": {"rt": -1, "stimulus": "<p id=\"stim\">ORANGE</p>", "key_press": -1, "type": "PRES_VIS", "word": "orange", "wordID": 979, "conditions": [24, 1600, "v", 12000], "trial": 6, "serialpos": 23, "trial_type": "single-stim", "trial_index": 248, "time_elapsed": 1052123, "internal_node_id": "0.0-185.0"}}, {"uniqueid": "MTK0466:3FIJLY1B6VBY1P4MT1XFE38HE9BFPE", "current_trial": 249, "dateTime": 1510935492603, "trialdata": {"rt": -1, "stimulus": "", "key_press": -1, "type": "PRE_RECALL_DELAY", "trial_type": "single-stim", "trial_index": 249, "time_elapsed": 1054420, "internal_node_id": "0.0-186.0-0.0"}}, {"uniqueid": "MTK0466:3FIJLY1B6VBY1P4MT1XFE38HE9BFPE", "current_trial": 250, "dateTime": 1510935493103, "trialdata": {"rt": -1000, "stimulus": "/static/audio/400Hz.wav", "key_press": -1, "type": "PRE_RECALL_ALERT", "trial_type": "single-audio", "trial_index": 250, "time_elapsed": 1054920, "internal_node_id": "0.0-187.0"}}, {"uniqueid": "MTK0466:3FIJLY1B6VBY1P4MT1XFE38HE9BFPE", "current_trial": 251, "dateTime": 1510935553111, "trialdata": {"rt": [2084, 3484, 5636, 7612, 9100, 12694, 15014, 18190, 19534, 25006, 27126, 30382, 32382, 34262, 42198, 43718, 49646, 50766], "recwords": ["brandy", "cellar", "neutron", "swimmer", "lodge", "orange", "queen", "world", "globe", "waitress", "lunch", "snack", "oyster", "salmon", "police", "uncle", "gymnast", "slide"], "type": "FREE_RECALL", "conditions": [24, 1600, "v", 12000], "trial": 6, "trial_type": "free-recall", "trial_index": 251, "time_elapsed": 1114924, "internal_node_id": "0.0-188.0-0.0"}}, {"uniqueid": "MTK0466:3FIJLY1B6VBY1P4MT1XFE38HE9BFPE", "current_trial": 252, "dateTime": 1510935556232, "trialdata": {"rt": 1120, "key_press": 32, "type": "INSTRUCTIONS", "trial_type": "text", "trial_index": 252, "time_elapsed": 1118049, "internal_node_id": "0.0-189.0"}}, {"uniqueid": "MTK0466:3FIJLY1B6VBY1P4MT1XFE38HE9BFPE", "current_trial": 253, "dateTime": 1510935570237, "trialdata": {"rt": [2045, 3765, 5360, 7848, 9496, 11096], "responses": ["14", "16", "13", "23", "13", "12"], "num1": [1, 4, 3, 8, 4, 3, 4], "num2": [5, 6, 2, 8, 1, 5, 6], "num3": [8, 6, 8, 7, 8, 4, 5], "type": "DISTRACTOR", "conditions": [12, 1600, "v", 12000], "trial": 7, "trial_type": "math-distractor", "trial_index": 253, "time_elapsed": 1132053, "internal_node_id": "0.0-190.0"}}, {"uniqueid": "MTK0466:3FIJLY1B6VBY1P4MT1XFE38HE9BFPE", "current_trial": 254, "dateTime": 1510935573238, "trialdata": {"rt": -1, "stimulus": "<p id=\"stim\">10</p>", "key_press": -1, "trial_type": "single-stim", "trial_index": 254, "time_elapsed": 1135055, "internal_node_id": "0.0-191.0-0.0"}}, {"uniqueid": "MTK0466:3FIJLY1B6VBY1P4MT1XFE38HE9BFPE", "current_trial": 255, "dateTime": 1510935574239, "trialdata": {"rt": -1, "stimulus": "<p id=\"stim\">9</p>", "key_press": -1, "trial_type": "single-stim", "trial_index": 255, "time_elapsed": 1136056, "internal_node_id": "0.0-191.0-1.0"}}, {"uniqueid": "MTK0466:3FIJLY1B6VBY1P4MT1XFE38HE9BFPE", "current_trial": 256, "dateTime": 1510935575239, "trialdata": {"rt": -1, "stimulus": "<p id=\"stim\">8</p>", "key_press": -1, "trial_type": "single-stim", "trial_index": 256, "time_elapsed": 1137056, "internal_node_id": "0.0-191.0-2.0"}}, {"uniqueid": "MTK0466:3FIJLY1B6VBY1P4MT1XFE38HE9BFPE", "current_trial": 257, "dateTime": 1510935576239, "trialdata": {"rt": -1, "stimulus": "<p id=\"stim\">7</p>", "key_press": -1, "trial_type": "single-stim", "trial_index": 257, "time_elapsed": 1138056, "internal_node_id": "0.0-191.0-3.0"}}, {"uniqueid": "MTK0466:3FIJLY1B6VBY1P4MT1XFE38HE9BFPE", "current_trial": 258, "dateTime": 1510935577239, "trialdata": {"rt": -1, "stimulus": "<p id=\"stim\">6</p>", "key_press": -1, "trial_type": "single-stim", "trial_index": 258, "time_elapsed": 1139056, "internal_node_id": "0.0-191.0-4.0"}}, {"uniqueid": "MTK0466:3FIJLY1B6VBY1P4MT1XFE38HE9BFPE", "current_trial": 259, "dateTime": 1510935578240, "trialdata": {"rt": -1, "stimulus": "<p id=\"stim\">5</p>", "key_press": -1, "trial_type": "single-stim", "trial_index": 259, "time_elapsed": 1140056, "internal_node_id": "0.0-191.0-5.0"}}, {"uniqueid": "MTK0466:3FIJLY1B6VBY1P4MT1XFE38HE9BFPE", "current_trial": 260, "dateTime": 1510935579241, "trialdata": {"rt": -1, "stimulus": "<p id=\"stim\">4</p>", "key_press": -1, "trial_type": "single-stim", "trial_index": 260, "time_elapsed": 1141058, "internal_node_id": "0.0-191.0-6.0"}}, {"uniqueid": "MTK0466:3FIJLY1B6VBY1P4MT1XFE38HE9BFPE", "current_trial": 261, "dateTime": 1510935580241, "trialdata": {"rt": -1, "stimulus": "<p id=\"stim\">3</p>", "key_press": -1, "trial_type": "single-stim", "trial_index": 261, "time_elapsed": 1142058, "internal_node_id": "0.0-191.0-7.0"}}, {"uniqueid": "MTK0466:3FIJLY1B6VBY1P4MT1XFE38HE9BFPE", "current_trial": 262, "dateTime": 1510935581241, "trialdata": {"rt": -1, "stimulus": "<p id=\"stim\">2</p>", "key_press": -1, "trial_type": "single-stim", "trial_index": 262, "time_elapsed": 1143058, "internal_node_id": "0.0-191.0-8.0"}}, {"uniqueid": "MTK0466:3FIJLY1B6VBY1P4MT1XFE38HE9BFPE", "current_trial": 263, "dateTime": 1510935582241, "trialdata": {"rt": -1, "stimulus": "<p id=\"stim\">1</p>", "key_press": -1, "trial_type": "single-stim", "trial_index": 263, "time_elapsed": 1144058, "internal_node_id": "0.0-191.0-9.0"}}, {"uniqueid": "MTK0466:3FIJLY1B6VBY1P4MT1XFE38HE9BFPE", "current_trial": 264, "dateTime": 1510935583741, "trialdata": {"rt": -1, "stimulus": "<p id=\"stim\">+</p>", "key_press": -1, "type": "FIXATION", "trial_type": "single-stim", "trial_index": 264, "time_elapsed": 1145558, "internal_node_id": "0.0-192.0-0.0"}}, {"uniqueid": "MTK0466:3FIJLY1B6VBY1P4MT1XFE38HE9BFPE", "current_trial": 265, "dateTime": 1510935585341, "trialdata": {"rt": -1, "stimulus": "<p id=\"stim\">TROMBONE</p>", "key_press": -1, "type": "PRES_VIS", "word": "trombone", "wordID": 1507, "conditions": [12, 1600, "v", 12000], "trial": 7, "serialpos": 0, "trial_type": "single-stim", "trial_index": 265, "time_elapsed": 1147158, "internal_node_id": "0.0-193.0"}}, {"uniqueid": "MTK0466:3FIJLY1B6VBY1P4MT1XFE38HE9BFPE", "current_trial": 266, "dateTime": 1510935588067, "trialdata": {"rt": -1, "stimulus": "<p id=\"stim\">MASK</p>", "key_press": -1, "type": "PRES_VIS", "word": "mask", "wordID": 875, "conditions": [12, 1600, "v", 12000], "trial": 7, "serialpos": 1, "trial_type": "single-stim", "trial_index": 266, "time_elapsed": 1149884, "internal_node_id": "0.0-194.0"}}, {"uniqueid": "MTK0466:3FIJLY1B6VBY1P4MT1XFE38HE9BFPE", "current_trial": 267, "dateTime": 1510935590518, "trialdata": {"rt": -1, "stimulus": "<p id=\"stim\">BLACKBOARD</p>", "key_press": -1, "type": "PRES_VIS", "word": "blackboard", "wordID": 132, "conditions": [12, 1600, "v", 12000], "trial": 7, "serialpos": 2, "trial_type": "single-stim", "trial_index": 267, "time_elapsed": 1152335, "internal_node_id": "0.0-195.0"}}, {"uniqueid": "MTK0466:3FIJLY1B6VBY1P4MT1XFE38HE9BFPE", "current_trial": 268, "dateTime": 1510935593237, "trialdata": {"rt": -1, "stimulus": "<p id=\"stim\">LIZARD</p>", "key_press": -1, "type": "PRES_VIS", "word": "lizard", "wordID": 833, "conditions": [12, 1600, "v", 12000], "trial": 7, "serialpos": 3, "trial_type": "single-stim", "trial_index": 268, "time_elapsed": 1155054, "internal_node_id": "0.0-196.0"}}, {"uniqueid": "MTK0466:3FIJLY1B6VBY1P4MT1XFE38HE9BFPE", "current_trial": 269, "dateTime": 1510935595931, "trialdata": {"rt": -1, "stimulus": "<p id=\"stim\">HARP</p>", "key_press": -1, "type": "PRES_VIS", "word": "harp", "wordID": 688, "conditions": [12, 1600, "v", 12000], "trial": 7, "serialpos": 4, "trial_type": "single-stim", "trial_index": 269, "time_elapsed": 1157748, "internal_node_id": "0.0-197.0"}}, {"uniqueid": "MTK0466:3FIJLY1B6VBY1P4MT1XFE38HE9BFPE", "current_trial": 270, "dateTime": 1510935598368, "trialdata": {"rt": -1, "stimulus": "<p id=\"stim\">PISTOL</p>", "key_press": -1,