{"condition": 0, "counterbalance": 144, "assignmentId": "3X66WABAJXPX80VU6N6QJL5S8RE3GG", "workerId": "MTK0074", "hitId": "322ZSN9Z5GRK8H2A0Z5E3PG3Z3I4TN", "currenttrial": 623, "bonus": 0, "data": [{"uniqueid": "MTK0074:3X66WABAJXPX80VU6N6QJL5S8RE3GG", "current_trial": 0, "dateTime": 1509129540510, "trialdata": {"rt": 3122, "key_press": 76, "type": "INSTRUCTIONS", "trial_type": "text", "trial_index": 0, "time_elapsed": 3127, "internal_node_id": "0.0-0.0"}}, {"uniqueid": "MTK0074:3X66WABAJXPX80VU6N6QJL5S8RE3GG", "current_trial": 1, "dateTime": 1509129563182, "trialdata": {"rt": 22667, "key_press": 76, "type": "INSTRUCTIONS", "trial_type": "text", "trial_index": 1, "time_elapsed": 25800, "internal_node_id": "0.0-1.0"}}, {"uniqueid": "MTK0074:3X66WABAJXPX80VU6N6QJL5S8RE3GG", "current_trial": 2, "dateTime": 1509129577936, "trialdata": {"rt": [8341, 14594], "responses": ["locean", "ocean"], "type": "AUDIO_TEST", "trial_type": "audio-test", "trial_index": 2, "time_elapsed": 40555, "internal_node_id": "0.0-2.0"}}, {"uniqueid": "MTK0074:3X66WABAJXPX80VU6N6QJL5S8RE3GG", "current_trial": 3, "dateTime": 1509129585907, "trialdata": {"rt": [7936], "responses": ["crystal"], "type": "AUDIO_TEST", "trial_type": "audio-test", "trial_index": 3, "time_elapsed": 48525, "internal_node_id": "0.0-3.0"}}, {"uniqueid": "MTK0074:3X66WABAJXPX80VU6N6QJL5S8RE3GG", "current_trial": 4, "dateTime": 1509129595123, "trialdata": {"rt": [9182], "responses": ["spice"], "type": "AUDIO_TEST", "trial_type": "audio-test", "trial_index": 4, "time_elapsed": 57741, "internal_node_id": "0.0-4.0"}}, {"uniqueid": "MTK0074:3X66WABAJXPX80VU6N6QJL5S8RE3GG", "current_trial": 5, "dateTime": 1509129599750, "trialdata": {"rt": 3871, "key_press": 76, "type": "INSTRUCTIONS", "trial_type": "text", "trial_index": 5, "time_elapsed": 62368, "internal_node_id": "0.0-5.0"}}, {"uniqueid": "MTK0074:3X66WABAJXPX80VU6N6QJL5S8RE3GG", "current_trial": 6, "dateTime": 1509129645116, "trialdata": {"rt": 45358, "key_press": 76, "type": "INSTRUCTIONS", "trial_type": "text", "trial_index": 6, "time_elapsed": 107733, "internal_node_id": "0.0-6.0"}}, {"uniqueid": "MTK0074:3X66WABAJXPX80VU6N6QJL5S8RE3GG", "current_trial": 7, "dateTime": 1509129659631, "trialdata": {"rt": 14507, "key_press": 75, "type": "INSTRUCTIONS", "trial_type": "text", "trial_index": 7, "time_elapsed": 122248, "internal_node_id": "0.0-7.0"}}, {"uniqueid": "MTK0074:3X66WABAJXPX80VU6N6QJL5S8RE3GG", "current_trial": 8, "dateTime": 1509129666175, "trialdata": {"rt": 6537, "key_press": 76, "type": "INSTRUCTIONS", "trial_type": "text", "trial_index": 8, "time_elapsed": 128793, "internal_node_id": "0.0-8.0"}}, {"uniqueid": "MTK0074:3X66WABAJXPX80VU6N6QJL5S8RE3GG", "current_trial": 9, "dateTime": 1509129685201, "trialdata": {"rt": [4390, 6323, 9259, 12130, 13908, 15709, 17590], "responses": ["13", "12", "19", "21", "5", "17", "15"], "num1": [3, 9, 4, 9, 2, 1, 5, 7], "num2": [4, 2, 7, 6, 1, 8, 1, 2], "num3": [6, 1, 8, 6, 2, 8, 9, 1], "type": "DISTRACTOR", "conditions": [18, 1200, "a", 18000], "trial": 0, "trial_type": "math-distractor", "trial_index": 9, "time_elapsed": 147819, "internal_node_id": "0.0-9.0"}}, {"uniqueid": "MTK0074:3X66WABAJXPX80VU6N6QJL5S8RE3GG", "current_trial": 10, "dateTime": 1509129688232, "trialdata": {"rt": -1, "stimulus": "<p id=\"stim\">10</p>", "key_press": -1, "trial_type": "single-stim", "trial_index": 10, "time_elapsed": 150850, "internal_node_id": "0.0-10.0-0.0"}}, {"uniqueid": "MTK0074:3X66WABAJXPX80VU6N6QJL5S8RE3GG", "current_trial": 11, "dateTime": 1509129689255, "trialdata": {"rt": -1, "stimulus": "<p id=\"stim\">9</p>", "key_press": -1, "trial_type": "single-stim", "trial_index": 11, "time_elapsed": 151872, "internal_node_id": "0.0-10.0-1.0"}}, {"uniqueid": "MTK0074:3X66WABAJXPX80VU6N6QJL5S8RE3GG", "current_trial": 12, "dateTime": 1509129690337, "trialdata": {"rt": -1, "stimulus": "<p id=\"stim\">8</p>", "key_press": -1, "trial_type": "single-stim", "trial_index": 12, "time_elapsed": 152955, "internal_node_id": "0.0-10.0-2.0"}}, {"uniqueid": "MTK0074:3X66WABAJXPX80VU6N6QJL5S8RE3GG", "current_trial": 13, "dateTime": 1509129691345, "trialdata": {"rt": -1, "stimulus": "<p id=\"stim\">7</p>", "key_press": -1, "trial_type": "single-stim", "trial_index": 13, "time_elapsed": 153963, "internal_node_id": "0.0-10.0-3.0"}}, {"uniqueid": "MTK0074:3X66WABAJXPX80VU6N6QJL5S8RE3GG", "current_trial": 14, "dateTime": 1509129692360, "trialdata": {"rt": -1, "stimulus": "<p id=\"stim\">6</p>", "key_press": -1, "trial_type": "single-stim", "trial_index": 14, "time_elapsed": 154978, "internal_node_id": "0.0-10.0-4.0"}}, {"uniqueid": "MTK0074:3X66WABAJXPX80VU6N6QJL5S8RE3GG", "current_trial": 15, "dateTime": 1509129693375, "trialdata": {"rt": -1, "stimulus": "<p id=\"stim\">5</p>", "key_press": -1, "trial_type": "single-stim", "trial_index": 15, "time_elapsed": 155994, "internal_node_id": "0.0-10.0-5.0"}}, {"uniqueid": "MTK0074:3X66WABAJXPX80VU6N6QJL5S8RE3GG", "current_trial": 16, "dateTime": 1509129694383, "trialdata": {"rt": -1, "stimulus": "<p id=\"stim\">4</p>", "key_press": -1, "trial_type": "single-stim", "trial_index": 16, "time_elapsed": 157002, "internal_node_id": "0.0-10.0-6.0"}}, {"uniqueid": "MTK0074:3X66WABAJXPX80VU6N6QJL5S8RE3GG", "current_trial": 17, "dateTime": 1509129695399, "trialdata": {"rt": -1, "stimulus": "<p id=\"stim\">3</p>", "key_press": -1, "trial_type": "single-stim", "trial_index": 17, "time_elapsed": 158018, "internal_node_id": "0.0-10.0-7.0"}}, {"uniqueid": "MTK0074:3X66WABAJXPX80VU6N6QJL5S8RE3GG", "current_trial": 18, "dateTime": 1509129696424, "trialdata": {"rt": -1, "stimulus": "<p id=\"stim\">2</p>", "key_press": -1, "trial_type": "single-stim", "trial_index": 18, "time_elapsed": 159043, "internal_node_id": "0.0-10.0-8.0"}}, {"uniqueid": "MTK0074:3X66WABAJXPX80VU6N6QJL5S8RE3GG", "current_trial": 19, "dateTime": 1509129697433, "trialdata": {"rt": -1, "stimulus": "<p id=\"stim\">1</p>", "key_press": -1, "trial_type": "single-stim", "trial_index": 19, "time_elapsed": 160051, "internal_node_id": "0.0-10.0-9.0"}}, {"uniqueid": "MTK0074:3X66WABAJXPX80VU6N6QJL5S8RE3GG", "current_trial": 20, "dateTime": 1509129698950, "trialdata": {"rt": -1, "stimulus": "<p id=\"stim\">+</p>", "key_press": -1, "type": "FIXATION", "trial_type": "single-stim", "trial_index": 20, "time_elapsed": 161568, "internal_node_id": "0.0-11.0-0.0"}}, {"uniqueid": "MTK0074:3X66WABAJXPX80VU6N6QJL5S8RE3GG", "current_trial": 21, "dateTime": 1509129701354, "trialdata": {"rt": -1000, "stimulus": "/static/audio/wordpool/STALLION.wav", "key_press": -1, "type": "PRES_AUD", "word": "stallion", "wordID": 1368, "conditions": [18, 1200, "a", 18000], "trial": 0, "serialpos": 0, "trial_type": "single-audio", "trial_index": 21, "time_elapsed": 163972, "internal_node_id": "0.0-12.0"}}, {"uniqueid": "MTK0074:3X66WABAJXPX80VU6N6QJL5S8RE3GG", "current_trial": 22, "dateTime": 1509129703763, "trialdata": {"rt": -1000, "stimulus": "/static/audio/wordpool/MARS.wav", "key_press": -1, "type": "PRES_AUD", "word": "mars", "wordID": 872, "conditions": [18, 1200, "a", 18000], "trial": 0, "serialpos": 1, "trial_type": "single-audio", "trial_index": 22, "time_elapsed": 166382, "internal_node_id": "0.0-13.0"}}, {"uniqueid": "MTK0074:3X66WABAJXPX80VU6N6QJL5S8RE3GG", "current_trial": 23, "dateTime": 1509129706139, "trialdata": {"rt": -1000, "stimulus": "/static/audio/wordpool/PECAN.wav", "key_press": -1, "type": "PRES_AUD", "word": "pecan", "wordID": 1035, "conditions": [18, 1200, "a", 18000], "trial": 0, "serialpos": 2, "trial_type": "single-audio", "trial_index": 23, "time_elapsed": 168757, "internal_node_id": "0.0-14.0"}}, {"uniqueid": "MTK0074:3X66WABAJXPX80VU6N6QJL5S8RE3GG", "current_trial": 24, "dateTime": 1509129708263, "trialdata": {"rt": -1000, "stimulus": "/static/audio/wordpool/CHEST.wav", "key_press": -1, "type": "PRES_AUD", "word": "chest", "wordID": 294, "conditions": [18, 1200, "a", 18000], "trial": 0, "serialpos": 3, "trial_type": "single-audio", "trial_index": 24, "time_elapsed": 170881, "internal_node_id": "0.0-15.0"}}, {"uniqueid": "MTK0074:3X66WABAJXPX80VU6N6QJL5S8RE3GG", "current_trial": 25, "dateTime": 1509129710350, "trialdata": {"rt": -1000, "stimulus": "/static/audio/wordpool/SWAMP.wav", "key_press": -1, "type": "PRES_AUD", "word": "swamp", "wordID": 1415, "conditions": [18, 1200, "a", 18000], "trial": 0, "serialpos": 4, "trial_type": "single-audio", "trial_index": 25, "time_elapsed": 172969, "internal_node_id": "0.0-16.0"}}, {"uniqueid": "MTK0074:3X66WABAJXPX80VU6N6QJL5S8RE3GG", "current_trial": 26, "dateTime": 1509129712712, "trialdata": {"rt": -1000, "stimulus": "/static/audio/wordpool/CLAMP.wav", "key_press": -1, "type": "PRES_AUD", "word": "clamp", "wordID": 315, "conditions": [18, 1200, "a", 18000], "trial": 0, "serialpos": 5, "trial_type": "single-audio", "trial_index": 26, "time_elapsed": 175331, "internal_node_id": "0.0-17.0"}}, {"uniqueid": "MTK0074:3X66WABAJXPX80VU6N6QJL5S8RE3GG", "current_trial": 27, "dateTime": 1509129714822, "trialdata": {"rt": -1000, "stimulus": "/static/audio/wordpool/GIRL.wav", "key_press": -1, "type": "PRES_AUD", "word": "girl", "wordID": 636, "conditions": [18, 1200, "a", 18000], "trial": 0, "serialpos": 6, "trial_type": "single-audio", "trial_index": 27, "time_elapsed": 177441, "internal_node_id": "0.0-18.0"}}, {"uniqueid": "MTK0074:3X66WABAJXPX80VU6N6QJL5S8RE3GG", "current_trial": 28, "dateTime": 1509129716854, "trialdata": {"rt": -1000, "stimulus": "/static/audio/wordpool/KNIFE.wav", "key_press": -1, "type": "PRES_AUD", "word": "knife", "wordID": 784, "conditions": [18, 1200, "a", 18000], "trial": 0, "serialpos": 7, "trial_type": "single-audio", "trial_index": 28, "time_elapsed": 179472, "internal_node_id": "0.0-19.0"}}, {"uniqueid": "MTK0074:3X66WABAJXPX80VU6N6QJL5S8RE3GG", "current_trial": 29, "dateTime": 1509129719023, "trialdata": {"rt": -1000, "stimulus": "/static/audio/wordpool/RUG.wav", "key_press": -1, "type": "PRES_AUD", "word": "rug", "wordID": 1214, "conditions": [18, 1200, "a", 18000], "trial": 0, "serialpos": 8, "trial_type": "single-audio", "trial_index": 29, "time_elapsed": 181641, "internal_node_id": "0.0-20.0"}}, {"uniqueid": "MTK0074:3X66WABAJXPX80VU6N6QJL5S8RE3GG", "current_trial": 30, "dateTime": 1509129721152, "trialdata": {"rt": -1000, "stimulus": "/static/audio/wordpool/DRAGON.wav", "key_press": -1, "type": "PRES_AUD", "word": "dragon", "wordID": 491, "conditions": [18, 1200, "a", 18000], "trial": 0, "serialpos": 9, "trial_type": "single-audio", "trial_index": 30, "time_elapsed": 183771, "internal_node_id": "0.0-21.0"}}, {"uniqueid": "MTK0074:3X66WABAJXPX80VU6N6QJL5S8RE3GG", "current_trial": 31, "dateTime": 1509129723473, "trialdata": {"rt": -1000, "stimulus": "/static/audio/wordpool/TEACHER.wav", "key_press": -1, "type": "PRES_AUD", "word": "teacher", "wordID": 1439, "conditions": [18, 1200, "a", 18000], "trial": 0, "serialpos": 10, "trial_type": "single-audio", "trial_index": 31, "time_elapsed": 186091, "internal_node_id": "0.0-22.0"}}, {"uniqueid": "MTK0074:3X66WABAJXPX80VU6N6QJL5S8RE3GG", "current_trial": 32, "dateTime": 1509129725732, "trialdata": {"rt": -1000, "stimulus": "/static/audio/wordpool/MARKET.wav", "key_press": -1, "type": "PRES_AUD", "word": "market", "wordID": 870, "conditions": [18, 1200, "a", 18000], "trial": 0, "serialpos": 11, "trial_type": "single-audio", "trial_index": 32, "time_elapsed": 188351, "internal_node_id": "0.0-23.0"}}, {"uniqueid": "MTK0074:3X66WABAJXPX80VU6N6QJL5S8RE3GG", "current_trial": 33, "dateTime": 1509129728005, "trialdata": {"rt": -1000, "stimulus": "/static/audio/wordpool/DIVER.wav", "key_press": -1, "type": "PRES_AUD", "word": "diver", "wordID": 475, "conditions": [18, 1200, "a", 18000], "trial": 0, "serialpos": 12, "trial_type": "single-audio", "trial_index": 33, "time_elapsed": 190624, "internal_node_id": "0.0-24.0"}}, {"uniqueid": "MTK0074:3X66WABAJXPX80VU6N6QJL5S8RE3GG", "current_trial": 34, "dateTime": 1509129730281, "trialdata": {"rt": -1000, "stimulus": "/static/audio/wordpool/FIREPLACE.wav", "key_press": -1, "type": "PRES_AUD", "word": "fireplace", "wordID": 569, "conditions": [18, 1200, "a", 18000], "trial": 0, "serialpos": 13, "trial_type": "single-audio", "trial_index": 34, "time_elapsed": 192899, "internal_node_id": "0.0-25.0"}}, {"uniqueid": "MTK0074:3X66WABAJXPX80VU6N6QJL5S8RE3GG", "current_trial": 35, "dateTime": 1509129732698, "trialdata": {"rt": -1000, "stimulus": "/static/audio/wordpool/DENTIST.wav", "key_press": -1, "type": "PRES_AUD", "word": "dentist", "wordID": 446, "conditions": [18, 1200, "a", 18000], "trial": 0, "serialpos": 14, "trial_type": "single-audio", "trial_index": 35, "time_elapsed": 195315, "internal_node_id": "0.0-26.0"}}, {"uniqueid": "MTK0074:3X66WABAJXPX80VU6N6QJL5S8RE3GG", "current_trial": 36, "dateTime": 1509129734824, "trialdata": {"rt": -1000, "stimulus": "/static/audio/wordpool/OUTLAW.wav", "key_press": -1, "type": "PRES_AUD", "word": "outlaw", "wordID": 988, "conditions": [18, 1200, "a", 18000], "trial": 0, "serialpos": 15, "trial_type": "single-audio", "trial_index": 36, "time_elapsed": 197442, "internal_node_id": "0.0-27.0"}}, {"uniqueid": "MTK0074:3X66WABAJXPX80VU6N6QJL5S8RE3GG", "current_trial": 37, "dateTime": 1509129737028, "trialdata": {"rt": -1000, "stimulus": "/static/audio/wordpool/MILDEW.wav", "key_press": -1, "type": "PRES_AUD", "word": "mildew", "wordID": 892, "conditions": [18, 1200, "a", 18000], "trial": 0, "serialpos": 16, "trial_type": "single-audio", "trial_index": 37, "time_elapsed": 199644, "internal_node_id": "0.0-28.0"}}, {"uniqueid": "MTK0074:3X66WABAJXPX80VU6N6QJL5S8RE3GG", "current_trial": 38, "dateTime": 1509129739344, "trialdata": {"rt": -1000, "stimulus": "/static/audio/wordpool/EXPERT.wav", "key_press": -1, "type": "PRES_AUD", "word": "expert", "wordID": 542, "conditions": [18, 1200, "a", 18000], "trial": 0, "serialpos": 17, "trial_type": "single-audio", "trial_index": 38, "time_elapsed": 201963, "internal_node_id": "0.0-29.0"}}, {"uniqueid": "MTK0074:3X66WABAJXPX80VU6N6QJL5S8RE3GG", "current_trial": 39, "dateTime": 1509129740586, "trialdata": {"rt": -1, "stimulus": "", "key_press": -1, "type": "PRE_RECALL_DELAY", "trial_type": "single-stim", "trial_index": 39, "time_elapsed": 203204, "internal_node_id": "0.0-30.0-0.0"}}, {"uniqueid": "MTK0074:3X66WABAJXPX80VU6N6QJL5S8RE3GG", "current_trial": 40, "dateTime": 1509129741102, "trialdata": {"rt": -1000, "stimulus": "/static/audio/400Hz.wav", "key_press": -1, "type": "PRE_RECALL_ALERT", "trial_type": "single-audio", "trial_index": 40, "time_elapsed": 203720, "internal_node_id": "0.0-31.0"}}, {"uniqueid": "MTK0074:3X66WABAJXPX80VU6N6QJL5S8RE3GG", "current_trial": 41, "dateTime": 1509129801134, "trialdata": {"rt": [4274, 6388, 9154, 10762, 13928, 15833, 17593, 22603, 24767, 31397, 54369], "recwords": ["expert", "mildew", "clamp", "mars", "stallion", "rug", "fireplace", "swamp", "knife", "teacher", "chest"], "type": "FREE_RECALL", "conditions": [18, 1200, "a", 18000], "trial": 0, "trial_type": "free-recall", "trial_index": 41, "time_elapsed": 263745, "internal_node_id": "0.0-32.0-0.0"}}, {"uniqueid": "MTK0074:3X66WABAJXPX80VU6N6QJL5S8RE3GG", "current_trial": 42, "dateTime": 1509129805180, "trialdata": {"rt": 2042, "key_press": 70, "type": "INSTRUCTIONS", "trial_type": "text", "trial_index": 42, "time_elapsed": 267798, "internal_node_id": "0.0-33.0"}}, {"uniqueid": "MTK0074:3X66WABAJXPX80VU6N6QJL5S8RE3GG", "current_trial": 43, "dateTime": 1509129825220, "trialdata": {"rt": [4788, 7376, 8904, 11624, 14281, 17416], "responses": ["11", "12", "16", "18", "12", "20"], "num1": [1, 7, 5, 9, 4, 9, 3], "num2": [8, 3, 5, 6, 6, 8, 5], "num3": [2, 2, 6, 3, 2, 3, 2], "type": "DISTRACTOR", "conditions": [18, 1200, "v", 18000], "trial": 1, "trial_type": "math-distractor", "trial_index": 43, "time_elapsed": 287838, "internal_node_id": "0.0-34.0"}}, {"uniqueid": "MTK0074:3X66WABAJXPX80VU6N6QJL5S8RE3GG", "current_trial": 44, "dateTime": 1509129828250, "trialdata": {"rt": -1, "stimulus": "<p id=\"stim\">10</p>", "key_press": -1, "trial_type": "single-stim", "trial_index": 44, "time_elapsed": 290869, "internal_node_id": "0.0-35.0-0.0"}}, {"uniqueid": "MTK0074:3X66WABAJXPX80VU6N6QJL5S8RE3GG", "current_trial": 45, "dateTime": 1509129829270, "trialdata": {"rt": -1, "stimulus": "<p id=\"stim\">9</p>", "key_press": -1, "trial_type": "single-stim", "trial_index": 45, "time_elapsed": 291887, "internal_node_id": "0.0-35.0-1.0"}}, {"uniqueid": "MTK0074:3X66WABAJXPX80VU6N6QJL5S8RE3GG", "current_trial": 46, "dateTime": 1509129830284, "trialdata": {"rt": -1, "stimulus": "<p id=\"stim\">8</p>", "key_press": -1, "trial_type": "single-stim", "trial_index": 46, "time_elapsed": 292902, "internal_node_id": "0.0-35.0-2.0"}}, {"uniqueid": "MTK0074:3X66WABAJXPX80VU6N6QJL5S8RE3GG", "current_trial": 47, "dateTime": 1509129831300, "trialdata": {"rt": -1, "stimulus": "<p id=\"stim\">7</p>", "key_press": -1, "trial_type": "single-stim", "trial_index": 47, "time_elapsed": 293918, "internal_node_id": "0.0-35.0-3.0"}}, {"uniqueid": "MTK0074:3X66WABAJXPX80VU6N6QJL5S8RE3GG", "current_trial": 48, "dateTime": 1509129832315, "trialdata": {"rt": -1, "stimulus": "<p id=\"stim\">6</p>", "key_press": -1, "trial_type": "single-stim", "trial_index": 48, "time_elapsed": 294933, "internal_node_id": "0.0-35.0-4.0"}}, {"uniqueid": "MTK0074:3X66WABAJXPX80VU6N6QJL5S8RE3GG", "current_trial": 49, "dateTime": 1509129833330, "trialdata": {"rt": -1, "stimulus": "<p id=\"stim\">5</p>", "key_press": -1, "trial_type": "single-stim", "trial_index": 49, "time_elapsed": 295948, "internal_node_id": "0.0-35.0-5.0"}}, {"uniqueid": "MTK0074:3X66WABAJXPX80VU6N6QJL5S8RE3GG", "current_trial": 50, "dateTime": 1509129834346, "trialdata": {"rt": -1, "stimulus": "<p id=\"stim\">4</p>", "key_press": -1, "trial_type": "single-stim", "trial_index": 50, "time_elapsed": 296965, "internal_node_id": "0.0-35.0-6.0"}}, {"uniqueid": "MTK0074:3X66WABAJXPX80VU6N6QJL5S8RE3GG", "current_trial": 51, "dateTime": 1509129835366, "trialdata": {"rt": -1, "stimulus": "<p id=\"stim\">3</p>", "key_press": -1, "trial_type": "single-stim", "trial_index": 51, "time_elapsed": 297982, "internal_node_id": "0.0-35.0-7.0"}}, {"uniqueid": "MTK0074:3X66WABAJXPX80VU6N6QJL5S8RE3GG", "current_trial": 52, "dateTime": 1509129836378, "trialdata": {"rt": -1, "stimulus": "<p id=\"stim\">2</p>", "key_press": -1, "trial_type": "single-stim", "trial_index": 52, "time_elapsed": 298996, "internal_node_id": "0.0-35.0-8.0"}}, {"uniqueid": "MTK0074:3X66WABAJXPX80VU6N6QJL5S8RE3GG", "current_trial": 53, "dateTime": 1509129837393, "trialdata": {"rt": -1, "stimulus": "<p id=\"stim\">1</p>", "key_press": -1, "trial_type": "single-stim", "trial_index": 53, "time_elapsed": 300012, "internal_node_id": "0.0-35.0-9.0"}}, {"uniqueid": "MTK0074:3X66WABAJXPX80VU6N6QJL5S8RE3GG", "current_trial": 54, "dateTime": 1509129838911, "trialdata": {"rt": -1, "stimulus": "<p id=\"stim\">+</p>", "key_press": -1, "type": "FIXATION", "trial_type": "single-stim", "trial_index": 54, "time_elapsed": 301530, "internal_node_id": "0.0-36.0-0.0"}}, {"uniqueid": "MTK0074:3X66WABAJXPX80VU6N6QJL5S8RE3GG", "current_trial": 55, "dateTime": 1509129840129, "trialdata": {"rt": -1, "stimulus": "<p id=\"stim\">CRITIC</p>", "key_press": -1, "type": "PRES_VIS", "word": "critic", "wordID": 409, "conditions": [18, 1200, "v", 18000], "trial": 1, "serialpos": 0, "trial_type": "single-stim", "trial_index": 55, "time_elapsed": 302747, "internal_node_id": "0.0-37.0"}}, {"uniqueid": "MTK0074:3X66WABAJXPX80VU6N6QJL5S8RE3GG", "current_trial": 56, "dateTime": 1509129842403, "trialdata": {"rt": -1, "stimulus": "<p id=\"stim\">WIFE</p>", "key_press": -1, "type": "PRES_VIS", "word": "wife", "wordID": 1608, "conditions": [18, 1200, "v", 18000], "trial": 1, "serialpos": 1, "trial_type": "single-stim", "trial_index": 56, "time_elapsed": 305021, "internal_node_id": "0.0-38.0"}}, {"uniqueid": "MTK0074:3X66WABAJXPX80VU6N6QJL5S8RE3GG", "current_trial": 57, "dateTime": 1509129844820, "trialdata": {"rt": -1, "stimulus": "<p id=\"stim\">CABIN</p>", "key_press": -1, "type": "PRES_VIS", "word": "cabin", "wordID": 210, "conditions": [18, 1200, "v", 18000], "trial": 1, "serialpos": 2, "trial_type": "single-stim", "trial_index": 57, "time_elapsed": 307439, "internal_node_id": "0.0-39.0"}}, {"uniqueid": "MTK0074:3X66WABAJXPX80VU6N6QJL5S8RE3GG", "current_trial": 58, "dateTime": 1509129846945, "trialdata": {"rt": -1, "stimulus": "<p id=\"stim\">GROUND</p>", "key_press": -1, "type": "PRES_VIS", "word": "ground", "wordID": 665, "conditions": [18, 1200, "v", 18000], "trial": 1, "serialpos": 3, "trial_type": "single-stim", "trial_index": 58, "time_elapsed": 309564, "internal_node_id": "0.0-40.0"}}, {"uniqueid": "MTK0074:3X66WABAJXPX80VU6N6QJL5S8RE3GG", "current_trial": 59, "dateTime": 1509129849168, "trialdata": {"rt": -1, "stimulus": "<p id=\"stim\">SPHINX</p>", "key_press": -1, "type": "PRES_VIS", "word": "sphinx", "wordID": 1348, "conditions": [18, 1200, "v", 18000], "trial": 1, "serialpos": 4, "trial_type": "single-stim", "trial_index": 59, "time_elapsed": 311786, "internal_node_id": "0.0-41.0"}}, {"uniqueid": "MTK0074:3X66WABAJXPX80VU6N6QJL5S8RE3GG", "current_trial": 60, "dateTime": 1509129851514, "trialdata": {"rt": -1, "stimulus": "<p id=\"stim\">DRAWING</p>", "key_press": -1, "type": "PRES_VIS", "word": "drawing", "wordID": 493, "conditions": [18, 1200, "v", 18000], "trial": 1, "serialpos": 5, "trial_type": "single-stim", "trial_index": 60, "time_elapsed": 314133, "internal_node_id": "0.0-42.0"}}, {"uniqueid": "MTK0074:3X66WABAJXPX80VU6N6QJL5S8RE3GG", "current_trial": 61, "dateTime": 1509129853886, "trialdata": {"rt": -1, "stimulus": "<p id=\"stim\">RATTLE</p>", "key_press": -1, "type": "PRES_VIS", "word": "rattle", "wordID": 1169, "conditions": [18, 1200, "v", 18000], "trial": 1, "serialpos": 6, "trial_type": "single-stim", "trial_index": 61, "time_elapsed": 316504, "internal_node_id": "0.0-43.0"}}, {"uniqueid": "MTK0074:3X66WABAJXPX80VU6N6QJL5S8RE3GG", "current_trial": 62, "dateTime": 1509129856229, "trialdata": {"rt": -1, "stimulus": "<p id=\"stim\">LASER</p>", "key_press": -1, "type": "PRES_VIS", "word": "laser", "wordID": 800, "conditions": [18, 1200, "v", 18000], "trial": 1, "serialpos": 7, "trial_type": "single-stim", "trial_index": 62, "time_elapsed": 318847, "internal_node_id": "0.0-44.0"}}, {"uniqueid": "MTK0074:3X66WABAJXPX80VU6N6QJL5S8RE3GG", "current_trial": 63, "dateTime": 1509129858572, "trialdata": {"rt": -1, "stimulus": "<p id=\"stim\">FRANCE</p>", "key_press": -1, "type": "PRES_VIS", "word": "france", "wordID": 600, "conditions": [18, 1200, "v", 18000], "trial": 1, "serialpos": 8, "trial_type": "single-stim", "trial_index": 63, "time_elapsed": 321190, "internal_node_id": "0.0-45.0"}}, {"uniqueid": "MTK0074:3X66WABAJXPX80VU6N6QJL5S8RE3GG", "current_trial": 64, "dateTime": 1509129860856, "trialdata": {"rt": -1, "stimulus": "<p id=\"stim\">TRENCH</p>", "key_press": -1, "type": "PRES_VIS", "word": "trench", "wordID": 1502, "conditions": [18, 1200, "v", 18000], "trial": 1, "serialpos": 9, "trial_type": "single-stim", "trial_index": 64, "time_elapsed": 323474, "internal_node_id": "0.0-46.0"}}, {"uniqueid": "MTK0074:3X66WABAJXPX80VU6N6QJL5S8RE3GG", "current_trial": 65, "dateTime": 1509129863137, "trialdata": {"rt": -1, "stimulus": "<p id=\"stim\">SCOTCH</p>", "key_press": -1, "type": "PRES_VIS", "word": "scotch", "wordID": 1250, "conditions": [18, 1200, "v", 18000], "trial": 1, "serialpos": 10, "trial_type": "single-stim", "trial_index": 65, "time_elapsed": 325755, "internal_node_id": "0.0-47.0"}}, {"uniqueid": "MTK0074:3X66WABAJXPX80VU6N6QJL5S8RE3GG", "current_trial": 66, "dateTime": 1509129865264, "trialdata": {"rt": -1, "stimulus": "<p id=\"stim\">SHERIFF</p>", "key_press": -1, "type": "PRES_VIS", "word": "sheriff", "wordID": 1283, "conditions": [18, 1200, "v", 18000], "trial": 1, "serialpos": 11, "trial_type": "single-stim", "trial_index": 66, "time_elapsed": 327882, "internal_node_id": "0.0-48.0"}}, {"uniqueid": "MTK0074:3X66WABAJXPX80VU6N6QJL5S8RE3GG", "current_trial": 67, "dateTime": 1509129867374, "trialdata": {"rt": -1, "stimulus": "<p id=\"stim\">PENGUIN</p>", "key_press": -1, "type": "PRES_VIS", "word": "penguin", "wordID": 1043, "conditions": [18, 1200, "v", 18000], "trial": 1, "serialpos": 12, "trial_type": "single-stim", "trial_index": 67, "time_elapsed": 329992, "internal_node_id": "0.0-49.0"}}, {"uniqueid": "MTK0074:3X66WABAJXPX80VU6N6QJL5S8RE3GG", "current_trial": 68, "dateTime": 1509129869595, "trialdata": {"rt": -1, "stimulus": "<p id=\"stim\">TEMPLE</p>", "key_press": -1, "type": "PRES_VIS", "word": "temple", "wordID": 1447, "conditions": [18, 1200, "v", 18000], "trial": 1, "serialpos": 13, "trial_type": "single-stim", "trial_index": 68, "time_elapsed": 332213, "internal_node_id": "0.0-50.0"}}, {"uniqueid": "MTK0074:3X66WABAJXPX80VU6N6QJL5S8RE3GG", "current_trial": 69, "dateTime": 1509129872110, "trialdata": {"rt": -1, "stimulus": "<p id=\"stim\">BUG</p>", "key_press": -1, "type": "PRES_VIS", "word": "bug", "wordID": 186, "conditions": [18, 1200, "v", 18000], "trial": 1, "serialpos": 14, "trial_type": "single-stim", "trial_index": 69, "time_elapsed": 334728, "internal_node_id": "0.0-51.0"}}, {"uniqueid": "MTK0074:3X66WABAJXPX80VU6N6QJL5S8RE3GG", "current_trial": 70, "dateTime": 1509129874225, "trialdata": {"rt": -1, "stimulus": "<p id=\"stim\">AIRPORT</p>", "key_press": -1, "type": "PRES_VIS", "word": "airport", "wordID": 12, "conditions": [18, 1200, "v", 18000], "trial": 1, "serialpos": 15, "trial_type": "single-stim", "trial_index": 70, "time_elapsed": 336843, "internal_node_id": "0.0-52.0"}}, {"uniqueid": "MTK0074:3X66WABAJXPX80VU6N6QJL5S8RE3GG", "current_trial": 71, "dateTime": 1509129876366, "trialdata": {"rt": -1, "stimulus": "<p id=\"stim\">VENUS</p>", "key_press": -1, "type": "PRES_VIS", "word": "venus", "wordID": 1556, "conditions": [18, 1200, "v", 18000], "trial": 1, "serialpos": 16, "trial_type": "single-stim", "trial_index": 71, "time_elapsed": 338983, "internal_node_id": "0.0-53.0"}}, {"uniqueid": "MTK0074:3X66WABAJXPX80VU6N6QJL5S8RE3GG", "current_trial": 72, "dateTime": 1509129878667, "trialdata": {"rt": -1, "stimulus": "<p id=\"stim\">CHAMPAGNE</p>", "key_press": -1, "type": "PRES_VIS", "word": "champagne", "wordID": 277, "conditions": [18, 1200, "v", 18000], "trial": 1, "serialpos": 17, "trial_type": "single-stim", "trial_index": 72, "time_elapsed": 341285, "internal_node_id": "0.0-54.0"}}, {"uniqueid": "MTK0074:3X66WABAJXPX80VU6N6QJL5S8RE3GG", "current_trial": 73, "dateTime": 1509129880853, "trialdata": {"rt": -1, "stimulus": "", "key_press": -1, "type": "PRE_RECALL_DELAY", "trial_type": "single-stim", "trial_index": 73, "time_elapsed": 343470, "internal_node_id": "0.0-55.0-0.0"}}, {"uniqueid": "MTK0074:3X66WABAJXPX80VU6N6QJL5S8RE3GG", "current_trial": 74, "dateTime": 1509129881373, "trialdata": {"rt": -1000, "stimulus": "/static/audio/400Hz.wav", "key_press": -1, "type": "PRE_RECALL_ALERT", "trial_type": "single-audio", "trial_index": 74, "time_elapsed": 343989, "internal_node_id": "0.0-56.0"}}, {"uniqueid": "MTK0074:3X66WABAJXPX80VU6N6QJL5S8RE3GG", "current_trial": 75, "dateTime": 1509129941406, "trialdata": {"rt": [3404, 6387, 7680, 8850, 10728, 12962, 15806, 28132, 44844], "recwords": ["scotch", "champagne", "venus", "ground", "cabin", "bug", "wife", "france", "airport"], "type": "FREE_RECALL", "conditions": [18, 1200, "v", 18000], "trial": 1, "trial_type": "free-recall", "trial_index": 75, "time_elapsed": 404017, "internal_node_id": "0.0-57.0-0.0"}}, {"uniqueid": "MTK0074:3X66WABAJXPX80VU6N6QJL5S8RE3GG", "current_trial": 76, "dateTime": 1509129947705, "trialdata": {"rt": 4289, "key_press": 32, "type": "INSTRUCTIONS", "trial_type": "text", "trial_index": 76, "time_elapsed": 410323, "internal_node_id": "0.0-58.0"}}, {"uniqueid": "MTK0074:3X66WABAJXPX80VU6N6QJL5S8RE3GG", "current_trial": 77, "dateTime": 1509129972743, "trialdata": {"rt": [2162, 4644, 5948, 8288, 10492, 11638, 13984, 15517, 18396, 20472, 22004, 23412], "responses": ["7", "17", "5", "15", "23", "5", "13", "9", "20", "18", "8", "11"], "num1": [1, 3, 2, 5, 5, 1, 2, 3, 7, 8, 1, 6, 6], "num2": [2, 7, 1, 2, 9, 2, 4, 1, 5, 6, 1, 3, 1], "num3": [4, 7, 2, 8, 9, 2, 7, 5, 8, 4, 6, 2, 1], "type": "DISTRACTOR", "conditions": [24, 800, "v", 24000], "trial": 2, "trial_type": "math-distractor", "trial_index": 77, "time_elapsed": 435362, "internal_node_id": "0.0-59.0"}}, {"uniqueid": "MTK0074:3X66WABAJXPX80VU6N6QJL5S8RE3GG", "current_trial": 78, "dateTime": 1509129975777, "trialdata": {"rt": -1, "stimulus": "<p id=\"stim\">10</p>", "key_press": -1, "trial_type": "single-stim", "trial_index": 78, "time_elapsed": 438395, "internal_node_id": "0.0-60.0-0.0"}}, {"uniqueid": "MTK0074:3X66WABAJXPX80VU6N6QJL5S8RE3GG", "current_trial": 79, "dateTime": 1509129976791, "trialdata": {"rt": -1, "stimulus": "<p id=\"stim\">9</p>", "key_press": -1, "trial_type": "single-stim", "trial_index": 79, "time_elapsed": 439410, "internal_node_id": "0.0-60.0-1.0"}}, {"uniqueid": "MTK0074:3X66WABAJXPX80VU6N6QJL5S8RE3GG", "current_trial": 80, "dateTime": 1509129977827, "trialdata": {"rt": -1, "stimulus": "<p id=\"stim\">8</p>", "key_press": -1, "trial_type": "single-stim", "trial_index": 80, "time_elapsed": 440444, "internal_node_id": "0.0-60.0-2.0"}}, {"uniqueid": "MTK0074:3X66WABAJXPX80VU6N6QJL5S8RE3GG", "current_trial": 81, "dateTime": 1509129978842, "trialdata": {"rt": -1, "stimulus": "<p id=\"stim\">7</p>", "key_press": -1, "trial_type": "single-stim", "trial_index": 81, "time_elapsed": 441459, "internal_node_id": "0.0-60.0-3.0"}}, {"uniqueid": "MTK0074:3X66WABAJXPX80VU6N6QJL5S8RE3GG", "current_trial": 82, "dateTime": 1509129979853, "trialdata": {"rt": -1, "stimulus": "<p id=\"stim\">6</p>", "key_press": -1, "trial_type": "single-stim", "trial_index": 82, "time_elapsed": 442471, "internal_node_id": "0.0-60.0-4.0"}}, {"uniqueid": "MTK0074:3X66WABAJXPX80VU6N6QJL5S8RE3GG", "current_trial": 83, "dateTime": 1509129980868, "trialdata": {"rt": -1, "stimulus": "<p id=\"stim\">5</p>", "key_press": -1, "trial_type": "single-stim", "trial_index": 83, "time_elapsed": 443486, "internal_node_id": "0.0-60.0-5.0"}}, {"uniqueid": "MTK0074:3X66WABAJXPX80VU6N6QJL5S8RE3GG", "current_trial": 84, "dateTime": 1509129981882, "trialdata": {"rt": -1, "stimulus": "<p id=\"stim\">4</p>", "key_press": -1, "trial_type": "single-stim", "trial_index": 84, "time_elapsed": 444501, "internal_node_id": "0.0-60.0-6.0"}}, {"uniqueid": "MTK0074:3X66WABAJXPX80VU6N6QJL5S8RE3GG", "current_trial": 85, "dateTime": 1509129982895, "trialdata": {"rt": -1, "stimulus": "<p id=\"stim\">3</p>", "key_press": -1, "trial_type": "single-stim", "trial_index": 85, "time_elapsed": 445514, "internal_node_id": "0.0-60.0-7.0"}}, {"uniqueid": "MTK0074:3X66WABAJXPX80VU6N6QJL5S8RE3GG", "current_trial": 86, "dateTime": 1509129983913, "trialdata": {"rt": -1, "stimulus": "<p id=\"stim\">2</p>", "key_press": -1, "trial_type": "single-stim", "trial_index": 86, "time_elapsed": 446531, "internal_node_id": "0.0-60.0-8.0"}}, {"uniqueid": "MTK0074:3X66WABAJXPX80VU6N6QJL5S8RE3GG", "current_trial": 87, "dateTime": 1509129984925, "trialdata": {"rt": -1, "stimulus": "<p id=\"stim\">1</p>", "key_press": -1, "trial_type": "single-stim", "trial_index": 87, "time_elapsed": 447544, "internal_node_id": "0.0-60.0-9.0"}}, {"uniqueid": "MTK0074:3X66WABAJXPX80VU6N6QJL5S8RE3GG", "current_trial": 88, "dateTime": 1509129986488, "trialdata": {"rt": -1, "stimulus": "<p id=\"stim\">+</p>", "key_press": -1, "type": "FIXATION", "trial_type": "single-stim", "trial_index": 88, "time_elapsed": 449106, "internal_node_id": "0.0-61.0-0.0"}}, {"uniqueid": "MTK0074:3X66WABAJXPX80VU6N6QJL5S8RE3GG", "current_trial": 89, "dateTime": 1509129987301, "trialdata": {"rt": -1, "stimulus": "<p id=\"stim\">GRAPE</p>", "key_press": -1, "type": "PRES_VIS", "word": "grape", "wordID": 653, "conditions": [24, 800, "v", 24000], "trial": 2, "serialpos": 0, "trial_type": "single-stim", "trial_index": 89, "time_elapsed": 449920, "internal_node_id": "0.0-62.0"}}, {"uniqueid": "MTK0074:3X66WABAJXPX80VU6N6QJL5S8RE3GG", "current_trial": 90, "dateTime": 1509129988936, "trialdata": {"rt": -1, "stimulus": "<p id=\"stim\">BARLEY</p>", "key_press": -1, "type": "PRES_VIS", "word": "barley", "wordID": 87, "conditions": [24, 800, "v", 24000], "trial": 2, "serialpos": 1, "trial_type": "single-stim", "trial_index": 90, "time_elapsed": 451555, "internal_node_id": "0.0-63.0"}}, {"uniqueid": "MTK0074:3X66WABAJXPX80VU6N6QJL5S8RE3GG", "current_trial": 91, "dateTime": 1509129990609, "trialdata": {"rt": -1, "stimulus": "<p id=\"stim\">WAITRESS</p>", "key_press": -1, "type": "PRES_VIS", "word": "waitress", "wordID": 1580, "conditions": [24, 800, "v", 24000], "trial": 2, "serialpos": 2, "trial_type": "single-stim", "trial_index": 91, "time_elapsed": 453227, "internal_node_id": "0.0-64.0"}}, {"uniqueid": "MTK0074:3X66WABAJXPX80VU6N6QJL5S8RE3GG", "current_trial": 92, "dateTime": 1509129992603, "trialdata": {"rt": -1, "stimulus": "<p id=\"stim\">BABY</p>", "key_press": -1, "type": "PRES_VIS", "word": "baby", "wordID": 63, "conditions": [24, 800, "v", 24000], "trial": 2, "serialpos": 3, "trial_type": "single-stim", "trial_index": 92, "time_elapsed": 455221, "internal_node_id": "0.0-65.0"}}, {"uniqueid": "MTK0074:3X66WABAJXPX80VU6N6QJL5S8RE3GG", "current_trial": 93, "dateTime": 1509129994360, "trialdata": {"rt": -1, "stimulus": "<p id=\"stim\">PARSLEY</p>", "key_press": -1, "type": "PRES_VIS", "word": "parsley", "wordID": 1015, "conditions": [24, 800, "v", 24000], "trial": 2, "serialpos": 4, "trial_type": "single-stim", "trial_index": 93, "time_elapsed": 456979, "internal_node_id": "0.0-66.0"}}, {"uniqueid": "MTK0074:3X66WABAJXPX80VU6N6QJL5S8RE3GG", "current_trial": 94, "dateTime": 1509129996235, "trialdata": {"rt": -1, "stimulus": "<p id=\"stim\">QUARTER</p>", "key_press": -1, "type": "PRES_VIS", "word": "quarter", "wordID": 1147, "conditions": [24, 800, "v", 24000], "trial": 2, "serialpos": 5, "trial_type": "single-stim", "trial_index": 94, "time_elapsed": 458854, "internal_node_id": "0.0-67.0"}}, {"uniqueid": "MTK0074:3X66WABAJXPX80VU6N6QJL5S8RE3GG", "current_trial": 95, "dateTime": 1509129998014, "trialdata": {"rt": -1, "stimulus": "<p id=\"stim\">SHORTCAKE</p>", "key_press": -1, "type": "PRES_VIS", "word": "shortcake", "wordID": 1291, "conditions": [24, 800, "v", 24000], "trial": 2, "serialpos": 6, "trial_type": "single-stim", "trial_index": 95, "time_elapsed": 460633, "internal_node_id": "0.0-68.0"}}, {"uniqueid": "MTK0074:3X66WABAJXPX80VU6N6QJL5S8RE3GG", "current_trial": 96, "dateTime": 1509129999926, "trialdata": {"rt": -1, "stimulus": "<p id=\"stim\">HOSTESS</p>", "key_press": -1, "type": "PRES_VIS", "word": "hostess", "wordID": 722, "conditions": [24, 800, "v", 24000], "trial": 2, "serialpos": 7, "trial_type": "single-stim", "trial_index": 96, "time_elapsed": 462544, "internal_node_id": "0.0-69.0"}}, {"uniqueid": "MTK0074:3X66WABAJXPX80VU6N6QJL5S8RE3GG", "current_trial": 97, "dateTime": 1509130001917, "trialdata": {"rt": -1, "stimulus": "<p id=\"stim\">HERO</p>", "key_press": -1, "type": "PRES_VIS", "word": "hero", "wordID": 705, "conditions": [24, 800, "v", 24000], "trial": 2, "serialpos": 8, "trial_type": "single-stim", "trial_index": 97, "time_elapsed": 464535, "internal_node_id": "0.0-70.0"}}, {"uniqueid": "MTK0074:3X66WABAJXPX80VU6N6QJL5S8RE3GG", "current_trial": 98, "dateTime": 1509130003635, "trialdata": {"rt": -1, "stimulus": "<p id=\"stim\">HONEY</p>", "key_press": -1, "type": "PRES_VIS", "word": "honey", "wordID": 712, "conditions": [24, 800, "v", 24000], "trial": 2, "serialpos": 9, "trial_type": "single-stim", "trial_index": 98, "time_elapsed": 466252, "internal_node_id": "0.0-71.0"}}, {"uniqueid": "MTK0074:3X66WABAJXPX80VU6N6QJL5S8RE3GG", "current_trial": 99, "dateTime": 1509130005473, "trialdata": {"rt": -1, "stimulus": "<p id=\"stim\">DANDRUFF</p>", "key_press": -1, "type": "PRES_VIS", "word": "dandruff", "wordID": 438, "conditions": [24, 800, "v", 24000], "trial": 2, "serialpos": 10, "trial_type": "single-stim", "trial_index": 99, "time_elapsed": 468091, "internal_node_id": "0.0-72.0"}}, {"uniqueid": "MTK0074:3X66WABAJXPX80VU6N6QJL5S8RE3GG", "current_trial": 100, "dateTime": 1509130007316, "trialdata": {"rt": -1, "stimulus": "<p id=\"stim\">DRINK</p>", "key_press": -1, "type": "PRES_VIS", "word": "drink", "wordID": 497, "conditions": [24, 800, "v", 24000], "trial": 2, "serialpos": 11, "trial_type": "single-stim", "trial_index": 100, "time_elapsed": 469935, "internal_node_id": "0.0-73.0"}}, {"uniqueid": "MTK0074:3X66WABAJXPX80VU6N6QJL5S8RE3GG", "current_trial": 101, "dateTime": 1509130009241, "trialdata": {"rt": -1, "stimulus": "<p id=\"stim\">SKILLET</p>", "key_press": -1, "type": "PRES_VIS", "word": "skillet", "wordID": 1316, "conditions": [24, 800, "v", 24000], "trial": 2, "serialpos": 12, "trial_type": "single-stim", "trial_index": 101, "time_elapsed": 471859, "internal_node_id": "0.0-74.0"}}, {"uniqueid": "MTK0074:3X66WABAJXPX80VU6N6QJL5S8RE3GG", "current_trial": 102, "dateTime": 1509130010974, "trialdata": {"rt": -1, "stimulus": "<p id=\"stim\">CLIMBER</p>", "key_press": -1, "type": "PRES_VIS", "word": "climber", "wordID": 322, "conditions": [24, 800, "v", 24000], "trial": 2, "serialpos": 13, "trial_type": "single-stim", "trial_index": 102, "time_elapsed": 473592, "internal_node_id": "0.0-75.0"}}, {"uniqueid": "MTK0074:3X66WABAJXPX80VU6N6QJL5S8RE3GG", "current_trial": 103, "dateTime": 1509130012645, "trialdata": {"rt": -1, "stimulus": "<p id=\"stim\">TURNIP</p>", "key_press": -1, "type": "PRES_VIS", "word": "turnip", "wordID": 1520, "conditions": [24, 800, "v", 24000], "trial": 2, "serialpos": 14, "trial_type": "single-stim", "trial_index": 103, "time_elapsed": 475264, "internal_node_id": "0.0-76.0"}}, {"uniqueid": "MTK0074:3X66WABAJXPX80VU6N6QJL5S8RE3GG", "current_trial": 104, "dateTime": 1509130014556, "trialdata": {"rt": -1, "stimulus": "<p id=\"stim\">CHIPMUNK</p>", "key_press": -1, "type": "PRES_VIS", "word": "chipmunk", "wordID": 303, "conditions": [24, 800, "v", 24000], "trial": 2, "serialpos": 15, "trial_type": "single-stim", "trial_index": 104, "time_elapsed": 477174, "internal_node_id": "0.0-77.0"}}, {"uniqueid": "MTK0074:3X66WABAJXPX80VU6N6QJL5S8RE3GG", "current_trial": 105, "dateTime": 1509130016647, "trialdata": {"rt": -1, "stimulus": "<p id=\"stim\">HIKER</p>", "key_press": -1, "type": "PRES_VIS", "word": "hiker", "wordID": 707, "conditions": [24, 800, "v", 24000], "trial": 2, "serialpos": 16, "trial_type": "single-stim", "trial_index": 105, "time_elapsed": 479265, "internal_node_id": "0.0-78.0"}}, {"uniqueid": "MTK0074:3X66WABAJXPX80VU6N6QJL5S8RE3GG", "current_trial": 106, "dateTime": 1509130018555, "trialdata": {"rt": -1, "stimulus": "<p id=\"stim\">TOMBSTONE</p>", "key_press": -1, "type": "PRES_VIS", "word": "tombstone", "wordID": 1477, "conditions": [24, 800, "v", 24000], "trial": 2, "serialpos": 17, "trial_type": "single-stim", "trial_index": 106, "time_elapsed": 481173, "internal_node_id": "0.0-79.0"}}, {"uniqueid": "MTK0074:3X66WABAJXPX80VU6N6QJL5S8RE3GG", "current_trial": 107, "dateTime": 1509130020286, "trialdata": {"rt": -1, "stimulus": "<p id=\"stim\">BLOCKADE</p>", "key_press": -1, "type": "PRES_VIS", "word": "blockade", "wordID": 136, "conditions": [24, 800, "v", 24000], "trial": 2, "serialpos": 18, "trial_type": "single-stim", "trial_index": 107, "time_elapsed": 482903, "internal_node_id": "0.0-80.0"}}, {"uniqueid": "MTK0074:3X66WABAJXPX80VU6N6QJL5S8RE3GG", "current_trial": 108, "dateTime": 1509130022257, "trialdata": {"rt": -1, "stimulus": "<p id=\"stim\">VALLEY</p>", "key_press": -1, "type": "PRES_VIS", "word": "valley", "wordID": 1544, "conditions": [24, 800, "v", 24000], "trial": 2, "serialpos": 19, "trial_type": "single-stim", "trial_index": 108, "time_elapsed": 484876, "internal_node_id": "0.0-81.0"}}, {"uniqueid": "MTK0074:3X66WABAJXPX80VU6N6QJL5S8RE3GG", "current_trial": 109, "dateTime": 1509130024166, "trialdata": {"rt": -1, "stimulus": "<p id=\"stim\">WASHER</p>", "key_press": -1, "type": "PRES_VIS", "word": "washer", "wordID": 1591, "conditions": [24, 800, "v", 24000], "trial": 2, "serialpos": 20, "trial_type": "single-stim", "trial_index": 109, "time_elapsed": 486783, "internal_node_id": "0.0-82.0"}}, {"uniqueid": "MTK0074:3X66WABAJXPX80VU6N6QJL5S8RE3GG", "current_trial": 110, "dateTime": 1509130025977, "trialdata": {"rt": -1, "stimulus": "<p id=\"stim\">PASTA</p>", "key_press": -1, "type": "PRES_VIS", "word": "pasta", "wordID": 1020, "conditions": [24, 800, "v", 24000], "trial": 2, "serialpos": 21, "trial_type": "single-stim", "trial_index": 110, "time_elapsed": 488595, "internal_node_id": "0.0-83.0"}}, {"uniqueid": "MTK0074:3X66WABAJXPX80VU6N6QJL5S8RE3GG", "current_trial": 111, "dateTime": 1509130027931, "trialdata": {"rt": -1, "stimulus": "<p id=\"stim\">CUSTARD</p>", "key_press": -1, "type": "PRES_VIS", "word": "custard", "wordID": 428, "conditions": [24, 800, "v", 24000], "trial": 2, "serialpos": 22, "trial_type": "single-stim", "trial_index": 111, "time_elapsed": 490549, "internal_node_id": "0.0-84.0"}}, {"uniqueid": "MTK0074:3X66WABAJXPX80VU6N6QJL5S8RE3GG", "current_trial": 112, "dateTime": 1509130029723, "trialdata": {"rt": -1, "stimulus": "<p id=\"stim\">NAPKIN</p>", "key_press": -1, "type": "PRES_VIS", "word": "napkin", "wordID": 936, "conditions": [24, 800, "v", 24000], "trial": 2, "serialpos": 23, "trial_type": "single-stim", "trial_index": 112, "time_elapsed": 492341, "internal_node_id": "0.0-85.0"}}, {"uniqueid": "MTK0074:3X66WABAJXPX80VU6N6QJL5S8RE3GG", "current_trial": 113, "dateTime": 1509130032186, "trialdata": {"rt": -1, "stimulus": "", "key_press": -1, "type": "PRE_RECALL_DELAY", "trial_type": "single-stim", "trial_index": 113, "time_elapsed": 494804, "internal_node_id": "0.0-86.0-0.0"}}, {"uniqueid": "MTK0074:3X66WABAJXPX80VU6N6QJL5S8RE3GG", "current_trial": 114, "dateTime": 1509130032694, "trialdata": {"rt": -1000, "stimulus": "/static/audio/400Hz.wav", "key_press": -1, "type": "PRE_RECALL_ALERT", "trial_type": "single-audio", "trial_index": 114, "time_elapsed": 495312, "internal_node_id": "0.0-87.0"}}, {"uniqueid": "MTK0074:3X66WABAJXPX80VU6N6QJL5S8RE3GG", "current_trial": 115, "dateTime": 1509130092729, "trialdata": {"rt": [3096, 4653, 6120, 7584, 10856, 12578, 15373, 18775, 26285, 30334, 32308, 40111], "recwords": ["valley", "custard", "washer", "napkin", "waitress", "hostess", "grape", "parsley", "baby", "climber", "dandruff", "diner"], "type": "FREE_RECALL", "conditions": [24, 800, "v", 24000], "trial": 2, "trial_type": "free-recall", "trial_index": 115, "time_elapsed": 555340, "internal_node_id": "0.0-88.0-0.0"}}, {"uniqueid": "MTK0074:3X66WABAJXPX80VU6N6QJL5S8RE3GG", "current_trial": 116, "dateTime": 1509130096200, "trialdata": {"rt": 1462, "key_press": 76, "type": "INSTRUCTIONS", "trial_type": "text", "trial_index": 116, "time_elapsed": 558818, "internal_node_id": "0.0-89.0"}}, {"uniqueid": "MTK0074:3X66WABAJXPX80VU6N6QJL5S8RE3GG", "current_trial": 117, "dateTime": 1509130122227, "trialdata": {"rt": [1883, 5173, 7793, 10590, 12305, 13669, 15962, 18806, 21076, 23166], "responses": ["25", "14", "15", "17", "11", "7", "13", "12", "23", "13"], "num1": [9, 6, 8, 3, 3, 4, 5, 5, 9, 3, 2], "num2": [8, 5, 3, 5, 3, 1, 2, 6, 5, 6, 1], "num3": [8, 3, 4, 9, 5, 2, 6, 1, 9, 4, 4], "type": "DISTRACTOR", "conditions": [12, 1600, "a", 24000], "trial": 3, "trial_type": "math-distractor", "trial_index": 117, "time_elapsed": 584844, "internal_node_id": "0.0-90.0"}}, {"uniqueid": "MTK0074:3X66WABAJXPX80VU6N6QJL5S8RE3GG", "current_trial": 118, "dateTime": 1509130125257, "trialdata": {"rt": -1, "stimulus": "<p id=\"stim\">10</p>", "key_press": -1, "trial_type": "single-stim", "trial_index": 118, "time_elapsed": 587874, "internal_node_id": "0.0-91.0-0.0"}}, {"uniqueid": "MTK0074:3X66WABAJXPX80VU6N6QJL5S8RE3GG", "current_trial": 119, "dateTime": 1509130126274, "trialdata": {"rt": -1, "stimulus": "<p id=\"stim\">9</p>", "key_press": -1, "trial_type": "single-stim", "trial_index": 119, "time_elapsed": 588891, "internal_node_id": "0.0-91.0-1.0"}}, {"uniqueid": "MTK0074:3X66WABAJXPX80VU6N6QJL5S8RE3GG", "current_trial": 120, "dateTime": 1509130127288, "trialdata": {"rt": -1, "stimulus": "<p id=\"stim\">8</p>", "key_press": -1, "trial_type": "single-stim", "trial_index": 120, "time_elapsed": 589906, "internal_node_id": "0.0-91.0-2.0"}}, {"uniqueid": "MTK0074:3X66WABAJXPX80VU6N6QJL5S8RE3GG", "current_trial": 121, "dateTime": 1509130128299, "trialdata": {"rt": -1, "stimulus": "<p id=\"stim\">7</p>", "key_press": -1, "trial_type": "single-stim", "trial_index": 121, "time_elapsed": 590917, "internal_node_id": "0.0-91.0-3.0"}}, {"uniqueid": "MTK0074:3X66WABAJXPX80VU6N6QJL5S8RE3GG", "current_trial": 122, "dateTime": 1509130129319, "trialdata": {"rt": -1, "stimulus": "<p id=\"stim\">6</p>", "key_press": -1, "trial_type": "single-stim", "trial_index": 122, "time_elapsed": 591937, "internal_node_id": "0.0-91.0-4.0"}}, {"uniqueid": "MTK0074:3X66WABAJXPX80VU6N6QJL5S8RE3GG", "current_trial": 123, "dateTime": 1509130130334, "trialdata": {"rt": -1, "stimulus": "<p id=\"stim\">5</p>", "key_press": -1, "trial_type": "single-stim", "trial_index": 123, "time_elapsed": 592952, "internal_node_id": "0.0-91.0-5.0"}}, {"uniqueid": "MTK0074:3X66WABAJXPX80VU6N6QJL5S8RE3GG", "current_trial": 124, "dateTime": 1509130131349, "trialdata": {"rt": -1, "stimulus": "<p id=\"stim\">4</p>", "key_press": -1, "trial_type": "single-stim", "trial_index": 124, "time_elapsed": 593968, "internal_node_id": "0.0-91.0-6.0"}}, {"uniqueid": "MTK0074:3X66WABAJXPX80VU6N6QJL5S8RE3GG", "current_trial": 125, "dateTime": 1509130132365, "trialdata": {"rt": -1, "stimulus": "<p id=\"stim\">3</p>", "key_press": -1, "trial_type": "single-stim", "trial_index": 125, "time_elapsed": 594983, "internal_node_id": "0.0-91.0-7.0"}}, {"uniqueid": "MTK0074:3X66WABAJXPX80VU6N6QJL5S8RE3GG", "current_trial": 126, "dateTime": 1509130133381, "trialdata": {"rt": -1, "stimulus": "<p id=\"stim\">2</p>", "key_press": -1, "trial_type": "single-stim", "trial_index": 126, "time_elapsed": 595999, "internal_node_id": "0.0-91.0-8.0"}}, {"uniqueid": "MTK0074:3X66WABAJXPX80VU6N6QJL5S8RE3GG", "current_trial": 127, "dateTime": 1509130134399, "trialdata": {"rt": -1, "stimulus": "<p id=\"stim\">1</p>", "key_press": -1, "trial_type": "single-stim", "trial_index": 127, "time_elapsed": 597017, "internal_node_id": "0.0-91.0-9.0"}}, {"uniqueid": "MTK0074:3X66WABAJXPX80VU6N6QJL5S8RE3GG", "current_trial": 128, "dateTime": 1509130135918, "trialdata": {"rt": -1, "stimulus": "<p id=\"stim\">+</p>", "key_press": -1, "type": "FIXATION", "trial_type": "single-stim", "trial_index": 128, "time_elapsed": 598537, "internal_node_id": "0.0-92.0-0.0"}}, {"uniqueid": "MTK0074:3X66WABAJXPX80VU6N6QJL5S8RE3GG", "current_trial": 129, "dateTime": 1509130138751, "trialdata": {"rt": -1000, "stimulus": "/static/audio/wordpool/PASTRY.wav", "key_press": -1, "type": "PRES_AUD", "word": "pastry", "wordID": 1021, "conditions": [12, 1600, "a", 24000], "trial": 3, "serialpos": 0, "trial_type": "single-audio", "trial_index": 129, "time_elapsed": 601369, "internal_node_id": "0.0-93.0"}}, {"uniqueid": "MTK0074:3X66WABAJXPX80VU6N6QJL5S8RE3GG", "current_trial": 130, "dateTime": 1509130141242, "trialdata": {"rt": -1000, "stimulus": "/static/audio/wordpool/UMPIRE.wav", "key_press": -1, "type": "PRES_AUD", "word": "umpire", "wordID": 1534, "conditions": [12, 1600, "a", 24000], "trial": 3, "serialpos": 1, "trial_type": "single-audio", "trial_index": 130, "time_elapsed": 603861, "internal_node_id": "0.0-94.0"}}, {"uniqueid": "MTK0074:3X66WABAJXPX80VU6N6QJL5S8RE3GG", "current_trial": 131, "dateTime": 1509130143742, "trialdata": {"rt": -1000, "stimulus": "/static/audio/wordpool/VELVET.wav", "key_press": -1, "type": "PRES_AUD", "word": "velvet", "wordID": 1554, "conditions": [12, 1600, "a", 24000], "trial": 3, "serialpos": 2, "trial_type": "single-audio", "trial_index": 131, "time_elapsed": 606361, "internal_node_id": "0.0-95.0"}}, {"uniqueid": "MTK0074:3X66WABAJXPX80VU6N6QJL5S8RE3GG", "current_trial": 132, "dateTime": 1509130146272, "trialdata": {"rt": -1000, "stimulus": "/static/audio/wordpool/PARROT.wav", "key_press": -1, "type": "PRES_AUD", "word": "parrot", "wordID": 1014, "conditions": [12, 1600, "a", 24000], "trial": 3, "serialpos": 3, "trial_type": "single-audio", "trial_index": 132, "time_elapsed": 608891, "internal_node_id": "0.0-96.0"}}, {"uniqueid": "MTK0074:3X66WABAJXPX80VU6N6QJL5S8RE3GG", "current_trial": 133, "dateTime": 1509130149004, "trialdata": {"rt": -1000, "stimulus": "/static/audio/wordpool/MAILMAN.wav", "key_press": -1, "type": "PRES_AUD", "word": "mailman", "wordID": 857, "conditions": [12, 1600, "a", 24000], "trial": 3, "serialpos": 4, "trial_type": "single-audio", "trial_index": 133, "time_elapsed": 611623, "internal_node_id": "0.0-97.0"}}, {"uniqueid": "MTK0074:3X66WABAJXPX80VU6N6QJL5S8RE3GG", "current_trial": 134, "dateTime": 1509130151566, "trialdata": {"rt": -1000, "stimulus": "/static/audio/wordpool/COMET.wav", "key_press": -1, "type": "PRES_AUD", "word": "comet", "wordID": 352, "conditions": [12, 1600, "a", 24000], "trial": 3, "serialpos": 5, "trial_type": "single-audio", "trial_index": 134, "time_elapsed": 614184, "internal_node_id": "0.0-98.0"}}, {"uniqueid": "MTK0074:3X66WABAJXPX80VU6N6QJL5S8RE3GG", "current_trial": 135, "dateTime": 1509130154306, "trialdata": {"rt": -1000, "stimulus": "/static/audio/wordpool/CAMEL.wav", "key_press": -1, "type": "PRES_AUD", "word": "camel", "wordID": 222, "conditions": [12, 1600, "a", 24000], "trial": 3, "serialpos": 6, "trial_type": "single-audio", "trial_index": 135, "time_elapsed": 616924, "internal_node_id": "0.0-99.0"}}, {"uniqueid": "MTK0074:3X66WABAJXPX80VU6N6QJL5S8RE3GG", "current_trial": 136, "dateTime": 1509130157085, "trialdata": {"rt": -1000, "stimulus": "/static/audio/wordpool/EAGLE.wav", "key_press": -1, "type": "PRES_AUD", "word": "eagle", "wordID": 511, "conditions": [12, 1600, "a", 24000], "trial": 3, "serialpos": 7, "trial_type": "single-audio", "trial_index": 136, "time_elapsed": 619704, "internal_node_id": "0.0-100.0"}}, {"uniqueid": "MTK0074:3X66WABAJXPX80VU6N6QJL5S8RE3GG", "current_trial": 137, "dateTime": 1509130159764, "trialdata": {"rt": -1000, "stimulus": "/static/audio/wordpool/MUMMY.wav", "key_press": -1, "type": "PRES_AUD", "word": "mummy", "wordID": 931, "conditions": [12, 1600, "a", 24000], "trial": 3, "serialpos": 8, "trial_type": "single-audio", "trial_index": 137, "time_elapsed": 622382, "internal_node_id": "0.0-101.0"}}, {"uniqueid": "MTK0074:3X66WABAJXPX80VU6N6QJL5S8RE3GG", "current_trial": 138, "dateTime": 1509130162232, "trialdata": {"rt": -1000, "stimulus": "/static/audio/wordpool/BUNNY.wav", "key_press": -1, "type": "PRES_AUD", "word": "bunny", "wordID": 197, "conditions": [12, 1600, "a", 24000], "trial": 3, "serialpos": 9, "trial_type": "single-audio", "trial_index": 138, "time_elapsed": 624851, "internal_node_id": "0.0-102.0"}}, {"uniqueid": "MTK0074:3X66WABAJXPX80VU6N6QJL5S8RE3GG", "current_trial": 139, "dateTime": 1509130164826, "trialdata": {"rt": -1000, "stimulus": "/static/audio/wordpool/PUPPY.wav", "key_press": -1, "type": "PRES_AUD", "word": "puppy", "wordID": 1143, "conditions": [12, 1600, "a", 24000], "trial": 3, "serialpos": 10, "trial_type": "single-audio", "trial_index": 139, "time_elapsed": 627445, "internal_node_id": "0.0-103.0"}}, {"uniqueid": "MTK0074:3X66WABAJXPX80VU6N6QJL5S8RE3GG", "current_trial": 140, "dateTime": 1509130167561, "trialdata": {"rt": -1000, "stimulus": "/static/audio/wordpool/PLAID.wav", "key_press": -1, "type": "PRES_AUD", "word": "plaid", "wordID": 1079, "conditions": [12, 1600, "a", 24000], "trial": 3, "serialpos": 11, "trial_type": "single-audio", "trial_index": 140, "time_elapsed": 630179, "internal_node_id": "0.0-104.0"}}, {"uniqueid": "MTK0074:3X66WABAJXPX80VU6N6QJL5S8RE3GG", "current_trial": 141, "dateTime": 1509130168974, "trialdata": {"rt": -1, "stimulus": "", "key_press": -1, "type": "PRE_RECALL_DELAY", "trial_type": "single-stim", "trial_index": 141, "time_elapsed": 631592, "internal_node_id": "0.0-105.0-0.0"}}, {"uniqueid": "MTK0074:3X66WABAJXPX80VU6N6QJL5S8RE3GG", "current_trial": 142, "dateTime": 1509130169489, "trialdata": {"rt": -1000, "stimulus": "/static/audio/400Hz.wav", "key_press": -1, "type": "PRE_RECALL_ALERT", "trial_type": "single-audio", "trial_index": 142, "time_elapsed": 632108, "internal_node_id": "0.0-106.0"}}, {"uniqueid": "MTK0074:3X66WABAJXPX80VU6N6QJL5S8RE3GG", "current_trial": 143, "dateTime": 1509130229557, "trialdata": {"rt": [2060, 3961, 6162, 7374, 10963, 17220], "recwords": ["plaid", "bunny", "puppy", "camel", "mummy", "pastry"], "type": "FREE_RECALL", "conditions": [12, 1600, "a", 24000], "trial": 3, "trial_type": "free-recall", "trial_index": 143, "time_elapsed": 692167, "internal_node_id": "0.0-107.0-0.0"}}, {"uniqueid": "MTK0074:3X66WABAJXPX80VU6N6QJL5S8RE3GG", "current_trial": 144, "dateTime": 1509130232611, "trialdata": {"rt": 926, "key_press": 76, "type": "INSTRUCTIONS", "trial_type": "text", "trial_index": 144, "time_elapsed": 695229, "internal_node_id": "0.0-108.0"}}, {"uniqueid": "MTK0074:3X66WABAJXPX80VU6N6QJL5S8RE3GG", "current_trial": 145, "dateTime": 1509130246756, "trialdata": {"rt": [2330, 4242, 6327, 8157, 10074, 12105], "responses": ["14", "9", "16", "16", "16", "12"], "num1": [7, 2, 9, 8, 2, 2, 8], "num2": [3, 5, 2, 1, 6, 7, 5], "num3": [4, 2, 5, 7, 8, 3, 4], "type": "DISTRACTOR", "conditions": [24, 800, "a", 12000], "trial": 4, "trial_type": "math-distractor", "trial_index": 145, "time_elapsed": 709374, "internal_node_id": "0.0-109.0"}}, {"uniqueid": "MTK0074:3X66WABAJXPX80VU6N6QJL5S8RE3GG", "current_trial": 146, "dateTime": 1509130249804, "trialdata": {"rt": -1, "stimulus": "<p id=\"stim\">10</p>", "key_press": -1, "trial_type": "single-stim", "trial_index": 146, "time_elapsed": 712419, "internal_node_id": "0.0-110.0-0.0"}}, {"uniqueid": "MTK0074:3X66WABAJXPX80VU6N6QJL5S8RE3GG", "current_trial": 147, "dateTime": 1509130250817, "trialdata": {"rt": -1, "stimulus": "<p id=\"stim\">9</p>", "key_press": -1, "trial_type": "single-stim", "trial_index": 147, "time_elapsed": 713435, "internal_node_id": "0.0-110.0-1.0"}}, {"uniqueid": "MTK0074:3X66WABAJXPX80VU6N6QJL5S8RE3GG", "current_trial": 148, "dateTime": 1509130251834, "trialdata": {"rt": -1, "stimulus": "<p id=\"stim\">8</p>", "key_press": -1, "trial_type": "single-stim", "trial_index": 148, "time_elapsed": 714452, "internal_node_id": "0.0-110.0-2.0"}}, {"uniqueid": "MTK0074:3X66WABAJXPX80VU6N6QJL5S8RE3GG", "current_trial": 149, "dateTime": 1509130252986, "trialdata": {"rt": -1, "stimulus": "<p id=\"stim\">7</p>", "key_press": -1, "trial_type": "single-stim", "trial_index": 149, "time_elapsed": 715605, "internal_node_id": "0.0-110.0-3.0"}}, {"uniqueid": "MTK0074:3X66WABAJXPX80VU6N6QJL5S8RE3GG", "current_trial": 150, "dateTime": 1509130254003, "trialdata": {"rt": -1, "stimulus": "<p id=\"stim\">6</p>", "key_press": -1, "trial_type": "single-stim", "trial_index": 150, "time_elapsed": 716622, "internal_node_id": "0.0-110.0-4.0"}}, {"uniqueid": "MTK0074:3X66WABAJXPX80VU6N6QJL5S8RE3GG", "current_trial": 151, "dateTime": 1509130255019, "trialdata": {"rt": -1, "stimulus": "<p id=\"stim\">5</p>", "key_press": -1, "trial_type": "single-stim", "trial_index": 151, "time_elapsed": 717637, "internal_node_id": "0.0-110.0-5.0"}}, {"uniqueid": "MTK0074:3X66WABAJXPX80VU6N6QJL5S8RE3GG", "current_trial": 152, "dateTime": 1509130256035, "trialdata": {"rt": -1, "stimulus": "<p id=\"stim\">4</p>", "key_press": -1, "trial_type": "single-stim", "trial_index": 152, "time_elapsed": 718653, "internal_node_id": "0.0-110.0-6.0"}}, {"uniqueid": "MTK0074:3X66WABAJXPX80VU6N6QJL5S8RE3GG", "current_trial": 153, "dateTime": 1509130257054, "trialdata": {"rt": -1, "stimulus": "<p id=\"stim\">3</p>", "key_press": -1, "trial_type": "single-stim", "trial_index": 153, "time_elapsed": 719670, "internal_node_id": "0.0-110.0-7.0"}}, {"uniqueid": "MTK0074:3X66WABAJXPX80VU6N6QJL5S8RE3GG", "current_trial": 154, "dateTime": 1509130258067, "trialdata": {"rt": -1, "stimulus": "<p id=\"stim\">2</p>", "key_press": -1, "trial_type": "single-stim", "trial_index": 154, "time_elapsed": 720685, "internal_node_id": "0.0-110.0-8.0"}}, {"uniqueid": "MTK0074:3X66WABAJXPX80VU6N6QJL5S8RE3GG", "current_trial": 155, "dateTime": 1509130259097, "trialdata": {"rt": -1, "stimulus": "<p id=\"stim\">1</p>", "key_press": -1, "trial_type": "single-stim", "trial_index": 155, "time_elapsed": 721715, "internal_node_id": "0.0-110.0-9.0"}}, {"uniqueid": "MTK0074:3X66WABAJXPX80VU6N6QJL5S8RE3GG", "current_trial": 156, "dateTime": 1509130260600, "trialdata": {"rt": -1, "stimulus": "<p id=\"stim\">+</p>", "key_press": -1, "type": "FIXATION", "trial_type": "single-stim", "trial_index": 156, "time_elapsed": 723218, "internal_node_id": "0.0-111.0-0.0"}}, {"uniqueid": "MTK0074:3X66WABAJXPX80VU6N6QJL5S8RE3GG", "current_trial": 157, "dateTime": 1509130262353, "trialdata": {"rt": -1000, "stimulus": "/static/audio/wordpool/SUNRISE.wav", "key_press": -1, "type": "PRES_AUD", "word": "sunrise", "wordID": 1406, "conditions": [24, 800, "a", 12000], "trial": 4, "serialpos": 0, "trial_type": "single-audio", "trial_index": 157, "time_elapsed": 724971, "internal_node_id": "0.0-112.0"}}, {"uniqueid": "MTK0074:3X66WABAJXPX80VU6N6QJL5S8RE3GG", "current_trial": 158, "dateTime": 1509130264194, "trialdata": {"rt": -1000, "stimulus": "/static/audio/wordpool/CABBAGE.wav", "key_press": -1, "type": "PRES_AUD", "word": "cabbage", "wordID": 209, "conditions": [24, 800, "a", 12000], "trial": 4, "serialpos": 1, "trial_type": "single-audio", "trial_index": 158, "time_elapsed": 726813, "internal_node_id": "0.0-113.0"}}, {"uniqueid": "MTK0074:3X66WABAJXPX80VU6N6QJL5S8RE3GG", "current_trial": 159, "dateTime": 1509130265867, "trialdata": {"rt": -1000, "stimulus": "/static/audio/wordpool/ROBBER.wav", "key_press": -1, "type": "PRES_AUD", "word": "robber", "wordID": 1196, "conditions": [24, 800, "a", 12000], "trial": 4, "serialpos": 2, "trial_type": "single-audio", "trial_index": 159, "time_elapsed": 728485, "internal_node_id": "0.0-114.0"}}, {"uniqueid": "MTK0074:3X66WABAJXPX80VU6N6QJL5S8RE3GG", "current_trial": 160, "dateTime": 1509130267769, "trialdata": {"rt": -1000, "stimulus": "/static/audio/wordpool/CURTAIN.wav", "key_press": -1, "type": "PRES_AUD", "word": "curtain", "wordID": 426, "conditions": [24, 800, "a", 12000], "trial": 4, "serialpos": 3, "trial_type": "single-audio", "trial_index": 160, "time_elapsed": 730387, "internal_node_id": "0.0-115.0"}}, {"uniqueid": "MTK0074:3X66WABAJXPX80VU6N6QJL5S8RE3GG", "current_trial": 161, "dateTime": 1509130269449, "trialdata": {"rt": -1000, "stimulus": "/static/audio/wordpool/HOOK.wav", "key_press": -1, "type": "PRES_AUD", "word": "hook", "wordID": 714, "conditions": [24, 800, "a", 12000], "trial": 4, "serialpos": 4, "trial_type": "single-audio", "trial_index": 161, "time_elapsed": 732067, "internal_node_id": "0.0-116.0"}}, {"uniqueid": "MTK0074:3X66WABAJXPX80VU6N6QJL5S8RE3GG", "current_trial": 162, "dateTime": 1509130271336, "trialdata": {"rt": -1000, "stimulus": "/static/audio/wordpool/BRACES.wav", "key_press": -1, "type": "PRES_AUD", "word": "braces", "wordID": 163, "conditions": [24, 800, "a", 12000], "trial": 4, "serialpos": 5, "trial_type": "single-audio", "trial_index": 162, "time_elapsed": 733954, "internal_node_id": "0.0-117.0"}}, {"uniqueid": "MTK0074:3X66WABAJXPX80VU6N6QJL5S8RE3GG", "current_trial": 163, "dateTime": 1509130273349, "trialdata": {"rt": -1000, "stimulus": "/static/audio/wordpool/TOURIST.wav", "key_press": -1, "type": "PRES_AUD", "word": "tourist", "wordID": 1487, "conditions": [24, 800, "a", 12000], "trial": 4, "serialpos": 6, "trial_type": "single-audio", "trial_index": 163, "time_elapsed": 735967, "internal_node_id": "0.0-118.0"}}, {"uniqueid": "MTK0074:3X66WABAJXPX80VU6N6QJL5S8RE3GG", "current_trial": 164, "dateTime": 1509130275070, "trialdata": {"rt": -1000, "stimulus": "/static/audio/wordpool/ATLAS.wav", "key_press": -1, "type": "PRES_AUD", "word": "atlas", "wordID": 52, "conditions": [24, 800, "a", 12000], "trial": 4, "serialpos": 7, "trial_type": "single-audio", "trial_index": 164, "time_elapsed": 737688, "internal_node_id": "0.0-119.0"}}, {"uniqueid": "MTK0074:3X66WABAJXPX80VU6N6QJL5S8RE3GG", "current_trial": 165, "dateTime": 1509130276790, "trialdata": {"rt": -1000, "stimulus": "/static/audio/wordpool/JAPAN.wav", "key_press": -1, "type": "PRES_AUD", "word": "japan", "wordID": 748, "conditions": [24, 800, "a", 12000], "trial": 4, "serialpos": 8, "trial_type": "single-audio", "trial_index": 165, "time_elapsed": 739408, "internal_node_id": "0.0-120.0"}}, {"uniqueid": "MTK0074:3X66WABAJXPX80VU6N6QJL5S8RE3GG", "current_trial": 166, "dateTime": 1509130278516, "trialdata": {"rt": -1000, "stimulus": "/static/audio/wordpool/EUROPE.wav", "key_press": -1, "type": "PRES_AUD", "word": "europe", "wordID": 540, "conditions": [24, 800, "a", 12000], "trial": 4, "serialpos": 9, "trial_type": "single-audio", "trial_index": 166, "time_elapsed": 741134, "internal_node_id": "0.0-121.0"}}, {"uniqueid": "MTK0074:3X66WABAJXPX80VU6N6QJL5S8RE3GG", "current_trial": 167, "dateTime": 1509130280251, "trialdata": {"rt": -1000, "stimulus": "/static/audio/wordpool/GRILL.wav", "key_press": -1, "type": "PRES_AUD", "word": "grill", "wordID": 660, "conditions": [24, 800, "a", 12000], "trial": 4, "serialpos": 10, "trial_type": "single-audio", "trial_index": 167, "time_elapsed": 742869, "internal_node_id": "0.0-122.0"}}, {"uniqueid": "MTK0074:3X66WABAJXPX80VU6N6QJL5S8RE3GG", "current_trial": 168, "dateTime": 1509130281892, "trialdata": {"rt": -1000, "stimulus": "/static/audio/wordpool/SUNSET.wav", "key_press": -1, "type": "PRES_AUD", "word": "sunset", "wordID": 1407, "conditions": [24, 800, "a", 12000], "trial": 4, "serialpos": 11, "trial_type": "single-audio", "trial_index": 168, "time_elapsed": 744511, "internal_node_id": "0.0-123.0"}}, {"uniqueid": "MTK0074:3X66WABAJXPX80VU6N6QJL5S8RE3GG", "current_trial": 169, "dateTime": 1509130283738, "trialdata": {"rt": -1000, "stimulus": "/static/audio/wordpool/MISTER.wav", "key_press": -1, "type": "PRES_AUD", "word": "mister", "wordID": 900, "conditions": [24, 800, "a", 12000], "trial": 4, "serialpos": 12, "trial_type": "single-audio", "trial_index": 169, "time_elapsed": 746355, "internal_node_id": "0.0-124.0"}}, {"uniqueid": "MTK0074:3X66WABAJXPX80VU6N6QJL5S8RE3GG", "current_trial": 170, "dateTime": 1509130285706, "trialdata": {"rt": -1000, "stimulus": "/static/audio/wordpool/RIVER.wav", "key_press": -1, "type": "PRES_AUD", "word": "river", "wordID": 1193, "conditions": [24, 800, "a", 12000], "trial": 4, "serialpos": 13, "trial_type": "single-audio", "trial_index": 170, "time_elapsed": 748324, "internal_node_id": "0.0-125.0"}}, {"uniqueid": "MTK0074:3X66WABAJXPX80VU6N6QJL5S8RE3GG", "current_trial": 171, "dateTime": 1509130287421, "trialdata": {"rt": -1000, "stimulus": "/static/audio/wordpool/FOX.wav", "key_press": -1, "type": "PRES_AUD", "word": "fox", "wordID": 597, "conditions": [24, 800, "a", 12000], "trial": 4, "serialpos": 14, "trial_type": "single-audio", "trial_index": 171, "time_elapsed": 750039, "internal_node_id": "0.0-126.0"}}, {"uniqueid": "MTK0074:3X66WABAJXPX80VU6N6QJL5S8RE3GG", "current_trial": 172, "dateTime": 1509130289352, "trialdata": {"rt": -1000, "stimulus": "/static/audio/wordpool/LIZARD.wav", "key_press": -1, "type": "PRES_AUD", "word": "lizard", "wordID": 833, "conditions": [24, 800, "a", 12000], "trial": 4, "serialpos": 15, "trial_type": "single-audio", "trial_index": 172, "time_elapsed": 751969, "internal_node_id": "0.0-127.0"}}, {"uniqueid": "MTK0074:3X66WABAJXPX80VU6N6QJL5S8RE3GG", "current_trial": 173, "dateTime": 1509130291067, "trialdata": {"rt": -1000, "stimulus": "/static/audio/wordpool/BROOK.wav", "key_press": -1, "type": "PRES_AUD", "word": "brook", "wordID": 176, "conditions": [24, 800, "a", 12000], "trial": 4, "serialpos": 16, "trial_type": "single-audio", "trial_index": 173, "time_elapsed": 753684, "internal_node_id": "0.0-128.0"}}, {"uniqueid": "MTK0074:3X66WABAJXPX80VU6N6QJL5S8RE3GG", "current_trial": 174, "dateTime": 1509130293020, "trialdata": {"rt": -1000, "stimulus": "/static/audio/wordpool/STOVE.wav", "key_press": -1, "type": "PRES_AUD", "word": "stove", "wordID": 1387, "conditions": [24, 800, "a", 12000], "trial": 4, "serialpos": 17, "trial_type": "single-audio", "trial_index": 174, "time_elapsed": 755637, "internal_node_id": "0.0-129.0"}}, {"uniqueid": "MTK0074:3X66WABAJXPX80VU6N6QJL5S8RE3GG", "current_trial": 175, "dateTime": 1509130294934, "trialdata": {"rt": -1000, "stimulus": "/static/audio/wordpool/AGENT.wav", "key_press": -1, "type": "PRES_AUD", "word": "agent", "wordID": 9, "conditions": [24, 800, "a", 12000], "trial": 4, "serialpos": 18, "trial_type": "single-audio", "trial_index": 175, "time_elapsed": 757552, "internal_node_id": "0.0-130.0"}}, {"uniqueid": "MTK0074:3X66WABAJXPX80VU6N6QJL5S8RE3GG", "current_trial": 176, "dateTime": 1509130296902, "trialdata": {"rt": -1000, "stimulus": "/static/audio/wordpool/FOREHEAD.wav", "key_press": -1, "type": "PRES_AUD", "word": "forehead", "wordID": 591, "conditions": [24, 800, "a", 12000], "trial": 4, "serialpos": 19, "trial_type": "single-audio", "trial_index": 176, "time_elapsed": 759520, "internal_node_id": "0.0-131.0"}}, {"uniqueid": "MTK0074:3X66WABAJXPX80VU6N6QJL5S8RE3GG", "current_trial": 177, "dateTime": 1509130298558, "trialdata": {"rt": -1000, "stimulus": "/static/audio/wordpool/SHOULDER.wav", "key_press": -1, "type": "PRES_AUD", "word": "shoulder", "wordID": 1293, "conditions": [24, 800, "a", 12000], "trial": 4, "serialpos": 20, "trial_type": "single-audio", "trial_index": 177, "time_elapsed": 761176, "internal_node_id": "0.0-132.0"}}, {"uniqueid": "MTK0074:3X66WABAJXPX80VU6N6QJL5S8RE3GG", "current_trial": 178, "dateTime": 1509130300249, "trialdata": {"rt": -1000, "stimulus": "/static/audio/wordpool/ICING.wav", "key_press": -1, "type": "PRES_AUD", "word": "icing", "wordID": 731, "conditions": [24, 800, "a", 12000], "trial": 4, "serialpos": 21, "trial_type": "single-audio", "trial_index": 178, "time_elapsed": 762865, "internal_node_id": "0.0-133.0"}}, {"uniqueid": "MTK0074:3X66WABAJXPX80VU6N6QJL5S8RE3GG", "current_trial": 179, "dateTime": 1509130301880, "trialdata": {"rt": -1000, "stimulus": "/static/audio/wordpool/LION.wav", "key_press": -1, "type": "PRES_AUD", "word": "lion", "wordID": 826, "conditions": [24, 800, "a", 12000], "trial": 4, "serialpos": 22, "trial_type": "single-audio", "trial_index": 179, "time_elapsed": 764499, "internal_node_id": "0.0-134.0"}}, {"uniqueid": "MTK0074:3X66WABAJXPX80VU6N6QJL5S8RE3GG", "current_trial": 180, "dateTime": 1509130303574, "trialdata": {"rt": -1000, "stimulus": "/static/audio/wordpool/BROTHER.wav", "key_press": -1, "type": "PRES_AUD", "word": "brother", "wordID": 178, "conditions": [24, 800, "a", 12000], "trial": 4, "serialpos": 23, "trial_type": "single-audio", "trial_index": 180, "time_elapsed": 766192, "internal_node_id": "0.0-135.0"}}, {"uniqueid": "MTK0074:3X66WABAJXPX80VU6N6QJL5S8RE3GG", "current_trial": 181, "dateTime": 1509130305051, "trialdata": {"rt": -1, "stimulus": "", "key_press": -1, "type": "PRE_RECALL_DELAY", "trial_type": "single-stim", "trial_index": 181, "time_elapsed": 767669, "internal_node_id": "0.0-136.0-0.0"}}, {"uniqueid": "MTK0074:3X66WABAJXPX80VU6N6QJL5S8RE3GG", "current_trial": 182, "dateTime": 1509130305563, "trialdata": {"rt": -1000, "stimulus": "/static/audio/400Hz.wav", "key_press": -1, "type": "PRE_RECALL_ALERT", "trial_type": "single-audio", "trial_index": 182, "time_elapsed": 768182, "internal_node_id": "0.0-137.0"}}, {"uniqueid": "MTK0074:3X66WABAJXPX80VU6N6QJL5S8RE3GG", "current_trial": 183, "dateTime": 1509130365595, "trialdata": {"rt": [1620, 4392, 5890, 8003, 10469, 14751, 16420, 17666, 18931, 20208, 26302, 37298, 41424], "recwords": ["lion", "brother", "icing", "forehead", "lion", "curtain", "sunrise", "sunset", "hook", "grill", "japan", "fox", "shoulder"], "type": "FREE_RECALL", "conditions": [24, 800, "a", 12000], "trial": 4, "trial_type": "free-recall", "trial_index": 183, "time_elapsed": 828202, "internal_node_id": "0.0-138.0-0.0"}}, {"uniqueid": "MTK0074:3X66WABAJXPX80VU6N6QJL5S8RE3GG", "current_trial": 184, "dateTime": 1509130369370, "trialdata": {"rt": 1763, "key_press": 75, "type": "INSTRUCTIONS", "trial_type": "text", "trial_index": 184, "time_elapsed": 831987, "internal_node_id": "0.0-139.0"}}, {"uniqueid": "MTK0074:3X66WABAJXPX80VU6N6QJL5S8RE3GG", "current_trial": 185, "dateTime": 1509130383461, "trialdata": {"rt": [2664, 4577, 6711, 8711, 10441], "responses": ["13", "12", "13", "10", "11"], "num1": [1, 1, 7, 5, 3, 1], "num2": [8, 2, 3, 4, 7, 3], "num3": [3, 9, 3, 1, 1, 4], "type": "DISTRACTOR", "conditions": [12, 800, "v", 12000], "trial": 5, "trial_type": "math-distractor", "trial_index": 185, "time_elapsed": 846079, "internal_node_id": "0.0-140.0"}}, {"uniqueid": "MTK0074:3X66WABAJXPX80VU6N6QJL5S8RE3GG", "current_trial": 186, "dateTime": 1509130386588, "trialdata": {"rt": -1, "stimulus": "<p id=\"stim\">10</p>", "key_press": -1, "trial_type": "single-stim", "trial_index": 186, "time_elapsed": 849205, "internal_node_id": "0.0-141.0-0.0"}}, {"uniqueid": "MTK0074:3X66WABAJXPX80VU6N6QJL5S8RE3GG", "current_trial": 187, "dateTime": 1509130387675, "trialdata": {"rt": -1, "stimulus": "<p id=\"stim\">9</p>", "key_press": -1, "trial_type": "single-stim", "trial_index": 187, "time_elapsed": 850292, "internal_node_id": "0.0-141.0-1.0"}}, {"uniqueid": "MTK0074:3X66WABAJXPX80VU6N6QJL5S8RE3GG", "current_trial": 188, "dateTime": 1509130388765, "trialdata": {"rt": -1, "stimulus": "<p id=\"stim\">8</p>", "key_press": -1, "trial_type": "single-stim", "trial_index": 188, "time_elapsed": 851384, "internal_node_id": "0.0-141.0-2.0"}}, {"uniqueid": "MTK0074:3X66WABAJXPX80VU6N6QJL5S8RE3GG", "current_trial": 189, "dateTime": 1509130389769, "trialdata": {"rt": -1, "stimulus": "<p id=\"stim\">7</p>", "key_press": -1, "trial_type": "single-stim", "trial_index": 189, "time_elapsed": 852387, "internal_node_id": "0.0-141.0-3.0"}}, {"uniqueid": "MTK0074:3X66WABAJXPX80VU6N6QJL5S8RE3GG", "current_trial": 190, "dateTime": 1509130390775, "trialdata": {"rt": -1, "stimulus": "<p id=\"stim\">6</p>", "key_press": -1, "trial_type": "single-stim", "trial_index": 190, "time_elapsed": 853393, "internal_node_id": "0.0-141.0-4.0"}}, {"uniqueid": "MTK0074:3X66WABAJXPX80VU6N6QJL5S8RE3GG", "current_trial": 191, "dateTime": 1509130391792, "trialdata": {"rt": -1, "stimulus": "<p id=\"stim\">5</p>", "key_press": -1, "trial_type": "single-stim", "trial_index": 191, "time_elapsed": 854410, "internal_node_id": "0.0-141.0-5.0"}}, {"uniqueid": "MTK0074:3X66WABAJXPX80VU6N6QJL5S8RE3GG", "current_trial": 192, "dateTime": 1509130392824, "trialdata": {"rt": -1, "stimulus": "<p id=\"stim\">4</p>", "key_press": -1, "trial_type": "single-stim", "trial_index": 192, "time_elapsed": 855443, "internal_node_id": "0.0-141.0-6.0"}}, {"uniqueid": "MTK0074:3X66WABAJXPX80VU6N6QJL5S8RE3GG", "current_trial": 193, "dateTime": 1509130393841, "trialdata": {"rt": -1, "stimulus": "<p id=\"stim\">3</p>", "key_press": -1, "trial_type": "single-stim", "trial_index": 193, "time_elapsed": 856459, "internal_node_id": "0.0-141.0-7.0"}}, {"uniqueid": "MTK0074:3X66WABAJXPX80VU6N6QJL5S8RE3GG", "current_trial": 194, "dateTime": 1509130394856, "trialdata": {"rt": -1, "stimulus": "<p id=\"stim\">2</p>", "key_press": -1, "trial_type": "single-stim", "trial_index": 194, "time_elapsed": 857475, "internal_node_id": "0.0-141.0-8.0"}}, {"uniqueid": "MTK0074:3X66WABAJXPX80VU6N6QJL5S8RE3GG", "current_trial": 195, "dateTime": 1509130395930, "trialdata": {"rt": -1, "stimulus": "<p id=\"stim\">1</p>", "key_press": -1, "trial_type": "single-stim", "trial_index": 195, "time_elapsed": 858548, "internal_node_id": "0.0-141.0-9.0"}}, {"uniqueid": "MTK0074:3X66WABAJXPX80VU6N6QJL5S8RE3GG", "current_trial": 196, "dateTime": 1509130397443, "trialdata": {"rt": -1, "stimulus": "<p id=\"stim\">+</p>", "key_press": -1, "type": "FIXATION", "trial_type": "single-stim", "trial_index": 196, "time_elapsed": 860061, "internal_node_id": "0.0-142.0-0.0"}}, {"uniqueid": "MTK0074:3X66WABAJXPX80VU6N6QJL5S8RE3GG", "current_trial": 197, "dateTime": 1509130398261, "trialdata": {"rt": -1, "stimulus": "<p id=\"stim\">CROWN</p>", "key_press": -1, "type": "PRES_VIS", "word": "crown", "wordID": 414, "conditions": [12, 800, "v", 12000], "trial": 5, "serialpos": 0, "trial_type": "single-stim", "trial_index": 197, "time_elapsed": 860879, "internal_node_id": "0.0-143.0"}}, {"uniqueid": "MTK0074:3X66WABAJXPX80VU6N6QJL5S8RE3GG", "current_trial": 198, "dateTime": 1509130399939, "trialdata": {"rt": -1, "stimulus": "<p id=\"stim\">SALT</p>", "key_press": -1, "type": "PRES_VIS", "word": "salt", "wordID": 1228, "conditions": [12, 800, "v", 12000], "trial": 5, "serialpos": 1, "trial_type": "single-stim", "trial_index": 198, "time_elapsed": 862557, "internal_node_id": "0.0-144.0"}}, {"uniqueid": "MTK0074:3X66WABAJXPX80VU6N6QJL5S8RE3GG", "current_trial": 199, "dateTime": 1509130401932, "trialdata": {"rt": -1, "stimulus": "<p id=\"stim\">CRAB</p>", "key_press": -1, "type": "PRES_VIS", "word": "crab", "wordID": 396, "conditions": [12, 800, "v", 12000], "trial": 5, "serialpos": 2, "trial_type": "single-stim", "trial_index": 199, "time_elapsed": 864550, "internal_node_id": "0.0-145.0"}}, {"uniqueid": "MTK0074:3X66WABAJXPX80VU6N6QJL5S8RE3GG", "current_trial": 200, "dateTime": 1509130403548, "trialdata": {"rt": -1, "stimulus": "<p id=\"stim\">TWEEZERS</p>", "key_press": -1, "type": "PRES_VIS", "word": "tweezers", "wordID": 1525, "conditions": [12, 800, "v", 12000], "trial": 5, "serialpos": 3, "trial_type": "single-stim", "trial_index": 200, "time_elapsed": 866166, "internal_node_id": "0.0-146.0"}}, {"uniqueid": "MTK0074:3X66WABAJXPX80VU6N6QJL5S8RE3GG", "current_trial": 201, "dateTime": 1509130405238, "trialdata": {"rt": -1, "stimulus": "<p id=\"stim\">FLIPPER</p>", "key_press": -1, "type": "PRES_VIS", "word": "flipper", "wordID": 579, "conditions": [12, 800, "v", 12000], "trial": 5, "serialpos": 4, "trial_type": "single-stim", "trial_index": 201, "time_elapsed": 867856, "internal_node_id": "0.0-147.0"}}, {"uniqueid": "MTK0074:3X66WABAJXPX80VU6N6QJL5S8RE3GG", "current_trial": 202, "dateTime": 1509130407144, "trialdata": {"rt": -1, "stimulus": "<p id=\"stim\">SPACE</p>", "key_press": -1, "type": "PRES_VIS", "word": "space", "wordID": 1344, "conditions": [12, 800, "v", 12000], "trial": 5, "serialpos": 5, "trial_type": "single-stim", "trial_index": 202, "time_elapsed": 869762, "internal_node_id": "0.0-148.0"}}, {"uniqueid": "MTK0074:3X66WABAJXPX80VU6N6QJL5S8RE3GG", "current_trial": 203, "dateTime": 1509130408846, "trialdata": {"rt": -1, "stimulus": "<p id=\"stim\">SIDEWALK</p>", "key_press": -1, "type": "PRES_VIS", "word": "sidewalk", "wordID": 1302, "conditions": [12, 800, "v", 12000], "trial": 5, "serialpos": 6, "trial_type": "single-stim", "trial_index": 203, "time_elapsed": 871465, "internal_node_id": "0.0-149.0"}}, {"uniqueid": "MTK0074:3X66WABAJXPX80VU6N6QJL5S8RE3GG", "current_trial": 204, "dateTime": 1509130410878, "trialdata": {"rt": -1, "stimulus": "<p id=\"stim\">THIEF</p>", "key_press": -1, "type": "PRES_VIS", "word": "thief", "wordID": 1455, "conditions": [12, 800, "v", 12000], "trial": 5, "serialpos": 7, "trial_type": "single-stim", "trial_index": 204, "time_elapsed": 873496, "internal_node_id": "0.0-150.0"}}, {"uniqueid": "MTK0074:3X66WABAJXPX80VU6N6QJL5S8RE3GG", "current_trial": 205, "dateTime": 1509130412909, "trialdata": {"rt": -1, "stimulus": "<p id=\"stim\">BURGLAR</p>", "key_press": -1, "type": "PRES_VIS", "word": "burglar", "wordID": 199, "conditions": [12, 800, "v", 12000], "trial": 5, "serialpos": 8, "trial_type": "single-stim", "trial_index": 205, "time_elapsed": 875527, "internal_node_id": "0.0-151.0"}}, {"uniqueid": "MTK0074:3X66WABAJXPX80VU6N6QJL5S8RE3GG", "current_trial": 206, "dateTime": 1509130414692, "trialdata": {"rt": -1, "stimulus": "<p id=\"stim\">COMPASS</p>", "key_press": -1, "type": "PRES_VIS", "word": "compass", "wordID": 357, "conditions": [12, 800, "v", 12000], "trial": 5, "serialpos": 9, "trial_type": "single-stim", "trial_index": 206, "time_elapsed": 877310, "internal_node_id": "0.0-152.0"}}, {"uniqueid": "MTK0074:3X66WABAJXPX80VU6N6QJL5S8RE3GG", "current_trial": 207, "dateTime": 1509130416411, "trialdata": {"rt": -1, "stimulus": "<p id=\"stim\">LUNCH</p>", "key_press": -1, "type": "PRES_VIS", "word": "lunch", "wordID": 848, "conditions": [12, 800, "v", 12000], "trial": 5, "serialpos": 10, "trial_type": "single-stim", "trial_index": 207, "time_elapsed": 879029, "internal_node_id": "0.0-153.0"}}, {"uniqueid": "MTK0074:3X66WABAJXPX80VU6N6QJL5S8RE3GG", "current_trial": 208, "dateTime": 1509130418377, "trialdata": {"rt": -1, "stimulus": "<p id=\"stim\">PLAZA</p>", "key_press": -1, "type": "PRES_VIS", "word": "plaza", "wordID": 1087, "conditions": [12, 800, "v", 12000], "trial": 5, "serialpos": 11, "trial_type": "single-stim", "trial_index": 208, "time_elapsed": 880995, "internal_node_id": "0.0-154.0"}}, {"uniqueid": "MTK0074:3X66WABAJXPX80VU6N6QJL5S8RE3GG", "current_trial": 209, "dateTime": 1509130420756, "trialdata": {"rt": -1, "stimulus": "", "key_press": -1, "type": "PRE_RECALL_DELAY", "trial_type": "single-stim", "trial_index": 209, "time_elapsed": 883374, "internal_node_id": "0.0-155.0-0.0"}}, {"uniqueid": "MTK0074:3X66WABAJXPX80VU6N6QJL5S8RE3GG", "current_trial": 210, "dateTime": 1509130421423, "trialdata": {"rt": -1000, "stimulus": "/static/audio/400Hz.wav", "key_press": -1, "type": "PRE_RECALL_ALERT", "trial_type": "single-audio", "trial_index": 210, "time_elapsed": 884042, "internal_node_id": "0.0-156.0"}}, {"uniqueid": "MTK0074:3X66WABAJXPX80VU6N6QJL5S8RE3GG", "current_trial": 211, "dateTime": 1509130481469, "trialdata": {"rt": [2933, 4786, 6715, 10113, 11512], "recwords": ["thief", "burglar", "plaza", "sidewalk", "lunch"], "type": "FREE_RECALL", "conditions": [12, 800, "v", 12000], "trial": 5, "trial_type": "free-recall", "trial_index": 211, "time_elapsed": 944066, "internal_node_id": "0.0-157.0-0.0"}}, {"uniqueid": "MTK0074:3X66WABAJXPX80VU6N6QJL5S8RE3GG", "current_trial": 212, "dateTime": 1509130485096, "trialdata": {"rt": 1604, "key_press": 76, "type": "INSTRUCTIONS", "trial_type": "text", "trial_index": 212, "time_elapsed": 947713, "internal_node_id": "0.0-158.0"}}, {"uniqueid": "MTK0074:3X66WABAJXPX80VU6N6QJL5S8RE3GG", "current_trial": 213, "dateTime": 1509130499577, "trialdata": {"rt": [3383, 4714, 6283, 8631, 12432], "responses": ["12", "9", "11", "14", "24"], "num1": [3, 1, 1, 4, 8, 7], "num2": [4, 6, 9, 3, 8, 2], "num3": [5, 2, 1, 7, 8, 8], "type": "DISTRACTOR", "conditions": [12, 800, "a", 12000], "trial": 6, "trial_type": "math-distractor", "trial_index": 213, "time_elapsed": 962195, "internal_node_id": "0.0-159.0"}}, {"uniqueid": "MTK0074:3X66WABAJXPX80VU6N6QJL5S8RE3GG", "current_trial": 214, "dateTime": 1509130502606, "trialdata": {"rt": -1, "stimulus": "<p id=\"stim\">10</p>", "key_press": -1, "trial_type": "single-stim", "trial_index": 214, "time_elapsed": 965222, "internal_node_id": "0.0-160.0-0.0"}}, {"uniqueid": "MTK0074:3X66WABAJXPX80VU6N6QJL5S8RE3GG", "current_trial": 215, "dateTime": 1509130503619, "trialdata": {"rt": -1, "stimulus": "<p id=\"stim\">9</p>", "key_press": -1, "trial_type": "single-stim", "trial_index": 215, "time_elapsed": 966237, "internal_node_id": "0.0-160.0-1.0"}}, {"uniqueid": "MTK0074:3X66WABAJXPX80VU6N6QJL5S8RE3GG", "current_trial": 216, "dateTime": 1509130504640, "trialdata": {"rt": -1, "stimulus": "<p id=\"stim\">8</p>", "key_press": -1, "trial_type": "single-stim", "trial_index": 216, "time_elapsed": 967257, "internal_node_id": "0.0-160.0-2.0"}}, {"uniqueid": "MTK0074:3X66WABAJXPX80VU6N6QJL5S8RE3GG", "current_trial": 217, "dateTime": 1509130505656, "trialdata": {"rt": -1, "stimulus": "<p id=\"stim\">7</p>", "key_press": -1, "trial_type": "single-stim", "trial_index": 217, "time_elapsed": 968274, "internal_node_id": "0.0-160.0-3.0"}}, {"uniqueid": "MTK0074:3X66WABAJXPX80VU6N6QJL5S8RE3GG", "current_trial": 218, "dateTime": 1509130506671, "trialdata": {"rt": -1, "stimulus": "<p id=\"stim\">6</p>", "key_press": -1, "trial_type": "single-stim", "trial_index": 218, "time_elapsed": 969289, "internal_node_id": "0.0-160.0-4.0"}}, {"uniqueid": "MTK0074:3X66WABAJXPX80VU6N6QJL5S8RE3GG", "current_trial": 219, "dateTime": 1509130507681, "trialdata": {"rt": -1, "stimulus": "<p id=\"stim\">5</p>", "key_press": -1, "trial_type": "single-stim", "trial_index": 219, "time_elapsed": 970299, "internal_node_id": "0.0-160.0-5.0"}}, {"uniqueid": "MTK0074:3X66WABAJXPX80VU6N6QJL5S8RE3GG", "current_trial": 220, "dateTime": 1509130508696, "trialdata": {"rt": -1, "stimulus": "<p id=\"stim\">4</p>", "key_press": -1, "trial_type": "single-stim", "trial_index": 220, "time_elapsed": 971314, "internal_node_id": "0.0-160.0-6.0"}}, {"uniqueid": "MTK0074:3X66WABAJXPX80VU6N6QJL5S8RE3GG", "current_trial": 221, "dateTime": 1509130509707, "trialdata": {"rt": -1, "stimulus": "<p id=\"stim\">3</p>", "key_press": -1, "trial_type": "single-stim", "trial_index": 221, "time_elapsed": 972323, "internal_node_id": "0.0-160.0-7.0"}}, {"uniqueid": "MTK0074:3X66WABAJXPX80VU6N6QJL5S8RE3GG", "current_trial": 222, "dateTime": 1509130510718, "trialdata": {"rt": -1, "stimulus": "<p id=\"stim\">2</p>", "key_press": -1, "trial_type": "single-stim", "trial_index": 222, "time_elapsed": 973337, "internal_node_id": "0.0-160.0-8.0"}}, {"uniqueid": "MTK0074:3X66WABAJXPX80VU6N6QJL5S8RE3GG", "current_trial": 223, "dateTime": 1509130511740, "trialdata": {"rt": -1, "stimulus": "<p id=\"stim\">1</p>", "key_press": -1, "trial_type": "single-stim", "trial_index": 223, "time_elapsed": 974353, "internal_node_id": "0.0-160.0-9.0"}}, {"uniqueid": "MTK0074:3X66WABAJXPX80VU6N6QJL5S8RE3GG", "current_trial": 224, "dateTime": 1509130513367, "trialdata": {"rt": -1, "stimulus": "<p id=\"stim\">+</p>", "key_press": -1, "type": "FIXATION", "trial_type": "single-stim", "trial_index": 224, "time_elapsed": 975986, "internal_node_id": "0.0-161.0-0.0"}}, {"uniqueid": "MTK0074:3X66WABAJXPX80VU6N6QJL5S8RE3GG", "current_trial": 225, "dateTime": 1509130515230, "trialdata": {"rt": -1000, "stimulus": "/static/audio/wordpool/RABBIT.wav", "key_press": -1, "type": "PRES_AUD", "word": "rabbit", "wordID": 1151, "conditions": [12, 800, "a", 12000], "trial": 6, "serialpos": 0, "trial_type": "single-audio", "trial_index": 225, "time_elapsed": 977848, "internal_node_id": "0.0-162.0"}}, {"uniqueid": "MTK0074:3X66WABAJXPX80VU6N6QJL5S8RE3GG", "current_trial": 226, "dateTime": 1509130516855, "trialdata": {"rt": -1000, "stimulus": "/static/audio/wordpool/CHAPEL.wav", "key_press": -1, "type": "PRES_AUD", "word": "chapel", "wordID": 279, "conditions": [12, 800, "a", 12000], "trial": 6, "serialpos": 1, "trial_type": "single-audio", "trial_index": 226, "time_elapsed": 979473, "internal_node_id": "0.0-163.0"}}, {"uniqueid": "MTK0074:3X66WABAJXPX80VU6N6QJL5S8RE3GG", "current_trial": 227, "dateTime": 1509130518840, "trialdata": {"rt": -1000, "stimulus": "/static/audio/wordpool/LOFT.wav", "key_press": -1, "type": "PRES_AUD", "word": "loft", "wordID": 839, "conditions": [12, 800, "a", 12000], "trial": 6, "serialpos": 2, "trial_type": "single-audio", "trial_index": 227, "time_elapsed": 981458, "internal_node_id": "0.0-164.0"}}, {"uniqueid": "MTK0074:3X66WABAJXPX80VU6N6QJL5S8RE3GG", "current_trial": 228, "dateTime": 1509130520512, "trialdata": {"rt": -1000, "stimulus": "/static/audio/wordpool/TILE.wav", "key_press": -1, "type": "PRES_AUD", "word": "tile", "wordID": 1467, "conditions": [12, 800, "a", 12000], "trial": 6, "serialpos": 3, "trial_type": "single-audio", "trial_index": 228, "time_elapsed": 983130, "internal_node_id": "0.0-165.0"}}, {"uniqueid": "MTK0074:3X66WABAJXPX80VU6N6QJL5S8RE3GG", "current_trial": 229, "dateTime": 1509130522482, "trialdata": {"rt": -1000, "stimulus": "/static/audio/wordpool/CUPBOARD.wav", "key_press": -1, "type": "PRES_AUD", "word": "cupboard", "wordID": 424, "conditions": [12, 800, "a", 12000], "trial": 6, "serialpos": 4, "trial_type": "single-audio", "trial_index": 229, "time_elapsed": 985100, "internal_node_id": "0.0-166.0"}}, {"uniqueid": "MTK0074:3X66WABAJXPX80VU6N6QJL5S8RE3GG", "current_trial": 230, "dateTime": 1509130524427, "trialdata": {"rt": -1000, "stimulus": "/static/audio/wordpool/CYCLONE.wav", "key_press": -1, "type": "PRES_AUD", "word": "cyclone", "wordID": 430, "conditions": [12, 800, "a", 12000], "trial": 6, "serialpos": 5, "trial_type": "single-audio", "trial_index": 230, "time_elapsed": 987045, "internal_node_id": "0.0-167.0"}}, {"uniqueid": "MTK0074:3X66WABAJXPX80VU6N6QJL5S8RE3GG", "current_trial": 231, "dateTime": 1509130526493, "trialdata": {"rt": -1000, "stimulus": "/static/audio/wordpool/BEAVER.wav", "key_press": -1, "type": "PRES_AUD", "word": "beaver", "wordID": 108, "conditions": [12, 800, "a", 12000], "trial": 6, "serialpos": 6, "trial_type": "single-audio", "trial_index": 231, "time_elapsed": 989112, "internal_node_id": "0.0-168.0"}}, {"uniqueid": "MTK0074:3X66WABAJXPX80VU6N6QJL5S8RE3GG", "current_trial": 232, "dateTime": 1509130528575, "trialdata": {"rt": -1000, "stimulus": "/static/audio/wordpool/FIREMAN.wav", "key_press": -1, "type": "PRES_AUD", "word": "fireman", "wordID": 568, "conditions": [12, 800, "a", 12000], "trial": 6, "serialpos": 7, "trial_type": "single-audio", "trial_index": 232, "time_elapsed": 991193, "internal_node_id": "0.0-169.0"}}, {"uniqueid": "MTK0074:3X66WABAJXPX80VU6N6QJL5S8RE3GG", "current_trial": 233, "dateTime": 1509130530900, "trialdata": {"rt": -1000, "stimulus": "/static/audio/wordpool/BLOUSE.wav", "key_press": -1, "type": "PRES_AUD", "word": "blouse", "wordID": 138, "conditions": [12, 800, "a", 12000], "trial": 6, "serialpos": 8, "trial_type": "single-audio", "trial_index": 233, "time_elapsed": 993518, "internal_node_id": "0.0-170.0"}}, {"uniqueid": "MTK0074:3X66WABAJXPX80VU6N6QJL5S8RE3GG", "current_trial": 234, "dateTime": 1509130532778, "trialdata": {"rt": -1000, "stimulus": "/static/audio/wordpool/SHIRT.wav", "key_press": -1, "type": "PRES_AUD", "word": "shirt", "wordID": 1286, "conditions": [12, 800, "a", 12000], "trial": 6, "serialpos": 9, "trial_type": "single-audio", "trial_index": 234, "time_elapsed": 995394, "internal_node_id": "0.0-171.0"}}, {"uniqueid": "MTK0074:3X66WABAJXPX80VU6N6QJL5S8RE3GG", "current_trial": 235, "dateTime": 1509130534698, "trialdata": {"rt": -1000, "stimulus": "/static/audio/wordpool/HIGHWAY.wav", "key_press": -1, "type": "PRES_AUD", "word": "highway", "wordID": 706, "conditions": [12, 800, "a", 12000], "trial": 6, "serialpos": 10, "trial_type": "single-audio", "trial_index": 235, "time_elapsed": 997315, "internal_node_id": "0.0-172.0"}}, {"uniqueid": "MTK0074:3X66WABAJXPX80VU6N6QJL5S8RE3GG", "current_trial": 236, "dateTime": 1509130536369, "trialdata": {"rt": -1000, "stimulus": "/static/audio/wordpool/UNCLE.wav", "key_press": -1, "type": "PRES_AUD", "word": "uncle", "wordID": 1535, "conditions": [12, 800, "a", 12000], "trial": 6, "serialpos": 11, "trial_type": "single-audio", "trial_index": 236, "time_elapsed": 998988, "internal_node_id": "0.0-173.0"}}, {"uniqueid": "MTK0074:3X66WABAJXPX80VU6N6QJL5S8RE3GG", "current_trial": 237, "dateTime": 1509130537730, "trialdata": {"rt": -1, "stimulus": "", "key_press": -1, "type": "PRE_RECALL_DELAY", "trial_type": "single-stim", "trial_index": 237, "time_elapsed": 1000348, "internal_node_id": "0.0-174.0-0.0"}}, {"uniqueid": "MTK0074:3X66WABAJXPX80VU6N6QJL5S8RE3GG", "current_trial": 238, "dateTime": 1509130538243, "trialdata": {"rt": -1000, "stimulus": "/static/audio/400Hz.wav", "key_press": -1, "type": "PRE_RECALL_ALERT", "trial_type": "single-audio", "trial_index": 238, "time_elapsed": 1000861, "internal_node_id": "0.0-175.0"}}, {"uniqueid": "MTK0074:3X66WABAJXPX80VU6N6QJL5S8RE3GG", "current_trial": 239, "dateTime": 1509130598270, "trialdata": {"rt": [2939, 4256, 5540, 6795, 8601, 9538], "recwords": ["cyclone", "bever", "fireman", "uncle", "blouse", "shirt"], "type": "FREE_RECALL", "conditions": [12, 800, "a", 12000], "trial": 6, "trial_type": "free-recall", "trial_index": 239, "time_elapsed": 1060878, "internal_node_id": "0.0-176.0-0.0"}}, {"uniqueid": "MTK0074:3X66WABAJXPX80VU6N6QJL5S8RE3GG", "current_trial": 240, "dateTime": 1509130601325, "trialdata": {"rt": 1044, "key_press": 74, "type": "INSTRUCTIONS", "trial_type": "text", "trial_index": 240, "time_elapsed": 1063941, "internal_node_id": "0.0-177.0"}}, {"uniqueid": "MTK0074:3X66WABAJXPX80VU6N6QJL5S8RE3GG", "current_trial": 241, "dateTime": 1509130627533, "trialdata": {"rt": [2092, 3928, 6496, 9113, 10935, 13532, 17508, 20032, 22260, 24158], "responses": ["14", "14", "22", "16", "17", "17", "14", "14", "17", "14"], "num1": [5, 3, 9, 9, 6, 4, 5, 2, 6, 1, 6], "num2": [2, 7, 4, 1, 6, 4, 6, 9, 8, 4, 6], "num3": [7, 4, 9, 6, 5, 9, 3, 3, 3, 9, 9], "type": "DISTRACTOR", "conditions": [12, 800, "a", 24000], "trial": 7, "trial_type": "math-distractor", "trial_index": 241, "time_elapsed": 1090151, "internal_node_id": "0.0-178.0"}}, {"uniqueid": "MTK0074:3X66WABAJXPX80VU6N6QJL5S8RE3GG", "current_trial": 242, "dateTime": 1509130630558, "trialdata": {"rt": -1, "stimulus": "<p id=\"stim\">10</p>", "key_press": -1, "trial_type": "single-stim", "trial_index": 242, "time_elapsed": 1093175, "internal_node_id": "0.0-179.0-0.0"}}, {"uniqueid": "MTK0074:3X66WABAJXPX80VU6N6QJL5S8RE3GG", "current_trial": 243, "dateTime": 1509130631572, "trialdata": {"rt": -1, "stimulus": "<p id=\"stim\">9</p>", "key_press": -1, "trial_type": "single-stim", "trial_index": 243, "time_elapsed": 1094190, "internal_node_id": "0.0-179.0-1.0"}}, {"uniqueid": "MTK0074:3X66WABAJXPX80VU6N6QJL5S8RE3GG", "current_trial": 244, "dateTime": 1509130632588, "trialdata": {"rt": -1, "stimulus": "<p id=\"stim\">8</p>", "key_press": -1, "trial_type": "single-stim", "trial_index": 244, "time_elapsed": 1095206, "internal_node_id": "0.0-179.0-2.0"}}, {"uniqueid": "MTK0074:3X66WABAJXPX80VU6N6QJL5S8RE3GG", "current_trial": 245, "dateTime": 1509130633603, "trialdata": {"rt": -1, "stimulus": "<p id=\"stim\">7</p>", "key_press": -1, "trial_type": "single-stim", "trial_index": 245, "time_elapsed": 1096221, "internal_node_id": "0.0-179.0-3.0"}}, {"uniqueid": "MTK0074:3X66WABAJXPX80VU6N6QJL5S8RE3GG", "current_trial": 246, "dateTime": 1509130634615, "trialdata": {"rt": -1, "stimulus": "<p id=\"stim\">6</p>", "key_press": -1, "trial_type": "single-stim", "trial_index": 246, "time_elapsed": 1097233, "internal_node_id": "0.0-179.0-4.0"}}, {"uniqueid": "MTK0074:3X66WABAJXPX80VU6N6QJL5S8RE3GG", "current_trial": 247, "dateTime": 1509130635632, "trialdata": {"rt": -1, "stimulus": "<p id=\"stim\">5</p>", "key_press": -1, "trial_type": "single-stim", "trial_index": 247, "time_elapsed": 1098250, "internal_node_id": "0.0-179.0-5.0"}}, {"uniqueid": "MTK0074:3X66WABAJXPX80VU6N6QJL5S8RE3GG", "current_trial": 248, "dateTime": 1509130636647, "trialdata": {"rt": -1, "stimulus": "<p id=\"stim\">4</p>", "key_press": -1, "trial_type": "single-stim", "trial_index": 248, "time_elapsed": 1099265, "internal_node_id": "0.0-179.0-6.0"}}, {"uniqueid": "MTK0074:3X66WABAJXPX80VU6N6QJL5S8RE3GG", "current_trial": 249, "dateTime": 1509130637662, "trialdata": {"rt": -1, "stimulus": "<p id=\"stim\">3</p>", "key_press": -1, "trial_type": "single-stim", "trial_index": 249, "time_elapsed": 1100281, "internal_node_id": "0.0-179.0-7.0"}}, {"uniqueid": "MTK0074:3X66WABAJXPX80VU6N6QJL5S8RE3GG", "current_trial": 250, "dateTime": 1509130638677, "trialdata": {"rt": -1, "stimulus": "<p id=\"stim\">2</p>", "key_press": -1, "trial_type": "single-stim", "trial_index": 250, "time_elapsed": 1101296, "internal_node_id": "0.0-179.0-8.0"}}, {"uniqueid": "MTK0074:3X66WABAJXPX80VU6N6QJL5S8RE3GG", "current_trial": 251, "dateTime": 1509130639988, "trialdata": {"rt": -1, "stimulus": "<p id=\"stim\">1</p>", "key_press": -1, "trial_type": "single-stim", "trial_index": 251, "time_elapsed": 1102605, "internal_node_id": "0.0-179.0-9.0"}}, {"uniqueid": "MTK0074:3X66WABAJXPX80VU6N6QJL5S8RE3GG", "current_trial": 252, "dateTime": 1509130641506, "trialdata": {"rt": -1, "stimulus": "<p id=\"stim\">+</p>", "key_press": -1, "type": "FIXATION", "trial_type": "single-stim", "trial_index": 252, "time_elapsed": 1104121, "internal_node_id": "0.0-180.0-0.0"}}, {"uniqueid": "MTK0074:3X66WABAJXPX80VU6N6QJL5S8RE3GG", "current_trial": 253, "dateTime": 1509130643503, "trialdata": {"rt": -1000, "stimulus": "/static/audio/wordpool/WORLD.wav", "key_press": -1, "type": "PRES_AUD", "word": "world", "wordID": 1621, "conditions": [12, 800, "a", 24000], "trial": 7, "serialpos": 0, "trial_type": "single-audio", "trial_index": 253, "time_elapsed": 1106121, "internal_node_id": "0.0-181.0"}}, {"uniqueid": "MTK0074:3X66WABAJXPX80VU6N6QJL5S8RE3GG", "current_trial": 254, "dateTime": 1509130645162, "trialdata": {"rt": -1000, "stimulus": "/static/audio/wordpool/OUTFIT.wav", "key_press": -1, "type": "PRES_AUD", "word": "outfit", "wordID": 987, "conditions": [12, 800, "a", 24000], "trial": 7, "serialpos": 1, "trial_type": "single-audio", "trial_index": 254, "time_elapsed": 1107780, "internal_node_id": "0.0-182.0"}}, {"uniqueid": "MTK0074:3X66WABAJXPX80VU6N6QJL5S8RE3GG", "current_trial": 255, "dateTime": 1509130646850, "trialdata": {"rt": -1000, "stimulus": "/static/audio/wordpool/TABLET.wav", "key_press": -1, "type": "PRES_AUD", "word": "tablet", "wordID": 1426, "conditions": [12, 800, "a", 24000], "trial": 7, "serialpos": 2, "trial_type": "single-audio", "trial_index": 255, "time_elapsed": 1109467, "internal_node_id": "0.0-183.0"}}, {"uniqueid": "MTK0074:3X66WABAJXPX80VU6N6QJL5S8RE3GG", "current_trial": 256, "dateTime": 1509130648630, "trialdata": {"rt": -1000, "stimulus": "/static/audio/wordpool/GLOBE.wav", "key_press": -1, "type": "PRES_AUD", "word": "globe", "wordID": 640, "conditions": [12, 800, "a", 24000], "trial": 7, "serialpos": 3, "trial_type": "single-audio", "trial_index": 256, "time_elapsed": 1111248, "internal_node_id": "0.0-184.0"}}, {"uniqueid": "MTK0074:3X66WABAJXPX80VU6N6QJL5S8RE3GG", "current_trial": 257, "dateTime": 1509130650441, "trialdata": {"rt": -1000, "stimulus": "/static/audio/wordpool/MACHINE.wav", "key_press": -1, "type": "PRES_AUD", "word": "machine", "wordID": 851, "conditions": [12, 800, "a", 24000], "trial": 7, "serialpos": 4, "trial_type": "single-audio", "trial_index": 257, "time_elapsed": 1113060, "internal_node_id": "0.0-185.0"}}, {"uniqueid": "MTK0074:3X66WABAJXPX80VU6N6QJL5S8RE3GG", "current_trial": 258, "dateTime": 1509130652411, "trialdata": {"rt": -1000, "stimulus": "/static/audio/wordpool/WOMAN.wav", "key_press": -1, "type": "PRES_AUD", "word": "woman", "wordID": 1619, "conditions": [12, 800, "a", 24000], "trial": 7, "serialpos": 5, "trial_type": "single-audio", "trial_index": 258, "time_elapsed": 1115029, "internal_node_id": "0.0-186.0"}}, {"uniqueid": "MTK0074:3X66WABAJXPX80VU6N6QJL5S8RE3GG", "current_trial": 259, "dateTime": 1509130654249, "trialdata": {"rt": -1000, "stimulus": "/static/audio/wordpool/SCRIBBLE.wav", "key_press": -1, "type": "PRES_AUD", "word": "scribble", "wordID": 1255, "conditions": [12, 800, "a", 24000], "trial": 7, "serialpos": 6, "trial_type": "single-audio", "trial_index": 259, "time_elapsed": 1116867, "internal_node_id": "0.0-187.0"}}, {"uniqueid": "MTK0074:3X66WABAJXPX80VU6N6QJL5S8RE3GG", "current_trial": 260, "dateTime": 1509130656028, "trialdata": {"rt": -1000, "stimulus": "/static/audio/wordpool/MARKER.wav", "key_press": -1, "type": "PRES_AUD", "word": "marker", "wordID": 869, "conditions": [12, 800, "a", 24000], "trial": 7, "serialpos": 7, "trial_type": "single-audio", "trial_index": 260, "time_elapsed": 1118645, "internal_node_id": "0.0-188.0"}}, {"uniqueid": "MTK0074:3X66WABAJXPX80VU6N6QJL5S8RE3GG", "current_trial": 261, "dateTime": 1509130657708, "trialdata": {"rt": -1000, "stimulus": "/static/audio/wordpool/SUPPER.wav", "key_press": -1, "type": "PRES_AUD", "word": "supper", "wordID": 1410, "conditions": [12, 800, "a", 24000], "trial": 7, "serialpos": 8, "trial_type": "single-audio", "trial_index": 261, "time_elapsed": 1120326, "internal_node_id": "0.0-189.0"}}, {"uniqueid": "MTK0074:3X66WABAJXPX80VU6N6QJL5S8RE3GG", "current_trial": 262, "dateTime": 1509130659420, "trialdata": {"rt": -1000, "stimulus": "/static/audio/wordpool/BANQUET.wav", "key_press": -1, "type": "PRES_AUD", "word": "banquet", "wordID": 85, "conditions": [12, 800, "a", 24000], "trial": 7, "serialpos": 9, "trial_type": "single-audio", "trial_index": 262, "time_elapsed": 1122038, "internal_node_id": "0.0-190.0"}}, {"uniqueid": "MTK0074:3X66WABAJXPX80VU6N6QJL5S8RE3GG", "current_trial": 263, "dateTime": 1509130661420, "trialdata": {"rt": -1000, "stimulus": "/static/audio/wordpool/BLADE.wav", "key_press": -1, "type": "PRES_AUD", "word": "blade", "wordID": 133, "conditions": [12, 800, "a", 24000], "trial": 7, "serialpos": 10, "trial_type": "single-audio", "trial_index": 263, "time_elapsed": 1124037, "internal_node_id": "0.0-191.0"}}, {"uniqueid": "MTK0074:3X66WABAJXPX80VU6N6QJL5S8RE3GG", "current_trial": 264, "dateTime": 1509130663154, "trialdata": {"rt": -1000, "stimulus": "/static/audio/wordpool/SPOOL.wav", "key_press": -1, "type": "PRES_AUD", "word": "spool", "wordID": 1355, "conditions": [12, 800, "a", 24000], "trial": 7, "serialpos": 11, "trial_type": "single-audio", "trial_index": 264, "time_elapsed": 1125771, "internal_node_id": "0.0-192.0"}}, {"uniqueid": "MTK0074:3X66WABAJXPX80VU6N6QJL5S8RE3GG", "current_trial": 265, "dateTime": 1509130664469, "trialdata": {"rt": -1, "stimulus": "", "key_press": -1, "type": "PRE_RECALL_DELAY", "trial_type": "single-stim", "trial_index": 265, "time_elapsed": 1127086, "internal_node_id": "0.0-193.0-0.0"}}, {"uniqueid": "MTK0074:3X66WABAJXPX80VU6N6QJL5S8RE3GG", "current_trial": 266, "dateTime": 1509130664983, "trialdata": {"rt": -1000, "stimulus": "/static/audio/400Hz.wav", "key_press": -1, "type": "PRE_RECALL_ALERT", "trial_type": "single-audio", "trial_index": 266, "time_elapsed": 1127601, "internal_node_id": "0.0-194.0"}}, {"uniqueid": "MTK0074:3X66WABAJXPX80VU6N6QJL5S8RE3GG", "current_trial": 267, "dateTime": 1509130725019, "trialdata": {"rt": [1543, 3166, 5312, 11279, 29095], "recwords": ["blade", "spool", "market", "scribble", "blade"], "type": "FREE_RECALL", "conditions": [12, 800, "a", 24000], "trial": 7, "trial_type": "free-recall", "trial_index": 267, "time_elapsed": 1187624, "internal_node_id": "0.0-195.0-0.0"}}, {"uniqueid": "MTK0074:3X66WABAJXPX80VU6N6QJL5S8RE3GG", "current_trial": 268, "dateTime": 1509130728246, "trialdata": {"rt": 1209, "key_press": 75, "type": "INSTRUCTIONS", "trial_type": "text", "trial_index": 268, "time_elapsed": 1190863, "internal_node_id": "0.0-196.0"}}, {"uniqueid": "MTK0074:3X66WABAJXPX80VU6N6QJL5S8RE3GG", "current_trial": 269, "dateTime": 1509130742284, "trialdata": {"rt": [2610, 6236, 9140, 10753], "responses": ["13", "19", "26", "9"], "num1": [2, 7, 9, 1, 9], "num2": [2, 5, 9, 2, 9], "num3": [9, 7, 8, 6, 3], "type": "DISTRACTOR", "conditions": [24, 1600, "v", 12000], "trial": 8, "trial_type": "math-distractor", "trial_index": 269, "time_elapsed": 1204900, "internal_node_id": "0.0-197.0"}}, {"uniqueid": "MTK0074:3X66WABAJXPX80VU6N6QJL5S8RE3GG", "current_trial": 270, "dateTime": 1509130745296, "trialdata": {"rt": -1, "stimulus": "<p id=\"stim\">10</p>", "key_press": -1, "trial_type": "single-stim", "trial_index": 270, "time_elapsed": 1207914, "internal_node_id": "0.0-198.0-0.0"}}, {"uniqueid": "MTK0074:3X66WABAJXPX80VU6N6QJL5S8RE3GG", "current_trial": 271, "dateTime": 1509130746313, "trialdata": {"rt": -1, "stimulus": "<p id=\"stim\">9</p>", "key_press": -1, "trial_type": "single-stim", "trial_index": 271, "time_elapsed": 1208930, "internal_node_id": "0.0-198.0-1.0"}}, {"uniqueid": "MTK0074:3X66WABAJXPX80VU6N6QJL5S8RE3GG", "current_trial": 272, "dateTime": 1509130747327, "trialdata": {"rt": -1,