{"condition": 0, "counterbalance": 630, "assignmentId": "3VW6495TLK7YAUDIPELMGF89N9AYYX", "workerId": "MTK0268", "hitId": "3421H3BM9AORRKCH50N1IR4AOCSJ9J", "currenttrial": 626, "bonus": 0, "data": [{"uniqueid": "MTK0268:3VW6495TLK7YAUDIPELMGF89N9AYYX", "current_trial": 0, "dateTime": 1510688854719, "trialdata": {"rt": 2770, "key_press": 13, "type": "INSTRUCTIONS", "trial_type": "text", "trial_index": 0, "time_elapsed": 2771, "internal_node_id": "0.0-0.0"}}, {"uniqueid": "MTK0268:3VW6495TLK7YAUDIPELMGF89N9AYYX", "current_trial": 1, "dateTime": 1510688882773, "trialdata": {"rt": 28052, "key_press": 13, "type": "INSTRUCTIONS", "trial_type": "text", "trial_index": 1, "time_elapsed": 30824, "internal_node_id": "0.0-1.0"}}, {"uniqueid": "MTK0268:3VW6495TLK7YAUDIPELMGF89N9AYYX", "current_trial": 2, "dateTime": 1510688911325, "trialdata": {"rt": [28534], "responses": ["ocean"], "type": "AUDIO_TEST", "trial_type": "audio-test", "trial_index": 2, "time_elapsed": 59377, "internal_node_id": "0.0-2.0"}}, {"uniqueid": "MTK0268:3VW6495TLK7YAUDIPELMGF89N9AYYX", "current_trial": 3, "dateTime": 1510688928988, "trialdata": {"rt": [17655], "responses": ["crystal"], "type": "AUDIO_TEST", "trial_type": "audio-test", "trial_index": 3, "time_elapsed": 77040, "internal_node_id": "0.0-3.0"}}, {"uniqueid": "MTK0268:3VW6495TLK7YAUDIPELMGF89N9AYYX", "current_trial": 4, "dateTime": 1510688944645, "trialdata": {"rt": [15649], "responses": ["spice"], "type": "AUDIO_TEST", "trial_type": "audio-test", "trial_index": 4, "time_elapsed": 92697, "internal_node_id": "0.0-4.0"}}, {"uniqueid": "MTK0268:3VW6495TLK7YAUDIPELMGF89N9AYYX", "current_trial": 5, "dateTime": 1510689004135, "trialdata": {"rt": 58736, "responses": "{\"Q0\":\"12:30 am\",\"Q1\":\"7:00 am\",\"Q2\":\"4\"}", "type": "SLEEP_SURVEY", "trial_type": "survey-text", "trial_index": 5, "time_elapsed": 152187, "internal_node_id": "0.0-5.0"}}, {"uniqueid": "MTK0268:3VW6495TLK7YAUDIPELMGF89N9AYYX", "current_trial": 6, "dateTime": 1510689080108, "trialdata": {"rt": 74971, "key_press": 13, "type": "INSTRUCTIONS", "trial_type": "text", "trial_index": 6, "time_elapsed": 228160, "internal_node_id": "0.0-6.0"}}, {"uniqueid": "MTK0268:3VW6495TLK7YAUDIPELMGF89N9AYYX", "current_trial": 7, "dateTime": 1510689104261, "trialdata": {"rt": 23651, "key_press": 13, "type": "INSTRUCTIONS", "trial_type": "text", "trial_index": 7, "time_elapsed": 252313, "internal_node_id": "0.0-7.0"}}, {"uniqueid": "MTK0268:3VW6495TLK7YAUDIPELMGF89N9AYYX", "current_trial": 8, "dateTime": 1510689123284, "trialdata": {"rt": 18522, "key_press": 13, "type": "INSTRUCTIONS", "trial_type": "text", "trial_index": 8, "time_elapsed": 271336, "internal_node_id": "0.0-8.0"}}, {"uniqueid": "MTK0268:3VW6495TLK7YAUDIPELMGF89N9AYYX", "current_trial": 9, "dateTime": 1510689142295, "trialdata": {"rt": [8557, 11298, 16622], "responses": ["15", "21", "19"], "num1": [8, 7, 8, 1], "num2": [2, 7, 4, 1], "num3": [5, 7, 7, 9], "type": "DISTRACTOR", "conditions": [18, 1200, "a", 18000], "trial": 0, "trial_type": "math-distractor", "trial_index": 9, "time_elapsed": 290347, "internal_node_id": "0.0-9.0"}}, {"uniqueid": "MTK0268:3VW6495TLK7YAUDIPELMGF89N9AYYX", "current_trial": 10, "dateTime": 1510689145299, "trialdata": {"rt": -1, "stimulus": "<p id=\"stim\">10</p>", "key_press": -1, "trial_type": "single-stim", "trial_index": 10, "time_elapsed": 293351, "internal_node_id": "0.0-10.0-0.0"}}, {"uniqueid": "MTK0268:3VW6495TLK7YAUDIPELMGF89N9AYYX", "current_trial": 11, "dateTime": 1510689146302, "trialdata": {"rt": -1, "stimulus": "<p id=\"stim\">9</p>", "key_press": -1, "trial_type": "single-stim", "trial_index": 11, "time_elapsed": 294354, "internal_node_id": "0.0-10.0-1.0"}}, {"uniqueid": "MTK0268:3VW6495TLK7YAUDIPELMGF89N9AYYX", "current_trial": 12, "dateTime": 1510689147303, "trialdata": {"rt": -1, "stimulus": "<p id=\"stim\">8</p>", "key_press": -1, "trial_type": "single-stim", "trial_index": 12, "time_elapsed": 295355, "internal_node_id": "0.0-10.0-2.0"}}, {"uniqueid": "MTK0268:3VW6495TLK7YAUDIPELMGF89N9AYYX", "current_trial": 13, "dateTime": 1510689148305, "trialdata": {"rt": -1, "stimulus": "<p id=\"stim\">7</p>", "key_press": -1, "trial_type": "single-stim", "trial_index": 13, "time_elapsed": 296357, "internal_node_id": "0.0-10.0-3.0"}}, {"uniqueid": "MTK0268:3VW6495TLK7YAUDIPELMGF89N9AYYX", "current_trial": 14, "dateTime": 1510689149307, "trialdata": {"rt": -1, "stimulus": "<p id=\"stim\">6</p>", "key_press": -1, "trial_type": "single-stim", "trial_index": 14, "time_elapsed": 297359, "internal_node_id": "0.0-10.0-4.0"}}, {"uniqueid": "MTK0268:3VW6495TLK7YAUDIPELMGF89N9AYYX", "current_trial": 15, "dateTime": 1510689150309, "trialdata": {"rt": -1, "stimulus": "<p id=\"stim\">5</p>", "key_press": -1, "trial_type": "single-stim", "trial_index": 15, "time_elapsed": 298361, "internal_node_id": "0.0-10.0-5.0"}}, {"uniqueid": "MTK0268:3VW6495TLK7YAUDIPELMGF89N9AYYX", "current_trial": 16, "dateTime": 1510689151311, "trialdata": {"rt": -1, "stimulus": "<p id=\"stim\">4</p>", "key_press": -1, "trial_type": "single-stim", "trial_index": 16, "time_elapsed": 299363, "internal_node_id": "0.0-10.0-6.0"}}, {"uniqueid": "MTK0268:3VW6495TLK7YAUDIPELMGF89N9AYYX", "current_trial": 17, "dateTime": 1510689152313, "trialdata": {"rt": -1, "stimulus": "<p id=\"stim\">3</p>", "key_press": -1, "trial_type": "single-stim", "trial_index": 17, "time_elapsed": 300365, "internal_node_id": "0.0-10.0-7.0"}}, {"uniqueid": "MTK0268:3VW6495TLK7YAUDIPELMGF89N9AYYX", "current_trial": 18, "dateTime": 1510689153316, "trialdata": {"rt": -1, "stimulus": "<p id=\"stim\">2</p>", "key_press": -1, "trial_type": "single-stim", "trial_index": 18, "time_elapsed": 301368, "internal_node_id": "0.0-10.0-8.0"}}, {"uniqueid": "MTK0268:3VW6495TLK7YAUDIPELMGF89N9AYYX", "current_trial": 19, "dateTime": 1510689154318, "trialdata": {"rt": -1, "stimulus": "<p id=\"stim\">1</p>", "key_press": -1, "trial_type": "single-stim", "trial_index": 19, "time_elapsed": 302370, "internal_node_id": "0.0-10.0-9.0"}}, {"uniqueid": "MTK0268:3VW6495TLK7YAUDIPELMGF89N9AYYX", "current_trial": 20, "dateTime": 1510689155820, "trialdata": {"rt": -1, "stimulus": "<p id=\"stim\">+</p>", "key_press": -1, "type": "FIXATION", "trial_type": "single-stim", "trial_index": 20, "time_elapsed": 303872, "internal_node_id": "0.0-11.0-0.0"}}, {"uniqueid": "MTK0268:3VW6495TLK7YAUDIPELMGF89N9AYYX", "current_trial": 21, "dateTime": 1510689158181, "trialdata": {"rt": -1000, "stimulus": "/static/audio/wordpool/TROMBONE.wav", "key_press": -1, "type": "PRES_AUD", "word": "trombone", "wordID": 1507, "conditions": [18, 1200, "a", 18000], "trial": 0, "serialpos": 0, "trial_type": "single-audio", "trial_index": 21, "time_elapsed": 306233, "internal_node_id": "0.0-12.0"}}, {"uniqueid": "MTK0268:3VW6495TLK7YAUDIPELMGF89N9AYYX", "current_trial": 22, "dateTime": 1510689160327, "trialdata": {"rt": -1000, "stimulus": "/static/audio/wordpool/OMELET.wav", "key_press": -1, "type": "PRES_AUD", "word": "omelet", "wordID": 975, "conditions": [18, 1200, "a", 18000], "trial": 0, "serialpos": 1, "trial_type": "single-audio", "trial_index": 22, "time_elapsed": 308379, "internal_node_id": "0.0-13.0"}}, {"uniqueid": "MTK0268:3VW6495TLK7YAUDIPELMGF89N9AYYX", "current_trial": 23, "dateTime": 1510689162334, "trialdata": {"rt": -1000, "stimulus": "/static/audio/wordpool/WHISKERS.wav", "key_press": -1, "type": "PRES_AUD", "word": "whiskers", "wordID": 1604, "conditions": [18, 1200, "a", 18000], "trial": 0, "serialpos": 2, "trial_type": "single-audio", "trial_index": 23, "time_elapsed": 310386, "internal_node_id": "0.0-14.0"}}, {"uniqueid": "MTK0268:3VW6495TLK7YAUDIPELMGF89N9AYYX", "current_trial": 24, "dateTime": 1510689164707, "trialdata": {"rt": -1000, "stimulus": "/static/audio/wordpool/GRAVE.wav", "key_press": -1, "type": "PRES_AUD", "word": "grave", "wordID": 657, "conditions": [18, 1200, "a", 18000], "trial": 0, "serialpos": 3, "trial_type": "single-audio", "trial_index": 24, "time_elapsed": 312759, "internal_node_id": "0.0-15.0"}}, {"uniqueid": "MTK0268:3VW6495TLK7YAUDIPELMGF89N9AYYX", "current_trial": 25, "dateTime": 1510689166775, "trialdata": {"rt": -1000, "stimulus": "/static/audio/wordpool/CAFE.wav", "key_press": -1, "type": "PRES_AUD", "word": "cafe", "wordID": 215, "conditions": [18, 1200, "a", 18000], "trial": 0, "serialpos": 4, "trial_type": "single-audio", "trial_index": 25, "time_elapsed": 314827, "internal_node_id": "0.0-16.0"}}, {"uniqueid": "MTK0268:3VW6495TLK7YAUDIPELMGF89N9AYYX", "current_trial": 26, "dateTime": 1510689168973, "trialdata": {"rt": -1000, "stimulus": "/static/audio/wordpool/PARROT.wav", "key_press": -1, "type": "PRES_AUD", "word": "parrot", "wordID": 1014, "conditions": [18, 1200, "a", 18000], "trial": 0, "serialpos": 5, "trial_type": "single-audio", "trial_index": 26, "time_elapsed": 317025, "internal_node_id": "0.0-17.0"}}, {"uniqueid": "MTK0268:3VW6495TLK7YAUDIPELMGF89N9AYYX", "current_trial": 27, "dateTime": 1510689171072, "trialdata": {"rt": -1000, "stimulus": "/static/audio/wordpool/LETTUCE.wav", "key_press": -1, "type": "PRES_AUD", "word": "lettuce", "wordID": 813, "conditions": [18, 1200, "a", 18000], "trial": 0, "serialpos": 6, "trial_type": "single-audio", "trial_index": 27, "time_elapsed": 319124, "internal_node_id": "0.0-18.0"}}, {"uniqueid": "MTK0268:3VW6495TLK7YAUDIPELMGF89N9AYYX", "current_trial": 28, "dateTime": 1510689173172, "trialdata": {"rt": -1000, "stimulus": "/static/audio/wordpool/ROBOT.wav", "key_press": -1, "type": "PRES_AUD", "word": "robot", "wordID": 1199, "conditions": [18, 1200, "a", 18000], "trial": 0, "serialpos": 7, "trial_type": "single-audio", "trial_index": 28, "time_elapsed": 321224, "internal_node_id": "0.0-19.0"}}, {"uniqueid": "MTK0268:3VW6495TLK7YAUDIPELMGF89N9AYYX", "current_trial": 29, "dateTime": 1510689175372, "trialdata": {"rt": -1000, "stimulus": "/static/audio/wordpool/DASHBOARD.wav", "key_press": -1, "type": "PRES_AUD", "word": "dashboard", "wordID": 440, "conditions": [18, 1200, "a", 18000], "trial": 0, "serialpos": 8, "trial_type": "single-audio", "trial_index": 29, "time_elapsed": 323424, "internal_node_id": "0.0-20.0"}}, {"uniqueid": "MTK0268:3VW6495TLK7YAUDIPELMGF89N9AYYX", "current_trial": 30, "dateTime": 1510689177682, "trialdata": {"rt": -1000, "stimulus": "/static/audio/wordpool/SISTER.wav", "key_press": -1, "type": "PRES_AUD", "word": "sister", "wordID": 1311, "conditions": [18, 1200, "a", 18000], "trial": 0, "serialpos": 9, "trial_type": "single-audio", "trial_index": 30, "time_elapsed": 325734, "internal_node_id": "0.0-21.0"}}, {"uniqueid": "MTK0268:3VW6495TLK7YAUDIPELMGF89N9AYYX", "current_trial": 31, "dateTime": 1510689180039, "trialdata": {"rt": -1000, "stimulus": "/static/audio/wordpool/GLOBE.wav", "key_press": -1, "type": "PRES_AUD", "word": "globe", "wordID": 640, "conditions": [18, 1200, "a", 18000], "trial": 0, "serialpos": 10, "trial_type": "single-audio", "trial_index": 31, "time_elapsed": 328091, "internal_node_id": "0.0-22.0"}}, {"uniqueid": "MTK0268:3VW6495TLK7YAUDIPELMGF89N9AYYX", "current_trial": 32, "dateTime": 1510689182326, "trialdata": {"rt": -1000, "stimulus": "/static/audio/wordpool/MATCH.wav", "key_press": -1, "type": "PRES_AUD", "word": "match", "wordID": 877, "conditions": [18, 1200, "a", 18000], "trial": 0, "serialpos": 11, "trial_type": "single-audio", "trial_index": 32, "time_elapsed": 330378, "internal_node_id": "0.0-23.0"}}, {"uniqueid": "MTK0268:3VW6495TLK7YAUDIPELMGF89N9AYYX", "current_trial": 33, "dateTime": 1510689184513, "trialdata": {"rt": -1000, "stimulus": "/static/audio/wordpool/CUPBOARD.wav", "key_press": -1, "type": "PRES_AUD", "word": "cupboard", "wordID": 424, "conditions": [18, 1200, "a", 18000], "trial": 0, "serialpos": 12, "trial_type": "single-audio", "trial_index": 33, "time_elapsed": 332565, "internal_node_id": "0.0-24.0"}}, {"uniqueid": "MTK0268:3VW6495TLK7YAUDIPELMGF89N9AYYX", "current_trial": 34, "dateTime": 1510689186596, "trialdata": {"rt": -1000, "stimulus": "/static/audio/wordpool/CHILD.wav", "key_press": -1, "type": "PRES_AUD", "word": "child", "wordID": 298, "conditions": [18, 1200, "a", 18000], "trial": 0, "serialpos": 13, "trial_type": "single-audio", "trial_index": 34, "time_elapsed": 334648, "internal_node_id": "0.0-25.0"}}, {"uniqueid": "MTK0268:3VW6495TLK7YAUDIPELMGF89N9AYYX", "current_trial": 35, "dateTime": 1510689188691, "trialdata": {"rt": -1000, "stimulus": "/static/audio/wordpool/BACON.wav", "key_press": -1, "type": "PRES_AUD", "word": "bacon", "wordID": 66, "conditions": [18, 1200, "a", 18000], "trial": 0, "serialpos": 14, "trial_type": "single-audio", "trial_index": 35, "time_elapsed": 336743, "internal_node_id": "0.0-26.0"}}, {"uniqueid": "MTK0268:3VW6495TLK7YAUDIPELMGF89N9AYYX", "current_trial": 36, "dateTime": 1510689191053, "trialdata": {"rt": -1000, "stimulus": "/static/audio/wordpool/BLUEPRINT.wav", "key_press": -1, "type": "PRES_AUD", "word": "blueprint", "wordID": 141, "conditions": [18, 1200, "a", 18000], "trial": 0, "serialpos": 15, "trial_type": "single-audio", "trial_index": 36, "time_elapsed": 339105, "internal_node_id": "0.0-27.0"}}, {"uniqueid": "MTK0268:3VW6495TLK7YAUDIPELMGF89N9AYYX", "current_trial": 37, "dateTime": 1510689193095, "trialdata": {"rt": -1000, "stimulus": "/static/audio/wordpool/OZONE.wav", "key_press": -1, "type": "PRES_AUD", "word": "ozone", "wordID": 995, "conditions": [18, 1200, "a", 18000], "trial": 0, "serialpos": 16, "trial_type": "single-audio", "trial_index": 37, "time_elapsed": 341147, "internal_node_id": "0.0-28.0"}}, {"uniqueid": "MTK0268:3VW6495TLK7YAUDIPELMGF89N9AYYX", "current_trial": 38, "dateTime": 1510689195343, "trialdata": {"rt": -1000, "stimulus": "/static/audio/wordpool/FLUTE.wav", "key_press": -1, "type": "PRES_AUD", "word": "flute", "wordID": 584, "conditions": [18, 1200, "a", 18000], "trial": 0, "serialpos": 17, "trial_type": "single-audio", "trial_index": 38, "time_elapsed": 343395, "internal_node_id": "0.0-29.0"}}, {"uniqueid": "MTK0268:3VW6495TLK7YAUDIPELMGF89N9AYYX", "current_trial": 39, "dateTime": 1510689196590, "trialdata": {"rt": -1, "stimulus": "", "key_press": -1, "type": "PRE_RECALL_DELAY", "trial_type": "single-stim", "trial_index": 39, "time_elapsed": 344642, "internal_node_id": "0.0-30.0-0.0"}}, {"uniqueid": "MTK0268:3VW6495TLK7YAUDIPELMGF89N9AYYX", "current_trial": 40, "dateTime": 1510689197090, "trialdata": {"rt": -1000, "stimulus": "/static/audio/400Hz.wav", "key_press": -1, "type": "PRE_RECALL_ALERT", "trial_type": "single-audio", "trial_index": 40, "time_elapsed": 345142, "internal_node_id": "0.0-31.0"}}, {"uniqueid": "MTK0268:3VW6495TLK7YAUDIPELMGF89N9AYYX", "current_trial": 41, "dateTime": 1510689257103, "trialdata": {"rt": [4661, 7863, 12712, 19881, 23657, 52473], "recwords": ["ozone", "flute", "trombone", "wiskers", "omlet", ""], "type": "FREE_RECALL", "conditions": [18, 1200, "a", 18000], "trial": 0, "trial_type": "free-recall", "trial_index": 41, "time_elapsed": 405151, "internal_node_id": "0.0-32.0-0.0"}}, {"uniqueid": "MTK0268:3VW6495TLK7YAUDIPELMGF89N9AYYX", "current_trial": 42, "dateTime": 1510689266964, "trialdata": {"rt": 7859, "key_press": 13, "type": "INSTRUCTIONS", "trial_type": "text", "trial_index": 42, "time_elapsed": 415016, "internal_node_id": "0.0-33.0"}}, {"uniqueid": "MTK0268:3VW6495TLK7YAUDIPELMGF89N9AYYX", "current_trial": 43, "dateTime": 1510689286969, "trialdata": {"rt": [], "responses": [], "num1": [9], "num2": [5], "num3": [7], "type": "DISTRACTOR", "conditions": [18, 1200, "v", 18000], "trial": 1, "trial_type": "math-distractor", "trial_index": 43, "time_elapsed": 435021, "internal_node_id": "0.0-34.0"}}, {"uniqueid": "MTK0268:3VW6495TLK7YAUDIPELMGF89N9AYYX", "current_trial": 44, "dateTime": 1510689289971, "trialdata": {"rt": -1, "stimulus": "<p id=\"stim\">10</p>", "key_press": -1, "trial_type": "single-stim", "trial_index": 44, "time_elapsed": 438023, "internal_node_id": "0.0-35.0-0.0"}}, {"uniqueid": "MTK0268:3VW6495TLK7YAUDIPELMGF89N9AYYX", "current_trial": 45, "dateTime": 1510689290972, "trialdata": {"rt": -1, "stimulus": "<p id=\"stim\">9</p>", "key_press": -1, "trial_type": "single-stim", "trial_index": 45, "time_elapsed": 439024, "internal_node_id": "0.0-35.0-1.0"}}, {"uniqueid": "MTK0268:3VW6495TLK7YAUDIPELMGF89N9AYYX", "current_trial": 46, "dateTime": 1510689291973, "trialdata": {"rt": -1, "stimulus": "<p id=\"stim\">8</p>", "key_press": -1, "trial_type": "single-stim", "trial_index": 46, "time_elapsed": 440025, "internal_node_id": "0.0-35.0-2.0"}}, {"uniqueid": "MTK0268:3VW6495TLK7YAUDIPELMGF89N9AYYX", "current_trial": 47, "dateTime": 1510689292974, "trialdata": {"rt": -1, "stimulus": "<p id=\"stim\">7</p>", "key_press": -1, "trial_type": "single-stim", "trial_index": 47, "time_elapsed": 441026, "internal_node_id": "0.0-35.0-3.0"}}, {"uniqueid": "MTK0268:3VW6495TLK7YAUDIPELMGF89N9AYYX", "current_trial": 48, "dateTime": 1510689293976, "trialdata": {"rt": -1, "stimulus": "<p id=\"stim\">6</p>", "key_press": -1, "trial_type": "single-stim", "trial_index": 48, "time_elapsed": 442028, "internal_node_id": "0.0-35.0-4.0"}}, {"uniqueid": "MTK0268:3VW6495TLK7YAUDIPELMGF89N9AYYX", "current_trial": 49, "dateTime": 1510689294977, "trialdata": {"rt": -1, "stimulus": "<p id=\"stim\">5</p>", "key_press": -1, "trial_type": "single-stim", "trial_index": 49, "time_elapsed": 443029, "internal_node_id": "0.0-35.0-5.0"}}, {"uniqueid": "MTK0268:3VW6495TLK7YAUDIPELMGF89N9AYYX", "current_trial": 50, "dateTime": 1510689295978, "trialdata": {"rt": -1, "stimulus": "<p id=\"stim\">4</p>", "key_press": -1, "trial_type": "single-stim", "trial_index": 50, "time_elapsed": 444030, "internal_node_id": "0.0-35.0-6.0"}}, {"uniqueid": "MTK0268:3VW6495TLK7YAUDIPELMGF89N9AYYX", "current_trial": 51, "dateTime": 1510689296980, "trialdata": {"rt": -1, "stimulus": "<p id=\"stim\">3</p>", "key_press": -1, "trial_type": "single-stim", "trial_index": 51, "time_elapsed": 445032, "internal_node_id": "0.0-35.0-7.0"}}, {"uniqueid": "MTK0268:3VW6495TLK7YAUDIPELMGF89N9AYYX", "current_trial": 52, "dateTime": 1510689297982, "trialdata": {"rt": -1, "stimulus": "<p id=\"stim\">2</p>", "key_press": -1, "trial_type": "single-stim", "trial_index": 52, "time_elapsed": 446034, "internal_node_id": "0.0-35.0-8.0"}}, {"uniqueid": "MTK0268:3VW6495TLK7YAUDIPELMGF89N9AYYX", "current_trial": 53, "dateTime": 1510689298983, "trialdata": {"rt": -1, "stimulus": "<p id=\"stim\">1</p>", "key_press": -1, "trial_type": "single-stim", "trial_index": 53, "time_elapsed": 447035, "internal_node_id": "0.0-35.0-9.0"}}, {"uniqueid": "MTK0268:3VW6495TLK7YAUDIPELMGF89N9AYYX", "current_trial": 54, "dateTime": 1510689300485, "trialdata": {"rt": -1, "stimulus": "<p id=\"stim\">+</p>", "key_press": -1, "type": "FIXATION", "trial_type": "single-stim", "trial_index": 54, "time_elapsed": 448537, "internal_node_id": "0.0-36.0-0.0"}}, {"uniqueid": "MTK0268:3VW6495TLK7YAUDIPELMGF89N9AYYX", "current_trial": 55, "dateTime": 1510689301687, "trialdata": {"rt": -1, "stimulus": "<p id=\"stim\">MISTER</p>", "key_press": -1, "type": "PRES_VIS", "word": "mister", "wordID": 900, "conditions": [18, 1200, "v", 18000], "trial": 1, "serialpos": 0, "trial_type": "single-stim", "trial_index": 55, "time_elapsed": 449739, "internal_node_id": "0.0-37.0"}}, {"uniqueid": "MTK0268:3VW6495TLK7YAUDIPELMGF89N9AYYX", "current_trial": 56, "dateTime": 1510689303950, "trialdata": {"rt": -1, "stimulus": "<p id=\"stim\">TOMBSTONE</p>", "key_press": -1, "type": "PRES_VIS", "word": "tombstone", "wordID": 1477, "conditions": [18, 1200, "v", 18000], "trial": 1, "serialpos": 1, "trial_type": "single-stim", "trial_index": 56, "time_elapsed": 452002, "internal_node_id": "0.0-38.0"}}, {"uniqueid": "MTK0268:3VW6495TLK7YAUDIPELMGF89N9AYYX", "current_trial": 57, "dateTime": 1510689306159, "trialdata": {"rt": -1, "stimulus": "<p id=\"stim\">SPOON</p>", "key_press": -1, "type": "PRES_VIS", "word": "spoon", "wordID": 1356, "conditions": [18, 1200, "v", 18000], "trial": 1, "serialpos": 2, "trial_type": "single-stim", "trial_index": 57, "time_elapsed": 454211, "internal_node_id": "0.0-39.0"}}, {"uniqueid": "MTK0268:3VW6495TLK7YAUDIPELMGF89N9AYYX", "current_trial": 58, "dateTime": 1510689308248, "trialdata": {"rt": -1, "stimulus": "<p id=\"stim\">UMPIRE</p>", "key_press": -1, "type": "PRES_VIS", "word": "umpire", "wordID": 1534, "conditions": [18, 1200, "v", 18000], "trial": 1, "serialpos": 3, "trial_type": "single-stim", "trial_index": 58, "time_elapsed": 456300, "internal_node_id": "0.0-40.0"}}, {"uniqueid": "MTK0268:3VW6495TLK7YAUDIPELMGF89N9AYYX", "current_trial": 59, "dateTime": 1510689310547, "trialdata": {"rt": -1, "stimulus": "<p id=\"stim\">TABLET</p>", "key_press": -1, "type": "PRES_VIS", "word": "tablet", "wordID": 1426, "conditions": [18, 1200, "v", 18000], "trial": 1, "serialpos": 4, "trial_type": "single-stim", "trial_index": 59, "time_elapsed": 458599, "internal_node_id": "0.0-41.0"}}, {"uniqueid": "MTK0268:3VW6495TLK7YAUDIPELMGF89N9AYYX", "current_trial": 60, "dateTime": 1510689312909, "trialdata": {"rt": -1, "stimulus": "<p id=\"stim\">SIBLING</p>", "key_press": -1, "type": "PRES_VIS", "word": "sibling", "wordID": 1300, "conditions": [18, 1200, "v", 18000], "trial": 1, "serialpos": 5, "trial_type": "single-stim", "trial_index": 60, "time_elapsed": 460961, "internal_node_id": "0.0-42.0"}}, {"uniqueid": "MTK0268:3VW6495TLK7YAUDIPELMGF89N9AYYX", "current_trial": 61, "dateTime": 1510689314931, "trialdata": {"rt": -1, "stimulus": "<p id=\"stim\">SNAKE</p>", "key_press": -1, "type": "PRES_VIS", "word": "snake", "wordID": 1332, "conditions": [18, 1200, "v", 18000], "trial": 1, "serialpos": 6, "trial_type": "single-stim", "trial_index": 61, "time_elapsed": 462983, "internal_node_id": "0.0-43.0"}}, {"uniqueid": "MTK0268:3VW6495TLK7YAUDIPELMGF89N9AYYX", "current_trial": 62, "dateTime": 1510689317137, "trialdata": {"rt": -1, "stimulus": "<p id=\"stim\">TREAT</p>", "key_press": -1, "type": "PRES_VIS", "word": "treat", "wordID": 1500, "conditions": [18, 1200, "v", 18000], "trial": 1, "serialpos": 7, "trial_type": "single-stim", "trial_index": 62, "time_elapsed": 465189, "internal_node_id": "0.0-44.0"}}, {"uniqueid": "MTK0268:3VW6495TLK7YAUDIPELMGF89N9AYYX", "current_trial": 63, "dateTime": 1510689319450, "trialdata": {"rt": -1, "stimulus": "<p id=\"stim\">PACKAGE</p>", "key_press": -1, "type": "PRES_VIS", "word": "package", "wordID": 996, "conditions": [18, 1200, "v", 18000], "trial": 1, "serialpos": 8, "trial_type": "single-stim", "trial_index": 63, "time_elapsed": 467502, "internal_node_id": "0.0-45.0"}}, {"uniqueid": "MTK0268:3VW6495TLK7YAUDIPELMGF89N9AYYX", "current_trial": 64, "dateTime": 1510689321839, "trialdata": {"rt": -1, "stimulus": "<p id=\"stim\">WINDOW</p>", "key_press": -1, "type": "PRES_VIS", "word": "window", "wordID": 1610, "conditions": [18, 1200, "v", 18000], "trial": 1, "serialpos": 9, "trial_type": "single-stim", "trial_index": 64, "time_elapsed": 469891, "internal_node_id": "0.0-46.0"}}, {"uniqueid": "MTK0268:3VW6495TLK7YAUDIPELMGF89N9AYYX", "current_trial": 65, "dateTime": 1510689323883, "trialdata": {"rt": -1, "stimulus": "<p id=\"stim\">NURSE</p>", "key_press": -1, "type": "PRES_VIS", "word": "nurse", "wordID": 962, "conditions": [18, 1200, "v", 18000], "trial": 1, "serialpos": 10, "trial_type": "single-stim", "trial_index": 65, "time_elapsed": 471935, "internal_node_id": "0.0-47.0"}}, {"uniqueid": "MTK0268:3VW6495TLK7YAUDIPELMGF89N9AYYX", "current_trial": 66, "dateTime": 1510689326029, "trialdata": {"rt": -1, "stimulus": "<p id=\"stim\">MARS</p>", "key_press": -1, "type": "PRES_VIS", "word": "mars", "wordID": 872, "conditions": [18, 1200, "v", 18000], "trial": 1, "serialpos": 11, "trial_type": "single-stim", "trial_index": 66, "time_elapsed": 474081, "internal_node_id": "0.0-48.0"}}, {"uniqueid": "MTK0268:3VW6495TLK7YAUDIPELMGF89N9AYYX", "current_trial": 67, "dateTime": 1510689328082, "trialdata": {"rt": -1, "stimulus": "<p id=\"stim\">PICNIC</p>", "key_press": -1, "type": "PRES_VIS", "word": "picnic", "wordID": 1059, "conditions": [18, 1200, "v", 18000], "trial": 1, "serialpos": 12, "trial_type": "single-stim", "trial_index": 67, "time_elapsed": 476134, "internal_node_id": "0.0-49.0"}}, {"uniqueid": "MTK0268:3VW6495TLK7YAUDIPELMGF89N9AYYX", "current_trial": 68, "dateTime": 1510689330345, "trialdata": {"rt": -1, "stimulus": "<p id=\"stim\">BADGE</p>", "key_press": -1, "type": "PRES_VIS", "word": "badge", "wordID": 67, "conditions": [18, 1200, "v", 18000], "trial": 1, "serialpos": 13, "trial_type": "single-stim", "trial_index": 68, "time_elapsed": 478393, "internal_node_id": "0.0-50.0"}}, {"uniqueid": "MTK0268:3VW6495TLK7YAUDIPELMGF89N9AYYX", "current_trial": 69, "dateTime": 1510689332637, "trialdata": {"rt": -1, "stimulus": "<p id=\"stim\">SWITCH</p>", "key_press": -1, "type": "PRES_VIS", "word": "switch", "wordID": 1421, "conditions": [18, 1200, "v", 18000], "trial": 1, "serialpos": 14, "trial_type": "single-stim", "trial_index": 69, "time_elapsed": 480689, "internal_node_id": "0.0-51.0"}}, {"uniqueid": "MTK0268:3VW6495TLK7YAUDIPELMGF89N9AYYX", "current_trial": 70, "dateTime": 1510689334664, "trialdata": {"rt": -1, "stimulus": "<p id=\"stim\">SMOG</p>", "key_press": -1, "type": "PRES_VIS", "word": "smog", "wordID": 1329, "conditions": [18, 1200, "v", 18000], "trial": 1, "serialpos": 15, "trial_type": "single-stim", "trial_index": 70, "time_elapsed": 482716, "internal_node_id": "0.0-52.0"}}, {"uniqueid": "MTK0268:3VW6495TLK7YAUDIPELMGF89N9AYYX", "current_trial": 71, "dateTime": 1510689336900, "trialdata": {"rt": -1, "stimulus": "<p id=\"stim\">LEG</p>", "key_press": -1, "type": "PRES_VIS", "word": "leg", "wordID": 808, "conditions": [18, 1200, "v", 18000], "trial": 1, "serialpos": 16, "trial_type": "single-stim", "trial_index": 71, "time_elapsed": 484952, "internal_node_id": "0.0-53.0"}}, {"uniqueid": "MTK0268:3VW6495TLK7YAUDIPELMGF89N9AYYX", "current_trial": 72, "dateTime": 1510689339057, "trialdata": {"rt": -1, "stimulus": "<p id=\"stim\">PATIENT</p>", "key_press": -1, "type": "PRES_VIS", "word": "patient", "wordID": 1023, "conditions": [18, 1200, "v", 18000], "trial": 1, "serialpos": 17, "trial_type": "single-stim", "trial_index": 72, "time_elapsed": 487109, "internal_node_id": "0.0-54.0"}}, {"uniqueid": "MTK0268:3VW6495TLK7YAUDIPELMGF89N9AYYX", "current_trial": 73, "dateTime": 1510689341465, "trialdata": {"rt": -1, "stimulus": "", "key_press": -1, "type": "PRE_RECALL_DELAY", "trial_type": "single-stim", "trial_index": 73, "time_elapsed": 489517, "internal_node_id": "0.0-55.0-0.0"}}, {"uniqueid": "MTK0268:3VW6495TLK7YAUDIPELMGF89N9AYYX", "current_trial": 74, "dateTime": 1510689341959, "trialdata": {"rt": -1000, "stimulus": "/static/audio/400Hz.wav", "key_press": -1, "type": "PRE_RECALL_ALERT", "trial_type": "single-audio", "trial_index": 74, "time_elapsed": 490011, "internal_node_id": "0.0-56.0"}}, {"uniqueid": "MTK0268:3VW6495TLK7YAUDIPELMGF89N9AYYX", "current_trial": 75, "dateTime": 1510689401975, "trialdata": {"rt": [5848, 11491, 16004, 26188, 32643], "recwords": ["mister", "tombstone", "leg", "spoon", "patient"], "type": "FREE_RECALL", "conditions": [18, 1200, "v", 18000], "trial": 1, "trial_type": "free-recall", "trial_index": 75, "time_elapsed": 550024, "internal_node_id": "0.0-57.0-0.0"}}, {"uniqueid": "MTK0268:3VW6495TLK7YAUDIPELMGF89N9AYYX", "current_trial": 76, "dateTime": 1510689414788, "trialdata": {"rt": 10805, "key_press": 13, "type": "INSTRUCTIONS", "trial_type": "text", "trial_index": 76, "time_elapsed": 562833, "internal_node_id": "0.0-58.0"}}, {"uniqueid": "MTK0268:3VW6495TLK7YAUDIPELMGF89N9AYYX", "current_trial": 77, "dateTime": 1510689427790, "trialdata": {"rt": [5734, 11253], "responses": ["18", "20"], "num1": [3, 8, 7], "num2": [9, 5, 6], "num3": [6, 7, 1], "type": "DISTRACTOR", "conditions": [12, 800, "a", 12000], "trial": 2, "trial_type": "math-distractor", "trial_index": 77, "time_elapsed": 575842, "internal_node_id": "0.0-59.0"}}, {"uniqueid": "MTK0268:3VW6495TLK7YAUDIPELMGF89N9AYYX", "current_trial": 78, "dateTime": 1510689430792, "trialdata": {"rt": -1, "stimulus": "<p id=\"stim\">10</p>", "key_press": -1, "trial_type": "single-stim", "trial_index": 78, "time_elapsed": 578844, "internal_node_id": "0.0-60.0-0.0"}}, {"uniqueid": "MTK0268:3VW6495TLK7YAUDIPELMGF89N9AYYX", "current_trial": 79, "dateTime": 1510689431795, "trialdata": {"rt": -1, "stimulus": "<p id=\"stim\">9</p>", "key_press": -1, "trial_type": "single-stim", "trial_index": 79, "time_elapsed": 579847, "internal_node_id": "0.0-60.0-1.0"}}, {"uniqueid": "MTK0268:3VW6495TLK7YAUDIPELMGF89N9AYYX", "current_trial": 80, "dateTime": 1510689432797, "trialdata": {"rt": -1, "stimulus": "<p id=\"stim\">8</p>", "key_press": -1, "trial_type": "single-stim", "trial_index": 80, "time_elapsed": 580849, "internal_node_id": "0.0-60.0-2.0"}}, {"uniqueid": "MTK0268:3VW6495TLK7YAUDIPELMGF89N9AYYX", "current_trial": 81, "dateTime": 1510689433799, "trialdata": {"rt": -1, "stimulus": "<p id=\"stim\">7</p>", "key_press": -1, "trial_type": "single-stim", "trial_index": 81, "time_elapsed": 581851, "internal_node_id": "0.0-60.0-3.0"}}, {"uniqueid": "MTK0268:3VW6495TLK7YAUDIPELMGF89N9AYYX", "current_trial": 82, "dateTime": 1510689434801, "trialdata": {"rt": -1, "stimulus": "<p id=\"stim\">6</p>", "key_press": -1, "trial_type": "single-stim", "trial_index": 82, "time_elapsed": 582853, "internal_node_id": "0.0-60.0-4.0"}}, {"uniqueid": "MTK0268:3VW6495TLK7YAUDIPELMGF89N9AYYX", "current_trial": 83, "dateTime": 1510689435803, "trialdata": {"rt": -1, "stimulus": "<p id=\"stim\">5</p>", "key_press": -1, "trial_type": "single-stim", "trial_index": 83, "time_elapsed": 583855, "internal_node_id": "0.0-60.0-5.0"}}, {"uniqueid": "MTK0268:3VW6495TLK7YAUDIPELMGF89N9AYYX", "current_trial": 84, "dateTime": 1510689436805, "trialdata": {"rt": -1, "stimulus": "<p id=\"stim\">4</p>", "key_press": -1, "trial_type": "single-stim", "trial_index": 84, "time_elapsed": 584857, "internal_node_id": "0.0-60.0-6.0"}}, {"uniqueid": "MTK0268:3VW6495TLK7YAUDIPELMGF89N9AYYX", "current_trial": 85, "dateTime": 1510689437807, "trialdata": {"rt": -1, "stimulus": "<p id=\"stim\">3</p>", "key_press": -1, "trial_type": "single-stim", "trial_index": 85, "time_elapsed": 585859, "internal_node_id": "0.0-60.0-7.0"}}, {"uniqueid": "MTK0268:3VW6495TLK7YAUDIPELMGF89N9AYYX", "current_trial": 86, "dateTime": 1510689438809, "trialdata": {"rt": -1, "stimulus": "<p id=\"stim\">2</p>", "key_press": -1, "trial_type": "single-stim", "trial_index": 86, "time_elapsed": 586861, "internal_node_id": "0.0-60.0-8.0"}}, {"uniqueid": "MTK0268:3VW6495TLK7YAUDIPELMGF89N9AYYX", "current_trial": 87, "dateTime": 1510689439810, "trialdata": {"rt": -1, "stimulus": "<p id=\"stim\">1</p>", "key_press": -1, "trial_type": "single-stim", "trial_index": 87, "time_elapsed": 587862, "internal_node_id": "0.0-60.0-9.0"}}, {"uniqueid": "MTK0268:3VW6495TLK7YAUDIPELMGF89N9AYYX", "current_trial": 88, "dateTime": 1510689441311, "trialdata": {"rt": -1, "stimulus": "<p id=\"stim\">+</p>", "key_press": -1, "type": "FIXATION", "trial_type": "single-stim", "trial_index": 88, "time_elapsed": 589363, "internal_node_id": "0.0-61.0-0.0"}}, {"uniqueid": "MTK0268:3VW6495TLK7YAUDIPELMGF89N9AYYX", "current_trial": 89, "dateTime": 1510689443281, "trialdata": {"rt": -1000, "stimulus": "/static/audio/wordpool/BRIEFCASE.wav", "key_press": -1, "type": "PRES_AUD", "word": "briefcase", "wordID": 174, "conditions": [12, 800, "a", 12000], "trial": 2, "serialpos": 0, "trial_type": "single-audio", "trial_index": 89, "time_elapsed": 591333, "internal_node_id": "0.0-62.0"}}, {"uniqueid": "MTK0268:3VW6495TLK7YAUDIPELMGF89N9AYYX", "current_trial": 90, "dateTime": 1510689445255, "trialdata": {"rt": -1000, "stimulus": "/static/audio/wordpool/BANQUET.wav", "key_press": -1, "type": "PRES_AUD", "word": "banquet", "wordID": 85, "conditions": [12, 800, "a", 12000], "trial": 2, "serialpos": 1, "trial_type": "single-audio", "trial_index": 90, "time_elapsed": 593307, "internal_node_id": "0.0-63.0"}}, {"uniqueid": "MTK0268:3VW6495TLK7YAUDIPELMGF89N9AYYX", "current_trial": 91, "dateTime": 1510689446989, "trialdata": {"rt": -1000, "stimulus": "/static/audio/wordpool/HOUND.wav", "key_press": -1, "type": "PRES_AUD", "word": "hound", "wordID": 723, "conditions": [12, 800, "a", 12000], "trial": 2, "serialpos": 2, "trial_type": "single-audio", "trial_index": 91, "time_elapsed": 595038, "internal_node_id": "0.0-64.0"}}, {"uniqueid": "MTK0268:3VW6495TLK7YAUDIPELMGF89N9AYYX", "current_trial": 92, "dateTime": 1510689448917, "trialdata": {"rt": -1000, "stimulus": "/static/audio/wordpool/SERVER.wav", "key_press": -1, "type": "PRES_AUD", "word": "server", "wordID": 1271, "conditions": [12, 800, "a", 12000], "trial": 2, "serialpos": 3, "trial_type": "single-audio", "trial_index": 92, "time_elapsed": 596969, "internal_node_id": "0.0-65.0"}}, {"uniqueid": "MTK0268:3VW6495TLK7YAUDIPELMGF89N9AYYX", "current_trial": 93, "dateTime": 1510689450822, "trialdata": {"rt": -1000, "stimulus": "/static/audio/wordpool/BEAKER.wav", "key_press": -1, "type": "PRES_AUD", "word": "beaker", "wordID": 103, "conditions": [12, 800, "a", 12000], "trial": 2, "serialpos": 4, "trial_type": "single-audio", "trial_index": 93, "time_elapsed": 598874, "internal_node_id": "0.0-66.0"}}, {"uniqueid": "MTK0268:3VW6495TLK7YAUDIPELMGF89N9AYYX", "current_trial": 94, "dateTime": 1510689452444, "trialdata": {"rt": -1000, "stimulus": "/static/audio/wordpool/HIKER.wav", "key_press": -1, "type": "PRES_AUD", "word": "hiker", "wordID": 707, "conditions": [12, 800, "a", 12000], "trial": 2, "serialpos": 5, "trial_type": "single-audio", "trial_index": 94, "time_elapsed": 600496, "internal_node_id": "0.0-67.0"}}, {"uniqueid": "MTK0268:3VW6495TLK7YAUDIPELMGF89N9AYYX", "current_trial": 95, "dateTime": 1510689454293, "trialdata": {"rt": -1000, "stimulus": "/static/audio/wordpool/CLIMBER.wav", "key_press": -1, "type": "PRES_AUD", "word": "climber", "wordID": 322, "conditions": [12, 800, "a", 12000], "trial": 2, "serialpos": 6, "trial_type": "single-audio", "trial_index": 95, "time_elapsed": 602345, "internal_node_id": "0.0-68.0"}}, {"uniqueid": "MTK0268:3VW6495TLK7YAUDIPELMGF89N9AYYX", "current_trial": 96, "dateTime": 1510689456056, "trialdata": {"rt": -1000, "stimulus": "/static/audio/wordpool/STREAM.wav", "key_press": -1, "type": "PRES_AUD", "word": "stream", "wordID": 1391, "conditions": [12, 800, "a", 12000], "trial": 2, "serialpos": 7, "trial_type": "single-audio", "trial_index": 96, "time_elapsed": 604108, "internal_node_id": "0.0-69.0"}}, {"uniqueid": "MTK0268:3VW6495TLK7YAUDIPELMGF89N9AYYX", "current_trial": 97, "dateTime": 1510689457960, "trialdata": {"rt": -1000, "stimulus": "/static/audio/wordpool/TUNNEL.wav", "key_press": -1, "type": "PRES_AUD", "word": "tunnel", "wordID": 1518, "conditions": [12, 800, "a", 12000], "trial": 2, "serialpos": 8, "trial_type": "single-audio", "trial_index": 97, "time_elapsed": 606012, "internal_node_id": "0.0-70.0"}}, {"uniqueid": "MTK0268:3VW6495TLK7YAUDIPELMGF89N9AYYX", "current_trial": 98, "dateTime": 1510689459712, "trialdata": {"rt": -1000, "stimulus": "/static/audio/wordpool/FLASK.wav", "key_press": -1, "type": "PRES_AUD", "word": "flask", "wordID": 575, "conditions": [12, 800, "a", 12000], "trial": 2, "serialpos": 9, "trial_type": "single-audio", "trial_index": 98, "time_elapsed": 607764, "internal_node_id": "0.0-71.0"}}, {"uniqueid": "MTK0268:3VW6495TLK7YAUDIPELMGF89N9AYYX", "current_trial": 99, "dateTime": 1510689461363, "trialdata": {"rt": -1000, "stimulus": "/static/audio/wordpool/APPLE.wav", "key_press": -1, "type": "PRES_AUD", "word": "apple", "wordID": 32, "conditions": [12, 800, "a", 12000], "trial": 2, "serialpos": 10, "trial_type": "single-audio", "trial_index": 99, "time_elapsed": 609415, "internal_node_id": "0.0-72.0"}}, {"uniqueid": "MTK0268:3VW6495TLK7YAUDIPELMGF89N9AYYX", "current_trial": 100, "dateTime": 1510689463011, "trialdata": {"rt": -1000, "stimulus": "/static/audio/wordpool/VALVE.wav", "key_press": -1, "type": "PRES_AUD", "word": "valve", "wordID": 1545, "conditions": [12, 800, "a", 12000], "trial": 2, "serialpos": 11, "trial_type": "single-audio", "trial_index": 100, "time_elapsed": 611063, "internal_node_id": "0.0-73.0"}}, {"uniqueid": "MTK0268:3VW6495TLK7YAUDIPELMGF89N9AYYX", "current_trial": 101, "dateTime": 1510689464299, "trialdata": {"rt": -1, "stimulus": "", "key_press": -1, "type": "PRE_RECALL_DELAY", "trial_type": "single-stim", "trial_index": 101, "time_elapsed": 612351, "internal_node_id": "0.0-74.0-0.0"}}, {"uniqueid": "MTK0268:3VW6495TLK7YAUDIPELMGF89N9AYYX", "current_trial": 102, "dateTime": 1510689464795, "trialdata": {"rt": -1000, "stimulus": "/static/audio/400Hz.wav", "key_press": -1, "type": "PRE_RECALL_ALERT", "trial_type": "single-audio", "trial_index": 102, "time_elapsed": 612847, "internal_node_id": "0.0-75.0"}}, {"uniqueid": "MTK0268:3VW6495TLK7YAUDIPELMGF89N9AYYX", "current_trial": 103, "dateTime": 1510689524812, "trialdata": {"rt": [8490, 15028, 20584, 25345, 27328], "recwords": ["beaker", "hiker", "climber", "valve", "apple"], "type": "FREE_RECALL", "conditions": [12, 800, "a", 12000], "trial": 2, "trial_type": "free-recall", "trial_index": 103, "time_elapsed": 672857, "internal_node_id": "0.0-76.0-0.0"}}, {"uniqueid": "MTK0268:3VW6495TLK7YAUDIPELMGF89N9AYYX", "current_trial": 104, "dateTime": 1510689529132, "trialdata": {"rt": 2319, "key_press": 13, "type": "INSTRUCTIONS", "trial_type": "text", "trial_index": 104, "time_elapsed": 677184, "internal_node_id": "0.0-77.0"}}, {"uniqueid": "MTK0268:3VW6495TLK7YAUDIPELMGF89N9AYYX", "current_trial": 105, "dateTime": 1510689543137, "trialdata": {"rt": [3765, 6517, 10397], "responses": ["17", "7", "19"], "num1": [6, 2, 3, 9], "num2": [9, 1, 7, 5], "num3": [2, 4, 9, 1], "type": "DISTRACTOR", "conditions": [12, 1600, "v", 12000], "trial": 3, "trial_type": "math-distractor", "trial_index": 105, "time_elapsed": 691189, "internal_node_id": "0.0-78.0"}}, {"uniqueid": "MTK0268:3VW6495TLK7YAUDIPELMGF89N9AYYX", "current_trial": 106, "dateTime": 1510689546139, "trialdata": {"rt": -1, "stimulus": "<p id=\"stim\">10</p>", "key_press": -1, "trial_type": "single-stim", "trial_index": 106, "time_elapsed": 694191, "internal_node_id": "0.0-79.0-0.0"}}, {"uniqueid": "MTK0268:3VW6495TLK7YAUDIPELMGF89N9AYYX", "current_trial": 107, "dateTime": 1510689547141, "trialdata": {"rt": -1, "stimulus": "<p id=\"stim\">9</p>", "key_press": -1, "trial_type": "single-stim", "trial_index": 107, "time_elapsed": 695193, "internal_node_id": "0.0-79.0-1.0"}}, {"uniqueid": "MTK0268:3VW6495TLK7YAUDIPELMGF89N9AYYX", "current_trial": 108, "dateTime": 1510689548143, "trialdata": {"rt": -1, "stimulus": "<p id=\"stim\">8</p>", "key_press": -1, "trial_type": "single-stim", "trial_index": 108, "time_elapsed": 696195, "internal_node_id": "0.0-79.0-2.0"}}, {"uniqueid": "MTK0268:3VW6495TLK7YAUDIPELMGF89N9AYYX", "current_trial": 109, "dateTime": 1510689549145, "trialdata": {"rt": -1, "stimulus": "<p id=\"stim\">7</p>", "key_press": -1, "trial_type": "single-stim", "trial_index": 109, "time_elapsed": 697197, "internal_node_id": "0.0-79.0-3.0"}}, {"uniqueid": "MTK0268:3VW6495TLK7YAUDIPELMGF89N9AYYX", "current_trial": 110, "dateTime": 1510689550147, "trialdata": {"rt": -1, "stimulus": "<p id=\"stim\">6</p>", "key_press": -1, "trial_type": "single-stim", "trial_index": 110, "time_elapsed": 698199, "internal_node_id": "0.0-79.0-4.0"}}, {"uniqueid": "MTK0268:3VW6495TLK7YAUDIPELMGF89N9AYYX", "current_trial": 111, "dateTime": 1510689551149, "trialdata": {"rt": -1, "stimulus": "<p id=\"stim\">5</p>", "key_press": -1, "trial_type": "single-stim", "trial_index": 111, "time_elapsed": 699201, "internal_node_id": "0.0-79.0-5.0"}}, {"uniqueid": "MTK0268:3VW6495TLK7YAUDIPELMGF89N9AYYX", "current_trial": 112, "dateTime": 1510689552150, "trialdata": {"rt": -1, "stimulus": "<p id=\"stim\">4</p>", "key_press": -1, "trial_type": "single-stim", "trial_index": 112, "time_elapsed": 700202, "internal_node_id": "0.0-79.0-6.0"}}, {"uniqueid": "MTK0268:3VW6495TLK7YAUDIPELMGF89N9AYYX", "current_trial": 113, "dateTime": 1510689553151, "trialdata": {"rt": -1, "stimulus": "<p id=\"stim\">3</p>", "key_press": -1, "trial_type": "single-stim", "trial_index": 113, "time_elapsed": 701203, "internal_node_id": "0.0-79.0-7.0"}}, {"uniqueid": "MTK0268:3VW6495TLK7YAUDIPELMGF89N9AYYX", "current_trial": 114, "dateTime": 1510689554153, "trialdata": {"rt": -1, "stimulus": "<p id=\"stim\">2</p>", "key_press": -1, "trial_type": "single-stim", "trial_index": 114, "time_elapsed": 702205, "internal_node_id": "0.0-79.0-8.0"}}, {"uniqueid": "MTK0268:3VW6495TLK7YAUDIPELMGF89N9AYYX", "current_trial": 115, "dateTime": 1510689555156, "trialdata": {"rt": -1, "stimulus": "<p id=\"stim\">1</p>", "key_press": -1, "trial_type": "single-stim", "trial_index": 115, "time_elapsed": 703208, "internal_node_id": "0.0-79.0-9.0"}}, {"uniqueid": "MTK0268:3VW6495TLK7YAUDIPELMGF89N9AYYX", "current_trial": 116, "dateTime": 1510689556658, "trialdata": {"rt": -1, "stimulus": "<p id=\"stim\">+</p>", "key_press": -1, "type": "FIXATION", "trial_type": "single-stim", "trial_index": 116, "time_elapsed": 704710, "internal_node_id": "0.0-80.0-0.0"}}, {"uniqueid": "MTK0268:3VW6495TLK7YAUDIPELMGF89N9AYYX", "current_trial": 117, "dateTime": 1510689558259, "trialdata": {"rt": -1, "stimulus": "<p id=\"stim\">FLASHLIGHT</p>", "key_press": -1, "type": "PRES_VIS", "word": "flashlight", "wordID": 574, "conditions": [12, 1600, "v", 12000], "trial": 3, "serialpos": 0, "trial_type": "single-stim", "trial_index": 117, "time_elapsed": 706311, "internal_node_id": "0.0-81.0"}}, {"uniqueid": "MTK0268:3VW6495TLK7YAUDIPELMGF89N9AYYX", "current_trial": 118, "dateTime": 1510689560722, "trialdata": {"rt": -1, "stimulus": "<p id=\"stim\">PUDDING</p>", "key_press": -1, "type": "PRES_VIS", "word": "pudding", "wordID": 1138, "conditions": [12, 1600, "v", 12000], "trial": 3, "serialpos": 1, "trial_type": "single-stim", "trial_index": 118, "time_elapsed": 708774, "internal_node_id": "0.0-82.0"}}, {"uniqueid": "MTK0268:3VW6495TLK7YAUDIPELMGF89N9AYYX", "current_trial": 119, "dateTime": 1510689563177, "trialdata": {"rt": -1, "stimulus": "<p id=\"stim\">CUSTARD</p>", "key_press": -1, "type": "PRES_VIS", "word": "custard", "wordID": 428, "conditions": [12, 1600, "v", 12000], "trial": 3, "serialpos": 2, "trial_type": "single-stim", "trial_index": 119, "time_elapsed": 711229, "internal_node_id": "0.0-83.0"}}, {"uniqueid": "MTK0268:3VW6495TLK7YAUDIPELMGF89N9AYYX", "current_trial": 120, "dateTime": 1510689565770, "trialdata": {"rt": -1, "stimulus": "<p id=\"stim\">PENGUIN</p>", "key_press": -1, "type": "PRES_VIS", "word": "penguin", "wordID": 1043, "conditions": [12, 1600, "v", 12000], "trial": 3, "serialpos": 3, "trial_type": "single-stim", "trial_index": 120, "time_elapsed": 713822, "internal_node_id": "0.0-84.0"}}, {"uniqueid": "MTK0268:3VW6495TLK7YAUDIPELMGF89N9AYYX", "current_trial": 121, "dateTime": 1510689568448, "trialdata": {"rt": -1, "stimulus": "<p id=\"stim\">SPACE</p>", "key_press": -1, "type": "PRES_VIS", "word": "space", "wordID": 1344, "conditions": [12, 1600, "v", 12000], "trial": 3, "serialpos": 4, "trial_type": "single-stim", "trial_index": 121, "time_elapsed": 716500, "internal_node_id": "0.0-85.0"}}, {"uniqueid": "MTK0268:3VW6495TLK7YAUDIPELMGF89N9AYYX", "current_trial": 122, "dateTime": 1510689570904, "trialdata": {"rt": -1, "stimulus": "<p id=\"stim\">SCARF</p>", "key_press": -1, "type": "PRES_VIS", "word": "scarf", "wordID": 1245, "conditions": [12, 1600, "v", 12000], "trial": 3, "serialpos": 5, "trial_type": "single-stim", "trial_index": 122, "time_elapsed": 718956, "internal_node_id": "0.0-86.0"}}, {"uniqueid": "MTK0268:3VW6495TLK7YAUDIPELMGF89N9AYYX", "current_trial": 123, "dateTime": 1510689573556, "trialdata": {"rt": -1, "stimulus": "<p id=\"stim\">BOYFRIEND</p>", "key_press": -1, "type": "PRES_VIS", "word": "boyfriend", "wordID": 161, "conditions": [12, 1600, "v", 12000], "trial": 3, "serialpos": 6, "trial_type": "single-stim", "trial_index": 123, "time_elapsed": 721608, "internal_node_id": "0.0-87.0"}}, {"uniqueid": "MTK0268:3VW6495TLK7YAUDIPELMGF89N9AYYX", "current_trial": 124, "dateTime": 1510689576183, "trialdata": {"rt": -1, "stimulus": "<p id=\"stim\">BUNNY</p>", "key_press": -1, "type": "PRES_VIS", "word": "bunny", "wordID": 197, "conditions": [12, 1600, "v", 12000], "trial": 3, "serialpos": 7, "trial_type": "single-stim", "trial_index": 124, "time_elapsed": 724235, "internal_node_id": "0.0-88.0"}}, {"uniqueid": "MTK0268:3VW6495TLK7YAUDIPELMGF89N9AYYX", "current_trial": 125, "dateTime": 1510689578717, "trialdata": {"rt": -1, "stimulus": "<p id=\"stim\">OYSTER</p>", "key_press": -1, "type": "PRES_VIS", "word": "oyster", "wordID": 994, "conditions": [12, 1600, "v", 12000], "trial": 3, "serialpos": 8, "trial_type": "single-stim", "trial_index": 125, "time_elapsed": 726769, "internal_node_id": "0.0-89.0"}}, {"uniqueid": "MTK0268:3VW6495TLK7YAUDIPELMGF89N9AYYX", "current_trial": 126, "dateTime": 1510689581375, "trialdata": {"rt": -1, "stimulus": "<p id=\"stim\">WRIST</p>", "key_press": -1, "type": "PRES_VIS", "word": "wrist", "wordID": 1625, "conditions": [12, 1600, "v", 12000], "trial": 3, "serialpos": 9, "trial_type": "single-stim", "trial_index": 126, "time_elapsed": 729427, "internal_node_id": "0.0-90.0"}}, {"uniqueid": "MTK0268:3VW6495TLK7YAUDIPELMGF89N9AYYX", "current_trial": 127, "dateTime": 1510689584085, "trialdata": {"rt": -1, "stimulus": "<p id=\"stim\">RADISH</p>", "key_press": -1, "type": "PRES_VIS", "word": "radish", "wordID": 1157, "conditions": [12, 1600, "v", 12000], "trial": 3, "serialpos": 10, "trial_type": "single-stim", "trial_index": 127, "time_elapsed": 732137, "internal_node_id": "0.0-91.0"}}, {"uniqueid": "MTK0268:3VW6495TLK7YAUDIPELMGF89N9AYYX", "current_trial": 128, "dateTime": 1510689586651, "trialdata": {"rt": -1, "stimulus": "<p id=\"stim\">CASHEW</p>", "key_press": -1, "type": "PRES_VIS", "word": "cashew", "wordID": 252, "conditions": [12, 1600, "v", 12000], "trial": 3, "serialpos": 11, "trial_type": "single-stim", "trial_index": 128, "time_elapsed": 734703, "internal_node_id": "0.0-92.0"}}, {"uniqueid": "MTK0268:3VW6495TLK7YAUDIPELMGF89N9AYYX", "current_trial": 129, "dateTime": 1510689588845, "trialdata": {"rt": -1, "stimulus": "", "key_press": -1, "type": "PRE_RECALL_DELAY", "trial_type": "single-stim", "trial_index": 129, "time_elapsed": 736897, "internal_node_id": "0.0-93.0-0.0"}}, {"uniqueid": "MTK0268:3VW6495TLK7YAUDIPELMGF89N9AYYX", "current_trial": 130, "dateTime": 1510689589345, "trialdata": {"rt": -1000, "stimulus": "/static/audio/400Hz.wav", "key_press": -1, "type": "PRE_RECALL_ALERT", "trial_type": "single-audio", "trial_index": 130, "time_elapsed": 737397, "internal_node_id": "0.0-94.0"}}, {"uniqueid": "MTK0268:3VW6495TLK7YAUDIPELMGF89N9AYYX", "current_trial": 131, "dateTime": 1510689649361, "trialdata": {"rt": [5897, 9328, 13264, 18343, 22039, 28077], "recwords": ["oyster", "wrist", "cashew", "custard", "pudding", "flashlight"], "type": "FREE_RECALL", "conditions": [12, 1600, "v", 12000], "trial": 3, "trial_type": "free-recall", "trial_index": 131, "time_elapsed": 797409, "internal_node_id": "0.0-95.0-0.0"}}, {"uniqueid": "MTK0268:3VW6495TLK7YAUDIPELMGF89N9AYYX", "current_trial": 132, "dateTime": 1510689653093, "trialdata": {"rt": 1730, "key_press": 13, "type": "INSTRUCTIONS", "trial_type": "text", "trial_index": 132, "time_elapsed": 801145, "internal_node_id": "0.0-96.0"}}, {"uniqueid": "MTK0268:3VW6495TLK7YAUDIPELMGF89N9AYYX", "current_trial": 133, "dateTime": 1510689667099, "trialdata": {"rt": [5860, 9653], "responses": ["19", "13"], "num1": [8, 2, 2], "num2": [6, 5, 3], "num3": [5, 6, 7], "type": "DISTRACTOR", "conditions": [24, 800, "v", 12000], "trial": 4, "trial_type": "math-distractor", "trial_index": 133, "time_elapsed": 815151, "internal_node_id": "0.0-97.0"}}, {"uniqueid": "MTK0268:3VW6495TLK7YAUDIPELMGF89N9AYYX", "current_trial": 134, "dateTime": 1510689670101, "trialdata": {"rt": -1, "stimulus": "<p id=\"stim\">10</p>", "key_press": -1, "trial_type": "single-stim", "trial_index": 134, "time_elapsed": 818153, "internal_node_id": "0.0-98.0-0.0"}}, {"uniqueid": "MTK0268:3VW6495TLK7YAUDIPELMGF89N9AYYX", "current_trial": 135, "dateTime": 1510689671103, "trialdata": {"rt": -1, "stimulus": "<p id=\"stim\">9</p>", "key_press": -1, "trial_type": "single-stim", "trial_index": 135, "time_elapsed": 819155, "internal_node_id": "0.0-98.0-1.0"}}, {"uniqueid": "MTK0268:3VW6495TLK7YAUDIPELMGF89N9AYYX", "current_trial": 136, "dateTime": 1510689672105, "trialdata": {"rt": -1, "stimulus": "<p id=\"stim\">8</p>", "key_press": -1, "trial_type": "single-stim", "trial_index": 136, "time_elapsed": 820157, "internal_node_id": "0.0-98.0-2.0"}}, {"uniqueid": "MTK0268:3VW6495TLK7YAUDIPELMGF89N9AYYX", "current_trial": 137, "dateTime": 1510689673107, "trialdata": {"rt": -1, "stimulus": "<p id=\"stim\">7</p>", "key_press": -1, "trial_type": "single-stim", "trial_index": 137, "time_elapsed": 821159, "internal_node_id": "0.0-98.0-3.0"}}, {"uniqueid": "MTK0268:3VW6495TLK7YAUDIPELMGF89N9AYYX", "current_trial": 138, "dateTime": 1510689674108, "trialdata": {"rt": -1, "stimulus": "<p id=\"stim\">6</p>", "key_press": -1, "trial_type": "single-stim", "trial_index": 138, "time_elapsed": 822160, "internal_node_id": "0.0-98.0-4.0"}}, {"uniqueid": "MTK0268:3VW6495TLK7YAUDIPELMGF89N9AYYX", "current_trial": 139, "dateTime": 1510689675110, "trialdata": {"rt": -1, "stimulus": "<p id=\"stim\">5</p>", "key_press": -1, "trial_type": "single-stim", "trial_index": 139, "time_elapsed": 823162, "internal_node_id": "0.0-98.0-5.0"}}, {"uniqueid": "MTK0268:3VW6495TLK7YAUDIPELMGF89N9AYYX", "current_trial": 140, "dateTime": 1510689676112, "trialdata": {"rt": -1, "stimulus": "<p id=\"stim\">4</p>", "key_press": -1, "trial_type": "single-stim", "trial_index": 140, "time_elapsed": 824164, "internal_node_id": "0.0-98.0-6.0"}}, {"uniqueid": "MTK0268:3VW6495TLK7YAUDIPELMGF89N9AYYX", "current_trial": 141, "dateTime": 1510689677114, "trialdata": {"rt": -1, "stimulus": "<p id=\"stim\">3</p>", "key_press": -1, "trial_type": "single-stim", "trial_index": 141, "time_elapsed": 825166, "internal_node_id": "0.0-98.0-7.0"}}, {"uniqueid": "MTK0268:3VW6495TLK7YAUDIPELMGF89N9AYYX", "current_trial": 142, "dateTime": 1510689678116, "trialdata": {"rt": -1, "stimulus": "<p id=\"stim\">2</p>", "key_press": -1, "trial_type": "single-stim", "trial_index": 142, "time_elapsed": 826168, "internal_node_id": "0.0-98.0-8.0"}}, {"uniqueid": "MTK0268:3VW6495TLK7YAUDIPELMGF89N9AYYX", "current_trial": 143, "dateTime": 1510689679117, "trialdata": {"rt": -1, "stimulus": "<p id=\"stim\">1</p>", "key_press": -1, "trial_type": "single-stim", "trial_index": 143, "time_elapsed": 827169, "internal_node_id": "0.0-98.0-9.0"}}, {"uniqueid": "MTK0268:3VW6495TLK7YAUDIPELMGF89N9AYYX", "current_trial": 144, "dateTime": 1510689680619, "trialdata": {"rt": -1, "stimulus": "<p id=\"stim\">+</p>", "key_press": -1, "type": "FIXATION", "trial_type": "single-stim", "trial_index": 144, "time_elapsed": 828671, "internal_node_id": "0.0-99.0-0.0"}}, {"uniqueid": "MTK0268:3VW6495TLK7YAUDIPELMGF89N9AYYX", "current_trial": 145, "dateTime": 1510689681421, "trialdata": {"rt": -1, "stimulus": "<p id=\"stim\">BANKER</p>", "key_press": -1, "type": "PRES_VIS", "word": "banker", "wordID": 83, "conditions": [24, 800, "v", 12000], "trial": 4, "serialpos": 0, "trial_type": "single-stim", "trial_index": 145, "time_elapsed": 829473, "internal_node_id": "0.0-100.0"}}, {"uniqueid": "MTK0268:3VW6495TLK7YAUDIPELMGF89N9AYYX", "current_trial": 146, "dateTime": 1510689683159, "trialdata": {"rt": -1, "stimulus": "<p id=\"stim\">DRILL</p>", "key_press": -1, "type": "PRES_VIS", "word": "drill", "wordID": 496, "conditions": [24, 800, "v", 12000], "trial": 4, "serialpos": 1, "trial_type": "single-stim", "trial_index": 146, "time_elapsed": 831208, "internal_node_id": "0.0-101.0"}}, {"uniqueid": "MTK0268:3VW6495TLK7YAUDIPELMGF89N9AYYX", "current_trial": 147, "dateTime": 1510689684855, "trialdata": {"rt": -1, "stimulus": "<p id=\"stim\">POLICE</p>", "key_press": -1, "type": "PRES_VIS", "word": "police", "wordID": 1097, "conditions": [24, 800, "v", 12000], "trial": 4, "serialpos": 2, "trial_type": "single-stim", "trial_index": 147, "time_elapsed": 832907, "internal_node_id": "0.0-102.0"}}, {"uniqueid": "MTK0268:3VW6495TLK7YAUDIPELMGF89N9AYYX", "current_trial": 148, "dateTime": 1510689686726, "trialdata": {"rt": -1, "stimulus": "<p id=\"stim\">PATROL</p>", "key_press": -1, "type": "PRES_VIS", "word": "patrol", "wordID": 1026, "conditions": [24, 800, "v", 12000], "trial": 4, "serialpos": 3, "trial_type": "single-stim", "trial_index": 148, "time_elapsed": 834778, "internal_node_id": "0.0-103.0"}}, {"uniqueid": "MTK0268:3VW6495TLK7YAUDIPELMGF89N9AYYX", "current_trial": 149, "dateTime": 1510689688627, "trialdata": {"rt": -1, "stimulus": "<p id=\"stim\">PERMIT</p>", "key_press": -1, "type": "PRES_VIS", "word": "permit", "wordID": 1050, "conditions": [24, 800, "v", 12000], "trial": 4, "serialpos": 4, "trial_type": "single-stim", "trial_index": 149, "time_elapsed": 836679, "internal_node_id": "0.0-104.0"}}, {"uniqueid": "MTK0268:3VW6495TLK7YAUDIPELMGF89N9AYYX", "current_trial": 150, "dateTime": 1510689690270, "trialdata": {"rt": -1, "stimulus": "<p id=\"stim\">MAILBOX</p>", "key_press": -1, "type": "PRES_VIS", "word": "mailbox", "wordID": 856, "conditions": [24, 800, "v", 12000], "trial": 4, "serialpos": 5, "trial_type": "single-stim", "trial_index": 150, "time_elapsed": 838322, "internal_node_id": "0.0-105.0"}}, {"uniqueid": "MTK0268:3VW6495TLK7YAUDIPELMGF89N9AYYX", "current_trial": 151, "dateTime": 1510689692067, "trialdata": {"rt": -1, "stimulus": "<p id=\"stim\">SUNRISE</p>", "key_press": -1, "type": "PRES_VIS", "word": "sunrise", "wordID": 1406, "conditions": [24, 800, "v", 12000], "trial": 4, "serialpos": 6, "trial_type": "single-stim", "trial_index": 151, "time_elapsed": 840119, "internal_node_id": "0.0-106.0"}}, {"uniqueid": "MTK0268:3VW6495TLK7YAUDIPELMGF89N9AYYX", "current_trial": 152, "dateTime": 1510689693786, "trialdata": {"rt": -1, "stimulus": "<p id=\"stim\">COD</p>", "key_press": -1, "type": "PRES_VIS", "word": "cod", "wordID": 339, "conditions": [24, 800, "v", 12000], "trial": 4, "serialpos": 7, "trial_type": "single-stim", "trial_index": 152, "time_elapsed": 841838, "internal_node_id": "0.0-107.0"}}, {"uniqueid": "MTK0268:3VW6495TLK7YAUDIPELMGF89N9AYYX", "current_trial": 153, "dateTime": 1510689695407, "trialdata": {"rt": -1, "stimulus": "<p id=\"stim\">ZEBRA</p>", "key_press": -1, "type": "PRES_VIS", "word": "zebra", "wordID": 1634, "conditions": [24, 800, "v", 12000], "trial": 4, "serialpos": 8, "trial_type": "single-stim", "trial_index": 153, "time_elapsed": 843459, "internal_node_id": "0.0-108.0"}}, {"uniqueid": "MTK0268:3VW6495TLK7YAUDIPELMGF89N9AYYX", "current_trial": 154, "dateTime": 1510689697294, "trialdata": {"rt": -1, "stimulus": "<p id=\"stim\">LAGOON</p>", "key_press": -1, "type": "PRES_VIS", "word": "lagoon", "wordID": 794, "conditions": [24, 800, "v", 12000], "trial": 4, "serialpos": 9, "trial_type": "single-stim", "trial_index": 154, "time_elapsed": 845346, "internal_node_id": "0.0-109.0"}}, {"uniqueid": "MTK0268:3VW6495TLK7YAUDIPELMGF89N9AYYX", "current_trial": 155, "dateTime": 1510689698917, "trialdata": {"rt": -1, "stimulus": "<p id=\"stim\">SHOVEL</p>", "key_press": -1, "type": "PRES_VIS", "word": "shovel", "wordID": 1294, "conditions": [24, 800, "v", 12000], "trial": 4, "serialpos": 10, "trial_type": "single-stim", "trial_index": 155, "time_elapsed": 846969, "internal_node_id": "0.0-110.0"}}, {"uniqueid": "MTK0268:3VW6495TLK7YAUDIPELMGF89N9AYYX", "current_trial": 156, "dateTime": 1510689700779, "trialdata": {"rt": -1, "stimulus": "<p id=\"stim\">BANK</p>", "key_press": -1, "type": "PRES_VIS", "word": "bank", "wordID": 82, "conditions": [24, 800, "v", 12000], "trial": 4, "serialpos": 11, "trial_type": "single-stim", "trial_index": 156, "time_elapsed": 848831, "internal_node_id": "0.0-111.0"}}, {"uniqueid": "MTK0268:3VW6495TLK7YAUDIPELMGF89N9AYYX", "current_trial": 157, "dateTime": 1510689702687, "trialdata": {"rt": -1, "stimulus": "<p id=\"stim\">PREACHER</p>", "key_press": -1, "type": "PRES_VIS", "word": "preacher", "wordID": 1118, "conditions": [24, 800, "v", 12000], "trial": 4, "serialpos": 12, "trial_type": "single-stim", "trial_index": 157, "time_elapsed": 850739, "internal_node_id": "0.0-112.0"}}, {"uniqueid": "MTK0268:3VW6495TLK7YAUDIPELMGF89N9AYYX", "current_trial": 158, "dateTime": 1510689704440, "trialdata": {"rt": -1, "stimulus": "<p id=\"stim\">CATTLE</p>", "key_press": -1, "type": "PRES_VIS", "word": "cattle", "wordID": 260, "conditions": [24, 800, "v", 12000], "trial": 4, "serialpos": 13, "trial_type": "single-stim", "trial_index": 158, "time_elapsed": 852492, "internal_node_id": "0.0-113.0"}}, {"uniqueid": "MTK0268:3VW6495TLK7YAUDIPELMGF89N9AYYX", "current_trial": 159, "dateTime": 1510689706069, "trialdata": {"rt": -1, "stimulus": "<p id=\"stim\">BISON</p>", "key_press": -1, "type": "PRES_VIS", "word": "bison", "wordID": 130, "conditions": [24, 800, "v", 12000], "trial": 4, "serialpos": 14, "trial_type": "single-stim", "trial_index": 159, "time_elapsed": 854121, "internal_node_id": "0.0-114.0"}}, {"uniqueid": "MTK0268:3VW6495TLK7YAUDIPELMGF89N9AYYX", "current_trial": 160, "dateTime": 1510689707772, "trialdata": {"rt": -1, "stimulus": "<p id=\"stim\">DENTIST</p>", "key_press": -1, "type": "PRES_VIS", "word": "dentist", "wordID": 446, "conditions": [24, 800, "v", 12000], "trial": 4, "serialpos": 15, "trial_type": "single-stim", "trial_index": 160, "time_elapsed": 855824, "internal_node_id": "0.0-115.0"}}, {"uniqueid": "MTK0268:3VW6495TLK7YAUDIPELMGF89N9AYYX", "current_trial": 161, "dateTime": 1510689709757, "trialdata": {"rt": -1, "stimulus": "<p id=\"stim\">PORK</p>", "key_press": -1, "type": "PRES_VIS", "word": "pork", "wordID": 1107, "conditions": [24, 800, "v", 12000], "trial": 4, "serialpos": 16, "trial_type": "single-stim", "trial_index": 161, "time_elapsed": 857809, "internal_node_id": "0.0-116.0"}}, {"uniqueid": "MTK0268:3VW6495TLK7YAUDIPELMGF89N9AYYX", "current_trial": 162, "dateTime": 1510689711536, "trialdata": {"rt": -1, "stimulus": "<p id=\"stim\">STATUE</p>", "key_press": -1, "type": "PRES_VIS", "word": "statue", "wordID": 1373, "conditions": [24, 800, "v", 12000], "trial": 4, "serialpos": 17, "trial_type": "single-stim", "trial_index": 162, "time_elapsed": 859588, "internal_node_id": "0.0-117.0"}}, {"uniqueid": "MTK0268:3VW6495TLK7YAUDIPELMGF89N9AYYX", "current_trial": 163, "dateTime": 1510689713361, "trialdata": {"rt": -1, "stimulus": "<p id=\"stim\">GALLON</p>", "key_press": -1, "type": "PRES_VIS", "word": "gallon", "wordID": 617, "conditions": [24, 800, "v", 12000], "trial": 4, "serialpos": 18, "trial_type": "single-stim", "trial_index": 163, "time_elapsed": 861413, "internal_node_id": "0.0-118.0"}}, {"uniqueid": "MTK0268:3VW6495TLK7YAUDIPELMGF89N9AYYX", "current_trial": 164, "dateTime": 1510689715048, "trialdata": {"rt": -1, "stimulus": "<p id=\"stim\">TURKEY</p>", "key_press": -1, "type": "PRES_VIS", "word": "turkey", "wordID": 1519, "conditions": [24, 800, "v", 12000], "trial": 4, "serialpos": 19, "trial_type": "single-stim", "trial_index": 164, "time_elapsed": 863100, "internal_node_id": "0.0-119.0"}}, {"uniqueid": "MTK0268:3VW6495TLK7YAUDIPELMGF89N9AYYX", "current_trial": 165, "dateTime": 1510689716735, "trialdata": {"rt": -1, "stimulus": "<p id=\"stim\">NIGHTGOWN</p>", "key_press": -1, "type": "PRES_VIS", "word": "nightgown", "wordID": 952, "conditions": [24, 800, "v", 12000], "trial": 4, "serialpos": 20, "trial_type": "single-stim", "trial_index": 165, "time_elapsed": 864787, "internal_node_id": "0.0-120.0"}}, {"uniqueid": "MTK0268:3VW6495TLK7YAUDIPELMGF89N9AYYX", "current_trial": 166, "dateTime": 1510689718565, "trialdata": {"rt": -1, "stimulus": "<p id=\"stim\">SKIRT</p>", "key_press": -1, "type": "PRES_VIS", "word": "skirt", "wordID": 1318, "conditions": [24, 800, "v", 12000], "trial": 4, "serialpos": 21, "trial_type": "single-stim", "trial_index": 166, "time_elapsed": 866617, "internal_node_id": "0.0-121.0"}}, {"uniqueid": "MTK0268:3VW6495TLK7YAUDIPELMGF89N9AYYX", "current_trial": 167, "dateTime": 1510689720304, "trialdata": {"rt": -1, "stimulus": "<p id=\"stim\">HOSTESS</p>", "key_press": -1, "type": "PRES_VIS", "word": "hostess", "wordID": 722, "conditions": [24, 800, "v", 12000], "trial": 4, "serialpos": 22, "trial_type": "single-stim", "trial_index": 167, "time_elapsed": 868356, "internal_node_id": "0.0-122.0"}}, {"uniqueid": "MTK0268:3VW6495TLK7YAUDIPELMGF89N9AYYX", "current_trial": 168, "dateTime": 1510689722303, "trialdata": {"rt": -1, "stimulus": "<p id=\"stim\">PROTON</p>", "key_press": -1, "type": "PRES_VIS", "word": "proton", "wordID": 1131, "conditions": [24, 800, "v", 12000], "trial": 4, "serialpos": 23, "trial_type": "single-stim", "trial_index": 168, "time_elapsed": 870355, "internal_node_id": "0.0-123.0"}}, {"uniqueid": "MTK0268:3VW6495TLK7YAUDIPELMGF89N9AYYX", "current_trial": 169, "dateTime": 1510689724610, "trialdata": {"rt": -1, "stimulus": "", "key_press": -1, "type": "PRE_RECALL_DELAY", "trial_type": "single-stim", "trial_index": 169, "time_elapsed": 872662, "internal_node_id": "0.0-124.0-0.0"}}, {"uniqueid": "MTK0268:3VW6495TLK7YAUDIPELMGF89N9AYYX", "current_trial": 170, "dateTime": 1510689725112, "trialdata": {"rt": -1000, "stimulus": "/static/audio/400Hz.wav", "key_press": -1, "type": "PRE_RECALL_ALERT", "trial_type": "single-audio", "trial_index": 170, "time_elapsed": 873164, "internal_node_id": "0.0-125.0"}}, {"uniqueid": "MTK0268:3VW6495TLK7YAUDIPELMGF89N9AYYX", "current_trial": 171, "dateTime": 1510689785121, "trialdata": {"rt": [4122, 7468, 11627, 20757, 24937, 31803], "recwords": ["proton", "bank", "banker", "police", "patrol", "dentist"], "type": "FREE_RECALL", "conditions": [24, 800, "v", 12000], "trial": 4, "trial_type": "free-recall", "trial_index": 171, "time_elapsed": 933169, "internal_node_id": "0.0-126.0-0.0"}}, {"uniqueid": "MTK0268:3VW6495TLK7YAUDIPELMGF89N9AYYX", "current_trial": 172, "dateTime": 1510689788564, "trialdata": {"rt": 1441, "key_press": 13, "type": "INSTRUCTIONS", "trial_type": "text", "trial_index": 172, "time_elapsed": 936616, "internal_node_id": "0.0-127.0"}}, {"uniqueid": "MTK0268:3VW6495TLK7YAUDIPELMGF89N9AYYX", "current_trial": 173, "dateTime": 1510689814569, "trialdata": {"rt": [3677, 11541, 15461, 19285, 22574], "responses": ["15", "13", "23", "19", "13"], "num1": [5, 5, 9, 4, 4, 4], "num2": [6, 2, 5, 9, 6, 8], "num3": [4, 6, 9, 6, 3, 6], "type": "DISTRACTOR", "conditions": [12, 1600, "v", 24000], "trial": 5, "trial_type": "math-distractor", "trial_index": 173, "time_elapsed": 962620, "internal_node_id": "0.0-128.0"}}, {"uniqueid": "MTK0268:3VW6495TLK7YAUDIPELMGF89N9AYYX", "current_trial": 174, "dateTime": 1510689817571, "trialdata": {"rt": -1, "stimulus": "<p id=\"stim\">10</p>", "key_press": -1, "trial_type": "single-stim", "trial_index": 174, "time_elapsed": 965623, "internal_node_id": "0.0-129.0-0.0"}}, {"uniqueid": "MTK0268:3VW6495TLK7YAUDIPELMGF89N9AYYX", "current_trial": 175, "dateTime": 1510689818573, "trialdata": {"rt": -1, "stimulus": "<p id=\"stim\">9</p>", "key_press": -1, "trial_type": "single-stim", "trial_index": 175, "time_elapsed": 966625, "internal_node_id": "0.0-129.0-1.0"}}, {"uniqueid": "MTK0268:3VW6495TLK7YAUDIPELMGF89N9AYYX", "current_trial": 176, "dateTime": 1510689819575, "trialdata": {"rt": -1, "stimulus": "<p id=\"stim\">8</p>", "key_press": -1, "trial_type": "single-stim", "trial_index": 176, "time_elapsed": 967627, "internal_node_id": "0.0-129.0-2.0"}}, {"uniqueid": "MTK0268:3VW6495TLK7YAUDIPELMGF89N9AYYX", "current_trial": 177, "dateTime": 1510689820577, "trialdata": {"rt": -1, "stimulus": "<p id=\"stim\">7</p>", "key_press": -1, "trial_type": "single-stim", "trial_index": 177, "time_elapsed": 968629, "internal_node_id": "0.0-129.0-3.0"}}, {"uniqueid": "MTK0268:3VW6495TLK7YAUDIPELMGF89N9AYYX", "current_trial": 178, "dateTime": 1510689821579, "trialdata": {"rt": -1, "stimulus": "<p id=\"stim\">6</p>", "key_press": -1, "trial_type": "single-stim", "trial_index": 178, "time_elapsed": 969631, "internal_node_id": "0.0-129.0-4.0"}}, {"uniqueid": "MTK0268:3VW6495TLK7YAUDIPELMGF89N9AYYX", "current_trial": 179, "dateTime": 1510689822581, "trialdata": {"rt": -1, "stimulus": "<p id=\"stim\">5</p>", "key_press": -1, "trial_type": "single-stim", "trial_index": 179, "time_elapsed": 970633, "internal_node_id": "0.0-129.0-5.0"}}, {"uniqueid": "MTK0268:3VW6495TLK7YAUDIPELMGF89N9AYYX", "current_trial": 180, "dateTime": 1510689823583, "trialdata": {"rt": -1, "stimulus": "<p id=\"stim\">4</p>", "key_press": -1, "trial_type": "single-stim", "trial_index": 180, "time_elapsed": 971635, "internal_node_id": "0.0-129.0-6.0"}}, {"uniqueid": "MTK0268:3VW6495TLK7YAUDIPELMGF89N9AYYX", "current_trial": 181, "dateTime": 1510689824585, "trialdata": {"rt": -1, "stimulus": "<p id=\"stim\">3</p>", "key_press": -1, "trial_type": "single-stim", "trial_index": 181, "time_elapsed": 972637, "internal_node_id": "0.0-129.0-7.0"}}, {"uniqueid": "MTK0268:3VW6495TLK7YAUDIPELMGF89N9AYYX", "current_trial": 182, "dateTime": 1510689825587, "trialdata": {"rt": -1, "stimulus": "<p id=\"stim\">2</p>", "key_press": -1, "trial_type": "single-stim", "trial_index": 182, "time_elapsed": 973639, "internal_node_id": "0.0-129.0-8.0"}}, {"uniqueid": "MTK0268:3VW6495TLK7YAUDIPELMGF89N9AYYX", "current_trial": 183, "dateTime": 1510689826589, "trialdata": {"rt": -1, "stimulus": "<p id=\"stim\">1</p>", "key_press": -1, "trial_type": "single-stim", "trial_index": 183, "time_elapsed": 974641, "internal_node_id": "0.0-129.0-9.0"}}, {"uniqueid": "MTK0268:3VW6495TLK7YAUDIPELMGF89N9AYYX", "current_trial": 184, "dateTime": 1510689828091, "trialdata": {"rt": -1, "stimulus": "<p id=\"stim\">+</p>", "key_press": -1, "type": "FIXATION", "trial_type": "single-stim", "trial_index": 184, "time_elapsed": 976143, "internal_node_id": "0.0-130.0-0.0"}}, {"uniqueid": "MTK0268:3VW6495TLK7YAUDIPELMGF89N9AYYX", "current_trial": 185, "dateTime": 1510689829694, "trialdata": {"rt": -1, "stimulus": "<p id=\"stim\">QUAIL</p>", "key_press": -1, "type": "PRES_VIS", "word": "quail", "wordID": 1146, "conditions": [12, 1600, "v", 24000], "trial": 5, "serialpos": 0, "trial_type": "single-stim", "trial_index": 185, "time_elapsed": 977746, "internal_node_id": "0.0-131.0"}}, {"uniqueid": "MTK0268:3VW6495TLK7YAUDIPELMGF89N9AYYX", "current_trial": 186, "dateTime": 1510689832456, "trialdata": {"rt": -1, "stimulus": "<p id=\"stim\">ORANGE</p>", "key_press": -1, "type": "PRES_VIS", "word": "orange", "wordID": 979, "conditions": [12, 1600, "v", 24000], "trial": 5, "serialpos": 1, "trial_type": "single-stim", "trial_index": 186, "time_elapsed": 980504, "internal_node_id": "0.0-132.0"}}, {"uniqueid": "MTK0268:3VW6495TLK7YAUDIPELMGF89N9AYYX", "current_trial": 187, "dateTime": 1510689834965, "trialdata": {"rt": -1, "stimulus": "<p id=\"stim\">GOBLIN</p>", "key_press": -1, "type": "PRES_VIS", "word": "goblin", "wordID": 644, "conditions": [12, 1600, "v", 24000], "trial": 5, "serialpos": 2, "trial_type": "single-stim", "trial_index": 187, "time_elapsed": 983017, "internal_node_id": "0.0-133.0"}}, {"uniqueid": "MTK0268:3VW6495TLK7YAUDIPELMGF89N9AYYX", "current_trial": 188, "dateTime": 1510689837441, "trialdata": {"rt": -1, "stimulus": "<p id=\"stim\">SUNSET</p>", "key_press": -1, "type": "PRES_VIS", "word": "sunset", "wordID": 1407, "conditions": [12, 1600, "v", 24000], "trial": 5, "serialpos": 3, "trial_type": "single-stim", "trial_index": 188, "time_elapsed": 985493, "internal_node_id": "0.0-134.0"}}, {"uniqueid": "MTK0268:3VW6495TLK7YAUDIPELMGF89N9AYYX", "current_trial": 189, "dateTime": 1510689840058, "trialdata": {"rt": -1, "stimulus": "<p id=\"stim\">GRILL</p>", "key_press": -1, "type": "PRES_VIS", "word": "grill", "wordID": 660, "conditions": [12, 1600, "v", 24000], "trial": 5, "serialpos": 4, "trial_type": "single-stim", "trial_index": 189, "time_elapsed": 988110, "internal_node_id": "0.0-135.0"}}, {"uniqueid": "MTK0268:3VW6495TLK7YAUDIPELMGF89N9AYYX", "current_trial": 190, "dateTime": 1510689842591, "trialdata": {"rt": -1, "stimulus": "<p id=\"stim\">HEDGE</p>", "key_press": -1, "type": "PRES_VIS", "word": "hedge", "wordID": 698, "conditions": [12, 1600, "v", 24000], "trial": 5, "serialpos": 5, "trial_type": "single-stim", "trial_index": 190, "time_elapsed": 990643, "internal_node_id": "0.0-136.0"}}, {"uniqueid": "MTK0268:3VW6495TLK7YAUDIPELMGF89N9AYYX", "current_trial": 191, "dateTime": 1510689845363, "trialdata": {"rt": -1, "stimulus": "<p id=\"stim\">SURVEY</p>", "key_press": -1, "type": "PRES_VIS", "word": "survey", "wordID": 1413, "conditions": [12, 1600, "v", 24000], "trial": 5, "serialpos": 6, "trial_type": "single-stim", "trial_index": 191, "time_elapsed": 993415, "internal_node_id": "0.0-137.0"}}, {"uniqueid": "MTK0268:3VW6495TLK7YAUDIPELMGF89N9AYYX", "current_trial": 192, "dateTime": 1510689847991, "trialdata": {"rt": -1, "stimulus": "<p id=\"stim\">REPORT</p>", "key_press": -1, "type": "PRES_VIS", "word": "report", "wordID": 1183, "conditions": [12, 1600, "v", 24000], "trial": 5, "serialpos": 7, "trial_type": "single-stim", "trial_index": 192, "time_elapsed": 996043, "internal_node_id": "0.0-138.0"}}, {"uniqueid": "MTK0268:3VW6495TLK7YAUDIPELMGF89N9AYYX", "current_trial": 193, "dateTime": 1510689850720, "trialdata": {"rt": -1, "stimulus": "<p id=\"stim\">BLOCKADE</p>", "key_press": -1, "type": "PRES_VIS", "word": "blockade", "wordID": 136, "conditions": [12, 1600, "v", 24000], "trial": 5, "serialpos": 8, "trial_type": "single-stim", "trial_index": 193, "time_elapsed": 998772, "internal_node_id": "0.0-139.0"}}, {"uniqueid": "MTK0268:3VW6495TLK7YAUDIPELMGF89N9AYYX", "current_trial": 194, "dateTime": 1510689853190, "trialdata": {"rt": -1, "stimulus": "<p id=\"stim\">CONCERT</p>", "key_press": -1, "type": "PRES_VIS", "word": "concert", "wordID": 359, "conditions": [12, 1600, "v", 24000], "trial": 5, "serialpos": 9, "trial_type": "single-stim", "trial_index": 194, "time_elapsed": 1001242, "internal_node_id": "0.0-140.0"}}, {"uniqueid": "MTK0268:3VW6495TLK7YAUDIPELMGF89N9AYYX", "current_trial": 195, "dateTime": 1510689855722, "trialdata": {"rt": -1, "stimulus": "<p id=\"stim\">LIZARD</p>", "key_press": -1, "type": "PRES_VIS", "word": "lizard", "wordID": 833, "conditions": [12, 1600, "v", 24000], "trial": 5, "serialpos": 10, "trial_type": "single-stim", "trial_index": 195, "time_elapsed": 1003774, "internal_node_id": "0.0-141.0"}}, {"uniqueid": "MTK0268:3VW6495TLK7YAUDIPELMGF89N9AYYX", "current_trial": 196, "dateTime": 1510689858297, "trialdata": {"rt": -1, "stimulus": "<p id=\"stim\">COOK</p>", "key_press": -1, "type": "PRES_VIS", "word": "cook", "wordID": 371, "conditions": [12, 1600, "v", 24000], "trial": 5, "serialpos": 11, "trial_type": "single-stim", "trial_index": 196, "time_elapsed": 1006349, "internal_node_id": "0.0-142.0"}}, {"uniqueid": "MTK0268:3VW6495TLK7YAUDIPELMGF89N9AYYX", "current_trial": 197, "dateTime": 1510689860588, "trialdata": {"rt": -1, "stimulus": "", "key_press": -1, "type": "PRE_RECALL_DELAY", "trial_type": "single-stim", "trial_index": 197, "time_elapsed": 1008640, "internal_node_id": "0.0-143.0-0.0"}}, {"uniqueid": "MTK0268:3VW6495TLK7YAUDIPELMGF89N9AYYX", "current_trial": 198, "dateTime": 1510689861094, "trialdata": {"rt": -1000, "stimulus": "/static/audio/400Hz.wav", "key_press": -1, "type": "PRE_RECALL_ALERT", "trial_type": "single-audio", "trial_index": 198, "time_elapsed": 1009146, "internal_node_id": "0.0-144.0"}}, {"uniqueid": "MTK0268:3VW6495TLK7YAUDIPELMGF89N9AYYX", "current_trial": 199, "dateTime": 1510689921104, "trialdata": {"rt": [4469, 6977, 15550, 19749, 23596, 33654], "recwords": ["lizard", "cook", "quail", "survey", "report", "lagoon"], "type": "FREE_RECALL", "conditions": [12, 1600, "v", 24000], "trial": 5, "trial_type": "free-recall", "trial_index": 199, "time_elapsed": 1069150, "internal_node_id": "0.0-145.0-0.0"}}, {"uniqueid": "MTK0268:3VW6495TLK7YAUDIPELMGF89N9AYYX", "current_trial": 200, "dateTime": 1510689928276, "trialdata": {"rt": 5171, "key_press": 13, "type": "INSTRUCTIONS", "trial_type": "text", "trial_index": 200, "time_elapsed": 1076328, "internal_node_id": "0.0-146.0"}}, {"uniqueid": "MTK0268:3VW6495TLK7YAUDIPELMGF89N9AYYX", "current_trial": 201, "dateTime": 1510689942281, "trialdata": {"rt": [3197, 5806, 10253], "responses": ["17", "13", "16"], "num1": [4, 9, 5, 9], "num2": [6, 2, 8, 6], "num3": [7, 2, 3, 8], "type": "DISTRACTOR", "conditions": [24, 1600, "a", 12000], "trial": 6, "trial_type": "math-distractor", "trial_index": 201, "time_elapsed": 1090332, "internal_node_id": "0.0-147.0"}}, {"uniqueid": "MTK0268:3VW6495TLK7YAUDIPELMGF89N9AYYX", "current_trial": 202, "dateTime": 1510689945283, "trialdata": {"rt": -1, "stimulus": "<p id=\"stim\">10</p>", "key_press": -1, "trial_type": "single-stim", "trial_index": 202, "time_elapsed": 1093335, "internal_node_id": "0.0-148.0-0.0"}}, {"uniqueid": "MTK0268:3VW6495TLK7YAUDIPELMGF89N9AYYX", "current_trial": 203, "dateTime": 1510689946285, "trialdata": {"rt": -1, "stimulus": "<p id=\"stim\">9</p>", "key_press": -1, "trial_type": "single-stim", "trial_index": 203, "time_elapsed": 1094337, "internal_node_id": "0.0-148.0-1.0"}}, {"uniqueid": "MTK0268:3VW6495TLK7YAUDIPELMGF89N9AYYX", "current_trial": 204, "dateTime": 1510689947287, "trialdata": {"rt": -1, "stimulus": "<p id=\"stim\">8</p>", "key_press": -1, "trial_type": "single-stim", "trial_index": 204, "time_elapsed": 1095339, "internal_node_id": "0.0-148.0-2.0"}}, {"uniqueid": "MTK0268:3VW6495TLK7YAUDIPELMGF89N9AYYX", "current_trial": 205, "dateTime": 1510689948289, "trialdata": {"rt": -1, "stimulus": "<p id=\"stim\">7</p>", "key_press": -1, "trial_type": "single-stim", "trial_index": 205, "time_elapsed": 1096341, "internal_node_id": "0.0-148.0-3.0"}}, {"uniqueid": "MTK0268:3VW6495TLK7YAUDIPELMGF89N9AYYX", "current_trial": 206, "dateTime": 1510689949291, "trialdata": {"rt": -1, "stimulus": "<p id=\"stim\">6</p>", "key_press": -1, "trial_type": "single-stim", "trial_index": 206, "time_elapsed": 1097343, "internal_node_id": "0.0-148.0-4.0"}}, {"uniqueid": "MTK0268:3VW6495TLK7YAUDIPELMGF89N9AYYX", "current_trial": 207, "dateTime": 1510689950293, "trialdata": {"rt": -1, "stimulus": "<p id=\"stim\">5</p>", "key_press": -1, "trial_type": "single-stim", "trial_index": 207, "time_elapsed": 1098345, "internal_node_id": "0.0-148.0-5.0"}}, {"uniqueid": "MTK0268:3VW6495TLK7YAUDIPELMGF89N9AYYX", "current_trial": 208, "dateTime": 1510689951295, "trialdata": {"rt": -1, "stimulus": "<p id=\"stim\">4</p>", "key_press": -1, "trial_type": "single-stim", "trial_index": 208, "time_elapsed": 1099347, "internal_node_id": "0.0-148.0-6.0"}}, {"uniqueid": "MTK0268:3VW6495TLK7YAUDIPELMGF89N9AYYX", "current_trial": 209, "dateTime": 1510689952298, "trialdata": {"rt": -1, "stimulus": "<p id=\"stim\">3</p>", "key_press": -1, "trial_type": "single-stim", "trial_index": 209, "time_elapsed": 1100350, "internal_node_id": "0.0-148.0-7.0"}}, {"uniqueid": "MTK0268:3VW6495TLK7YAUDIPELMGF89N9AYYX", "current_trial": 210, "dateTime": 1510689953300, "trialdata": {"rt": -1, "stimulus": "<p id=\"stim\">2</p>", "key_press": -1, "trial_type": "single-stim", "trial_index": 210, "time_elapsed": 1101352, "internal_node_id": "0.0-148.0-8.0"}}, {"uniqueid": "MTK0268:3VW6495TLK7YAUDIPELMGF89N9AYYX", "current_trial": 211, "dateTime": 1510689954302, "trialdata": {"rt": -1, "stimulus": "<p id=\"stim\">1</p>", "key_press": -1, "trial_type": "single-stim", "trial_index": 211, "time_elapsed": 1102354, "internal_node_id": "0.0-148.0-9.0"}}, {"uniqueid": "MTK0268:3VW6495TLK7YAUDIPELMGF89N9AYYX", "current_trial": 212, "dateTime": 1510689955804, "trialdata": {"rt": -1, "stimulus": "<p id=\"stim\">+</p>", "key_press": -1, "type": "FIXATION", "trial_type": "single-stim", "trial_index": 212, "time_elapsed": 1103856, "internal_node_id": "0.0-149.0-0.0"}}, {"uniqueid": "MTK0268:3VW6495TLK7YAUDIPELMGF89N9AYYX", "current_trial": 213, "dateTime": 1510689958290, "trialdata": {"rt": -1000, "stimulus": "/static/audio/wordpool/LIVER.wav", "key_press": -1, "type": "PRES_AUD", "word": "liver", "wordID": 832, "conditions": [24, 1600, "a", 12000], "trial": 6, "serialpos": 0, "trial_type": "single-audio", "trial_index": 213, "time_elapsed": 1106342, "internal_node_id": "0.0-150.0"}}, {"uniqueid": "MTK0268:3VW6495TLK7YAUDIPELMGF89N9AYYX", "current_trial": 214, "dateTime": 1510689960991, "trialdata": {"rt": -1000, "stimulus": "/static/audio/wordpool/CRAYON.wav", "key_press": -1, "type": "PRES_AUD", "word": "crayon", "wordID": 400, "conditions": [24, 1600, "a", 12000], "trial": 6, "serialpos": 1, "trial_type": "single-audio", "trial_index": 214, "time_elapsed": 1109043, "internal_node_id": "0.0-151.0"}}, {"uniqueid": "MTK0268:3VW6495TLK7YAUDIPELMGF89N9AYYX", "current_trial": 215, "dateTime": 1510689963626, "trialdata": {"rt": -1000, "stimulus": "/static/audio/wordpool/HAMPER.wav", "key_press": -1, "type": "PRES_AUD", "word": "hamper", "wordID": 681, "conditions": [24, 1600, "a", 12000], "trial": 6, "serialpos": 2, "trial_type": "single-audio", "trial_index": 215, "time_elapsed": 1111678, "internal_node_id": "0.0-152.0"}}, {"uniqueid": "MTK0268:3VW6495TLK7YAUDIPELMGF89N9AYYX", "current_trial": 216, "dateTime": 1510689966086, "trialdata": {"rt": -1000, "stimulus": "/static/audio/wordpool/MUFFIN.wav", "key_press": -1, "type": "PRES_AUD", "word": "muffin", "wordID": 928, "conditions": [24, 1600, "a", 12000], "trial": 6, "serialpos": 3, "trial_type": "single-audio", "trial_index": 216, "time_elapsed": 1114138, "internal_node_id": "0.0-153.0"}}, {"uniqueid": "MTK0268:3VW6495TLK7YAUDIPELMGF89N9AYYX", "current_trial": 217, "dateTime": 1510689968628, "trialdata": {"rt": -1000, "stimulus": "/static/audio/wordpool/KLEENEX.wav", "key_press": -1, "type": "PRES_AUD", "word": "kleenex", "wordID": 781, "conditions": [24, 1600, "a", 12000], "trial": 6, "serialpos": 4, "trial_type": "single-audio", "trial_index": 217, "time_elapsed": 1116680, "internal_node_id": "0.0-154.0"}}, {"uniqueid": "MTK0268:3VW6495TLK7YAUDIPELMGF89N9AYYX", "current_trial": 218, "dateTime": 1510689971368, "trialdata": {"rt": -1000, "stimulus": "/static/audio/wordpool/FINGER.wav", "key_press": -1, "type": "PRES_AUD", "word": "finger", "wordID": 566, "conditions": [24, 1600, "a", 12000], "trial": 6, "serialpos": 5, "trial_type": "single-audio", "trial_index": 218, "time_elapsed": 1119420, "internal_node_id": "0.0-155.0"}}, {"uniqueid": "MTK0268:3VW6495TLK7YAUDIPELMGF89N9AYYX", "current_trial": 219, "dateTime": 1510689974147, "trialdata": {"rt": -1000, "stimulus": "/static/audio/wordpool/KIDNEY.wav", "key_press": -1, "type": "PRES_AUD", "word": "kidney", "wordID": 775, "conditions": [24, 1600, "a", 12000], "trial": 6, "serialpos": 6, "trial_type": "single-audio", "trial_index": 219, "time_elapsed": 1122199, "internal_node_id": "0.0-156.0"}}, {"uniqueid": "MTK0268:3VW6495TLK7YAUDIPELMGF89N9AYYX", "current_trial": 220, "dateTime": 1510689976855, "trialdata": {"rt": -1000, "stimulus": "/static/audio/wordpool/DRESS.wav", "key_press": -1, "type": "PRES_AUD", "word": "dress", "wordID": 494, "conditions": [24, 1600, "a", 12000], "trial": 6, "serialpos": 7, "trial_type": "single-audio", "trial_index": 220, "time_elapsed": 1124907, "internal_node_id": "0.0-157.0"}}, {"uniqueid": "MTK0268:3VW6495TLK7YAUDIPELMGF89N9AYYX", "current_trial": 221, "dateTime": 1510689979553, "trialdata": {"rt": -1000, "stimulus": "/static/audio/wordpool/PRINCESS.wav", "key_press": -1, "type": "PRES_AUD", "word": "princess", "wordID": 1124, "conditions": [24, 1600, "a", 12000], "trial": 6, "serialpos": 8, "trial_type": "single-audio", "trial_index": 221, "time_elapsed": 1127605, "internal_node_id": "0.0-158.0"}}, {"uniqueid": "MTK0268:3VW6495TLK7YAUDIPELMGF89N9AYYX", "current_trial": 222, "dateTime": 1510689982312, "trialdata": {"rt": -1000, "stimulus": "/static/audio/wordpool/QUEEN.wav", "key_press": -1, "type": "PRES_AUD", "word": "queen", "wordID": 1148, "conditions": [24, 1600, "a", 12000], "trial": 6, "serialpos": 9, "trial_type": "single-audio", "trial_index": 222, "time_elapsed": 1130364, "internal_node_id": "0.0-159.0"}}, {"uniqueid": "MTK0268:3VW6495TLK7YAUDIPELMGF89N9AYYX", "current_trial": 223, "dateTime": 1510689984735, "trialdata": {"rt": -1000, "stimulus": "/static/audio/wordpool/BLADE.wav", "key_press": -1, "type": "PRES_AUD", "word": "blade", "wordID": 133, "conditions": [24, 1600, "a", 12000], "trial": 6, "serialpos": 10, "trial_type": "single-audio", "trial_index": 223, "time_elapsed": 1132787, "internal_node_id": "0.0-160.0"}}, {"uniqueid": "MTK0268:3VW6495TLK7YAUDIPELMGF89N9AYYX", "current_trial": 224, "dateTime": 1510689987243, "trialdata": {"rt": -1000, "stimulus": "/static/audio/wordpool/CHEST.wav", "key_press": -1, "type": "PRES_AUD", "word": "chest", "wordID": 294, "conditions": [24, 1600, "a", 12000], "trial": 6, "serialpos": 11, "trial_type": "single-audio", "trial_index": 224, "time_elapsed": 1135295, "internal_node_id": "0.0-161.0"}}, {"uniqueid": "MTK0268:3VW6495TLK7YAUDIPELMGF89N9AYYX", "current_trial": 225, "dateTime": 1510689989838, "trialdata": {"rt": -1000, "stimulus": "/static/audio/wordpool/DAISY.wav", "key_press": -1, "type": "PRES_AUD", "word": "daisy", "wordID": 434, "conditions": [24, 1600, "a", 12000], "trial": 6, "serialpos": 12, "trial_type": "single-audio", "trial_index": 225, "time_elapsed": 1137890, "internal_node_id": "0.0-162.0"}}, {"uniqueid": "MTK0268:3VW6495TLK7YAUDIPELMGF89N9AYYX", "current_trial": 226, "dateTime": 1510689992579, "trialdata": {"rt": -1000, "stimulus": "/static/audio/wordpool/VELVET.wav", "key_press": -1, "type": "PRES_AUD", "word": "velvet", "wordID": 1554, "conditions": [24, 1600, "a", 12000], "trial": 6, "serialpos": 13, "trial_type": "single-audio", "trial_index": 226, "time_elapsed": 1140631, "internal_node_id": "0.0-163.0"}}, {"uniqueid": "MTK0268:3VW6495TLK7YAUDIPELMGF89N9AYYX", "current_trial": 227, "dateTime": 1510689994988, "trialdata": {"rt": -1000, "stimulus": "/static/audio/wordpool/RABBIT.wav", "key_press": -1, "type": "PRES_AUD", "word": "rabbit", "wordID": 1151, "conditions": [24, 1600, "a", 12000], "trial": 6, "serialpos": 14, "trial_type": "single-audio", "trial_index": 227, "time_elapsed": 1143040, "internal_node_id": "0.0-164.0"}}, {"uniqueid": "MTK0268:3VW6495TLK7YAUDIPELMGF89N9AYYX", "current_trial": 228, "dateTime": 1510689997770, "trialdata": {"rt": -1000, "stimulus": "/static/audio/wordpool/CIGAR.wav", "key_press": -1, "type": "PRES_AUD", "word": "cigar", "wordID": 307, "conditions": [24, 1600, "a", 12000], "trial": 6, "serialpos": 15, "trial_type": "single-audio", "trial_index": 228, "time_elapsed": 1145822, "internal_node_id": "0.0-165.0"}}, {"uniqueid": "MTK0268:3VW6495TLK7YAUDIPELMGF89N9AYYX", "current_trial": 229, "dateTime": 1510690000532, "trialdata": {"rt": -1000, "stimulus": "/static/audio/wordpool/CREATURE.wav", "key_press": -1, "type": "PRES_AUD", "word": "creature", "wordID": 402, "conditions": [24, 1600, "a", 12000], "trial": 6, "serialpos": 16, "trial_type": "single-audio", "trial_index": 229, "time_elapsed": 1148584, "internal_node_id": "0.0-166.0"}}, {"uniqueid": "MTK0268:3VW6495TLK7YAUDIPELMGF89N9AYYX", "current_trial": 230, "dateTime": 1510690002954, "trialdata": {"rt": -1000, "stimulus": "/static/audio/wordpool/SPIDER.wav", "key_press": -1, "type": "PRES_AUD", "word": "spider", "wordID": 1350, "conditions": [24, 1600, "a", 12000], "trial": 6, "serialpos": 17, "trial_type": "single-audio", "trial_index": 230, "time_elapsed": 1151006, "internal_node_id": "0.0-167.0"}}, {"uniqueid": "MTK0268:3VW6495TLK7YAUDIPELMGF89N9AYYX", "current_trial": 231, "dateTime": 1510690005597, "trialdata": {"rt": -1000, "stimulus": "/static/audio/wordpool/SILK.wav", "key_press": -1, "type": "PRES_AUD", "word": "silk", "wordID": 1306, "conditions": [24, 1600, "a", 12000], "trial": 6, "serialpos": 18, "trial_type": "single-audio", "trial_index": 231, "time_elapsed": 1153649, "internal_node_id": "0.0-168.0"}}, {"uniqueid": "MTK0268:3VW6495TLK7YAUDIPELMGF89N9AYYX", "current_trial": 232, "dateTime": 1510690008195, "trialdata": {"rt": -1000, "stimulus": "/static/audio/wordpool/TRENCH.wav", "key_press": -1, "type": "PRES_AUD", "word": "trench", "wordID": 1502, "conditions": [24, 1600, "a", 12000], "trial": 6, "serialpos": 19, "trial_type": "single-audio", "trial_index": 232, "time_elapsed": 1156247, "internal_node_id": "0.0-169.0"}}, {"uniqueid": "MTK0268:3VW6495TLK7YAUDIPELMGF89N9AYYX", "current_trial": 233, "dateTime": 1510690010843, "trialdata": {"rt": -1000, "stimulus": "/static/audio/wordpool/PUPPY.wav", "key_press": -1, "type": "PRES_AUD", "word": "puppy", "wordID": 1143, "conditions": [24, 1600, "a", 12000], "trial": 6, "serialpos": 20, "trial_type": "single-audio", "trial_index": 233, "time_elapsed": 1158895, "internal_node_id": "0.0-170.0"}}, {"uniqueid": "MTK0268:3VW6495TLK7YAUDIPELMGF89N9AYYX", "current_trial": 234, "dateTime": 1510690013432, "trialdata": {"rt": -1000, "stimulus": "/static/audio/wordpool/GYMNAST.wav", "key_press": -1, "type": "PRES_AUD", "word": "gymnast", "wordID": 674, "conditions": [24, 1600, "a", 12000], "trial": 6, "serialpos": 21, "trial_type": "single-audio", "trial_index": 234, "time_elapsed": 1161484, "internal_node_id": "0.0-171.0"}}, {"uniqueid": "MTK0268:3VW6495TLK7YAUDIPELMGF89N9AYYX", "current_trial": 235, "dateTime": 1510690016102, "trialdata": {"rt": -1000, "stimulus": "/static/audio/wordpool/OFFICE.wav", "key_press": -1, "type": "PRES_AUD", "word": "office", "wordID": 971, "conditions": [24, 1600, "a", 12000], "trial": 6, "serialpos": 22, "trial_type": "single-audio", "trial_index": 235, "time_elapsed": 1164154, "internal_node_id": "0.0-172.0"}}, {"uniqueid": "MTK0268:3VW6495TLK7YAUDIPELMGF89N9AYYX", "current_trial": 236, "dateTime": 1510690018870, "trialdata": {"rt": -1000, "stimulus": "/static/audio/wordpool/POSSUM.wav", "key_press": -1, "type": "PRES_AUD", "word": "possum", "wordID": 1111, "conditions": [24, 1600, "a", 12000], "trial": 6, "serialpos": 23, "trial_type": "single-audio", "trial_index": 236, "time_elapsed": 1166922, "internal_node_id": "0.0-173.0"}}, {"uniqueid": "MTK0268:3VW6495TLK7YAUDIPELMGF89N9AYYX", "current_trial": 237, "dateTime": 1510690020221, "trialdata": {"rt": -1, "stimulus": "", "key_press": -1, "type": "PRE_RECALL_DELAY", "trial_type": "single-stim", "trial_index": 237, "time_elapsed": 1168273, "internal_node_id": "0.0-174.0-0.0"}}, {"uniqueid": "MTK0268:3VW6495TLK7YAUDIPELMGF89N9AYYX", "current_trial": 238, "dateTime": 1510690020722, "trialdata": {"rt": -1000, "stimulus": "/static/audio/400Hz.wav", "key_press": -1, "type": "PRE_RECALL_ALERT", "trial_type": "single-audio", "trial_index": 238, "time_elapsed": 1168774, "internal_node_id": "0.0-175.0"}}, {"uniqueid": "MTK0268:3VW6495TLK7YAUDIPELMGF89N9AYYX", "current_trial": 239, "dateTime": 1510690080732, "trialdata": {"rt": [3602, 7130, 10679, 13484, 16350, 20389, 24818, 31418, 39089, 45138], "recwords": ["possum", "office", "kidney", "liver", "chest", "queen", "princess", "blade", "gymnist", "puppy"], "type": "FREE_RECALL", "conditions": [24, 1600, "a", 12000], "trial": 6, "trial_type": "free-recall", "trial_index": 239, "time_elapsed": 1228778, "internal_node_id": "0.0-176.0-0.0"}}, {"uniqueid": "MTK0268:3VW6495TLK7YAUDIPELMGF89N9AYYX", "current_trial": 240, "dateTime": 1510690090589, "trialdata": {"rt": 7854, "key_press": 13, "type": "INSTRUCTIONS", "trial_type": "text", "trial_index": 240, "time_elapsed": 1238640, "internal_node_id": "0.0-177.0"}}, {"uniqueid": "MTK0268:3VW6495TLK7YAUDIPELMGF89N9AYYX", "current_trial": 241, "dateTime": 1510690116593, "trialdata": {"rt": [3796, 5780, 10061, 13980, 18220], "responses": ["20", "11", "23", "12", "20"], "num1": [4, 1, 8, 6, 6, 7], "num2": [9, 1, 8, 1, 6, 7], "num3": [7, 9, 7, 5, 8, 9], "type": "DISTRACTOR", "conditions": [24, 1600, "a", 24000], "trial": 7, "trial_type": "math-distractor", "trial_index": 241, "time_elapsed": 1264644, "internal_node_id": "0.0-178.0"}}, {"uniqueid": "MTK0268:3VW6495TLK7YAUDIPELMGF89N9AYYX", "current_trial": 242, "dateTime": 1510690119596, "trialdata": {"rt": -1, "stimulus": "<p id=\"stim\">10</p>", "key_press": -1, "trial_type": "single-stim", "trial_index": 242, "time_elapsed": 1267648, "internal_node_id": "0.0-179.0-0.0"}}, {"uniqueid": "MTK0268:3VW6495TLK7YAUDIPELMGF89N9AYYX", "current_trial": 243, "dateTime": 1510690120601, "trialdata": {"rt": -1, "stimulus": "<p id=\"stim\">9</p>", "key_press": -1, "trial_type": "single-stim", "trial_index": 243, "time_elapsed": 1268650, "internal_node_id": "0.0-179.0-1.0"}}, {"uniqueid": "MTK0268:3VW6495TLK7YAUDIPELMGF89N9AYYX", "current_trial": 244, "dateTime": 1510690121603, "trialdata": {"rt": -1, "stimulus": "<p id=\"stim\">8</p>", "key_press": -1, "trial_type": "single-stim", "trial_index": 244, "time_elapsed": 1269655, "internal_node_id": "0.0-179.0-2.0"}}, {"uniqueid": "MTK0268:3VW6495TLK7YAUDIPELMGF89N9AYYX", "current_trial": 245, "dateTime": 1510690122605, "trialdata": {"rt": -1, "stimulus": "<p id=\"stim\">7</p>", "key_press": -1, "trial_type": "single-stim", "trial_index": 245, "time_elapsed": 1270657, "internal_node_id": "0.0-179.0-3.0"}}, {"uniqueid": "MTK0268:3VW6495TLK7YAUDIPELMGF89N9AYYX", "current_trial": 246, "dateTime": 1510690123607, "trialdata": {"rt": -1, "stimulus": "<p id=\"stim\">6</p>", "key_press": -1, "trial_type": "single-stim", "trial_index": 246, "time_elapsed": 1271659, "internal_node_id": "0.0-179.0-4.0"}}, {"uniqueid": "MTK0268:3VW6495TLK7YAUDIPELMGF89N9AYYX", "current_trial": 247, "dateTime": 1510690124609, "trialdata": {"rt": -1, "stimulus": "<p id=\"stim\">5</p>", "key_press": -1, "trial_type": "single-stim", "trial_index": 247, "time_elapsed": 1272661, "internal_node_id": "0.0-179.0-5.0"}}, {"uniqueid": "MTK0268:3VW6495TLK7YAUDIPELMGF89N9AYYX", "current_trial": 248, "dateTime": 1510690125611, "trialdata": {"rt": -1, "stimulus": "<p id=\"stim\">4</p>", "key_press": -1, "trial_type": "single-stim", "trial_index": 248, "time_elapsed": 1273663, "internal_node_id": "0.0-179.0-6.0"}}, {"uniqueid": "MTK0268:3VW6495TLK7YAUDIPELMGF89N9AYYX", "current_trial": 249, "dateTime": 1510690126613, "trialdata": {"rt": -1, "stimulus": "<p id=\"stim\">3</p>", "key_press": -1, "trial_type": "single-stim", "trial_index": 249, "time_elapsed": 1274665, "internal_node_id": "0.0-179.0-7.0"}}, {"uniqueid": "MTK0268:3VW6495TLK7YAUDIPELMGF89N9AYYX", "current_trial": 250, "dateTime": 1510690127615, "trialdata": {"rt": -1, "stimulus": "<p id=\"stim\">2</p>", "key_press": -1, "trial_type": "single-stim", "trial_index": 250, "time_elapsed": 1275667, "internal_node_id": "0.0-179.0-8.0"}}, {"uniqueid": "MTK0268:3VW6495TLK7YAUDIPELMGF89N9AYYX", "current_trial": 251, "dateTime": 1510690128618, "trialdata": {"rt": -1, "stimulus": "<p id=\"stim\">1</p>", "key_press": -1, "trial_type": "single-stim", "trial_index": 251, "time_elapsed": 1276670, "internal_node_id": "0.0-179.0-9.0"}}, {"uniqueid": "MTK0268:3VW6495TLK7YAUDIPELMGF89N9AYYX", "current_trial": 252, "dateTime": 1510690130119, "trialdata": {"rt": -1, "stimulus": "<p id=\"stim\">+</p>", "key_press": -1, "type": "FIXATION", "trial_type": "single-stim", "trial_index": 252, "time_elapsed": 1278171, "internal_node_id": "0.0-180.0-0.0"}}, {"uniqueid": "MTK0268:3VW6495TLK7YAUDIPELMGF89N9AYYX", "current_trial": 253, "dateTime": 1510690132660, "trialdata": {"rt": -1000, "stimulus": "/static/audio/wordpool/HOOK.wav", "key_press": -1, "type": "PRES_AUD", "word": "hook", "wordID": 714, "conditions": [24, 1600, "a", 24000], "trial": 7, "serialpos": 0, "trial_type": "single-audio", "trial_index": 253, "time_elapsed": 1280712, "internal_node_id": "0.0-181.0"}}, {"uniqueid": "MTK0268:3VW6495TLK7YAUDIPELMGF89N9AYYX", "current_trial": 254, "dateTime": 1510690135142, "trialdata": {"rt": -1000, "stimulus": "/static/audio/wordpool/BODY.wav", "key_press": -1, "type": "PRES_AUD", "word": "body", "wordID": 144, "conditions": [24, 1600, "a", 24000], "trial": 7, "serialpos": 1, "trial_type": "single-audio", "trial_index": 254, "time_elapsed": 1283194, "internal_node_id": "0.0-182.0"}}, {"uniqueid": "MTK0268:3VW6495TLK7YAUDIPELMGF89N9AYYX", "current_trial": 255, "dateTime": 1510690137832, "trialdata": {"rt": -1000, "stimulus": "/static/audio/wordpool/WOMAN.wav", "key_press": -1, "type": "PRES_AUD", "word": "woman", "wordID": 1619, "conditions": [24, 1600, "a", 24000], "trial": 7, "serialpos": 2, "trial_type": "single-audio", "trial_index": 255, "time_elapsed": 1285884, "internal_node_id": "0.0-183.0"}}, {"uniqueid": "MTK0268:3VW6495TLK7YAUDIPELMGF89N9AYYX", "current_trial": 256, "dateTime": 1510690140621, "trialdata": {"rt": -1000, "stimulus": "/static/audio/wordpool/ARM.wav", "key_press": -1, "type": "PRES_AUD", "word": "arm", "wordID": 37, "conditions": [24, 1600, "a", 24000], "trial": 7, "serialpos": 3, "trial_type": "single-audio", "trial_index": 256, "time_elapsed": 1288673, "internal_node_id": "0.0-184.0"}}, {"uniqueid": "MTK0268:3VW6495TLK7YAUDIPELMGF89N9AYYX", "current_trial": 257, "dateTime": 1510690143208, "trialdata": {"rt": -1000, "stimulus": "/static/audio/wordpool/GROUND.wav", "key_press": -1, "type": "PRES_AUD", "word": "ground", "wordID": 665, "conditions": [24, 1600, "a", 24000], "trial": 7, "serialpos": 4, "trial_type": "single-audio", "trial_index": 257, "time_elapsed": 1291260, "internal_node_id": "0.0-185.0"}}, {"uniqueid": "MTK0268:3VW6495TLK7YAUDIPELMGF89N9AYYX", "current_trial": 258, "dateTime": 1510690145829, "trialdata": {"rt": -1000, "stimulus": "/static/audio/wordpool/SNAIL.wav", "key_press": -1, "type": "PRES_AUD", "word": "snail", "wordID": 1331, "conditions": [24, 1600, "a", 24000], "trial": 7, "serialpos": 5, "trial_type": "single-audio", "trial_index": 258, "time_elapsed": 1293881, "internal_node_id": "0.0-186.0"}}, {"uniqueid": "MTK0268:3VW6495TLK7YAUDIPELMGF89N9AYYX", "current_trial": 259, "dateTime": 1510690148489, "trialdata": {"rt": -1000, "stimulus": "/static/audio/wordpool/CHAMPAGNE.wav", "key_press": -1, "type": "PRES_AUD", "word": "champagne", "wordID": 277, "conditions": [24, 1600, "a", 24000], "trial": 7, "serialpos": 6, "trial_type": "single-audio", "trial_index": 259, "time_elapsed": 1296541, "internal_node_id": "0.0-187.0"}}, {"uniqueid": "MTK0268:3VW6495TLK7YAUDIPELMGF89N9AYYX", "current_trial": 260, "dateTime": 1510690151285, "trialdata": {"rt": -1000, "stimulus": "/static/audio/wordpool/DAUGHTER.wav", "key_press": -1, "type": "PRES_AUD", "word": "daughter", "wordID": 441, "conditions": [24, 1600, "a", 24000], "trial": 7, "serialpos": 7, "trial_type": "single-audio", "trial_index": 260, "time_elapsed": 1299337, "internal_node_id": "0.0-188.0"}}, {"uniqueid": "MTK0268:3VW6495TLK7YAUDIPELMGF89N9AYYX", "current_trial": 261, "dateTime": 1510690153998, "trialdata": {"rt": -1000, "stimulus": "/static/audio/wordpool/SPARROW.wav", "key_press": -1, "type": "PRES_AUD", "word": "sparrow", "wordID": 1346, "conditions": [24, 1600, "a", 24000], "trial": 7, "serialpos": 8, "trial_type": "single-audio", "trial_index": 261, "time_elapsed": 1302050, "internal_node_id": "0.0-189.0"}}, {"uniqueid": "MTK0268:3VW6495TLK7YAUDIPELMGF89N9AYYX", "current_trial": 262, "dateTime": 1510690156518, "trialdata": {"rt": -1000, "stimulus": "/static/audio/wordpool/SALMON.wav", "key_press": -1, "type": "PRES_AUD", "word": "salmon", "wordID": 1226, "conditions": [24, 1600, "a", 24000], "trial": 7, "serialpos": 9, "trial_type": "single-audio", "trial_index": 262, "time_elapsed": 1304570, "internal_node_id": "0.0-190.0"}}, {"uniqueid": "MTK0268:3VW6495TLK7YAUDIPELMGF89N9AYYX", "current_trial": 263, "dateTime": 1510690159235, "trialdata": {"rt": -1000, "stimulus": "/static/audio/wordpool/COUNTRY.wav", "key_press": -1, "type": "PRES_AUD", "word": "country", "wordID": 387, "conditions": [24, 1600, "a", 24000], "trial": 7, "serialpos": 10, "trial_type": "single-audio", "trial_index": 263, "time_elapsed": 1307287, "internal_node_id": "0.0-191.0"}}, {"uniqueid": "MTK0268:3VW6495TLK7YAUDIPELMGF89N9AYYX", "current_trial": 264, "dateTime": 1510690162004, "trialdata": {"rt": -1000, "stimulus": "/static/audio/wordpool/WORLD.wav", "key_press": -1, "type": "PRES_AUD", "word": "world", "wordID": 1621, "conditions": [24, 1600, "a", 24000], "trial": 7, "serialpos": 11, "trial_type": "single-audio", "trial_index": 264, "time_elapsed": 1310056, "internal_node_id": "0.0-192.0"}}, {"uniqueid": "MTK0268:3VW6495TLK7YAUDIPELMGF89N9AYYX", "current_trial": 265, "dateTime": 1510690164522, "trialdata": {"rt": -1000, "stimulus": "/static/audio/wordpool/FIREPLACE.wav", "key_press": -1, "type": "PRES_AUD", "word": "fireplace", "wordID": 569, "conditions": [24, 1600, "a", 24000], "trial": 7, "serialpos": 12, "trial_type": "single-audio", "trial_index": 265, "time_elapsed": 1312574, "internal_node_id": "0.0-193.0"}}, {"uniqueid": "MTK0268:3VW6495TLK7YAUDIPELMGF89N9AYYX", "current_trial": 266, "dateTime": 1510690167077, "trialdata": {"rt": -1000, "stimulus": "/static/audio/wordpool/PORTRAIT.wav", "key_press": -1, "type": "PRES_AUD", "word": "portrait", "wordID": 1110, "conditions": [24, 1600, "a", 24000], "trial": 7, "serialpos": 13, "trial_type": "single-audio", "trial_index": 266, "time_elapsed": 1315129, "internal_node_id": "0.0-194.0"}}, {"uniqueid": "MTK0268:3VW6495TLK7YAUDIPELMGF89N9AYYX", "current_trial": 267, "dateTime": 1510690169866, "trialdata": {"rt": -1000, "stimulus": "/static/audio/wordpool/COUCH.wav", "key_press": -1, "type": "PRES_AUD", "word": "couch", "wordID": 385, "conditions": [24, 1600, "a", 24000], "trial": 7, "serialpos": 14, "trial_type": "single-audio", "trial_index": 267, "time_elapsed": 1317918, "internal_node_id": "0.0-195.0"}}, {"uniqueid": "MTK0268:3VW6495TLK7YAUDIPELMGF89N9AYYX", "current_trial": 268, "dateTime": 1510690172311, "trialdata": {"rt": -1000, "stimulus": "/static/audio/wordpool/MATTRESS.wav", "key_press": -1, "type": "PRES_AUD", "word": "mattress", "wordID": 878, "conditions": [24, 1600, "a", 24000], "trial": 7, "serialpos": 15, "trial_type": "single-audio", "trial_index": 268, "time_elapsed": 1320363, "internal_node_id": "0.0-196.0"}}, {"uniqueid": "MTK0268:3VW6495TLK7YAUDIPELMGF89N9AYYX", "current_trial": 269, "dateTime": 1510690174730, "trialdata": {"rt": -1000, "stimulus": "/static/audio/wordpool/HAND.wav", "key_press": -1, "type": "PRES_AUD", "word": "hand", "wordID": 682, "conditions": [24, 1600, "a", 24000], "trial": 7, "serialpos": 16, "trial_type": "single-audio", "trial_index": 269, "time_elapsed": 1322782, "internal_node_id": "0.0-197.0"}}, {"uniqueid": "MTK0268:3VW6495TLK7YAUDIPELMGF89N9AYYX", "current_trial": 270, "dateTime": 1510690177530, "trialdata": {"rt": -1000, "stimulus": "/static/audio/wordpool/CATCHER.wav", "key_press": -1, "type": "PRES_AUD", "word": "catcher", "wordID": 257, "conditions": [24, 1600, "a", 24000], "trial": 7, "serialpos": 17, "trial_type": "single-audio", "trial_index": 270, "time_elapsed": 1325582, "internal_node_id": "0.0-198.0"}}, {"uniqueid": "MTK0268:3VW6495TLK7YAUDIPELMGF89N9AYYX", "current_trial": 271, "dateTime": 1510690180013, "trialdata": {"rt": -1000, "stimulus": "/static/audio/wordpool/LOFT.wav", "key_press": -1, "type": "PRES_AUD", "word": "loft", "wordID": 839, "conditions": [24, 1600, "a", 24000], "trial": 7, "serialpos": 18, "trial_type": "single-audio", "trial_index": 271, "time_elapsed": 1328065, "internal_node_id": "0.0-199.0"}}, {"uniqueid": "MTK0268:3VW6495TLK7YAUDIPELMGF89N9AYYX", "current_trial": 272, "dateTime": 1510690182794, "trialdata": {"rt": -1000, "stimulus": "/static/audio/wordpool/EGYPT.wav", "key_press": -1, "type": "PRES_AUD", "word": "egypt", "wordID": 518, "conditions": [24, 1600, "a", 24000], "trial": 7, "serialpos": 19, "trial_type": "single-audio", "trial_index": 272, "time_elapsed": 1330846, "internal_node_id": "0.0-200.0"}}, {"uniqueid": "MTK0268:3VW6495TLK7YAUDIPELMGF89N9AYYX", "current_trial": 273, "dateTime": 1510690185374, "trialdata": {"rt": -1000, "stim