{"condition": 0, "counterbalance": 635, "assignmentId": "3K2755HG5TAPCS1WOS6KE9RS0KRDF5", "workerId": "MTK0400", "hitId": "388CL5C1RJUQ1GI06XN6BNFQBHVLH9", "currenttrial": 626, "bonus": 0, "data": [{"uniqueid": "MTK0400:3K2755HG5TAPCS1WOS6KE9RS0KRDF5", "current_trial": 0, "dateTime": 1510857612713, "trialdata": {"rt": 2052, "key_press": 13, "type": "INSTRUCTIONS", "trial_type": "text", "trial_index": 0, "time_elapsed": 2058, "internal_node_id": "0.0-0.0"}}, {"uniqueid": "MTK0400:3K2755HG5TAPCS1WOS6KE9RS0KRDF5", "current_trial": 1, "dateTime": 1510857632544, "trialdata": {"rt": 19828, "key_press": 13, "type": "INSTRUCTIONS", "trial_type": "text", "trial_index": 1, "time_elapsed": 21891, "internal_node_id": "0.0-1.0"}}, {"uniqueid": "MTK0400:3K2755HG5TAPCS1WOS6KE9RS0KRDF5", "current_trial": 2, "dateTime": 1510857756015, "trialdata": {"rt": [123449], "responses": ["ocean"], "type": "AUDIO_TEST", "trial_type": "audio-test", "trial_index": 2, "time_elapsed": 145361, "internal_node_id": "0.0-2.0"}}, {"uniqueid": "MTK0400:3K2755HG5TAPCS1WOS6KE9RS0KRDF5", "current_trial": 3, "dateTime": 1510857805629, "trialdata": {"rt": [49600], "responses": ["crystal"], "type": "AUDIO_TEST", "trial_type": "audio-test", "trial_index": 3, "time_elapsed": 194976, "internal_node_id": "0.0-3.0"}}, {"uniqueid": "MTK0400:3K2755HG5TAPCS1WOS6KE9RS0KRDF5", "current_trial": 4, "dateTime": 1510857816662, "trialdata": {"rt": [11022], "responses": ["spice"], "type": "AUDIO_TEST", "trial_type": "audio-test", "trial_index": 4, "time_elapsed": 206009, "internal_node_id": "0.0-4.0"}}, {"uniqueid": "MTK0400:3K2755HG5TAPCS1WOS6KE9RS0KRDF5", "current_trial": 5, "dateTime": 1510857836488, "trialdata": {"rt": 19064, "responses": "{\"Q0\":\"12:30am\",\"Q1\":\"7am\",\"Q2\":\"4\"}", "type": "SLEEP_SURVEY", "trial_type": "survey-text", "trial_index": 5, "time_elapsed": 225834, "internal_node_id": "0.0-5.0"}}, {"uniqueid": "MTK0400:3K2755HG5TAPCS1WOS6KE9RS0KRDF5", "current_trial": 6, "dateTime": 1510857880009, "trialdata": {"rt": 42517, "key_press": 13, "type": "INSTRUCTIONS", "trial_type": "text", "trial_index": 6, "time_elapsed": 269355, "internal_node_id": "0.0-6.0"}}, {"uniqueid": "MTK0400:3K2755HG5TAPCS1WOS6KE9RS0KRDF5", "current_trial": 7, "dateTime": 1510857901716, "trialdata": {"rt": 21205, "key_press": 13, "type": "INSTRUCTIONS", "trial_type": "text", "trial_index": 7, "time_elapsed": 291063, "internal_node_id": "0.0-7.0"}}, {"uniqueid": "MTK0400:3K2755HG5TAPCS1WOS6KE9RS0KRDF5", "current_trial": 8, "dateTime": 1510857918570, "trialdata": {"rt": 16349, "key_press": 13, "type": "INSTRUCTIONS", "trial_type": "text", "trial_index": 8, "time_elapsed": 307916, "internal_node_id": "0.0-8.0"}}, {"uniqueid": "MTK0400:3K2755HG5TAPCS1WOS6KE9RS0KRDF5", "current_trial": 9, "dateTime": 1510857937587, "trialdata": {"rt": [3363, 6881, 9808, 12389, 16315], "responses": ["10", "20", "21", "15", "16"], "num1": [3, 8, 9, 1, 1, 2], "num2": [1, 3, 3, 7, 6, 6], "num3": [6, 9, 9, 7, 9, 3], "type": "DISTRACTOR", "conditions": [18, 1200, "a", 18000], "trial": 0, "trial_type": "math-distractor", "trial_index": 9, "time_elapsed": 326934, "internal_node_id": "0.0-9.0"}}, {"uniqueid": "MTK0400:3K2755HG5TAPCS1WOS6KE9RS0KRDF5", "current_trial": 10, "dateTime": 1510857940593, "trialdata": {"rt": -1, "stimulus": "<p id=\"stim\">10</p>", "key_press": -1, "trial_type": "single-stim", "trial_index": 10, "time_elapsed": 329940, "internal_node_id": "0.0-10.0-0.0"}}, {"uniqueid": "MTK0400:3K2755HG5TAPCS1WOS6KE9RS0KRDF5", "current_trial": 11, "dateTime": 1510857941597, "trialdata": {"rt": -1, "stimulus": "<p id=\"stim\">9</p>", "key_press": -1, "trial_type": "single-stim", "trial_index": 11, "time_elapsed": 330944, "internal_node_id": "0.0-10.0-1.0"}}, {"uniqueid": "MTK0400:3K2755HG5TAPCS1WOS6KE9RS0KRDF5", "current_trial": 12, "dateTime": 1510857942600, "trialdata": {"rt": -1, "stimulus": "<p id=\"stim\">8</p>", "key_press": -1, "trial_type": "single-stim", "trial_index": 12, "time_elapsed": 331947, "internal_node_id": "0.0-10.0-2.0"}}, {"uniqueid": "MTK0400:3K2755HG5TAPCS1WOS6KE9RS0KRDF5", "current_trial": 13, "dateTime": 1510857943606, "trialdata": {"rt": -1, "stimulus": "<p id=\"stim\">7</p>", "key_press": -1, "trial_type": "single-stim", "trial_index": 13, "time_elapsed": 332953, "internal_node_id": "0.0-10.0-3.0"}}, {"uniqueid": "MTK0400:3K2755HG5TAPCS1WOS6KE9RS0KRDF5", "current_trial": 14, "dateTime": 1510857944610, "trialdata": {"rt": -1, "stimulus": "<p id=\"stim\">6</p>", "key_press": -1, "trial_type": "single-stim", "trial_index": 14, "time_elapsed": 333956, "internal_node_id": "0.0-10.0-4.0"}}, {"uniqueid": "MTK0400:3K2755HG5TAPCS1WOS6KE9RS0KRDF5", "current_trial": 15, "dateTime": 1510857945612, "trialdata": {"rt": -1, "stimulus": "<p id=\"stim\">5</p>", "key_press": -1, "trial_type": "single-stim", "trial_index": 15, "time_elapsed": 334959, "internal_node_id": "0.0-10.0-5.0"}}, {"uniqueid": "MTK0400:3K2755HG5TAPCS1WOS6KE9RS0KRDF5", "current_trial": 16, "dateTime": 1510857946618, "trialdata": {"rt": -1, "stimulus": "<p id=\"stim\">4</p>", "key_press": -1, "trial_type": "single-stim", "trial_index": 16, "time_elapsed": 335964, "internal_node_id": "0.0-10.0-6.0"}}, {"uniqueid": "MTK0400:3K2755HG5TAPCS1WOS6KE9RS0KRDF5", "current_trial": 17, "dateTime": 1510857947621, "trialdata": {"rt": -1, "stimulus": "<p id=\"stim\">3</p>", "key_press": -1, "trial_type": "single-stim", "trial_index": 17, "time_elapsed": 336968, "internal_node_id": "0.0-10.0-7.0"}}, {"uniqueid": "MTK0400:3K2755HG5TAPCS1WOS6KE9RS0KRDF5", "current_trial": 18, "dateTime": 1510857948624, "trialdata": {"rt": -1, "stimulus": "<p id=\"stim\">2</p>", "key_press": -1, "trial_type": "single-stim", "trial_index": 18, "time_elapsed": 337970, "internal_node_id": "0.0-10.0-8.0"}}, {"uniqueid": "MTK0400:3K2755HG5TAPCS1WOS6KE9RS0KRDF5", "current_trial": 19, "dateTime": 1510857949627, "trialdata": {"rt": -1, "stimulus": "<p id=\"stim\">1</p>", "key_press": -1, "trial_type": "single-stim", "trial_index": 19, "time_elapsed": 338974, "internal_node_id": "0.0-10.0-9.0"}}, {"uniqueid": "MTK0400:3K2755HG5TAPCS1WOS6KE9RS0KRDF5", "current_trial": 20, "dateTime": 1510857951131, "trialdata": {"rt": -1, "stimulus": "<p id=\"stim\">+</p>", "key_press": -1, "type": "FIXATION", "trial_type": "single-stim", "trial_index": 20, "time_elapsed": 340478, "internal_node_id": "0.0-11.0-0.0"}}, {"uniqueid": "MTK0400:3K2755HG5TAPCS1WOS6KE9RS0KRDF5", "current_trial": 21, "dateTime": 1510857953518, "trialdata": {"rt": -1000, "stimulus": "/static/audio/wordpool/PIGEON.wav", "key_press": -1, "type": "PRES_AUD", "word": "pigeon", "wordID": 1064, "conditions": [18, 1200, "a", 18000], "trial": 0, "serialpos": 0, "trial_type": "single-audio", "trial_index": 21, "time_elapsed": 342865, "internal_node_id": "0.0-12.0"}}, {"uniqueid": "MTK0400:3K2755HG5TAPCS1WOS6KE9RS0KRDF5", "current_trial": 22, "dateTime": 1510857957832, "trialdata": {"rt": -1000, "stimulus": "/static/audio/wordpool/JAPAN.wav", "key_press": -1, "type": "PRES_AUD", "word": "japan", "wordID": 748, "conditions": [18, 1200, "a", 18000], "trial": 0, "serialpos": 1, "trial_type": "single-audio", "trial_index": 22, "time_elapsed": 347179, "internal_node_id": "0.0-13.0"}}, {"uniqueid": "MTK0400:3K2755HG5TAPCS1WOS6KE9RS0KRDF5", "current_trial": 23, "dateTime": 1510857960071, "trialdata": {"rt": -1000, "stimulus": "/static/audio/wordpool/PLUTO.wav", "key_press": -1, "type": "PRES_AUD", "word": "pluto", "wordID": 1091, "conditions": [18, 1200, "a", 18000], "trial": 0, "serialpos": 2, "trial_type": "single-audio", "trial_index": 23, "time_elapsed": 349418, "internal_node_id": "0.0-14.0"}}, {"uniqueid": "MTK0400:3K2755HG5TAPCS1WOS6KE9RS0KRDF5", "current_trial": 24, "dateTime": 1510857962444, "trialdata": {"rt": -1000, "stimulus": "/static/audio/wordpool/GRAPE.wav", "key_press": -1, "type": "PRES_AUD", "word": "grape", "wordID": 653, "conditions": [18, 1200, "a", 18000], "trial": 0, "serialpos": 3, "trial_type": "single-audio", "trial_index": 24, "time_elapsed": 351791, "internal_node_id": "0.0-15.0"}}, {"uniqueid": "MTK0400:3K2755HG5TAPCS1WOS6KE9RS0KRDF5", "current_trial": 25, "dateTime": 1510857964568, "trialdata": {"rt": -1000, "stimulus": "/static/audio/wordpool/GIRL.wav", "key_press": -1, "type": "PRES_AUD", "word": "girl", "wordID": 636, "conditions": [18, 1200, "a", 18000], "trial": 0, "serialpos": 4, "trial_type": "single-audio", "trial_index": 25, "time_elapsed": 353915, "internal_node_id": "0.0-16.0"}}, {"uniqueid": "MTK0400:3K2755HG5TAPCS1WOS6KE9RS0KRDF5", "current_trial": 26, "dateTime": 1510857966968, "trialdata": {"rt": -1000, "stimulus": "/static/audio/wordpool/DONKEY.wav", "key_press": -1, "type": "PRES_AUD", "word": "donkey", "wordID": 483, "conditions": [18, 1200, "a", 18000], "trial": 0, "serialpos": 5, "trial_type": "single-audio", "trial_index": 26, "time_elapsed": 356315, "internal_node_id": "0.0-17.0"}}, {"uniqueid": "MTK0400:3K2755HG5TAPCS1WOS6KE9RS0KRDF5", "current_trial": 27, "dateTime": 1510857969204, "trialdata": {"rt": -1000, "stimulus": "/static/audio/wordpool/SHARK.wav", "key_press": -1, "type": "PRES_AUD", "word": "shark", "wordID": 1274, "conditions": [18, 1200, "a", 18000], "trial": 0, "serialpos": 6, "trial_type": "single-audio", "trial_index": 27, "time_elapsed": 358551, "internal_node_id": "0.0-18.0"}}, {"uniqueid": "MTK0400:3K2755HG5TAPCS1WOS6KE9RS0KRDF5", "current_trial": 28, "dateTime": 1510857971483, "trialdata": {"rt": -1000, "stimulus": "/static/audio/wordpool/ARMY.wav", "key_press": -1, "type": "PRES_AUD", "word": "army", "wordID": 38, "conditions": [18, 1200, "a", 18000], "trial": 0, "serialpos": 7, "trial_type": "single-audio", "trial_index": 28, "time_elapsed": 360830, "internal_node_id": "0.0-19.0"}}, {"uniqueid": "MTK0400:3K2755HG5TAPCS1WOS6KE9RS0KRDF5", "current_trial": 29, "dateTime": 1510857973747, "trialdata": {"rt": -1000, "stimulus": "/static/audio/wordpool/NIGHTGOWN.wav", "key_press": -1, "type": "PRES_AUD", "word": "nightgown", "wordID": 952, "conditions": [18, 1200, "a", 18000], "trial": 0, "serialpos": 8, "trial_type": "single-audio", "trial_index": 29, "time_elapsed": 363094, "internal_node_id": "0.0-20.0"}}, {"uniqueid": "MTK0400:3K2755HG5TAPCS1WOS6KE9RS0KRDF5", "current_trial": 30, "dateTime": 1510857975913, "trialdata": {"rt": -1000, "stimulus": "/static/audio/wordpool/SHOULDER.wav", "key_press": -1, "type": "PRES_AUD", "word": "shoulder", "wordID": 1293, "conditions": [18, 1200, "a", 18000], "trial": 0, "serialpos": 9, "trial_type": "single-audio", "trial_index": 30, "time_elapsed": 365260, "internal_node_id": "0.0-21.0"}}, {"uniqueid": "MTK0400:3K2755HG5TAPCS1WOS6KE9RS0KRDF5", "current_trial": 31, "dateTime": 1510857980038, "trialdata": {"rt": -1000, "stimulus": "/static/audio/wordpool/CARRIAGE.wav", "key_press": -1, "type": "PRES_AUD", "word": "carriage", "wordID": 247, "conditions": [18, 1200, "a", 18000], "trial": 0, "serialpos": 10, "trial_type": "single-audio", "trial_index": 31, "time_elapsed": 369385, "internal_node_id": "0.0-22.0"}}, {"uniqueid": "MTK0400:3K2755HG5TAPCS1WOS6KE9RS0KRDF5", "current_trial": 32, "dateTime": 1510857982171, "trialdata": {"rt": -1000, "stimulus": "/static/audio/wordpool/APRON.wav", "key_press": -1, "type": "PRES_AUD", "word": "apron", "wordID": 34, "conditions": [18, 1200, "a", 18000], "trial": 0, "serialpos": 11, "trial_type": "single-audio", "trial_index": 32, "time_elapsed": 371518, "internal_node_id": "0.0-23.0"}}, {"uniqueid": "MTK0400:3K2755HG5TAPCS1WOS6KE9RS0KRDF5", "current_trial": 33, "dateTime": 1510857984484, "trialdata": {"rt": -1000, "stimulus": "/static/audio/wordpool/AIRPORT.wav", "key_press": -1, "type": "PRES_AUD", "word": "airport", "wordID": 12, "conditions": [18, 1200, "a", 18000], "trial": 0, "serialpos": 12, "trial_type": "single-audio", "trial_index": 33, "time_elapsed": 373831, "internal_node_id": "0.0-24.0"}}, {"uniqueid": "MTK0400:3K2755HG5TAPCS1WOS6KE9RS0KRDF5", "current_trial": 34, "dateTime": 1510857986729, "trialdata": {"rt": -1000, "stimulus": "/static/audio/wordpool/SHERIFF.wav", "key_press": -1, "type": "PRES_AUD", "word": "sheriff", "wordID": 1283, "conditions": [18, 1200, "a", 18000], "trial": 0, "serialpos": 13, "trial_type": "single-audio", "trial_index": 34, "time_elapsed": 376076, "internal_node_id": "0.0-25.0"}}, {"uniqueid": "MTK0400:3K2755HG5TAPCS1WOS6KE9RS0KRDF5", "current_trial": 35, "dateTime": 1510857989038, "trialdata": {"rt": -1000, "stimulus": "/static/audio/wordpool/GAZELLE.wav", "key_press": -1, "type": "PRES_AUD", "word": "gazelle", "wordID": 627, "conditions": [18, 1200, "a", 18000], "trial": 0, "serialpos": 14, "trial_type": "single-audio", "trial_index": 35, "time_elapsed": 378385, "internal_node_id": "0.0-26.0"}}, {"uniqueid": "MTK0400:3K2755HG5TAPCS1WOS6KE9RS0KRDF5", "current_trial": 36, "dateTime": 1510857991067, "trialdata": {"rt": -1000, "stimulus": "/static/audio/wordpool/SISTER.wav", "key_press": -1, "type": "PRES_AUD", "word": "sister", "wordID": 1311, "conditions": [18, 1200, "a", 18000], "trial": 0, "serialpos": 15, "trial_type": "single-audio", "trial_index": 36, "time_elapsed": 380413, "internal_node_id": "0.0-27.0"}}, {"uniqueid": "MTK0400:3K2755HG5TAPCS1WOS6KE9RS0KRDF5", "current_trial": 37, "dateTime": 1510857993319, "trialdata": {"rt": -1000, "stimulus": "/static/audio/wordpool/VICTIM.wav", "key_press": -1, "type": "PRES_AUD", "word": "victim", "wordID": 1561, "conditions": [18, 1200, "a", 18000], "trial": 0, "serialpos": 16, "trial_type": "single-audio", "trial_index": 37, "time_elapsed": 382666, "internal_node_id": "0.0-28.0"}}, {"uniqueid": "MTK0400:3K2755HG5TAPCS1WOS6KE9RS0KRDF5", "current_trial": 38, "dateTime": 1510857995709, "trialdata": {"rt": -1000, "stimulus": "/static/audio/wordpool/BELLY.wav", "key_press": -1, "type": "PRES_AUD", "word": "belly", "wordID": 118, "conditions": [18, 1200, "a", 18000], "trial": 0, "serialpos": 17, "trial_type": "single-audio", "trial_index": 38, "time_elapsed": 385056, "internal_node_id": "0.0-29.0"}}, {"uniqueid": "MTK0400:3K2755HG5TAPCS1WOS6KE9RS0KRDF5", "current_trial": 39, "dateTime": 1510857996982, "trialdata": {"rt": -1, "stimulus": "", "key_press": -1, "type": "PRE_RECALL_DELAY", "trial_type": "single-stim", "trial_index": 39, "time_elapsed": 386329, "internal_node_id": "0.0-30.0-0.0"}}, {"uniqueid": "MTK0400:3K2755HG5TAPCS1WOS6KE9RS0KRDF5", "current_trial": 40, "dateTime": 1510857997486, "trialdata": {"rt": -1000, "stimulus": "/static/audio/400Hz.wav", "key_press": -1, "type": "PRE_RECALL_ALERT", "trial_type": "single-audio", "trial_index": 40, "time_elapsed": 386833, "internal_node_id": "0.0-31.0"}}, {"uniqueid": "MTK0400:3K2755HG5TAPCS1WOS6KE9RS0KRDF5", "current_trial": 41, "dateTime": 1510858057513, "trialdata": {"rt": [9946, 13748, 16443, 18796, 23171, 25092, 29301, 30999, 37748, 39508, 47423, 48721, 53155, 54400, 58595], "recwords": ["girl", "shoulder", "gazelle", "japan", "belly", "shoulder", "victim", "grape", "bird", "apron", "open", "easy", "arrow", "green", "grapes"], "type": "FREE_RECALL", "conditions": [18, 1200, "a", 18000], "trial": 0, "trial_type": "free-recall", "trial_index": 41, "time_elapsed": 446844, "internal_node_id": "0.0-32.0-0.0"}}, {"uniqueid": "MTK0400:3K2755HG5TAPCS1WOS6KE9RS0KRDF5", "current_trial": 42, "dateTime": 1510858061501, "trialdata": {"rt": 1985, "key_press": 13, "type": "INSTRUCTIONS", "trial_type": "text", "trial_index": 42, "time_elapsed": 450847, "internal_node_id": "0.0-33.0"}}, {"uniqueid": "MTK0400:3K2755HG5TAPCS1WOS6KE9RS0KRDF5", "current_trial": 43, "dateTime": 1510858081509, "trialdata": {"rt": [3293, 6276, 8402, 11501, 14243, 17325], "responses": ["11", "21", "4", "17", "20", "20"], "num1": [6, 5, 2, 5, 4, 8, 6], "num2": [1, 9, 1, 6, 8, 6, 9], "num3": [4, 7, 1, 6, 8, 6, 4], "type": "DISTRACTOR", "conditions": [18, 1200, "v", 18000], "trial": 1, "trial_type": "math-distractor", "trial_index": 43, "time_elapsed": 470855, "internal_node_id": "0.0-34.0"}}, {"uniqueid": "MTK0400:3K2755HG5TAPCS1WOS6KE9RS0KRDF5", "current_trial": 44, "dateTime": 1510858084514, "trialdata": {"rt": -1, "stimulus": "<p id=\"stim\">10</p>", "key_press": -1, "trial_type": "single-stim", "trial_index": 44, "time_elapsed": 473861, "internal_node_id": "0.0-35.0-0.0"}}, {"uniqueid": "MTK0400:3K2755HG5TAPCS1WOS6KE9RS0KRDF5", "current_trial": 45, "dateTime": 1510858085518, "trialdata": {"rt": -1, "stimulus": "<p id=\"stim\">9</p>", "key_press": -1, "trial_type": "single-stim", "trial_index": 45, "time_elapsed": 474865, "internal_node_id": "0.0-35.0-1.0"}}, {"uniqueid": "MTK0400:3K2755HG5TAPCS1WOS6KE9RS0KRDF5", "current_trial": 46, "dateTime": 1510858086521, "trialdata": {"rt": -1, "stimulus": "<p id=\"stim\">8</p>", "key_press": -1, "trial_type": "single-stim", "trial_index": 46, "time_elapsed": 475868, "internal_node_id": "0.0-35.0-2.0"}}, {"uniqueid": "MTK0400:3K2755HG5TAPCS1WOS6KE9RS0KRDF5", "current_trial": 47, "dateTime": 1510858087525, "trialdata": {"rt": -1, "stimulus": "<p id=\"stim\">7</p>", "key_press": -1, "trial_type": "single-stim", "trial_index": 47, "time_elapsed": 476871, "internal_node_id": "0.0-35.0-3.0"}}, {"uniqueid": "MTK0400:3K2755HG5TAPCS1WOS6KE9RS0KRDF5", "current_trial": 48, "dateTime": 1510858088528, "trialdata": {"rt": -1, "stimulus": "<p id=\"stim\">6</p>", "key_press": -1, "trial_type": "single-stim", "trial_index": 48, "time_elapsed": 477875, "internal_node_id": "0.0-35.0-4.0"}}, {"uniqueid": "MTK0400:3K2755HG5TAPCS1WOS6KE9RS0KRDF5", "current_trial": 49, "dateTime": 1510858089533, "trialdata": {"rt": -1, "stimulus": "<p id=\"stim\">5</p>", "key_press": -1, "trial_type": "single-stim", "trial_index": 49, "time_elapsed": 478879, "internal_node_id": "0.0-35.0-5.0"}}, {"uniqueid": "MTK0400:3K2755HG5TAPCS1WOS6KE9RS0KRDF5", "current_trial": 50, "dateTime": 1510858090536, "trialdata": {"rt": -1, "stimulus": "<p id=\"stim\">4</p>", "key_press": -1, "trial_type": "single-stim", "trial_index": 50, "time_elapsed": 479883, "internal_node_id": "0.0-35.0-6.0"}}, {"uniqueid": "MTK0400:3K2755HG5TAPCS1WOS6KE9RS0KRDF5", "current_trial": 51, "dateTime": 1510858091539, "trialdata": {"rt": -1, "stimulus": "<p id=\"stim\">3</p>", "key_press": -1, "trial_type": "single-stim", "trial_index": 51, "time_elapsed": 480885, "internal_node_id": "0.0-35.0-7.0"}}, {"uniqueid": "MTK0400:3K2755HG5TAPCS1WOS6KE9RS0KRDF5", "current_trial": 52, "dateTime": 1510858092542, "trialdata": {"rt": -1, "stimulus": "<p id=\"stim\">2</p>", "key_press": -1, "trial_type": "single-stim", "trial_index": 52, "time_elapsed": 481888, "internal_node_id": "0.0-35.0-8.0"}}, {"uniqueid": "MTK0400:3K2755HG5TAPCS1WOS6KE9RS0KRDF5", "current_trial": 53, "dateTime": 1510858093546, "trialdata": {"rt": -1, "stimulus": "<p id=\"stim\">1</p>", "key_press": -1, "trial_type": "single-stim", "trial_index": 53, "time_elapsed": 482893, "internal_node_id": "0.0-35.0-9.0"}}, {"uniqueid": "MTK0400:3K2755HG5TAPCS1WOS6KE9RS0KRDF5", "current_trial": 54, "dateTime": 1510858095050, "trialdata": {"rt": -1, "stimulus": "<p id=\"stim\">+</p>", "key_press": -1, "type": "FIXATION", "trial_type": "single-stim", "trial_index": 54, "time_elapsed": 484396, "internal_node_id": "0.0-36.0-0.0"}}, {"uniqueid": "MTK0400:3K2755HG5TAPCS1WOS6KE9RS0KRDF5", "current_trial": 55, "dateTime": 1510858096253, "trialdata": {"rt": -1, "stimulus": "<p id=\"stim\">SODA</p>", "key_press": -1, "type": "PRES_VIS", "word": "soda", "wordID": 1340, "conditions": [18, 1200, "v", 18000], "trial": 1, "serialpos": 0, "trial_type": "single-stim", "trial_index": 55, "time_elapsed": 485600, "internal_node_id": "0.0-37.0"}}, {"uniqueid": "MTK0400:3K2755HG5TAPCS1WOS6KE9RS0KRDF5", "current_trial": 56, "dateTime": 1510858098654, "trialdata": {"rt": -1, "stimulus": "<p id=\"stim\">RACKET</p>", "key_press": -1, "type": "PRES_VIS", "word": "racket", "wordID": 1154, "conditions": [18, 1200, "v", 18000], "trial": 1, "serialpos": 1, "trial_type": "single-stim", "trial_index": 56, "time_elapsed": 488001, "internal_node_id": "0.0-38.0"}}, {"uniqueid": "MTK0400:3K2755HG5TAPCS1WOS6KE9RS0KRDF5", "current_trial": 57, "dateTime": 1510858100753, "trialdata": {"rt": -1, "stimulus": "<p id=\"stim\">PORK</p>", "key_press": -1, "type": "PRES_VIS", "word": "pork", "wordID": 1107, "conditions": [18, 1200, "v", 18000], "trial": 1, "serialpos": 2, "trial_type": "single-stim", "trial_index": 57, "time_elapsed": 490099, "internal_node_id": "0.0-39.0"}}, {"uniqueid": "MTK0400:3K2755HG5TAPCS1WOS6KE9RS0KRDF5", "current_trial": 58, "dateTime": 1510858102904, "trialdata": {"rt": -1, "stimulus": "<p id=\"stim\">OYSTER</p>", "key_press": -1, "type": "PRES_VIS", "word": "oyster", "wordID": 994, "conditions": [18, 1200, "v", 18000], "trial": 1, "serialpos": 3, "trial_type": "single-stim", "trial_index": 58, "time_elapsed": 492251, "internal_node_id": "0.0-40.0"}}, {"uniqueid": "MTK0400:3K2755HG5TAPCS1WOS6KE9RS0KRDF5", "current_trial": 59, "dateTime": 1510858105007, "trialdata": {"rt": -1, "stimulus": "<p id=\"stim\">SPHINX</p>", "key_press": -1, "type": "PRES_VIS", "word": "sphinx", "wordID": 1348, "conditions": [18, 1200, "v", 18000], "trial": 1, "serialpos": 4, "trial_type": "single-stim", "trial_index": 59, "time_elapsed": 494353, "internal_node_id": "0.0-41.0"}}, {"uniqueid": "MTK0400:3K2755HG5TAPCS1WOS6KE9RS0KRDF5", "current_trial": 60, "dateTime": 1510858107303, "trialdata": {"rt": -1, "stimulus": "<p id=\"stim\">OMELET</p>", "key_press": -1, "type": "PRES_VIS", "word": "omelet", "wordID": 975, "conditions": [18, 1200, "v", 18000], "trial": 1, "serialpos": 5, "trial_type": "single-stim", "trial_index": 60, "time_elapsed": 496650, "internal_node_id": "0.0-42.0"}}, {"uniqueid": "MTK0400:3K2755HG5TAPCS1WOS6KE9RS0KRDF5", "current_trial": 61, "dateTime": 1510858109646, "trialdata": {"rt": -1, "stimulus": "<p id=\"stim\">HARP</p>", "key_press": -1, "type": "PRES_VIS", "word": "harp", "wordID": 688, "conditions": [18, 1200, "v", 18000], "trial": 1, "serialpos": 6, "trial_type": "single-stim", "trial_index": 61, "time_elapsed": 498993, "internal_node_id": "0.0-43.0"}}, {"uniqueid": "MTK0400:3K2755HG5TAPCS1WOS6KE9RS0KRDF5", "current_trial": 62, "dateTime": 1510858111922, "trialdata": {"rt": -1, "stimulus": "<p id=\"stim\">QUEEN</p>", "key_press": -1, "type": "PRES_VIS", "word": "queen", "wordID": 1148, "conditions": [18, 1200, "v", 18000], "trial": 1, "serialpos": 7, "trial_type": "single-stim", "trial_index": 62, "time_elapsed": 501269, "internal_node_id": "0.0-44.0"}}, {"uniqueid": "MTK0400:3K2755HG5TAPCS1WOS6KE9RS0KRDF5", "current_trial": 63, "dateTime": 1510858113934, "trialdata": {"rt": -1, "stimulus": "<p id=\"stim\">NOVEL</p>", "key_press": -1, "type": "PRES_VIS", "word": "novel", "wordID": 959, "conditions": [18, 1200, "v", 18000], "trial": 1, "serialpos": 8, "trial_type": "single-stim", "trial_index": 63, "time_elapsed": 503281, "internal_node_id": "0.0-45.0"}}, {"uniqueid": "MTK0400:3K2755HG5TAPCS1WOS6KE9RS0KRDF5", "current_trial": 64, "dateTime": 1510858116099, "trialdata": {"rt": -1, "stimulus": "<p id=\"stim\">NOMAD</p>", "key_press": -1, "type": "PRES_VIS", "word": "nomad", "wordID": 954, "conditions": [18, 1200, "v", 18000], "trial": 1, "serialpos": 9, "trial_type": "single-stim", "trial_index": 64, "time_elapsed": 505445, "internal_node_id": "0.0-46.0"}}, {"uniqueid": "MTK0400:3K2755HG5TAPCS1WOS6KE9RS0KRDF5", "current_trial": 65, "dateTime": 1510858118499, "trialdata": {"rt": -1, "stimulus": "<p id=\"stim\">PEACH</p>", "key_press": -1, "type": "PRES_VIS", "word": "peach", "wordID": 1030, "conditions": [18, 1200, "v", 18000], "trial": 1, "serialpos": 10, "trial_type": "single-stim", "trial_index": 65, "time_elapsed": 507845, "internal_node_id": "0.0-47.0"}}, {"uniqueid": "MTK0400:3K2755HG5TAPCS1WOS6KE9RS0KRDF5", "current_trial": 66, "dateTime": 1510858120794, "trialdata": {"rt": -1, "stimulus": "<p id=\"stim\">BEAKER</p>", "key_press": -1, "type": "PRES_VIS", "word": "beaker", "wordID": 103, "conditions": [18, 1200, "v", 18000], "trial": 1, "serialpos": 11, "trial_type": "single-stim", "trial_index": 66, "time_elapsed": 510140, "internal_node_id": "0.0-48.0"}}, {"uniqueid": "MTK0400:3K2755HG5TAPCS1WOS6KE9RS0KRDF5", "current_trial": 67, "dateTime": 1510858123064, "trialdata": {"rt": -1, "stimulus": "<p id=\"stim\">RAFT</p>", "key_press": -1, "type": "PRES_VIS", "word": "raft", "wordID": 1158, "conditions": [18, 1200, "v", 18000], "trial": 1, "serialpos": 12, "trial_type": "single-stim", "trial_index": 67, "time_elapsed": 512411, "internal_node_id": "0.0-49.0"}}, {"uniqueid": "MTK0400:3K2755HG5TAPCS1WOS6KE9RS0KRDF5", "current_trial": 68, "dateTime": 1510858125341, "trialdata": {"rt": -1, "stimulus": "<p id=\"stim\">PARENT</p>", "key_press": -1, "type": "PRES_VIS", "word": "parent", "wordID": 1012, "conditions": [18, 1200, "v", 18000], "trial": 1, "serialpos": 13, "trial_type": "single-stim", "trial_index": 68, "time_elapsed": 514681, "internal_node_id": "0.0-50.0"}}, {"uniqueid": "MTK0400:3K2755HG5TAPCS1WOS6KE9RS0KRDF5", "current_trial": 69, "dateTime": 1510858127601, "trialdata": {"rt": -1, "stimulus": "<p id=\"stim\">JUDGE</p>", "key_press": -1, "type": "PRES_VIS", "word": "judge", "wordID": 760, "conditions": [18, 1200, "v", 18000], "trial": 1, "serialpos": 14, "trial_type": "single-stim", "trial_index": 69, "time_elapsed": 516947, "internal_node_id": "0.0-51.0"}}, {"uniqueid": "MTK0400:3K2755HG5TAPCS1WOS6KE9RS0KRDF5", "current_trial": 70, "dateTime": 1510858129825, "trialdata": {"rt": -1, "stimulus": "<p id=\"stim\">SCOTCH</p>", "key_press": -1, "type": "PRES_VIS", "word": "scotch", "wordID": 1250, "conditions": [18, 1200, "v", 18000], "trial": 1, "serialpos": 15, "trial_type": "single-stim", "trial_index": 70, "time_elapsed": 519172, "internal_node_id": "0.0-52.0"}}, {"uniqueid": "MTK0400:3K2755HG5TAPCS1WOS6KE9RS0KRDF5", "current_trial": 71, "dateTime": 1510858132058, "trialdata": {"rt": -1, "stimulus": "<p id=\"stim\">SIDEWALK</p>", "key_press": -1, "type": "PRES_VIS", "word": "sidewalk", "wordID": 1302, "conditions": [18, 1200, "v", 18000], "trial": 1, "serialpos": 16, "trial_type": "single-stim", "trial_index": 71, "time_elapsed": 521404, "internal_node_id": "0.0-53.0"}}, {"uniqueid": "MTK0400:3K2755HG5TAPCS1WOS6KE9RS0KRDF5", "current_trial": 72, "dateTime": 1510858134249, "trialdata": {"rt": -1, "stimulus": "<p id=\"stim\">HIKER</p>", "key_press": -1, "type": "PRES_VIS", "word": "hiker", "wordID": 707, "conditions": [18, 1200, "v", 18000], "trial": 1, "serialpos": 17, "trial_type": "single-stim", "trial_index": 72, "time_elapsed": 523596, "internal_node_id": "0.0-54.0"}}, {"uniqueid": "MTK0400:3K2755HG5TAPCS1WOS6KE9RS0KRDF5", "current_trial": 73, "dateTime": 1510858136702, "trialdata": {"rt": -1, "stimulus": "", "key_press": -1, "type": "PRE_RECALL_DELAY", "trial_type": "single-stim", "trial_index": 73, "time_elapsed": 526049, "internal_node_id": "0.0-55.0-0.0"}}, {"uniqueid": "MTK0400:3K2755HG5TAPCS1WOS6KE9RS0KRDF5", "current_trial": 74, "dateTime": 1510858137210, "trialdata": {"rt": -1000, "stimulus": "/static/audio/400Hz.wav", "key_press": -1, "type": "PRE_RECALL_ALERT", "trial_type": "single-audio", "trial_index": 74, "time_elapsed": 526557, "internal_node_id": "0.0-56.0"}}, {"uniqueid": "MTK0400:3K2755HG5TAPCS1WOS6KE9RS0KRDF5", "current_trial": 75, "dateTime": 1510858197224, "trialdata": {"rt": [3395, 4030, 5603, 5761, 7510, 7751, 9004, 9136, 10898, 11049, 17089, 21144, 22292, 26242, 33456, 34878, 39878, 41537, 46865, 56362, 58175], "recwords": ["hiker", "", "scotch", "", "nomad", "", "novel", "", "omelet", "", "egg", "beaker", "parent", "child", "beaver", "dog", "racket", "rocket", "pigeon", "scotchman", "guard"], "type": "FREE_RECALL", "conditions": [18, 1200, "v", 18000], "trial": 1, "trial_type": "free-recall", "trial_index": 75, "time_elapsed": 586564, "internal_node_id": "0.0-57.0-0.0"}}, {"uniqueid": "MTK0400:3K2755HG5TAPCS1WOS6KE9RS0KRDF5", "current_trial": 76, "dateTime": 1510858201894, "trialdata": {"rt": 2656, "key_press": 13, "type": "INSTRUCTIONS", "trial_type": "text", "trial_index": 76, "time_elapsed": 591231, "internal_node_id": "0.0-58.0"}}, {"uniqueid": "MTK0400:3K2755HG5TAPCS1WOS6KE9RS0KRDF5", "current_trial": 77, "dateTime": 1510858214901, "trialdata": {"rt": [2301, 5478, 7651, 9888, 11560], "responses": ["8", "16", "13", "10", "13"], "num1": [5, 7, 8, 1, 3, 3], "num2": [2, 3, 3, 6, 5, 3], "num3": [1, 6, 2, 3, 5, 8], "type": "DISTRACTOR", "conditions": [24, 1600, "a", 12000], "trial": 2, "trial_type": "math-distractor", "trial_index": 77, "time_elapsed": 604248, "internal_node_id": "0.0-59.0"}}, {"uniqueid": "MTK0400:3K2755HG5TAPCS1WOS6KE9RS0KRDF5", "current_trial": 78, "dateTime": 1510858217904, "trialdata": {"rt": -1, "stimulus": "<p id=\"stim\">10</p>", "key_press": -1, "trial_type": "single-stim", "trial_index": 78, "time_elapsed": 607251, "internal_node_id": "0.0-60.0-0.0"}}, {"uniqueid": "MTK0400:3K2755HG5TAPCS1WOS6KE9RS0KRDF5", "current_trial": 79, "dateTime": 1510858218906, "trialdata": {"rt": -1, "stimulus": "<p id=\"stim\">9</p>", "key_press": -1, "trial_type": "single-stim", "trial_index": 79, "time_elapsed": 608253, "internal_node_id": "0.0-60.0-1.0"}}, {"uniqueid": "MTK0400:3K2755HG5TAPCS1WOS6KE9RS0KRDF5", "current_trial": 80, "dateTime": 1510858219909, "trialdata": {"rt": -1, "stimulus": "<p id=\"stim\">8</p>", "key_press": -1, "trial_type": "single-stim", "trial_index": 80, "time_elapsed": 609256, "internal_node_id": "0.0-60.0-2.0"}}, {"uniqueid": "MTK0400:3K2755HG5TAPCS1WOS6KE9RS0KRDF5", "current_trial": 81, "dateTime": 1510858220913, "trialdata": {"rt": -1, "stimulus": "<p id=\"stim\">7</p>", "key_press": -1, "trial_type": "single-stim", "trial_index": 81, "time_elapsed": 610259, "internal_node_id": "0.0-60.0-3.0"}}, {"uniqueid": "MTK0400:3K2755HG5TAPCS1WOS6KE9RS0KRDF5", "current_trial": 82, "dateTime": 1510858221915, "trialdata": {"rt": -1, "stimulus": "<p id=\"stim\">6</p>", "key_press": -1, "trial_type": "single-stim", "trial_index": 82, "time_elapsed": 611262, "internal_node_id": "0.0-60.0-4.0"}}, {"uniqueid": "MTK0400:3K2755HG5TAPCS1WOS6KE9RS0KRDF5", "current_trial": 83, "dateTime": 1510858222918, "trialdata": {"rt": -1, "stimulus": "<p id=\"stim\">5</p>", "key_press": -1, "trial_type": "single-stim", "trial_index": 83, "time_elapsed": 612265, "internal_node_id": "0.0-60.0-5.0"}}, {"uniqueid": "MTK0400:3K2755HG5TAPCS1WOS6KE9RS0KRDF5", "current_trial": 84, "dateTime": 1510858223921, "trialdata": {"rt": -1, "stimulus": "<p id=\"stim\">4</p>", "key_press": -1, "trial_type": "single-stim", "trial_index": 84, "time_elapsed": 613268, "internal_node_id": "0.0-60.0-6.0"}}, {"uniqueid": "MTK0400:3K2755HG5TAPCS1WOS6KE9RS0KRDF5", "current_trial": 85, "dateTime": 1510858224923, "trialdata": {"rt": -1, "stimulus": "<p id=\"stim\">3</p>", "key_press": -1, "trial_type": "single-stim", "trial_index": 85, "time_elapsed": 614270, "internal_node_id": "0.0-60.0-7.0"}}, {"uniqueid": "MTK0400:3K2755HG5TAPCS1WOS6KE9RS0KRDF5", "current_trial": 86, "dateTime": 1510858225926, "trialdata": {"rt": -1, "stimulus": "<p id=\"stim\">2</p>", "key_press": -1, "trial_type": "single-stim", "trial_index": 86, "time_elapsed": 615273, "internal_node_id": "0.0-60.0-8.0"}}, {"uniqueid": "MTK0400:3K2755HG5TAPCS1WOS6KE9RS0KRDF5", "current_trial": 87, "dateTime": 1510858226929, "trialdata": {"rt": -1, "stimulus": "<p id=\"stim\">1</p>", "key_press": -1, "trial_type": "single-stim", "trial_index": 87, "time_elapsed": 616276, "internal_node_id": "0.0-60.0-9.0"}}, {"uniqueid": "MTK0400:3K2755HG5TAPCS1WOS6KE9RS0KRDF5", "current_trial": 88, "dateTime": 1510858228432, "trialdata": {"rt": -1, "stimulus": "<p id=\"stim\">+</p>", "key_press": -1, "type": "FIXATION", "trial_type": "single-stim", "trial_index": 88, "time_elapsed": 617779, "internal_node_id": "0.0-61.0-0.0"}}, {"uniqueid": "MTK0400:3K2755HG5TAPCS1WOS6KE9RS0KRDF5", "current_trial": 89, "dateTime": 1510858230873, "trialdata": {"rt": -1000, "stimulus": "/static/audio/wordpool/TOASTER.wav", "key_press": -1, "type": "PRES_AUD", "word": "toaster", "wordID": 1471, "conditions": [24, 1600, "a", 12000], "trial": 2, "serialpos": 0, "trial_type": "single-audio", "trial_index": 89, "time_elapsed": 620220, "internal_node_id": "0.0-62.0"}}, {"uniqueid": "MTK0400:3K2755HG5TAPCS1WOS6KE9RS0KRDF5", "current_trial": 90, "dateTime": 1510858236031, "trialdata": {"rt": -1000, "stimulus": "/static/audio/wordpool/ICING.wav", "key_press": -1, "type": "PRES_AUD", "word": "icing", "wordID": 731, "conditions": [24, 1600, "a", 12000], "trial": 2, "serialpos": 1, "trial_type": "single-audio", "trial_index": 90, "time_elapsed": 625378, "internal_node_id": "0.0-63.0"}}, {"uniqueid": "MTK0400:3K2755HG5TAPCS1WOS6KE9RS0KRDF5", "current_trial": 91, "dateTime": 1510858238743, "trialdata": {"rt": -1000, "stimulus": "/static/audio/wordpool/WAITRESS.wav", "key_press": -1, "type": "PRES_AUD", "word": "waitress", "wordID": 1580, "conditions": [24, 1600, "a", 12000], "trial": 2, "serialpos": 2, "trial_type": "single-audio", "trial_index": 91, "time_elapsed": 628090, "internal_node_id": "0.0-64.0"}}, {"uniqueid": "MTK0400:3K2755HG5TAPCS1WOS6KE9RS0KRDF5", "current_trial": 92, "dateTime": 1510858241550, "trialdata": {"rt": -1000, "stimulus": "/static/audio/wordpool/CHILD.wav", "key_press": -1, "type": "PRES_AUD", "word": "child", "wordID": 298, "conditions": [24, 1600, "a", 12000], "trial": 2, "serialpos": 3, "trial_type": "single-audio", "trial_index": 92, "time_elapsed": 630897, "internal_node_id": "0.0-65.0"}}, {"uniqueid": "MTK0400:3K2755HG5TAPCS1WOS6KE9RS0KRDF5", "current_trial": 93, "dateTime": 1510858243989, "trialdata": {"rt": -1000, "stimulus": "/static/audio/wordpool/COUNTRY.wav", "key_press": -1, "type": "PRES_AUD", "word": "country", "wordID": 387, "conditions": [24, 1600, "a", 12000], "trial": 2, "serialpos": 4, "trial_type": "single-audio", "trial_index": 93, "time_elapsed": 633336, "internal_node_id": "0.0-66.0"}}, {"uniqueid": "MTK0400:3K2755HG5TAPCS1WOS6KE9RS0KRDF5", "current_trial": 94, "dateTime": 1510858246474, "trialdata": {"rt": -1000, "stimulus": "/static/audio/wordpool/LIVER.wav", "key_press": -1, "type": "PRES_AUD", "word": "liver", "wordID": 832, "conditions": [24, 1600, "a", 12000], "trial": 2, "serialpos": 5, "trial_type": "single-audio", "trial_index": 94, "time_elapsed": 635821, "internal_node_id": "0.0-67.0"}}, {"uniqueid": "MTK0400:3K2755HG5TAPCS1WOS6KE9RS0KRDF5", "current_trial": 95, "dateTime": 1510858249257, "trialdata": {"rt": -1000, "stimulus": "/static/audio/wordpool/HONEY.wav", "key_press": -1, "type": "PRES_AUD", "word": "honey", "wordID": 712, "conditions": [24, 1600, "a", 12000], "trial": 2, "serialpos": 6, "trial_type": "single-audio", "trial_index": 95, "time_elapsed": 638604, "internal_node_id": "0.0-68.0"}}, {"uniqueid": "MTK0400:3K2755HG5TAPCS1WOS6KE9RS0KRDF5", "current_trial": 96, "dateTime": 1510858251752, "trialdata": {"rt": -1000, "stimulus": "/static/audio/wordpool/SPARROW.wav", "key_press": -1, "type": "PRES_AUD", "word": "sparrow", "wordID": 1346, "conditions": [24, 1600, "a", 12000], "trial": 2, "serialpos": 7, "trial_type": "single-audio", "trial_index": 96, "time_elapsed": 641099, "internal_node_id": "0.0-69.0"}}, {"uniqueid": "MTK0400:3K2755HG5TAPCS1WOS6KE9RS0KRDF5", "current_trial": 97, "dateTime": 1510858254385, "trialdata": {"rt": -1000, "stimulus": "/static/audio/wordpool/ROBIN.wav", "key_press": -1, "type": "PRES_AUD", "word": "robin", "wordID": 1198, "conditions": [24, 1600, "a", 12000], "trial": 2, "serialpos": 8, "trial_type": "single-audio", "trial_index": 97, "time_elapsed": 643732, "internal_node_id": "0.0-70.0"}}, {"uniqueid": "MTK0400:3K2755HG5TAPCS1WOS6KE9RS0KRDF5", "current_trial": 98, "dateTime": 1510858257569, "trialdata": {"rt": -1000, "stimulus": "/static/audio/wordpool/CHAUFFEUR.wav", "key_press": -1, "type": "PRES_AUD", "word": "chauffeur", "wordID": 282, "conditions": [24, 1600, "a", 12000], "trial": 2, "serialpos": 9, "trial_type": "single-audio", "trial_index": 98, "time_elapsed": 646916, "internal_node_id": "0.0-71.0"}}, {"uniqueid": "MTK0400:3K2755HG5TAPCS1WOS6KE9RS0KRDF5", "current_trial": 99, "dateTime": 1510858259997, "trialdata": {"rt": -1000, "stimulus": "/static/audio/wordpool/SIBLING.wav", "key_press": -1, "type": "PRES_AUD", "word": "sibling", "wordID": 1300, "conditions": [24, 1600, "a", 12000], "trial": 2, "serialpos": 10, "trial_type": "single-audio", "trial_index": 99, "time_elapsed": 649344, "internal_node_id": "0.0-72.0"}}, {"uniqueid": "MTK0400:3K2755HG5TAPCS1WOS6KE9RS0KRDF5", "current_trial": 100, "dateTime": 1510858262422, "trialdata": {"rt": -1000, "stimulus": "/static/audio/wordpool/WAITER.wav", "key_press": -1, "type": "PRES_AUD", "word": "waiter", "wordID": 1579, "conditions": [24, 1600, "a", 12000], "trial": 2, "serialpos": 11, "trial_type": "single-audio", "trial_index": 100, "time_elapsed": 651769, "internal_node_id": "0.0-73.0"}}, {"uniqueid": "MTK0400:3K2755HG5TAPCS1WOS6KE9RS0KRDF5", "current_trial": 101, "dateTime": 1510858265100, "trialdata": {"rt": -1000, "stimulus": "/static/audio/wordpool/STATUE.wav", "key_press": -1, "type": "PRES_AUD", "word": "statue", "wordID": 1373, "conditions": [24, 1600, "a", 12000], "trial": 2, "serialpos": 12, "trial_type": "single-audio", "trial_index": 101, "time_elapsed": 654447, "internal_node_id": "0.0-74.0"}}, {"uniqueid": "MTK0400:3K2755HG5TAPCS1WOS6KE9RS0KRDF5", "current_trial": 102, "dateTime": 1510858267536, "trialdata": {"rt": -1000, "stimulus": "/static/audio/wordpool/AGENT.wav", "key_press": -1, "type": "PRES_AUD", "word": "agent", "wordID": 9, "conditions": [24, 1600, "a", 12000], "trial": 2, "serialpos": 13, "trial_type": "single-audio", "trial_index": 102, "time_elapsed": 656883, "internal_node_id": "0.0-75.0"}}, {"uniqueid": "MTK0400:3K2755HG5TAPCS1WOS6KE9RS0KRDF5", "current_trial": 103, "dateTime": 1510858270178, "trialdata": {"rt": -1000, "stimulus": "/static/audio/wordpool/TREAT.wav", "key_press": -1, "type": "PRES_AUD", "word": "treat", "wordID": 1500, "conditions": [24, 1600, "a", 12000], "trial": 2, "serialpos": 14, "trial_type": "single-audio", "trial_index": 103, "time_elapsed": 659524, "internal_node_id": "0.0-76.0"}}, {"uniqueid": "MTK0400:3K2755HG5TAPCS1WOS6KE9RS0KRDF5", "current_trial": 104, "dateTime": 1510858272898, "trialdata": {"rt": -1000, "stimulus": "/static/audio/wordpool/PIGMENT.wav", "key_press": -1, "type": "PRES_AUD", "word": "pigment", "wordID": 1065, "conditions": [24, 1600, "a", 12000], "trial": 2, "serialpos": 15, "trial_type": "single-audio", "trial_index": 104, "time_elapsed": 662245, "internal_node_id": "0.0-77.0"}}, {"uniqueid": "MTK0400:3K2755HG5TAPCS1WOS6KE9RS0KRDF5", "current_trial": 105, "dateTime": 1510858275336, "trialdata": {"rt": -1000, "stimulus": "/static/audio/wordpool/QUAIL.wav", "key_press": -1, "type": "PRES_AUD", "word": "quail", "wordID": 1146, "conditions": [24, 1600, "a", 12000], "trial": 2, "serialpos": 16, "trial_type": "single-audio", "trial_index": 105, "time_elapsed": 664683, "internal_node_id": "0.0-78.0"}}, {"uniqueid": "MTK0400:3K2755HG5TAPCS1WOS6KE9RS0KRDF5", "current_trial": 106, "dateTime": 1510858311745, "trialdata": {"rt": -1000, "stimulus": "/static/audio/wordpool/TURKEY.wav", "key_press": -1, "type": "PRES_AUD", "word": "turkey", "wordID": 1519, "conditions": [24, 1600, "a", 12000], "trial": 2, "serialpos": 17, "trial_type": "single-audio", "trial_index": 106, "time_elapsed": 701092, "internal_node_id": "0.0-79.0"}}, {"uniqueid": "MTK0400:3K2755HG5TAPCS1WOS6KE9RS0KRDF5", "current_trial": 107, "dateTime": 1510858314307, "trialdata": {"rt": -1000, "stimulus": "/static/audio/wordpool/TOMBSTONE.wav", "key_press": -1, "type": "PRES_AUD", "word": "tombstone", "wordID": 1477, "conditions": [24, 1600, "a", 12000], "trial": 2, "serialpos": 18, "trial_type": "single-audio", "trial_index": 107, "time_elapsed": 703654, "internal_node_id": "0.0-80.0"}}, {"uniqueid": "MTK0400:3K2755HG5TAPCS1WOS6KE9RS0KRDF5", "current_trial": 108, "dateTime": 1510858316897, "trialdata": {"rt": -1000, "stimulus": "/static/audio/wordpool/LILY.wav", "key_press": -1, "type": "PRES_AUD", "word": "lily", "wordID": 820, "conditions": [24, 1600, "a", 12000], "trial": 2, "serialpos": 19, "trial_type": "single-audio", "trial_index": 108, "time_elapsed": 706244, "internal_node_id": "0.0-81.0"}}, {"uniqueid": "MTK0400:3K2755HG5TAPCS1WOS6KE9RS0KRDF5", "current_trial": 109, "dateTime": 1510858319452, "trialdata": {"rt": -1000, "stimulus": "/static/audio/wordpool/CAFE.wav", "key_press": -1, "type": "PRES_AUD", "word": "cafe", "wordID": 215, "conditions": [24, 1600, "a", 12000], "trial": 2, "serialpos": 20, "trial_type": "single-audio", "trial_index": 109, "time_elapsed": 708799, "internal_node_id": "0.0-82.0"}}, {"uniqueid": "MTK0400:3K2755HG5TAPCS1WOS6KE9RS0KRDF5", "current_trial": 110, "dateTime": 1510858322223, "trialdata": {"rt": -1000, "stimulus": "/static/audio/wordpool/BASEMENT.wav", "key_press": -1, "type": "PRES_AUD", "word": "basement", "wordID": 93, "conditions": [24, 1600, "a", 12000], "trial": 2, "serialpos": 21, "trial_type": "single-audio", "trial_index": 110, "time_elapsed": 711570, "internal_node_id": "0.0-83.0"}}, {"uniqueid": "MTK0400:3K2755HG5TAPCS1WOS6KE9RS0KRDF5", "current_trial": 111, "dateTime": 1510858324929, "trialdata": {"rt": -1000, "stimulus": "/static/audio/wordpool/VENUS.wav", "key_press": -1, "type": "PRES_AUD", "word": "venus", "wordID": 1556, "conditions": [24, 1600, "a", 12000], "trial": 2, "serialpos": 22, "trial_type": "single-audio", "trial_index": 111, "time_elapsed": 714276, "internal_node_id": "0.0-84.0"}}, {"uniqueid": "MTK0400:3K2755HG5TAPCS1WOS6KE9RS0KRDF5", "current_trial": 112, "dateTime": 1510858327452, "trialdata": {"rt": -1000, "stimulus": "/static/audio/wordpool/MAILBOX.wav", "key_press": -1, "type": "PRES_AUD", "word": "mailbox", "wordID": 856, "conditions": [24, 1600, "a", 12000], "trial": 2, "serialpos": 23, "trial_type": "single-audio", "trial_index": 112, "time_elapsed": 716799, "internal_node_id": "0.0-85.0"}}, {"uniqueid": "MTK0400:3K2755HG5TAPCS1WOS6KE9RS0KRDF5", "current_trial": 113, "dateTime": 1510858328692, "trialdata": {"rt": -1, "stimulus": "", "key_press": -1, "type": "PRE_RECALL_DELAY", "trial_type": "single-stim", "trial_index": 113, "time_elapsed": 718039, "internal_node_id": "0.0-86.0-0.0"}}, {"uniqueid": "MTK0400:3K2755HG5TAPCS1WOS6KE9RS0KRDF5", "current_trial": 114, "dateTime": 1510858329199, "trialdata": {"rt": -1000, "stimulus": "/static/audio/400Hz.wav", "key_press": -1, "type": "PRE_RECALL_ALERT", "trial_type": "single-audio", "trial_index": 114, "time_elapsed": 718545, "internal_node_id": "0.0-87.0"}}, {"uniqueid": "MTK0400:3K2755HG5TAPCS1WOS6KE9RS0KRDF5", "current_trial": 115, "dateTime": 1510858389211, "trialdata": {"rt": [7674, 8916, 10876, 12888, 13995, 15635, 16835, 18653, 23946, 25191, 26395, 28105, 40426, 55517], "recwords": ["mailbox", "venus", "lilly", "waitress", "child", "sibling", "icing", "toaster", "sparrow", "robin", "quail", "turkey", "clothing", "tire"], "type": "FREE_RECALL", "conditions": [24, 1600, "a", 12000], "trial": 2, "trial_type": "free-recall", "trial_index": 115, "time_elapsed": 778554, "internal_node_id": "0.0-88.0-0.0"}}, {"uniqueid": "MTK0400:3K2755HG5TAPCS1WOS6KE9RS0KRDF5", "current_trial": 116, "dateTime": 1510858392864, "trialdata": {"rt": 1650, "key_press": 13, "type": "INSTRUCTIONS", "trial_type": "text", "trial_index": 116, "time_elapsed": 782211, "internal_node_id": "0.0-89.0"}}, {"uniqueid": "MTK0400:3K2755HG5TAPCS1WOS6KE9RS0KRDF5", "current_trial": 117, "dateTime": 1510858418872, "trialdata": {"rt": [7518, 11117, 14440, 17507, 20315, 23745], "responses": ["16", "15", "15", "23", "17", "10"], "num1": [6, 8, 3, 8, 2, 2, 6], "num2": [3, 1, 7, 6, 8, 2, 1], "num3": [7, 6, 5, 9, 7, 6, 4], "type": "DISTRACTOR", "conditions": [12, 1600, "v", 24000], "trial": 3, "trial_type": "math-distractor", "trial_index": 117, "time_elapsed": 808219, "internal_node_id": "0.0-90.0"}}, {"uniqueid": "MTK0400:3K2755HG5TAPCS1WOS6KE9RS0KRDF5", "current_trial": 118, "dateTime": 1510858421876, "trialdata": {"rt": -1, "stimulus": "<p id=\"stim\">10</p>", "key_press": -1, "trial_type": "single-stim", "trial_index": 118, "time_elapsed": 811223, "internal_node_id": "0.0-91.0-0.0"}}, {"uniqueid": "MTK0400:3K2755HG5TAPCS1WOS6KE9RS0KRDF5", "current_trial": 119, "dateTime": 1510858422879, "trialdata": {"rt": -1, "stimulus": "<p id=\"stim\">9</p>", "key_press": -1, "trial_type": "single-stim", "trial_index": 119, "time_elapsed": 812226, "internal_node_id": "0.0-91.0-1.0"}}, {"uniqueid": "MTK0400:3K2755HG5TAPCS1WOS6KE9RS0KRDF5", "current_trial": 120, "dateTime": 1510858423882, "trialdata": {"rt": -1, "stimulus": "<p id=\"stim\">8</p>", "key_press": -1, "trial_type": "single-stim", "trial_index": 120, "time_elapsed": 813229, "internal_node_id": "0.0-91.0-2.0"}}, {"uniqueid": "MTK0400:3K2755HG5TAPCS1WOS6KE9RS0KRDF5", "current_trial": 121, "dateTime": 1510858424885, "trialdata": {"rt": -1, "stimulus": "<p id=\"stim\">7</p>", "key_press": -1, "trial_type": "single-stim", "trial_index": 121, "time_elapsed": 814232, "internal_node_id": "0.0-91.0-3.0"}}, {"uniqueid": "MTK0400:3K2755HG5TAPCS1WOS6KE9RS0KRDF5", "current_trial": 122, "dateTime": 1510858425887, "trialdata": {"rt": -1, "stimulus": "<p id=\"stim\">6</p>", "key_press": -1, "trial_type": "single-stim", "trial_index": 122, "time_elapsed": 815234, "internal_node_id": "0.0-91.0-4.0"}}, {"uniqueid": "MTK0400:3K2755HG5TAPCS1WOS6KE9RS0KRDF5", "current_trial": 123, "dateTime": 1510858426890, "trialdata": {"rt": -1, "stimulus": "<p id=\"stim\">5</p>", "key_press": -1, "trial_type": "single-stim", "trial_index": 123, "time_elapsed": 816237, "internal_node_id": "0.0-91.0-5.0"}}, {"uniqueid": "MTK0400:3K2755HG5TAPCS1WOS6KE9RS0KRDF5", "current_trial": 124, "dateTime": 1510858427893, "trialdata": {"rt": -1, "stimulus": "<p id=\"stim\">4</p>", "key_press": -1, "trial_type": "single-stim", "trial_index": 124, "time_elapsed": 817240, "internal_node_id": "0.0-91.0-6.0"}}, {"uniqueid": "MTK0400:3K2755HG5TAPCS1WOS6KE9RS0KRDF5", "current_trial": 125, "dateTime": 1510858428896, "trialdata": {"rt": -1, "stimulus": "<p id=\"stim\">3</p>", "key_press": -1, "trial_type": "single-stim", "trial_index": 125, "time_elapsed": 818243, "internal_node_id": "0.0-91.0-7.0"}}, {"uniqueid": "MTK0400:3K2755HG5TAPCS1WOS6KE9RS0KRDF5", "current_trial": 126, "dateTime": 1510858429899, "trialdata": {"rt": -1, "stimulus": "<p id=\"stim\">2</p>", "key_press": -1, "trial_type": "single-stim", "trial_index": 126, "time_elapsed": 819246, "internal_node_id": "0.0-91.0-8.0"}}, {"uniqueid": "MTK0400:3K2755HG5TAPCS1WOS6KE9RS0KRDF5", "current_trial": 127, "dateTime": 1510858430902, "trialdata": {"rt": -1, "stimulus": "<p id=\"stim\">1</p>", "key_press": -1, "trial_type": "single-stim", "trial_index": 127, "time_elapsed": 820249, "internal_node_id": "0.0-91.0-9.0"}}, {"uniqueid": "MTK0400:3K2755HG5TAPCS1WOS6KE9RS0KRDF5", "current_trial": 128, "dateTime": 1510858432406, "trialdata": {"rt": -1, "stimulus": "<p id=\"stim\">+</p>", "key_press": -1, "type": "FIXATION", "trial_type": "single-stim", "trial_index": 128, "time_elapsed": 821753, "internal_node_id": "0.0-92.0-0.0"}}, {"uniqueid": "MTK0400:3K2755HG5TAPCS1WOS6KE9RS0KRDF5", "current_trial": 129, "dateTime": 1510858434011, "trialdata": {"rt": -1, "stimulus": "<p id=\"stim\">FLESH</p>", "key_press": -1, "type": "PRES_VIS", "word": "flesh", "wordID": 578, "conditions": [12, 1600, "v", 24000], "trial": 3, "serialpos": 0, "trial_type": "single-stim", "trial_index": 129, "time_elapsed": 823357, "internal_node_id": "0.0-93.0"}}, {"uniqueid": "MTK0400:3K2755HG5TAPCS1WOS6KE9RS0KRDF5", "current_trial": 130, "dateTime": 1510858436567, "trialdata": {"rt": -1, "stimulus": "<p id=\"stim\">DRAGON</p>", "key_press": -1, "type": "PRES_VIS", "word": "dragon", "wordID": 491, "conditions": [12, 1600, "v", 24000], "trial": 3, "serialpos": 1, "trial_type": "single-stim", "trial_index": 130, "time_elapsed": 825914, "internal_node_id": "0.0-94.0"}}, {"uniqueid": "MTK0400:3K2755HG5TAPCS1WOS6KE9RS0KRDF5", "current_trial": 131, "dateTime": 1510858439217, "trialdata": {"rt": -1, "stimulus": "<p id=\"stim\">JURY</p>", "key_press": -1, "type": "PRES_VIS", "word": "jury", "wordID": 765, "conditions": [12, 1600, "v", 24000], "trial": 3, "serialpos": 2, "trial_type": "single-stim", "trial_index": 131, "time_elapsed": 828563, "internal_node_id": "0.0-95.0"}}, {"uniqueid": "MTK0400:3K2755HG5TAPCS1WOS6KE9RS0KRDF5", "current_trial": 132, "dateTime": 1510858441720, "trialdata": {"rt": -1, "stimulus": "<p id=\"stim\">CREVICE</p>", "key_press": -1, "type": "PRES_VIS", "word": "crevice", "wordID": 404, "conditions": [12, 1600, "v", 24000], "trial": 3, "serialpos": 3, "trial_type": "single-stim", "trial_index": 132, "time_elapsed": 831067, "internal_node_id": "0.0-96.0"}}, {"uniqueid": "MTK0400:3K2755HG5TAPCS1WOS6KE9RS0KRDF5", "current_trial": 133, "dateTime": 1510858444259, "trialdata": {"rt": -1, "stimulus": "<p id=\"stim\">JUNGLE</p>", "key_press": -1, "type": "PRES_VIS", "word": "jungle", "wordID": 763, "conditions": [12, 1600, "v", 24000], "trial": 3, "serialpos": 4, "trial_type": "single-stim", "trial_index": 133, "time_elapsed": 833606, "internal_node_id": "0.0-97.0"}}, {"uniqueid": "MTK0400:3K2755HG5TAPCS1WOS6KE9RS0KRDF5", "current_trial": 134, "dateTime": 1510858446843, "trialdata": {"rt": -1, "stimulus": "<p id=\"stim\">RADISH</p>", "key_press": -1, "type": "PRES_VIS", "word": "radish", "wordID": 1157, "conditions": [12, 1600, "v", 24000], "trial": 3, "serialpos": 5, "trial_type": "single-stim", "trial_index": 134, "time_elapsed": 836190, "internal_node_id": "0.0-98.0"}}, {"uniqueid": "MTK0400:3K2755HG5TAPCS1WOS6KE9RS0KRDF5", "current_trial": 135, "dateTime": 1510858449456, "trialdata": {"rt": -1, "stimulus": "<p id=\"stim\">TURNIP</p>", "key_press": -1, "type": "PRES_VIS", "word": "turnip", "wordID": 1520, "conditions": [12, 1600, "v", 24000], "trial": 3, "serialpos": 6, "trial_type": "single-stim", "trial_index": 135, "time_elapsed": 838803, "internal_node_id": "0.0-99.0"}}, {"uniqueid": "MTK0400:3K2755HG5TAPCS1WOS6KE9RS0KRDF5", "current_trial": 136, "dateTime": 1510858452114, "trialdata": {"rt": -1, "stimulus": "<p id=\"stim\">GOBLIN</p>", "key_press": -1, "type": "PRES_VIS", "word": "goblin", "wordID": 644, "conditions": [12, 1600, "v", 24000], "trial": 3, "serialpos": 7, "trial_type": "single-stim", "trial_index": 136, "time_elapsed": 841460, "internal_node_id": "0.0-100.0"}}, {"uniqueid": "MTK0400:3K2755HG5TAPCS1WOS6KE9RS0KRDF5", "current_trial": 137, "dateTime": 1510858454560, "trialdata": {"rt": -1, "stimulus": "<p id=\"stim\">COUNTY</p>", "key_press": -1, "type": "PRES_VIS", "word": "county", "wordID": 388, "conditions": [12, 1600, "v", 24000], "trial": 3, "serialpos": 8, "trial_type": "single-stim", "trial_index": 137, "time_elapsed": 843907, "internal_node_id": "0.0-101.0"}}, {"uniqueid": "MTK0400:3K2755HG5TAPCS1WOS6KE9RS0KRDF5", "current_trial": 138, "dateTime": 1510858457283, "trialdata": {"rt": -1, "stimulus": "<p id=\"stim\">POPCORN</p>", "key_press": -1, "type": "PRES_VIS", "word": "popcorn", "wordID": 1103, "conditions": [12, 1600, "v", 24000], "trial": 3, "serialpos": 9, "trial_type": "single-stim", "trial_index": 138, "time_elapsed": 846630, "internal_node_id": "0.0-102.0"}}, {"uniqueid": "MTK0400:3K2755HG5TAPCS1WOS6KE9RS0KRDF5", "current_trial": 139, "dateTime": 1510858460049, "trialdata": {"rt": -1, "stimulus": "<p id=\"stim\">VALVE</p>", "key_press": -1, "type": "PRES_VIS", "word": "valve", "wordID": 1545, "conditions": [12, 1600, "v", 24000], "trial": 3, "serialpos": 10, "trial_type": "single-stim", "trial_index": 139, "time_elapsed": 849396, "internal_node_id": "0.0-103.0"}}, {"uniqueid": "MTK0400:3K2755HG5TAPCS1WOS6KE9RS0KRDF5", "current_trial": 140, "dateTime": 1510858462764, "trialdata": {"rt": -1, "stimulus": "<p id=\"stim\">COCOON</p>", "key_press": -1, "type": "PRES_VIS", "word": "cocoon", "wordID": 338, "conditions": [12, 1600, "v", 24000], "trial": 3, "serialpos": 11, "trial_type": "single-stim", "trial_index": 140, "time_elapsed": 852111, "internal_node_id": "0.0-104.0"}}, {"uniqueid": "MTK0400:3K2755HG5TAPCS1WOS6KE9RS0KRDF5", "current_trial": 141, "dateTime": 1510858464986, "trialdata": {"rt": -1, "stimulus": "", "key_press": -1, "type": "PRE_RECALL_DELAY", "trial_type": "single-stim", "trial_index": 141, "time_elapsed": 854333, "internal_node_id": "0.0-105.0-0.0"}}, {"uniqueid": "MTK0400:3K2755HG5TAPCS1WOS6KE9RS0KRDF5", "current_trial": 142, "dateTime": 1510858465491, "trialdata": {"rt": -1000, "stimulus": "/static/audio/400Hz.wav", "key_press": -1, "type": "PRE_RECALL_ALERT", "trial_type": "single-audio", "trial_index": 142, "time_elapsed": 854837, "internal_node_id": "0.0-106.0"}}, {"uniqueid": "MTK0400:3K2755HG5TAPCS1WOS6KE9RS0KRDF5", "current_trial": 143, "dateTime": 1510858525511, "trialdata": {"rt": [3110, 7700, 9046, 10391, 12355, 35715], "recwords": ["cocoon", "flesh", "dragon", "goblin", "crevice", "jungle"], "type": "FREE_RECALL", "conditions": [12, 1600, "v", 24000], "trial": 3, "trial_type": "free-recall", "trial_index": 143, "time_elapsed": 914848, "internal_node_id": "0.0-107.0-0.0"}}, {"uniqueid": "MTK0400:3K2755HG5TAPCS1WOS6KE9RS0KRDF5", "current_trial": 144, "dateTime": 1510858529309, "trialdata": {"rt": 1794, "key_press": 13, "type": "INSTRUCTIONS", "trial_type": "text", "trial_index": 144, "time_elapsed": 918655, "internal_node_id": "0.0-108.0"}}, {"uniqueid": "MTK0400:3K2755HG5TAPCS1WOS6KE9RS0KRDF5", "current_trial": 145, "dateTime": 1510858555318, "trialdata": {"rt": [2147, 3988, 9050, 11814, 15148, 17649, 20218, 22628], "responses": ["14", "9", "19", "19", "19", "17", "8", "15"], "num1": [4, 4, 7, 7, 6, 5, 1, 6, 9], "num2": [5, 4, 4, 9, 8, 7, 4, 4, 3], "num3": [5, 1, 8, 3, 5, 5, 3, 5, 7], "type": "DISTRACTOR", "conditions": [12, 800, "a", 24000], "trial": 4, "trial_type": "math-distractor", "trial_index": 145, "time_elapsed": 944665, "internal_node_id": "0.0-109.0"}}, {"uniqueid": "MTK0400:3K2755HG5TAPCS1WOS6KE9RS0KRDF5", "current_trial": 146, "dateTime": 1510858558324, "trialdata": {"rt": -1, "stimulus": "<p id=\"stim\">10</p>", "key_press": -1, "trial_type": "single-stim", "trial_index": 146, "time_elapsed": 947671, "internal_node_id": "0.0-110.0-0.0"}}, {"uniqueid": "MTK0400:3K2755HG5TAPCS1WOS6KE9RS0KRDF5", "current_trial": 147, "dateTime": 1510858559327, "trialdata": {"rt": -1, "stimulus": "<p id=\"stim\">9</p>", "key_press": -1, "trial_type": "single-stim", "trial_index": 147, "time_elapsed": 948673, "internal_node_id": "0.0-110.0-1.0"}}, {"uniqueid": "MTK0400:3K2755HG5TAPCS1WOS6KE9RS0KRDF5", "current_trial": 148, "dateTime": 1510858560330, "trialdata": {"rt": -1, "stimulus": "<p id=\"stim\">8</p>", "key_press": -1, "trial_type": "single-stim", "trial_index": 148, "time_elapsed": 949676, "internal_node_id": "0.0-110.0-2.0"}}, {"uniqueid": "MTK0400:3K2755HG5TAPCS1WOS6KE9RS0KRDF5", "current_trial": 149, "dateTime": 1510858561333, "trialdata": {"rt": -1, "stimulus": "<p id=\"stim\">7</p>", "key_press": -1, "trial_type": "single-stim", "trial_index": 149, "time_elapsed": 950680, "internal_node_id": "0.0-110.0-3.0"}}, {"uniqueid": "MTK0400:3K2755HG5TAPCS1WOS6KE9RS0KRDF5", "current_trial": 150, "dateTime": 1510858562337, "trialdata": {"rt": -1, "stimulus": "<p id=\"stim\">6</p>", "key_press": -1, "trial_type": "single-stim", "trial_index": 150, "time_elapsed": 951683, "internal_node_id": "0.0-110.0-4.0"}}, {"uniqueid": "MTK0400:3K2755HG5TAPCS1WOS6KE9RS0KRDF5", "current_trial": 151, "dateTime": 1510858563340, "trialdata": {"rt": -1, "stimulus": "<p id=\"stim\">5</p>", "key_press": -1, "trial_type": "single-stim", "trial_index": 151, "time_elapsed": 952686, "internal_node_id": "0.0-110.0-5.0"}}, {"uniqueid": "MTK0400:3K2755HG5TAPCS1WOS6KE9RS0KRDF5", "current_trial": 152, "dateTime": 1510858564343, "trialdata": {"rt": -1, "stimulus": "<p id=\"stim\">4</p>", "key_press": -1, "trial_type": "single-stim", "trial_index": 152, "time_elapsed": 953689, "internal_node_id": "0.0-110.0-6.0"}}, {"uniqueid": "MTK0400:3K2755HG5TAPCS1WOS6KE9RS0KRDF5", "current_trial": 153, "dateTime": 1510858565346, "trialdata": {"rt": -1, "stimulus": "<p id=\"stim\">3</p>", "key_press": -1, "trial_type": "single-stim", "trial_index": 153, "time_elapsed": 954692, "internal_node_id": "0.0-110.0-7.0"}}, {"uniqueid": "MTK0400:3K2755HG5TAPCS1WOS6KE9RS0KRDF5", "current_trial": 154, "dateTime": 1510858566349, "trialdata": {"rt": -1, "stimulus": "<p id=\"stim\">2</p>", "key_press": -1, "trial_type": "single-stim", "trial_index": 154, "time_elapsed": 955695, "internal_node_id": "0.0-110.0-8.0"}}, {"uniqueid": "MTK0400:3K2755HG5TAPCS1WOS6KE9RS0KRDF5", "current_trial": 155, "dateTime": 1510858567352, "trialdata": {"rt": -1, "stimulus": "<p id=\"stim\">1</p>", "key_press": -1, "trial_type": "single-stim", "trial_index": 155, "time_elapsed": 956699, "internal_node_id": "0.0-110.0-9.0"}}, {"uniqueid": "MTK0400:3K2755HG5TAPCS1WOS6KE9RS0KRDF5", "current_trial": 156, "dateTime": 1510858568855, "trialdata": {"rt": -1, "stimulus": "<p id=\"stim\">+</p>", "key_press": -1, "type": "FIXATION", "trial_type": "single-stim", "trial_index": 156, "time_elapsed": 958202, "internal_node_id": "0.0-111.0-0.0"}}, {"uniqueid": "MTK0400:3K2755HG5TAPCS1WOS6KE9RS0KRDF5", "current_trial": 157, "dateTime": 1510858570728, "trialdata": {"rt": -1000, "stimulus": "/static/audio/wordpool/BLOUSE.wav", "key_press": -1, "type": "PRES_AUD", "word": "blouse", "wordID": 138, "conditions": [12, 800, "a", 24000], "trial": 4, "serialpos": 0, "trial_type": "single-audio", "trial_index": 157, "time_elapsed": 960074, "internal_node_id": "0.0-112.0"}}, {"uniqueid": "MTK0400:3K2755HG5TAPCS1WOS6KE9RS0KRDF5", "current_trial": 158, "dateTime": 1510858572362, "trialdata": {"rt": -1000, "stimulus": "/static/audio/wordpool/BALLOON.wav", "key_press": -1, "type": "PRES_AUD", "word": "balloon", "wordID": 74, "conditions": [12, 800, "a", 24000], "trial": 4, "serialpos": 1, "trial_type": "single-audio", "trial_index": 158, "time_elapsed": 961709, "internal_node_id": "0.0-113.0"}}, {"uniqueid": "MTK0400:3K2755HG5TAPCS1WOS6KE9RS0KRDF5", "current_trial": 159, "dateTime": 1510858574492, "trialdata": {"rt": -1000, "stimulus": "/static/audio/wordpool/STUDENT.wav", "key_press": -1, "type": "PRES_AUD", "word": "student", "wordID": 1394, "conditions": [12, 800, "a", 24000], "trial": 4, "serialpos": 2, "trial_type": "single-audio", "trial_index": 159, "time_elapsed": 963839, "internal_node_id": "0.0-114.0"}}, {"uniqueid": "MTK0400:3K2755HG5TAPCS1WOS6KE9RS0KRDF5", "current_trial": 160, "dateTime": 1510858576245, "trialdata": {"rt": -1000, "stimulus": "/static/audio/wordpool/KNIFE.wav", "key_press": -1, "type": "PRES_AUD", "word": "knife", "wordID": 784, "conditions": [12, 800, "a", 24000], "trial": 4, "serialpos": 3, "trial_type": "single-audio", "trial_index": 160, "time_elapsed": 965591, "internal_node_id": "0.0-115.0"}}, {"uniqueid": "MTK0400:3K2755HG5TAPCS1WOS6KE9RS0KRDF5", "current_trial": 161, "dateTime": 1510858578162, "trialdata": {"rt": -1000, "stimulus": "/static/audio/wordpool/PIANO.wav", "key_press": -1, "type": "PRES_AUD", "word": "piano", "wordID": 1056, "conditions": [12, 800, "a", 24000], "trial": 4, "serialpos": 4, "trial_type": "single-audio", "trial_index": 161, "time_elapsed": 967508, "internal_node_id": "0.0-116.0"}}, {"uniqueid": "MTK0400:3K2755HG5TAPCS1WOS6KE9RS0KRDF5", "current_trial": 162, "dateTime": 1510858579898, "trialdata": {"rt": -1000, "stimulus": "/static/audio/wordpool/FLASK.wav", "key_press": -1, "type": "PRES_AUD", "word": "flask", "wordID": 575, "conditions": [12, 800, "a", 24000], "trial": 4, "serialpos": 5, "trial_type": "single-audio", "trial_index": 162, "time_elapsed": 969244, "internal_node_id": "0.0-117.0"}}, {"uniqueid": "MTK0400:3K2755HG5TAPCS1WOS6KE9RS0KRDF5", "current_trial": 163, "dateTime": 1510858581641, "trialdata": {"rt": -1000, "stimulus": "/static/audio/wordpool/ROBBER.wav", "key_press": -1, "type": "PRES_AUD", "word": "robber", "wordID": 1196, "conditions": [12, 800, "a", 24000], "trial": 4, "serialpos": 6, "trial_type": "single-audio", "trial_index": 163, "time_elapsed": 970988, "internal_node_id": "0.0-118.0"}}, {"uniqueid": "MTK0400:3K2755HG5TAPCS1WOS6KE9RS0KRDF5", "current_trial": 164, "dateTime": 1510858583387, "trialdata": {"rt": -1000, "stimulus": "/static/audio/wordpool/COLLEGE.wav", "key_press": -1, "type": "PRES_AUD", "word": "college", "wordID": 345, "conditions": [12, 800, "a", 24000], "trial": 4, "serialpos": 7, "trial_type": "single-audio", "trial_index": 164, "time_elapsed": 972734, "internal_node_id": "0.0-119.0"}}, {"uniqueid": "MTK0400:3K2755HG5TAPCS1WOS6KE9RS0KRDF5", "current_trial": 165, "dateTime": 1510858585302, "trialdata": {"rt": -1000, "stimulus": "/static/audio/wordpool/LONDON.wav", "key_press": -1, "type": "PRES_AUD", "word": "london", "wordID": 842, "conditions": [12, 800, "a", 24000], "trial": 4, "serialpos": 8, "trial_type": "single-audio", "trial_index": 165, "time_elapsed": 974649, "internal_node_id": "0.0-120.0"}}, {"uniqueid": "MTK0400:3K2755HG5TAPCS1WOS6KE9RS0KRDF5", "current_trial": 166, "dateTime": 1510858587119, "trialdata": {"rt": -1000, "stimulus": "/static/audio/wordpool/EUROPE.wav", "key_press": -1, "type": "PRES_AUD", "word": "europe", "wordID": 540, "conditions": [12, 800, "a", 24000], "trial": 4, "serialpos": 9, "trial_type": "single-audio", "trial_index": 166, "time_elapsed": 976466, "internal_node_id": "0.0-121.0"}}, {"uniqueid": "MTK0400:3K2755HG5TAPCS1WOS6KE9RS0KRDF5", "current_trial": 167, "dateTime": 1510858589114, "trialdata": {"rt": -1000, "stimulus": "/static/audio/wordpool/FLOWER.wav", "key_press": -1, "type": "PRES_AUD", "word": "flower", "wordID": 583, "conditions": [12, 800, "a", 24000], "trial": 4, "serialpos": 10, "trial_type": "single-audio", "trial_index": 167, "time_elapsed": 978461, "internal_node_id": "0.0-122.0"}}, {"uniqueid": "MTK0400:3K2755HG5TAPCS1WOS6KE9RS0KRDF5", "current_trial": 168, "dateTime": 1510858590815, "trialdata": {"rt": -1000, "stimulus": "/static/audio/wordpool/CROSS.wav", "key_press": -1, "type": "PRES_AUD", "word": "cross", "wordID": 412, "conditions": [12, 800, "a", 24000], "trial": 4, "serialpos": 11, "trial_type": "single-audio", "trial_index": 168, "time_elapsed": 980162, "internal_node_id": "0.0-123.0"}}, {"uniqueid": "MTK0400:3K2755HG5TAPCS1WOS6KE9RS0KRDF5", "current_trial": 169, "dateTime": 1510858592218, "trialdata": {"rt": -1, "stimulus": "", "key_press": -1, "type": "PRE_RECALL_DELAY", "trial_type": "single-stim", "trial_index": 169, "time_elapsed": 981565, "internal_node_id": "0.0-124.0-0.0"}}, {"uniqueid": "MTK0400:3K2755HG5TAPCS1WOS6KE9RS0KRDF5", "current_trial": 170, "dateTime": 1510858592723, "trialdata": {"rt": -1000, "stimulus": "/static/audio/400Hz.wav", "key_press": -1, "type": "PRE_RECALL_ALERT", "trial_type": "single-audio", "trial_index": 170, "time_elapsed": 982069, "internal_node_id": "0.0-125.0"}}, {"uniqueid": "MTK0400:3K2755HG5TAPCS1WOS6KE9RS0KRDF5", "current_trial": 171, "dateTime": 1510858652742, "trialdata": {"rt": [5851, 7211, 8675, 11593, 18333, 20734, 25593, 29708, 34811], "recwords": ["europe", "london", "cross", "flower", "knife", "robber", "blouse", "student", "flask"], "type": "FREE_RECALL", "conditions": [12, 800, "a", 24000], "trial": 4, "trial_type": "free-recall", "trial_index": 171, "time_elapsed": 1042079, "internal_node_id": "0.0-126.0-0.0"}}, {"uniqueid": "MTK0400:3K2755HG5TAPCS1WOS6KE9RS0KRDF5", "current_trial": 172, "dateTime": 1510858656100, "trialdata": {"rt": 1355, "key_press": 13, "type": "INSTRUCTIONS", "trial_type": "text", "trial_index": 172, "time_elapsed": 1045447, "internal_node_id": "0.0-127.0"}}, {"uniqueid": "MTK0400:3K2755HG5TAPCS1WOS6KE9RS0KRDF5", "current_trial": 173, "dateTime": 1510858682108, "trialdata": {"rt": [2891, 5733, 7885, 10266, 12714, 15052, 19934, 22730], "responses": ["22", "11", "12", "7", "14", "14", "22", "16"], "num1": [8, 2, 3, 3, 4, 4, 4, 5, 6], "num2": [7, 6, 7, 2, 9, 4, 9, 9, 9], "num3": [7, 3, 2, 2, 1, 6, 9, 2, 3], "type": "DISTRACTOR", "conditions": [24, 1600, "v", 24000], "trial": 5, "trial_type": "math-distractor", "trial_index": 173, "time_elapsed": 1071454, "internal_node_id": "0.0-128.0"}}, {"uniqueid": "MTK0400:3K2755HG5TAPCS1WOS6KE9RS0KRDF5", "current_trial": 174, "dateTime": 1510858685113, "trialdata": {"rt": -1, "stimulus": "<p id=\"stim\">10</p>", "key_press": -1, "trial_type": "single-stim", "trial_index": 174, "time_elapsed": 1074459, "internal_node_id": "0.0-129.0-0.0"}}, {"uniqueid": "MTK0400:3K2755HG5TAPCS1WOS6KE9RS0KRDF5", "current_trial": 175, "dateTime": 1510858686116, "trialdata": {"rt": -1, "stimulus": "<p id=\"stim\">9</p>", "key_press": -1, "trial_type": "single-stim", "trial_index": 175, "time_elapsed": 1075462, "internal_node_id": "0.0-129.0-1.0"}}, {"uniqueid": "MTK0400:3K2755HG5TAPCS1WOS6KE9RS0KRDF5", "current_trial": 176, "dateTime": 1510858687119, "trialdata": {"rt": -1, "stimulus": "<p id=\"stim\">8</p>", "key_press": -1, "trial_type": "single-stim", "trial_index": 176, "time_elapsed": 1076465, "internal_node_id": "0.0-129.0-2.0"}}, {"uniqueid": "MTK0400:3K2755HG5TAPCS1WOS6KE9RS0KRDF5", "current_trial": 177, "dateTime": 1510858688122, "trialdata": {"rt": -1, "stimulus": "<p id=\"stim\">7</p>", "key_press": -1, "trial_type": "single-stim", "trial_index": 177, "time_elapsed": 1077468, "internal_node_id": "0.0-129.0-3.0"}}, {"uniqueid": "MTK0400:3K2755HG5TAPCS1WOS6KE9RS0KRDF5", "current_trial": 178, "dateTime": 1510858689125, "trialdata": {"rt": -1, "stimulus": "<p id=\"stim\">6</p>", "key_press": -1, "trial_type": "single-stim", "trial_index": 178, "time_elapsed": 1078471, "internal_node_id": "0.0-129.0-4.0"}}, {"uniqueid": "MTK0400:3K2755HG5TAPCS1WOS6KE9RS0KRDF5", "current_trial": 179, "dateTime": 1510858690128, "trialdata": {"rt": -1, "stimulus": "<p id=\"stim\">5</p>", "key_press": -1, "trial_type": "single-stim", "trial_index": 179, "time_elapsed": 1079474, "internal_node_id": "0.0-129.0-5.0"}}, {"uniqueid": "MTK0400:3K2755HG5TAPCS1WOS6KE9RS0KRDF5", "current_trial": 180, "dateTime": 1510858691132, "trialdata": {"rt": -1, "stimulus": "<p id=\"stim\">4</p>", "key_press": -1, "trial_type": "single-stim", "trial_index": 180, "time_elapsed": 1080479, "internal_node_id": "0.0-129.0-6.0"}}, {"uniqueid": "MTK0400:3K2755HG5TAPCS1WOS6KE9RS0KRDF5", "current_trial": 181, "dateTime": 1510858692135, "trialdata": {"rt": -1, "stimulus": "<p id=\"stim\">3</p>", "key_press": -1, "trial_type": "single-stim", "trial_index": 181, "time_elapsed": 1081482, "internal_node_id": "0.0-129.0-7.0"}}, {"uniqueid": "MTK0400:3K2755HG5TAPCS1WOS6KE9RS0KRDF5", "current_trial": 182, "dateTime": 1510858693138, "trialdata": {"rt": -1, "stimulus": "<p id=\"stim\">2</p>", "key_press": -1, "trial_type": "single-stim", "trial_index": 182, "time_elapsed": 1082484, "internal_node_id": "0.0-129.0-8.0"}}, {"uniqueid": "MTK0400:3K2755HG5TAPCS1WOS6KE9RS0KRDF5", "current_trial": 183, "dateTime": 1510858694142, "trialdata": {"rt": -1, "stimulus": "<p id=\"stim\">1</p>", "key_press": -1, "trial_type": "single-stim", "trial_index": 183, "time_elapsed": 1083489, "internal_node_id": "0.0-129.0-9.0"}}, {"uniqueid": "MTK0400:3K2755HG5TAPCS1WOS6KE9RS0KRDF5", "current_trial": 184, "dateTime": 1510858695646, "trialdata": {"rt": -1, "stimulus": "<p id=\"stim\">+</p>", "key_press": -1, "type": "FIXATION", "trial_type": "single-stim", "trial_index": 184, "time_elapsed": 1084993, "internal_node_id": "0.0-130.0-0.0"}}, {"uniqueid": "MTK0400:3K2755HG5TAPCS1WOS6KE9RS0KRDF5", "current_trial": 185, "dateTime": 1510858697250, "trialdata": {"rt": -1, "stimulus": "<p id=\"stim\">CHEST</p>", "key_press": -1, "type": "PRES_VIS", "word": "chest", "wordID": 294, "conditions": [24, 1600, "v", 24000], "trial": 5, "serialpos": 0, "trial_type": "single-stim", "trial_index": 185, "time_elapsed": 1086596, "internal_node_id": "0.0-131.0"}}, {"uniqueid": "MTK0400:3K2755HG5TAPCS1WOS6KE9RS0KRDF5", "current_trial": 186, "dateTime": 1510858699786, "trialdata": {"rt": -1, "stimulus": "<p id=\"stim\">PICNIC</p>", "key_press": -1, "type": "PRES_VIS", "word": "picnic", "wordID": 1059, "conditions": [24, 1600, "v", 24000], "trial": 5, "serialpos": 1, "trial_type": "single-stim", "trial_index": 186, "time_elapsed": 1089132, "internal_node_id": "0.0-132.0"}}, {"uniqueid": "MTK0400:3K2755HG5TAPCS1WOS6KE9RS0KRDF5", "current_trial": 187, "dateTime": 1510858702392, "trialdata": {"rt": -1, "stimulus": "<p id=\"stim\">SCARF</p>", "key_press": -1, "type": "PRES_VIS", "word": "scarf", "wordID": 1245, "conditions": [24, 1600, "v", 24000], "trial": 5, "serialpos": 2, "trial_type": "single-stim", "trial_index": 187, "time_elapsed": 1091739, "internal_node_id": "0.0-133.0"}}, {"uniqueid": "MTK0400:3K2755HG5TAPCS1WOS6KE9RS0KRDF5", "current_trial": 188, "dateTime": 1510858704988, "trialdata": {"rt": -1, "stimulus": "<p id=\"stim\">GALLON</p>", "key_press": -1, "type": "PRES_VIS", "word": "gallon", "wordID": 617, "conditions": [24, 1600, "v", 24000], "trial": 5, "serialpos": 3, "trial_type": "single-stim", "trial_index": 188, "time_elapsed": 1094334, "internal_node_id": "0.0-134.0"}}, {"uniqueid": "MTK0400:3K2755HG5TAPCS1WOS6KE9RS0KRDF5", "current_trial": 189, "dateTime": 1510858707425, "trialdata": {"rt": -1, "stimulus": "<p id=\"stim\">JUGGLER</p>", "key_press": -1, "type": "PRES_VIS", "word": "juggler", "wordID": 762, "conditions": [24, 1600, "v", 24000], "trial": 5, "serialpos": 4, "trial_type": "single-stim", "trial_index": 189, "time_elapsed": 1096771, "internal_node_id": "0.0-135.0"}}, {"uniqueid": "MTK0400:3K2755HG5TAPCS1WOS6KE9RS0KRDF5", "current_trial": 190, "dateTime": 1510858709848, "trialdata": {"rt": -1, "stimulus": "<p id=\"stim\">FRECKLE</p>", "key_press": -1, "type": "PRES_VIS", "word": "freckle", "wordID": 601, "conditions": [24, 1600, "v", 24000], "trial": 5, "serialpos": 5, "trial_type": "single-stim", "trial_index": 190, "time_elapsed": 1099195, "internal_node_id": "0.0-136.0"}}, {"uniqueid": "MTK0400:3K2755HG5TAPCS1WOS6KE9RS0KRDF5", "current_trial": 191, "dateTime": 1510858712327, "trialdata": {"rt": -1, "stimulus": "<p id=\"stim\">POWDER</p>", "key_press": -1, "type": "PRES_VIS", "word": "powder", "wordID": 1116, "conditions": [24, 1600, "v", 24000], "trial": 5, "serialpos": 6, "trial_type": "single-stim", "trial_index": 191, "time_elapsed": 1101673, "internal_node_id": "0.0-137.0"}}, {"uniqueid": "MTK0400:3K2755HG5TAPCS1WOS6KE9RS0KRDF5", "current_trial": 192, "dateTime": 1510858714815, "trialdata": {"rt": -1, "stimulus": "<p id=\"stim\">BADGE</p>", "key_press": -1, "type": "PRES_VIS", "word": "badge", "wordID": 67, "conditions": [24, 1600, "v", 24000], "trial": 5, "serialpos": 7, "trial_type": "single-stim", "trial_index": 192, "time_elapsed": 1104162, "internal_node_id": "0.0-138.0"}}, {"uniqueid": "MTK0400:3K2755HG5TAPCS1WOS6KE9RS0KRDF5", "current_trial": 193, "dateTime": 1510858717317, "trialdata": {"rt": -1, "stimulus": "<p id=\"stim\">STICKER</p>", "key_press": -1, "type": "PRES_VIS", "word": "sticker", "wordID": 1381, "conditions": [24, 1600, "v", 24000], "trial": 5, "serialpos": 8, "trial_type": "single-stim", "trial_index": 193, "time_elapsed": 1106663, "internal_node_id": "0.0-139.0"}}, {"uniqueid": "MTK0400:3K2755HG5TAPCS1WOS6KE9RS0KRDF5", "current_trial": 194, "dateTime": 1510858720087, "trialdata": {"rt": -1, "stimulus": "<p id=\"stim\">SUPPER</p>", "key_press": -1, "type": "PRES_VIS", "word": "supper", "wordID": 1410, "conditions": [24, 1600, "v", 24000], "trial": 5, "serialpos": 9, "trial_type": "single-stim", "trial_index": 194, "time_elapsed": 1109433, "internal_node_id": "0.0-140.0"}}, {"uniqueid": "MTK0400:3K2755HG5TAPCS1WOS6KE9RS0KRDF5", "current_trial": 195, "dateTime": 1510858722787, "trialdata": {"rt": -1, "stimulus": "<p id=\"stim\">SNACK</p>", "key_press": -1, "type": "PRES_VIS", "word": "snack", "wordID": 1330, "conditions": [24, 1600, "v", 24000], "trial": 5, "serialpos": 10, "trial_type": "single-stim", "trial_index": 195, "time_elapsed": 1112133, "internal_node_id": "0.0-141.0"}}, {"uniqueid": "MTK0400:3K2755HG5TAPCS1WOS6KE9RS0KRDF5", "current_trial": 196, "dateTime": 1510858725450, "trialdata": {"rt": -1, "stimulus": "<p id=\"stim\">COOKBOOK</p>", "key_press": -1, "type": "PRES_VIS", "word": "cookbook", "wordID": 372, "conditions": [24, 1600, "v", 24000], "trial": 5, "serialpos": 11, "trial_type": "single-stim", "trial_index": 196, "time_elapsed": 1114796, "internal_node_id": "0.0-142.0"}}, {"uniqueid": "MTK0400:3K2755HG5TAPCS1WOS6KE9RS0KRDF5", "current_trial": 197, "dateTime": 1510858727925, "trialdata": {"rt": -1, "stimulus": "<p id=\"stim\">VIRUS</p>", "key_press": -1, "type": "PRES_VIS", "word": "virus", "wordID": 1571, "conditions": [24, 1600, "v", 24000], "trial": 5, "serialpos": 12, "trial_type": "single-stim", "trial_index": 197, "time_elapsed": 1117271, "internal_node_id": "0.0-143.0"}}, {"uniqueid": "MTK0400:3K2755HG5TAPCS1WOS6KE9RS0KRDF5", "current_trial": 198, "dateTime": 1510858730504, "trialdata": {"rt": -1, "stimulus": "<p id=\"stim\">BUG</p>", "key_press": -1, "type": "PRES_VIS", "word": "bug", "wordID": 186, "conditions": [24, 1600, "v", 24000], "trial": 5, "serialpos": 13, "trial_type": "single-stim", "trial_index": 198, "time_elapsed": 1119850, "internal_node_id": "0.0-144.0"}}, {"uniqueid": "MTK0400:3K2755HG5TAPCS1WOS6KE9RS0KRDF5", "current_trial": 199, "dateTime": 1510858733060, "trialdata": {"rt": -1, "stimulus": "<p id=\"stim\">STREAM</p>", "key_press": -1, "type": "PRES_VIS", "word": "stream", "wordID": 1391, "conditions": [24, 1600, "v", 24000], "trial": 5, "serialpos": 14, "trial_type": "single-stim", "trial_index": 199, "time_elapsed": 1122403, "internal_node_id": "0.0-145.0"}}, {"uniqueid": "MTK0400:3K2755HG5TAPCS1WOS6KE9RS0KRDF5", "current_trial": 200, "dateTime": 1510858735483, "trialdata": {"rt": -1, "stimulus": "<p id=\"stim\">CANYON</p>", "key_press": -1, "type": "PRES_VIS", "word": "canyon", "wordID": 234, "conditions": [24, 1600, "v", 24000], "trial": 5, "serialpos": 15, "trial_type": "single-stim", "trial_index": 200, "time_elapsed": 1124830, "internal_node_id": "0.0-146.0"}}, {"uniqueid": "MTK0400:3K2755HG5TAPCS1WOS6KE9RS0KRDF5", "current_trial": 201, "dateTime": 1510858738154, "trialdata": {"rt": -1, "stimulus": "<p id=\"stim\">BRANCH</p>", "key_press": -1, "type": "PRES_VIS", "word": "branch", "wordID": 167, "conditions": [24, 1600, "v", 24000], "trial": 5, "serialpos": 16, "trial_type": "single-stim", "trial_index": 201, "time_elapsed": 1127501, "internal_node_id": "0.0-147.0"}}, {"uniqueid": "MTK0400:3K2755HG5TAPCS1WOS6KE9RS0KRDF5", "current_trial": 202, "dateTime": 1510858740764, "trialdata": {"rt": -1, "stimulus": "<p id=\"stim\">OINTMENT</p>", "key_press": -1, "type": "PRES_VIS", "word": "ointment", "wordID": 973, "conditions": [24, 1600, "v", 24000], "trial": 5, "serialpos": 17, "trial_type": "single-stim", "trial_index": 202, "time_elapsed": 1130110, "internal_node_id": "0.0-148.0"}}, {"uniqueid": "MTK0400:3K2755HG5TAPCS1WOS6KE9RS0KRDF5", "current_trial": 203, "dateTime": 1510858743530, "trialdata": {"rt": -1, "stimulus": "<p id=\"stim\">LAVA</p>", "key_press": -1, "type": "PRES_VIS", "word": "lava", "wordID": 803, "conditions": [24, 1600, "v", 24000], "trial": 5, "serialpos": 18, "trial_type": "single-stim", "trial_index": 203, "time_elapsed": 1132877, "internal_node_id": "0.0-149.0"}}, {"uniqueid": "MTK0400:3K2755HG5TAPCS1WOS6KE9RS0KRDF5", "current_trial": 204, "dateTime": 1510858746324, "trialdata": {"rt": -1, "stimulus": "<p id=\"stim\">TRUCK</p>", "key_press": -1, "type": "PRES_VIS", "word": "truck", "wordID": 1511, "conditions": [24, 1600, "v", 24000], "trial": 5, "serialpos": 19, "trial_type": "single-stim", "trial_index": 204, "time_elapsed": 1135671, "internal_node_id": "0.0-150.0"}}, {"uniqueid": "MTK0400:3K2755HG5TAPCS1WOS6KE9RS0KRDF5", "current_trial": 205, "dateTime": 1510858749080, "trialdata": {"rt": -1, "stimulus": "<p id=\"stim\">BOX</p>", "key_press": -1, "type": "PRES_VIS", "word": "box", "wordID": 158, "conditions": [24, 1600, "v", 24000], "trial": 5, "serialpos": 20, "trial_type": "single-stim", "trial_index": 205, "time_elapsed": 1138426, "internal_node_id": "0.0-151.0"}}, {"uniqueid": "MTK0400:3K2755HG5TAPCS1WOS6KE9RS0KRDF5", "current_trial": 206, "dateTime": 1510858751724, "trialdata": {"rt": -1, "stimulus": "<p id=\"stim\">SERVANT</p>", "key_press": -1, "type": "PRES_VIS", "word": "servant", "wordID": 1270, "conditions": [24, 1600, "v", 24000], "trial": 5, "serialpos": 21, "trial_type": "single-stim", "trial_index": 206, "time_elapsed": 1141071, "internal_node_id": "0.0-152.0"}}, {"uniqueid": "MTK0400:3K2755HG5TAPCS1WOS6KE9RS0KRDF5", "current_trial": 207, "dateTime": 1510858754245, "trialdata": {"rt": -1, "stimulus": "<p id=\"stim\">PRINCESS</p>", "key_press": -1, "type": "PRES_VIS", "word": "princess", "wordID": 1124, "conditions": [24, 1600, "v", 24000], "trial": 5, "serialpos": 22, "trial_type": "single-stim", "trial_index": 207, "time_elapsed": 1143591, "internal_node_id": "0.0-153.0"}}, {"uniqueid": "MTK0400:3K2755HG5TAPCS1WOS6KE9RS0KRDF5", "current_trial": 208, "dateTime": 1510858756709, "trialdata": {"rt": -1, "stimulus": "<p id=\"stim\">DRIVER</p>", "key_press": -1, "type": "PRES_VIS", "word": "driver", "wordID": 498, "conditions": [24, 1600, "v", 24000], "trial": 5, "serialpos": 23, "trial_type": "single-stim", "trial_index": 208, "time_elapsed": 1146056, "internal_node_id": "0.0-154.0"}}, {"uniqueid": "MTK0400:3K2755HG5TAPCS1WOS6KE9RS0KRDF5", "current_trial": 209, "dateTime": 1510858758788, "trialdata": {"rt": -1, "stimulus": "", "key_press": -1, "type": "PRE_RECALL_DELAY", "trial_type": "single-stim", "trial_index": 209, "time_elapsed": 1148135, "internal_node_id": "0.0-155.0-0.0"}}, {"uniqueid": "MTK0400:3K2755HG5TAPCS1WOS6KE9RS0KRDF5", "current_trial": 210, "dateTime": 1510858759297, "trialdata": {"rt": -1000, "stimulus": "/static/audio/400Hz.wav", "key_press": -1, "type": "PRE_RECALL_ALERT", "trial_type": "single-audio", "trial_index": 210, "time_elapsed": 1148644, "internal_node_id": "0.0-156.0"}}, {"uniqueid": "MTK0400:3K2755HG5TAPCS1WOS6KE9RS0KRDF5", "current_trial": 211, "dateTime": 1510858819316, "trialdata": {"rt": [2229, 4028, 6899, 10368, 15135, 16266, 19861, 34418, 38762, 40950, 45616, 53255], "recwords": ["servant", "princess", "driver", "truck", "virus", "bug", "ointment", "juggle", "gallon", "supper", "cookbook", "snack"], "type": "FREE_RECALL", "conditions": [24, 1600, "v", 24000], "trial": 5, "trial_type": "free-recall", "trial_index": 211, "time_elapsed": 1208651, "internal_node_id": "0.0-157.0-0.0"}}, {"uniqueid": "MTK0400:3K2755HG5TAPCS1WOS6KE9RS0KRDF5", "current_trial": 212, "dateTime": 1510858822914, "trialdata": {"rt": 1595, "key_press": 13, "type": "INSTRUCTIONS", "trial_type": "text", "trial_index": 212, "time_elapsed": 1212261, "internal_node_id": "0.0-158.0"}}, {"uniqueid": "MTK0400:3K2755HG5TAPCS1WOS6KE9RS0KRDF5", "current_trial": 213, "dateTime": 1510858836924, "trialdata": {"rt": [3575, 8079], "responses": ["16", "20"], "num1": [6, 3, 9], "num2": [9, 8, 9], "num3": [1, 9, 6], "type": "DISTRACTOR", "conditions": [12, 1600, "a", 12000], "trial": 6, "trial_type": "math-distractor", "trial_index": 213, "time_elapsed": 1226270, "internal_node_id": "0.0-159.0"}}, {"uniqueid": "MTK0400:3K2755HG5TAPCS1WOS6KE9RS0KRDF5", "current_trial": 214, "dateTime": 1510858839927, "trialdata": {"rt": -1, "stimulus": "<p id=\"stim\">10</p>", "key_press": -1, "trial_type": "single-stim", "trial_index": 214, "time_elapsed": 1229274, "internal_node_id": "0.0-160.0-0.0"}}, {"uniqueid": "MTK0400:3K2755HG5TAPCS1WOS6KE9RS0KRDF5", "current_trial": 215, "dateTime": 1510858840931, "trialdata": {"rt": -1, "stimulus": "<p id=\"stim\">9</p>", "key_press": -1, "trial_type": "single-stim", "trial_index": 215, "time_elapsed": 1230277, "internal_node_id": "0.0-160.0-1.0"}}, {"uniqueid": "MTK0400:3K2755HG5TAPCS1WOS6KE9RS0KRDF5", "current_trial": 216, "dateTime": 1510858841933, "trialdata": {"rt": -1, "stimulus": "<p id=\"stim\">8</p>", "key_press": -1, "trial_type": "single-stim", "trial_index": 216, "time_elapsed": 1231280, "internal_node_id": "0.0-160.0-2.0"}}, {"uniqueid": "MTK0400:3K2755HG5TAPCS1WOS6KE9RS0KRDF5", "current_trial": 217, "dateTime": 1510858842936, "trialdata": {"rt": -1, "stimulus": "<p id=\"stim\">7</p>", "key_press": -1, "trial_type": "single-stim", "trial_index": 217, "time_elapsed": 1232283, "internal_node_id": "0.0-160.0-3.0"}}, {"uniqueid": "MTK0400:3K2755HG5TAPCS1WOS6KE9RS0KRDF5", "current_trial": 218, "dateTime": 1510858843939, "trialdata": {"rt": -1, "stimulus": "<p id=\"stim\">6</p>", "key_press": -1, "trial_type": "single-stim", "trial_index": 218, "time_elapsed": 1233286, "internal_node_id": "0.0-160.0-4.0"}}, {"uniqueid": "MTK0400:3K2755HG5TAPCS1WOS6KE9RS0KRDF5", "current_trial": 219, "dateTime": 1510858844948, "trialdata": {"rt": -1, "stimulus": "<p id=\"stim\">5</p>", "key_press": -1, "trial_type": "single-stim", "trial_index": 219, "time_elapsed": 1234289, "internal_node_id": "0.0-160.0-5.0"}}, {"uniqueid": "MTK0400:3K2755HG5TAPCS1WOS6KE9RS0KRDF5", "current_trial": 220, "dateTime": 1510858845951, "trialdata": {"rt": -1, "stimulus": "<p id=\"stim\">4</p>", "key_press": -1, "trial_type": "single-stim", "trial_index": 220, "time_elapsed": 1235297, "internal_node_id": "0.0-160.0-6.0"}}, {"uniqueid": "MTK0400:3K2755HG5TAPCS1WOS6KE9RS0KRDF5", "current_trial": 221, "dateTime": 1510858846954, "trialdata": {"rt": -1, "stimulus": "<p id=\"stim\">3</p>", "key_press": -1, "trial_type": "single-stim", "trial_index": 221, "time_elapsed": 1236300, "internal_node_id": "0.0-160.0-7.0"}}, {"uniqueid": "MTK0400:3K2755HG5TAPCS1WOS6KE9RS0KRDF5", "current_trial": 222, "dateTime": 1510858847957, "trialdata": {"rt": -1, "stimulus": "<p id=\"stim\">2</p>", "key_press": -1, "trial_type": "single-stim", "trial_index": 222, "time_elapsed": 1237303, "internal_node_id": "0.0-160.0-8.0"}}, {"uniqueid": "MTK0400:3K2755HG5TAPCS1WOS6KE9RS0KRDF5", "current_trial": 223, "dateTime": 1510858848960, "trialdata": {"rt": -1, "stimulus": "<p id=\"stim\">1</p>", "key_press": -1, "trial_type": "single-stim", "trial_index": 223, "time_elapsed": 1238307, "internal_node_id": "0.0-160.0-9.0"}}, {"uniqueid": "MTK0400:3K2755HG5TAPCS1WOS6KE9RS0KRDF5", "current_trial": 224, "dateTime": 1510858850464, "trialdata": {"rt": -1, "stimulus": "<p id=\"stim\">+</p>", "key_press": -1, "type": "FIXATION", "trial_type": "single-stim", "trial_index": 224, "time_elapsed": 1239811, "internal_node_id": "0.0-161.0-0.0"}}, {"uniqueid": "MTK0400:3K2755HG5TAPCS1WOS6KE9RS0KRDF5", "current_trial": 225, "dateTime": 1510858853110, "trialdata": {"rt": -1000, "stimulus": "/static/audio/wordpool/LIGHTNING.wav", "key_press": -1, "type": "PRES_AUD", "word": "lightning", "wordID": 819, "conditions": [12, 1600, "a", 12000], "trial": 6, "serialpos": 0, "trial_type": "single-audio", "trial_index": 225, "time_elapsed": 1242456, "internal_node_id": "0.0-162.0"}}, {"uniqueid": "MTK0400:3K2755HG5TAPCS1WOS6KE9RS0KRDF5", "current_trial": 226, "dateTime": 1510858855674, "trialdata": {"rt": -1000, "stimulus": "/static/audio/wordpool/SUNRISE.wav", "key_press": -1, "type": "PRES_AUD", "word": "sunrise", "wordID": 1406, "conditions": [12, 1600, "a", 12000], "trial": 6, "serialpos": 1, "trial_type": "single-audio", "trial_index": 226, "time_elapsed": 1245020, "internal_node_id": "0.0-163.0"}}, {"uniqueid": "MTK0400:3K2755HG5TAPCS1WOS6KE9RS0KRDF5", "current_trial": 227, "dateTime": 1510858858308, "trialdata": {"rt": -1000, "stimulus": "/static/audio/wordpool/HELMET.wav", "key_press": -1, "type": "PRES_AUD", "word": "helmet", "wordID": 701, "conditions": [12, 1600, "a", 12000], "trial": 6, "serialpos": 2, "trial_type": "single-audio", "trial_index": 227, "time_elapsed": 1247654, "internal_node_id": "0.0-164.0"}}, {"uniqueid": "MTK0400:3K2755HG5TAPCS1WOS6KE9RS0KRDF5", "current_trial": 228, "dateTime": 1510858861062, "trialdata": {"rt": -1000, "stimulus": "/static/audio/wordpool/CRITIC.wav", "key_press": -1, "type": "PRES_AUD", "word": "critic", "wordID": 409, "conditions": [12, 1600, "a", 12000], "trial": 6, "serialpos": 3, "trial_type": "single-audio", "trial_index": 228, "time_elapsed": 1250409, "internal_node_id": "0.0-165.0"}}, {"uniqueid": "MTK0400:3K2755HG5TAPCS1WOS6KE9RS0KRDF5", "current_trial": 229, "dateTime": 1510858863749, "trialdata": {"rt": -1000, "stimulus": "/static/audio/wordpool/PICTURE.wav", "key_press": -1, "type": "PRES_AUD", "word": "picture", "wordID": 1060, "conditions": [12, 1600, "a", 12000], "trial": 6, "serialpos": 4, "trial_type": "single-audio", "trial_index": 229, "time_elapsed": 1253096, "internal_node_id": "0.0-166.0"}}, {"uniqueid": "MTK0400:3K2755HG5TAPCS1WOS6KE9RS0KRDF5", "current_trial": 230, "dateTime": 1510858866206, "trialdata": {"rt": -1000, "stimulus": "/static/audio/wordpool/SANDWICH.wav", "key_press": -1, "type": "PRES_AUD", "word": "sandwich", "wordID": 1231, "conditions": [12, 1600, "a", 12000], "trial": 6, "serialpos": 5, "trial_type": "single-audio", "trial_index": 230, "time_elapsed": 1255553, "internal_node_id": "0.0-167.0"}}, {"uniqueid": "MTK0400:3K2755HG5TAPCS1WOS6KE9RS0KRDF5", "current_trial": 231, "dateTime": 1510858868804, "trialdata": {"rt": -1000, "stimulus": "/static/audio/wordpool/HOOK.wav", "key_press": -1, "type": "PRES_AUD", "word": "hook", "wordID": 714, "conditions": [12, 1600, "a", 12000], "trial": 6, "serialpos": 6, "trial_type": "single-audio", "trial_index": 231, "time_elapsed": 1258151, "internal_node_id": "0.0-168.0"}}, {"uniqueid": "MTK0400:3K2755HG5TAPCS1WOS6KE9RS0KRDF5", "current_trial": 232, "dateTime": 1510858871366, "trialdata": {"rt": -1000, "stimulus": "/static/audio/wordpool/FRANCE.wav", "key_press": -1, "type": "PRES_AUD", "word": "france", "wordID": 600, "conditions": [12, 1600, "a", 12000], "trial": 6, "serialpos": 7, "trial_type": "single-audio", "trial_index": 232, "time_elapsed": 1260713, "internal_node_id": "0.0-169.0"}}, {"uniqueid": "MTK0400:3K2755HG5TAPCS1WOS6KE9RS0KRDF5", "current_trial": 233, "dateTime": 1510858874326, "trialdata": {"rt": -1000, "stimulus": "/static/audio/wordpool/SAUSAGE.wav", "key_press": -1, "type": "PRES_AUD", "word": "sausage", "wordID": 1237, "conditions": [12, 1600, "a", 12000], "trial": 6, "serialpos": 8, "trial_type": "single-audio", "trial_index": 233, "time_elapsed": 1263673, "internal_node_id": "0.0-170.0"}}, {"uniqueid": "MTK0400:3K2755HG5TAPCS1WOS6KE9RS0KRDF5", "current_trial": 234, "dateTime": 1510858876823, "trialdata": {"rt": -1000, "stimulus": "/static/audio/wordpool/SEAFOOD.wav", "key_press": -1, "type": "PRES_AUD", "word": "seafood", "wordID": 1259, "conditions": [12, 1600, "a", 12000], "trial": 6, "serialpos": 9, "trial_type": "single-audio", "trial_index": 234, "time_elapsed": 1266169, "internal_node_id": "0.0-171.0"}}, {"uniqueid": "MTK0400:3K2755HG5TAPCS1WOS6KE9RS0KRDF5", "current_trial": 235, "dateTime": 1510858879237, "trialdata": {"rt": -1000, "stimulus": "/static/audio/wordpool/SALMON.wav", "key_press": -1, "type": "PRES_AUD", "word": "salmon", "wordID": 1226, "conditions": [12, 1600, "a", 12000], "trial": 6, "serialpos": 10, "trial_type": "single-audio", "trial_index": 235, "time_elapsed": 1268584, "internal_node_id": "0.0-172.0"}}, {"uniqueid": "MTK0400:3K2755HG5TAPCS1WOS6KE9RS0KRDF5", "current_trial": 236, "dateTime": 1510858881940, "trialdata": {"rt": -1000, "stimulus": "/static/audio/wordpool/SWITCH.wav", "key_press": -1, "type": "PRES_AUD", "word": "switch", "wordID": 1421, "conditions": [12, 1600, "a", 12000], "trial": 6, "serialpos": 11, "trial_type": "single-audio", "trial_index": 236, "time_elapsed": 1271286, "internal_node_id": "0.0-173.0"}}, {"uniqueid": "MTK0400:3K2755HG5TAPCS1WOS6KE9RS0KRDF5", "current_trial": 237, "dateTime": 1510858883222, "trialdata": {"rt": -1, "stimulus": "", "key_press": -1, "type": "PRE_RECALL_DELAY", "trial_type": "single-stim", "trial_index": 237, "time_elapsed": 1272569, "internal_node_id": "0.0-174.0-0.0"}}, {"uniqueid": "MTK0400:3K2755HG5TAPCS1WOS6KE9RS0KRDF5", "current_trial": 238, "dateTime": 1510858883732, "trialdata": {"rt": -1000, "stimulus": "/static/audio/400Hz.wav", "key_press": -1, "type": "PRE_RECALL_ALERT", "trial_type": "single-audio", "trial_index": 238, "time_elapsed": 1273078, "internal_node_id": "0.0-175.0"}}, {"uniqueid": "MTK0400:3K2755HG5TAPCS1WOS6KE9RS0KRDF5", "current_trial": 239, "dateTime": 1510858943749, "trialdata": {"rt": [3223, 5047], "recwords": ["seafood", "salmon"], "type": "FREE_RECALL", "conditions": [12, 1600, "a", 12000], "trial": 6, "trial_type": "free-recall", "trial_index": 239, "time_elapsed": 1333084, "internal_node_id": "0.0-176.0-0.0"}}, {"uniqueid": "MTK0400:3K2755HG5TAPCS1WOS6KE9RS0KRDF5", "current_trial": 240, "dateTime": 1510858947943, "trialdata": {"rt": 2191, "key_press": 13, "type": "INSTRUCTIONS", "trial_type": "text", "trial_index": 240, "time_elapsed": 1337290, "internal_node_id": "0.0-177.0"}}, {"uniqueid": "MTK0400:3K2755HG5TAPCS1WOS6KE9RS0KRDF5", "current_trial": 241, "dateTime": 1510858961951, "trialdata": {"rt": [4359, 8199, 10980], "responses": ["21", "17", "10"], "num1": [9, 5, 6, 2], "num2": [5, 4, 1, 1], "num3": [7, 8, 3, 4], "type": "DISTRACTOR", "conditions": [12, 800, "v", 12000], "trial": 7, "trial_type": "math-distractor", "trial_index": 241, "time_elapsed": 1351298, "internal_node_id": "0.0-178.0"}}, {"uniqueid": "MTK0400:3K2755HG5TAPCS1WOS6KE9RS0KRDF5", "current_trial": 242, "dateTime": 1510858964956, "trialdata": {"rt": -1, "stimulus": "<p id=\"stim\">10</p>", "key_press": -1, "trial_type": "single-stim", "trial_index": 242, "time_elapsed": 1354302, "internal_node_id": "0.0-179.0-0.0"}}, {"uniqueid": "MTK0400:3K2755HG5TAPCS1WOS6KE9RS0KRDF5", "current_trial": 243, "dateTime": 1510858965960, "trialdata": {"rt": -1, "stimulus": "<p id=\"stim\">9</p>", "key_press": -1, "trial_type": "single-stim", "trial_index": 243, "time_elapsed": 1355306, "internal_node_id": "0.0-179.0-1.0"}}, {"uniqueid": "MTK0400:3K2755HG5TAPCS1WOS6KE9RS0KRDF5", "current_trial": 244, "dateTime": 1510858966963, "trialdata": {"rt": -1, "stimulus": "<p id=\"stim\">8</p>", "key_press": -1, "trial_type": "single-stim", "trial_index": 244, "time_elapsed": 1356309, "internal_node_id": "0.0-179.0-2.0"}}, {"uniqueid": "MTK0400:3K2755HG5TAPCS1WOS6KE9RS0KRDF5", "current_trial": 245, "dateTime": 1510858967966, "trialdata": {"rt": -1, "stimulus": "<p id=\"stim\">7</p>", "key_press": -1, "trial_type": "single-stim", "trial_index": 245, "time_elapsed": 1357313, "internal_node_id": "0.0-179.0-3.0"}}, {"uniqueid": "MTK0400:3K2755HG5TAPCS1WOS6KE9RS0KRDF5", "current_trial": 246, "dateTime": 1510858968969, "trialdata": {"rt": -1, "stimulus": "<p id=\"stim\">6</p>", "key_press": -1, "trial_type": "single-stim", "trial_index": 246, "time_elapsed": 1358316, "internal_node_id": "0.0-179.0-4.0"}}, {"uniqueid": "MTK0400:3K2755HG5TAPCS1WOS6KE9RS0KRDF5", "current_trial": 247, "dateTime": 1510858969973, "trialdata": {"rt": -1, "stimulus": "<p id=\"stim\">5</p>", "key_press": -1, "trial_type": "single-stim", "trial_index": 247, "time_elapsed": 1359320, "internal_node_id": "0.0-179.0-5.0"}}, {"uniqueid": "MTK0400:3K2755HG5TAPCS1WOS6KE9RS0KRDF5", "current_trial": 248, "dateTime": 1510858970976, "trialdata": {"rt": -1, "stimulus": "<p id=\"stim\">4</p>", "key_press": -1, "trial_type": "single-stim", "trial_index": 248, "time_elapsed": 1360322, "internal_node_id": "0.0-179.0-6.0"}}, {"uniqueid": "MTK0400:3K2755HG5TAPCS1WOS6KE9RS0KRDF5", "current_trial": 249, "dateTime": 1510858971979, "trialdata": {"rt": -1, "stimulus": "<p id=\"stim\">3</p>", "key_press": -1, "trial_type": "single-stim", "trial_index": 249, "time_elapsed": 1361325, "internal_node_id": "0.0-179.0-7.0"}}, {"uniqueid": "MTK0400:3K2755HG5TAPCS1WOS6KE9RS0KRDF5", "current_trial": 250, "dateTime": 1510858972982, "trialdata": {"rt": -1, "stimulus": "<p id=\"stim\">2</p>", "key_press": -1, "trial_type": "single-stim", "trial_index": 250, "time_elapsed": 1362328, "internal_node_id": "0.0-179.0-8.0"}}, {"uniqueid": "MTK0400:3K2755HG5TAPCS1WOS6KE9RS0KRDF5", "current_trial": 251, "dateTime": 1510858973985, "trialdata": {"rt": -1, "stimulus": "<p id=\"stim\">1</p>", "key_press": -1, "trial_type": "single-stim", "trial_index": 251, "time_elapsed": 1363331, "internal_node_id": "0.0-179.0-9.0"}}, {"uniqueid": "MTK0400:3K2755HG5TAPCS1WOS6KE9RS0KRDF5", "current_trial": 252, "dateTime": 1510858975488, "trialdata": {"rt": -1, "stimulus": "<p id=\"stim\">+</p>", "key_press": -1, "type": "FIXATION", "trial_type": "single-stim", "trial_index": 252, "time_elapsed": 1364835, "internal_node_id": "0.0-180.0-0.0"}}, {"uniqueid": "MTK0400:3K2755HG5TAPCS1WOS6KE9RS0KRDF5", "current_trial": 253, "dateTime": 1510858976292, "trialdata": {"rt": -1, "stimulus": "<p id=\"stim\">GLOBE</p>", "key_press": -1, "type": "PRES_VIS", "word": "globe", "wordID": 640, "conditions": [12, 800, "v", 12000], "trial": 7, "serialpos": 0, "trial_type": "single-stim", "trial_index": 253, "time_elapsed": 1365638, "internal_node_id": "0.0-181.0"}}, {"uniqueid": "MTK0400:3K2755HG5TAPCS1WOS6KE9RS0KRDF5", "current_trial": 254, "dateTime": 1510858978067, "trialdata": {"rt": -1, "stimulus": "<p id=\"stim\">PIZZA</p>", "key_press": -1, "type": "PRES_VIS", "word": "pizza", "wordID": 1078, "conditions": [12, 800, "v", 12000], "trial": 7, "serialpos": 1, "trial_type": "single-stim", "trial_index": 254, "time_elapsed": 1367414, "internal_node_id": "0.0-182.0"}}, {"uniqueid": "MTK0400:3K2755HG5TAPCS1WOS6KE9RS0KRDF5", "current_trial": 255, "dateTime": 1510858979734, "trialdata": {"rt": -1, "stimulus": "<p id=\"stim\">DOUGHNUT</p>", "key_press": -1, "type": "PRES_VIS", "word": "doughnut", "wordID": 489, "conditions": [12, 800, "v", 12000], "trial": 7, "serialpos": 2, "trial_type": "single-stim", "trial_index": 255, "time_elapsed": 1369080, "internal_node_id": "0.0-183.0"}}, {"uniqueid": "MTK0400:3K2755HG5TAPCS1WOS6KE9RS0KRDF5", "current_trial": 256, "dateTime": 1510858981366, "trialdata": {"rt": -1, "stimulus": "<p id=\"stim\">FOX</p>", "key_press": -1, "type": "PRES_VIS", "word": "fox", "wordID": 597, "conditions": [12, 800, "v", 12000], "trial": 7, "serialpos": 3, "trial_type": "single-stim", "trial_index": 256, "time_elapsed": 1370713, "internal_node_id": "0.0-184.0"}}, {"uniqueid": "MTK0400:3K2755HG5TAPCS1WOS6KE9RS0KRDF5", "current_trial": 257, "dateTime": 1510858983303, "trialdata": {"rt": -1, "stimulus": "<p id=\"stim\">RECORD</p>", "key_press": -1, "type": "PRES_VIS", "word": "record", "wordID": 1175, "conditions": [12, 800, "v", 12000], "trial": 7, "serialpos": 4, "trial_type": "single-stim", "trial_index": 257, "time_elapsed": 1372650, "internal_node_id": "0.0-185.0"}}, {"uniqueid": "MTK0400:3K2755HG5TAPCS1WOS6KE9RS0KRDF5", "current_trial": 258, "dateTime": 1510858985211, "trialdata": {"rt": -1, "stimulus": "<p id=\"stim\">EMPIRE</p>", "key_press": -1, "type": "PRES_VIS", "word": "empire", "wordID": 529, "conditions": [12, 800, "v", 12000], "trial": 7, "serialpos": 5, "trial_type": "single-stim", "trial_index": 258, "time_elapsed": 1374557, "internal_node_id": "0.0-186.0"}}, {"uniqueid": "MTK0400:3K2755HG5TAPCS1WOS6KE9RS0KRDF5", "current_trial": 259, "dateTime": 1510858987058, "trialdata": {"rt": -1, "stimulus": "<p id=\"stim\">PARROT</p>", "key_press": -1, "type": "PRES_VIS", "word": "parrot", "wordID": 1014, "conditions": [12, 800, "v", 12000], "trial": 7, "serialpos": 6, "trial_type": "single-stim", "trial_index": 259, "time_elapsed": 1376404, "internal_node_id": "0.0-187.0"}}, {"uniqueid": "MTK0400:3K2755HG5TAPCS1WOS6KE9RS0KRDF5", "current_trial": 260, "dateTime": 1510858988865, "trialdata": {"rt": -1, "stimulus": "<p id=\"stim\">BUCKET</p>", "key_press": -1, "type": "PRES_VIS", "word": "bucket", "wordID": 183, "conditions": [12, 800, "v", 12000], "trial": 7, "serialpos": 7, "trial_type": "single-stim", "trial_index": 260, "time_elapsed": 1378212, "internal_node_id": "0.0-188.0"}}, {"uniqueid": "MTK0400:3K2755HG5TAPCS1WOS6KE9RS0KRDF5", "current_trial": 261, "dateTime": 1510858990840, "trialdata": {"rt": -1, "stimulus": "<p id=\"stim\">ANKLE</p>", "key_press": -1, "type": "PRES_VIS", "word": "ankle", "wordID": 23, "conditions": [12, 800, "v", 12000], "trial": 7, "serialpos": 8, "trial_type": "single-stim", "trial_index": 261, "time_elapsed": 1380187, "internal_node_id": "0.0-189.0"}}, {"uniqueid": "MTK0400:3K2755HG5TAPCS1WOS6KE9RS0KRDF5", "current_trial": 262, "dateTime": 1510858992575, "trialdata": {"rt": -1, "stimulus": "<p id=\"stim\">CATCHER</p>", "key_press": -1, "type": "PRES_VIS", "word": "catcher", "wordID": 257, "conditions": [12, 800, "v", 12000], "trial": 7, "serialpos": 9, "trial_type": "single-stim", "trial_index": 262, "time_elapsed": 1381922, "internal_node_id": "0.0-190.0"}}, {"uniqueid": "MTK0400:3K2755HG5TAPCS1WOS6KE9RS0KRDF5", "current_trial": 263, "dateTime": 1510858994348, "trialdata": {"rt": -1, "stimulus": "<p id=\"stim\">SOFTBALL</p>", "key_press": -1, "type": "PRES_VIS", "word": "softball", "wordID": 1342, "conditions": [12, 800, "v", 12000], "trial": 7, "serialpos": 10, "trial_type": "single-stim", "trial_index": 263, "time_elapsed": 1383695, "internal_node_id": "0.0-191.0"}}, {"uniqueid": "MTK0400:3K2755HG5TAPCS1WOS6KE9RS0KRDF5", "current_trial": 264, "dateTime": 1510858996267, "trialdata": {"rt": -1, "stimulus": "<p id=\"stim\">STOMACH</p>", "key_press": -1, "type": "PRES_VIS", "word": "stomach", "wordID": 1383, "conditions": [12, 800, "v", 12000], "trial": 7, "serialpos": 11, "trial_type": "single-stim", "trial_index": 264, "time_elapsed": 1385614, "internal_node_id": "0.0-192.0"}}, {"uniqueid": "MTK0400:3K2755HG5TAPCS1WOS6KE9RS0KRDF5", "current_trial": 265, "dateTime": 1510858998508, "trialdata": {"rt": -1, "stimulus": "", "key_press": -1, "type": "PRE_RECALL_DELAY", "trial_type": "single-stim", "trial_index": 265, "time_elapsed": 1387855, "internal_node_id": "0.0-193.0-0.0"}}, {"uniqueid": "MTK0400:3K2755HG5TAPCS1WOS6KE9RS0KRDF5", "current_trial": 266, "dateTime": 1510858999017, "trialdata": {"rt": -1000, "stimulus": "/static/audio/400Hz.wav", "key_press": -1, "type": "PRE_RECALL_ALERT", "trial_type": "single-audio", "trial_index": 266, "time_elapsed": 1388363, "internal_node_id": "0.0-194.0"}}, {"uniqueid": "MTK0400:3K2755HG5TAPCS1WOS6KE9RS0KRDF5", "current_trial": 267, "dateTime": 1510859059036, "trialdata": {"rt": [2390, 4206, 7397, 17484, 28586, 30380, 38479], "recwords": ["globe", "catcher", "softball", "bucket", "pizza", "donught", "stomach"], "type": "FREE_RECALL", "conditions": [12, 800, "v", 12000], "trial": 7, "trial_type": "free-recall", "trial_index": 267, "time_elapsed": 1448370, "internal_node_id": "0.0-195.0-0.0"}}, {"uniqueid": "MTK0400:3K2755HG5TAPCS1WOS6KE9RS0KRDF5", "current_trial": 268, "dateTime": 1510859062703, "trialdata": {"rt": 1663, "key_press": 13, "type": "INSTRUCTIONS", "trial_type": "text", "trial_index": 268, "time_elapsed": 1452050, "internal_node_id": "0.0-196.0"}}, {"uniqueid": "MTK0400:3K2755HG5TAPCS1WOS6KE9RS0KRDF5", "current_trial": 269, "dateTime": 1510859076713, "trialdata": {"rt": [3455, 7724, 10847], "responses": ["19", "13", "17"], "num1": [7, 5, 6, 7], "num2": [8, 7, 6, 7], "num3": [4, 1, 5, 9], "type": "DISTRACTOR", "conditions": [12, 1600, "v", 12000], "trial": 8, "trial_type": "math-distractor", "trial_index": 269, "time_elapsed": 1466060, "internal_node_id": "0.0-197.0"}}, {"uniqueid": "MTK0400:3K2755HG5TAPCS1WOS6KE9RS0KRDF5", "current_trial": 270, "dateTime": 1510859079719, "trialdata": {"rt": 69, "stimulus": "<p id=\"stim\">10</p>", "key_press": 50, "trial_type": "single-stim", "trial_index": 270, "time_elapsed": 1469065, "internal_node_id": "0.0-198.0-0.0"}}, {"uniqueid": "MTK0400:3K2755HG5TAPCS1WOS6KE9RS0KRDF5", "current_trial": 271, "dateTime": 1510859080723, "trialdata": {"rt": -1, "stimulus": "<p id=\"stim\">9</p>", "key_press": -1, "trial_type": "single-stim", "trial_index": 271, "time_elapsed": 1470069, "internal_node_id": "0.0-198.0-1.0"}}, {"uniqueid": "MTK0400:3K2755HG5TAPCS1WOS6KE9RS0KRDF5", "current_trial": 272, "dateTime": 1510859081726, "trialdata": {"rt": -1, "stimulus": "<p id=\"stim\">8</p>", "key_press": -1, "tr