{"condition": 0, "counterbalance": 904, "assignmentId": "386PBUZZXG4OF6BKKZVTCKRP09GJLG", "workerId": "MTK0151", "hitId": "3FSEU3P2NR7ET8RG7MWWB3QV3XIRRV", "currenttrial": 623, "bonus": 0, "data": [{"uniqueid": "MTK0151:386PBUZZXG4OF6BKKZVTCKRP09GJLG", "current_trial": 0, "dateTime": 1509293991586, "trialdata": {"rt": 2355, "key_press": 32, "type": "INSTRUCTIONS", "trial_type": "text", "trial_index": 0, "time_elapsed": 2360, "internal_node_id": "0.0-0.0"}}, {"uniqueid": "MTK0151:386PBUZZXG4OF6BKKZVTCKRP09GJLG", "current_trial": 1, "dateTime": 1509294009538, "trialdata": {"rt": 17948, "key_press": 32, "type": "INSTRUCTIONS", "trial_type": "text", "trial_index": 1, "time_elapsed": 20313, "internal_node_id": "0.0-1.0"}}, {"uniqueid": "MTK0151:386PBUZZXG4OF6BKKZVTCKRP09GJLG", "current_trial": 2, "dateTime": 1509294049998, "trialdata": {"rt": [40445], "responses": ["ocean"], "type": "AUDIO_TEST", "trial_type": "audio-test", "trial_index": 2, "time_elapsed": 60773, "internal_node_id": "0.0-2.0"}}, {"uniqueid": "MTK0151:386PBUZZXG4OF6BKKZVTCKRP09GJLG", "current_trial": 3, "dateTime": 1509294062651, "trialdata": {"rt": [12649], "responses": ["crystal"], "type": "AUDIO_TEST", "trial_type": "audio-test", "trial_index": 3, "time_elapsed": 73426, "internal_node_id": "0.0-3.0"}}, {"uniqueid": "MTK0151:386PBUZZXG4OF6BKKZVTCKRP09GJLG", "current_trial": 4, "dateTime": 1509294070621, "trialdata": {"rt": [7967], "responses": ["spice"], "type": "AUDIO_TEST", "trial_type": "audio-test", "trial_index": 4, "time_elapsed": 81396, "internal_node_id": "0.0-4.0"}}, {"uniqueid": "MTK0151:386PBUZZXG4OF6BKKZVTCKRP09GJLG", "current_trial": 5, "dateTime": 1509294074917, "trialdata": {"rt": 3544, "key_press": 86, "type": "INSTRUCTIONS", "trial_type": "text", "trial_index": 5, "time_elapsed": 85692, "internal_node_id": "0.0-5.0"}}, {"uniqueid": "MTK0151:386PBUZZXG4OF6BKKZVTCKRP09GJLG", "current_trial": 6, "dateTime": 1509294100797, "trialdata": {"rt": 25877, "key_press": 32, "type": "INSTRUCTIONS", "trial_type": "text", "trial_index": 6, "time_elapsed": 111571, "internal_node_id": "0.0-6.0"}}, {"uniqueid": "MTK0151:386PBUZZXG4OF6BKKZVTCKRP09GJLG", "current_trial": 7, "dateTime": 1509294111475, "trialdata": {"rt": 10677, "key_press": 32, "type": "INSTRUCTIONS", "trial_type": "text", "trial_index": 7, "time_elapsed": 122250, "internal_node_id": "0.0-7.0"}}, {"uniqueid": "MTK0151:386PBUZZXG4OF6BKKZVTCKRP09GJLG", "current_trial": 8, "dateTime": 1509294115044, "trialdata": {"rt": 3568, "key_press": 32, "type": "INSTRUCTIONS", "trial_type": "text", "trial_index": 8, "time_elapsed": 125818, "internal_node_id": "0.0-8.0"}}, {"uniqueid": "MTK0151:386PBUZZXG4OF6BKKZVTCKRP09GJLG", "current_trial": 9, "dateTime": 1509294134099, "trialdata": {"rt": [5403, 9683, 15448], "responses": ["15", "15", "13"], "num1": [9, 8, 4, 5], "num2": [3, 4, 2, 8], "num3": [3, 3, 7, 9], "type": "DISTRACTOR", "conditions": [18, 1200, "a", 18000], "trial": 0, "trial_type": "math-distractor", "trial_index": 9, "time_elapsed": 144874, "internal_node_id": "0.0-9.0"}}, {"uniqueid": "MTK0151:386PBUZZXG4OF6BKKZVTCKRP09GJLG", "current_trial": 10, "dateTime": 1509294137104, "trialdata": {"rt": -1, "stimulus": "<p id=\"stim\">10</p>", "key_press": -1, "trial_type": "single-stim", "trial_index": 10, "time_elapsed": 147879, "internal_node_id": "0.0-10.0-0.0"}}, {"uniqueid": "MTK0151:386PBUZZXG4OF6BKKZVTCKRP09GJLG", "current_trial": 11, "dateTime": 1509294138107, "trialdata": {"rt": -1, "stimulus": "<p id=\"stim\">9</p>", "key_press": -1, "trial_type": "single-stim", "trial_index": 11, "time_elapsed": 148882, "internal_node_id": "0.0-10.0-1.0"}}, {"uniqueid": "MTK0151:386PBUZZXG4OF6BKKZVTCKRP09GJLG", "current_trial": 12, "dateTime": 1509294139110, "trialdata": {"rt": -1, "stimulus": "<p id=\"stim\">8</p>", "key_press": -1, "trial_type": "single-stim", "trial_index": 12, "time_elapsed": 149885, "internal_node_id": "0.0-10.0-2.0"}}, {"uniqueid": "MTK0151:386PBUZZXG4OF6BKKZVTCKRP09GJLG", "current_trial": 13, "dateTime": 1509294140112, "trialdata": {"rt": -1, "stimulus": "<p id=\"stim\">7</p>", "key_press": -1, "trial_type": "single-stim", "trial_index": 13, "time_elapsed": 150887, "internal_node_id": "0.0-10.0-3.0"}}, {"uniqueid": "MTK0151:386PBUZZXG4OF6BKKZVTCKRP09GJLG", "current_trial": 14, "dateTime": 1509294141115, "trialdata": {"rt": -1, "stimulus": "<p id=\"stim\">6</p>", "key_press": -1, "trial_type": "single-stim", "trial_index": 14, "time_elapsed": 151890, "internal_node_id": "0.0-10.0-4.0"}}, {"uniqueid": "MTK0151:386PBUZZXG4OF6BKKZVTCKRP09GJLG", "current_trial": 15, "dateTime": 1509294142118, "trialdata": {"rt": -1, "stimulus": "<p id=\"stim\">5</p>", "key_press": -1, "trial_type": "single-stim", "trial_index": 15, "time_elapsed": 152893, "internal_node_id": "0.0-10.0-5.0"}}, {"uniqueid": "MTK0151:386PBUZZXG4OF6BKKZVTCKRP09GJLG", "current_trial": 16, "dateTime": 1509294143119, "trialdata": {"rt": -1, "stimulus": "<p id=\"stim\">4</p>", "key_press": -1, "trial_type": "single-stim", "trial_index": 16, "time_elapsed": 153894, "internal_node_id": "0.0-10.0-6.0"}}, {"uniqueid": "MTK0151:386PBUZZXG4OF6BKKZVTCKRP09GJLG", "current_trial": 17, "dateTime": 1509294144123, "trialdata": {"rt": -1, "stimulus": "<p id=\"stim\">3</p>", "key_press": -1, "trial_type": "single-stim", "trial_index": 17, "time_elapsed": 154898, "internal_node_id": "0.0-10.0-7.0"}}, {"uniqueid": "MTK0151:386PBUZZXG4OF6BKKZVTCKRP09GJLG", "current_trial": 18, "dateTime": 1509294145126, "trialdata": {"rt": -1, "stimulus": "<p id=\"stim\">2</p>", "key_press": -1, "trial_type": "single-stim", "trial_index": 18, "time_elapsed": 155900, "internal_node_id": "0.0-10.0-8.0"}}, {"uniqueid": "MTK0151:386PBUZZXG4OF6BKKZVTCKRP09GJLG", "current_trial": 19, "dateTime": 1509294146128, "trialdata": {"rt": -1, "stimulus": "<p id=\"stim\">1</p>", "key_press": -1, "trial_type": "single-stim", "trial_index": 19, "time_elapsed": 156903, "internal_node_id": "0.0-10.0-9.0"}}, {"uniqueid": "MTK0151:386PBUZZXG4OF6BKKZVTCKRP09GJLG", "current_trial": 20, "dateTime": 1509294147631, "trialdata": {"rt": -1, "stimulus": "<p id=\"stim\">+</p>", "key_press": -1, "type": "FIXATION", "trial_type": "single-stim", "trial_index": 20, "time_elapsed": 158405, "internal_node_id": "0.0-11.0-0.0"}}, {"uniqueid": "MTK0151:386PBUZZXG4OF6BKKZVTCKRP09GJLG", "current_trial": 21, "dateTime": 1509294149899, "trialdata": {"rt": -1000, "stimulus": "/static/audio/wordpool/LETTUCE.wav", "key_press": -1, "type": "PRES_AUD", "word": "lettuce", "wordID": 813, "conditions": [18, 1200, "a", 18000], "trial": 0, "serialpos": 0, "trial_type": "single-audio", "trial_index": 21, "time_elapsed": 160674, "internal_node_id": "0.0-12.0"}}, {"uniqueid": "MTK0151:386PBUZZXG4OF6BKKZVTCKRP09GJLG", "current_trial": 22, "dateTime": 1509294151992, "trialdata": {"rt": -1000, "stimulus": "/static/audio/wordpool/COUCH.wav", "key_press": -1, "type": "PRES_AUD", "word": "couch", "wordID": 385, "conditions": [18, 1200, "a", 18000], "trial": 0, "serialpos": 1, "trial_type": "single-audio", "trial_index": 22, "time_elapsed": 162767, "internal_node_id": "0.0-13.0"}}, {"uniqueid": "MTK0151:386PBUZZXG4OF6BKKZVTCKRP09GJLG", "current_trial": 23, "dateTime": 1509294154295, "trialdata": {"rt": -1000, "stimulus": "/static/audio/wordpool/PERFUME.wav", "key_press": -1, "type": "PRES_AUD", "word": "perfume", "wordID": 1048, "conditions": [18, 1200, "a", 18000], "trial": 0, "serialpos": 2, "trial_type": "single-audio", "trial_index": 23, "time_elapsed": 165069, "internal_node_id": "0.0-14.0"}}, {"uniqueid": "MTK0151:386PBUZZXG4OF6BKKZVTCKRP09GJLG", "current_trial": 24, "dateTime": 1509294156356, "trialdata": {"rt": -1000, "stimulus": "/static/audio/wordpool/CABBAGE.wav", "key_press": -1, "type": "PRES_AUD", "word": "cabbage", "wordID": 209, "conditions": [18, 1200, "a", 18000], "trial": 0, "serialpos": 3, "trial_type": "single-audio", "trial_index": 24, "time_elapsed": 167131, "internal_node_id": "0.0-15.0"}}, {"uniqueid": "MTK0151:386PBUZZXG4OF6BKKZVTCKRP09GJLG", "current_trial": 25, "dateTime": 1509294158730, "trialdata": {"rt": -1000, "stimulus": "/static/audio/wordpool/LUNCH.wav", "key_press": -1, "type": "PRES_AUD", "word": "lunch", "wordID": 848, "conditions": [18, 1200, "a", 18000], "trial": 0, "serialpos": 4, "trial_type": "single-audio", "trial_index": 25, "time_elapsed": 169504, "internal_node_id": "0.0-16.0"}}, {"uniqueid": "MTK0151:386PBUZZXG4OF6BKKZVTCKRP09GJLG", "current_trial": 26, "dateTime": 1509294160735, "trialdata": {"rt": -1000, "stimulus": "/static/audio/wordpool/COIN.wav", "key_press": -1, "type": "PRES_AUD", "word": "coin", "wordID": 342, "conditions": [18, 1200, "a", 18000], "trial": 0, "serialpos": 5, "trial_type": "single-audio", "trial_index": 26, "time_elapsed": 171510, "internal_node_id": "0.0-17.0"}}, {"uniqueid": "MTK0151:386PBUZZXG4OF6BKKZVTCKRP09GJLG", "current_trial": 27, "dateTime": 1509294162995, "trialdata": {"rt": -1000, "stimulus": "/static/audio/wordpool/MISSILE.wav", "key_press": -1, "type": "PRES_AUD", "word": "missile", "wordID": 899, "conditions": [18, 1200, "a", 18000], "trial": 0, "serialpos": 6, "trial_type": "single-audio", "trial_index": 27, "time_elapsed": 173770, "internal_node_id": "0.0-18.0"}}, {"uniqueid": "MTK0151:386PBUZZXG4OF6BKKZVTCKRP09GJLG", "current_trial": 28, "dateTime": 1509294165106, "trialdata": {"rt": -1000, "stimulus": "/static/audio/wordpool/PENGUIN.wav", "key_press": -1, "type": "PRES_AUD", "word": "penguin", "wordID": 1043, "conditions": [18, 1200, "a", 18000], "trial": 0, "serialpos": 7, "trial_type": "single-audio", "trial_index": 28, "time_elapsed": 175880, "internal_node_id": "0.0-19.0"}}, {"uniqueid": "MTK0151:386PBUZZXG4OF6BKKZVTCKRP09GJLG", "current_trial": 29, "dateTime": 1509294167434, "trialdata": {"rt": -1000, "stimulus": "/static/audio/wordpool/DIME.wav", "key_press": -1, "type": "PRES_AUD", "word": "dime", "wordID": 465, "conditions": [18, 1200, "a", 18000], "trial": 0, "serialpos": 8, "trial_type": "single-audio", "trial_index": 29, "time_elapsed": 178208, "internal_node_id": "0.0-20.0"}}, {"uniqueid": "MTK0151:386PBUZZXG4OF6BKKZVTCKRP09GJLG", "current_trial": 30, "dateTime": 1509294169490, "trialdata": {"rt": -1000, "stimulus": "/static/audio/wordpool/BACON.wav", "key_press": -1, "type": "PRES_AUD", "word": "bacon", "wordID": 66, "conditions": [18, 1200, "a", 18000], "trial": 0, "serialpos": 9, "trial_type": "single-audio", "trial_index": 30, "time_elapsed": 180264, "internal_node_id": "0.0-21.0"}}, {"uniqueid": "MTK0151:386PBUZZXG4OF6BKKZVTCKRP09GJLG", "current_trial": 31, "dateTime": 1509294171733, "trialdata": {"rt": -1000, "stimulus": "/static/audio/wordpool/SWAMP.wav", "key_press": -1, "type": "PRES_AUD", "word": "swamp", "wordID": 1415, "conditions": [18, 1200, "a", 18000], "trial": 0, "serialpos": 10, "trial_type": "single-audio", "trial_index": 31, "time_elapsed": 182508, "internal_node_id": "0.0-22.0"}}, {"uniqueid": "MTK0151:386PBUZZXG4OF6BKKZVTCKRP09GJLG", "current_trial": 32, "dateTime": 1509294174063, "trialdata": {"rt": -1000, "stimulus": "/static/audio/wordpool/SNACK.wav", "key_press": -1, "type": "PRES_AUD", "word": "snack", "wordID": 1330, "conditions": [18, 1200, "a", 18000], "trial": 0, "serialpos": 11, "trial_type": "single-audio", "trial_index": 32, "time_elapsed": 184838, "internal_node_id": "0.0-23.0"}}, {"uniqueid": "MTK0151:386PBUZZXG4OF6BKKZVTCKRP09GJLG", "current_trial": 33, "dateTime": 1509294176249, "trialdata": {"rt": -1000, "stimulus": "/static/audio/wordpool/JURY.wav", "key_press": -1, "type": "PRES_AUD", "word": "jury", "wordID": 765, "conditions": [18, 1200, "a", 18000], "trial": 0, "serialpos": 12, "trial_type": "single-audio", "trial_index": 33, "time_elapsed": 187023, "internal_node_id": "0.0-24.0"}}, {"uniqueid": "MTK0151:386PBUZZXG4OF6BKKZVTCKRP09GJLG", "current_trial": 34, "dateTime": 1509294178438, "trialdata": {"rt": -1000, "stimulus": "/static/audio/wordpool/JOURNAL.wav", "key_press": -1, "type": "PRES_AUD", "word": "journal", "wordID": 759, "conditions": [18, 1200, "a", 18000], "trial": 0, "serialpos": 13, "trial_type": "single-audio", "trial_index": 34, "time_elapsed": 189213, "internal_node_id": "0.0-25.0"}}, {"uniqueid": "MTK0151:386PBUZZXG4OF6BKKZVTCKRP09GJLG", "current_trial": 35, "dateTime": 1509294180572, "trialdata": {"rt": -1000, "stimulus": "/static/audio/wordpool/SNAKE.wav", "key_press": -1, "type": "PRES_AUD", "word": "snake", "wordID": 1332, "conditions": [18, 1200, "a", 18000], "trial": 0, "serialpos": 14, "trial_type": "single-audio", "trial_index": 35, "time_elapsed": 191347, "internal_node_id": "0.0-26.0"}}, {"uniqueid": "MTK0151:386PBUZZXG4OF6BKKZVTCKRP09GJLG", "current_trial": 36, "dateTime": 1509294182734, "trialdata": {"rt": -1000, "stimulus": "/static/audio/wordpool/GLOVE.wav", "key_press": -1, "type": "PRES_AUD", "word": "glove", "wordID": 641, "conditions": [18, 1200, "a", 18000], "trial": 0, "serialpos": 15, "trial_type": "single-audio", "trial_index": 36, "time_elapsed": 193509, "internal_node_id": "0.0-27.0"}}, {"uniqueid": "MTK0151:386PBUZZXG4OF6BKKZVTCKRP09GJLG", "current_trial": 37, "dateTime": 1509294184862, "trialdata": {"rt": -1000, "stimulus": "/static/audio/wordpool/SLUG.wav", "key_press": -1, "type": "PRES_AUD", "word": "slug", "wordID": 1328, "conditions": [18, 1200, "a", 18000], "trial": 0, "serialpos": 16, "trial_type": "single-audio", "trial_index": 37, "time_elapsed": 195637, "internal_node_id": "0.0-28.0"}}, {"uniqueid": "MTK0151:386PBUZZXG4OF6BKKZVTCKRP09GJLG", "current_trial": 38, "dateTime": 1509294187212, "trialdata": {"rt": -1000, "stimulus": "/static/audio/wordpool/HOOK.wav", "key_press": -1, "type": "PRES_AUD", "word": "hook", "wordID": 714, "conditions": [18, 1200, "a", 18000], "trial": 0, "serialpos": 17, "trial_type": "single-audio", "trial_index": 38, "time_elapsed": 197987, "internal_node_id": "0.0-29.0"}}, {"uniqueid": "MTK0151:386PBUZZXG4OF6BKKZVTCKRP09GJLG", "current_trial": 39, "dateTime": 1509294188449, "trialdata": {"rt": -1, "stimulus": "", "key_press": -1, "type": "PRE_RECALL_DELAY", "trial_type": "single-stim", "trial_index": 39, "time_elapsed": 199223, "internal_node_id": "0.0-30.0-0.0"}}, {"uniqueid": "MTK0151:386PBUZZXG4OF6BKKZVTCKRP09GJLG", "current_trial": 40, "dateTime": 1509294188951, "trialdata": {"rt": -1000, "stimulus": "/static/audio/400Hz.wav", "key_press": -1, "type": "PRE_RECALL_ALERT", "trial_type": "single-audio", "trial_index": 40, "time_elapsed": 199726, "internal_node_id": "0.0-31.0"}}, {"uniqueid": "MTK0151:386PBUZZXG4OF6BKKZVTCKRP09GJLG", "current_trial": 41, "dateTime": 1509294248961, "trialdata": {"rt": [2543, 4646, 9352, 11267, 13867, 15462, 18011, 22161, 25200, 27818, 30268, 37063, 47462, 52676], "recwords": ["hook", "glove", "swamp", "cabbage", "lettuce", "bacon", "hook", "glove", "couch", "coin", "jury", "penguin", "lunch", "snake"], "type": "FREE_RECALL", "conditions": [18, 1200, "a", 18000], "trial": 0, "trial_type": "free-recall", "trial_index": 41, "time_elapsed": 259731, "internal_node_id": "0.0-32.0-0.0"}}, {"uniqueid": "MTK0151:386PBUZZXG4OF6BKKZVTCKRP09GJLG", "current_trial": 42, "dateTime": 1509294252823, "trialdata": {"rt": 1859, "key_press": 32, "type": "INSTRUCTIONS", "trial_type": "text", "trial_index": 42, "time_elapsed": 263598, "internal_node_id": "0.0-33.0"}}, {"uniqueid": "MTK0151:386PBUZZXG4OF6BKKZVTCKRP09GJLG", "current_trial": 43, "dateTime": 1509294272827, "trialdata": {"rt": [4413, 6991, 9582, 14184, 16319], "responses": ["20", "14", "8", "18", "13"], "num1": [6, 6, 2, 7, 6, 3], "num2": [5, 6, 3, 5, 1, 3], "num3": [9, 2, 3, 6, 6, 9], "type": "DISTRACTOR", "conditions": [18, 1200, "v", 18000], "trial": 1, "trial_type": "math-distractor", "trial_index": 43, "time_elapsed": 283602, "internal_node_id": "0.0-34.0"}}, {"uniqueid": "MTK0151:386PBUZZXG4OF6BKKZVTCKRP09GJLG", "current_trial": 44, "dateTime": 1509294275831, "trialdata": {"rt": -1, "stimulus": "<p id=\"stim\">10</p>", "key_press": -1, "trial_type": "single-stim", "trial_index": 44, "time_elapsed": 286605, "internal_node_id": "0.0-35.0-0.0"}}, {"uniqueid": "MTK0151:386PBUZZXG4OF6BKKZVTCKRP09GJLG", "current_trial": 45, "dateTime": 1509294276833, "trialdata": {"rt": -1, "stimulus": "<p id=\"stim\">9</p>", "key_press": -1, "trial_type": "single-stim", "trial_index": 45, "time_elapsed": 287608, "internal_node_id": "0.0-35.0-1.0"}}, {"uniqueid": "MTK0151:386PBUZZXG4OF6BKKZVTCKRP09GJLG", "current_trial": 46, "dateTime": 1509294277835, "trialdata": {"rt": -1, "stimulus": "<p id=\"stim\">8</p>", "key_press": -1, "trial_type": "single-stim", "trial_index": 46, "time_elapsed": 288610, "internal_node_id": "0.0-35.0-2.0"}}, {"uniqueid": "MTK0151:386PBUZZXG4OF6BKKZVTCKRP09GJLG", "current_trial": 47, "dateTime": 1509294278839, "trialdata": {"rt": -1, "stimulus": "<p id=\"stim\">7</p>", "key_press": -1, "trial_type": "single-stim", "trial_index": 47, "time_elapsed": 289613, "internal_node_id": "0.0-35.0-3.0"}}, {"uniqueid": "MTK0151:386PBUZZXG4OF6BKKZVTCKRP09GJLG", "current_trial": 48, "dateTime": 1509294279840, "trialdata": {"rt": -1, "stimulus": "<p id=\"stim\">6</p>", "key_press": -1, "trial_type": "single-stim", "trial_index": 48, "time_elapsed": 290614, "internal_node_id": "0.0-35.0-4.0"}}, {"uniqueid": "MTK0151:386PBUZZXG4OF6BKKZVTCKRP09GJLG", "current_trial": 49, "dateTime": 1509294280841, "trialdata": {"rt": -1, "stimulus": "<p id=\"stim\">5</p>", "key_press": -1, "trial_type": "single-stim", "trial_index": 49, "time_elapsed": 291616, "internal_node_id": "0.0-35.0-5.0"}}, {"uniqueid": "MTK0151:386PBUZZXG4OF6BKKZVTCKRP09GJLG", "current_trial": 50, "dateTime": 1509294281843, "trialdata": {"rt": -1, "stimulus": "<p id=\"stim\">4</p>", "key_press": -1, "trial_type": "single-stim", "trial_index": 50, "time_elapsed": 292617, "internal_node_id": "0.0-35.0-6.0"}}, {"uniqueid": "MTK0151:386PBUZZXG4OF6BKKZVTCKRP09GJLG", "current_trial": 51, "dateTime": 1509294282846, "trialdata": {"rt": -1, "stimulus": "<p id=\"stim\">3</p>", "key_press": -1, "trial_type": "single-stim", "trial_index": 51, "time_elapsed": 293620, "internal_node_id": "0.0-35.0-7.0"}}, {"uniqueid": "MTK0151:386PBUZZXG4OF6BKKZVTCKRP09GJLG", "current_trial": 52, "dateTime": 1509294283850, "trialdata": {"rt": -1, "stimulus": "<p id=\"stim\">2</p>", "key_press": -1, "trial_type": "single-stim", "trial_index": 52, "time_elapsed": 294623, "internal_node_id": "0.0-35.0-8.0"}}, {"uniqueid": "MTK0151:386PBUZZXG4OF6BKKZVTCKRP09GJLG", "current_trial": 53, "dateTime": 1509294284853, "trialdata": {"rt": -1, "stimulus": "<p id=\"stim\">1</p>", "key_press": -1, "trial_type": "single-stim", "trial_index": 53, "time_elapsed": 295627, "internal_node_id": "0.0-35.0-9.0"}}, {"uniqueid": "MTK0151:386PBUZZXG4OF6BKKZVTCKRP09GJLG", "current_trial": 54, "dateTime": 1509294286356, "trialdata": {"rt": -1, "stimulus": "<p id=\"stim\">+</p>", "key_press": -1, "type": "FIXATION", "trial_type": "single-stim", "trial_index": 54, "time_elapsed": 297130, "internal_node_id": "0.0-36.0-0.0"}}, {"uniqueid": "MTK0151:386PBUZZXG4OF6BKKZVTCKRP09GJLG", "current_trial": 55, "dateTime": 1509294287559, "trialdata": {"rt": -1, "stimulus": "<p id=\"stim\">SPOUSE</p>", "key_press": -1, "type": "PRES_VIS", "word": "spouse", "wordID": 1357, "conditions": [18, 1200, "v", 18000], "trial": 1, "serialpos": 0, "trial_type": "single-stim", "trial_index": 55, "time_elapsed": 298333, "internal_node_id": "0.0-37.0"}}, {"uniqueid": "MTK0151:386PBUZZXG4OF6BKKZVTCKRP09GJLG", "current_trial": 56, "dateTime": 1509294289803, "trialdata": {"rt": -1, "stimulus": "<p id=\"stim\">THIEF</p>", "key_press": -1, "type": "PRES_VIS", "word": "thief", "wordID": 1455, "conditions": [18, 1200, "v", 18000], "trial": 1, "serialpos": 1, "trial_type": "single-stim", "trial_index": 56, "time_elapsed": 300578, "internal_node_id": "0.0-38.0"}}, {"uniqueid": "MTK0151:386PBUZZXG4OF6BKKZVTCKRP09GJLG", "current_trial": 57, "dateTime": 1509294291877, "trialdata": {"rt": -1, "stimulus": "<p id=\"stim\">PLASTER</p>", "key_press": -1, "type": "PRES_VIS", "word": "plaster", "wordID": 1084, "conditions": [18, 1200, "v", 18000], "trial": 1, "serialpos": 2, "trial_type": "single-stim", "trial_index": 57, "time_elapsed": 302651, "internal_node_id": "0.0-39.0"}}, {"uniqueid": "MTK0151:386PBUZZXG4OF6BKKZVTCKRP09GJLG", "current_trial": 58, "dateTime": 1509294294132, "trialdata": {"rt": -1, "stimulus": "<p id=\"stim\">LOVER</p>", "key_press": -1, "type": "PRES_VIS", "word": "lover", "wordID": 845, "conditions": [18, 1200, "v", 18000], "trial": 1, "serialpos": 3, "trial_type": "single-stim", "trial_index": 58, "time_elapsed": 304906, "internal_node_id": "0.0-40.0"}}, {"uniqueid": "MTK0151:386PBUZZXG4OF6BKKZVTCKRP09GJLG", "current_trial": 59, "dateTime": 1509294296472, "trialdata": {"rt": -1, "stimulus": "<p id=\"stim\">JAPAN</p>", "key_press": -1, "type": "PRES_VIS", "word": "japan", "wordID": 748, "conditions": [18, 1200, "v", 18000], "trial": 1, "serialpos": 4, "trial_type": "single-stim", "trial_index": 59, "time_elapsed": 307247, "internal_node_id": "0.0-41.0"}}, {"uniqueid": "MTK0151:386PBUZZXG4OF6BKKZVTCKRP09GJLG", "current_trial": 60, "dateTime": 1509294298733, "trialdata": {"rt": -1, "stimulus": "<p id=\"stim\">HANDBAG</p>", "key_press": -1, "type": "PRES_VIS", "word": "handbag", "wordID": 683, "conditions": [18, 1200, "v", 18000], "trial": 1, "serialpos": 5, "trial_type": "single-stim", "trial_index": 60, "time_elapsed": 309508, "internal_node_id": "0.0-42.0"}}, {"uniqueid": "MTK0151:386PBUZZXG4OF6BKKZVTCKRP09GJLG", "current_trial": 61, "dateTime": 1509294300796, "trialdata": {"rt": -1, "stimulus": "<p id=\"stim\">PERMIT</p>", "key_press": -1, "type": "PRES_VIS", "word": "permit", "wordID": 1050, "conditions": [18, 1200, "v", 18000], "trial": 1, "serialpos": 6, "trial_type": "single-stim", "trial_index": 61, "time_elapsed": 311571, "internal_node_id": "0.0-43.0"}}, {"uniqueid": "MTK0151:386PBUZZXG4OF6BKKZVTCKRP09GJLG", "current_trial": 62, "dateTime": 1509294302978, "trialdata": {"rt": -1, "stimulus": "<p id=\"stim\">SISTER</p>", "key_press": -1, "type": "PRES_VIS", "word": "sister", "wordID": 1311, "conditions": [18, 1200, "v", 18000], "trial": 1, "serialpos": 7, "trial_type": "single-stim", "trial_index": 62, "time_elapsed": 313752, "internal_node_id": "0.0-44.0"}}, {"uniqueid": "MTK0151:386PBUZZXG4OF6BKKZVTCKRP09GJLG", "current_trial": 63, "dateTime": 1509294305037, "trialdata": {"rt": -1, "stimulus": "<p id=\"stim\">COSTUME</p>", "key_press": -1, "type": "PRES_VIS", "word": "costume", "wordID": 382, "conditions": [18, 1200, "v", 18000], "trial": 1, "serialpos": 8, "trial_type": "single-stim", "trial_index": 63, "time_elapsed": 315811, "internal_node_id": "0.0-45.0"}}, {"uniqueid": "MTK0151:386PBUZZXG4OF6BKKZVTCKRP09GJLG", "current_trial": 64, "dateTime": 1509294307200, "trialdata": {"rt": -1, "stimulus": "<p id=\"stim\">FLAG</p>", "key_press": -1, "type": "PRES_VIS", "word": "flag", "wordID": 572, "conditions": [18, 1200, "v", 18000], "trial": 1, "serialpos": 9, "trial_type": "single-stim", "trial_index": 64, "time_elapsed": 317975, "internal_node_id": "0.0-46.0"}}, {"uniqueid": "MTK0151:386PBUZZXG4OF6BKKZVTCKRP09GJLG", "current_trial": 65, "dateTime": 1509294309288, "trialdata": {"rt": -1, "stimulus": "<p id=\"stim\">COD</p>", "key_press": -1, "type": "PRES_VIS", "word": "cod", "wordID": 339, "conditions": [18, 1200, "v", 18000], "trial": 1, "serialpos": 10, "trial_type": "single-stim", "trial_index": 65, "time_elapsed": 320063, "internal_node_id": "0.0-47.0"}}, {"uniqueid": "MTK0151:386PBUZZXG4OF6BKKZVTCKRP09GJLG", "current_trial": 66, "dateTime": 1509294311544, "trialdata": {"rt": -1, "stimulus": "<p id=\"stim\">PALACE</p>", "key_press": -1, "type": "PRES_VIS", "word": "palace", "wordID": 1005, "conditions": [18, 1200, "v", 18000], "trial": 1, "serialpos": 11, "trial_type": "single-stim", "trial_index": 66, "time_elapsed": 322318, "internal_node_id": "0.0-48.0"}}, {"uniqueid": "MTK0151:386PBUZZXG4OF6BKKZVTCKRP09GJLG", "current_trial": 67, "dateTime": 1509294313653, "trialdata": {"rt": -1, "stimulus": "<p id=\"stim\">SAUSAGE</p>", "key_press": -1, "type": "PRES_VIS", "word": "sausage", "wordID": 1237, "conditions": [18, 1200, "v", 18000], "trial": 1, "serialpos": 12, "trial_type": "single-stim", "trial_index": 67, "time_elapsed": 324428, "internal_node_id": "0.0-49.0"}}, {"uniqueid": "MTK0151:386PBUZZXG4OF6BKKZVTCKRP09GJLG", "current_trial": 68, "dateTime": 1509294315668, "trialdata": {"rt": -1, "stimulus": "<p id=\"stim\">CARRIAGE</p>", "key_press": -1, "type": "PRES_VIS", "word": "carriage", "wordID": 247, "conditions": [18, 1200, "v", 18000], "trial": 1, "serialpos": 13, "trial_type": "single-stim", "trial_index": 68, "time_elapsed": 326439, "internal_node_id": "0.0-50.0"}}, {"uniqueid": "MTK0151:386PBUZZXG4OF6BKKZVTCKRP09GJLG", "current_trial": 69, "dateTime": 1509294317836, "trialdata": {"rt": -1, "stimulus": "<p id=\"stim\">THREAD</p>", "key_press": -1, "type": "PRES_VIS", "word": "thread", "wordID": 1459, "conditions": [18, 1200, "v", 18000], "trial": 1, "serialpos": 14, "trial_type": "single-stim", "trial_index": 69, "time_elapsed": 328611, "internal_node_id": "0.0-51.0"}}, {"uniqueid": "MTK0151:386PBUZZXG4OF6BKKZVTCKRP09GJLG", "current_trial": 70, "dateTime": 1509294320076, "trialdata": {"rt": -1, "stimulus": "<p id=\"stim\">BOX</p>", "key_press": -1, "type": "PRES_VIS", "word": "box", "wordID": 158, "conditions": [18, 1200, "v", 18000], "trial": 1, "serialpos": 15, "trial_type": "single-stim", "trial_index": 70, "time_elapsed": 330850, "internal_node_id": "0.0-52.0"}}, {"uniqueid": "MTK0151:386PBUZZXG4OF6BKKZVTCKRP09GJLG", "current_trial": 71, "dateTime": 1509294322118, "trialdata": {"rt": -1, "stimulus": "<p id=\"stim\">CRATER</p>", "key_press": -1, "type": "PRES_VIS", "word": "crater", "wordID": 399, "conditions": [18, 1200, "v", 18000], "trial": 1, "serialpos": 16, "trial_type": "single-stim", "trial_index": 71, "time_elapsed": 332893, "internal_node_id": "0.0-53.0"}}, {"uniqueid": "MTK0151:386PBUZZXG4OF6BKKZVTCKRP09GJLG", "current_trial": 72, "dateTime": 1509294324149, "trialdata": {"rt": -1, "stimulus": "<p id=\"stim\">FOX</p>", "key_press": -1, "type": "PRES_VIS", "word": "fox", "wordID": 597, "conditions": [18, 1200, "v", 18000], "trial": 1, "serialpos": 17, "trial_type": "single-stim", "trial_index": 72, "time_elapsed": 334923, "internal_node_id": "0.0-54.0"}}, {"uniqueid": "MTK0151:386PBUZZXG4OF6BKKZVTCKRP09GJLG", "current_trial": 73, "dateTime": 1509294326335, "trialdata": {"rt": -1, "stimulus": "", "key_press": -1, "type": "PRE_RECALL_DELAY", "trial_type": "single-stim", "trial_index": 73, "time_elapsed": 337110, "internal_node_id": "0.0-55.0-0.0"}}, {"uniqueid": "MTK0151:386PBUZZXG4OF6BKKZVTCKRP09GJLG", "current_trial": 74, "dateTime": 1509294326837, "trialdata": {"rt": -1000, "stimulus": "/static/audio/400Hz.wav", "key_press": -1, "type": "PRE_RECALL_ALERT", "trial_type": "single-audio", "trial_index": 74, "time_elapsed": 337612, "internal_node_id": "0.0-56.0"}}, {"uniqueid": "MTK0151:386PBUZZXG4OF6BKKZVTCKRP09GJLG", "current_trial": 75, "dateTime": 1509294386844, "trialdata": {"rt": [2347, 4419, 7081, 9774, 11351, 13072, 15532, 21669, 29054, 31961, 34216], "recwords": ["fox", "crater", "thief", "spouse", "lover", "japan", "handbag", "crater", "fox", "japan", "handbag"], "type": "FREE_RECALL", "conditions": [18, 1200, "v", 18000], "trial": 1, "trial_type": "free-recall", "trial_index": 75, "time_elapsed": 397617, "internal_node_id": "0.0-57.0-0.0"}}, {"uniqueid": "MTK0151:386PBUZZXG4OF6BKKZVTCKRP09GJLG", "current_trial": 76, "dateTime": 1509294390498, "trialdata": {"rt": 1652, "key_press": 13, "type": "INSTRUCTIONS", "trial_type": "text", "trial_index": 76, "time_elapsed": 401273, "internal_node_id": "0.0-58.0"}}, {"uniqueid": "MTK0151:386PBUZZXG4OF6BKKZVTCKRP09GJLG", "current_trial": 77, "dateTime": 1509294403503, "trialdata": {"rt": [3195, 8658], "responses": ["1", "19"], "num1": [6, 5, 7], "num2": [1, 8, 9], "num3": [7, 6, 9], "type": "DISTRACTOR", "conditions": [24, 800, "a", 12000], "trial": 2, "trial_type": "math-distractor", "trial_index": 77, "time_elapsed": 414278, "internal_node_id": "0.0-59.0"}}, {"uniqueid": "MTK0151:386PBUZZXG4OF6BKKZVTCKRP09GJLG", "current_trial": 78, "dateTime": 1509294406507, "trialdata": {"rt": -1, "stimulus": "<p id=\"stim\">10</p>", "key_press": -1, "trial_type": "single-stim", "trial_index": 78, "time_elapsed": 417281, "internal_node_id": "0.0-60.0-0.0"}}, {"uniqueid": "MTK0151:386PBUZZXG4OF6BKKZVTCKRP09GJLG", "current_trial": 79, "dateTime": 1509294407509, "trialdata": {"rt": -1, "stimulus": "<p id=\"stim\">9</p>", "key_press": -1, "trial_type": "single-stim", "trial_index": 79, "time_elapsed": 418283, "internal_node_id": "0.0-60.0-1.0"}}, {"uniqueid": "MTK0151:386PBUZZXG4OF6BKKZVTCKRP09GJLG", "current_trial": 80, "dateTime": 1509294408510, "trialdata": {"rt": -1, "stimulus": "<p id=\"stim\">8</p>", "key_press": -1, "trial_type": "single-stim", "trial_index": 80, "time_elapsed": 419285, "internal_node_id": "0.0-60.0-2.0"}}, {"uniqueid": "MTK0151:386PBUZZXG4OF6BKKZVTCKRP09GJLG", "current_trial": 81, "dateTime": 1509294409512, "trialdata": {"rt": -1, "stimulus": "<p id=\"stim\">7</p>", "key_press": -1, "trial_type": "single-stim", "trial_index": 81, "time_elapsed": 420287, "internal_node_id": "0.0-60.0-3.0"}}, {"uniqueid": "MTK0151:386PBUZZXG4OF6BKKZVTCKRP09GJLG", "current_trial": 82, "dateTime": 1509294410515, "trialdata": {"rt": -1, "stimulus": "<p id=\"stim\">6</p>", "key_press": -1, "trial_type": "single-stim", "trial_index": 82, "time_elapsed": 421289, "internal_node_id": "0.0-60.0-4.0"}}, {"uniqueid": "MTK0151:386PBUZZXG4OF6BKKZVTCKRP09GJLG", "current_trial": 83, "dateTime": 1509294411517, "trialdata": {"rt": -1, "stimulus": "<p id=\"stim\">5</p>", "key_press": -1, "trial_type": "single-stim", "trial_index": 83, "time_elapsed": 422292, "internal_node_id": "0.0-60.0-5.0"}}, {"uniqueid": "MTK0151:386PBUZZXG4OF6BKKZVTCKRP09GJLG", "current_trial": 84, "dateTime": 1509294412519, "trialdata": {"rt": -1, "stimulus": "<p id=\"stim\">4</p>", "key_press": -1, "trial_type": "single-stim", "trial_index": 84, "time_elapsed": 423294, "internal_node_id": "0.0-60.0-6.0"}}, {"uniqueid": "MTK0151:386PBUZZXG4OF6BKKZVTCKRP09GJLG", "current_trial": 85, "dateTime": 1509294413522, "trialdata": {"rt": -1, "stimulus": "<p id=\"stim\">3</p>", "key_press": -1, "trial_type": "single-stim", "trial_index": 85, "time_elapsed": 424296, "internal_node_id": "0.0-60.0-7.0"}}, {"uniqueid": "MTK0151:386PBUZZXG4OF6BKKZVTCKRP09GJLG", "current_trial": 86, "dateTime": 1509294414522, "trialdata": {"rt": -1, "stimulus": "<p id=\"stim\">2</p>", "key_press": -1, "trial_type": "single-stim", "trial_index": 86, "time_elapsed": 425297, "internal_node_id": "0.0-60.0-8.0"}}, {"uniqueid": "MTK0151:386PBUZZXG4OF6BKKZVTCKRP09GJLG", "current_trial": 87, "dateTime": 1509294415524, "trialdata": {"rt": -1, "stimulus": "<p id=\"stim\">1</p>", "key_press": -1, "trial_type": "single-stim", "trial_index": 87, "time_elapsed": 426299, "internal_node_id": "0.0-60.0-9.0"}}, {"uniqueid": "MTK0151:386PBUZZXG4OF6BKKZVTCKRP09GJLG", "current_trial": 88, "dateTime": 1509294417027, "trialdata": {"rt": -1, "stimulus": "<p id=\"stim\">+</p>", "key_press": -1, "type": "FIXATION", "trial_type": "single-stim", "trial_index": 88, "time_elapsed": 427801, "internal_node_id": "0.0-61.0-0.0"}}, {"uniqueid": "MTK0151:386PBUZZXG4OF6BKKZVTCKRP09GJLG", "current_trial": 89, "dateTime": 1509294418944, "trialdata": {"rt": -1000, "stimulus": "/static/audio/wordpool/BROOK.wav", "key_press": -1, "type": "PRES_AUD", "word": "brook", "wordID": 176, "conditions": [24, 800, "a", 12000], "trial": 2, "serialpos": 0, "trial_type": "single-audio", "trial_index": 89, "time_elapsed": 429719, "internal_node_id": "0.0-62.0"}}, {"uniqueid": "MTK0151:386PBUZZXG4OF6BKKZVTCKRP09GJLG", "current_trial": 90, "dateTime": 1509294420792, "trialdata": {"rt": -1000, "stimulus": "/static/audio/wordpool/TWISTER.wav", "key_press": -1, "type": "PRES_AUD", "word": "twister", "wordID": 1529, "conditions": [24, 800, "a", 12000], "trial": 2, "serialpos": 1, "trial_type": "single-audio", "trial_index": 90, "time_elapsed": 431566, "internal_node_id": "0.0-63.0"}}, {"uniqueid": "MTK0151:386PBUZZXG4OF6BKKZVTCKRP09GJLG", "current_trial": 91, "dateTime": 1509294422463, "trialdata": {"rt": -1000, "stimulus": "/static/audio/wordpool/CYCLONE.wav", "key_press": -1, "type": "PRES_AUD", "word": "cyclone", "wordID": 430, "conditions": [24, 800, "a", 12000], "trial": 2, "serialpos": 2, "trial_type": "single-audio", "trial_index": 91, "time_elapsed": 433238, "internal_node_id": "0.0-64.0"}}, {"uniqueid": "MTK0151:386PBUZZXG4OF6BKKZVTCKRP09GJLG", "current_trial": 92, "dateTime": 1509294424314, "trialdata": {"rt": -1000, "stimulus": "/static/audio/wordpool/MAILBOX.wav", "key_press": -1, "type": "PRES_AUD", "word": "mailbox", "wordID": 856, "conditions": [24, 800, "a", 12000], "trial": 2, "serialpos": 3, "trial_type": "single-audio", "trial_index": 92, "time_elapsed": 435089, "internal_node_id": "0.0-65.0"}}, {"uniqueid": "MTK0151:386PBUZZXG4OF6BKKZVTCKRP09GJLG", "current_trial": 93, "dateTime": 1509294426096, "trialdata": {"rt": -1000, "stimulus": "/static/audio/wordpool/SMOG.wav", "key_press": -1, "type": "PRES_AUD", "word": "smog", "wordID": 1329, "conditions": [24, 800, "a", 12000], "trial": 2, "serialpos": 4, "trial_type": "single-audio", "trial_index": 93, "time_elapsed": 436871, "internal_node_id": "0.0-66.0"}}, {"uniqueid": "MTK0151:386PBUZZXG4OF6BKKZVTCKRP09GJLG", "current_trial": 94, "dateTime": 1509294428023, "trialdata": {"rt": -1000, "stimulus": "/static/audio/wordpool/VAGRANT.wav", "key_press": -1, "type": "PRES_AUD", "word": "vagrant", "wordID": 1543, "conditions": [24, 800, "a", 12000], "trial": 2, "serialpos": 5, "trial_type": "single-audio", "trial_index": 94, "time_elapsed": 438798, "internal_node_id": "0.0-67.0"}}, {"uniqueid": "MTK0151:386PBUZZXG4OF6BKKZVTCKRP09GJLG", "current_trial": 95, "dateTime": 1509294429648, "trialdata": {"rt": -1000, "stimulus": "/static/audio/wordpool/CASHIER.wav", "key_press": -1, "type": "PRES_AUD", "word": "cashier", "wordID": 253, "conditions": [24, 800, "a", 12000], "trial": 2, "serialpos": 6, "trial_type": "single-audio", "trial_index": 95, "time_elapsed": 440423, "internal_node_id": "0.0-68.0"}}, {"uniqueid": "MTK0151:386PBUZZXG4OF6BKKZVTCKRP09GJLG", "current_trial": 96, "dateTime": 1509294431479, "trialdata": {"rt": -1000, "stimulus": "/static/audio/wordpool/ROBBER.wav", "key_press": -1, "type": "PRES_AUD", "word": "robber", "wordID": 1196, "conditions": [24, 800, "a", 12000], "trial": 2, "serialpos": 7, "trial_type": "single-audio", "trial_index": 96, "time_elapsed": 442254, "internal_node_id": "0.0-69.0"}}, {"uniqueid": "MTK0151:386PBUZZXG4OF6BKKZVTCKRP09GJLG", "current_trial": 97, "dateTime": 1509294433268, "trialdata": {"rt": -1000, "stimulus": "/static/audio/wordpool/BLENDER.wav", "key_press": -1, "type": "PRES_AUD", "word": "blender", "wordID": 135, "conditions": [24, 800, "a", 12000], "trial": 2, "serialpos": 8, "trial_type": "single-audio", "trial_index": 97, "time_elapsed": 444043, "internal_node_id": "0.0-70.0"}}, {"uniqueid": "MTK0151:386PBUZZXG4OF6BKKZVTCKRP09GJLG", "current_trial": 98, "dateTime": 1509294434991, "trialdata": {"rt": -1000, "stimulus": "/static/audio/wordpool/BARREL.wav", "key_press": -1, "type": "PRES_AUD", "word": "barrel", "wordID": 90, "conditions": [24, 800, "a", 12000], "trial": 2, "serialpos": 9, "trial_type": "single-audio", "trial_index": 98, "time_elapsed": 445766, "internal_node_id": "0.0-71.0"}}, {"uniqueid": "MTK0151:386PBUZZXG4OF6BKKZVTCKRP09GJLG", "current_trial": 99, "dateTime": 1509294436829, "trialdata": {"rt": -1000, "stimulus": "/static/audio/wordpool/OZONE.wav", "key_press": -1, "type": "PRES_AUD", "word": "ozone", "wordID": 995, "conditions": [24, 800, "a", 12000], "trial": 2, "serialpos": 10, "trial_type": "single-audio", "trial_index": 99, "time_elapsed": 447604, "internal_node_id": "0.0-72.0"}}, {"uniqueid": "MTK0151:386PBUZZXG4OF6BKKZVTCKRP09GJLG", "current_trial": 100, "dateTime": 1509294438817, "trialdata": {"rt": -1000, "stimulus": "/static/audio/wordpool/ANKLE.wav", "key_press": -1, "type": "PRES_AUD", "word": "ankle", "wordID": 23, "conditions": [24, 800, "a", 12000], "trial": 2, "serialpos": 11, "trial_type": "single-audio", "trial_index": 100, "time_elapsed": 449592, "internal_node_id": "0.0-73.0"}}, {"uniqueid": "MTK0151:386PBUZZXG4OF6BKKZVTCKRP09GJLG", "current_trial": 101, "dateTime": 1509294440509, "trialdata": {"rt": -1000, "stimulus": "/static/audio/wordpool/TILE.wav", "key_press": -1, "type": "PRES_AUD", "word": "tile", "wordID": 1467, "conditions": [24, 800, "a", 12000], "trial": 2, "serialpos": 12, "trial_type": "single-audio", "trial_index": 101, "time_elapsed": 451284, "internal_node_id": "0.0-74.0"}}, {"uniqueid": "MTK0151:386PBUZZXG4OF6BKKZVTCKRP09GJLG", "current_trial": 102, "dateTime": 1509294442356, "trialdata": {"rt": -1000, "stimulus": "/static/audio/wordpool/SCISSORS.wav", "key_press": -1, "type": "PRES_AUD", "word": "scissors", "wordID": 1249, "conditions": [24, 800, "a", 12000], "trial": 2, "serialpos": 13, "trial_type": "single-audio", "trial_index": 102, "time_elapsed": 453131, "internal_node_id": "0.0-75.0"}}, {"uniqueid": "MTK0151:386PBUZZXG4OF6BKKZVTCKRP09GJLG", "current_trial": 103, "dateTime": 1509294443959, "trialdata": {"rt": -1000, "stimulus": "/static/audio/wordpool/BLUEPRINT.wav", "key_press": -1, "type": "PRES_AUD", "word": "blueprint", "wordID": 141, "conditions": [24, 800, "a", 12000], "trial": 2, "serialpos": 14, "trial_type": "single-audio", "trial_index": 103, "time_elapsed": 454734, "internal_node_id": "0.0-76.0"}}, {"uniqueid": "MTK0151:386PBUZZXG4OF6BKKZVTCKRP09GJLG", "current_trial": 104, "dateTime": 1509294445698, "trialdata": {"rt": -1000, "stimulus": "/static/audio/wordpool/DRUG.wav", "key_press": -1, "type": "PRES_AUD", "word": "drug", "wordID": 500, "conditions": [24, 800, "a", 12000], "trial": 2, "serialpos": 15, "trial_type": "single-audio", "trial_index": 104, "time_elapsed": 456473, "internal_node_id": "0.0-77.0"}}, {"uniqueid": "MTK0151:386PBUZZXG4OF6BKKZVTCKRP09GJLG", "current_trial": 105, "dateTime": 1509294447573, "trialdata": {"rt": -1000, "stimulus": "/static/audio/wordpool/LILY.wav", "key_press": -1, "type": "PRES_AUD", "word": "lily", "wordID": 820, "conditions": [24, 800, "a", 12000], "trial": 2, "serialpos": 16, "trial_type": "single-audio", "trial_index": 105, "time_elapsed": 458348, "internal_node_id": "0.0-78.0"}}, {"uniqueid": "MTK0151:386PBUZZXG4OF6BKKZVTCKRP09GJLG", "current_trial": 106, "dateTime": 1509294449531, "trialdata": {"rt": -1000, "stimulus": "/static/audio/wordpool/AIRPORT.wav", "key_press": -1, "type": "PRES_AUD", "word": "airport", "wordID": 12, "conditions": [24, 800, "a", 12000], "trial": 2, "serialpos": 17, "trial_type": "single-audio", "trial_index": 106, "time_elapsed": 460306, "internal_node_id": "0.0-79.0"}}, {"uniqueid": "MTK0151:386PBUZZXG4OF6BKKZVTCKRP09GJLG", "current_trial": 107, "dateTime": 1509294451446, "trialdata": {"rt": -1000, "stimulus": "/static/audio/wordpool/GAVEL.wav", "key_press": -1, "type": "PRES_AUD", "word": "gavel", "wordID": 626, "conditions": [24, 800, "a", 12000], "trial": 2, "serialpos": 18, "trial_type": "single-audio", "trial_index": 107, "time_elapsed": 462221, "internal_node_id": "0.0-80.0"}}, {"uniqueid": "MTK0151:386PBUZZXG4OF6BKKZVTCKRP09GJLG", "current_trial": 108, "dateTime": 1509294453074, "trialdata": {"rt": -1000, "stimulus": "/static/audio/wordpool/RABBIT.wav", "key_press": -1, "type": "PRES_AUD", "word": "rabbit", "wordID": 1151, "conditions": [24, 800, "a", 12000], "trial": 2, "serialpos": 19, "trial_type": "single-audio", "trial_index": 108, "time_elapsed": 463849, "internal_node_id": "0.0-81.0"}}, {"uniqueid": "MTK0151:386PBUZZXG4OF6BKKZVTCKRP09GJLG", "current_trial": 109, "dateTime": 1509294455011, "trialdata": {"rt": -1000, "stimulus": "/static/audio/wordpool/BEAVER.wav", "key_press": -1, "type": "PRES_AUD", "word": "beaver", "wordID": 108, "conditions": [24, 800, "a", 12000], "trial": 2, "serialpos": 20, "trial_type": "single-audio", "trial_index": 109, "time_elapsed": 465786, "internal_node_id": "0.0-82.0"}}, {"uniqueid": "MTK0151:386PBUZZXG4OF6BKKZVTCKRP09GJLG", "current_trial": 110, "dateTime": 1509294456854, "trialdata": {"rt": -1000, "stimulus": "/static/audio/wordpool/SHRUB.wav", "key_press": -1, "type": "PRES_AUD", "word": "shrub", "wordID": 1298, "conditions": [24, 800, "a", 12000], "trial": 2, "serialpos": 21, "trial_type": "single-audio", "trial_index": 110, "time_elapsed": 467629, "internal_node_id": "0.0-83.0"}}, {"uniqueid": "MTK0151:386PBUZZXG4OF6BKKZVTCKRP09GJLG", "current_trial": 111, "dateTime": 1509294458722, "trialdata": {"rt": -1000, "stimulus": "/static/audio/wordpool/RIFLE.wav", "key_press": -1, "type": "PRES_AUD", "word": "rifle", "wordID": 1191, "conditions": [24, 800, "a", 12000], "trial": 2, "serialpos": 22, "trial_type": "single-audio", "trial_index": 111, "time_elapsed": 469497, "internal_node_id": "0.0-84.0"}}, {"uniqueid": "MTK0151:386PBUZZXG4OF6BKKZVTCKRP09GJLG", "current_trial": 112, "dateTime": 1509294460352, "trialdata": {"rt": -1000, "stimulus": "/static/audio/wordpool/BOUQUET.wav", "key_press": -1, "type": "PRES_AUD", "word": "bouquet", "wordID": 156, "conditions": [24, 800, "a", 12000], "trial": 2, "serialpos": 23, "trial_type": "single-audio", "trial_index": 112, "time_elapsed": 471127, "internal_node_id": "0.0-85.0"}}, {"uniqueid": "MTK0151:386PBUZZXG4OF6BKKZVTCKRP09GJLG", "current_trial": 113, "dateTime": 1509294461562, "trialdata": {"rt": -1, "stimulus": "", "key_press": -1, "type": "PRE_RECALL_DELAY", "trial_type": "single-stim", "trial_index": 113, "time_elapsed": 472337, "internal_node_id": "0.0-86.0-0.0"}}, {"uniqueid": "MTK0151:386PBUZZXG4OF6BKKZVTCKRP09GJLG", "current_trial": 114, "dateTime": 1509294462065, "trialdata": {"rt": -1000, "stimulus": "/static/audio/400Hz.wav", "key_press": -1, "type": "PRE_RECALL_ALERT", "trial_type": "single-audio", "trial_index": 114, "time_elapsed": 472839, "internal_node_id": "0.0-87.0"}}, {"uniqueid": "MTK0151:386PBUZZXG4OF6BKKZVTCKRP09GJLG", "current_trial": 115, "dateTime": 1509294522075, "trialdata": {"rt": [2274, 4338, 6444, 9919, 12310, 17578, 20292, 26162, 28983, 32811, 45566, 55211], "recwords": ["rifle", "shrub", "beaver", "rabbit", "cyclone", "twister", "brook", "blender", "blueprint", "boquet", "ankle", "scissors"], "type": "FREE_RECALL", "conditions": [24, 800, "a", 12000], "trial": 2, "trial_type": "free-recall", "trial_index": 115, "time_elapsed": 532844, "internal_node_id": "0.0-88.0-0.0"}}, {"uniqueid": "MTK0151:386PBUZZXG4OF6BKKZVTCKRP09GJLG", "current_trial": 116, "dateTime": 1509294524980, "trialdata": {"rt": 903, "key_press": 32, "type": "INSTRUCTIONS", "trial_type": "text", "trial_index": 116, "time_elapsed": 535754, "internal_node_id": "0.0-89.0"}}, {"uniqueid": "MTK0151:386PBUZZXG4OF6BKKZVTCKRP09GJLG", "current_trial": 117, "dateTime": 1509294550983, "trialdata": {"rt": [2598, 5522, 7983, 11170, 14408, 17439, 21042, 23269], "responses": ["7", "17", "16", "9", "17", "22", "19", "17"], "num1": [4, 1, 1, 3, 4, 8, 9, 4, 8], "num2": [1, 8, 8, 5, 9, 8, 7, 6, 8], "num3": [2, 8, 7, 1, 4, 6, 3, 7, 6], "type": "DISTRACTOR", "conditions": [12, 800, "v", 24000], "trial": 3, "trial_type": "math-distractor", "trial_index": 117, "time_elapsed": 561758, "internal_node_id": "0.0-90.0"}}, {"uniqueid": "MTK0151:386PBUZZXG4OF6BKKZVTCKRP09GJLG", "current_trial": 118, "dateTime": 1509294553986, "trialdata": {"rt": -1, "stimulus": "<p id=\"stim\">10</p>", "key_press": -1, "trial_type": "single-stim", "trial_index": 118, "time_elapsed": 564760, "internal_node_id": "0.0-91.0-0.0"}}, {"uniqueid": "MTK0151:386PBUZZXG4OF6BKKZVTCKRP09GJLG", "current_trial": 119, "dateTime": 1509294554987, "trialdata": {"rt": -1, "stimulus": "<p id=\"stim\">9</p>", "key_press": -1, "trial_type": "single-stim", "trial_index": 119, "time_elapsed": 565762, "internal_node_id": "0.0-91.0-1.0"}}, {"uniqueid": "MTK0151:386PBUZZXG4OF6BKKZVTCKRP09GJLG", "current_trial": 120, "dateTime": 1509294555989, "trialdata": {"rt": -1, "stimulus": "<p id=\"stim\">8</p>", "key_press": -1, "trial_type": "single-stim", "trial_index": 120, "time_elapsed": 566763, "internal_node_id": "0.0-91.0-2.0"}}, {"uniqueid": "MTK0151:386PBUZZXG4OF6BKKZVTCKRP09GJLG", "current_trial": 121, "dateTime": 1509294556990, "trialdata": {"rt": -1, "stimulus": "<p id=\"stim\">7</p>", "key_press": -1, "trial_type": "single-stim", "trial_index": 121, "time_elapsed": 567765, "internal_node_id": "0.0-91.0-3.0"}}, {"uniqueid": "MTK0151:386PBUZZXG4OF6BKKZVTCKRP09GJLG", "current_trial": 122, "dateTime": 1509294557993, "trialdata": {"rt": -1, "stimulus": "<p id=\"stim\">6</p>", "key_press": -1, "trial_type": "single-stim", "trial_index": 122, "time_elapsed": 568768, "internal_node_id": "0.0-91.0-4.0"}}, {"uniqueid": "MTK0151:386PBUZZXG4OF6BKKZVTCKRP09GJLG", "current_trial": 123, "dateTime": 1509294558995, "trialdata": {"rt": -1, "stimulus": "<p id=\"stim\">5</p>", "key_press": -1, "trial_type": "single-stim", "trial_index": 123, "time_elapsed": 569769, "internal_node_id": "0.0-91.0-5.0"}}, {"uniqueid": "MTK0151:386PBUZZXG4OF6BKKZVTCKRP09GJLG", "current_trial": 124, "dateTime": 1509294559997, "trialdata": {"rt": -1, "stimulus": "<p id=\"stim\">4</p>", "key_press": -1, "trial_type": "single-stim", "trial_index": 124, "time_elapsed": 570771, "internal_node_id": "0.0-91.0-6.0"}}, {"uniqueid": "MTK0151:386PBUZZXG4OF6BKKZVTCKRP09GJLG", "current_trial": 125, "dateTime": 1509294560998, "trialdata": {"rt": -1, "stimulus": "<p id=\"stim\">3</p>", "key_press": -1, "trial_type": "single-stim", "trial_index": 125, "time_elapsed": 571773, "internal_node_id": "0.0-91.0-7.0"}}, {"uniqueid": "MTK0151:386PBUZZXG4OF6BKKZVTCKRP09GJLG", "current_trial": 126, "dateTime": 1509294562001, "trialdata": {"rt": -1, "stimulus": "<p id=\"stim\">2</p>", "key_press": -1, "trial_type": "single-stim", "trial_index": 126, "time_elapsed": 572775, "internal_node_id": "0.0-91.0-8.0"}}, {"uniqueid": "MTK0151:386PBUZZXG4OF6BKKZVTCKRP09GJLG", "current_trial": 127, "dateTime": 1509294563004, "trialdata": {"rt": -1, "stimulus": "<p id=\"stim\">1</p>", "key_press": -1, "trial_type": "single-stim", "trial_index": 127, "time_elapsed": 573778, "internal_node_id": "0.0-91.0-9.0"}}, {"uniqueid": "MTK0151:386PBUZZXG4OF6BKKZVTCKRP09GJLG", "current_trial": 128, "dateTime": 1509294564506, "trialdata": {"rt": -1, "stimulus": "<p id=\"stim\">+</p>", "key_press": -1, "type": "FIXATION", "trial_type": "single-stim", "trial_index": 128, "time_elapsed": 575281, "internal_node_id": "0.0-92.0-0.0"}}, {"uniqueid": "MTK0151:386PBUZZXG4OF6BKKZVTCKRP09GJLG", "current_trial": 129, "dateTime": 1509294565309, "trialdata": {"rt": -1, "stimulus": "<p id=\"stim\">JELLY</p>", "key_press": -1, "type": "PRES_VIS", "word": "jelly", "wordID": 754, "conditions": [12, 800, "v", 24000], "trial": 3, "serialpos": 0, "trial_type": "single-stim", "trial_index": 129, "time_elapsed": 576083, "internal_node_id": "0.0-93.0"}}, {"uniqueid": "MTK0151:386PBUZZXG4OF6BKKZVTCKRP09GJLG", "current_trial": 130, "dateTime": 1509294567084, "trialdata": {"rt": -1, "stimulus": "<p id=\"stim\">PASTA</p>", "key_press": -1, "type": "PRES_VIS", "word": "pasta", "wordID": 1020, "conditions": [12, 800, "v", 24000], "trial": 3, "serialpos": 1, "trial_type": "single-stim", "trial_index": 130, "time_elapsed": 577859, "internal_node_id": "0.0-94.0"}}, {"uniqueid": "MTK0151:386PBUZZXG4OF6BKKZVTCKRP09GJLG", "current_trial": 131, "dateTime": 1509294568938, "trialdata": {"rt": -1, "stimulus": "<p id=\"stim\">WIDOW</p>", "key_press": -1, "type": "PRES_VIS", "word": "widow", "wordID": 1607, "conditions": [12, 800, "v", 24000], "trial": 3, "serialpos": 2, "trial_type": "single-stim", "trial_index": 131, "time_elapsed": 579713, "internal_node_id": "0.0-95.0"}}, {"uniqueid": "MTK0151:386PBUZZXG4OF6BKKZVTCKRP09GJLG", "current_trial": 132, "dateTime": 1509294570565, "trialdata": {"rt": -1, "stimulus": "<p id=\"stim\">PIMPLE</p>", "key_press": -1, "type": "PRES_VIS", "word": "pimple", "wordID": 1070, "conditions": [12, 800, "v", 24000], "trial": 3, "serialpos": 3, "trial_type": "single-stim", "trial_index": 132, "time_elapsed": 581340, "internal_node_id": "0.0-96.0"}}, {"uniqueid": "MTK0151:386PBUZZXG4OF6BKKZVTCKRP09GJLG", "current_trial": 133, "dateTime": 1509294572353, "trialdata": {"rt": -1, "stimulus": "<p id=\"stim\">PUDDING</p>", "key_press": -1, "type": "PRES_VIS", "word": "pudding", "wordID": 1138, "conditions": [12, 800, "v", 24000], "trial": 3, "serialpos": 4, "trial_type": "single-stim", "trial_index": 133, "time_elapsed": 583127, "internal_node_id": "0.0-97.0"}}, {"uniqueid": "MTK0151:386PBUZZXG4OF6BKKZVTCKRP09GJLG", "current_trial": 134, "dateTime": 1509294574013, "trialdata": {"rt": -1, "stimulus": "<p id=\"stim\">WRIST</p>", "key_press": -1, "type": "PRES_VIS", "word": "wrist", "wordID": 1625, "conditions": [12, 800, "v", 24000], "trial": 3, "serialpos": 5, "trial_type": "single-stim", "trial_index": 134, "time_elapsed": 584787, "internal_node_id": "0.0-98.0"}}, {"uniqueid": "MTK0151:386PBUZZXG4OF6BKKZVTCKRP09GJLG", "current_trial": 135, "dateTime": 1509294575902, "trialdata": {"rt": -1, "stimulus": "<p id=\"stim\">FINGER</p>", "key_press": -1, "type": "PRES_VIS", "word": "finger", "wordID": 566, "conditions": [12, 800, "v", 24000], "trial": 3, "serialpos": 6, "trial_type": "single-stim", "trial_index": 135, "time_elapsed": 586676, "internal_node_id": "0.0-99.0"}}, {"uniqueid": "MTK0151:386PBUZZXG4OF6BKKZVTCKRP09GJLG", "current_trial": 136, "dateTime": 1509294577771, "trialdata": {"rt": -1, "stimulus": "<p id=\"stim\">BIKE</p>", "key_press": -1, "type": "PRES_VIS", "word": "bike", "wordID": 124, "conditions": [12, 800, "v", 24000], "trial": 3, "serialpos": 7, "trial_type": "single-stim", "trial_index": 136, "time_elapsed": 588546, "internal_node_id": "0.0-100.0"}}, {"uniqueid": "MTK0151:386PBUZZXG4OF6BKKZVTCKRP09GJLG", "current_trial": 137, "dateTime": 1509294579487, "trialdata": {"rt": -1, "stimulus": "<p id=\"stim\">SIDEWALK</p>", "key_press": -1, "type": "PRES_VIS", "word": "sidewalk", "wordID": 1302, "conditions": [12, 800, "v", 24000], "trial": 3, "serialpos": 8, "trial_type": "single-stim", "trial_index": 137, "time_elapsed": 590261, "internal_node_id": "0.0-101.0"}}, {"uniqueid": "MTK0151:386PBUZZXG4OF6BKKZVTCKRP09GJLG", "current_trial": 138, "dateTime": 1509294581113, "trialdata": {"rt": -1, "stimulus": "<p id=\"stim\">DUST</p>", "key_press": -1, "type": "PRES_VIS", "word": "dust", "wordID": 507, "conditions": [12, 800, "v", 24000], "trial": 3, "serialpos": 9, "trial_type": "single-stim", "trial_index": 138, "time_elapsed": 591887, "internal_node_id": "0.0-102.0"}}, {"uniqueid": "MTK0151:386PBUZZXG4OF6BKKZVTCKRP09GJLG", "current_trial": 139, "dateTime": 1509294583007, "trialdata": {"rt": -1, "stimulus": "<p id=\"stim\">TART</p>", "key_press": -1, "type": "PRES_VIS", "word": "tart", "wordID": 1435, "conditions": [12, 800, "v", 24000], "trial": 3, "serialpos": 10, "trial_type": "single-stim", "trial_index": 139, "time_elapsed": 593781, "internal_node_id": "0.0-103.0"}}, {"uniqueid": "MTK0151:386PBUZZXG4OF6BKKZVTCKRP09GJLG", "current_trial": 140, "dateTime": 1509294584758, "trialdata": {"rt": -1, "stimulus": "<p id=\"stim\">JELLO</p>", "key_press": -1, "type": "PRES_VIS", "word": "jello", "wordID": 753, "conditions": [12, 800, "v", 24000], "trial": 3, "serialpos": 11, "trial_type": "single-stim", "trial_index": 140, "time_elapsed": 595532, "internal_node_id": "0.0-104.0"}}, {"uniqueid": "MTK0151:386PBUZZXG4OF6BKKZVTCKRP09GJLG", "current_trial": 141, "dateTime": 1509294587073, "trialdata": {"rt": -1, "stimulus": "", "key_press": -1, "type": "PRE_RECALL_DELAY", "trial_type": "single-stim", "trial_index": 141, "time_elapsed": 597847, "internal_node_id": "0.0-105.0-0.0"}}, {"uniqueid": "MTK0151:386PBUZZXG4OF6BKKZVTCKRP09GJLG", "current_trial": 142, "dateTime": 1509294587575, "trialdata": {"rt": -1000, "stimulus": "/static/audio/400Hz.wav", "key_press": -1, "type": "PRE_RECALL_ALERT", "trial_type": "single-audio", "trial_index": 142, "time_elapsed": 598350, "internal_node_id": "0.0-106.0"}}, {"uniqueid": "MTK0151:386PBUZZXG4OF6BKKZVTCKRP09GJLG", "current_trial": 143, "dateTime": 1509294647585, "trialdata": {"rt": [4309, 7528, 9328, 11091, 12969, 17564], "recwords": ["jello", "jelly", "tart", "wrist", "finger", "pudding"], "type": "FREE_RECALL", "conditions": [12, 800, "v", 24000], "trial": 3, "trial_type": "free-recall", "trial_index": 143, "time_elapsed": 658354, "internal_node_id": "0.0-107.0-0.0"}}, {"uniqueid": "MTK0151:386PBUZZXG4OF6BKKZVTCKRP09GJLG", "current_trial": 144, "dateTime": 1509294758649, "trialdata": {"rt": 109062, "key_press": 32, "type": "INSTRUCTIONS", "trial_type": "text", "trial_index": 144, "time_elapsed": 769423, "internal_node_id": "0.0-108.0"}}, {"uniqueid": "MTK0151:386PBUZZXG4OF6BKKZVTCKRP09GJLG", "current_trial": 145, "dateTime": 1509294772655, "trialdata": {"rt": [4697, 7378, 11244], "responses": ["1", "19", "16"], "num1": [8, 1, 2, 2], "num2": [3, 9, 6, 2], "num3": [3, 9, 8, 7], "type": "DISTRACTOR", "conditions": [24, 800, "v", 12000], "trial": 4, "trial_type": "math-distractor", "trial_index": 145, "time_elapsed": 783429, "internal_node_id": "0.0-109.0"}}, {"uniqueid": "MTK0151:386PBUZZXG4OF6BKKZVTCKRP09GJLG", "current_trial": 146, "dateTime": 1509294775656, "trialdata": {"rt": -1, "stimulus": "<p id=\"stim\">10</p>", "key_press": -1, "trial_type": "single-stim", "trial_index": 146, "time_elapsed": 786431, "internal_node_id": "0.0-110.0-0.0"}}, {"uniqueid": "MTK0151:386PBUZZXG4OF6BKKZVTCKRP09GJLG", "current_trial": 147, "dateTime": 1509294776659, "trialdata": {"rt": -1, "stimulus": "<p id=\"stim\">9</p>", "key_press": -1, "trial_type": "single-stim", "trial_index": 147, "time_elapsed": 787433, "internal_node_id": "0.0-110.0-1.0"}}, {"uniqueid": "MTK0151:386PBUZZXG4OF6BKKZVTCKRP09GJLG", "current_trial": 148, "dateTime": 1509294777661, "trialdata": {"rt": -1, "stimulus": "<p id=\"stim\">8</p>", "key_press": -1, "trial_type": "single-stim", "trial_index": 148, "time_elapsed": 788435, "internal_node_id": "0.0-110.0-2.0"}}, {"uniqueid": "MTK0151:386PBUZZXG4OF6BKKZVTCKRP09GJLG", "current_trial": 149, "dateTime": 1509294778662, "trialdata": {"rt": -1, "stimulus": "<p id=\"stim\">7</p>", "key_press": -1, "trial_type": "single-stim", "trial_index": 149, "time_elapsed": 789436, "internal_node_id": "0.0-110.0-3.0"}}, {"uniqueid": "MTK0151:386PBUZZXG4OF6BKKZVTCKRP09GJLG", "current_trial": 150, "dateTime": 1509294779664, "trialdata": {"rt": -1, "stimulus": "<p id=\"stim\">6</p>", "key_press": -1, "trial_type": "single-stim", "trial_index": 150, "time_elapsed": 790438, "internal_node_id": "0.0-110.0-4.0"}}, {"uniqueid": "MTK0151:386PBUZZXG4OF6BKKZVTCKRP09GJLG", "current_trial": 151, "dateTime": 1509294780666, "trialdata": {"rt": -1, "stimulus": "<p id=\"stim\">5</p>", "key_press": -1, "trial_type": "single-stim", "trial_index": 151, "time_elapsed": 791440, "internal_node_id": "0.0-110.0-5.0"}}, {"uniqueid": "MTK0151:386PBUZZXG4OF6BKKZVTCKRP09GJLG", "current_trial": 152, "dateTime": 1509294781667, "trialdata": {"rt": -1, "stimulus": "<p id=\"stim\">4</p>", "key_press": -1, "trial_type": "single-stim", "trial_index": 152, "time_elapsed": 792441, "internal_node_id": "0.0-110.0-6.0"}}, {"uniqueid": "MTK0151:386PBUZZXG4OF6BKKZVTCKRP09GJLG", "current_trial": 153, "dateTime": 1509294782669, "trialdata": {"rt": -1, "stimulus": "<p id=\"stim\">3</p>", "key_press": -1, "trial_type": "single-stim", "trial_index": 153, "time_elapsed": 793443, "internal_node_id": "0.0-110.0-7.0"}}, {"uniqueid": "MTK0151:386PBUZZXG4OF6BKKZVTCKRP09GJLG", "current_trial": 154, "dateTime": 1509294783670, "trialdata": {"rt": -1, "stimulus": "<p id=\"stim\">2</p>", "key_press": -1, "trial_type": "single-stim", "trial_index": 154, "time_elapsed": 794445, "internal_node_id": "0.0-110.0-8.0"}}, {"uniqueid": "MTK0151:386PBUZZXG4OF6BKKZVTCKRP09GJLG", "current_trial": 155, "dateTime": 1509294784673, "trialdata": {"rt": -1, "stimulus": "<p id=\"stim\">1</p>", "key_press": -1, "trial_type": "single-stim", "trial_index": 155, "time_elapsed": 795447, "internal_node_id": "0.0-110.0-9.0"}}, {"uniqueid": "MTK0151:386PBUZZXG4OF6BKKZVTCKRP09GJLG", "current_trial": 156, "dateTime": 1509294786174, "trialdata": {"rt": -1, "stimulus": "<p id=\"stim\">+</p>", "key_press": -1, "type": "FIXATION", "trial_type": "single-stim", "trial_index": 156, "time_elapsed": 796949, "internal_node_id": "0.0-111.0-0.0"}}, {"uniqueid": "MTK0151:386PBUZZXG4OF6BKKZVTCKRP09GJLG", "current_trial": 157, "dateTime": 1509294786976, "trialdata": {"rt": -1, "stimulus": "<p id=\"stim\">NURSE</p>", "key_press": -1, "type": "PRES_VIS", "word": "nurse", "wordID": 962, "conditions": [24, 800, "v", 12000], "trial": 4, "serialpos": 0, "trial_type": "single-stim", "trial_index": 157, "time_elapsed": 797750, "internal_node_id": "0.0-112.0"}}, {"uniqueid": "MTK0151:386PBUZZXG4OF6BKKZVTCKRP09GJLG", "current_trial": 158, "dateTime": 1509294788766, "trialdata": {"rt": -1, "stimulus": "<p id=\"stim\">PRINCESS</p>", "key_press": -1, "type": "PRES_VIS", "word": "princess", "wordID": 1124, "conditions": [24, 800, "v", 12000], "trial": 4, "serialpos": 1, "trial_type": "single-stim", "trial_index": 158, "time_elapsed": 799540, "internal_node_id": "0.0-113.0"}}, {"uniqueid": "MTK0151:386PBUZZXG4OF6BKKZVTCKRP09GJLG", "current_trial": 159, "dateTime": 1509294790727, "trialdata": {"rt": -1, "stimulus": "<p id=\"stim\">COUNTY</p>", "key_press": -1, "type": "PRES_VIS", "word": "county", "wordID": 388, "conditions": [24, 800, "v", 12000], "trial": 4, "serialpos": 2, "trial_type": "single-stim", "trial_index": 159, "time_elapsed": 801501, "internal_node_id": "0.0-114.0"}}, {"uniqueid": "MTK0151:386PBUZZXG4OF6BKKZVTCKRP09GJLG", "current_trial": 160, "dateTime": 1509294792668, "trialdata": {"rt": -1, "stimulus": "<p id=\"stim\">SHERIFF</p>", "key_press": -1, "type": "PRES_VIS", "word": "sheriff", "wordID": 1283, "conditions": [24, 800, "v", 12000], "trial": 4, "serialpos": 3, "trial_type": "single-stim", "trial_index": 160, "time_elapsed": 803442, "internal_node_id": "0.0-115.0"}}, {"uniqueid": "MTK0151:386PBUZZXG4OF6BKKZVTCKRP09GJLG", "current_trial": 161, "dateTime": 1509294794346, "trialdata": {"rt": -1, "stimulus": "<p id=\"stim\">PATIENT</p>", "key_press": -1, "type": "PRES_VIS", "word": "patient", "wordID": 1023, "conditions": [24, 800, "v", 12000], "trial": 4, "serialpos": 4, "trial_type": "single-stim", "trial_index": 161, "time_elapsed": 805120, "internal_node_id": "0.0-116.0"}}, {"uniqueid": "MTK0151:386PBUZZXG4OF6BKKZVTCKRP09GJLG", "current_trial": 162, "dateTime": 1509294796180, "trialdata": {"rt": -1, "stimulus": "<p id=\"stim\">MAMMAL</p>", "key_press": -1, "type": "PRES_VIS", "word": "mammal", "wordID": 860, "conditions": [24, 800, "v", 12000], "trial": 4, "serialpos": 5, "trial_type": "single-stim", "trial_index": 162, "time_elapsed": 806955, "internal_node_id": "0.0-117.0"}}, {"uniqueid": "MTK0151:386PBUZZXG4OF6BKKZVTCKRP09GJLG", "current_trial": 163, "dateTime": 1509294797860, "trialdata": {"rt": -1, "stimulus": "<p id=\"stim\">CAPTIVE</p>", "key_press": -1, "type": "PRES_VIS", "word": "captive", "wordID": 239, "conditions": [24, 800, "v", 12000], "trial": 4, "serialpos": 6, "trial_type": "single-stim", "trial_index": 163, "time_elapsed": 808634, "internal_node_id": "0.0-118.0"}}, {"uniqueid": "MTK0151:386PBUZZXG4OF6BKKZVTCKRP09GJLG", "current_trial": 164, "dateTime": 1509294799731, "trialdata": {"rt": -1, "stimulus": "<p id=\"stim\">MISTER</p>", "key_press": -1, "type": "PRES_VIS", "word": "mister", "wordID": 900, "conditions": [24, 800, "v", 12000], "trial": 4, "serialpos": 7, "trial_type": "single-stim", "trial_index": 164, "time_elapsed": 810506, "internal_node_id": "0.0-119.0"}}, {"uniqueid": "MTK0151:386PBUZZXG4OF6BKKZVTCKRP09GJLG", "current_trial": 165, "dateTime": 1509294801672, "trialdata": {"rt": -1, "stimulus": "<p id=\"stim\">SUNSET</p>", "key_press": -1, "type": "PRES_VIS", "word": "sunset", "wordID": 1407, "conditions": [24, 800, "v", 12000], "trial": 4, "serialpos": 8, "trial_type": "single-stim", "trial_index": 165, "time_elapsed": 812446, "internal_node_id": "0.0-120.0"}}, {"uniqueid": "MTK0151:386PBUZZXG4OF6BKKZVTCKRP09GJLG", "current_trial": 166, "dateTime": 1509294803506, "trialdata": {"rt": -1, "stimulus": "<p id=\"stim\">ARMY</p>", "key_press": -1, "type": "PRES_VIS", "word": "army", "wordID": 38, "conditions": [24, 800, "v", 12000], "trial": 4, "serialpos": 9, "trial_type": "single-stim", "trial_index": 166, "time_elapsed": 814278, "internal_node_id": "0.0-121.0"}}, {"uniqueid": "MTK0151:386PBUZZXG4OF6BKKZVTCKRP09GJLG", "current_trial": 167, "dateTime": 1509294805140, "trialdata": {"rt": -1, "stimulus": "<p id=\"stim\">TRACTOR</p>", "key_press": -1, "type": "PRES_VIS", "word": "tractor", "wordID": 1492, "conditions": [24, 800, "v", 12000], "trial": 4, "serialpos": 10, "trial_type": "single-stim", "trial_index": 167, "time_elapsed": 815914, "internal_node_id": "0.0-122.0"}}, {"uniqueid": "MTK0151:386PBUZZXG4OF6BKKZVTCKRP09GJLG", "current_trial": 168, "dateTime": 1509294806938, "trialdata": {"rt": -1, "stimulus": "<p id=\"stim\">GARDEN</p>", "key_press": -1, "type": "PRES_VIS", "word": "garden", "wordID": 622, "conditions": [24, 800, "v", 12000], "trial": 4, "serialpos": 11, "trial_type": "single-stim", "trial_index": 168, "time_elapsed": 817712, "internal_node_id": "0.0-123.0"}}, {"uniqueid": "MTK0151:386PBUZZXG4OF6BKKZVTCKRP09GJLG", "current_trial": 169, "dateTime": 1509294808614, "trialdata": {"rt": -1, "stimulus": "<p id=\"stim\">HEDGE</p>", "key_press": -1, "type": "PRES_VIS", "word": "hedge", "wordID": 698, "conditions": [24, 800, "v", 12000], "trial": 4, "serialpos": 12, "trial_type": "single-stim", "trial_index": 169, "time_elapsed": 819389, "internal_node_id": "0.0-124.0"}}, {"uniqueid": "MTK0151:386PBUZZXG4OF6BKKZVTCKRP09GJLG", "current_trial": 170, "dateTime": 1509294810342, "trialdata": {"rt": -1, "stimulus": "<p id=\"stim\">QUAIL</p>", "key_press": -1, "type": "PRES_VIS", "word": "quail", "wordID": 1146, "conditions": [24, 800, "v", 12000], "trial": 4, "serialpos": 13, "trial_type": "single-stim", "trial_index": 170, "time_elapsed": 821117, "internal_node_id": "0.0-125.0"}}, {"uniqueid": "MTK0151:386PBUZZXG4OF6BKKZVTCKRP09GJLG", "current_trial": 171, "dateTime": 1509294812225, "trialdata": {"rt": -1, "stimulus": "<p id=\"stim\">BASEMENT</p>", "key_press": -1, "type": "PRES_VIS", "word": "basement", "wordID": 93, "conditions": [24, 800, "v", 12000], "trial": 4, "serialpos": 14, "trial_type": "single-stim", "trial_index": 171, "time_elapsed": 822999, "internal_node_id": "0.0-126.0"}}, {"uniqueid": "MTK0151:386PBUZZXG4OF6BKKZVTCKRP09GJLG", "current_trial": 172, "dateTime": 1509294813982, "trialdata": {"rt": -1, "stimulus": "<p id=\"stim\">RACKET</p>", "key_press": -1, "type": "PRES_VIS", "word": "racket", "wordID": 1154, "conditions": [24, 800, "v", 12000], "trial": 4, "serialpos": 15, "trial_type": "single-stim", "trial_index": 172, "time_elapsed": 824756, "internal_node_id": "0.0-127.0"}}, {"uniqueid": "MTK0151:386PBUZZXG4OF6BKKZVTCKRP09GJLG", "current_trial": 173, "dateTime": 1509294815735, "trialdata": {"rt": -1, "stimulus": "<p id=\"stim\">PEBBLE</p>", "key_press": -1, "type": "PRES_VIS", "word": "pebble", "wordID": 1034, "conditions": [24, 800, "v", 12000], "trial": 4, "serialpos": 16, "trial_type": "single-stim", "trial_index": 173, "time_elapsed": 826510, "internal_node_id": "0.0-128.0"}}, {"uniqueid": "MTK0151:386PBUZZXG4OF6BKKZVTCKRP09GJLG", "current_trial": 174, "dateTime": 1509294817668, "trialdata": {"rt": -1, "stimulus": "<p id=\"stim\">FOREHEAD</p>", "key_press": -1, "type": "PRES_VIS", "word": "forehead", "wordID": 591, "conditions": [24, 800, "v", 12000], "trial": 4, "serialpos": 17, "trial_type": "single-stim", "trial_index": 174, "time_elapsed": 828442, "internal_node_id": "0.0-129.0"}}, {"uniqueid": "MTK0151:386PBUZZXG4OF6BKKZVTCKRP09GJLG", "current_trial": 175, "dateTime": 1509294819495, "trialdata": {"rt": -1, "stimulus": "<p id=\"stim\">SALAD</p>", "key_press": -1, "type": "PRES_VIS", "word": "salad", "wordID": 1223, "conditions": [24, 800, "v", 12000], "trial": 4, "serialpos": 18, "trial_type": "single-stim", "trial_index": 175, "time_elapsed": 830269, "internal_node_id": "0.0-130.0"}}, {"uniqueid": "MTK0151:386PBUZZXG4OF6BKKZVTCKRP09GJLG", "current_trial": 176, "dateTime": 1509294821285, "trialdata": {"rt": -1, "stimulus": "<p id=\"stim\">OMELET</p>", "key_press": -1, "type": "PRES_VIS", "word": "omelet", "wordID": 975, "conditions": [24, 800, "v", 12000], "trial": 4, "serialpos": 19, "trial_type": "single-stim", "trial_index": 176, "time_elapsed": 832060, "internal_node_id": "0.0-131.0"}}, {"uniqueid": "MTK0151:386PBUZZXG4OF6BKKZVTCKRP09GJLG", "current_trial": 177, "dateTime": 1509294823036, "trialdata": {"rt": -1, "stimulus": "<p id=\"stim\">STOVE</p>", "key_press": -1, "type": "PRES_VIS", "word": "stove", "wordID": 1387, "conditions": [24, 800, "v", 12000], "trial": 4, "serialpos": 20, "trial_type": "single-stim", "trial_index": 177, "time_elapsed": 833810, "internal_node_id": "0.0-132.0"}}, {"uniqueid": "MTK0151:386PBUZZXG4OF6BKKZVTCKRP09GJLG", "current_trial": 178, "dateTime": 1509294824657, "trialdata": {"rt": -1, "stimulus": "<p id=\"stim\">BURGLAR</p>", "key_press": -1, "type": "PRES_VIS", "word": "burglar", "wordID": 199, "conditions": [24, 800, "v", 12000], "trial": 4, "serialpos": 21, "trial_type": "single-stim", "trial_index": 178, "time_elapsed": 835432, "internal_node_id": "0.0-133.0"}}, {"uniqueid": "MTK0151:386PBUZZXG4OF6BKKZVTCKRP09GJLG", "current_trial": 179, "dateTime": 1509294826578, "trialdata": {"rt": -1, "stimulus": "<p id=\"stim\">CHEST</p>", "key_press": -1, "type": "PRES_VIS", "word": "chest", "wordID": 294, "conditions": [24, 800, "v", 12000], "trial": 4, "serialpos": 22, "trial_type": "single-stim", "trial_index": 179, "time_elapsed": 837352, "internal_node_id": "0.0-134.0"}}, {"uniqueid": "MTK0151:386PBUZZXG4OF6BKKZVTCKRP09GJLG", "current_trial": 180, "dateTime": 1509294828201, "trialdata": {"rt": -1, "stimulus": "<p id=\"stim\">PUDDLE</p>", "key_press": -1, "type": "PRES_VIS", "word": "puddle", "wordID": 1139, "conditions": [24, 800, "v", 12000], "trial": 4, "serialpos": 23, "trial_type": "single-stim", "trial_index": 180, "time_elapsed": 838975, "internal_node_id": "0.0-135.0"}}, {"uniqueid": "MTK0151:386PBUZZXG4OF6BKKZVTCKRP09GJLG", "current_trial": 181, "dateTime": 1509294830599, "trialdata": {"rt": -1, "stimulus": "", "key_press": -1, "type": "PRE_RECALL_DELAY", "trial_type": "single-stim", "trial_index": 181, "time_elapsed": 841373, "internal_node_id": "0.0-136.0-0.0"}}, {"uniqueid": "MTK0151:386PBUZZXG4OF6BKKZVTCKRP09GJLG", "current_trial": 182, "dateTime": 1509294831100, "trialdata": {"rt": -1000, "stimulus": "/static/audio/400Hz.wav", "key_press": -1, "type": "PRE_RECALL_ALERT", "trial_type": "single-audio", "trial_index": 182, "time_elapsed": 841875, "internal_node_id": "0.0-137.0"}}, {"uniqueid": "MTK0151:386PBUZZXG4OF6BKKZVTCKRP09GJLG", "current_trial": 183, "dateTime": 1509294891110, "trialdata": {"rt": [2049, 4873, 8317, 11408, 14255, 16831, 27988, 30339, 36752], "recwords": ["chest", "puddle", "burgler", "sheriff", "nusrse", "stove", "sunset", "omelet", "county"], "type": "FREE_RECALL", "conditions": [24, 800, "v", 12000], "trial": 4, "trial_type": "free-recall", "trial_index": 183, "time_elapsed": 901879, "internal_node_id": "0.0-138.0-0.0"}}, {"uniqueid": "MTK0151:386PBUZZXG4OF6BKKZVTCKRP09GJLG", "current_trial": 184, "dateTime": 1509294893922, "trialdata": {"rt": 810, "key_press": 32, "type": "INSTRUCTIONS", "trial_type": "text", "trial_index": 184, "time_elapsed": 904697, "internal_node_id": "0.0-139.0"}}, {"uniqueid": "MTK0151:386PBUZZXG4OF6BKKZVTCKRP09GJLG", "current_trial": 185, "dateTime": 1509294919928, "trialdata": {"rt": [2615, 5398, 7525, 10105, 13575, 16297, 21980], "responses": ["15", "16", "19", "1", "10", "14", "24"], "num1": [2, 1, 5, 2, 4, 4, 9, 3], "num2": [9, 6, 5, 5, 5, 2, 9, 2], "num3": [4, 9, 9, 6, 1, 8, 6, 1], "type": "DISTRACTOR", "conditions": [12, 800, "a", 24000], "trial": 5, "trial_type": "math-distractor", "trial_index": 185, "time_elapsed": 930703, "internal_node_id": "0.0-140.0"}}, {"uniqueid": "MTK0151:386PBUZZXG4OF6BKKZVTCKRP09GJLG", "current_trial": 186, "dateTime": 1509294922933, "trialdata": {"rt": -1, "stimulus": "<p id=\"stim\">10</p>", "key_press": -1, "trial_type": "single-stim", "trial_index": 186, "time_elapsed": 933707, "internal_node_id": "0.0-141.0-0.0"}}, {"uniqueid": "MTK0151:386PBUZZXG4OF6BKKZVTCKRP09GJLG", "current_trial": 187, "dateTime": 1509294923935, "trialdata": {"rt": -1, "stimulus": "<p id=\"stim\">9</p>", "key_press": -1, "trial_type": "single-stim", "trial_index": 187, "time_elapsed": 934710, "internal_node_id": "0.0-141.0-1.0"}}, {"uniqueid": "MTK0151:386PBUZZXG4OF6BKKZVTCKRP09GJLG", "current_trial": 188, "dateTime": 1509294924937, "trialdata": {"rt": -1, "stimulus": "<p id=\"stim\">8</p>", "key_press": -1, "trial_type": "single-stim", "trial_index": 188, "time_elapsed": 935712, "internal_node_id": "0.0-141.0-2.0"}}, {"uniqueid": "MTK0151:386PBUZZXG4OF6BKKZVTCKRP09GJLG", "current_trial": 189, "dateTime": 1509294925939, "trialdata": {"rt": -1, "stimulus": "<p id=\"stim\">7</p>", "key_press": -1, "trial_type": "single-stim", "trial_index": 189, "time_elapsed": 936713, "internal_node_id": "0.0-141.0-3.0"}}, {"uniqueid": "MTK0151:386PBUZZXG4OF6BKKZVTCKRP09GJLG", "current_trial": 190, "dateTime": 1509294926939, "trialdata": {"rt": -1, "stimulus": "<p id=\"stim\">6</p>", "key_press": -1, "trial_type": "single-stim", "trial_index": 190, "time_elapsed": 937714, "internal_node_id": "0.0-141.0-4.0"}}, {"uniqueid": "MTK0151:386PBUZZXG4OF6BKKZVTCKRP09GJLG", "current_trial": 191, "dateTime": 1509294927943, "trialdata": {"rt": -1, "stimulus": "<p id=\"stim\">5</p>", "key_press": -1, "trial_type": "single-stim", "trial_index": 191, "time_elapsed": 938718, "internal_node_id": "0.0-141.0-5.0"}}, {"uniqueid": "MTK0151:386PBUZZXG4OF6BKKZVTCKRP09GJLG", "current_trial": 192, "dateTime": 1509294928945, "trialdata": {"rt": -1, "stimulus": "<p id=\"stim\">4</p>", "key_press": -1, "trial_type": "single-stim", "trial_index": 192, "time_elapsed": 939719, "internal_node_id": "0.0-141.0-6.0"}}, {"uniqueid": "MTK0151:386PBUZZXG4OF6BKKZVTCKRP09GJLG", "current_trial": 193, "dateTime": 1509294929947, "trialdata": {"rt": -1, "stimulus": "<p id=\"stim\">3</p>", "key_press": -1, "trial_type": "single-stim", "trial_index": 193, "time_elapsed": 940721, "internal_node_id": "0.0-141.0-7.0"}}, {"uniqueid": "MTK0151:386PBUZZXG4OF6BKKZVTCKRP09GJLG", "current_trial": 194, "dateTime": 1509294930949, "trialdata": {"rt": -1, "stimulus": "<p id=\"stim\">2</p>", "key_press": -1, "trial_type": "single-stim", "trial_index": 194, "time_elapsed": 941723, "internal_node_id": "0.0-141.0-8.0"}}, {"uniqueid": "MTK0151:386PBUZZXG4OF6BKKZVTCKRP09GJLG", "current_trial": 195, "dateTime": 1509294931951, "trialdata": {"rt": -1, "stimulus": "<p id=\"stim\">1</p>", "key_press": -1, "trial_type": "single-stim", "trial_index": 195, "time_elapsed": 942726, "internal_node_id": "0.0-141.0-9.0"}}, {"uniqueid": "MTK0151:386PBUZZXG4OF6BKKZVTCKRP09GJLG", "current_trial": 196, "dateTime": 1509294933452, "trialdata": {"rt": -1, "stimulus": "<p id=\"stim\">+</p>", "key_press": -1, "type": "FIXATION", "trial_type": "single-stim", "trial_index": 196, "time_elapsed": 944226, "internal_node_id": "0.0-142.0-0.0"}}, {"uniqueid": "MTK0151:386PBUZZXG4OF6BKKZVTCKRP09GJLG", "current_trial": 197, "dateTime": 1509294935134, "trialdata": {"rt": -1000, "stimulus": "/static/audio/wordpool/WHISKERS.wav", "key_press": -1, "type": "PRES_AUD", "word": "whiskers", "wordID": 1604, "conditions": [12, 800, "a", 24000], "trial": 5, "serialpos": 0, "trial_type": "single-audio", "trial_index": 197, "time_elapsed": 945908, "internal_node_id": "0.0-143.0"}}, {"uniqueid": "MTK0151:386PBUZZXG4OF6BKKZVTCKRP09GJLG", "current_trial": 198, "dateTime": 1509294936928, "trialdata": {"rt": -1000, "stimulus": "/static/audio/wordpool/MUFFIN.wav", "key_press": -1, "type": "PRES_AUD", "word": "muffin", "wordID": 928, "conditions": [12, 800, "a", 24000], "trial": 5, "serialpos": 1, "trial_type": "single-audio", "trial_index": 198, "time_elapsed": 947703, "internal_node_id": "0.0-144.0"}}, {"uniqueid": "MTK0151:386PBUZZXG4OF6BKKZVTCKRP09GJLG", "current_trial": 199, "dateTime": 1509294938600, "trialdata": {"rt": -1000, "stimulus": "/static/audio/wordpool/HAMPER.wav", "key_press": -1, "type": "PRES_AUD", "word": "hamper", "wordID": 681, "conditions": [12, 800, "a", 24000], "trial": 5, "serialpos": 2, "trial_type": "single-audio", "trial_index": 199, "time_elapsed": 949375, "internal_node_id": "0.0-145.0"}}, {"uniqueid": "MTK0151:386PBUZZXG4OF6BKKZVTCKRP09GJLG", "current_trial": 200, "dateTime": 1509294940564, "trialdata": {"rt": -1000, "stimulus": "/static/audio/wordpool/BRACES.wav", "key_press": -1, "type": "PRES_AUD", "word": "braces", "wordID": 163, "conditions": [12, 800, "a", 24000], "trial": 5, "serialpos": 3, "trial_type": "single-audio", "trial_index": 200, "time_elapsed": 951339, "internal_node_id": "0.0-146.0"}}, {"uniqueid": "MTK0151:386PBUZZXG4OF6BKKZVTCKRP09GJLG", "current_trial": 201, "dateTime": 1509294942496, "trialdata": {"rt": -1000, "stimulus": "/static/audio/wordpool/TUBA.wav", "key_press": -1, "type": "PRES_AUD", "word": "tuba", "wordID": 1514, "conditions": [12, 800, "a", 24000], "trial": 5, "serialpos": 4, "trial_type": "single-audio", "trial_index": 201, "time_elapsed": 953271, "internal_node_id": "0.0-147.0"}}, {"uniqueid": "MTK0151:386PBUZZXG4OF6BKKZVTCKRP09GJLG", "current_trial": 202, "dateTime": 1509294944388, "trialdata": {"rt": -1000, "stimulus": "/static/audio/wordpool/EGYPT.wav", "key_press": -1, "type": "PRES_AUD", "word": "egypt", "wordID": 518, "conditions": [12, 800, "a", 24000], "trial": 5, "serialpos": 5, "trial_type": "single-audio", "trial_index": 202, "time_elapsed": 955163, "internal_node_id": "0.0-148.0"}}, {"uniqueid": "MTK0151:386PBUZZXG4OF6BKKZVTCKRP09GJLG", "current_trial": 203, "dateTime": 1509294946222, "trialdata": {"rt": -1000, "stimulus": "/static/audio/wordpool/GOBLIN.wav", "key_press": -1, "type": "PRES_AUD", "word": "goblin", "wordID": 644, "conditions": [12, 800, "a", 24000], "trial": 5, "serialpos": 6, "trial_type": "single-audio", "trial_index": 203, "time_elapsed": 956997, "internal_node_id": "0.0-149.0"}}, {"uniqueid": "MTK0151:386PBUZZXG4OF6BKKZVTCKRP09GJLG", "current_trial": 204, "dateTime": 1509294948107, "trialdata": {"rt": -1000, "stimulus": "/static/audio/wordpool/DRAGON.wav", "key_press": -1, "type": "PRES_AUD", "word": "dragon", "wordID": 491, "conditions": [12, 800, "a", 24000], "trial": 5, "serialpos": 7, "trial_type": "single-audio", "trial_index": 204, "time_elapsed": 958882, "internal_node_id": "0.0-150.0"}}, {"uniqueid": "MTK0151:386PBUZZXG4OF6BKKZVTCKRP09GJLG", "current_trial": 205, "dateTime": 1509294949933, "trialdata": {"rt": -1000, "stimulus": "/static/audio/wordpool/RAZOR.wav", "key_press": -1, "type": "PRES_AUD", "word": "razor", "wordID": 1170, "conditions": [12, 800, "a", 24000], "trial": 5, "serialpos": 8, "trial_type": "single-audio", "trial_index": 205, "time_elapsed": 960708, "internal_node_id": "0.0-151.0"}}, {"uniqueid": "MTK0151:386PBUZZXG4OF6BKKZVTCKRP09GJLG", "current_trial": 206, "dateTime": 1509294951843, "trialdata": {"rt": -1000, "stimulus": "/static/audio/wordpool/GLASS.wav", "key_press": -1, "type": "PRES_AUD", "word": "glass", "wordID": 638, "conditions": [12, 800, "a", 24000], "trial": 5, "serialpos": 9, "trial_type": "single-audio", "trial_index": 206, "time_elapsed": 962618, "internal_node_id": "0.0-152.0"}}, {"uniqueid": "MTK0151:386PBUZZXG4OF6BKKZVTCKRP09GJLG", "current_trial": 207, "dateTime": 1509294953461, "trialdata": {"rt": -1000, "stimulus": "/static/audio/wordpool/MARS.wav", "key_press": -1, "type": "PRES_AUD", "word": "mars", "wordID": 872, "conditions": [12, 800, "a", 24000], "trial": 5, "serialpos": 10, "trial_type": "single-audio", "trial_index": 207, "time_elapsed": 964236, "internal_node_id": "0.0-153.0"}}, {"uniqueid": "MTK0151:386PBUZZXG4OF6BKKZVTCKRP09GJLG", "current_trial": 208, "dateTime": 1509294955370, "trialdata": {"rt": -1000, "stimulus": "/static/audio/wordpool/CUSTARD.wav", "key_press": -1, "type": "PRES_AUD", "word": "custard", "wordID": 428, "conditions": [12, 800, "a", 24000], "trial": 5, "serialpos": 11, "trial_type": "single-audio", "trial_index": 208, "time_elapsed": 966145, "internal_node_id": "0.0-154.0"}}, {"uniqueid": "MTK0151:386PBUZZXG4OF6BKKZVTCKRP09GJLG", "current_trial": 209, "dateTime": 1509294956673, "trialdata": {"rt": -1, "stimulus": "", "key_press": -1, "type": "PRE_RECALL_DELAY", "trial_type": "single-stim", "trial_index": 209, "time_elapsed": 967448, "internal_node_id": "0.0-155.0-0.0"}}, {"uniqueid": "MTK0151:386PBUZZXG4OF6BKKZVTCKRP09GJLG", "current_trial": 210, "dateTime": 1509294957175, "trialdata": {"rt": -1000, "stimulus": "/static/audio/400Hz.wav", "key_press": -1, "type": "PRE_RECALL_ALERT", "trial_type": "single-audio", "trial_index": 210, "time_elapsed": 967949, "internal_node_id": "0.0-156.0"}}, {"uniqueid": "MTK0151:386PBUZZXG4OF6BKKZVTCKRP09GJLG", "current_trial": 211, "dateTime": 1509295017185, "trialdata": {"rt": [3461, 5056, 7622, 12778], "recwords": ["custard", "mars", "egypt", "dragon"], "type": "FREE_RECALL", "conditions": [12, 800, "a", 24000], "trial": 5, "trial_type": "free-recall", "trial_index": 211, "time_elapsed": 1027954, "internal_node_id": "0.0-157.0-0.0"}}, {"uniqueid": "MTK0151:386PBUZZXG4OF6BKKZVTCKRP09GJLG", "current_trial": 212, "dateTime": 1509295019878, "trialdata": {"rt": 692, "key_press": 13, "type": "INSTRUCTIONS", "trial_type": "text", "trial_index": 212, "time_elapsed": 1030653, "internal_node_id": "0.0-158.0"}}, {"uniqueid": "MTK0151:386PBUZZXG4OF6BKKZVTCKRP09GJLG", "current_trial": 213, "dateTime": 1509295033882, "trialdata": {"rt": [2486, 7285, 9724, 11689], "responses": ["244", "12", "20", "1"], "num1": [8, 3, 9, 5, 2], "num2": [8, 5, 9, 5, 6], "num3": [8, 4, 2, 4, 7], "type": "DISTRACTOR", "conditions": [12, 800, "a", 12000], "trial": 6, "trial_type": "math-distractor", "trial_index": 213, "time_elapsed": 1044657, "internal_node_id": "0.0-159.0"}}, {"uniqueid": "MTK0151:386PBUZZXG4OF6BKKZVTCKRP09GJLG", "current_trial": 214, "dateTime": 1509295036885, "trialdata": {"rt": -1, "stimulus": "<p id=\"stim\">10</p>", "key_press": -1, "trial_type": "single-stim", "trial_index": 214, "time_elapsed": 1047660, "internal_node_id": "0.0-160.0-0.0"}}, {"uniqueid": "MTK0151:386PBUZZXG4OF6BKKZVTCKRP09GJLG", "current_trial": 215, "dateTime": 1509295037887, "trialdata": {"rt": -1, "stimulus": "<p id=\"stim\">9</p>", "key_press": -1, "trial_type": "single-stim", "trial_index": 215, "time_elapsed": 1048662, "internal_node_id": "0.0-160.0-1.0"}}, {"uniqueid": "MTK0151:386PBUZZXG4OF6BKKZVTCKRP09GJLG", "current_trial": 216, "dateTime": 1509295038890, "trialdata": {"rt": -1, "stimulus": "<p id=\"stim\">8</p>", "key_press": -1, "trial_type": "single-stim", "trial_index": 216, "time_elapsed": 1049664, "internal_node_id": "0.0-160.0-2.0"}}, {"uniqueid": "MTK0151:386PBUZZXG4OF6BKKZVTCKRP09GJLG", "current_trial": 217, "dateTime": 1509295039892, "trialdata": {"rt": -1, "stimulus": "<p id=\"stim\">7</p>", "key_press": -1, "trial_type": "single-stim", "trial_index": 217, "time_elapsed": 1050667, "internal_node_id": "0.0-160.0-3.0"}}, {"uniqueid": "MTK0151:386PBUZZXG4OF6BKKZVTCKRP09GJLG", "current_trial": 218, "dateTime": 1509295040893, "trialdata": {"rt": -1, "stimulus": "<p id=\"stim\">6</p>", "key_press": -1, "trial_type": "single-stim", "trial_index": 218, "time_elapsed": 1051668, "internal_node_id": "0.0-160.0-4.0"}}, {"uniqueid": "MTK0151:386PBUZZXG4OF6BKKZVTCKRP09GJLG", "current_trial": 219, "dateTime": 1509295041896, "trialdata": {"rt": -1, "stimulus": "<p id=\"stim\">5</p>", "key_press": -1, "trial_type": "single-stim", "trial_index": 219, "time_elapsed": 1052670, "internal_node_id": "0.0-160.0-5.0"}}, {"uniqueid": "MTK0151:386PBUZZXG4OF6BKKZVTCKRP09GJLG", "current_trial": 220, "dateTime": 1509295042897, "trialdata": {"rt": -1, "stimulus": "<p id=\"stim\">4</p>", "key_press": -1, "trial_type": "single-stim", "trial_index": 220, "time_elapsed": 1053672, "internal_node_id": "0.0-160.0-6.0"}}, {"uniqueid": "MTK0151:386PBUZZXG4OF6BKKZVTCKRP09GJLG", "current_trial": 221, "dateTime": 1509295043899, "trialdata": {"rt": -1, "stimulus": "<p id=\"stim\">3</p>", "key_press": -1, "trial_type": "single-stim", "trial_index": 221, "time_elapsed": 1054673, "internal_node_id": "0.0-160.0-7.0"}}, {"uniqueid": "MTK0151:386PBUZZXG4OF6BKKZVTCKRP09GJLG", "current_trial": 222, "dateTime": 1509295044901, "trialdata": {"rt": -1, "stimulus": "<p id=\"stim\">2</p>", "key_press": -1, "trial_type": "single-stim", "trial_index": 222, "time_elapsed": 1055675, "internal_node_id": "0.0-160.0-8.0"}}, {"uniqueid": "MTK0151:386PBUZZXG4OF6BKKZVTCKRP09GJLG", "current_trial": 223, "dateTime": 1509295045901, "trialdata": {"rt": -1, "stimulus": "<p id=\"stim\">1</p>", "key_press": -1, "trial_type": "single-stim", "trial_index": 223, "time_elapsed": 1056676, "internal_node_id": "0.0-160.0-9.0"}}, {"uniqueid": "MTK0151:386PBUZZXG4OF6BKKZVTCKRP09GJLG", "current_trial": 224, "dateTime": 1509295047403, "trialdata": {"rt": -1, "stimulus": "<p id=\"stim\">+</p>", "key_press": -1, "type": "FIXATION", "trial_type": "single-stim", "trial_index": 224, "time_elapsed": 1058178, "internal_node_id": "0.0-161.0-0.0"}}, {"uniqueid": "MTK0151:386PBUZZXG4OF6BKKZVTCKRP09GJLG", "current_trial": 225, "dateTime": 1509295049221, "trialdata": {"rt": -1000, "stimulus": "/static/audio/wordpool/CLAM.wav", "key_press": -1, "type": "PRES_AUD", "word": "clam", "wordID": 314, "conditions": [12, 800, "a", 12000], "trial": 6, "serialpos": 0, "trial_type": "single-audio", "trial_index": 225, "time_elapsed": 1059996, "internal_node_id": "0.0-162.0"}}, {"uniqueid": "MTK0151:386PBUZZXG4OF6BKKZVTCKRP09GJLG", "current_trial": 226, "dateTime": 1509295051024, "trialdata": {"rt": -1000, "stimulus": "/static/audio/wordpool/WAGON.wav", "key_press": -1, "type": "PRES_AUD", "word": "wagon", "wordID": 1577, "conditions": [12, 800, "a", 12000], "trial": 6, "serialpos": 1, "trial_type": "single-audio", "trial_index": 226, "time_elapsed": 1061799, "internal_node_id": "0.0-163.0"}}, {"uniqueid": "MTK0151:386PBUZZXG4OF6BKKZVTCKRP09GJLG", "current_trial": 227, "dateTime": 1509295052857, "trialdata": {"rt": -1000, "stimulus": "/static/audio/wordpool/EUROPE.wav", "key_press": -1, "type": "PRES_AUD", "word": "europe", "wordID": 540, "conditions": [12, 800, "a", 12000], "trial": 6, "serialpos": 2, "trial_type": "single-audio", "trial_index": 227, "time_elapsed": 1063632, "internal_node_id": "0.0-164.0"}}, {"uniqueid": "MTK0151:386PBUZZXG4OF6BKKZVTCKRP09GJLG", "current_trial": 228, "dateTime": 1509295054658, "trialdata": {"rt": -1000, "stimulus": "/static/audio/wordpool/DRINK.wav", "key_press": -1, "type": "PRES_AUD", "word": "drink", "wordID": 497, "conditions": [12, 800, "a", 12000], "trial": 6, "serialpos": 3, "trial_type": "single-audio", "trial_index": 228, "time_elapsed": 1065433, "internal_node_id": "0.0-165.0"}}, {"uniqueid": "MTK0151:386PBUZZXG4OF6BKKZVTCKRP09GJLG", "current_trial": 229, "dateTime": 1509295056279, "trialdata": {"rt": -1000, "stimulus": "/static/audio/wordpool/GAZELLE.wav", "key_press": -1, "type": "PRES_AUD", "word": "gazelle", "wordID": 627, "conditions": [12, 800, "a", 12000], "trial": 6, "serialpos": 4, "trial_type": "single-audio", "trial_index": 229, "time_elapsed": 1067054, "internal_node_id": "0.0-166.0"}}, {"uniqueid": "MTK0151:386PBUZZXG4OF6BKKZVTCKRP09GJLG", "current_trial": 230, "dateTime": 1509295057905, "trialdata": {"rt": -1000, "stimulus": "/static/audio/wordpool/CUPBOARD.wav", "key_press": -1, "type": "PRES_AUD", "word": "cupboard", "wordID": 424, "conditions": [12, 800, "a", 12000], "trial": 6, "serialpos": 5, "trial_type": "single-audio", "trial_index": 230, "time_elapsed": 1068680, "internal_node_id": "0.0-167.0"}}, {"uniqueid": "MTK0151:386PBUZZXG4OF6BKKZVTCKRP09GJLG", "current_trial": 231, "dateTime": 1509295059842, "trialdata": {"rt": -1000, "stimulus": "/static/audio/wordpool/POSSUM.wav", "key_press": -1, "type": "PRES_AUD", "word": "possum", "wordID": 1111, "conditions": [12, 800, "a", 12000], "trial": 6, "serialpos": 6, "trial_type": "single-audio", "trial_index": 231, "time_elapsed": 1070616, "internal_node_id": "0.0-168.0"}}, {"uniqueid": "MTK0151:386PBUZZXG4OF6BKKZVTCKRP09GJLG", "current_trial": 232, "dateTime": 1509295061637, "trialdata": {"rt": -1000, "stimulus": "/static/audio/wordpool/TRUCK.wav", "key_press": -1, "type": "PRES_AUD", "word": "truck", "wordID": 1511, "conditions": [12, 800, "a", 12000], "trial": 6, "serialpos": 7, "trial_type": "single-audio", "trial_index": 232, "time_elapsed": 1072412, "internal_node_id": "0.0-169.0"}}, {"uniqueid": "MTK0151:386PBUZZXG4OF6BKKZVTCKRP09GJLG", "current_trial": 233, "dateTime": 1509295063519, "trialdata": {"rt": -1000, "stimulus": "/static/audio/wordpool/BRIEFCASE.wav", "key_press": -1, "type": "PRES_AUD", "word": "briefcase", "wordID": 174, "conditions": [12, 800, "a", 12000], "trial": 6, "serialpos": 8, "trial_type": "single-audio", "trial_index": 233, "time_elapsed": 1074294, "internal_node_id": "0.0-170.0"}}, {"uniqueid": "MTK0151:386PBUZZXG4OF6BKKZVTCKRP09GJLG", "current_trial": 234, "dateTime": 1509295065486, "trialdata": {"rt": -1000, "stimulus": "/static/audio/wordpool/BABY.wav", "key_press": -1, "type": "PRES_AUD", "word": "baby", "wordID": 63, "conditions": [12, 800, "a", 12000], "trial": 6, "serialpos": 9, "trial_type": "single-audio", "trial_index": 234, "time_elapsed": 1076260, "internal_node_id": "0.0-171.0"}}, {"uniqueid": "MTK0151:386PBUZZXG4OF6BKKZVTCKRP09GJLG", "current_trial": 235, "dateTime": 1509295067325, "trialdata": {"rt": -1000, "stimulus": "/static/audio/wordpool/CRIB.wav", "key_press": -1, "type": "PRES_AUD", "word": "crib", "wordID": 406, "conditions": [12, 800, "a", 12000], "trial": 6, "serialpos": 10, "trial_type": "single-audio", "trial_index": 235, "time_elapsed": 1078100, "internal_node_id": "0.0-172.0"}}, {"uniqueid": "MTK0151:386PBUZZXG4OF6BKKZVTCKRP09GJLG", "current_trial": 236, "dateTime": 1509295069159, "trialdata": {"rt": -1000, "stimulus": "/static/audio/wordpool/FLIPPER.wav", "key_press": -1, "type": "PRES_AUD", "word": "flipper", "wordID": 579, "conditions": [12, 800, "a", 12000], "trial": 6, "serialpos": 11, "trial_type": "single-audio", "trial_index": 236, "time_elapsed": 1079934, "internal_node_id": "0.0-173.0"}}, {"uniqueid": "MTK0151:386PBUZZXG4OF6BKKZVTCKRP09GJLG", "current_trial": 237, "dateTime": 1509295070436, "trialdata": {"rt": -1, "stimulus": "", "key_press": -1, "type": "PRE_RECALL_DELAY", "trial_type": "single-stim", "trial_index": 237, "time_elapsed": 1081211, "internal_node_id": "0.0-174.0-0.0"}}, {"uniqueid": "MTK0151:386PBUZZXG4OF6BKKZVTCKRP09GJLG", "current_trial": 238, "dateTime": 1509295070939, "trialdata": {"rt": -1000, "stimulus": "/static/audio/400Hz.wav", "key_press": -1, "type": "PRE_RECALL_ALERT", "trial_type": "single-audio", "trial_index": 238, "time_elapsed": 1081714, "internal_node_id": "0.0-175.0"}}, {"uniqueid": "MTK0151:386PBUZZXG4OF6BKKZVTCKRP09GJLG", "current_trial": 239, "dateTime": 1509295130951, "trialdata": {"rt": [3398, 5479, 7685, 9818, 12845, 50020], "recwords": ["flipper", "baby", "crib", "possum", "gazelle", ""], "type": "FREE_RECALL", "conditions": [12, 800, "a", 12000], "trial": 6, "trial_type": "free-recall", "trial_index": 239, "time_elapsed": 1141718, "internal_node_id": "0.0-176.0-0.0"}}, {"uniqueid": "MTK0151:386PBUZZXG4OF6BKKZVTCKRP09GJLG", "current_trial": 240, "dateTime": 1509295134459, "trialdata": {"rt": 1505, "key_press": 32, "type": "INSTRUCTIONS", "trial_type": "text", "trial_index": 240, "time_elapsed": 1145234, "internal_node_id": "0.0-177.0"}}, {"uniqueid": "MTK0151:386PBUZZXG4OF6BKKZVTCKRP09GJLG", "current_trial": 241, "dateTime": 1509295148463, "trialdata": {"rt": [1737, 5229, 9542], "responses": ["13", "18", "24"], "num1": [6, 2, 6, 4], "num2": [1, 9, 8, 3], "num3": [6, 7, 8, 5], "type": "DISTRACTOR", "conditions": [12, 1600, "v", 12000], "trial": 7, "trial_type": "math-distractor", "trial_index": 241, "time_elapsed": 1159238, "internal_node_id": "0.0-178.0"}}, {"uniqueid": "MTK0151:386PBUZZXG4OF6BKKZVTCKRP09GJLG", "current_trial": 242, "dateTime": 1509295151467, "trialdata": {"rt": -1, "stimulus": "<p id=\"stim\">10</p>", "key_press": -1, "trial_type": "single-stim", "trial_index": 242, "time_elapsed": 1162241, "internal_node_id": "0.0-179.0-0.0"}}, {"uniqueid": "MTK0151:386PBUZZXG4OF6BKKZVTCKRP09GJLG", "current_trial": 243, "dateTime": 1509295152468, "trialdata": {"rt": -1, "stimulus": "<p id=\"stim\">9</p>", "key_press": -1, "trial_type": "single-stim", "trial_index": 243, "time_elapsed": 1163243, "internal_node_id": "0.0-179.0-1.0"}}, {"uniqueid": "MTK0151:386PBUZZXG4OF6BKKZVTCKRP09GJLG", "current_trial": 244, "dateTime": 1509295153470, "trialdata": {"rt": -1, "stimulus": "<p id=\"stim\">8</p>", "key_press": -1, "trial_type": "single-stim", "trial_index": 244, "time_elapsed": 1164245, "internal_node_id": "0.0-179.0-2.0"}}, {"uniqueid": "MTK0151:386PBUZZXG4OF6BKKZVTCKRP09GJLG", "current_trial": 245, "dateTime": 1509295154473, "trialdata": {"rt": -1, "stimulus": "<p id=\"stim\">7</p>", "key_press": -1, "trial_type": "single-stim", "trial_index": 245, "time_elapsed": 1165248, "internal_node_id": "0.0-179.0-3.0"}}, {"uniqueid": "MTK0151:386PBUZZXG4OF6BKKZVTCKRP09GJLG", "current_trial": 246, "dateTime": 1509295155477, "trialdata": {"rt": -1, "stimulus": "<p id=\"stim\">6</p>", "key_press": -1, "trial_type": "single-stim", "trial_index": 246, "time_elapsed": 1166251, "internal_node_id": "0.0-179.0-4.0"}}, {"uniqueid": "MTK0151:386PBUZZXG4OF6BKKZVTCKRP09GJLG", "current_trial": 247, "dateTime": 1509295156479, "trialdata": {"rt": -1, "stimulus": "<p id=\"stim\">5</p>", "key_press": -1, "trial_type": "single-stim", "trial_index": 247, "time_elapsed": 1167253, "internal_node_id": "0.0-179.0-5.0"}}, {"uniqueid": "MTK0151:386PBUZZXG4OF6BKKZVTCKRP09GJLG", "current_trial": 248, "dateTime": 1509295157481, "trialdata": {"rt": -1, "stimulus": "<p id=\"stim\">4</p>", "key_press": -1, "trial_type": "single-stim", "trial_index": 248, "time_elapsed": 1168255, "internal_node_id": "0.0-179.0-6.0"}}, {"uniqueid": "MTK0151:386PBUZZXG4OF6BKKZVTCKRP09GJLG", "current_trial": 249, "dateTime": 1509295158483, "trialdata": {"rt": -1, "stimulus": "<p id=\"stim\">3</p>", "key_press": -1, "trial_type": "single-stim", "trial_index": 249, "time_elapsed": 1169257, "internal_node_id": "0.0-179.0-7.0"}}, {"uniqueid": "MTK0151:386PBUZZXG4OF6BKKZVTCKRP09GJLG", "current_trial": 250, "dateTime": 1509295159485, "trialdata": {"rt": -1, "stimulus": "<p id=\"stim\">2</p>", "key_press": -1, "trial_type": "single-stim", "trial_index": 250, "time_elapsed": 1170260, "internal_node_id": "0.0-179.0-8.0"}}, {"uniqueid": "MTK0151:386PBUZZXG4OF6BKKZVTCKRP09GJLG", "current_trial": 251, "dateTime": 1509295160488, "trialdata": {"rt": -1, "stimulus": "<p id=\"stim\">1</p>", "key_press": -1, "trial_type": "single-stim", "trial_index": 251, "time_elapsed": 1171263, "internal_node_id": "0.0-179.0-9.0"}}, {"uniqueid": "MTK0151:386PBUZZXG4OF6BKKZVTCKRP09GJLG", "current_trial": 252, "dateTime": 1509295161992, "trialdata": {"rt": -1, "stimulus": "<p id=\"stim\">+</p>", "key_press": -1, "type": "FIXATION", "trial_type": "single-stim", "trial_index": 252, "time_elapsed": 1172766, "internal_node_id": "0.0-180.0-0.0"}}, {"uniqueid": "MTK0151:386PBUZZXG4OF6BKKZVTCKRP09GJLG", "current_trial": 253, "dateTime": 1509295163594, "trialdata": {"rt": -1, "stimulus": "<p id=\"stim\">ORCHID</p>", "key_press": -1, "type": "PRES_VIS", "word": "orchid", "wordID": 981, "conditions": [12, 1600, "v", 12000], "trial": 7, "serialpos": 0, "trial_type": "single-stim", "trial_index": 253, "time_elapsed": 1174368, "internal_node_id": "0.0-181.0"}}, {"uniqueid": "MTK0151:386PBUZZXG4OF6BKKZVTCKRP09GJLG", "current_trial": 254, "dateTime": 1509295166309, "trialdata": {"rt": -1, "stimulus": "<p id=\"stim\">QUARTER</p>", "key_press": -1, "type": "PRES_VIS", "word": "quarter", "wordID": 1147, "conditions": [12, 1600, "v", 12000], "trial": 7, "serialpos": 1, "trial_type": "single-stim", "trial_index": 254, "time_elapsed": 1177083, "internal_node_id": "0.0-182.0"}}, {"uniqueid": "MTK0151:386PBUZZXG4OF6BKKZVTCKRP09GJLG", "current_trial": 255, "dateTime": 1509295168734, "trialdata": {"rt": -1, "stimulus": "<p id=\"stim\">RATTLE</p>", "key_press": -1, "type": "PRES_VIS", "word": "rattle", "wordID": 1169, "conditions": [12, 1600, "v", 12000], "trial": 7, "serialpos": 2, "trial_type": "single-stim", "trial_index": 255, "time_elapsed": 1179508, "internal_node_id": "0.0-183.0"}}, {"uniqueid": "MTK0151:386PBUZZXG4OF6BKKZVTCKRP09GJLG", "current_trial": 256, "dateTime": 1509295171467, "trialdata": {"rt": -1, "stimulus": "<p id=\"stim\">PISTOL</p>", "key_press": -1, "type": "PRES_VIS", "word": "pistol", "wordID": 1074, "conditions": [12, 1600, "v", 12000], "trial": 7, "serialpos": 3, "trial_type": "single-stim", "trial_index": 256, "time_elapsed": 1182242, "internal_node_id": "0.0-184.0"}}, {"uniqueid": "MTK0151:386PBUZZXG4OF6BKKZVTCKRP09GJLG", "current_trial": 257, "dateTime": 1509295174176, "trialdata": {"rt": -1, "stimulus": "<p id=\"stim\">KNIFE</p>", "key_press": -1, "type": "PRES_VIS", "word": "knife", "wordID": 784, "conditions": [12, 1600, "v", 12000], "trial": 7, "serialpos": 4, "trial_type": "single-stim", "trial_index": 257, "time_elapsed": 1184950, "internal_node_id": "0.0-185.0"}}, {"uniqueid": "MTK0151:386PBUZZXG4OF6BKKZVTCKRP09GJLG", "current_trial": 258, "dateTime": 1509295176974, "trialdata": {"rt": -1, "stimulus": "<p id=\"stim\">MAPLE</p>", "key_press": -1, "type": "PRES_VIS", "word": "maple", "wordID": 865, "conditions": [12, 1600, "v", 12000], "trial": 7, "serialpos": 5, "trial_type": "single-stim", "trial_index": 258, "time_elapsed": 1187749, "internal_node_id": "0.0-186.0"}}, {"uniqueid": "MTK0151:386PBUZZXG4OF6BKKZVTCKRP09GJLG", "current_trial": 259, "dateTime": 1509295179705, "trialdata": {"rt": -1, "stimulus": "<p id=\"stim\">LIPSTICK</p>", "key_press": -1, "type": "PRES_VIS", "word": "lipstick", "wordID": 828, "conditions": [12, 1600, "v", 12000], "trial": 7, "serialpos": 6, "trial_type": "single-stim", "trial_index": 259, "time_elapsed": 1190479, "internal_node_id": "0.0-187.0"}}, {"uniqueid": "MTK0151:386PBUZZXG4OF6BKKZVTCKRP09GJLG", "current_trial": 260, "dateTime": 1509295182358, "trialdata": {"rt": -1, "stimulus": "<p id=\"stim\">NIGHTGOWN</p>", "key_press": -1, "type": "PRES_VIS", "word": "nightgown", "wordID": 952, "conditions": [12, 1600, "v", 12000], "trial": 7, "serialpos": 7, "trial_type": "single-stim", "trial_index": 260, "time_elapsed": 1193132, "internal_node_id": "0.0-188.0"}}, {"uniqueid": "MTK0151:386PBUZZXG4OF6BKKZVTCKRP09GJLG", "current_trial": 261, "dateTime": 1509295185055, "trialdata": {"rt": -1, "stimulus": "<p id=\"stim\">FIREPLACE</p>", "key_press": -1, "type": "PRES_VIS", "word": "fireplace", "wordID": 569, "conditions": [12, 1600, "v", 12000], "trial": 7, "serialpos": 8, "trial_type": "single-stim", "trial_index": 261, "time_elapsed": 1195829, "internal_node_id": "0.0-189.0"}}, {"uniqueid": "MTK0151:386PBUZZXG4OF6BKKZVTCKRP09GJLG", "current_trial": 262, "dateTime": 1509295187518, "trialdata": {"rt": -1, "stimulus": "<p id=\"stim\">PADDING</p>", "key_press": -1, "type": "PRES_VIS", "word": "padding", "wordID": 998, "conditions": [12, 1600, "v", 12000], "trial": 7, "serialpos": 9, "trial_type": "single-stim", "trial_index": 262, "time_elapsed": 1198293, "internal_node_id": "0.0-190.0"}}, {"uniqueid": "MTK0151:386PBUZZXG4OF6BKKZVTCKRP09GJLG", "current_trial": 263, "dateTime": 1509295190027, "trialdata": {"rt": -1, "stimulus": "<p id=\"stim\">FRIEND</p>", "key_press": -1, "type": "PRES_VIS", "word": "friend", "wordID": 605, "conditions": [12, 1600, "v", 12000], "trial": 7, "serialpos": 10, "trial_type": "single-stim", "trial_index": 263, "time_elapsed": 1200801, "internal_node_id": "0.0-191.0"}}, {"uniqueid": "MTK0151:386PBUZZXG4OF6BKKZVTCKRP09GJLG", "current_trial": 264, "dateTime": 1509295192753, "trialdata": {"rt": -1, "stimulus": "<p id=\"stim\">KITCHEN</p>", "key_press": -1, "type": "PRES_VIS", "word": "kitchen", "wordID": 777, "conditions": [12, 1600, "v", 12000], "trial": 7, "serialpos": 11, "trial_type": "single-stim", "trial_index": 264, "time_elapsed": 1203528, "internal_node_id": "0.0-192.0"}}, {"uniqueid": "MTK0151:386PBUZZXG4OF6BKKZVTCKRP09GJLG", "current_trial": 265, "dateTime": 1509295195120, "trialdata": {"rt": -1, "stimulus": "", "key_press": -1, "type": "PRE_RECALL_DELAY", "trial_type": "single-stim", "trial_index": 265, "time_elapsed": 1205895, "internal_node_id": "0.0-193.0-0.0"}}, {"uniqueid": "MTK0151:386PBUZZXG4OF6BKKZVTCKRP09GJLG", "current_trial": 266, "dateTime": 1509295195622, "trialdata": {"rt": -1000, "stimulus": "/static/audio/400Hz.wav", "key_press": -1, "type": "PRE_RECALL_ALERT", "trial_type": "single-audio", "trial_index": 266, "time_elapsed": 1206397, "internal_node_id": "0.0-194.0"}}, {"uniqueid": "MTK0151:386PBUZZXG4OF6BKKZVTCKRP09GJLG", "current_trial": 267, "dateTime": 1509295255639, "trialdata": {"rt": [3452, 6781, 9502, 12122, 14527, 22560, 26153, 35427], "recwords": ["nightgown", "fireplace", "friend", "padding", "kitchen", "knife", "pistol", "quarter"], "type": "FREE_RECALL", "conditions": [12, 1600, "v", 12000], "trial": 7, "trial_type": "free-recall", "trial_index": 267, "time_elapsed": 1266403, "internal_node_id": "0.0-195.0-0.0"}}, {"uniqueid": "MTK0151:386PBUZZXG4OF6BKKZVTCKRP09GJLG", "current_trial": 268, "dateTime": 1509295258617, "trialdata": {"rt": 976, "key_press": 70, "type": "INSTRUCTIONS", "trial_type": "text", "trial_index": 268, "time_elapsed": 1269392, "internal_node_id": "0.0-196.0"}}, {"uniqueid": "MTK0151:386PBUZZXG4OF6BKKZVTCKRP09GJLG", "current_trial": 269, "dateTime": 1509295272621, "trialdata": {"rt": [3720, 6471, 10871], "responses": ["17", "20", "17"], "num1": [7, 5, 6, 3], "num2": [9, 9, 5, 8], "num3": [1, 6, 6, 9], "type": "DISTRACTOR", "conditions": [12, 800, "v", 12000], "trial": 8, "trial_type": "math-distractor", "trial_index": 269, "time_elapsed": 1283396, "internal_node_id": "0.0-197.0"}}, {"uniqueid": "MTK0151:386PBUZZXG4OF6BKKZVTCKRP09GJLG", "current_trial": 270, "dateTime": 1509295275625, "trialdata": {"rt": -1, "stimulus": "<p id=\"stim\">10</p>", "key_press": -1, "trial_type": "single-stim", "trial_index": 270, "time_elapsed": 1286399, "internal_node_id": "0.0-198.0-0.0"}}, {"uniqueid": "MTK0151:386PBUZZXG4OF6BKKZVTCKRP09GJLG", "current_trial": 271, "dateTime": 1509295276626, "trialdata": {"rt": -1, "stimulus": "<p id=\"stim\">9</p>", "key_press": -1, "trial_type": "single-stim", "trial_index": 271, "time_elapsed": 1287401, "internal_node_id": "0.0-198.0-1.0"}}, {"uniqueid": "MTK0151:386PBUZZXG4OF6BKKZVTCKRP09GJLG", "current_trial": 272, "dateTime": 1509295277628, "trialdata": {"rt": -1, "stimulus": "<p id=\"stim\">8</p>", "key_press": -1, "trial_type": "single-stim", "trial_index": 272, "time_elapsed": 1288402, "internal_node_id": "0.0-198.0-2.0"}}, {"uniqueid": "MTK0151:386PBUZZXG4OF6BKKZVTCKRP09GJLG", "current_trial": 273, "dateTime": 1509295278629, "trialdata": {"rt": -1, "stimulus": "<p id=\"stim\">7</p>", "key_press": -1, "trial_type": "single-stim", "trial_index": 273, "time_elapsed": 1289403, "internal_node_id": "0.0-198.0-3.0"}}, {"uniqueid": "MTK0151:386PBUZZXG4OF6BKKZVTCKRP09GJLG", "current_trial": 274, "dateTime": 1509295279632, "trialdata": {"rt": -1, "stimulus": "<p id=\"stim\">6</p>", "key_press": -1, "trial_type": "single-stim", "trial_index": 274, "