{"condition": 0, "counterbalance": 920, "assignmentId": "3XIQGXAUMDFQV5R7X99KKOH3IVFX7G", "workerId": "MTK0544", "hitId": "31YWE12TE0JO8LTD774IV4LJ4RL7XZ", "currenttrial": 626, "bonus": 0, "data": [{"uniqueid": "MTK0544:3XIQGXAUMDFQV5R7X99KKOH3IVFX7G", "current_trial": 0, "dateTime": 1511205724950, "trialdata": {"rt": 2129, "key_press": 73, "type": "INSTRUCTIONS", "trial_type": "text", "trial_index": 0, "time_elapsed": 2135, "internal_node_id": "0.0-0.0"}}, {"uniqueid": "MTK0544:3XIQGXAUMDFQV5R7X99KKOH3IVFX7G", "current_trial": 1, "dateTime": 1511205742530, "trialdata": {"rt": 17575, "key_press": 70, "type": "INSTRUCTIONS", "trial_type": "text", "trial_index": 1, "time_elapsed": 19714, "internal_node_id": "0.0-1.0"}}, {"uniqueid": "MTK0544:3XIQGXAUMDFQV5R7X99KKOH3IVFX7G", "current_trial": 2, "dateTime": 1511205758360, "trialdata": {"rt": [15795], "responses": ["ocean"], "type": "AUDIO_TEST", "trial_type": "audio-test", "trial_index": 2, "time_elapsed": 35544, "internal_node_id": "0.0-2.0"}}, {"uniqueid": "MTK0544:3XIQGXAUMDFQV5R7X99KKOH3IVFX7G", "current_trial": 3, "dateTime": 1511205764908, "trialdata": {"rt": [6534], "responses": ["crystal"], "type": "AUDIO_TEST", "trial_type": "audio-test", "trial_index": 3, "time_elapsed": 42093, "internal_node_id": "0.0-3.0"}}, {"uniqueid": "MTK0544:3XIQGXAUMDFQV5R7X99KKOH3IVFX7G", "current_trial": 4, "dateTime": 1511205770639, "trialdata": {"rt": [5716], "responses": ["spice"], "type": "AUDIO_TEST", "trial_type": "audio-test", "trial_index": 4, "time_elapsed": 47823, "internal_node_id": "0.0-4.0"}}, {"uniqueid": "MTK0544:3XIQGXAUMDFQV5R7X99KKOH3IVFX7G", "current_trial": 5, "dateTime": 1511205785918, "trialdata": {"rt": 14524, "responses": "{\"Q0\":\"11:00\",\"Q1\":\"7:00\",\"Q2\":\"5\"}", "type": "SLEEP_SURVEY", "trial_type": "survey-text", "trial_index": 5, "time_elapsed": 63103, "internal_node_id": "0.0-5.0"}}, {"uniqueid": "MTK0544:3XIQGXAUMDFQV5R7X99KKOH3IVFX7G", "current_trial": 6, "dateTime": 1511205814280, "trialdata": {"rt": 27357, "key_press": 71, "type": "INSTRUCTIONS", "trial_type": "text", "trial_index": 6, "time_elapsed": 91465, "internal_node_id": "0.0-6.0"}}, {"uniqueid": "MTK0544:3XIQGXAUMDFQV5R7X99KKOH3IVFX7G", "current_trial": 7, "dateTime": 1511205847670, "trialdata": {"rt": 32889, "key_press": 75, "type": "INSTRUCTIONS", "trial_type": "text", "trial_index": 7, "time_elapsed": 124855, "internal_node_id": "0.0-7.0"}}, {"uniqueid": "MTK0544:3XIQGXAUMDFQV5R7X99KKOH3IVFX7G", "current_trial": 8, "dateTime": 1511205865958, "trialdata": {"rt": 17785, "key_press": 76, "type": "INSTRUCTIONS", "trial_type": "text", "trial_index": 8, "time_elapsed": 143143, "internal_node_id": "0.0-8.0"}}, {"uniqueid": "MTK0544:3XIQGXAUMDFQV5R7X99KKOH3IVFX7G", "current_trial": 9, "dateTime": 1511205884973, "trialdata": {"rt": [4139, 11450, 14348, 17345], "responses": ["11", "20", "12", "14"], "num1": [3, 6, 8, 1, 6], "num2": [1, 8, 3, 4, 5], "num3": [7, 6, 1, 9, 7], "type": "DISTRACTOR", "conditions": [18, 1200, "a", 18000], "trial": 0, "trial_type": "math-distractor", "trial_index": 9, "time_elapsed": 162158, "internal_node_id": "0.0-9.0"}}, {"uniqueid": "MTK0544:3XIQGXAUMDFQV5R7X99KKOH3IVFX7G", "current_trial": 10, "dateTime": 1511205887979, "trialdata": {"rt": -1, "stimulus": "<p id=\"stim\">10</p>", "key_press": -1, "trial_type": "single-stim", "trial_index": 10, "time_elapsed": 165163, "internal_node_id": "0.0-10.0-0.0"}}, {"uniqueid": "MTK0544:3XIQGXAUMDFQV5R7X99KKOH3IVFX7G", "current_trial": 11, "dateTime": 1511205888982, "trialdata": {"rt": -1, "stimulus": "<p id=\"stim\">9</p>", "key_press": -1, "trial_type": "single-stim", "trial_index": 11, "time_elapsed": 166167, "internal_node_id": "0.0-10.0-1.0"}}, {"uniqueid": "MTK0544:3XIQGXAUMDFQV5R7X99KKOH3IVFX7G", "current_trial": 12, "dateTime": 1511205889985, "trialdata": {"rt": -1, "stimulus": "<p id=\"stim\">8</p>", "key_press": -1, "trial_type": "single-stim", "trial_index": 12, "time_elapsed": 167169, "internal_node_id": "0.0-10.0-2.0"}}, {"uniqueid": "MTK0544:3XIQGXAUMDFQV5R7X99KKOH3IVFX7G", "current_trial": 13, "dateTime": 1511205890987, "trialdata": {"rt": -1, "stimulus": "<p id=\"stim\">7</p>", "key_press": -1, "trial_type": "single-stim", "trial_index": 13, "time_elapsed": 168172, "internal_node_id": "0.0-10.0-3.0"}}, {"uniqueid": "MTK0544:3XIQGXAUMDFQV5R7X99KKOH3IVFX7G", "current_trial": 14, "dateTime": 1511205891989, "trialdata": {"rt": -1, "stimulus": "<p id=\"stim\">6</p>", "key_press": -1, "trial_type": "single-stim", "trial_index": 14, "time_elapsed": 169174, "internal_node_id": "0.0-10.0-4.0"}}, {"uniqueid": "MTK0544:3XIQGXAUMDFQV5R7X99KKOH3IVFX7G", "current_trial": 15, "dateTime": 1511205892993, "trialdata": {"rt": -1, "stimulus": "<p id=\"stim\">5</p>", "key_press": -1, "trial_type": "single-stim", "trial_index": 15, "time_elapsed": 170178, "internal_node_id": "0.0-10.0-5.0"}}, {"uniqueid": "MTK0544:3XIQGXAUMDFQV5R7X99KKOH3IVFX7G", "current_trial": 16, "dateTime": 1511205893997, "trialdata": {"rt": -1, "stimulus": "<p id=\"stim\">4</p>", "key_press": -1, "trial_type": "single-stim", "trial_index": 16, "time_elapsed": 171182, "internal_node_id": "0.0-10.0-6.0"}}, {"uniqueid": "MTK0544:3XIQGXAUMDFQV5R7X99KKOH3IVFX7G", "current_trial": 17, "dateTime": 1511205894999, "trialdata": {"rt": -1, "stimulus": "<p id=\"stim\">3</p>", "key_press": -1, "trial_type": "single-stim", "trial_index": 17, "time_elapsed": 172184, "internal_node_id": "0.0-10.0-7.0"}}, {"uniqueid": "MTK0544:3XIQGXAUMDFQV5R7X99KKOH3IVFX7G", "current_trial": 18, "dateTime": 1511205896003, "trialdata": {"rt": -1, "stimulus": "<p id=\"stim\">2</p>", "key_press": -1, "trial_type": "single-stim", "trial_index": 18, "time_elapsed": 173188, "internal_node_id": "0.0-10.0-8.0"}}, {"uniqueid": "MTK0544:3XIQGXAUMDFQV5R7X99KKOH3IVFX7G", "current_trial": 19, "dateTime": 1511205897005, "trialdata": {"rt": -1, "stimulus": "<p id=\"stim\">1</p>", "key_press": -1, "trial_type": "single-stim", "trial_index": 19, "time_elapsed": 174190, "internal_node_id": "0.0-10.0-9.0"}}, {"uniqueid": "MTK0544:3XIQGXAUMDFQV5R7X99KKOH3IVFX7G", "current_trial": 20, "dateTime": 1511205898509, "trialdata": {"rt": -1, "stimulus": "<p id=\"stim\">+</p>", "key_press": -1, "type": "FIXATION", "trial_type": "single-stim", "trial_index": 20, "time_elapsed": 175694, "internal_node_id": "0.0-11.0-0.0"}}, {"uniqueid": "MTK0544:3XIQGXAUMDFQV5R7X99KKOH3IVFX7G", "current_trial": 21, "dateTime": 1511205900623, "trialdata": {"rt": -1000, "stimulus": "/static/audio/wordpool/TAXI.wav", "key_press": -1, "type": "PRES_AUD", "word": "taxi", "wordID": 1437, "conditions": [18, 1200, "a", 18000], "trial": 0, "serialpos": 0, "trial_type": "single-audio", "trial_index": 21, "time_elapsed": 177808, "internal_node_id": "0.0-12.0"}}, {"uniqueid": "MTK0544:3XIQGXAUMDFQV5R7X99KKOH3IVFX7G", "current_trial": 22, "dateTime": 1511205902647, "trialdata": {"rt": -1000, "stimulus": "/static/audio/wordpool/TROMBONE.wav", "key_press": -1, "type": "PRES_AUD", "word": "trombone", "wordID": 1507, "conditions": [18, 1200, "a", 18000], "trial": 0, "serialpos": 1, "trial_type": "single-audio", "trial_index": 22, "time_elapsed": 179832, "internal_node_id": "0.0-13.0"}}, {"uniqueid": "MTK0544:3XIQGXAUMDFQV5R7X99KKOH3IVFX7G", "current_trial": 23, "dateTime": 1511205904707, "trialdata": {"rt": -1000, "stimulus": "/static/audio/wordpool/LOFT.wav", "key_press": -1, "type": "PRES_AUD", "word": "loft", "wordID": 839, "conditions": [18, 1200, "a", 18000], "trial": 0, "serialpos": 2, "trial_type": "single-audio", "trial_index": 23, "time_elapsed": 181892, "internal_node_id": "0.0-14.0"}}, {"uniqueid": "MTK0544:3XIQGXAUMDFQV5R7X99KKOH3IVFX7G", "current_trial": 24, "dateTime": 1511205906858, "trialdata": {"rt": -1000, "stimulus": "/static/audio/wordpool/WASHER.wav", "key_press": -1, "type": "PRES_AUD", "word": "washer", "wordID": 1591, "conditions": [18, 1200, "a", 18000], "trial": 0, "serialpos": 3, "trial_type": "single-audio", "trial_index": 24, "time_elapsed": 184043, "internal_node_id": "0.0-15.0"}}, {"uniqueid": "MTK0544:3XIQGXAUMDFQV5R7X99KKOH3IVFX7G", "current_trial": 25, "dateTime": 1511205909268, "trialdata": {"rt": -1000, "stimulus": "/static/audio/wordpool/HERO.wav", "key_press": -1, "type": "PRES_AUD", "word": "hero", "wordID": 705, "conditions": [18, 1200, "a", 18000], "trial": 0, "serialpos": 4, "trial_type": "single-audio", "trial_index": 25, "time_elapsed": 186453, "internal_node_id": "0.0-16.0"}}, {"uniqueid": "MTK0544:3XIQGXAUMDFQV5R7X99KKOH3IVFX7G", "current_trial": 26, "dateTime": 1511205911470, "trialdata": {"rt": -1000, "stimulus": "/static/audio/wordpool/TABLET.wav", "key_press": -1, "type": "PRES_AUD", "word": "tablet", "wordID": 1426, "conditions": [18, 1200, "a", 18000], "trial": 0, "serialpos": 5, "trial_type": "single-audio", "trial_index": 26, "time_elapsed": 188654, "internal_node_id": "0.0-17.0"}}, {"uniqueid": "MTK0544:3XIQGXAUMDFQV5R7X99KKOH3IVFX7G", "current_trial": 27, "dateTime": 1511205913619, "trialdata": {"rt": -1000, "stimulus": "/static/audio/wordpool/STALLION.wav", "key_press": -1, "type": "PRES_AUD", "word": "stallion", "wordID": 1368, "conditions": [18, 1200, "a", 18000], "trial": 0, "serialpos": 6, "trial_type": "single-audio", "trial_index": 27, "time_elapsed": 190804, "internal_node_id": "0.0-18.0"}}, {"uniqueid": "MTK0544:3XIQGXAUMDFQV5R7X99KKOH3IVFX7G", "current_trial": 28, "dateTime": 1511205915860, "trialdata": {"rt": -1000, "stimulus": "/static/audio/wordpool/COUNTY.wav", "key_press": -1, "type": "PRES_AUD", "word": "county", "wordID": 388, "conditions": [18, 1200, "a", 18000], "trial": 0, "serialpos": 7, "trial_type": "single-audio", "trial_index": 28, "time_elapsed": 193045, "internal_node_id": "0.0-19.0"}}, {"uniqueid": "MTK0544:3XIQGXAUMDFQV5R7X99KKOH3IVFX7G", "current_trial": 29, "dateTime": 1511205917886, "trialdata": {"rt": -1000, "stimulus": "/static/audio/wordpool/MACHINE.wav", "key_press": -1, "type": "PRES_AUD", "word": "machine", "wordID": 851, "conditions": [18, 1200, "a", 18000], "trial": 0, "serialpos": 8, "trial_type": "single-audio", "trial_index": 29, "time_elapsed": 195071, "internal_node_id": "0.0-20.0"}}, {"uniqueid": "MTK0544:3XIQGXAUMDFQV5R7X99KKOH3IVFX7G", "current_trial": 30, "dateTime": 1511205920049, "trialdata": {"rt": -1000, "stimulus": "/static/audio/wordpool/PALACE.wav", "key_press": -1, "type": "PRES_AUD", "word": "palace", "wordID": 1005, "conditions": [18, 1200, "a", 18000], "trial": 0, "serialpos": 9, "trial_type": "single-audio", "trial_index": 30, "time_elapsed": 197233, "internal_node_id": "0.0-21.0"}}, {"uniqueid": "MTK0544:3XIQGXAUMDFQV5R7X99KKOH3IVFX7G", "current_trial": 31, "dateTime": 1511205922350, "trialdata": {"rt": -1000, "stimulus": "/static/audio/wordpool/BREAST.wav", "key_press": -1, "type": "PRES_AUD", "word": "breast", "wordID": 170, "conditions": [18, 1200, "a", 18000], "trial": 0, "serialpos": 10, "trial_type": "single-audio", "trial_index": 31, "time_elapsed": 199535, "internal_node_id": "0.0-22.0"}}, {"uniqueid": "MTK0544:3XIQGXAUMDFQV5R7X99KKOH3IVFX7G", "current_trial": 32, "dateTime": 1511205924731, "trialdata": {"rt": -1000, "stimulus": "/static/audio/wordpool/HUMAN.wav", "key_press": -1, "type": "PRES_AUD", "word": "human", "wordID": 725, "conditions": [18, 1200, "a", 18000], "trial": 0, "serialpos": 11, "trial_type": "single-audio", "trial_index": 32, "time_elapsed": 201915, "internal_node_id": "0.0-23.0"}}, {"uniqueid": "MTK0544:3XIQGXAUMDFQV5R7X99KKOH3IVFX7G", "current_trial": 33, "dateTime": 1511205926770, "trialdata": {"rt": -1000, "stimulus": "/static/audio/wordpool/FRIEND.wav", "key_press": -1, "type": "PRES_AUD", "word": "friend", "wordID": 605, "conditions": [18, 1200, "a", 18000], "trial": 0, "serialpos": 12, "trial_type": "single-audio", "trial_index": 33, "time_elapsed": 203955, "internal_node_id": "0.0-24.0"}}, {"uniqueid": "MTK0544:3XIQGXAUMDFQV5R7X99KKOH3IVFX7G", "current_trial": 34, "dateTime": 1511205929129, "trialdata": {"rt": -1000, "stimulus": "/static/audio/wordpool/MARINE.wav", "key_press": -1, "type": "PRES_AUD", "word": "marine", "wordID": 868, "conditions": [18, 1200, "a", 18000], "trial": 0, "serialpos": 13, "trial_type": "single-audio", "trial_index": 34, "time_elapsed": 206314, "internal_node_id": "0.0-25.0"}}, {"uniqueid": "MTK0544:3XIQGXAUMDFQV5R7X99KKOH3IVFX7G", "current_trial": 35, "dateTime": 1511205931492, "trialdata": {"rt": -1000, "stimulus": "/static/audio/wordpool/PUDDING.wav", "key_press": -1, "type": "PRES_AUD", "word": "pudding", "wordID": 1138, "conditions": [18, 1200, "a", 18000], "trial": 0, "serialpos": 14, "trial_type": "single-audio", "trial_index": 35, "time_elapsed": 208676, "internal_node_id": "0.0-26.0"}}, {"uniqueid": "MTK0544:3XIQGXAUMDFQV5R7X99KKOH3IVFX7G", "current_trial": 36, "dateTime": 1511205933545, "trialdata": {"rt": -1000, "stimulus": "/static/audio/wordpool/FOOT.wav", "key_press": -1, "type": "PRES_AUD", "word": "foot", "wordID": 589, "conditions": [18, 1200, "a", 18000], "trial": 0, "serialpos": 15, "trial_type": "single-audio", "trial_index": 36, "time_elapsed": 210729, "internal_node_id": "0.0-27.0"}}, {"uniqueid": "MTK0544:3XIQGXAUMDFQV5R7X99KKOH3IVFX7G", "current_trial": 37, "dateTime": 1511205935569, "trialdata": {"rt": -1000, "stimulus": "/static/audio/wordpool/BRANCH.wav", "key_press": -1, "type": "PRES_AUD", "word": "branch", "wordID": 167, "conditions": [18, 1200, "a", 18000], "trial": 0, "serialpos": 16, "trial_type": "single-audio", "trial_index": 37, "time_elapsed": 212754, "internal_node_id": "0.0-28.0"}}, {"uniqueid": "MTK0544:3XIQGXAUMDFQV5R7X99KKOH3IVFX7G", "current_trial": 38, "dateTime": 1511205937863, "trialdata": {"rt": -1000, "stimulus": "/static/audio/wordpool/SNAIL.wav", "key_press": -1, "type": "PRES_AUD", "word": "snail", "wordID": 1331, "conditions": [18, 1200, "a", 18000], "trial": 0, "serialpos": 17, "trial_type": "single-audio", "trial_index": 38, "time_elapsed": 215048, "internal_node_id": "0.0-29.0"}}, {"uniqueid": "MTK0544:3XIQGXAUMDFQV5R7X99KKOH3IVFX7G", "current_trial": 39, "dateTime": 1511205939219, "trialdata": {"rt": -1, "stimulus": "", "key_press": -1, "type": "PRE_RECALL_DELAY", "trial_type": "single-stim", "trial_index": 39, "time_elapsed": 216404, "internal_node_id": "0.0-30.0-0.0"}}, {"uniqueid": "MTK0544:3XIQGXAUMDFQV5R7X99KKOH3IVFX7G", "current_trial": 40, "dateTime": 1511205939721, "trialdata": {"rt": -1000, "stimulus": "/static/audio/400Hz.wav", "key_press": -1, "type": "PRE_RECALL_ALERT", "trial_type": "single-audio", "trial_index": 40, "time_elapsed": 216906, "internal_node_id": "0.0-31.0"}}, {"uniqueid": "MTK0544:3XIQGXAUMDFQV5R7X99KKOH3IVFX7G", "current_trial": 41, "dateTime": 1511205999737, "trialdata": {"rt": [2371, 3440, 4541, 5396, 6814, 8004, 14978, 16377, 25736, 27338, 36474, 37577, 41944], "recwords": ["branch", "snail", "pudding", "foot", "stallion", "marine", "trombone", "taxi", "palace", "machiine", "human", "breast", "countee"], "type": "FREE_RECALL", "conditions": [18, 1200, "a", 18000], "trial": 0, "trial_type": "free-recall", "trial_index": 41, "time_elapsed": 276915, "internal_node_id": "0.0-32.0-0.0"}}, {"uniqueid": "MTK0544:3XIQGXAUMDFQV5R7X99KKOH3IVFX7G", "current_trial": 42, "dateTime": 1511206003367, "trialdata": {"rt": 1627, "key_press": 13, "type": "INSTRUCTIONS", "trial_type": "text", "trial_index": 42, "time_elapsed": 280552, "internal_node_id": "0.0-33.0"}}, {"uniqueid": "MTK0544:3XIQGXAUMDFQV5R7X99KKOH3IVFX7G", "current_trial": 43, "dateTime": 1511206023377, "trialdata": {"rt": [4297, 6786, 10467, 12707, 15262], "responses": ["12", "11", "23", "13", "10"], "num1": [4, 2, 5, 4, 5, 2], "num2": [1, 6, 9, 6, 3, 2], "num3": [7, 3, 9, 3, 2, 7], "type": "DISTRACTOR", "conditions": [18, 1200, "v", 18000], "trial": 1, "trial_type": "math-distractor", "trial_index": 43, "time_elapsed": 300562, "internal_node_id": "0.0-34.0"}}, {"uniqueid": "MTK0544:3XIQGXAUMDFQV5R7X99KKOH3IVFX7G", "current_trial": 44, "dateTime": 1511206026380, "trialdata": {"rt": -1, "stimulus": "<p id=\"stim\">10</p>", "key_press": -1, "trial_type": "single-stim", "trial_index": 44, "time_elapsed": 303565, "internal_node_id": "0.0-35.0-0.0"}}, {"uniqueid": "MTK0544:3XIQGXAUMDFQV5R7X99KKOH3IVFX7G", "current_trial": 45, "dateTime": 1511206027382, "trialdata": {"rt": -1, "stimulus": "<p id=\"stim\">9</p>", "key_press": -1, "trial_type": "single-stim", "trial_index": 45, "time_elapsed": 304567, "internal_node_id": "0.0-35.0-1.0"}}, {"uniqueid": "MTK0544:3XIQGXAUMDFQV5R7X99KKOH3IVFX7G", "current_trial": 46, "dateTime": 1511206028386, "trialdata": {"rt": -1, "stimulus": "<p id=\"stim\">8</p>", "key_press": -1, "trial_type": "single-stim", "trial_index": 46, "time_elapsed": 305571, "internal_node_id": "0.0-35.0-2.0"}}, {"uniqueid": "MTK0544:3XIQGXAUMDFQV5R7X99KKOH3IVFX7G", "current_trial": 47, "dateTime": 1511206029388, "trialdata": {"rt": -1, "stimulus": "<p id=\"stim\">7</p>", "key_press": -1, "trial_type": "single-stim", "trial_index": 47, "time_elapsed": 306573, "internal_node_id": "0.0-35.0-3.0"}}, {"uniqueid": "MTK0544:3XIQGXAUMDFQV5R7X99KKOH3IVFX7G", "current_trial": 48, "dateTime": 1511206030487, "trialdata": {"rt": -1, "stimulus": "<p id=\"stim\">6</p>", "key_press": -1, "trial_type": "single-stim", "trial_index": 48, "time_elapsed": 307672, "internal_node_id": "0.0-35.0-4.0"}}, {"uniqueid": "MTK0544:3XIQGXAUMDFQV5R7X99KKOH3IVFX7G", "current_trial": 49, "dateTime": 1511206031789, "trialdata": {"rt": -1, "stimulus": "<p id=\"stim\">5</p>", "key_press": -1, "trial_type": "single-stim", "trial_index": 49, "time_elapsed": 308973, "internal_node_id": "0.0-35.0-5.0"}}, {"uniqueid": "MTK0544:3XIQGXAUMDFQV5R7X99KKOH3IVFX7G", "current_trial": 50, "dateTime": 1511206032791, "trialdata": {"rt": -1, "stimulus": "<p id=\"stim\">4</p>", "key_press": -1, "trial_type": "single-stim", "trial_index": 50, "time_elapsed": 309976, "internal_node_id": "0.0-35.0-6.0"}}, {"uniqueid": "MTK0544:3XIQGXAUMDFQV5R7X99KKOH3IVFX7G", "current_trial": 51, "dateTime": 1511206033795, "trialdata": {"rt": -1, "stimulus": "<p id=\"stim\">3</p>", "key_press": -1, "trial_type": "single-stim", "trial_index": 51, "time_elapsed": 310980, "internal_node_id": "0.0-35.0-7.0"}}, {"uniqueid": "MTK0544:3XIQGXAUMDFQV5R7X99KKOH3IVFX7G", "current_trial": 52, "dateTime": 1511206034797, "trialdata": {"rt": -1, "stimulus": "<p id=\"stim\">2</p>", "key_press": -1, "trial_type": "single-stim", "trial_index": 52, "time_elapsed": 311982, "internal_node_id": "0.0-35.0-8.0"}}, {"uniqueid": "MTK0544:3XIQGXAUMDFQV5R7X99KKOH3IVFX7G", "current_trial": 53, "dateTime": 1511206035801, "trialdata": {"rt": -1, "stimulus": "<p id=\"stim\">1</p>", "key_press": -1, "trial_type": "single-stim", "trial_index": 53, "time_elapsed": 312986, "internal_node_id": "0.0-35.0-9.0"}}, {"uniqueid": "MTK0544:3XIQGXAUMDFQV5R7X99KKOH3IVFX7G", "current_trial": 54, "dateTime": 1511206037306, "trialdata": {"rt": -1, "stimulus": "<p id=\"stim\">+</p>", "key_press": -1, "type": "FIXATION", "trial_type": "single-stim", "trial_index": 54, "time_elapsed": 314490, "internal_node_id": "0.0-36.0-0.0"}}, {"uniqueid": "MTK0544:3XIQGXAUMDFQV5R7X99KKOH3IVFX7G", "current_trial": 55, "dateTime": 1511206038510, "trialdata": {"rt": -1, "stimulus": "<p id=\"stim\">SUNSET</p>", "key_press": -1, "type": "PRES_VIS", "word": "sunset", "wordID": 1407, "conditions": [18, 1200, "v", 18000], "trial": 1, "serialpos": 0, "trial_type": "single-stim", "trial_index": 55, "time_elapsed": 315695, "internal_node_id": "0.0-37.0"}}, {"uniqueid": "MTK0544:3XIQGXAUMDFQV5R7X99KKOH3IVFX7G", "current_trial": 56, "dateTime": 1511206040895, "trialdata": {"rt": -1, "stimulus": "<p id=\"stim\">SCOTCH</p>", "key_press": -1, "type": "PRES_VIS", "word": "scotch", "wordID": 1250, "conditions": [18, 1200, "v", 18000], "trial": 1, "serialpos": 1, "trial_type": "single-stim", "trial_index": 56, "time_elapsed": 318079, "internal_node_id": "0.0-38.0"}}, {"uniqueid": "MTK0544:3XIQGXAUMDFQV5R7X99KKOH3IVFX7G", "current_trial": 57, "dateTime": 1511206043052, "trialdata": {"rt": -1, "stimulus": "<p id=\"stim\">CANAL</p>", "key_press": -1, "type": "PRES_VIS", "word": "canal", "wordID": 225, "conditions": [18, 1200, "v", 18000], "trial": 1, "serialpos": 2, "trial_type": "single-stim", "trial_index": 57, "time_elapsed": 320236, "internal_node_id": "0.0-39.0"}}, {"uniqueid": "MTK0544:3XIQGXAUMDFQV5R7X99KKOH3IVFX7G", "current_trial": 58, "dateTime": 1511206045162, "trialdata": {"rt": -1, "stimulus": "<p id=\"stim\">SERVER</p>", "key_press": -1, "type": "PRES_VIS", "word": "server", "wordID": 1271, "conditions": [18, 1200, "v", 18000], "trial": 1, "serialpos": 3, "trial_type": "single-stim", "trial_index": 58, "time_elapsed": 322347, "internal_node_id": "0.0-40.0"}}, {"uniqueid": "MTK0544:3XIQGXAUMDFQV5R7X99KKOH3IVFX7G", "current_trial": 59, "dateTime": 1511206047520, "trialdata": {"rt": -1, "stimulus": "<p id=\"stim\">COOK</p>", "key_press": -1, "type": "PRES_VIS", "word": "cook", "wordID": 371, "conditions": [18, 1200, "v", 18000], "trial": 1, "serialpos": 4, "trial_type": "single-stim", "trial_index": 59, "time_elapsed": 324705, "internal_node_id": "0.0-41.0"}}, {"uniqueid": "MTK0544:3XIQGXAUMDFQV5R7X99KKOH3IVFX7G", "current_trial": 60, "dateTime": 1511206049907, "trialdata": {"rt": -1, "stimulus": "<p id=\"stim\">STONE</p>", "key_press": -1, "type": "PRES_VIS", "word": "stone", "wordID": 1384, "conditions": [18, 1200, "v", 18000], "trial": 1, "serialpos": 5, "trial_type": "single-stim", "trial_index": 60, "time_elapsed": 327091, "internal_node_id": "0.0-42.0"}}, {"uniqueid": "MTK0544:3XIQGXAUMDFQV5R7X99KKOH3IVFX7G", "current_trial": 61, "dateTime": 1511206051919, "trialdata": {"rt": -1, "stimulus": "<p id=\"stim\">ROOSTER</p>", "key_press": -1, "type": "PRES_VIS", "word": "rooster", "wordID": 1208, "conditions": [18, 1200, "v", 18000], "trial": 1, "serialpos": 6, "trial_type": "single-stim", "trial_index": 61, "time_elapsed": 329104, "internal_node_id": "0.0-43.0"}}, {"uniqueid": "MTK0544:3XIQGXAUMDFQV5R7X99KKOH3IVFX7G", "current_trial": 62, "dateTime": 1511206053972, "trialdata": {"rt": -1, "stimulus": "<p id=\"stim\">FRECKLE</p>", "key_press": -1, "type": "PRES_VIS", "word": "freckle", "wordID": 601, "conditions": [18, 1200, "v", 18000], "trial": 1, "serialpos": 7, "trial_type": "single-stim", "trial_index": 62, "time_elapsed": 331157, "internal_node_id": "0.0-44.0"}}, {"uniqueid": "MTK0544:3XIQGXAUMDFQV5R7X99KKOH3IVFX7G", "current_trial": 63, "dateTime": 1511206056225, "trialdata": {"rt": -1, "stimulus": "<p id=\"stim\">HOOK</p>", "key_press": -1, "type": "PRES_VIS", "word": "hook", "wordID": 714, "conditions": [18, 1200, "v", 18000], "trial": 1, "serialpos": 8, "trial_type": "single-stim", "trial_index": 63, "time_elapsed": 333410, "internal_node_id": "0.0-45.0"}}, {"uniqueid": "MTK0544:3XIQGXAUMDFQV5R7X99KKOH3IVFX7G", "current_trial": 64, "dateTime": 1511206058276, "trialdata": {"rt": -1, "stimulus": "<p id=\"stim\">CONVICT</p>", "key_press": -1, "type": "PRES_VIS", "word": "convict", "wordID": 370, "conditions": [18, 1200, "v", 18000], "trial": 1, "serialpos": 9, "trial_type": "single-stim", "trial_index": 64, "time_elapsed": 335461, "internal_node_id": "0.0-46.0"}}, {"uniqueid": "MTK0544:3XIQGXAUMDFQV5R7X99KKOH3IVFX7G", "current_trial": 65, "dateTime": 1511206060589, "trialdata": {"rt": -1, "stimulus": "<p id=\"stim\">SWIMMER</p>", "key_press": -1, "type": "PRES_VIS", "word": "swimmer", "wordID": 1419, "conditions": [18, 1200, "v", 18000], "trial": 1, "serialpos": 10, "trial_type": "single-stim", "trial_index": 65, "time_elapsed": 337774, "internal_node_id": "0.0-47.0"}}, {"uniqueid": "MTK0544:3XIQGXAUMDFQV5R7X99KKOH3IVFX7G", "current_trial": 66, "dateTime": 1511206062867, "trialdata": {"rt": -1, "stimulus": "<p id=\"stim\">CLAM</p>", "key_press": -1, "type": "PRES_VIS", "word": "clam", "wordID": 314, "conditions": [18, 1200, "v", 18000], "trial": 1, "serialpos": 11, "trial_type": "single-stim", "trial_index": 66, "time_elapsed": 340052, "internal_node_id": "0.0-48.0"}}, {"uniqueid": "MTK0544:3XIQGXAUMDFQV5R7X99KKOH3IVFX7G", "current_trial": 67, "dateTime": 1511206065261, "trialdata": {"rt": -1, "stimulus": "<p id=\"stim\">GRAVE</p>", "key_press": -1, "type": "PRES_VIS", "word": "grave", "wordID": 657, "conditions": [18, 1200, "v", 18000], "trial": 1, "serialpos": 12, "trial_type": "single-stim", "trial_index": 67, "time_elapsed": 342446, "internal_node_id": "0.0-49.0"}}, {"uniqueid": "MTK0544:3XIQGXAUMDFQV5R7X99KKOH3IVFX7G", "current_trial": 68, "dateTime": 1511206067309, "trialdata": {"rt": -1, "stimulus": "<p id=\"stim\">ANTLER</p>", "key_press": -1, "type": "PRES_VIS", "word": "antler", "wordID": 28, "conditions": [18, 1200, "v", 18000], "trial": 1, "serialpos": 13, "trial_type": "single-stim", "trial_index": 68, "time_elapsed": 344485, "internal_node_id": "0.0-50.0"}}, {"uniqueid": "MTK0544:3XIQGXAUMDFQV5R7X99KKOH3IVFX7G", "current_trial": 69, "dateTime": 1511206069318, "trialdata": {"rt": -1, "stimulus": "<p id=\"stim\">CYCLONE</p>", "key_press": -1, "type": "PRES_VIS", "word": "cyclone", "wordID": 430, "conditions": [18, 1200, "v", 18000], "trial": 1, "serialpos": 14, "trial_type": "single-stim", "trial_index": 69, "time_elapsed": 346503, "internal_node_id": "0.0-51.0"}}, {"uniqueid": "MTK0544:3XIQGXAUMDFQV5R7X99KKOH3IVFX7G", "current_trial": 70, "dateTime": 1511206071371, "trialdata": {"rt": -1, "stimulus": "<p id=\"stim\">KNAPSACK</p>", "key_press": -1, "type": "PRES_VIS", "word": "knapsack", "wordID": 782, "conditions": [18, 1200, "v", 18000], "trial": 1, "serialpos": 15, "trial_type": "single-stim", "trial_index": 70, "time_elapsed": 348556, "internal_node_id": "0.0-52.0"}}, {"uniqueid": "MTK0544:3XIQGXAUMDFQV5R7X99KKOH3IVFX7G", "current_trial": 71, "dateTime": 1511206073427, "trialdata": {"rt": -1, "stimulus": "<p id=\"stim\">ACTRESS</p>", "key_press": -1, "type": "PRES_VIS", "word": "actress", "wordID": 5, "conditions": [18, 1200, "v", 18000], "trial": 1, "serialpos": 16, "trial_type": "single-stim", "trial_index": 71, "time_elapsed": 350612, "internal_node_id": "0.0-53.0"}}, {"uniqueid": "MTK0544:3XIQGXAUMDFQV5R7X99KKOH3IVFX7G", "current_trial": 72, "dateTime": 1511206075828, "trialdata": {"rt": -1, "stimulus": "<p id=\"stim\">MONSTER</p>", "key_press": -1, "type": "PRES_VIS", "word": "monster", "wordID": 911, "conditions": [18, 1200, "v", 18000], "trial": 1, "serialpos": 17, "trial_type": "single-stim", "trial_index": 72, "time_elapsed": 353013, "internal_node_id": "0.0-54.0"}}, {"uniqueid": "MTK0544:3XIQGXAUMDFQV5R7X99KKOH3IVFX7G", "current_trial": 73, "dateTime": 1511206078325, "trialdata": {"rt": -1, "stimulus": "", "key_press": -1, "type": "PRE_RECALL_DELAY", "trial_type": "single-stim", "trial_index": 73, "time_elapsed": 355510, "internal_node_id": "0.0-55.0-0.0"}}, {"uniqueid": "MTK0544:3XIQGXAUMDFQV5R7X99KKOH3IVFX7G", "current_trial": 74, "dateTime": 1511206078828, "trialdata": {"rt": -1000, "stimulus": "/static/audio/400Hz.wav", "key_press": -1, "type": "PRE_RECALL_ALERT", "trial_type": "single-audio", "trial_index": 74, "time_elapsed": 356013, "internal_node_id": "0.0-56.0"}}, {"uniqueid": "MTK0544:3XIQGXAUMDFQV5R7X99KKOH3IVFX7G", "current_trial": 75, "dateTime": 1511206138843, "trialdata": {"rt": [3491, 4745, 8240, 10297, 21563, 26330, 40288, 41509], "recwords": ["actress", "monster", "cyclone", "knapsack", "stone", "swimmer", "freckle", "rooster"], "type": "FREE_RECALL", "conditions": [18, 1200, "v", 18000], "trial": 1, "trial_type": "free-recall", "trial_index": 75, "time_elapsed": 416022, "internal_node_id": "0.0-57.0-0.0"}}, {"uniqueid": "MTK0544:3XIQGXAUMDFQV5R7X99KKOH3IVFX7G", "current_trial": 76, "dateTime": 1511206142134, "trialdata": {"rt": 1275, "key_press": 13, "type": "INSTRUCTIONS", "trial_type": "text", "trial_index": 76, "time_elapsed": 419306, "internal_node_id": "0.0-58.0"}}, {"uniqueid": "MTK0544:3XIQGXAUMDFQV5R7X99KKOH3IVFX7G", "current_trial": 77, "dateTime": 1511206155144, "trialdata": {"rt": [5635, 8100, 10620], "responses": ["16", "11", "13"], "num1": [5, 3, 9, 4], "num2": [2, 3, 1, 9], "num3": [9, 5, 3, 5], "type": "DISTRACTOR", "conditions": [24, 800, "v", 12000], "trial": 2, "trial_type": "math-distractor", "trial_index": 77, "time_elapsed": 432328, "internal_node_id": "0.0-59.0"}}, {"uniqueid": "MTK0544:3XIQGXAUMDFQV5R7X99KKOH3IVFX7G", "current_trial": 78, "dateTime": 1511206158148, "trialdata": {"rt": -1, "stimulus": "<p id=\"stim\">10</p>", "key_press": -1, "trial_type": "single-stim", "trial_index": 78, "time_elapsed": 435333, "internal_node_id": "0.0-60.0-0.0"}}, {"uniqueid": "MTK0544:3XIQGXAUMDFQV5R7X99KKOH3IVFX7G", "current_trial": 79, "dateTime": 1511206159151, "trialdata": {"rt": -1, "stimulus": "<p id=\"stim\">9</p>", "key_press": -1, "trial_type": "single-stim", "trial_index": 79, "time_elapsed": 436336, "internal_node_id": "0.0-60.0-1.0"}}, {"uniqueid": "MTK0544:3XIQGXAUMDFQV5R7X99KKOH3IVFX7G", "current_trial": 80, "dateTime": 1511206160153, "trialdata": {"rt": -1, "stimulus": "<p id=\"stim\">8</p>", "key_press": -1, "trial_type": "single-stim", "trial_index": 80, "time_elapsed": 437338, "internal_node_id": "0.0-60.0-2.0"}}, {"uniqueid": "MTK0544:3XIQGXAUMDFQV5R7X99KKOH3IVFX7G", "current_trial": 81, "dateTime": 1511206161156, "trialdata": {"rt": -1, "stimulus": "<p id=\"stim\">7</p>", "key_press": -1, "trial_type": "single-stim", "trial_index": 81, "time_elapsed": 438341, "internal_node_id": "0.0-60.0-3.0"}}, {"uniqueid": "MTK0544:3XIQGXAUMDFQV5R7X99KKOH3IVFX7G", "current_trial": 82, "dateTime": 1511206162160, "trialdata": {"rt": -1, "stimulus": "<p id=\"stim\">6</p>", "key_press": -1, "trial_type": "single-stim", "trial_index": 82, "time_elapsed": 439344, "internal_node_id": "0.0-60.0-4.0"}}, {"uniqueid": "MTK0544:3XIQGXAUMDFQV5R7X99KKOH3IVFX7G", "current_trial": 83, "dateTime": 1511206163163, "trialdata": {"rt": -1, "stimulus": "<p id=\"stim\">5</p>", "key_press": -1, "trial_type": "single-stim", "trial_index": 83, "time_elapsed": 440348, "internal_node_id": "0.0-60.0-5.0"}}, {"uniqueid": "MTK0544:3XIQGXAUMDFQV5R7X99KKOH3IVFX7G", "current_trial": 84, "dateTime": 1511206164166, "trialdata": {"rt": -1, "stimulus": "<p id=\"stim\">4</p>", "key_press": -1, "trial_type": "single-stim", "trial_index": 84, "time_elapsed": 441351, "internal_node_id": "0.0-60.0-6.0"}}, {"uniqueid": "MTK0544:3XIQGXAUMDFQV5R7X99KKOH3IVFX7G", "current_trial": 85, "dateTime": 1511206165169, "trialdata": {"rt": -1, "stimulus": "<p id=\"stim\">3</p>", "key_press": -1, "trial_type": "single-stim", "trial_index": 85, "time_elapsed": 442354, "internal_node_id": "0.0-60.0-7.0"}}, {"uniqueid": "MTK0544:3XIQGXAUMDFQV5R7X99KKOH3IVFX7G", "current_trial": 86, "dateTime": 1511206166172, "trialdata": {"rt": -1, "stimulus": "<p id=\"stim\">2</p>", "key_press": -1, "trial_type": "single-stim", "trial_index": 86, "time_elapsed": 443357, "internal_node_id": "0.0-60.0-8.0"}}, {"uniqueid": "MTK0544:3XIQGXAUMDFQV5R7X99KKOH3IVFX7G", "current_trial": 87, "dateTime": 1511206167174, "trialdata": {"rt": -1, "stimulus": "<p id=\"stim\">1</p>", "key_press": -1, "trial_type": "single-stim", "trial_index": 87, "time_elapsed": 444359, "internal_node_id": "0.0-60.0-9.0"}}, {"uniqueid": "MTK0544:3XIQGXAUMDFQV5R7X99KKOH3IVFX7G", "current_trial": 88, "dateTime": 1511206168676, "trialdata": {"rt": -1, "stimulus": "<p id=\"stim\">+</p>", "key_press": -1, "type": "FIXATION", "trial_type": "single-stim", "trial_index": 88, "time_elapsed": 445861, "internal_node_id": "0.0-61.0-0.0"}}, {"uniqueid": "MTK0544:3XIQGXAUMDFQV5R7X99KKOH3IVFX7G", "current_trial": 89, "dateTime": 1511206169480, "trialdata": {"rt": -1, "stimulus": "<p id=\"stim\">BACON</p>", "key_press": -1, "type": "PRES_VIS", "word": "bacon", "wordID": 66, "conditions": [24, 800, "v", 12000], "trial": 2, "serialpos": 0, "trial_type": "single-stim", "trial_index": 89, "time_elapsed": 446665, "internal_node_id": "0.0-62.0"}}, {"uniqueid": "MTK0544:3XIQGXAUMDFQV5R7X99KKOH3IVFX7G", "current_trial": 90, "dateTime": 1511206171373, "trialdata": {"rt": -1, "stimulus": "<p id=\"stim\">KNIFE</p>", "key_press": -1, "type": "PRES_VIS", "word": "knife", "wordID": 784, "conditions": [24, 800, "v", 12000], "trial": 2, "serialpos": 1, "trial_type": "single-stim", "trial_index": 90, "time_elapsed": 448558, "internal_node_id": "0.0-63.0"}}, {"uniqueid": "MTK0544:3XIQGXAUMDFQV5R7X99KKOH3IVFX7G", "current_trial": 91, "dateTime": 1511206173073, "trialdata": {"rt": -1, "stimulus": "<p id=\"stim\">MARS</p>", "key_press": -1, "type": "PRES_VIS", "word": "mars", "wordID": 872, "conditions": [24, 800, "v", 12000], "trial": 2, "serialpos": 2, "trial_type": "single-stim", "trial_index": 91, "time_elapsed": 450258, "internal_node_id": "0.0-64.0"}}, {"uniqueid": "MTK0544:3XIQGXAUMDFQV5R7X99KKOH3IVFX7G", "current_trial": 92, "dateTime": 1511206175024, "trialdata": {"rt": -1, "stimulus": "<p id=\"stim\">ACTOR</p>", "key_press": -1, "type": "PRES_VIS", "word": "actor", "wordID": 4, "conditions": [24, 800, "v", 12000], "trial": 2, "serialpos": 3, "trial_type": "single-stim", "trial_index": 92, "time_elapsed": 452209, "internal_node_id": "0.0-65.0"}}, {"uniqueid": "MTK0544:3XIQGXAUMDFQV5R7X99KKOH3IVFX7G", "current_trial": 93, "dateTime": 1511206176726, "trialdata": {"rt": -1, "stimulus": "<p id=\"stim\">RIVER</p>", "key_press": -1, "type": "PRES_VIS", "word": "river", "wordID": 1193, "conditions": [24, 800, "v", 12000], "trial": 2, "serialpos": 4, "trial_type": "single-stim", "trial_index": 93, "time_elapsed": 453911, "internal_node_id": "0.0-66.0"}}, {"uniqueid": "MTK0544:3XIQGXAUMDFQV5R7X99KKOH3IVFX7G", "current_trial": 94, "dateTime": 1511206178393, "trialdata": {"rt": -1, "stimulus": "<p id=\"stim\">LAGOON</p>", "key_press": -1, "type": "PRES_VIS", "word": "lagoon", "wordID": 794, "conditions": [24, 800, "v", 12000], "trial": 2, "serialpos": 5, "trial_type": "single-stim", "trial_index": 94, "time_elapsed": 455578, "internal_node_id": "0.0-67.0"}}, {"uniqueid": "MTK0544:3XIQGXAUMDFQV5R7X99KKOH3IVFX7G", "current_trial": 95, "dateTime": 1511206180030, "trialdata": {"rt": -1, "stimulus": "<p id=\"stim\">POET</p>", "key_press": -1, "type": "PRES_VIS", "word": "poet", "wordID": 1094, "conditions": [24, 800, "v", 12000], "trial": 2, "serialpos": 6, "trial_type": "single-stim", "trial_index": 95, "time_elapsed": 457214, "internal_node_id": "0.0-68.0"}}, {"uniqueid": "MTK0544:3XIQGXAUMDFQV5R7X99KKOH3IVFX7G", "current_trial": 96, "dateTime": 1511206181832, "trialdata": {"rt": -1, "stimulus": "<p id=\"stim\">POSSUM</p>", "key_press": -1, "type": "PRES_VIS", "word": "possum", "wordID": 1111, "conditions": [24, 800, "v", 12000], "trial": 2, "serialpos": 7, "trial_type": "single-stim", "trial_index": 96, "time_elapsed": 459017, "internal_node_id": "0.0-69.0"}}, {"uniqueid": "MTK0544:3XIQGXAUMDFQV5R7X99KKOH3IVFX7G", "current_trial": 97, "dateTime": 1511206183529, "trialdata": {"rt": -1, "stimulus": "<p id=\"stim\">OMELET</p>", "key_press": -1, "type": "PRES_VIS", "word": "omelet", "wordID": 975, "conditions": [24, 800, "v", 12000], "trial": 2, "serialpos": 8, "trial_type": "single-stim", "trial_index": 97, "time_elapsed": 460714, "internal_node_id": "0.0-70.0"}}, {"uniqueid": "MTK0544:3XIQGXAUMDFQV5R7X99KKOH3IVFX7G", "current_trial": 98, "dateTime": 1511206185431, "trialdata": {"rt": -1, "stimulus": "<p id=\"stim\">TABLE</p>", "key_press": -1, "type": "PRES_VIS", "word": "table", "wordID": 1425, "conditions": [24, 800, "v", 12000], "trial": 2, "serialpos": 9, "trial_type": "single-stim", "trial_index": 98, "time_elapsed": 462616, "internal_node_id": "0.0-71.0"}}, {"uniqueid": "MTK0544:3XIQGXAUMDFQV5R7X99KKOH3IVFX7G", "current_trial": 99, "dateTime": 1511206187403, "trialdata": {"rt": -1, "stimulus": "<p id=\"stim\">FIREPLACE</p>", "key_press": -1, "type": "PRES_VIS", "word": "fireplace", "wordID": 569, "conditions": [24, 800, "v", 12000], "trial": 2, "serialpos": 10, "trial_type": "single-stim", "trial_index": 99, "time_elapsed": 464588, "internal_node_id": "0.0-72.0"}}, {"uniqueid": "MTK0544:3XIQGXAUMDFQV5R7X99KKOH3IVFX7G", "current_trial": 100, "dateTime": 1511206189060, "trialdata": {"rt": -1, "stimulus": "<p id=\"stim\">PLAID</p>", "key_press": -1, "type": "PRES_VIS", "word": "plaid", "wordID": 1079, "conditions": [24, 800, "v", 12000], "trial": 2, "serialpos": 11, "trial_type": "single-stim", "trial_index": 100, "time_elapsed": 466245, "internal_node_id": "0.0-73.0"}}, {"uniqueid": "MTK0544:3XIQGXAUMDFQV5R7X99KKOH3IVFX7G", "current_trial": 101, "dateTime": 1511206190808, "trialdata": {"rt": -1, "stimulus": "<p id=\"stim\">SCARF</p>", "key_press": -1, "type": "PRES_VIS", "word": "scarf", "wordID": 1245, "conditions": [24, 800, "v", 12000], "trial": 2, "serialpos": 12, "trial_type": "single-stim", "trial_index": 101, "time_elapsed": 467993, "internal_node_id": "0.0-74.0"}}, {"uniqueid": "MTK0544:3XIQGXAUMDFQV5R7X99KKOH3IVFX7G", "current_trial": 102, "dateTime": 1511206192598, "trialdata": {"rt": -1, "stimulus": "<p id=\"stim\">BLOUSE</p>", "key_press": -1, "type": "PRES_VIS", "word": "blouse", "wordID": 138, "conditions": [24, 800, "v", 12000], "trial": 2, "serialpos": 13, "trial_type": "single-stim", "trial_index": 102, "time_elapsed": 469783, "internal_node_id": "0.0-75.0"}}, {"uniqueid": "MTK0544:3XIQGXAUMDFQV5R7X99KKOH3IVFX7G", "current_trial": 103, "dateTime": 1511206194443, "trialdata": {"rt": -1, "stimulus": "<p id=\"stim\">CRIB</p>", "key_press": -1, "type": "PRES_VIS", "word": "crib", "wordID": 406, "conditions": [24, 800, "v", 12000], "trial": 2, "serialpos": 14, "trial_type": "single-stim", "trial_index": 103, "time_elapsed": 471628, "internal_node_id": "0.0-76.0"}}, {"uniqueid": "MTK0544:3XIQGXAUMDFQV5R7X99KKOH3IVFX7G", "current_trial": 104, "dateTime": 1511206196187, "trialdata": {"rt": -1, "stimulus": "<p id=\"stim\">KIDNEY</p>", "key_press": -1, "type": "PRES_VIS", "word": "kidney", "wordID": 775, "conditions": [24, 800, "v", 12000], "trial": 2, "serialpos": 15, "trial_type": "single-stim", "trial_index": 104, "time_elapsed": 473372, "internal_node_id": "0.0-77.0"}}, {"uniqueid": "MTK0544:3XIQGXAUMDFQV5R7X99KKOH3IVFX7G", "current_trial": 105, "dateTime": 1511206197866, "trialdata": {"rt": -1, "stimulus": "<p id=\"stim\">BOX</p>", "key_press": -1, "type": "PRES_VIS", "word": "box", "wordID": 158, "conditions": [24, 800, "v", 12000], "trial": 2, "serialpos": 16, "trial_type": "single-stim", "trial_index": 105, "time_elapsed": 475051, "internal_node_id": "0.0-78.0"}}, {"uniqueid": "MTK0544:3XIQGXAUMDFQV5R7X99KKOH3IVFX7G", "current_trial": 106, "dateTime": 1511206199497, "trialdata": {"rt": -1, "stimulus": "<p id=\"stim\">HEADBAND</p>", "key_press": -1, "type": "PRES_VIS", "word": "headband", "wordID": 695, "conditions": [24, 800, "v", 12000], "trial": 2, "serialpos": 17, "trial_type": "single-stim", "trial_index": 106, "time_elapsed": 476682, "internal_node_id": "0.0-79.0"}}, {"uniqueid": "MTK0544:3XIQGXAUMDFQV5R7X99KKOH3IVFX7G", "current_trial": 107, "dateTime": 1511206201468, "trialdata": {"rt": -1, "stimulus": "<p id=\"stim\">LASER</p>", "key_press": -1, "type": "PRES_VIS", "word": "laser", "wordID": 800, "conditions": [24, 800, "v", 12000], "trial": 2, "serialpos": 18, "trial_type": "single-stim", "trial_index": 107, "time_elapsed": 478653, "internal_node_id": "0.0-80.0"}}, {"uniqueid": "MTK0544:3XIQGXAUMDFQV5R7X99KKOH3IVFX7G", "current_trial": 108, "dateTime": 1511206203111, "trialdata": {"rt": -1, "stimulus": "<p id=\"stim\">INFANT</p>", "key_press": -1, "type": "PRES_VIS", "word": "infant", "wordID": 736, "conditions": [24, 800, "v", 12000], "trial": 2, "serialpos": 19, "trial_type": "single-stim", "trial_index": 108, "time_elapsed": 480295, "internal_node_id": "0.0-81.0"}}, {"uniqueid": "MTK0544:3XIQGXAUMDFQV5R7X99KKOH3IVFX7G", "current_trial": 109, "dateTime": 1511206204997, "trialdata": {"rt": -1, "stimulus": "<p id=\"stim\">PATROL</p>", "key_press": -1, "type": "PRES_VIS", "word": "patrol", "wordID": 1026, "conditions": [24, 800, "v", 12000], "trial": 2, "serialpos": 20, "trial_type": "single-stim", "trial_index": 109, "time_elapsed": 482182, "internal_node_id": "0.0-82.0"}}, {"uniqueid": "MTK0544:3XIQGXAUMDFQV5R7X99KKOH3IVFX7G", "current_trial": 110, "dateTime": 1511206206679, "trialdata": {"rt": -1, "stimulus": "<p id=\"stim\">RIFLE</p>", "key_press": -1, "type": "PRES_VIS", "word": "rifle", "wordID": 1191, "conditions": [24, 800, "v", 12000], "trial": 2, "serialpos": 21, "trial_type": "single-stim", "trial_index": 110, "time_elapsed": 483864, "internal_node_id": "0.0-83.0"}}, {"uniqueid": "MTK0544:3XIQGXAUMDFQV5R7X99KKOH3IVFX7G", "current_trial": 111, "dateTime": 1511206208448, "trialdata": {"rt": -1, "stimulus": "<p id=\"stim\">TYPIST</p>", "key_press": -1, "type": "PRES_VIS", "word": "typist", "wordID": 1531, "conditions": [24, 800, "v", 12000], "trial": 2, "serialpos": 22, "trial_type": "single-stim", "trial_index": 111, "time_elapsed": 485633, "internal_node_id": "0.0-84.0"}}, {"uniqueid": "MTK0544:3XIQGXAUMDFQV5R7X99KKOH3IVFX7G", "current_trial": 112, "dateTime": 1511206210234, "trialdata": {"rt": -1, "stimulus": "<p id=\"stim\">SCISSORS</p>", "key_press": -1, "type": "PRES_VIS", "word": "scissors", "wordID": 1249, "conditions": [24, 800, "v", 12000], "trial": 2, "serialpos": 23, "trial_type": "single-stim", "trial_index": 112, "time_elapsed": 487419, "internal_node_id": "0.0-85.0"}}, {"uniqueid": "MTK0544:3XIQGXAUMDFQV5R7X99KKOH3IVFX7G", "current_trial": 113, "dateTime": 1511206212551, "trialdata": {"rt": -1, "stimulus": "", "key_press": -1, "type": "PRE_RECALL_DELAY", "trial_type": "single-stim", "trial_index": 113, "time_elapsed": 489735, "internal_node_id": "0.0-86.0-0.0"}}, {"uniqueid": "MTK0544:3XIQGXAUMDFQV5R7X99KKOH3IVFX7G", "current_trial": 114, "dateTime": 1511206213053, "trialdata": {"rt": -1000, "stimulus": "/static/audio/400Hz.wav", "key_press": -1, "type": "PRE_RECALL_ALERT", "trial_type": "single-audio", "trial_index": 114, "time_elapsed": 490238, "internal_node_id": "0.0-87.0"}}, {"uniqueid": "MTK0544:3XIQGXAUMDFQV5R7X99KKOH3IVFX7G", "current_trial": 115, "dateTime": 1511206273086, "trialdata": {"rt": [2068, 3295, 4972, 6016, 7001, 8433, 13794, 14657, 16796, 18820, 31453], "recwords": ["scissors", "typist", "scarf", "blouse", "infant", "laser", "lagoon", "river", "bacon", "knife", "patrol"], "type": "FREE_RECALL", "conditions": [24, 800, "v", 12000], "trial": 2, "trial_type": "free-recall", "trial_index": 115, "time_elapsed": 550241, "internal_node_id": "0.0-88.0-0.0"}}, {"uniqueid": "MTK0544:3XIQGXAUMDFQV5R7X99KKOH3IVFX7G", "current_trial": 116, "dateTime": 1511206321112, "trialdata": {"rt": 45320, "key_press": 72, "type": "INSTRUCTIONS", "trial_type": "text", "trial_index": 116, "time_elapsed": 598297, "internal_node_id": "0.0-89.0"}}, {"uniqueid": "MTK0544:3XIQGXAUMDFQV5R7X99KKOH3IVFX7G", "current_trial": 117, "dateTime": 1511206347120, "trialdata": {"rt": [3460, 8895, 11758, 14579, 19095, 21247], "responses": ["16", "13", "20", "7", "23", "9"], "num1": [5, 7, 3, 3, 9, 2, 7], "num2": [4, 4, 8, 2, 9, 2, 5], "num3": [7, 2, 9, 2, 4, 5, 8], "type": "DISTRACTOR", "conditions": [24, 1600, "a", 24000], "trial": 3, "trial_type": "math-distractor", "trial_index": 117, "time_elapsed": 624305, "internal_node_id": "0.0-90.0"}}, {"uniqueid": "MTK0544:3XIQGXAUMDFQV5R7X99KKOH3IVFX7G", "current_trial": 118, "dateTime": 1511206350124, "trialdata": {"rt": -1, "stimulus": "<p id=\"stim\">10</p>", "key_press": -1, "trial_type": "single-stim", "trial_index": 118, "time_elapsed": 627309, "internal_node_id": "0.0-91.0-0.0"}}, {"uniqueid": "MTK0544:3XIQGXAUMDFQV5R7X99KKOH3IVFX7G", "current_trial": 119, "dateTime": 1511206351126, "trialdata": {"rt": -1, "stimulus": "<p id=\"stim\">9</p>", "key_press": -1, "trial_type": "single-stim", "trial_index": 119, "time_elapsed": 628311, "internal_node_id": "0.0-91.0-1.0"}}, {"uniqueid": "MTK0544:3XIQGXAUMDFQV5R7X99KKOH3IVFX7G", "current_trial": 120, "dateTime": 1511206352129, "trialdata": {"rt": -1, "stimulus": "<p id=\"stim\">8</p>", "key_press": -1, "trial_type": "single-stim", "trial_index": 120, "time_elapsed": 629314, "internal_node_id": "0.0-91.0-2.0"}}, {"uniqueid": "MTK0544:3XIQGXAUMDFQV5R7X99KKOH3IVFX7G", "current_trial": 121, "dateTime": 1511206353131, "trialdata": {"rt": -1, "stimulus": "<p id=\"stim\">7</p>", "key_press": -1, "trial_type": "single-stim", "trial_index": 121, "time_elapsed": 630316, "internal_node_id": "0.0-91.0-3.0"}}, {"uniqueid": "MTK0544:3XIQGXAUMDFQV5R7X99KKOH3IVFX7G", "current_trial": 122, "dateTime": 1511206354134, "trialdata": {"rt": -1, "stimulus": "<p id=\"stim\">6</p>", "key_press": -1, "trial_type": "single-stim", "trial_index": 122, "time_elapsed": 631319, "internal_node_id": "0.0-91.0-4.0"}}, {"uniqueid": "MTK0544:3XIQGXAUMDFQV5R7X99KKOH3IVFX7G", "current_trial": 123, "dateTime": 1511206355136, "trialdata": {"rt": -1, "stimulus": "<p id=\"stim\">5</p>", "key_press": -1, "trial_type": "single-stim", "trial_index": 123, "time_elapsed": 632321, "internal_node_id": "0.0-91.0-5.0"}}, {"uniqueid": "MTK0544:3XIQGXAUMDFQV5R7X99KKOH3IVFX7G", "current_trial": 124, "dateTime": 1511206356139, "trialdata": {"rt": -1, "stimulus": "<p id=\"stim\">4</p>", "key_press": -1, "trial_type": "single-stim", "trial_index": 124, "time_elapsed": 633324, "internal_node_id": "0.0-91.0-6.0"}}, {"uniqueid": "MTK0544:3XIQGXAUMDFQV5R7X99KKOH3IVFX7G", "current_trial": 125, "dateTime": 1511206357142, "trialdata": {"rt": -1, "stimulus": "<p id=\"stim\">3</p>", "key_press": -1, "trial_type": "single-stim", "trial_index": 125, "time_elapsed": 634327, "internal_node_id": "0.0-91.0-7.0"}}, {"uniqueid": "MTK0544:3XIQGXAUMDFQV5R7X99KKOH3IVFX7G", "current_trial": 126, "dateTime": 1511206358144, "trialdata": {"rt": -1, "stimulus": "<p id=\"stim\">2</p>", "key_press": -1, "trial_type": "single-stim", "trial_index": 126, "time_elapsed": 635329, "internal_node_id": "0.0-91.0-8.0"}}, {"uniqueid": "MTK0544:3XIQGXAUMDFQV5R7X99KKOH3IVFX7G", "current_trial": 127, "dateTime": 1511206359147, "trialdata": {"rt": -1, "stimulus": "<p id=\"stim\">1</p>", "key_press": -1, "trial_type": "single-stim", "trial_index": 127, "time_elapsed": 636332, "internal_node_id": "0.0-91.0-9.0"}}, {"uniqueid": "MTK0544:3XIQGXAUMDFQV5R7X99KKOH3IVFX7G", "current_trial": 128, "dateTime": 1511206360650, "trialdata": {"rt": -1, "stimulus": "<p id=\"stim\">+</p>", "key_press": -1, "type": "FIXATION", "trial_type": "single-stim", "trial_index": 128, "time_elapsed": 637835, "internal_node_id": "0.0-92.0-0.0"}}, {"uniqueid": "MTK0544:3XIQGXAUMDFQV5R7X99KKOH3IVFX7G", "current_trial": 129, "dateTime": 1511206363444, "trialdata": {"rt": -1000, "stimulus": "/static/audio/wordpool/TRUCK.wav", "key_press": -1, "type": "PRES_AUD", "word": "truck", "wordID": 1511, "conditions": [24, 1600, "a", 24000], "trial": 3, "serialpos": 0, "trial_type": "single-audio", "trial_index": 129, "time_elapsed": 640629, "internal_node_id": "0.0-93.0"}}, {"uniqueid": "MTK0544:3XIQGXAUMDFQV5R7X99KKOH3IVFX7G", "current_trial": 130, "dateTime": 1511206366178, "trialdata": {"rt": -1000, "stimulus": "/static/audio/wordpool/COSTUME.wav", "key_press": -1, "type": "PRES_AUD", "word": "costume", "wordID": 382, "conditions": [24, 1600, "a", 24000], "trial": 3, "serialpos": 1, "trial_type": "single-audio", "trial_index": 130, "time_elapsed": 643363, "internal_node_id": "0.0-94.0"}}, {"uniqueid": "MTK0544:3XIQGXAUMDFQV5R7X99KKOH3IVFX7G", "current_trial": 131, "dateTime": 1511206368798, "trialdata": {"rt": -1000, "stimulus": "/static/audio/wordpool/PUPPY.wav", "key_press": -1, "type": "PRES_AUD", "word": "puppy", "wordID": 1143, "conditions": [24, 1600, "a", 24000], "trial": 3, "serialpos": 2, "trial_type": "single-audio", "trial_index": 131, "time_elapsed": 645983, "internal_node_id": "0.0-95.0"}}, {"uniqueid": "MTK0544:3XIQGXAUMDFQV5R7X99KKOH3IVFX7G", "current_trial": 132, "dateTime": 1511206371416, "trialdata": {"rt": -1000, "stimulus": "/static/audio/wordpool/BEAST.wav", "key_press": -1, "type": "PRES_AUD", "word": "beast", "wordID": 107, "conditions": [24, 1600, "a", 24000], "trial": 3, "serialpos": 3, "trial_type": "single-audio", "trial_index": 132, "time_elapsed": 648601, "internal_node_id": "0.0-96.0"}}, {"uniqueid": "MTK0544:3XIQGXAUMDFQV5R7X99KKOH3IVFX7G", "current_trial": 133, "dateTime": 1511206373933, "trialdata": {"rt": -1000, "stimulus": "/static/audio/wordpool/BULLET.wav", "key_press": -1, "type": "PRES_AUD", "word": "bullet", "wordID": 193, "conditions": [24, 1600, "a", 24000], "trial": 3, "serialpos": 4, "trial_type": "single-audio", "trial_index": 133, "time_elapsed": 651117, "internal_node_id": "0.0-97.0"}}, {"uniqueid": "MTK0544:3XIQGXAUMDFQV5R7X99KKOH3IVFX7G", "current_trial": 134, "dateTime": 1511206376637, "trialdata": {"rt": -1000, "stimulus": "/static/audio/wordpool/PUDDLE.wav", "key_press": -1, "type": "PRES_AUD", "word": "puddle", "wordID": 1139, "conditions": [24, 1600, "a", 24000], "trial": 3, "serialpos": 5, "trial_type": "single-audio", "trial_index": 134, "time_elapsed": 653821, "internal_node_id": "0.0-98.0"}}, {"uniqueid": "MTK0544:3XIQGXAUMDFQV5R7X99KKOH3IVFX7G", "current_trial": 135, "dateTime": 1511206379302, "trialdata": {"rt": -1000, "stimulus": "/static/audio/wordpool/PISTON.wav", "key_press": -1, "type": "PRES_AUD", "word": "piston", "wordID": 1075, "conditions": [24, 1600, "a", 24000], "trial": 3, "serialpos": 6, "trial_type": "single-audio", "trial_index": 135, "time_elapsed": 656487, "internal_node_id": "0.0-99.0"}}, {"uniqueid": "MTK0544:3XIQGXAUMDFQV5R7X99KKOH3IVFX7G", "current_trial": 136, "dateTime": 1511206381933, "trialdata": {"rt": -1000, "stimulus": "/static/audio/wordpool/VALVE.wav", "key_press": -1, "type": "PRES_AUD", "word": "valve", "wordID": 1545, "conditions": [24, 1600, "a", 24000], "trial": 3, "serialpos": 7, "trial_type": "single-audio", "trial_index": 136, "time_elapsed": 659117, "internal_node_id": "0.0-100.0"}}, {"uniqueid": "MTK0544:3XIQGXAUMDFQV5R7X99KKOH3IVFX7G", "current_trial": 137, "dateTime": 1511206384471, "trialdata": {"rt": -1000, "stimulus": "/static/audio/wordpool/PEACH.wav", "key_press": -1, "type": "PRES_AUD", "word": "peach", "wordID": 1030, "conditions": [24, 1600, "a", 24000], "trial": 3, "serialpos": 8, "trial_type": "single-audio", "trial_index": 137, "time_elapsed": 661656, "internal_node_id": "0.0-101.0"}}, {"uniqueid": "MTK0544:3XIQGXAUMDFQV5R7X99KKOH3IVFX7G", "current_trial": 138, "dateTime": 1511206387034, "trialdata": {"rt": -1000, "stimulus": "/static/audio/wordpool/BLOCKADE.wav", "key_press": -1, "type": "PRES_AUD", "word": "blockade", "wordID": 136, "conditions": [24, 1600, "a", 24000], "trial": 3, "serialpos": 9, "trial_type": "single-audio", "trial_index": 138, "time_elapsed": 664218, "internal_node_id": "0.0-102.0"}}, {"uniqueid": "MTK0544:3XIQGXAUMDFQV5R7X99KKOH3IVFX7G", "current_trial": 139, "dateTime": 1511206389502, "trialdata": {"rt": -1000, "stimulus": "/static/audio/wordpool/FOREST.wav", "key_press": -1, "type": "PRES_AUD", "word": "forest", "wordID": 592, "conditions": [24, 1600, "a", 24000], "trial": 3, "serialpos": 10, "trial_type": "single-audio", "trial_index": 139, "time_elapsed": 666687, "internal_node_id": "0.0-103.0"}}, {"uniqueid": "MTK0544:3XIQGXAUMDFQV5R7X99KKOH3IVFX7G", "current_trial": 140, "dateTime": 1511206392244, "trialdata": {"rt": -1000, "stimulus": "/static/audio/wordpool/SCARECROW.wav", "key_press": -1, "type": "PRES_AUD", "word": "scarecrow", "wordID": 1244, "conditions": [24, 1600, "a", 24000], "trial": 3, "serialpos": 11, "trial_type": "single-audio", "trial_index": 140, "time_elapsed": 669428, "internal_node_id": "0.0-104.0"}}, {"uniqueid": "MTK0544:3XIQGXAUMDFQV5R7X99KKOH3IVFX7G", "current_trial": 141, "dateTime": 1511206394891, "trialdata": {"rt": -1000, "stimulus": "/static/audio/wordpool/CREVICE.wav", "key_press": -1, "type": "PRES_AUD", "word": "crevice", "wordID": 404, "conditions": [24, 1600, "a", 24000], "trial": 3, "serialpos": 12, "trial_type": "single-audio", "trial_index": 141, "time_elapsed": 672075, "internal_node_id": "0.0-105.0"}}, {"uniqueid": "MTK0544:3XIQGXAUMDFQV5R7X99KKOH3IVFX7G", "current_trial": 142, "dateTime": 1511206397462, "trialdata": {"rt": -1000, "stimulus": "/static/audio/wordpool/PILOT.wav", "key_press": -1, "type": "PRES_AUD", "word": "pilot", "wordID": 1069, "conditions": [24, 1600, "a", 24000], "trial": 3, "serialpos": 13, "trial_type": "single-audio", "trial_index": 142, "time_elapsed": 674647, "internal_node_id": "0.0-106.0"}}, {"uniqueid": "MTK0544:3XIQGXAUMDFQV5R7X99KKOH3IVFX7G", "current_trial": 143, "dateTime": 1511206400255, "trialdata": {"rt": -1000, "stimulus": "/static/audio/wordpool/COUCH.wav", "key_press": -1, "type": "PRES_AUD", "word": "couch", "wordID": 385, "conditions": [24, 1600, "a", 24000], "trial": 3, "serialpos": 14, "trial_type": "single-audio", "trial_index": 143, "time_elapsed": 677440, "internal_node_id": "0.0-107.0"}}, {"uniqueid": "MTK0544:3XIQGXAUMDFQV5R7X99KKOH3IVFX7G", "current_trial": 144, "dateTime": 1511206402967, "trialdata": {"rt": -1000, "stimulus": "/static/audio/wordpool/DANCER.wav", "key_press": -1, "type": "PRES_AUD", "word": "dancer", "wordID": 436, "conditions": [24, 1600, "a", 24000], "trial": 3, "serialpos": 15, "trial_type": "single-audio", "trial_index": 144, "time_elapsed": 680152, "internal_node_id": "0.0-108.0"}}, {"uniqueid": "MTK0544:3XIQGXAUMDFQV5R7X99KKOH3IVFX7G", "current_trial": 145, "dateTime": 1511206405407, "trialdata": {"rt": -1000, "stimulus": "/static/audio/wordpool/GYMNAST.wav", "key_press": -1, "type": "PRES_AUD", "word": "gymnast", "wordID": 674, "conditions": [24, 1600, "a", 24000], "trial": 3, "serialpos": 16, "trial_type": "single-audio", "trial_index": 145, "time_elapsed": 682591, "internal_node_id": "0.0-109.0"}}, {"uniqueid": "MTK0544:3XIQGXAUMDFQV5R7X99KKOH3IVFX7G", "current_trial": 146, "dateTime": 1511206408094, "trialdata": {"rt": -1000, "stimulus": "/static/audio/wordpool/PAPER.wav", "key_press": -1, "type": "PRES_AUD", "word": "paper", "wordID": 1010, "conditions": [24, 1600, "a", 24000], "trial": 3, "serialpos": 17, "trial_type": "single-audio", "trial_index": 146, "time_elapsed": 685278, "internal_node_id": "0.0-110.0"}}, {"uniqueid": "MTK0544:3XIQGXAUMDFQV5R7X99KKOH3IVFX7G", "current_trial": 147, "dateTime": 1511206410830, "trialdata": {"rt": -1000, "stimulus": "/static/audio/wordpool/PENGUIN.wav", "key_press": -1, "type": "PRES_AUD", "word": "penguin", "wordID": 1043, "conditions": [24, 1600, "a", 24000], "trial": 3, "serialpos": 18, "trial_type": "single-audio", "trial_index": 147, "time_elapsed": 688014, "internal_node_id": "0.0-111.0"}}, {"uniqueid": "MTK0544:3XIQGXAUMDFQV5R7X99KKOH3IVFX7G", "current_trial": 148, "dateTime": 1511206413536, "trialdata": {"rt": -1000, "stimulus": "/static/audio/wordpool/AIRPLANE.wav", "key_press": -1, "type": "PRES_AUD", "word": "airplane", "wordID": 11, "conditions": [24, 1600, "a", 24000], "trial": 3, "serialpos": 19, "trial_type": "single-audio", "trial_index": 148, "time_elapsed": 690721, "internal_node_id": "0.0-112.0"}}, {"uniqueid": "MTK0544:3XIQGXAUMDFQV5R7X99KKOH3IVFX7G", "current_trial": 149, "dateTime": 1511206415958, "trialdata": {"rt": -1000, "stimulus": "/static/audio/wordpool/OX.wav", "key_press": -1, "type": "PRES_AUD", "word": "ox", "wordID": 993, "conditions": [24, 1600, "a", 24000], "trial": 3, "serialpos": 20, "trial_type": "single-audio", "trial_index": 149, "time_elapsed": 693142, "internal_node_id": "0.0-113.0"}}, {"uniqueid": "MTK0544:3XIQGXAUMDFQV5R7X99KKOH3IVFX7G", "current_trial": 150, "dateTime": 1511206418642, "trialdata": {"rt": -1000, "stimulus": "/static/audio/wordpool/MATTRESS.wav", "key_press": -1, "type": "PRES_AUD", "word": "mattress", "wordID": 878, "conditions": [24, 1600, "a", 24000], "trial": 3, "serialpos": 21, "trial_type": "single-audio", "trial_index": 150, "time_elapsed": 695826, "internal_node_id": "0.0-114.0"}}, {"uniqueid": "MTK0544:3XIQGXAUMDFQV5R7X99KKOH3IVFX7G", "current_trial": 151, "dateTime": 1511206421349, "trialdata": {"rt": -1000, "stimulus": "/static/audio/wordpool/SEAGULL.wav", "key_press": -1, "type": "PRES_AUD", "word": "seagull", "wordID": 1260, "conditions": [24, 1600, "a", 24000], "trial": 3, "serialpos": 22, "trial_type": "single-audio", "trial_index": 151, "time_elapsed": 698534, "internal_node_id": "0.0-115.0"}}, {"uniqueid": "MTK0544:3XIQGXAUMDFQV5R7X99KKOH3IVFX7G", "current_trial": 152, "dateTime": 1511206424122, "trialdata": {"rt": -1000, "stimulus": "/static/audio/wordpool/ICEBERG.wav", "key_press": -1, "type": "PRES_AUD", "word": "iceberg", "wordID": 730, "conditions": [24, 1600, "a", 24000], "trial": 3, "serialpos": 23, "trial_type": "single-audio", "trial_index": 152, "time_elapsed": 701307, "internal_node_id": "0.0-116.0"}}, {"uniqueid": "MTK0544:3XIQGXAUMDFQV5R7X99KKOH3IVFX7G", "current_trial": 153, "dateTime": 1511206425437, "trialdata": {"rt": -1, "stimulus": "", "key_press": -1, "type": "PRE_RECALL_DELAY", "trial_type": "single-stim", "trial_index": 153, "time_elapsed": 702622, "internal_node_id": "0.0-117.0-0.0"}}, {"uniqueid": "MTK0544:3XIQGXAUMDFQV5R7X99KKOH3IVFX7G", "current_trial": 154, "dateTime": 1511206425940, "trialdata": {"rt": -1000, "stimulus": "/static/audio/400Hz.wav", "key_press": -1, "type": "PRE_RECALL_ALERT", "trial_type": "single-audio", "trial_index": 154, "time_elapsed": 703125, "internal_node_id": "0.0-118.0"}}, {"uniqueid": "MTK0544:3XIQGXAUMDFQV5R7X99KKOH3IVFX7G", "current_trial": 155, "dateTime": 1511206485957, "trialdata": {"rt": [1492, 2931, 5415, 9198, 15310, 16118, 29802, 30818, 40185, 49425, 56304], "recwords": ["iceberg", "seagull", "mattress", "piston", "penguin", "paper", "airplane", "forest", "crevice", "chalk", "costume"], "type": "FREE_RECALL", "conditions": [24, 1600, "a", 24000], "trial": 3, "trial_type": "free-recall", "trial_index": 155, "time_elapsed": 763133, "internal_node_id": "0.0-119.0-0.0"}}, {"uniqueid": "MTK0544:3XIQGXAUMDFQV5R7X99KKOH3IVFX7G", "current_trial": 156, "dateTime": 1511206490755, "trialdata": {"rt": 2796, "key_press": 13, "type": "INSTRUCTIONS", "trial_type": "text", "trial_index": 156, "time_elapsed": 767939, "internal_node_id": "0.0-120.0"}}, {"uniqueid": "MTK0544:3XIQGXAUMDFQV5R7X99KKOH3IVFX7G", "current_trial": 157, "dateTime": 1511206516764, "trialdata": {"rt": [4139, 6177, 9795, 12454, 14938, 17736, 21478], "responses": ["13", "14", "22", "20", "11", "15", "20"], "num1": [6, 1, 9, 7, 5, 3, 9, 7], "num2": [2, 9, 8, 5, 1, 4, 5, 7], "num3": [5, 4, 5, 8, 5, 8, 6, 5], "type": "DISTRACTOR", "conditions": [12, 800, "v", 24000], "trial": 4, "trial_type": "math-distractor", "trial_index": 157, "time_elapsed": 793949, "internal_node_id": "0.0-121.0"}}, {"uniqueid": "MTK0544:3XIQGXAUMDFQV5R7X99KKOH3IVFX7G", "current_trial": 158, "dateTime": 1511206519947, "trialdata": {"rt": -1, "stimulus": "<p id=\"stim\">10</p>", "key_press": -1, "trial_type": "single-stim", "trial_index": 158, "time_elapsed": 797132, "internal_node_id": "0.0-122.0-0.0"}}, {"uniqueid": "MTK0544:3XIQGXAUMDFQV5R7X99KKOH3IVFX7G", "current_trial": 159, "dateTime": 1511206520948, "trialdata": {"rt": -1, "stimulus": "<p id=\"stim\">9</p>", "key_press": -1, "trial_type": "single-stim", "trial_index": 159, "time_elapsed": 798132, "internal_node_id": "0.0-122.0-1.0"}}, {"uniqueid": "MTK0544:3XIQGXAUMDFQV5R7X99KKOH3IVFX7G", "current_trial": 160, "dateTime": 1511206521950, "trialdata": {"rt": -1, "stimulus": "<p id=\"stim\">8</p>", "key_press": -1, "trial_type": "single-stim", "trial_index": 160, "time_elapsed": 799135, "internal_node_id": "0.0-122.0-2.0"}}, {"uniqueid": "MTK0544:3XIQGXAUMDFQV5R7X99KKOH3IVFX7G", "current_trial": 161, "dateTime": 1511206522953, "trialdata": {"rt": -1, "stimulus": "<p id=\"stim\">7</p>", "key_press": -1, "trial_type": "single-stim", "trial_index": 161, "time_elapsed": 800138, "internal_node_id": "0.0-122.0-3.0"}}, {"uniqueid": "MTK0544:3XIQGXAUMDFQV5R7X99KKOH3IVFX7G", "current_trial": 162, "dateTime": 1511206523955, "trialdata": {"rt": -1, "stimulus": "<p id=\"stim\">6</p>", "key_press": -1, "trial_type": "single-stim", "trial_index": 162, "time_elapsed": 801140, "internal_node_id": "0.0-122.0-4.0"}}, {"uniqueid": "MTK0544:3XIQGXAUMDFQV5R7X99KKOH3IVFX7G", "current_trial": 163, "dateTime": 1511206524958, "trialdata": {"rt": -1, "stimulus": "<p id=\"stim\">5</p>", "key_press": -1, "trial_type": "single-stim", "trial_index": 163, "time_elapsed": 802143, "internal_node_id": "0.0-122.0-5.0"}}, {"uniqueid": "MTK0544:3XIQGXAUMDFQV5R7X99KKOH3IVFX7G", "current_trial": 164, "dateTime": 1511206525960, "trialdata": {"rt": -1, "stimulus": "<p id=\"stim\">4</p>", "key_press": -1, "trial_type": "single-stim", "trial_index": 164, "time_elapsed": 803145, "internal_node_id": "0.0-122.0-6.0"}}, {"uniqueid": "MTK0544:3XIQGXAUMDFQV5R7X99KKOH3IVFX7G", "current_trial": 165, "dateTime": 1511206526963, "trialdata": {"rt": -1, "stimulus": "<p id=\"stim\">3</p>", "key_press": -1, "trial_type": "single-stim", "trial_index": 165, "time_elapsed": 804148, "internal_node_id": "0.0-122.0-7.0"}}, {"uniqueid": "MTK0544:3XIQGXAUMDFQV5R7X99KKOH3IVFX7G", "current_trial": 166, "dateTime": 1511206527966, "trialdata": {"rt": -1, "stimulus": "<p id=\"stim\">2</p>", "key_press": -1, "trial_type": "single-stim", "trial_index": 166, "time_elapsed": 805151, "internal_node_id": "0.0-122.0-8.0"}}, {"uniqueid": "MTK0544:3XIQGXAUMDFQV5R7X99KKOH3IVFX7G", "current_trial": 167, "dateTime": 1511206528967, "trialdata": {"rt": -1, "stimulus": "<p id=\"stim\">1</p>", "key_press": -1, "trial_type": "single-stim", "trial_index": 167, "time_elapsed": 806152, "internal_node_id": "0.0-122.0-9.0"}}, {"uniqueid": "MTK0544:3XIQGXAUMDFQV5R7X99KKOH3IVFX7G", "current_trial": 168, "dateTime": 1511206530470, "trialdata": {"rt": -1, "stimulus": "<p id=\"stim\">+</p>", "key_press": -1, "type": "FIXATION", "trial_type": "single-stim", "trial_index": 168, "time_elapsed": 807655, "internal_node_id": "0.0-123.0-0.0"}}, {"uniqueid": "MTK0544:3XIQGXAUMDFQV5R7X99KKOH3IVFX7G", "current_trial": 169, "dateTime": 1511206531273, "trialdata": {"rt": -1, "stimulus": "<p id=\"stim\">STAMP</p>", "key_press": -1, "type": "PRES_VIS", "word": "stamp", "wordID": 1369, "conditions": [12, 800, "v", 24000], "trial": 4, "serialpos": 0, "trial_type": "single-stim", "trial_index": 169, "time_elapsed": 808458, "internal_node_id": "0.0-124.0"}}, {"uniqueid": "MTK0544:3XIQGXAUMDFQV5R7X99KKOH3IVFX7G", "current_trial": 170, "dateTime": 1511206532916, "trialdata": {"rt": -1, "stimulus": "<p id=\"stim\">COOKBOOK</p>", "key_press": -1, "type": "PRES_VIS", "word": "cookbook", "wordID": 372, "conditions": [12, 800, "v", 24000], "trial": 4, "serialpos": 1, "trial_type": "single-stim", "trial_index": 170, "time_elapsed": 810101, "internal_node_id": "0.0-125.0"}}, {"uniqueid": "MTK0544:3XIQGXAUMDFQV5R7X99KKOH3IVFX7G", "current_trial": 171, "dateTime": 1511206534724, "trialdata": {"rt": -1, "stimulus": "<p id=\"stim\">GIRL</p>", "key_press": -1, "type": "PRES_VIS", "word": "girl", "wordID": 636, "conditions": [12, 800, "v", 24000], "trial": 4, "serialpos": 2, "trial_type": "single-stim", "trial_index": 171, "time_elapsed": 811909, "internal_node_id": "0.0-126.0"}}, {"uniqueid": "MTK0544:3XIQGXAUMDFQV5R7X99KKOH3IVFX7G", "current_trial": 172, "dateTime": 1511206536442, "trialdata": {"rt": -1, "stimulus": "<p id=\"stim\">BLACKBOARD</p>", "key_press": -1, "type": "PRES_VIS", "word": "blackboard", "wordID": 132, "conditions": [12, 800, "v", 24000], "trial": 4, "serialpos": 3, "trial_type": "single-stim", "trial_index": 172, "time_elapsed": 813627, "internal_node_id": "0.0-127.0"}}, {"uniqueid": "MTK0544:3XIQGXAUMDFQV5R7X99KKOH3IVFX7G", "current_trial": 173, "dateTime": 1511206538149, "trialdata": {"rt": -1, "stimulus": "<p id=\"stim\">CASHEW</p>", "key_press": -1, "type": "PRES_VIS", "word": "cashew", "wordID": 252, "conditions": [12, 800, "v", 24000], "trial": 4, "serialpos": 4, "trial_type": "single-stim", "trial_index": 173, "time_elapsed": 815334, "internal_node_id": "0.0-128.0"}}, {"uniqueid": "MTK0544:3XIQGXAUMDFQV5R7X99KKOH3IVFX7G", "current_trial": 174, "dateTime": 1511206540088, "trialdata": {"rt": -1, "stimulus": "<p id=\"stim\">GALLON</p>", "key_press": -1, "type": "PRES_VIS", "word": "gallon", "wordID": 617, "conditions": [12, 800, "v", 24000], "trial": 4, "serialpos": 5, "trial_type": "single-stim", "trial_index": 174, "time_elapsed": 817273, "internal_node_id": "0.0-129.0"}}, {"uniqueid": "MTK0544:3XIQGXAUMDFQV5R7X99KKOH3IVFX7G", "current_trial": 175, "dateTime": 1511206541846, "trialdata": {"rt": -1, "stimulus": "<p id=\"stim\">DOUGHNUT</p>", "key_press": -1, "type": "PRES_VIS", "word": "doughnut", "wordID": 489, "conditions": [12, 800, "v", 24000], "trial": 4, "serialpos": 6, "trial_type": "single-stim", "trial_index": 175, "time_elapsed": 819031, "internal_node_id": "0.0-130.0"}}, {"uniqueid": "MTK0544:3XIQGXAUMDFQV5R7X99KKOH3IVFX7G", "current_trial": 176, "dateTime": 1511206543531, "trialdata": {"rt": -1, "stimulus": "<p id=\"stim\">COUNTRY</p>", "key_press": -1, "type": "PRES_VIS", "word": "country", "wordID": 387, "conditions": [12, 800, "v", 24000], "trial": 4, "serialpos": 7, "trial_type": "single-stim", "trial_index": 176, "time_elapsed": 820716, "internal_node_id": "0.0-131.0"}}, {"uniqueid": "MTK0544:3XIQGXAUMDFQV5R7X99KKOH3IVFX7G", "current_trial": 177, "dateTime": 1511206545484, "trialdata": {"rt": -1, "stimulus": "<p id=\"stim\">UNCLE</p>", "key_press": -1, "type": "PRES_VIS", "word": "uncle", "wordID": 1535, "conditions": [12, 800, "v", 24000], "trial": 4, "serialpos": 8, "trial_type": "single-stim", "trial_index": 177, "time_elapsed": 822668, "internal_node_id": "0.0-132.0"}}, {"uniqueid": "MTK0544:3XIQGXAUMDFQV5R7X99KKOH3IVFX7G", "current_trial": 178, "dateTime": 1511206547411, "trialdata": {"rt": -1, "stimulus": "<p id=\"stim\">WIFE</p>", "key_press": -1, "type": "PRES_VIS", "word": "wife", "wordID": 1608, "conditions": [12, 800, "v", 24000], "trial": 4, "serialpos": 9, "trial_type": "single-stim", "trial_index": 178, "time_elapsed": 824596, "internal_node_id": "0.0-133.0"}}, {"uniqueid": "MTK0544:3XIQGXAUMDFQV5R7X99KKOH3IVFX7G", "current_trial": 179, "dateTime": 1511206549143, "trialdata": {"rt": -1, "stimulus": "<p id=\"stim\">DAUGHTER</p>", "key_press": -1, "type": "PRES_VIS", "word": "daughter", "wordID": 441, "conditions": [12, 800, "v", 24000], "trial": 4, "serialpos": 10, "trial_type": "single-stim", "trial_index": 179, "time_elapsed": 826327, "internal_node_id": "0.0-134.0"}}, {"uniqueid": "MTK0544:3XIQGXAUMDFQV5R7X99KKOH3IVFX7G", "current_trial": 180, "dateTime": 1511206550899, "trialdata": {"rt": -1, "stimulus": "<p id=\"stim\">EMPIRE</p>", "key_press": -1, "type": "PRES_VIS", "word": "empire", "wordID": 529, "conditions": [12, 800, "v", 24000], "trial": 4, "serialpos": 11, "trial_type": "single-stim", "trial_index": 180, "time_elapsed": 828084, "internal_node_id": "0.0-135.0"}}, {"uniqueid": "MTK0544:3XIQGXAUMDFQV5R7X99KKOH3IVFX7G", "current_trial": 181, "dateTime": 1511206552987, "trialdata": {"rt": -1, "stimulus": "", "key_press": -1, "type": "PRE_RECALL_DELAY", "trial_type": "single-stim", "trial_index": 181, "time_elapsed": 830172, "internal_node_id": "0.0-136.0-0.0"}}, {"uniqueid": "MTK0544:3XIQGXAUMDFQV5R7X99KKOH3IVFX7G", "current_trial": 182, "dateTime": 1511206553490, "trialdata": {"rt": -1000, "stimulus": "/static/audio/400Hz.wav", "key_press": -1, "type": "PRE_RECALL_ALERT", "trial_type": "single-audio", "trial_index": 182, "time_elapsed": 830675, "internal_node_id": "0.0-137.0"}}, {"uniqueid": "MTK0544:3XIQGXAUMDFQV5R7X99KKOH3IVFX7G", "current_trial": 183, "dateTime": 1511206613508, "trialdata": {"rt": [1753, 2588, 3403, 4084, 7379, 24704, 31183, 59560], "recwords": ["daughter", "empire", "uncle", "wife", "doughnut", "girl", "country", "stamp"], "type": "FREE_RECALL", "conditions": [12, 800, "v", 24000], "trial": 4, "trial_type": "free-recall", "trial_index": 183, "time_elapsed": 890677, "internal_node_id": "0.0-138.0-0.0"}}, {"uniqueid": "MTK0544:3XIQGXAUMDFQV5R7X99KKOH3IVFX7G", "current_trial": 184, "dateTime": 1511206677347, "trialdata": {"rt": 61832, "key_press": 74, "type": "INSTRUCTIONS", "trial_type": "text", "trial_index": 184, "time_elapsed": 954532, "internal_node_id": "0.0-139.0"}}, {"uniqueid": "MTK0544:3XIQGXAUMDFQV5R7X99KKOH3IVFX7G", "current_trial": 185, "dateTime": 1511206691357, "trialdata": {"rt": [2847, 6843, 10311], "responses": ["14", "19", "17"], "num1": [4, 8, 9, 7], "num2": [3, 6, 3, 8], "num3": [7, 5, 5, 1], "type": "DISTRACTOR", "conditions": [24, 1600, "a", 12000], "trial": 5, "trial_type": "math-distractor", "trial_index": 185, "time_elapsed": 968542, "internal_node_id": "0.0-140.0"}}, {"uniqueid": "MTK0544:3XIQGXAUMDFQV5R7X99KKOH3IVFX7G", "current_trial": 186, "dateTime": 1511206694360, "trialdata": {"rt": -1, "stimulus": "<p id=\"stim\">10</p>", "key_press": -1, "trial_type": "single-stim", "trial_index": 186, "time_elapsed": 971545, "internal_node_id": "0.0-141.0-0.0"}}, {"uniqueid": "MTK0544:3XIQGXAUMDFQV5R7X99KKOH3IVFX7G", "current_trial": 187, "dateTime": 1511206695363, "trialdata": {"rt": -1, "stimulus": "<p id=\"stim\">9</p>", "key_press": -1, "trial_type": "single-stim", "trial_index": 187, "time_elapsed": 972548, "internal_node_id": "0.0-141.0-1.0"}}, {"uniqueid": "MTK0544:3XIQGXAUMDFQV5R7X99KKOH3IVFX7G", "current_trial": 188, "dateTime": 1511206696365, "trialdata": {"rt": -1, "stimulus": "<p id=\"stim\">8</p>", "key_press": -1, "trial_type": "single-stim", "trial_index": 188, "time_elapsed": 973550, "internal_node_id": "0.0-141.0-2.0"}}, {"uniqueid": "MTK0544:3XIQGXAUMDFQV5R7X99KKOH3IVFX7G", "current_trial": 189, "dateTime": 1511206697369, "trialdata": {"rt": -1, "stimulus": "<p id=\"stim\">7</p>", "key_press": -1, "trial_type": "single-stim", "trial_index": 189, "time_elapsed": 974554, "internal_node_id": "0.0-141.0-3.0"}}, {"uniqueid": "MTK0544:3XIQGXAUMDFQV5R7X99KKOH3IVFX7G", "current_trial": 190, "dateTime": 1511206698373, "trialdata": {"rt": -1, "stimulus": "<p id=\"stim\">6</p>", "key_press": -1, "trial_type": "single-stim", "trial_index": 190, "time_elapsed": 975557, "internal_node_id": "0.0-141.0-4.0"}}, {"uniqueid": "MTK0544:3XIQGXAUMDFQV5R7X99KKOH3IVFX7G", "current_trial": 191, "dateTime": 1511206699375, "trialdata": {"rt": -1, "stimulus": "<p id=\"stim\">5</p>", "key_press": -1, "trial_type": "single-stim", "trial_index": 191, "time_elapsed": 976559, "internal_node_id": "0.0-141.0-5.0"}}, {"uniqueid": "MTK0544:3XIQGXAUMDFQV5R7X99KKOH3IVFX7G", "current_trial": 192, "dateTime": 1511206700378, "trialdata": {"rt": -1, "stimulus": "<p id=\"stim\">4</p>", "key_press": -1, "trial_type": "single-stim", "trial_index": 192, "time_elapsed": 977563, "internal_node_id": "0.0-141.0-6.0"}}, {"uniqueid": "MTK0544:3XIQGXAUMDFQV5R7X99KKOH3IVFX7G", "current_trial": 193, "dateTime": 1511206701383, "trialdata": {"rt": -1, "stimulus": "<p id=\"stim\">3</p>", "key_press": -1, "trial_type": "single-stim", "trial_index": 193, "time_elapsed": 978568, "internal_node_id": "0.0-141.0-7.0"}}, {"uniqueid": "MTK0544:3XIQGXAUMDFQV5R7X99KKOH3IVFX7G", "current_trial": 194, "dateTime": 1511206702385, "trialdata": {"rt": -1, "stimulus": "<p id=\"stim\">2</p>", "key_press": -1, "trial_type": "single-stim", "trial_index": 194, "time_elapsed": 979570, "internal_node_id": "0.0-141.0-8.0"}}, {"uniqueid": "MTK0544:3XIQGXAUMDFQV5R7X99KKOH3IVFX7G", "current_trial": 195, "dateTime": 1511206703387, "trialdata": {"rt": -1, "stimulus": "<p id=\"stim\">1</p>", "key_press": -1, "trial_type": "single-stim", "trial_index": 195, "time_elapsed": 980572, "internal_node_id": "0.0-141.0-9.0"}}, {"uniqueid": "MTK0544:3XIQGXAUMDFQV5R7X99KKOH3IVFX7G", "current_trial": 196, "dateTime": 1511206704889, "trialdata": {"rt": -1, "stimulus": "<p id=\"stim\">+</p>", "key_press": -1, "type": "FIXATION", "trial_type": "single-stim", "trial_index": 196, "time_elapsed": 982074, "internal_node_id": "0.0-142.0-0.0"}}, {"uniqueid": "MTK0544:3XIQGXAUMDFQV5R7X99KKOH3IVFX7G", "current_trial": 197, "dateTime": 1511206707575, "trialdata": {"rt": -1000, "stimulus": "/static/audio/wordpool/KEEPER.wav", "key_press": -1, "type": "PRES_AUD", "word": "keeper", "wordID": 768, "conditions": [24, 1600, "a", 12000], "trial": 5, "serialpos": 0, "trial_type": "single-audio", "trial_index": 197, "time_elapsed": 984759, "internal_node_id": "0.0-143.0"}}, {"uniqueid": "MTK0544:3XIQGXAUMDFQV5R7X99KKOH3IVFX7G", "current_trial": 198, "dateTime": 1511206710318, "trialdata": {"rt": -1000, "stimulus": "/static/audio/wordpool/SHOVEL.wav", "key_press": -1, "type": "PRES_AUD", "word": "shovel", "wordID": 1294, "conditions": [24, 1600, "a", 12000], "trial": 5, "serialpos": 1, "trial_type": "single-audio", "trial_index": 198, "time_elapsed": 987503, "internal_node_id": "0.0-144.0"}}, {"uniqueid": "MTK0544:3XIQGXAUMDFQV5R7X99KKOH3IVFX7G", "current_trial": 199, "dateTime": 1511206712723, "trialdata": {"rt": -1000, "stimulus": "/static/audio/wordpool/BABY.wav", "key_press": -1, "type": "PRES_AUD", "word": "baby", "wordID": 63, "conditions": [24, 1600, "a", 12000], "trial": 5, "serialpos": 2, "trial_type": "single-audio", "trial_index": 199, "time_elapsed": 989908, "internal_node_id": "0.0-145.0"}}, {"uniqueid": "MTK0544:3XIQGXAUMDFQV5R7X99KKOH3IVFX7G", "current_trial": 200, "dateTime": 1511206715212, "trialdata": {"rt": -1000, "stimulus": "/static/audio/wordpool/SUBWAY.wav", "key_press": -1, "type": "PRES_AUD", "word": "subway", "wordID": 1399, "conditions": [24, 1600, "a", 12000], "trial": 5, "serialpos": 3, "trial_type": "single-audio", "trial_index": 200, "time_elapsed": 992397, "internal_node_id": "0.0-146.0"}}, {"uniqueid": "MTK0544:3XIQGXAUMDFQV5R7X99KKOH3IVFX7G", "current_trial": 201, "dateTime": 1511206717761, "trialdata": {"rt": -1000, "stimulus": "/static/audio/wordpool/CHAPEL.wav", "key_press": -1, "type": "PRES_AUD", "word": "chapel", "wordID": 279, "conditions": [24, 1600, "a", 12000], "trial": 5, "serialpos": 4, "trial_type": "single-audio", "trial_index": 201, "time_elapsed": 994945, "internal_node_id": "0.0-147.0"}}, {"uniqueid": "MTK0544:3XIQGXAUMDFQV5R7X99KKOH3IVFX7G", "current_trial": 202, "dateTime": 1511206720178, "trialdata": {"rt": -1000, "stimulus": "/static/audio/wordpool/TWEEZERS.wav", "key_press": -1, "type": "PRES_AUD", "word": "tweezers", "wordID": 1525, "conditions": [24, 1600, "a", 12000], "trial": 5, "serialpos": 5, "trial_type": "single-audio", "trial_index": 202, "time_elapsed": 997362, "internal_node_id": "0.0-148.0"}}, {"uniqueid": "MTK0544:3XIQGXAUMDFQV5R7X99KKOH3IVFX7G", "current_trial": 203, "dateTime": 1511206722641, "trialdata": {"rt": -1000, "stimulus": "/static/audio/wordpool/HONEY.wav", "key_press": -1, "type": "PRES_AUD", "word": "honey", "wordID": 712, "conditions": [24, 1600, "a", 12000], "trial": 5, "serialpos": 6, "trial_type": "single-audio", "trial_index": 203, "time_elapsed": 999826, "internal_node_id": "0.0-149.0"}}, {"uniqueid": "MTK0544:3XIQGXAUMDFQV5R7X99KKOH3IVFX7G", "current_trial": 204, "dateTime": 1511206725361, "trialdata": {"rt": -1000, "stimulus": "/static/audio/wordpool/FARMER.wav", "key_press": -1, "type": "PRES_AUD", "word": "farmer", "wordID": 552, "conditions": [24, 1600, "a", 12000], "trial": 5, "serialpos": 7, "trial_type": "single-audio", "trial_index": 204, "time_elapsed": 1002546, "internal_node_id": "0.0-150.0"}}, {"uniqueid": "MTK0544:3XIQGXAUMDFQV5R7X99KKOH3IVFX7G", "current_trial": 205, "dateTime": 1511206728077, "trialdata": {"rt": -1000, "stimulus": "/static/audio/wordpool/WHISKERS.wav", "key_press": -1, "type": "PRES_AUD", "word": "whiskers", "wordID": 1604, "conditions": [24, 1600, "a", 12000], "trial": 5, "serialpos": 8, "trial_type": "single-audio", "trial_index": 205, "time_elapsed": 1005262, "internal_node_id": "0.0-151.0"}}, {"uniqueid": "MTK0544:3XIQGXAUMDFQV5R7X99KKOH3IVFX7G", "current_trial": 206, "dateTime": 1511206730518, "trialdata": {"rt": -1000, "stimulus": "/static/audio/wordpool/SURVEY.wav", "key_press": -1, "type": "PRES_AUD", "word": "survey", "wordID": 1413, "conditions": [24, 1600, "a", 12000], "trial": 5, "serialpos": 9, "trial_type": "single-audio", "trial_index": 206, "time_elapsed": 1007702, "internal_node_id": "0.0-152.0"}}, {"uniqueid": "MTK0544:3XIQGXAUMDFQV5R7X99KKOH3IVFX7G", "current_trial": 207, "dateTime": 1511206732962, "trialdata": {"rt": -1000, "stimulus": "/static/audio/wordpool/REPORT.wav", "key_press": -1, "type": "PRES_AUD", "word": "report", "wordID": 1183, "conditions": [24, 1600, "a", 12000], "trial": 5, "serialpos": 10, "trial_type": "single-audio", "trial_index": 207, "time_elapsed": 1010147, "internal_node_id": "0.0-153.0"}}, {"uniqueid": "MTK0544:3XIQGXAUMDFQV5R7X99KKOH3IVFX7G", "current_trial": 208, "dateTime": 1511206735465, "trialdata": {"rt": -1000, "stimulus": "/static/audio/wordpool/CHURCH.wav", "key_press": -1, "type": "PRES_AUD", "word": "church", "wordID": 306, "conditions": [24, 1600, "a", 12000], "trial": 5, "serialpos": 11, "trial_type": "single-audio", "trial_index": 208, "time_elapsed": 1012650, "internal_node_id": "0.0-154.0"}}, {"uniqueid": "MTK0544:3XIQGXAUMDFQV5R7X99KKOH3IVFX7G", "current_trial": 209, "dateTime": 1511206737968, "trialdata": {"rt": -1000, "stimulus": "/static/audio/wordpool/TROUT.wav", "key_press": -1, "type": "PRES_AUD", "word": "trout", "wordID": 1510, "conditions": [24, 1600, "a", 12000], "trial": 5, "serialpos": 12, "trial_type": "single-audio", "trial_index": 209, "time_elapsed": 1015152, "internal_node_id": "0.0-155.0"}}, {"uniqueid": "MTK0544:3XIQGXAUMDFQV5R7X99KKOH3IVFX7G", "current_trial": 210, "dateTime": 1511206740621, "trialdata": {"rt": -1000, "stimulus": "/static/audio/wordpool/TURKEY.wav", "key_press": -1, "type": "PRES_AUD", "word": "turkey", "wordID": 1519, "conditions": [24, 1600, "a", 12000], "trial": 5, "serialpos": 13, "trial_type": "single-audio", "trial_index": 210, "time_elapsed": 1017806, "internal_node_id": "0.0-156.0"}}, {"uniqueid": "MTK0544:3XIQGXAUMDFQV5R7X99KKOH3IVFX7G", "current_trial": 211, "dateTime": 1511206743067, "trialdata": {"rt": -1000, "stimulus": "/static/audio/wordpool/RAZOR.wav", "key_press": -1, "type": "PRES_AUD", "word": "razor", "wordID": 1170, "conditions": [24, 1600, "a", 12000], "trial": 5, "serialpos": 14, "trial_type": "single-audio", "trial_index": 211, "time_elapsed": 1020251, "internal_node_id": "0.0-157.0"}}, {"uniqueid": "MTK0544:3XIQGXAUMDFQV5R7X99KKOH3IVFX7G", "current_trial": 212, "dateTime": 1511206745716, "trialdata": {"rt": -1000, "stimulus": "/static/audio/wordpool/SCALPEL.wav", "key_press": -1, "type": "PRES_AUD", "word": "scalpel", "wordID": 1242, "conditions": [24, 1600, "a", 12000], "trial": 5, "serialpos": 15, "trial_type": "single-audio", "trial_index": 212, "time_elapsed": 1022901, "internal_node_id": "0.0-158.0"}}, {"uniqueid": "MTK0544:3XIQGXAUMDFQV5R7X99KKOH3IVFX7G", "current_trial": 213, "dateTime": 1511206748132, "trialdata": {"rt": -1000, "stimulus": "/static/audio/wordpool/SCALLOP.wav", "key_press": -1, "type": "PRES_AUD", "word": "scallop", "wordID": 1241, "conditions": [24, 1600, "a", 12000], "trial": 5, "serialpos": 16, "trial_type": "single-audio", "trial_index": 213, "time_elapsed": 1025317, "internal_node_id": "0.0-159.0"}}, {"uniqueid": "MTK0544:3XIQGXAUMDFQV5R7X99KKOH3IVFX7G", "current_trial": 214, "dateTime": 1511206750863, "trialdata": {"rt": -1000, "stimulus": "/static/audio/wordpool/PADDING.wav", "key_press": -1, "type": "PRES_AUD", "word": "padding", "wordID": 998, "conditions": [24, 1600, "a", 12000], "trial": 5, "serialpos": 17, "trial_type": "single-audio", "trial_index": 214, "time_elapsed": 1028048, "internal_node_id": "0.0-160.0"}}, {"uniqueid": "MTK0544:3XIQGXAUMDFQV5R7X99KKOH3IVFX7G", "current_trial": 215, "dateTime": 1511206753306, "trialdata": {"rt": -1000, "stimulus": "/static/audio/wordpool/APRON.wav", "key_press": -1, "type": "PRES_AUD", "word": "apron", "wordID": 34, "conditions": [24, 1600, "a", 12000], "trial": 5, "serialpos": 18, "trial_type": "single-audio", "trial_index": 215, "time_elapsed": 1030490, "internal_node_id": "0.0-161.0"}}, {"uniqueid": "MTK0544:3XIQGXAUMDFQV5R7X99KKOH3IVFX7G", "current_trial": 216, "dateTime": 1511206755831, "trialdata": {"rt": -1000, "stimulus": "/static/audio/wordpool/NEUTRON.wav", "key_press": -1, "type": "PRES_AUD", "word": "neutron", "wordID": 946, "conditions": [24, 1600, "a", 12000], "trial": 5, "serialpos": 19, "trial_type": "single-audio", "trial_index": 216, "time_elapsed": 1033016, "internal_node_id": "0.0-162.0"}}, {"uniqueid": "MTK0544:3XIQGXAUMDFQV5R7X99KKOH3IVFX7G", "current_trial": 217, "dateTime": 1511206758267, "trialdata": {"rt": -1000, "stimulus": "/static/audio/wordpool/CHEST.wav", "key_press": -1, "type": "PRES_AUD", "word": "chest", "wordID": 294, "conditions": [24, 1600, "a", 12000], "trial": 5, "serialpos": 20, "trial_type": "single-audio", "trial_index": 217, "time_elapsed": 1035452, "internal_node_id": "0.0-163.0"}}, {"uniqueid": "MTK0544:3XIQGXAUMDFQV5R7X99KKOH3IVFX7G", "current_trial": 218, "dateTime": 1511206760841, "trialdata": {"rt": -1000, "stimulus": "/static/audio/wordpool/SALMON.wav", "key_press": -1, "type": "PRES_AUD", "word": "salmon", "wordID": 1226, "conditions": [24, 1600, "a", 12000], "trial": 5, "serialpos": 21, "trial_type": "single-audio", "trial_index": 218, "time_elapsed": 1038025, "internal_node_id": "0.0-164.0"}}, {"uniqueid": "MTK0544:3XIQGXAUMDFQV5R7X99KKOH3IVFX7G", "current_trial": 219, "dateTime": 1511206763497, "trialdata": {"rt": -1000, "stimulus": "/static/audio/wordpool/RABBIT.wav", "key_press": -1, "type": "PRES_AUD", "word": "rabbit", "wordID": 1151, "conditions": [24, 1600, "a", 12000], "trial": 5, "serialpos": 22, "trial_type": "single-audio", "trial_index": 219, "time_elapsed": 1040682, "internal_node_id": "0.0-165.0"}}, {"uniqueid": "MTK0544:3XIQGXAUMDFQV5R7X99KKOH3IVFX7G", "current_trial": 220, "dateTime": 1511206766201, "trialdata": {"rt": -1000, "stimulus": "/static/audio/wordpool/PREACHER.wav", "key_press": -1, "type": "PRES_AUD", "word": "preacher", "wordID": 1118, "conditions": [24, 1600, "a", 12000], "trial": 5, "serialpos": 23, "trial_type": "single-audio", "trial_index": 220, "time_elapsed": 1043385, "internal_node_id": "0.0-166.0"}}, {"uniqueid": "MTK0544:3XIQGXAUMDFQV5R7X99KKOH3IVFX7G", "current_trial": 221, "dateTime": 1511206767498, "trialdata": {"rt": -1, "stimulus": "", "key_press": -1, "type": "PRE_RECALL_DELAY", "trial_type": "single-stim", "trial_index": 221, "time_elapsed": 1044683, "internal_node_id": "0.0-167.0-0.0"}}, {"uniqueid": "MTK0544:3XIQGXAUMDFQV5R7X99KKOH3IVFX7G", "current_trial": 222, "dateTime": 1511206768002, "trialdata": {"rt": -1000, "stimulus": "/static/audio/400Hz.wav", "key_press": -1, "type": "PRE_RECALL_ALERT", "trial_type": "single-audio", "trial_index": 222, "time_elapsed": 1045187, "internal_node_id": "0.0-168.0"}}, {"uniqueid": "MTK0544:3XIQGXAUMDFQV5R7X99KKOH3IVFX7G", "current_trial": 223, "dateTime": 1511206828027, "trialdata": {"rt": [1659, 3007, 5463, 7203, 10625, 15004, 17519, 26095, 44150, 59589], "recwords": ["preacher", "chapel", "church", "rabbit", "neutron", "padding", "chest", "farmer", "subway", "baby"], "type": "FREE_RECALL", "conditions": [24, 1600, "a", 12000], "trial": 5, "trial_type": "free-recall", "trial_index": 223, "time_elapsed": 1105195, "internal_node_id": "0.0-169.0-0.0"}}, {"uniqueid": "MTK0544:3XIQGXAUMDFQV5R7X99KKOH3IVFX7G", "current_trial": 224, "dateTime": 1511206831220, "trialdata": {"rt": 1191, "key_press": 13, "type": "INSTRUCTIONS", "trial_type": "text", "trial_index": 224, "time_elapsed": 1108405, "internal_node_id": "0.0-170.0"}}, {"uniqueid": "MTK0544:3XIQGXAUMDFQV5R7X99KKOH3IVFX7G", "current_trial": 225, "dateTime": 1511206845228, "trialdata": {"rt": [4383, 9818], "responses": ["10", "24"], "num1": [2, 9, 4], "num2": [4, 8, 7], "num3": [4, 7, 8], "type": "DISTRACTOR", "conditions": [12, 1600, "v", 12000], "trial": 6, "trial_type": "math-distractor", "trial_index": 225, "time_elapsed": 1122412, "internal_node_id": "0.0-171.0"}}, {"uniqueid": "MTK0544:3XIQGXAUMDFQV5R7X99KKOH3IVFX7G", "current_trial": 226, "dateTime": 1511206848233, "trialdata": {"rt": -1, "stimulus": "<p id=\"stim\">10</p>", "key_press": -1, "trial_type": "single-stim", "trial_index": 226, "time_elapsed": 1125418, "internal_node_id": "0.0-172.0-0.0"}}, {"uniqueid": "MTK0544:3XIQGXAUMDFQV5R7X99KKOH3IVFX7G", "current_trial": 227, "dateTime": 1511206849237, "trialdata": {"rt": -1, "stimulus": "<p id=\"stim\">9</p>", "key_press": -1, "trial_type": "single-stim", "trial_index": 227, "time_elapsed": 1126422, "internal_node_id": "0.0-172.0-1.0"}}, {"uniqueid": "MTK0544:3XIQGXAUMDFQV5R7X99KKOH3IVFX7G", "current_trial": 228, "dateTime": 1511206850240, "trialdata": {"rt": -1, "stimulus": "<p id=\"stim\">8</p>", "key_press": -1, "trial_type": "single-stim", "trial_index": 228, "time_elapsed": 1127425, "internal_node_id": "0.0-172.0-2.0"}}, {"uniqueid": "MTK0544:3XIQGXAUMDFQV5R7X99KKOH3IVFX7G", "current_trial": 229, "dateTime": 1511206851242, "trialdata": {"rt": -1, "stimulus": "<p id=\"stim\">7</p>", "key_press": -1, "trial_type": "single-stim", "trial_index": 229, "time_elapsed": 1128427, "internal_node_id": "0.0-172.0-3.0"}}, {"uniqueid": "MTK0544:3XIQGXAUMDFQV5R7X99KKOH3IVFX7G", "current_trial": 230, "dateTime": 1511206852245, "trialdata": {"rt": -1, "stimulus": "<p id=\"stim\">6</p>", "key_press": -1, "trial_type": "single-stim", "trial_index": 230, "time_elapsed": 1129430, "internal_node_id": "0.0-172.0-4.0"}}, {"uniqueid": "MTK0544:3XIQGXAUMDFQV5R7X99KKOH3IVFX7G", "current_trial": 231, "dateTime": 1511206853248, "trialdata": {"rt": -1, "stimulus": "<p id=\"stim\">5</p>", "key_press": -1, "trial_type": "single-stim", "trial_index": 231, "time_elapsed": 1130433, "internal_node_id": "0.0-172.0-5.0"}}, {"uniqueid": "MTK0544:3XIQGXAUMDFQV5R7X99KKOH3IVFX7G", "current_trial": 232, "dateTime": 1511206854251, "trialdata": {"rt": -1, "stimulus": "<p id=\"stim\">4</p>", "key_press": -1, "trial_type": "single-stim", "trial_index": 232, "time_elapsed": 1131436, "internal_node_id": "0.0-172.0-6.0"}}, {"uniqueid": "MTK0544:3XIQGXAUMDFQV5R7X99KKOH3IVFX7G", "current_trial": 233, "dateTime": 1511206855254, "trialdata": {"rt": -1, "stimulus": "<p id=\"stim\">3</p>", "key_press": -1, "trial_type": "single-stim", "trial_index": 233, "time_elapsed": 1132439, "internal_node_id": "0.0-172.0-7.0"}}, {"uniqueid": "MTK0544:3XIQGXAUMDFQV5R7X99KKOH3IVFX7G", "current_trial": 234, "dateTime": 1511206856256, "trialdata": {"rt": -1, "stimulus": "<p id=\"stim\">2</p>", "key_press": -1, "trial_type": "single-stim", "trial_index": 234, "time_elapsed": 1133441, "internal_node_id": "0.0-172.0-8.0"}}, {"uniqueid": "MTK0544:3XIQGXAUMDFQV5R7X99KKOH3IVFX7G", "current_trial": 235, "dateTime": 1511206857258, "trialdata": {"rt": -1, "stimulus": "<p id=\"stim\">1</p>", "key_press": -1, "trial_type": "single-stim", "trial_index": 235, "time_elapsed": 1134443, "internal_node_id": "0.0-172.0-9.0"}}, {"uniqueid": "MTK0544:3XIQGXAUMDFQV5R7X99KKOH3IVFX7G", "current_trial": 236, "dateTime": 1511206858761, "trialdata": {"rt": -1, "stimulus": "<p id=\"stim\">+</p>", "key_press": -1, "type": "FIXATION", "trial_type": "single-stim", "trial_index": 236, "time_elapsed": 1135946, "internal_node_id": "0.0-173.0-0.0"}}, {"uniqueid": "MTK0544:3XIQGXAUMDFQV5R7X99KKOH3IVFX7G", "current_trial": 237, "dateTime": 1511206860364, "trialdata": {"rt": -1, "stimulus": "<p id=\"stim\">SODA</p>", "key_press": -1, "type": "PRES_VIS", "word": "soda", "wordID": 1340, "conditions": [12, 1600, "v", 12000], "trial": 6, "serialpos": 0, "trial_type": "single-stim", "trial_index": 237, "time_elapsed": 1137549, "internal_node_id": "0.0-174.0"}}, {"uniqueid": "MTK0544:3XIQGXAUMDFQV5R7X99KKOH3IVFX7G", "current_trial": 238, "dateTime": 1511206862938, "trialdata": {"rt": -1, "stimulus": "<p id=\"stim\">BODY</p>", "key_press": -1, "type": "PRES_VIS", "word": "body", "wordID": 144, "conditions": [12, 1600, "v", 12000], "trial": 6, "serialpos": 1, "trial_type": "single-stim", "trial_index": 238, "time_elapsed": 1140123, "internal_node_id": "0.0-175.0"}}, {"uniqueid": "MTK0544:3XIQGXAUMDFQV5R7X99KKOH3IVFX7G", "current_trial": 239, "dateTime": 1511206865544, "trialdata": {"rt": -1, "stimulus": "<p id=\"stim\">LIZARD</p>", "key_press": -1, "type": "PRES_VIS", "word": "lizard", "wordID": 833, "conditions": [12, 1600, "v", 12000], "trial": 6, "serialpos": 2, "trial_type": "single-stim", "trial_index": 239, "time_elapsed": 1142729, "internal_node_id": "0.0-176.0"}}, {"uniqueid": "MTK0544:3XIQGXAUMDFQV5R7X99KKOH3IVFX7G", "current_trial": 240, "dateTime": 1511206868283, "trialdata": {"rt": -1, "stimulus": "<p id=\"stim\">SUSPECT</p>", "key_press": -1, "type": "PRES_VIS", "word": "suspect", "wordID": 1414, "conditions": [12, 1600, "v", 12000], "trial": 6, "serialpos": 3, "trial_type": "single-stim", "trial_index": 240, "time_elapsed": 1145468, "internal_node_id": "0.0-177.0"}}, {"uniqueid": "MTK0544:3XIQGXAUMDFQV5R7X99KKOH3IVFX7G", "current_trial": 241, "dateTime": 1511206871017, "trialdata": {"rt": -1, "stimulus": "<p id=\"stim\">DENTIST</p>", "key_press": -1, "type": "PRES_VIS", "word": "dentist", "wordID": 446, "conditions": [12, 1600, "v", 12000], "trial": 6, "serialpos": 4, "trial_type": "single-stim", "trial_index": 241, "time_elapsed": 1148201, "internal_node_id": "0.0-178.0"}}, {"uniqueid": "MTK0544:3XIQGXAUMDFQV5R7X99KKOH3IVFX7G", "current_trial": 242, "dateTime": 1511206873676, "trialdata": {"rt": -1, "stimulus": "<p id=\"stim\">CABBAGE</p>", "key_press": -1, "type": "PRES_VIS", "word": "cabbage", "wordID": 209, "conditions": [12, 1600, "v", 12000], "trial": 6, "serialpos": 5, "trial_type": "single-stim", "trial_index": 242, "time_elapsed": 1150861, "internal_node_id": "0.0-179.0"}}, {"uniqueid": "MTK0544:3XIQGXAUMDFQV5R7X99KKOH3IVFX7G", "current_trial": 243, "dateTime": 1511206876332, "trialdata": {"rt": -1, "stimulus": "<p id=\"stim\">PEANUT</p>", "key_press": -1, "type": "PRES_VIS", "word": "peanut", "wordID": 1031, "conditions": [12, 1600, "v", 12000], "trial": 6, "serialpos": 6, "trial_type": "single-stim", "trial_index": 243, "time_elapsed": 1153517, "internal_node_id": "0.0-180.0"}}, {"uniqueid": "MTK0544:3XIQGXAUMDFQV5R7X99KKOH3IVFX7G", "current_trial": 244, "dateTime": 1511206878911, "trialdata": {"rt": -1, "stimulus": "<p id=\"stim\">OZONE</p>", "key_press": -1, "type": "PRES_VIS", "word": "ozone", "wordID": 995, "conditions": [12, 1600, "v", 12000], "trial": 6, "serialpos": 7, "trial_type": "single-stim", "trial_index": 244, "time_elapsed": 1156095, "internal_node_id": "0.0-181.0"}}, {"uniqueid": "MTK0544:3XIQGXAUMDFQV5R7X99KKOH3IVFX7G", "current_trial": 245, "dateTime": 1511206881608, "trialdata": {"rt": -1, "stimulus": "<p id=\"stim\">WASP</p>", "key_press": -1, "type": "PRES_VIS", "word": "wasp", "wordID": 1592, "conditions": [12, 1600, "v", 12000], "trial": 6, "serialpos": 8, "trial_type": "single-stim", "trial_index": 245, "time_elapsed": 1158793, "internal_node_id": "0.0-182.0"}}, {"uniqueid": "MTK0544:3XIQGXAUMDFQV5R7X99KKOH3IVFX7G", "current_trial": 246, "dateTime": 1511206884197, "trialdata": {"rt": -1, "stimulus": "<p id=\"stim\">HORNET</p>", "key_press": -1, "type": "PRES_VIS", "word": "hornet", "wordID": 717, "conditions": [12, 1600, "v", 12000], "trial": 6, "serialpos": 9, "trial_type": "single-stim", "trial_index": 246, "time_elapsed": 1161382, "internal_node_id": "0.0-183.0"}}, {"uniqueid": "MTK0544:3XIQGXAUMDFQV5R7X99KKOH3IVFX7G", "current_trial": 247, "dateTime": 1511206886894, "trialdata": {"rt": -1, "stimulus": "<p id=\"stim\">FOX</p>", "key_press": -1, "type": "PRES_VIS", "word": "fox", "wordID": 597, "conditions": [12, 1600, "v", 12000], "trial": 6, "serialpos": 10, "trial_type": "single-stim", "trial_index": 247, "time_elapsed": 1164079, "internal_node_id": "0.0-184.0"}}, {"uniqueid": "MTK0544:3XIQGXAUMDFQV5R7X99KKOH3IVFX7G", "current_trial": 248, "dateTime": 1511206889668, "trialdata": {"rt": -1, "stimulus": "<p id=\"stim\">JOURNAL</p>", "key_press": -1, "type": "PRES_VIS", "word": "journal", "wordID": 759, "conditions": [12, 1600, "v", 12000], "trial": 6, "serialpos": 11, "trial_type": "single-stim", "trial_index": 248, "time_elapsed": 1166853, "internal_node_id": "0.0-185.0"}}, {"uniqueid": "MTK0544:3XIQGXAUMDFQV5R7X99KKOH3IVFX7G", "current_trial": 249, "dateTime": 1511206891947, "trialdata": {"rt": -1, "stimulus": "", "key_press": -1, "type": "PRE_RECALL_DELAY", "trial_type": "single-stim", "trial_index": 249, "time_elapsed": 1169132, "internal_node_id": "0.0-186.0-0.0"}}, {"uniqueid": "MTK0544:3XIQGXAUMDFQV5R7X99KKOH3IVFX7G", "current_trial": 250, "dateTime": 1511206892450, "trialdata": {"rt": -1000, "stimulus": "/static/audio/400Hz.wav", "key_press": -1, "type": "PRE_RECALL_ALERT", "trial_type": "single-audio", "trial_index": 250, "time_elapsed": 1169635, "internal_node_id": "0.0-187.0"}}, {"uniqueid": "MTK0544:3XIQGXAUMDFQV5R7X99KKOH3IVFX7G", "current_trial": 251, "dateTime": 1511206952465, "trialdata": {"rt": [1757, 2475, 3537, 4317, 13468, 20859, 30908, 40971], "recwords": ["journal", "fox", "hornet", "wasp", "dentist", "ozone", "", "cabbage"], "type": "FREE_RECALL", "conditions": [12, 1600, "v", 12000], "trial": 6, "trial_type": "free-recall", "trial_index": 251, "time_elapsed": 1229639, "internal_node_id": "0.0-188.0-0.0"}}, {"uniqueid": "MTK0544:3XIQGXAUMDFQV5R7X99KKOH3IVFX7G", "current_trial": 252, "dateTime": 1511206956105, "trialdata": {"rt": 1638, "key_press": 74, "type": "INSTRUCTIONS", "trial_type": "text", "trial_index": 252, "time_elapsed": 1233290, "internal_node_id": "0.0-189.0"}}, {"uniqueid": "MTK0544:3XIQGXAUMDFQV5R7X99KKOH3IVFX7G", "current_trial": 253, "dateTime": 1511206982114, "trialdata": {"rt": [2398, 5037, 7839, 11068, 13167, 15602, 18111, 20529, 22821], "responses": ["8", "8", "13", "19", "14", "17", "9", "8", "17"], "num1": [3, 3, 3, 6, 8, 6, 4, 3, 1, 1], "num2": [4, 1, 6, 7, 1, 2, 4, 2, 9, 8], "num3": [1, 5, 4, 6, 5, 9, 1, 3, 7, 8], "type": "DISTRACTOR", "conditions": [24, 1600, "v", 24000], "trial": 7, "trial_type": "math-distractor", "trial_index": 253, "time_elapsed": 1259298, "internal_node_id": "0.0-190.0"}}, {"uniqueid": "MTK0544:3XIQGXAUMDFQV5R7X99KKOH3IVFX7G", "current_trial": 254, "dateTime": 1511206985118, "trialdata": {"rt": -1, "stimulus": "<p id=\"stim\">10</p>", "key_press": -1, "trial_type": "single-stim", "trial_index": 254, "time_elapsed": 1262302, "internal_node_id": "0.0-191.0-0.0"}}, {"uniqueid": "MTK0544:3XIQGXAUMDFQV5R7X99KKOH3IVFX7G", "current_trial": 255, "dateTime": 1511206986121, "trialdata": {"rt": -1, "stimulus": "<p id=\"stim\">9</p>", "key_press": -1, "trial_type": "single-stim", "trial_index": 255, "time_elapsed": 1263306, "internal_node_id": "0.0-191.0-1.0"}}, {"uniqueid": "MTK0544:3XIQGXAUMDFQV5R7X99KKOH3IVFX7G", "current_trial": 256, "dateTime": 1511206987123, "trialdata": {"rt": -1, "stimulus": "<p id=\"stim\">8</p>", "key_press": -1, "trial_type": "single-stim", "trial_index": 256, "time_elapsed": 1264308, "internal_node_id": "0.0-191.0-2.0"}}, {"uniqueid": "MTK0544:3XIQGXAUMDFQV5R7X99KKOH3IVFX7G", "current_trial": 257, "dateTime": 1511206988127, "trialdata": {"rt": -1, "stimulus": "<p id=\"stim\">7</p>", "key_press": -1, "trial_type": "single-stim", "trial_index": 257, "time_elapsed": 1265312, "internal_node_id": "0.0-191.0-3.0"}}, {"uniqueid": "MTK0544:3XIQGXAUMDFQV5R7X99KKOH3IVFX7G", "current_trial": 258, "dateTime": 1511206989129, "trialdata": {"rt": -1, "stimulus": "<p id=\"stim\">6</p>", "key_press": -1, "trial_type": "single-stim", "trial_index": 258, "time_elapsed": 1266314, "internal_node_id": "0.0-191.0-4.0"}}, {"uniqueid": "MTK0544:3XIQGXAUMDFQV5R7X99KKOH3IVFX7G", "current_trial": 259, "dateTime": 1511206990134, "trialdata": {"rt": -1, "stimulus": "<p id=\"stim\">5</p>", "key_press": -1, "trial_type": "single-stim", "trial_index": 259, "time_elapsed": 1267319, "internal_node_id": "0.0-191.0-5.0"}}, {"uniqueid": "MTK0544:3XIQGXAUMDFQV5R7X99KKOH3IVFX7G", "current_trial": 260, "dateTime": 1511206991138, "trialdata": {"rt": -1, "stimulus": "<p id=\"stim\">4</p>", "key_press": -1, "trial_type": "single-stim", "trial_index": 260, "time_elapsed": 1268323, "internal_node_id": "0.0-191.0-6.0"}}, {"uniqueid": "MTK0544:3XIQGXAUMDFQV5R7X99KKOH3IVFX7G", "current_trial": 261, "dateTime": 1511206992140, "trialdata": {"rt": -1, "stimulus": "<p id=\"stim\">3</p>", "key_press": -1, "trial_type": "single-stim", "trial_index": 261, "time_elapsed": 1269325, "internal_node_id": "0.0-191.0-7.0"}}, {"uniqueid": "MTK0544:3XIQGXAUMDFQV5R7X99KKOH3IVFX7G", "current_trial": 262, "dateTime": 1511206993143, "trialdata": {"rt": -1, "stimulus": "<p id=\"stim\">2</p>", "key_press": -1, "trial_type": "single-stim", "trial_index": 262, "time_elapsed": 1270328, "internal_node_id": "0.0-191.0-8.0"}}, {"uniqueid": "MTK0544:3XIQGXAUMDFQV5R7X99KKOH3IVFX7G", "current_trial": 263, "dateTime": 1511206994145, "trialdata": {"rt": -1, "stimulus": "<p id=\"stim\">1</p>", "key_press": -1, "trial_type": "single-stim", "trial_index": 263, "time_elapsed": 1271330, "internal_node_id": "0.0-191.0-9.0"}}, {"uniqueid": "MTK0544:3XIQGXAUMDFQV5R7X99KKOH3IVFX7G", "current_trial": 264, "dateTime": 1511206995647, "trialdata": {"rt": -1, "stimulus": "<p id=\"stim\">+</p>", "key_press": -1, "type": "FIXATION", "trial_type": "single-stim", "trial_index": 264, "time_elapsed": 1272832, "internal_node_id": "0.0-192.0-0.0"}}, {"uniqueid": "MTK0544:3XIQGXAUMDFQV5R7X99KKOH3IVFX7G", "current_trial": 265, "dateTime": 1511206997251, "trialdata": {"rt": -1, "stimulus": "<p id=\"stim\">IGLOO</p>", "key_press": -1, "type": "PRES_VIS", "word": "igloo", "wordID": 733, "conditions": [24, 1600, "v", 24000], "trial": 7, "serialpos": 0, "trial_type": "single-stim", "trial_index": 265, "time_elapsed": 1274436, "internal_node_id": "0.0-193.0"}}, {"uniqueid": "MTK0544:3XIQGXAUMDFQV5R7X99KKOH3IVFX7G", "current_trial": 266, "dateTime": 1511206999788, "trialdata": {"rt": -1, "stimulus": "<p id=\"stim\">EUROPE</p>", "key_press": -1, "type": "PRES_VIS", "word": "europe", "wordID": 540, "conditions": [24, 1600, "v", 24000], "trial": 7, "serialpos": 1, "trial_type": "single-stim", "trial_index": 266, "time_elapsed": 1276973, "internal_node_id": "0.0-194.0"}}, {"uniqueid": "MTK0544:3XIQGXAUMDFQV5R7X99KKOH3IVFX7G", "current_trial": 267, "dateTime": 1511207002256, "trialdata": {"rt": -1, "stimulus": "<p id=\"stim\">OINTMENT</p>", "key_press": -1, "type": "PRES_VIS", "word": "ointment", "wordID": 973, "conditions": [24, 1600, "v", 24000], "trial": 7, "serialpos": 2, "trial_type": "single-stim", "trial_index": 267, "time_elapsed": 1279441, "internal_node_id": "0.0-195.0"}}, {"uniqueid": "MTK0544:3XIQGXAUMDFQV5R7X99KKOH3IVFX7G", "current_trial": 268, "dateTime": 1511207004798, "trialdata": {"rt": -1, "stimulus": "<p id=\"stim\">CUPBOARD</p>", "key_press": -1, "type": "PRES_VIS", "word": "cupboard", "wordID": 424, "conditions": [24, 1600, "v", 24000], "trial": 7, "serialpos": 3, "trial_type": "single-stim", "trial_index": 268, "time_elapsed": 1281982, "internal_node_id": "0.0-196.0"}}, {"uniqueid": "MTK0544:3XIQGXAUMDFQV5R7X99KKOH3IVFX7G", "current_trial": 269, "dateTime": 1511207007229, "trialdata": {"rt": -1, "stimulus": "<p id=\"stim\">BRICK</p>", "key_press": -1, "type": "PRES_VIS", "word": "brick", "wordID": 171, "conditions": [24, 1600, "v", 24000], "trial": 7, "serialpos": 4, "trial_type": "single-stim", "trial_index": 269, "time_elapsed": 1284413, "internal_node_id": "0.0-197.0"}}, {"uniqueid": "MTK0544:3XIQGXAUMDFQV5R7X99KKOH3IVFX7G", "current_trial": 270, "dateTime": 1511207010192, "trialdata": {"rt": -1, "stimulus": "<p id=\"stim\">WARDROBE</p>", "key_press": -1, "type": "PRES_VIS", "word": "wardrobe", "wordID": 1586, "conditions": [24, 1600, "v", 24000], "trial": 7, "serialpos": 5, "trial_type": "single-stim", "trial_index": 270, "time_elapsed": 1287377, "internal_node_id": "0.0-198.0"}}, {"uniqueid": "MTK0544:3XIQGXAUMDFQV5R7X99KKOH3IVFX7G", "current_trial": 271, "dateTime": 1511207012966, "trialdata": {"rt": -1, "stimulus": "<p id=\"stim\">DRESS</p>", "key_press": -1, "type": "PRES_VIS", "word": "dress", "wordID": 494, "conditions": [24, 1600, "v", 24000], "trial": 7, "serialpos": 6, "trial_type":