{"condition": 0, "counterbalance": 666, "assignmentId": "3EQHHY4HQTZ0MFIYK6UJYI3CQGR5GK", "workerId": "MTK0896", "hitId": "3HEADTGN2PZ6MF8XG616C0FYP5CVRE", "currenttrial": 626, "bonus": 0, "data": [{"uniqueid": "MTK0896:3EQHHY4HQTZ0MFIYK6UJYI3CQGR5GK", "current_trial": 0, "dateTime": 1512864383240, "trialdata": {"rt": 39944, "key_press": 32, "type": "INSTRUCTIONS", "trial_type": "text", "trial_index": 0, "time_elapsed": 39946, "internal_node_id": "0.0-0.0"}}, {"uniqueid": "MTK0896:3EQHHY4HQTZ0MFIYK6UJYI3CQGR5GK", "current_trial": 1, "dateTime": 1512864395350, "trialdata": {"rt": 12110, "key_press": 32, "type": "INSTRUCTIONS", "trial_type": "text", "trial_index": 1, "time_elapsed": 52056, "internal_node_id": "0.0-1.0"}}, {"uniqueid": "MTK0896:3EQHHY4HQTZ0MFIYK6UJYI3CQGR5GK", "current_trial": 2, "dateTime": 1512864445047, "trialdata": {"rt": [49691], "responses": ["ocean"], "type": "AUDIO_TEST", "trial_type": "audio-test", "trial_index": 2, "time_elapsed": 101753, "internal_node_id": "0.0-2.0"}}, {"uniqueid": "MTK0896:3EQHHY4HQTZ0MFIYK6UJYI3CQGR5GK", "current_trial": 3, "dateTime": 1512864451254, "trialdata": {"rt": [6203], "responses": ["crystal"], "type": "AUDIO_TEST", "trial_type": "audio-test", "trial_index": 3, "time_elapsed": 107960, "internal_node_id": "0.0-3.0"}}, {"uniqueid": "MTK0896:3EQHHY4HQTZ0MFIYK6UJYI3CQGR5GK", "current_trial": 4, "dateTime": 1512864455386, "trialdata": {"rt": [4129], "responses": ["spice"], "type": "AUDIO_TEST", "trial_type": "audio-test", "trial_index": 4, "time_elapsed": 112091, "internal_node_id": "0.0-4.0"}}, {"uniqueid": "MTK0896:3EQHHY4HQTZ0MFIYK6UJYI3CQGR5GK", "current_trial": 5, "dateTime": 1512864471360, "trialdata": {"rt": 15222, "responses": "{\"Q0\":\"10pm\",\"Q1\":\"7am\",\"Q2\":\"4\"}", "type": "SLEEP_SURVEY", "trial_type": "survey-text", "trial_index": 5, "time_elapsed": 128066, "internal_node_id": "0.0-5.0"}}, {"uniqueid": "MTK0896:3EQHHY4HQTZ0MFIYK6UJYI3CQGR5GK", "current_trial": 6, "dateTime": 1512864500147, "trialdata": {"rt": 27786, "key_press": 32, "type": "INSTRUCTIONS", "trial_type": "text", "trial_index": 6, "time_elapsed": 156853, "internal_node_id": "0.0-6.0"}}, {"uniqueid": "MTK0896:3EQHHY4HQTZ0MFIYK6UJYI3CQGR5GK", "current_trial": 7, "dateTime": 1512864509812, "trialdata": {"rt": 9162, "key_press": 32, "type": "INSTRUCTIONS", "trial_type": "text", "trial_index": 7, "time_elapsed": 166518, "internal_node_id": "0.0-7.0"}}, {"uniqueid": "MTK0896:3EQHHY4HQTZ0MFIYK6UJYI3CQGR5GK", "current_trial": 8, "dateTime": 1512864516370, "trialdata": {"rt": 6057, "key_press": 32, "type": "INSTRUCTIONS", "trial_type": "text", "trial_index": 8, "time_elapsed": 173075, "internal_node_id": "0.0-8.0"}}, {"uniqueid": "MTK0896:3EQHHY4HQTZ0MFIYK6UJYI3CQGR5GK", "current_trial": 9, "dateTime": 1512864535374, "trialdata": {"rt": [2315, 4347, 6406, 8659, 10547, 12251, 14072, 16221, 17608], "responses": ["14", "19", "17", "15", "21", "15", "8", "17", "12"], "num1": [2, 9, 9, 4, 8, 4, 1, 5, 2, 8], "num2": [6, 6, 7, 3, 6, 9, 2, 4, 1, 6], "num3": [6, 4, 1, 8, 7, 2, 5, 8, 9, 7], "type": "DISTRACTOR", "conditions": [18, 1200, "v", 18000], "trial": 0, "trial_type": "math-distractor", "trial_index": 9, "time_elapsed": 192080, "internal_node_id": "0.0-9.0"}}, {"uniqueid": "MTK0896:3EQHHY4HQTZ0MFIYK6UJYI3CQGR5GK", "current_trial": 10, "dateTime": 1512864538377, "trialdata": {"rt": -1, "stimulus": "<p id=\"stim\">10</p>", "key_press": -1, "trial_type": "single-stim", "trial_index": 10, "time_elapsed": 195083, "internal_node_id": "0.0-10.0-0.0"}}, {"uniqueid": "MTK0896:3EQHHY4HQTZ0MFIYK6UJYI3CQGR5GK", "current_trial": 11, "dateTime": 1512864539379, "trialdata": {"rt": -1, "stimulus": "<p id=\"stim\">9</p>", "key_press": -1, "trial_type": "single-stim", "trial_index": 11, "time_elapsed": 196085, "internal_node_id": "0.0-10.0-1.0"}}, {"uniqueid": "MTK0896:3EQHHY4HQTZ0MFIYK6UJYI3CQGR5GK", "current_trial": 12, "dateTime": 1512864540380, "trialdata": {"rt": -1, "stimulus": "<p id=\"stim\">8</p>", "key_press": -1, "trial_type": "single-stim", "trial_index": 12, "time_elapsed": 197086, "internal_node_id": "0.0-10.0-2.0"}}, {"uniqueid": "MTK0896:3EQHHY4HQTZ0MFIYK6UJYI3CQGR5GK", "current_trial": 13, "dateTime": 1512864541381, "trialdata": {"rt": -1, "stimulus": "<p id=\"stim\">7</p>", "key_press": -1, "trial_type": "single-stim", "trial_index": 13, "time_elapsed": 198087, "internal_node_id": "0.0-10.0-3.0"}}, {"uniqueid": "MTK0896:3EQHHY4HQTZ0MFIYK6UJYI3CQGR5GK", "current_trial": 14, "dateTime": 1512864542382, "trialdata": {"rt": -1, "stimulus": "<p id=\"stim\">6</p>", "key_press": -1, "trial_type": "single-stim", "trial_index": 14, "time_elapsed": 199088, "internal_node_id": "0.0-10.0-4.0"}}, {"uniqueid": "MTK0896:3EQHHY4HQTZ0MFIYK6UJYI3CQGR5GK", "current_trial": 15, "dateTime": 1512864543382, "trialdata": {"rt": -1, "stimulus": "<p id=\"stim\">5</p>", "key_press": -1, "trial_type": "single-stim", "trial_index": 15, "time_elapsed": 200088, "internal_node_id": "0.0-10.0-5.0"}}, {"uniqueid": "MTK0896:3EQHHY4HQTZ0MFIYK6UJYI3CQGR5GK", "current_trial": 16, "dateTime": 1512864544383, "trialdata": {"rt": -1, "stimulus": "<p id=\"stim\">4</p>", "key_press": -1, "trial_type": "single-stim", "trial_index": 16, "time_elapsed": 201089, "internal_node_id": "0.0-10.0-6.0"}}, {"uniqueid": "MTK0896:3EQHHY4HQTZ0MFIYK6UJYI3CQGR5GK", "current_trial": 17, "dateTime": 1512864545384, "trialdata": {"rt": -1, "stimulus": "<p id=\"stim\">3</p>", "key_press": -1, "trial_type": "single-stim", "trial_index": 17, "time_elapsed": 202090, "internal_node_id": "0.0-10.0-7.0"}}, {"uniqueid": "MTK0896:3EQHHY4HQTZ0MFIYK6UJYI3CQGR5GK", "current_trial": 18, "dateTime": 1512864546385, "trialdata": {"rt": -1, "stimulus": "<p id=\"stim\">2</p>", "key_press": -1, "trial_type": "single-stim", "trial_index": 18, "time_elapsed": 203091, "internal_node_id": "0.0-10.0-8.0"}}, {"uniqueid": "MTK0896:3EQHHY4HQTZ0MFIYK6UJYI3CQGR5GK", "current_trial": 19, "dateTime": 1512864547386, "trialdata": {"rt": -1, "stimulus": "<p id=\"stim\">1</p>", "key_press": -1, "trial_type": "single-stim", "trial_index": 19, "time_elapsed": 204092, "internal_node_id": "0.0-10.0-9.0"}}, {"uniqueid": "MTK0896:3EQHHY4HQTZ0MFIYK6UJYI3CQGR5GK", "current_trial": 20, "dateTime": 1512864548887, "trialdata": {"rt": -1, "stimulus": "<p id=\"stim\">+</p>", "key_press": -1, "type": "FIXATION", "trial_type": "single-stim", "trial_index": 20, "time_elapsed": 205593, "internal_node_id": "0.0-11.0-0.0"}}, {"uniqueid": "MTK0896:3EQHHY4HQTZ0MFIYK6UJYI3CQGR5GK", "current_trial": 21, "dateTime": 1512864550088, "trialdata": {"rt": -1, "stimulus": "<p id=\"stim\">HEART</p>", "key_press": -1, "type": "PRES_VIS", "word": "heart", "wordID": 696, "conditions": [18, 1200, "v", 18000], "trial": 0, "serialpos": 0, "trial_type": "single-stim", "trial_index": 21, "time_elapsed": 206794, "internal_node_id": "0.0-12.0"}}, {"uniqueid": "MTK0896:3EQHHY4HQTZ0MFIYK6UJYI3CQGR5GK", "current_trial": 22, "dateTime": 1512864552490, "trialdata": {"rt": -1, "stimulus": "<p id=\"stim\">GRILL</p>", "key_press": -1, "type": "PRES_VIS", "word": "grill", "wordID": 660, "conditions": [18, 1200, "v", 18000], "trial": 0, "serialpos": 1, "trial_type": "single-stim", "trial_index": 22, "time_elapsed": 209196, "internal_node_id": "0.0-13.0"}}, {"uniqueid": "MTK0896:3EQHHY4HQTZ0MFIYK6UJYI3CQGR5GK", "current_trial": 23, "dateTime": 1512864554520, "trialdata": {"rt": -1, "stimulus": "<p id=\"stim\">PIMPLE</p>", "key_press": -1, "type": "PRES_VIS", "word": "pimple", "wordID": 1070, "conditions": [18, 1200, "v", 18000], "trial": 0, "serialpos": 2, "trial_type": "single-stim", "trial_index": 23, "time_elapsed": 211226, "internal_node_id": "0.0-14.0"}}, {"uniqueid": "MTK0896:3EQHHY4HQTZ0MFIYK6UJYI3CQGR5GK", "current_trial": 24, "dateTime": 1512864556776, "trialdata": {"rt": -1, "stimulus": "<p id=\"stim\">MARINE</p>", "key_press": -1, "type": "PRES_VIS", "word": "marine", "wordID": 868, "conditions": [18, 1200, "v", 18000], "trial": 0, "serialpos": 3, "trial_type": "single-stim", "trial_index": 24, "time_elapsed": 213482, "internal_node_id": "0.0-15.0"}}, {"uniqueid": "MTK0896:3EQHHY4HQTZ0MFIYK6UJYI3CQGR5GK", "current_trial": 25, "dateTime": 1512864558883, "trialdata": {"rt": -1, "stimulus": "<p id=\"stim\">KNIFE</p>", "key_press": -1, "type": "PRES_VIS", "word": "knife", "wordID": 784, "conditions": [18, 1200, "v", 18000], "trial": 0, "serialpos": 4, "trial_type": "single-stim", "trial_index": 25, "time_elapsed": 215589, "internal_node_id": "0.0-16.0"}}, {"uniqueid": "MTK0896:3EQHHY4HQTZ0MFIYK6UJYI3CQGR5GK", "current_trial": 26, "dateTime": 1512864561244, "trialdata": {"rt": -1, "stimulus": "<p id=\"stim\">SPOOL</p>", "key_press": -1, "type": "PRES_VIS", "word": "spool", "wordID": 1355, "conditions": [18, 1200, "v", 18000], "trial": 0, "serialpos": 5, "trial_type": "single-stim", "trial_index": 26, "time_elapsed": 217950, "internal_node_id": "0.0-17.0"}}, {"uniqueid": "MTK0896:3EQHHY4HQTZ0MFIYK6UJYI3CQGR5GK", "current_trial": 27, "dateTime": 1512864563361, "trialdata": {"rt": -1, "stimulus": "<p id=\"stim\">CHAUFFEUR</p>", "key_press": -1, "type": "PRES_VIS", "word": "chauffeur", "wordID": 282, "conditions": [18, 1200, "v", 18000], "trial": 0, "serialpos": 6, "trial_type": "single-stim", "trial_index": 27, "time_elapsed": 220067, "internal_node_id": "0.0-18.0"}}, {"uniqueid": "MTK0896:3EQHHY4HQTZ0MFIYK6UJYI3CQGR5GK", "current_trial": 28, "dateTime": 1512864565516, "trialdata": {"rt": -1, "stimulus": "<p id=\"stim\">COOK</p>", "key_press": -1, "type": "PRES_VIS", "word": "cook", "wordID": 371, "conditions": [18, 1200, "v", 18000], "trial": 0, "serialpos": 7, "trial_type": "single-stim", "trial_index": 28, "time_elapsed": 222222, "internal_node_id": "0.0-19.0"}}, {"uniqueid": "MTK0896:3EQHHY4HQTZ0MFIYK6UJYI3CQGR5GK", "current_trial": 29, "dateTime": 1512864567581, "trialdata": {"rt": -1, "stimulus": "<p id=\"stim\">STATUE</p>", "key_press": -1, "type": "PRES_VIS", "word": "statue", "wordID": 1373, "conditions": [18, 1200, "v", 18000], "trial": 0, "serialpos": 8, "trial_type": "single-stim", "trial_index": 29, "time_elapsed": 224287, "internal_node_id": "0.0-20.0"}}, {"uniqueid": "MTK0896:3EQHHY4HQTZ0MFIYK6UJYI3CQGR5GK", "current_trial": 30, "dateTime": 1512864569759, "trialdata": {"rt": -1, "stimulus": "<p id=\"stim\">COLLEGE</p>", "key_press": -1, "type": "PRES_VIS", "word": "college", "wordID": 345, "conditions": [18, 1200, "v", 18000], "trial": 0, "serialpos": 9, "trial_type": "single-stim", "trial_index": 30, "time_elapsed": 226465, "internal_node_id": "0.0-21.0"}}, {"uniqueid": "MTK0896:3EQHHY4HQTZ0MFIYK6UJYI3CQGR5GK", "current_trial": 31, "dateTime": 1512864571910, "trialdata": {"rt": -1, "stimulus": "<p id=\"stim\">PARTNER</p>", "key_press": -1, "type": "PRES_VIS", "word": "partner", "wordID": 1016, "conditions": [18, 1200, "v", 18000], "trial": 0, "serialpos": 10, "trial_type": "single-stim", "trial_index": 31, "time_elapsed": 228616, "internal_node_id": "0.0-22.0"}}, {"uniqueid": "MTK0896:3EQHHY4HQTZ0MFIYK6UJYI3CQGR5GK", "current_trial": 32, "dateTime": 1512864574296, "trialdata": {"rt": -1, "stimulus": "<p id=\"stim\">FOX</p>", "key_press": -1, "type": "PRES_VIS", "word": "fox", "wordID": 597, "conditions": [18, 1200, "v", 18000], "trial": 0, "serialpos": 11, "trial_type": "single-stim", "trial_index": 32, "time_elapsed": 231002, "internal_node_id": "0.0-23.0"}}, {"uniqueid": "MTK0896:3EQHHY4HQTZ0MFIYK6UJYI3CQGR5GK", "current_trial": 33, "dateTime": 1512864576518, "trialdata": {"rt": -1, "stimulus": "<p id=\"stim\">ORANGE</p>", "key_press": -1, "type": "PRES_VIS", "word": "orange", "wordID": 979, "conditions": [18, 1200, "v", 18000], "trial": 0, "serialpos": 12, "trial_type": "single-stim", "trial_index": 33, "time_elapsed": 233224, "internal_node_id": "0.0-24.0"}}, {"uniqueid": "MTK0896:3EQHHY4HQTZ0MFIYK6UJYI3CQGR5GK", "current_trial": 34, "dateTime": 1512864578567, "trialdata": {"rt": -1, "stimulus": "<p id=\"stim\">HANDBAG</p>", "key_press": -1, "type": "PRES_VIS", "word": "handbag", "wordID": 683, "conditions": [18, 1200, "v", 18000], "trial": 0, "serialpos": 13, "trial_type": "single-stim", "trial_index": 34, "time_elapsed": 235273, "internal_node_id": "0.0-25.0"}}, {"uniqueid": "MTK0896:3EQHHY4HQTZ0MFIYK6UJYI3CQGR5GK", "current_trial": 35, "dateTime": 1512864580742, "trialdata": {"rt": -1, "stimulus": "<p id=\"stim\">BLOUSE</p>", "key_press": -1, "type": "PRES_VIS", "word": "blouse", "wordID": 138, "conditions": [18, 1200, "v", 18000], "trial": 0, "serialpos": 14, "trial_type": "single-stim", "trial_index": 35, "time_elapsed": 237448, "internal_node_id": "0.0-26.0"}}, {"uniqueid": "MTK0896:3EQHHY4HQTZ0MFIYK6UJYI3CQGR5GK", "current_trial": 36, "dateTime": 1512864583131, "trialdata": {"rt": -1, "stimulus": "<p id=\"stim\">BUG</p>", "key_press": -1, "type": "PRES_VIS", "word": "bug", "wordID": 186, "conditions": [18, 1200, "v", 18000], "trial": 0, "serialpos": 15, "trial_type": "single-stim", "trial_index": 36, "time_elapsed": 239837, "internal_node_id": "0.0-27.0"}}, {"uniqueid": "MTK0896:3EQHHY4HQTZ0MFIYK6UJYI3CQGR5GK", "current_trial": 37, "dateTime": 1512864585373, "trialdata": {"rt": -1, "stimulus": "<p id=\"stim\">TART</p>", "key_press": -1, "type": "PRES_VIS", "word": "tart", "wordID": 1435, "conditions": [18, 1200, "v", 18000], "trial": 0, "serialpos": 16, "trial_type": "single-stim", "trial_index": 37, "time_elapsed": 242079, "internal_node_id": "0.0-28.0"}}, {"uniqueid": "MTK0896:3EQHHY4HQTZ0MFIYK6UJYI3CQGR5GK", "current_trial": 38, "dateTime": 1512864587733, "trialdata": {"rt": -1, "stimulus": "<p id=\"stim\">REPORT</p>", "key_press": -1, "type": "PRES_VIS", "word": "report", "wordID": 1183, "conditions": [18, 1200, "v", 18000], "trial": 0, "serialpos": 17, "trial_type": "single-stim", "trial_index": 38, "time_elapsed": 244439, "internal_node_id": "0.0-29.0"}}, {"uniqueid": "MTK0896:3EQHHY4HQTZ0MFIYK6UJYI3CQGR5GK", "current_trial": 39, "dateTime": 1512864590108, "trialdata": {"rt": -1, "stimulus": "", "key_press": -1, "type": "PRE_RECALL_DELAY", "trial_type": "single-stim", "trial_index": 39, "time_elapsed": 246814, "internal_node_id": "0.0-30.0-0.0"}}, {"uniqueid": "MTK0896:3EQHHY4HQTZ0MFIYK6UJYI3CQGR5GK", "current_trial": 40, "dateTime": 1512864590610, "trialdata": {"rt": -1000, "stimulus": "/static/audio/400Hz.wav", "key_press": -1, "type": "PRE_RECALL_ALERT", "trial_type": "single-audio", "trial_index": 40, "time_elapsed": 247316, "internal_node_id": "0.0-31.0"}}, {"uniqueid": "MTK0896:3EQHHY4HQTZ0MFIYK6UJYI3CQGR5GK", "current_trial": 41, "dateTime": 1512864650613, "trialdata": {"rt": [2798, 3971, 4067, 6036, 7330, 8146, 8925, 10938, 13533, 18640, 22022, 35001], "recwords": ["heart", "gril", "", "pimple", "marine", "bug", "tart", "handbag", "blouse", "orange", "chauffer", ""], "type": "FREE_RECALL", "conditions": [18, 1200, "v", 18000], "trial": 0, "trial_type": "free-recall", "trial_index": 41, "time_elapsed": 307317, "internal_node_id": "0.0-32.0-0.0"}}, {"uniqueid": "MTK0896:3EQHHY4HQTZ0MFIYK6UJYI3CQGR5GK", "current_trial": 42, "dateTime": 1512864654184, "trialdata": {"rt": 1571, "key_press": 32, "type": "INSTRUCTIONS", "trial_type": "text", "trial_index": 42, "time_elapsed": 310890, "internal_node_id": "0.0-33.0"}}, {"uniqueid": "MTK0896:3EQHHY4HQTZ0MFIYK6UJYI3CQGR5GK", "current_trial": 43, "dateTime": 1512864674186, "trialdata": {"rt": [3103, 6154, 7971, 9492, 10968, 12672, 14013, 16008, 17812], "responses": ["13", "20", "6", "11", "12", "7", "8", "15", "12"], "num1": [5, 6, 1, 9, 3, 3, 6, 3, 8, 8], "num2": [1, 5, 4, 1, 8, 1, 1, 5, 1, 9], "num3": [7, 9, 1, 1, 1, 3, 1, 7, 3, 1], "type": "DISTRACTOR", "conditions": [18, 1200, "a", 18000], "trial": 1, "trial_type": "math-distractor", "trial_index": 43, "time_elapsed": 330892, "internal_node_id": "0.0-34.0"}}, {"uniqueid": "MTK0896:3EQHHY4HQTZ0MFIYK6UJYI3CQGR5GK", "current_trial": 44, "dateTime": 1512864677188, "trialdata": {"rt": -1, "stimulus": "<p id=\"stim\">10</p>", "key_press": -1, "trial_type": "single-stim", "trial_index": 44, "time_elapsed": 333894, "internal_node_id": "0.0-35.0-0.0"}}, {"uniqueid": "MTK0896:3EQHHY4HQTZ0MFIYK6UJYI3CQGR5GK", "current_trial": 45, "dateTime": 1512864678190, "trialdata": {"rt": -1, "stimulus": "<p id=\"stim\">9</p>", "key_press": -1, "trial_type": "single-stim", "trial_index": 45, "time_elapsed": 334896, "internal_node_id": "0.0-35.0-1.0"}}, {"uniqueid": "MTK0896:3EQHHY4HQTZ0MFIYK6UJYI3CQGR5GK", "current_trial": 46, "dateTime": 1512864679191, "trialdata": {"rt": -1, "stimulus": "<p id=\"stim\">8</p>", "key_press": -1, "trial_type": "single-stim", "trial_index": 46, "time_elapsed": 335897, "internal_node_id": "0.0-35.0-2.0"}}, {"uniqueid": "MTK0896:3EQHHY4HQTZ0MFIYK6UJYI3CQGR5GK", "current_trial": 47, "dateTime": 1512864680191, "trialdata": {"rt": -1, "stimulus": "<p id=\"stim\">7</p>", "key_press": -1, "trial_type": "single-stim", "trial_index": 47, "time_elapsed": 336897, "internal_node_id": "0.0-35.0-3.0"}}, {"uniqueid": "MTK0896:3EQHHY4HQTZ0MFIYK6UJYI3CQGR5GK", "current_trial": 48, "dateTime": 1512864681193, "trialdata": {"rt": -1, "stimulus": "<p id=\"stim\">6</p>", "key_press": -1, "trial_type": "single-stim", "trial_index": 48, "time_elapsed": 337899, "internal_node_id": "0.0-35.0-4.0"}}, {"uniqueid": "MTK0896:3EQHHY4HQTZ0MFIYK6UJYI3CQGR5GK", "current_trial": 49, "dateTime": 1512864682194, "trialdata": {"rt": -1, "stimulus": "<p id=\"stim\">5</p>", "key_press": -1, "trial_type": "single-stim", "trial_index": 49, "time_elapsed": 338900, "internal_node_id": "0.0-35.0-5.0"}}, {"uniqueid": "MTK0896:3EQHHY4HQTZ0MFIYK6UJYI3CQGR5GK", "current_trial": 50, "dateTime": 1512864683194, "trialdata": {"rt": -1, "stimulus": "<p id=\"stim\">4</p>", "key_press": -1, "trial_type": "single-stim", "trial_index": 50, "time_elapsed": 339900, "internal_node_id": "0.0-35.0-6.0"}}, {"uniqueid": "MTK0896:3EQHHY4HQTZ0MFIYK6UJYI3CQGR5GK", "current_trial": 51, "dateTime": 1512864684195, "trialdata": {"rt": -1, "stimulus": "<p id=\"stim\">3</p>", "key_press": -1, "trial_type": "single-stim", "trial_index": 51, "time_elapsed": 340901, "internal_node_id": "0.0-35.0-7.0"}}, {"uniqueid": "MTK0896:3EQHHY4HQTZ0MFIYK6UJYI3CQGR5GK", "current_trial": 52, "dateTime": 1512864685196, "trialdata": {"rt": -1, "stimulus": "<p id=\"stim\">2</p>", "key_press": -1, "trial_type": "single-stim", "trial_index": 52, "time_elapsed": 341902, "internal_node_id": "0.0-35.0-8.0"}}, {"uniqueid": "MTK0896:3EQHHY4HQTZ0MFIYK6UJYI3CQGR5GK", "current_trial": 53, "dateTime": 1512864686196, "trialdata": {"rt": -1, "stimulus": "<p id=\"stim\">1</p>", "key_press": -1, "trial_type": "single-stim", "trial_index": 53, "time_elapsed": 342902, "internal_node_id": "0.0-35.0-9.0"}}, {"uniqueid": "MTK0896:3EQHHY4HQTZ0MFIYK6UJYI3CQGR5GK", "current_trial": 54, "dateTime": 1512864687697, "trialdata": {"rt": -1, "stimulus": "<p id=\"stim\">+</p>", "key_press": -1, "type": "FIXATION", "trial_type": "single-stim", "trial_index": 54, "time_elapsed": 344403, "internal_node_id": "0.0-36.0-0.0"}}, {"uniqueid": "MTK0896:3EQHHY4HQTZ0MFIYK6UJYI3CQGR5GK", "current_trial": 55, "dateTime": 1512864689904, "trialdata": {"rt": -1000, "stimulus": "/static/audio/wordpool/WRENCH.wav", "key_press": -1, "type": "PRES_AUD", "word": "wrench", "wordID": 1624, "conditions": [18, 1200, "a", 18000], "trial": 1, "serialpos": 0, "trial_type": "single-audio", "trial_index": 55, "time_elapsed": 346610, "internal_node_id": "0.0-37.0"}}, {"uniqueid": "MTK0896:3EQHHY4HQTZ0MFIYK6UJYI3CQGR5GK", "current_trial": 56, "dateTime": 1512864692127, "trialdata": {"rt": -1000, "stimulus": "/static/audio/wordpool/LEOPARD.wav", "key_press": -1, "type": "PRES_AUD", "word": "leopard", "wordID": 811, "conditions": [18, 1200, "a", 18000], "trial": 1, "serialpos": 1, "trial_type": "single-audio", "trial_index": 56, "time_elapsed": 348833, "internal_node_id": "0.0-38.0"}}, {"uniqueid": "MTK0896:3EQHHY4HQTZ0MFIYK6UJYI3CQGR5GK", "current_trial": 57, "dateTime": 1512864694455, "trialdata": {"rt": -1000, "stimulus": "/static/audio/wordpool/RABBIT.wav", "key_press": -1, "type": "PRES_AUD", "word": "rabbit", "wordID": 1151, "conditions": [18, 1200, "a", 18000], "trial": 1, "serialpos": 2, "trial_type": "single-audio", "trial_index": 57, "time_elapsed": 351161, "internal_node_id": "0.0-39.0"}}, {"uniqueid": "MTK0896:3EQHHY4HQTZ0MFIYK6UJYI3CQGR5GK", "current_trial": 58, "dateTime": 1512864696689, "trialdata": {"rt": -1000, "stimulus": "/static/audio/wordpool/RAFT.wav", "key_press": -1, "type": "PRES_AUD", "word": "raft", "wordID": 1158, "conditions": [18, 1200, "a", 18000], "trial": 1, "serialpos": 3, "trial_type": "single-audio", "trial_index": 58, "time_elapsed": 353395, "internal_node_id": "0.0-40.0"}}, {"uniqueid": "MTK0896:3EQHHY4HQTZ0MFIYK6UJYI3CQGR5GK", "current_trial": 59, "dateTime": 1512864698809, "trialdata": {"rt": -1000, "stimulus": "/static/audio/wordpool/MAILBOX.wav", "key_press": -1, "type": "PRES_AUD", "word": "mailbox", "wordID": 856, "conditions": [18, 1200, "a", 18000], "trial": 1, "serialpos": 4, "trial_type": "single-audio", "trial_index": 59, "time_elapsed": 355515, "internal_node_id": "0.0-41.0"}}, {"uniqueid": "MTK0896:3EQHHY4HQTZ0MFIYK6UJYI3CQGR5GK", "current_trial": 60, "dateTime": 1512864701059, "trialdata": {"rt": -1000, "stimulus": "/static/audio/wordpool/UNCLE.wav", "key_press": -1, "type": "PRES_AUD", "word": "uncle", "wordID": 1535, "conditions": [18, 1200, "a", 18000], "trial": 1, "serialpos": 5, "trial_type": "single-audio", "trial_index": 60, "time_elapsed": 357765, "internal_node_id": "0.0-42.0"}}, {"uniqueid": "MTK0896:3EQHHY4HQTZ0MFIYK6UJYI3CQGR5GK", "current_trial": 61, "dateTime": 1512864703376, "trialdata": {"rt": -1000, "stimulus": "/static/audio/wordpool/THREAD.wav", "key_press": -1, "type": "PRES_AUD", "word": "thread", "wordID": 1459, "conditions": [18, 1200, "a", 18000], "trial": 1, "serialpos": 6, "trial_type": "single-audio", "trial_index": 61, "time_elapsed": 360082, "internal_node_id": "0.0-43.0"}}, {"uniqueid": "MTK0896:3EQHHY4HQTZ0MFIYK6UJYI3CQGR5GK", "current_trial": 62, "dateTime": 1512864705681, "trialdata": {"rt": -1000, "stimulus": "/static/audio/wordpool/SPONGE.wav", "key_press": -1, "type": "PRES_AUD", "word": "sponge", "wordID": 1354, "conditions": [18, 1200, "a", 18000], "trial": 1, "serialpos": 7, "trial_type": "single-audio", "trial_index": 62, "time_elapsed": 362387, "internal_node_id": "0.0-44.0"}}, {"uniqueid": "MTK0896:3EQHHY4HQTZ0MFIYK6UJYI3CQGR5GK", "current_trial": 63, "dateTime": 1512864707717, "trialdata": {"rt": -1000, "stimulus": "/static/audio/wordpool/CIGAR.wav", "key_press": -1, "type": "PRES_AUD", "word": "cigar", "wordID": 307, "conditions": [18, 1200, "a", 18000], "trial": 1, "serialpos": 8, "trial_type": "single-audio", "trial_index": 63, "time_elapsed": 364422, "internal_node_id": "0.0-45.0"}}, {"uniqueid": "MTK0896:3EQHHY4HQTZ0MFIYK6UJYI3CQGR5GK", "current_trial": 64, "dateTime": 1512864709876, "trialdata": {"rt": -1000, "stimulus": "/static/audio/wordpool/SEAL.wav", "key_press": -1, "type": "PRES_AUD", "word": "seal", "wordID": 1261, "conditions": [18, 1200, "a", 18000], "trial": 1, "serialpos": 9, "trial_type": "single-audio", "trial_index": 64, "time_elapsed": 366582, "internal_node_id": "0.0-46.0"}}, {"uniqueid": "MTK0896:3EQHHY4HQTZ0MFIYK6UJYI3CQGR5GK", "current_trial": 65, "dateTime": 1512864712238, "trialdata": {"rt": -1000, "stimulus": "/static/audio/wordpool/FRANCE.wav", "key_press": -1, "type": "PRES_AUD", "word": "france", "wordID": 600, "conditions": [18, 1200, "a", 18000], "trial": 1, "serialpos": 10, "trial_type": "single-audio", "trial_index": 65, "time_elapsed": 368944, "internal_node_id": "0.0-47.0"}}, {"uniqueid": "MTK0896:3EQHHY4HQTZ0MFIYK6UJYI3CQGR5GK", "current_trial": 66, "dateTime": 1512864714638, "trialdata": {"rt": -1000, "stimulus": "/static/audio/wordpool/INMATE.wav", "key_press": -1, "type": "PRES_AUD", "word": "inmate", "wordID": 737, "conditions": [18, 1200, "a", 18000], "trial": 1, "serialpos": 11, "trial_type": "single-audio", "trial_index": 66, "time_elapsed": 371344, "internal_node_id": "0.0-48.0"}}, {"uniqueid": "MTK0896:3EQHHY4HQTZ0MFIYK6UJYI3CQGR5GK", "current_trial": 67, "dateTime": 1512864716699, "trialdata": {"rt": -1000, "stimulus": "/static/audio/wordpool/FLIPPER.wav", "key_press": -1, "type": "PRES_AUD", "word": "flipper", "wordID": 579, "conditions": [18, 1200, "a", 18000], "trial": 1, "serialpos": 12, "trial_type": "single-audio", "trial_index": 67, "time_elapsed": 373405, "internal_node_id": "0.0-49.0"}}, {"uniqueid": "MTK0896:3EQHHY4HQTZ0MFIYK6UJYI3CQGR5GK", "current_trial": 68, "dateTime": 1512864719100, "trialdata": {"rt": -1000, "stimulus": "/static/audio/wordpool/TYPIST.wav", "key_press": -1, "type": "PRES_AUD", "word": "typist", "wordID": 1531, "conditions": [18, 1200, "a", 18000], "trial": 1, "serialpos": 13, "trial_type": "single-audio", "trial_index": 68, "time_elapsed": 375805, "internal_node_id": "0.0-50.0"}}, {"uniqueid": "MTK0896:3EQHHY4HQTZ0MFIYK6UJYI3CQGR5GK", "current_trial": 69, "dateTime": 1512864721297, "trialdata": {"rt": -1000, "stimulus": "/static/audio/wordpool/TURKEY.wav", "key_press": -1, "type": "PRES_AUD", "word": "turkey", "wordID": 1519, "conditions": [18, 1200, "a", 18000], "trial": 1, "serialpos": 14, "trial_type": "single-audio", "trial_index": 69, "time_elapsed": 378003, "internal_node_id": "0.0-51.0"}}, {"uniqueid": "MTK0896:3EQHHY4HQTZ0MFIYK6UJYI3CQGR5GK", "current_trial": 70, "dateTime": 1512864723569, "trialdata": {"rt": -1000, "stimulus": "/static/audio/wordpool/DUSTPAN.wav", "key_press": -1, "type": "PRES_AUD", "word": "dustpan", "wordID": 508, "conditions": [18, 1200, "a", 18000], "trial": 1, "serialpos": 15, "trial_type": "single-audio", "trial_index": 70, "time_elapsed": 380275, "internal_node_id": "0.0-52.0"}}, {"uniqueid": "MTK0896:3EQHHY4HQTZ0MFIYK6UJYI3CQGR5GK", "current_trial": 71, "dateTime": 1512864725814, "trialdata": {"rt": -1000, "stimulus": "/static/audio/wordpool/WAGON.wav", "key_press": -1, "type": "PRES_AUD", "word": "wagon", "wordID": 1577, "conditions": [18, 1200, "a", 18000], "trial": 1, "serialpos": 16, "trial_type": "single-audio", "trial_index": 71, "time_elapsed": 382520, "internal_node_id": "0.0-53.0"}}, {"uniqueid": "MTK0896:3EQHHY4HQTZ0MFIYK6UJYI3CQGR5GK", "current_trial": 72, "dateTime": 1512864728066, "trialdata": {"rt": -1000, "stimulus": "/static/audio/wordpool/GAZELLE.wav", "key_press": -1, "type": "PRES_AUD", "word": "gazelle", "wordID": 627, "conditions": [18, 1200, "a", 18000], "trial": 1, "serialpos": 17, "trial_type": "single-audio", "trial_index": 72, "time_elapsed": 384772, "internal_node_id": "0.0-54.0"}}, {"uniqueid": "MTK0896:3EQHHY4HQTZ0MFIYK6UJYI3CQGR5GK", "current_trial": 73, "dateTime": 1512864729311, "trialdata": {"rt": -1, "stimulus": "", "key_press": -1, "type": "PRE_RECALL_DELAY", "trial_type": "single-stim", "trial_index": 73, "time_elapsed": 386017, "internal_node_id": "0.0-55.0-0.0"}}, {"uniqueid": "MTK0896:3EQHHY4HQTZ0MFIYK6UJYI3CQGR5GK", "current_trial": 74, "dateTime": 1512864729812, "trialdata": {"rt": -1000, "stimulus": "/static/audio/400Hz.wav", "key_press": -1, "type": "PRE_RECALL_ALERT", "trial_type": "single-audio", "trial_index": 74, "time_elapsed": 386518, "internal_node_id": "0.0-56.0"}}, {"uniqueid": "MTK0896:3EQHHY4HQTZ0MFIYK6UJYI3CQGR5GK", "current_trial": 75, "dateTime": 1512864789814, "trialdata": {"rt": [2598, 3827, 6112, 11224, 13373, 15158, 21463, 30455], "recwords": ["uncle", "dustpan", "inmate", "gazelle", "turkey", "cigar", "sponge", "wagon"], "type": "FREE_RECALL", "conditions": [18, 1200, "a", 18000], "trial": 1, "trial_type": "free-recall", "trial_index": 75, "time_elapsed": 446519, "internal_node_id": "0.0-57.0-0.0"}}, {"uniqueid": "MTK0896:3EQHHY4HQTZ0MFIYK6UJYI3CQGR5GK", "current_trial": 76, "dateTime": 1512864796728, "trialdata": {"rt": 4909, "key_press": 32, "type": "INSTRUCTIONS", "trial_type": "text", "trial_index": 76, "time_elapsed": 453432, "internal_node_id": "0.0-58.0"}}, {"uniqueid": "MTK0896:3EQHHY4HQTZ0MFIYK6UJYI3CQGR5GK", "current_trial": 77, "dateTime": 1512864809730, "trialdata": {"rt": [2273, 4039, 5447, 7276, 9095, 11582], "responses": ["13", "16", "10", "15", "19", "11"], "num1": [2, 9, 1, 6, 9, 6, 7], "num2": [7, 5, 8, 5, 7, 2, 8], "num3": [4, 2, 1, 4, 3, 3, 4], "type": "DISTRACTOR", "conditions": [24, 800, "a", 12000], "trial": 2, "trial_type": "math-distractor", "trial_index": 77, "time_elapsed": 466436, "internal_node_id": "0.0-59.0"}}, {"uniqueid": "MTK0896:3EQHHY4HQTZ0MFIYK6UJYI3CQGR5GK", "current_trial": 78, "dateTime": 1512864812732, "trialdata": {"rt": -1, "stimulus": "<p id=\"stim\">10</p>", "key_press": -1, "trial_type": "single-stim", "trial_index": 78, "time_elapsed": 469438, "internal_node_id": "0.0-60.0-0.0"}}, {"uniqueid": "MTK0896:3EQHHY4HQTZ0MFIYK6UJYI3CQGR5GK", "current_trial": 79, "dateTime": 1512864813734, "trialdata": {"rt": -1, "stimulus": "<p id=\"stim\">9</p>", "key_press": -1, "trial_type": "single-stim", "trial_index": 79, "time_elapsed": 470439, "internal_node_id": "0.0-60.0-1.0"}}, {"uniqueid": "MTK0896:3EQHHY4HQTZ0MFIYK6UJYI3CQGR5GK", "current_trial": 80, "dateTime": 1512864814735, "trialdata": {"rt": -1, "stimulus": "<p id=\"stim\">8</p>", "key_press": -1, "trial_type": "single-stim", "trial_index": 80, "time_elapsed": 471441, "internal_node_id": "0.0-60.0-2.0"}}, {"uniqueid": "MTK0896:3EQHHY4HQTZ0MFIYK6UJYI3CQGR5GK", "current_trial": 81, "dateTime": 1512864815735, "trialdata": {"rt": -1, "stimulus": "<p id=\"stim\">7</p>", "key_press": -1, "trial_type": "single-stim", "trial_index": 81, "time_elapsed": 472441, "internal_node_id": "0.0-60.0-3.0"}}, {"uniqueid": "MTK0896:3EQHHY4HQTZ0MFIYK6UJYI3CQGR5GK", "current_trial": 82, "dateTime": 1512864816736, "trialdata": {"rt": -1, "stimulus": "<p id=\"stim\">6</p>", "key_press": -1, "trial_type": "single-stim", "trial_index": 82, "time_elapsed": 473442, "internal_node_id": "0.0-60.0-4.0"}}, {"uniqueid": "MTK0896:3EQHHY4HQTZ0MFIYK6UJYI3CQGR5GK", "current_trial": 83, "dateTime": 1512864817737, "trialdata": {"rt": -1, "stimulus": "<p id=\"stim\">5</p>", "key_press": -1, "trial_type": "single-stim", "trial_index": 83, "time_elapsed": 474443, "internal_node_id": "0.0-60.0-5.0"}}, {"uniqueid": "MTK0896:3EQHHY4HQTZ0MFIYK6UJYI3CQGR5GK", "current_trial": 84, "dateTime": 1512864818737, "trialdata": {"rt": -1, "stimulus": "<p id=\"stim\">4</p>", "key_press": -1, "trial_type": "single-stim", "trial_index": 84, "time_elapsed": 475443, "internal_node_id": "0.0-60.0-6.0"}}, {"uniqueid": "MTK0896:3EQHHY4HQTZ0MFIYK6UJYI3CQGR5GK", "current_trial": 85, "dateTime": 1512864819738, "trialdata": {"rt": -1, "stimulus": "<p id=\"stim\">3</p>", "key_press": -1, "trial_type": "single-stim", "trial_index": 85, "time_elapsed": 476444, "internal_node_id": "0.0-60.0-7.0"}}, {"uniqueid": "MTK0896:3EQHHY4HQTZ0MFIYK6UJYI3CQGR5GK", "current_trial": 86, "dateTime": 1512864820739, "trialdata": {"rt": -1, "stimulus": "<p id=\"stim\">2</p>", "key_press": -1, "trial_type": "single-stim", "trial_index": 86, "time_elapsed": 477445, "internal_node_id": "0.0-60.0-8.0"}}, {"uniqueid": "MTK0896:3EQHHY4HQTZ0MFIYK6UJYI3CQGR5GK", "current_trial": 87, "dateTime": 1512864821739, "trialdata": {"rt": -1, "stimulus": "<p id=\"stim\">1</p>", "key_press": -1, "trial_type": "single-stim", "trial_index": 87, "time_elapsed": 478445, "internal_node_id": "0.0-60.0-9.0"}}, {"uniqueid": "MTK0896:3EQHHY4HQTZ0MFIYK6UJYI3CQGR5GK", "current_trial": 88, "dateTime": 1512864823240, "trialdata": {"rt": -1, "stimulus": "<p id=\"stim\">+</p>", "key_press": -1, "type": "FIXATION", "trial_type": "single-stim", "trial_index": 88, "time_elapsed": 479946, "internal_node_id": "0.0-61.0-0.0"}}, {"uniqueid": "MTK0896:3EQHHY4HQTZ0MFIYK6UJYI3CQGR5GK", "current_trial": 89, "dateTime": 1512864824956, "trialdata": {"rt": -1000, "stimulus": "/static/audio/wordpool/SODA.wav", "key_press": -1, "type": "PRES_AUD", "word": "soda", "wordID": 1340, "conditions": [24, 800, "a", 12000], "trial": 2, "serialpos": 0, "trial_type": "single-audio", "trial_index": 89, "time_elapsed": 481662, "internal_node_id": "0.0-62.0"}}, {"uniqueid": "MTK0896:3EQHHY4HQTZ0MFIYK6UJYI3CQGR5GK", "current_trial": 90, "dateTime": 1512864826799, "trialdata": {"rt": -1000, "stimulus": "/static/audio/wordpool/SWITCH.wav", "key_press": -1, "type": "PRES_AUD", "word": "switch", "wordID": 1421, "conditions": [24, 800, "a", 12000], "trial": 2, "serialpos": 1, "trial_type": "single-audio", "trial_index": 90, "time_elapsed": 483505, "internal_node_id": "0.0-63.0"}}, {"uniqueid": "MTK0896:3EQHHY4HQTZ0MFIYK6UJYI3CQGR5GK", "current_trial": 91, "dateTime": 1512864828697, "trialdata": {"rt": -1000, "stimulus": "/static/audio/wordpool/HOOK.wav", "key_press": -1, "type": "PRES_AUD", "word": "hook", "wordID": 714, "conditions": [24, 800, "a", 12000], "trial": 2, "serialpos": 2, "trial_type": "single-audio", "trial_index": 91, "time_elapsed": 485403, "internal_node_id": "0.0-64.0"}}, {"uniqueid": "MTK0896:3EQHHY4HQTZ0MFIYK6UJYI3CQGR5GK", "current_trial": 92, "dateTime": 1512864830357, "trialdata": {"rt": -1000, "stimulus": "/static/audio/wordpool/PECAN.wav", "key_press": -1, "type": "PRES_AUD", "word": "pecan", "wordID": 1035, "conditions": [24, 800, "a", 12000], "trial": 2, "serialpos": 3, "trial_type": "single-audio", "trial_index": 92, "time_elapsed": 487063, "internal_node_id": "0.0-65.0"}}, {"uniqueid": "MTK0896:3EQHHY4HQTZ0MFIYK6UJYI3CQGR5GK", "current_trial": 93, "dateTime": 1512864832089, "trialdata": {"rt": -1000, "stimulus": "/static/audio/wordpool/COCOON.wav", "key_press": -1, "type": "PRES_AUD", "word": "cocoon", "wordID": 338, "conditions": [24, 800, "a", 12000], "trial": 2, "serialpos": 4, "trial_type": "single-audio", "trial_index": 93, "time_elapsed": 488795, "internal_node_id": "0.0-66.0"}}, {"uniqueid": "MTK0896:3EQHHY4HQTZ0MFIYK6UJYI3CQGR5GK", "current_trial": 94, "dateTime": 1512864833833, "trialdata": {"rt": -1000, "stimulus": "/static/audio/wordpool/ONION.wav", "key_press": -1, "type": "PRES_AUD", "word": "onion", "wordID": 976, "conditions": [24, 800, "a", 12000], "trial": 2, "serialpos": 5, "trial_type": "single-audio", "trial_index": 94, "time_elapsed": 490539, "internal_node_id": "0.0-67.0"}}, {"uniqueid": "MTK0896:3EQHHY4HQTZ0MFIYK6UJYI3CQGR5GK", "current_trial": 95, "dateTime": 1512864835696, "trialdata": {"rt": -1000, "stimulus": "/static/audio/wordpool/HUMAN.wav", "key_press": -1, "type": "PRES_AUD", "word": "human", "wordID": 725, "conditions": [24, 800, "a", 12000], "trial": 2, "serialpos": 6, "trial_type": "single-audio", "trial_index": 95, "time_elapsed": 492402, "internal_node_id": "0.0-68.0"}}, {"uniqueid": "MTK0896:3EQHHY4HQTZ0MFIYK6UJYI3CQGR5GK", "current_trial": 96, "dateTime": 1512864837603, "trialdata": {"rt": -1000, "stimulus": "/static/audio/wordpool/KNAPSACK.wav", "key_press": -1, "type": "PRES_AUD", "word": "knapsack", "wordID": 782, "conditions": [24, 800, "a", 12000], "trial": 2, "serialpos": 7, "trial_type": "single-audio", "trial_index": 96, "time_elapsed": 494309, "internal_node_id": "0.0-69.0"}}, {"uniqueid": "MTK0896:3EQHHY4HQTZ0MFIYK6UJYI3CQGR5GK", "current_trial": 97, "dateTime": 1512864839214, "trialdata": {"rt": -1000, "stimulus": "/static/audio/wordpool/POPCORN.wav", "key_press": -1, "type": "PRES_AUD", "word": "popcorn", "wordID": 1103, "conditions": [24, 800, "a", 12000], "trial": 2, "serialpos": 8, "trial_type": "single-audio", "trial_index": 97, "time_elapsed": 495920, "internal_node_id": "0.0-70.0"}}, {"uniqueid": "MTK0896:3EQHHY4HQTZ0MFIYK6UJYI3CQGR5GK", "current_trial": 98, "dateTime": 1512864840951, "trialdata": {"rt": -1000, "stimulus": "/static/audio/wordpool/SCARF.wav", "key_press": -1, "type": "PRES_AUD", "word": "scarf", "wordID": 1245, "conditions": [24, 800, "a", 12000], "trial": 2, "serialpos": 9, "trial_type": "single-audio", "trial_index": 98, "time_elapsed": 497657, "internal_node_id": "0.0-71.0"}}, {"uniqueid": "MTK0896:3EQHHY4HQTZ0MFIYK6UJYI3CQGR5GK", "current_trial": 99, "dateTime": 1512864842823, "trialdata": {"rt": -1000, "stimulus": "/static/audio/wordpool/LACE.wav", "key_press": -1, "type": "PRES_AUD", "word": "lace", "wordID": 791, "conditions": [24, 800, "a", 12000], "trial": 2, "serialpos": 10, "trial_type": "single-audio", "trial_index": 99, "time_elapsed": 499529, "internal_node_id": "0.0-72.0"}}, {"uniqueid": "MTK0896:3EQHHY4HQTZ0MFIYK6UJYI3CQGR5GK", "current_trial": 100, "dateTime": 1512864844566, "trialdata": {"rt": -1000, "stimulus": "/static/audio/wordpool/PLAID.wav", "key_press": -1, "type": "PRES_AUD", "word": "plaid", "wordID": 1079, "conditions": [24, 800, "a", 12000], "trial": 2, "serialpos": 11, "trial_type": "single-audio", "trial_index": 100, "time_elapsed": 501272, "internal_node_id": "0.0-73.0"}}, {"uniqueid": "MTK0896:3EQHHY4HQTZ0MFIYK6UJYI3CQGR5GK", "current_trial": 101, "dateTime": 1512864846344, "trialdata": {"rt": -1000, "stimulus": "/static/audio/wordpool/COIN.wav", "key_press": -1, "type": "PRES_AUD", "word": "coin", "wordID": 342, "conditions": [24, 800, "a", 12000], "trial": 2, "serialpos": 12, "trial_type": "single-audio", "trial_index": 101, "time_elapsed": 503050, "internal_node_id": "0.0-74.0"}}, {"uniqueid": "MTK0896:3EQHHY4HQTZ0MFIYK6UJYI3CQGR5GK", "current_trial": 102, "dateTime": 1512864848328, "trialdata": {"rt": -1000, "stimulus": "/static/audio/wordpool/PLIERS.wav", "key_press": -1, "type": "PRES_AUD", "word": "pliers", "wordID": 1088, "conditions": [24, 800, "a", 12000], "trial": 2, "serialpos": 13, "trial_type": "single-audio", "trial_index": 102, "time_elapsed": 505034, "internal_node_id": "0.0-75.0"}}, {"uniqueid": "MTK0896:3EQHHY4HQTZ0MFIYK6UJYI3CQGR5GK", "current_trial": 103, "dateTime": 1512864849965, "trialdata": {"rt": -1000, "stimulus": "/static/audio/wordpool/TRANSPLANT.wav", "key_press": -1, "type": "PRES_AUD", "word": "transplant", "wordID": 1495, "conditions": [24, 800, "a", 12000], "trial": 2, "serialpos": 14, "trial_type": "single-audio", "trial_index": 103, "time_elapsed": 506671, "internal_node_id": "0.0-76.0"}}, {"uniqueid": "MTK0896:3EQHHY4HQTZ0MFIYK6UJYI3CQGR5GK", "current_trial": 104, "dateTime": 1512864851795, "trialdata": {"rt": -1000, "stimulus": "/static/audio/wordpool/MOTOR.wav", "key_press": -1, "type": "PRES_AUD", "word": "motor", "wordID": 921, "conditions": [24, 800, "a", 12000], "trial": 2, "serialpos": 15, "trial_type": "single-audio", "trial_index": 104, "time_elapsed": 508501, "internal_node_id": "0.0-77.0"}}, {"uniqueid": "MTK0896:3EQHHY4HQTZ0MFIYK6UJYI3CQGR5GK", "current_trial": 105, "dateTime": 1512864853709, "trialdata": {"rt": -1000, "stimulus": "/static/audio/wordpool/QUEEN.wav", "key_press": -1, "type": "PRES_AUD", "word": "queen", "wordID": 1148, "conditions": [24, 800, "a", 12000], "trial": 2, "serialpos": 16, "trial_type": "single-audio", "trial_index": 105, "time_elapsed": 510415, "internal_node_id": "0.0-78.0"}}, {"uniqueid": "MTK0896:3EQHHY4HQTZ0MFIYK6UJYI3CQGR5GK", "current_trial": 106, "dateTime": 1512864855666, "trialdata": {"rt": -1000, "stimulus": "/static/audio/wordpool/PRINCESS.wav", "key_press": -1, "type": "PRES_AUD", "word": "princess", "wordID": 1124, "conditions": [24, 800, "a", 12000], "trial": 2, "serialpos": 17, "trial_type": "single-audio", "trial_index": 106, "time_elapsed": 512372, "internal_node_id": "0.0-79.0"}}, {"uniqueid": "MTK0896:3EQHHY4HQTZ0MFIYK6UJYI3CQGR5GK", "current_trial": 107, "dateTime": 1512864857349, "trialdata": {"rt": -1000, "stimulus": "/static/audio/wordpool/JELLO.wav", "key_press": -1, "type": "PRES_AUD", "word": "jello", "wordID": 753, "conditions": [24, 800, "a", 12000], "trial": 2, "serialpos": 18, "trial_type": "single-audio", "trial_index": 107, "time_elapsed": 514055, "internal_node_id": "0.0-80.0"}}, {"uniqueid": "MTK0896:3EQHHY4HQTZ0MFIYK6UJYI3CQGR5GK", "current_trial": 108, "dateTime": 1512864859297, "trialdata": {"rt": -1000, "stimulus": "/static/audio/wordpool/JELLY.wav", "key_press": -1, "type": "PRES_AUD", "word": "jelly", "wordID": 754, "conditions": [24, 800, "a", 12000], "trial": 2, "serialpos": 19, "trial_type": "single-audio", "trial_index": 108, "time_elapsed": 516003, "internal_node_id": "0.0-81.0"}}, {"uniqueid": "MTK0896:3EQHHY4HQTZ0MFIYK6UJYI3CQGR5GK", "current_trial": 109, "dateTime": 1512864860983, "trialdata": {"rt": -1000, "stimulus": "/static/audio/wordpool/TWEEZERS.wav", "key_press": -1, "type": "PRES_AUD", "word": "tweezers", "wordID": 1525, "conditions": [24, 800, "a", 12000], "trial": 2, "serialpos": 20, "trial_type": "single-audio", "trial_index": 109, "time_elapsed": 517689, "internal_node_id": "0.0-82.0"}}, {"uniqueid": "MTK0896:3EQHHY4HQTZ0MFIYK6UJYI3CQGR5GK", "current_trial": 110, "dateTime": 1512864862651, "trialdata": {"rt": -1000, "stimulus": "/static/audio/wordpool/LIPSTICK.wav", "key_press": -1, "type": "PRES_AUD", "word": "lipstick", "wordID": 828, "conditions": [24, 800, "a", 12000], "trial": 2, "serialpos": 21, "trial_type": "single-audio", "trial_index": 110, "time_elapsed": 519357, "internal_node_id": "0.0-83.0"}}, {"uniqueid": "MTK0896:3EQHHY4HQTZ0MFIYK6UJYI3CQGR5GK", "current_trial": 111, "dateTime": 1512864864297, "trialdata": {"rt": -1000, "stimulus": "/static/audio/wordpool/KIDNEY.wav", "key_press": -1, "type": "PRES_AUD", "word": "kidney", "wordID": 775, "conditions": [24, 800, "a", 12000], "trial": 2, "serialpos": 22, "trial_type": "single-audio", "trial_index": 111, "time_elapsed": 521003, "internal_node_id": "0.0-84.0"}}, {"uniqueid": "MTK0896:3EQHHY4HQTZ0MFIYK6UJYI3CQGR5GK", "current_trial": 112, "dateTime": 1512864865995, "trialdata": {"rt": -1000, "stimulus": "/static/audio/wordpool/MACHINE.wav", "key_press": -1, "type": "PRES_AUD", "word": "machine", "wordID": 851, "conditions": [24, 800, "a", 12000], "trial": 2, "serialpos": 23, "trial_type": "single-audio", "trial_index": 112, "time_elapsed": 522701, "internal_node_id": "0.0-85.0"}}, {"uniqueid": "MTK0896:3EQHHY4HQTZ0MFIYK6UJYI3CQGR5GK", "current_trial": 113, "dateTime": 1512864867357, "trialdata": {"rt": -1, "stimulus": "", "key_press": -1, "type": "PRE_RECALL_DELAY", "trial_type": "single-stim", "trial_index": 113, "time_elapsed": 524063, "internal_node_id": "0.0-86.0-0.0"}}, {"uniqueid": "MTK0896:3EQHHY4HQTZ0MFIYK6UJYI3CQGR5GK", "current_trial": 114, "dateTime": 1512864867858, "trialdata": {"rt": -1000, "stimulus": "/static/audio/400Hz.wav", "key_press": -1, "type": "PRE_RECALL_ALERT", "trial_type": "single-audio", "trial_index": 114, "time_elapsed": 524564, "internal_node_id": "0.0-87.0"}}, {"uniqueid": "MTK0896:3EQHHY4HQTZ0MFIYK6UJYI3CQGR5GK", "current_trial": 115, "dateTime": 1512864927861, "trialdata": {"rt": [1846, 3803, 5195, 7410, 8833, 11642, 12776, 15605, 27951, 32722, 36408, 37543, 40739], "recwords": ["queen", "princess", "jello", "jelly", "machine", "tweezers", "switch", "knapsack", "lace", "flag", "kidney", "human", "transplant"], "type": "FREE_RECALL", "conditions": [24, 800, "a", 12000], "trial": 2, "trial_type": "free-recall", "trial_index": 115, "time_elapsed": 584566, "internal_node_id": "0.0-88.0-0.0"}}, {"uniqueid": "MTK0896:3EQHHY4HQTZ0MFIYK6UJYI3CQGR5GK", "current_trial": 116, "dateTime": 1512864931079, "trialdata": {"rt": 1216, "key_press": 32, "type": "INSTRUCTIONS", "trial_type": "text", "trial_index": 116, "time_elapsed": 587784, "internal_node_id": "0.0-89.0"}}, {"uniqueid": "MTK0896:3EQHHY4HQTZ0MFIYK6UJYI3CQGR5GK", "current_trial": 117, "dateTime": 1512864945081, "trialdata": {"rt": [968, 3135, 4569, 6099, 7220, 8643, 10161, 11552], "responses": ["15", "18", "8", "8", "16", "17", "13", "12"], "num1": [5, 6, 1, 2, 6, 9, 2, 9, 5], "num2": [5, 7, 2, 3, 5, 7, 8, 1, 9], "num3": [5, 5, 5, 3, 5, 1, 3, 2, 2], "type": "DISTRACTOR", "conditions": [24, 800, "v", 12000], "trial": 3, "trial_type": "math-distractor", "trial_index": 117, "time_elapsed": 601787, "internal_node_id": "0.0-90.0"}}, {"uniqueid": "MTK0896:3EQHHY4HQTZ0MFIYK6UJYI3CQGR5GK", "current_trial": 118, "dateTime": 1512864948083, "trialdata": {"rt": -1, "stimulus": "<p id=\"stim\">10</p>", "key_press": -1, "trial_type": "single-stim", "trial_index": 118, "time_elapsed": 604789, "internal_node_id": "0.0-91.0-0.0"}}, {"uniqueid": "MTK0896:3EQHHY4HQTZ0MFIYK6UJYI3CQGR5GK", "current_trial": 119, "dateTime": 1512864949084, "trialdata": {"rt": -1, "stimulus": "<p id=\"stim\">9</p>", "key_press": -1, "trial_type": "single-stim", "trial_index": 119, "time_elapsed": 605790, "internal_node_id": "0.0-91.0-1.0"}}, {"uniqueid": "MTK0896:3EQHHY4HQTZ0MFIYK6UJYI3CQGR5GK", "current_trial": 120, "dateTime": 1512864950085, "trialdata": {"rt": -1, "stimulus": "<p id=\"stim\">8</p>", "key_press": -1, "trial_type": "single-stim", "trial_index": 120, "time_elapsed": 606791, "internal_node_id": "0.0-91.0-2.0"}}, {"uniqueid": "MTK0896:3EQHHY4HQTZ0MFIYK6UJYI3CQGR5GK", "current_trial": 121, "dateTime": 1512864951085, "trialdata": {"rt": -1, "stimulus": "<p id=\"stim\">7</p>", "key_press": -1, "trial_type": "single-stim", "trial_index": 121, "time_elapsed": 607791, "internal_node_id": "0.0-91.0-3.0"}}, {"uniqueid": "MTK0896:3EQHHY4HQTZ0MFIYK6UJYI3CQGR5GK", "current_trial": 122, "dateTime": 1512864952086, "trialdata": {"rt": -1, "stimulus": "<p id=\"stim\">6</p>", "key_press": -1, "trial_type": "single-stim", "trial_index": 122, "time_elapsed": 608792, "internal_node_id": "0.0-91.0-4.0"}}, {"uniqueid": "MTK0896:3EQHHY4HQTZ0MFIYK6UJYI3CQGR5GK", "current_trial": 123, "dateTime": 1512864953087, "trialdata": {"rt": -1, "stimulus": "<p id=\"stim\">5</p>", "key_press": -1, "trial_type": "single-stim", "trial_index": 123, "time_elapsed": 609793, "internal_node_id": "0.0-91.0-5.0"}}, {"uniqueid": "MTK0896:3EQHHY4HQTZ0MFIYK6UJYI3CQGR5GK", "current_trial": 124, "dateTime": 1512864954087, "trialdata": {"rt": -1, "stimulus": "<p id=\"stim\">4</p>", "key_press": -1, "trial_type": "single-stim", "trial_index": 124, "time_elapsed": 610793, "internal_node_id": "0.0-91.0-6.0"}}, {"uniqueid": "MTK0896:3EQHHY4HQTZ0MFIYK6UJYI3CQGR5GK", "current_trial": 125, "dateTime": 1512864955088, "trialdata": {"rt": -1, "stimulus": "<p id=\"stim\">3</p>", "key_press": -1, "trial_type": "single-stim", "trial_index": 125, "time_elapsed": 611794, "internal_node_id": "0.0-91.0-7.0"}}, {"uniqueid": "MTK0896:3EQHHY4HQTZ0MFIYK6UJYI3CQGR5GK", "current_trial": 126, "dateTime": 1512864956089, "trialdata": {"rt": -1, "stimulus": "<p id=\"stim\">2</p>", "key_press": -1, "trial_type": "single-stim", "trial_index": 126, "time_elapsed": 612795, "internal_node_id": "0.0-91.0-8.0"}}, {"uniqueid": "MTK0896:3EQHHY4HQTZ0MFIYK6UJYI3CQGR5GK", "current_trial": 127, "dateTime": 1512864957089, "trialdata": {"rt": -1, "stimulus": "<p id=\"stim\">1</p>", "key_press": -1, "trial_type": "single-stim", "trial_index": 127, "time_elapsed": 613795, "internal_node_id": "0.0-91.0-9.0"}}, {"uniqueid": "MTK0896:3EQHHY4HQTZ0MFIYK6UJYI3CQGR5GK", "current_trial": 128, "dateTime": 1512864958590, "trialdata": {"rt": -1, "stimulus": "<p id=\"stim\">+</p>", "key_press": -1, "type": "FIXATION", "trial_type": "single-stim", "trial_index": 128, "time_elapsed": 615296, "internal_node_id": "0.0-92.0-0.0"}}, {"uniqueid": "MTK0896:3EQHHY4HQTZ0MFIYK6UJYI3CQGR5GK", "current_trial": 129, "dateTime": 1512864959391, "trialdata": {"rt": -1, "stimulus": "<p id=\"stim\">BODY</p>", "key_press": -1, "type": "PRES_VIS", "word": "body", "wordID": 144, "conditions": [24, 800, "v", 12000], "trial": 3, "serialpos": 0, "trial_type": "single-stim", "trial_index": 129, "time_elapsed": 616097, "internal_node_id": "0.0-93.0"}}, {"uniqueid": "MTK0896:3EQHHY4HQTZ0MFIYK6UJYI3CQGR5GK", "current_trial": 130, "dateTime": 1512864961129, "trialdata": {"rt": -1, "stimulus": "<p id=\"stim\">PISTOL</p>", "key_press": -1, "type": "PRES_VIS", "word": "pistol", "wordID": 1074, "conditions": [24, 800, "v", 12000], "trial": 3, "serialpos": 1, "trial_type": "single-stim", "trial_index": 130, "time_elapsed": 617835, "internal_node_id": "0.0-94.0"}}, {"uniqueid": "MTK0896:3EQHHY4HQTZ0MFIYK6UJYI3CQGR5GK", "current_trial": 131, "dateTime": 1512864962980, "trialdata": {"rt": -1, "stimulus": "<p id=\"stim\">DRESS</p>", "key_press": -1, "type": "PRES_VIS", "word": "dress", "wordID": 494, "conditions": [24, 800, "v", 12000], "trial": 3, "serialpos": 2, "trial_type": "single-stim", "trial_index": 131, "time_elapsed": 619686, "internal_node_id": "0.0-95.0"}}, {"uniqueid": "MTK0896:3EQHHY4HQTZ0MFIYK6UJYI3CQGR5GK", "current_trial": 132, "dateTime": 1512864964601, "trialdata": {"rt": -1, "stimulus": "<p id=\"stim\">SKIRT</p>", "key_press": -1, "type": "PRES_VIS", "word": "skirt", "wordID": 1318, "conditions": [24, 800, "v", 12000], "trial": 3, "serialpos": 3, "trial_type": "single-stim", "trial_index": 132, "time_elapsed": 621307, "internal_node_id": "0.0-96.0"}}, {"uniqueid": "MTK0896:3EQHHY4HQTZ0MFIYK6UJYI3CQGR5GK", "current_trial": 133, "dateTime": 1512864966250, "trialdata": {"rt": -1, "stimulus": "<p id=\"stim\">SWIMMER</p>", "key_press": -1, "type": "PRES_VIS", "word": "swimmer", "wordID": 1419, "conditions": [24, 800, "v", 12000], "trial": 3, "serialpos": 4, "trial_type": "single-stim", "trial_index": 133, "time_elapsed": 622956, "internal_node_id": "0.0-97.0"}}, {"uniqueid": "MTK0896:3EQHHY4HQTZ0MFIYK6UJYI3CQGR5GK", "current_trial": 134, "dateTime": 1512864967874, "trialdata": {"rt": -1, "stimulus": "<p id=\"stim\">ROOSTER</p>", "key_press": -1, "type": "PRES_VIS", "word": "rooster", "wordID": 1208, "conditions": [24, 800, "v", 12000], "trial": 3, "serialpos": 5, "trial_type": "single-stim", "trial_index": 134, "time_elapsed": 624580, "internal_node_id": "0.0-98.0"}}, {"uniqueid": "MTK0896:3EQHHY4HQTZ0MFIYK6UJYI3CQGR5GK", "current_trial": 135, "dateTime": 1512864969495, "trialdata": {"rt": -1, "stimulus": "<p id=\"stim\">LAPEL</p>", "key_press": -1, "type": "PRES_VIS", "word": "lapel", "wordID": 799, "conditions": [24, 800, "v", 12000], "trial": 3, "serialpos": 6, "trial_type": "single-stim", "trial_index": 135, "time_elapsed": 626201, "internal_node_id": "0.0-99.0"}}, {"uniqueid": "MTK0896:3EQHHY4HQTZ0MFIYK6UJYI3CQGR5GK", "current_trial": 136, "dateTime": 1512864971383, "trialdata": {"rt": -1, "stimulus": "<p id=\"stim\">STAMP</p>", "key_press": -1, "type": "PRES_VIS", "word": "stamp", "wordID": 1369, "conditions": [24, 800, "v", 12000], "trial": 3, "serialpos": 7, "trial_type": "single-stim", "trial_index": 136, "time_elapsed": 628089, "internal_node_id": "0.0-100.0"}}, {"uniqueid": "MTK0896:3EQHHY4HQTZ0MFIYK6UJYI3CQGR5GK", "current_trial": 137, "dateTime": 1512864973136, "trialdata": {"rt": -1, "stimulus": "<p id=\"stim\">ANTLER</p>", "key_press": -1, "type": "PRES_VIS", "word": "antler", "wordID": 28, "conditions": [24, 800, "v", 12000], "trial": 3, "serialpos": 8, "trial_type": "single-stim", "trial_index": 137, "time_elapsed": 629842, "internal_node_id": "0.0-101.0"}}, {"uniqueid": "MTK0896:3EQHHY4HQTZ0MFIYK6UJYI3CQGR5GK", "current_trial": 138, "dateTime": 1512864974918, "trialdata": {"rt": -1, "stimulus": "<p id=\"stim\">KLEENEX</p>", "key_press": -1, "type": "PRES_VIS", "word": "kleenex", "wordID": 781, "conditions": [24, 800, "v", 12000], "trial": 3, "serialpos": 9, "trial_type": "single-stim", "trial_index": 138, "time_elapsed": 631624, "internal_node_id": "0.0-102.0"}}, {"uniqueid": "MTK0896:3EQHHY4HQTZ0MFIYK6UJYI3CQGR5GK", "current_trial": 139, "dateTime": 1512864976776, "trialdata": {"rt": -1, "stimulus": "<p id=\"stim\">PARROT</p>", "key_press": -1, "type": "PRES_VIS", "word": "parrot", "wordID": 1014, "conditions": [24, 800, "v", 12000], "trial": 3, "serialpos": 10, "trial_type": "single-stim", "trial_index": 139, "time_elapsed": 633482, "internal_node_id": "0.0-103.0"}}, {"uniqueid": "MTK0896:3EQHHY4HQTZ0MFIYK6UJYI3CQGR5GK", "current_trial": 140, "dateTime": 1512864978746, "trialdata": {"rt": -1, "stimulus": "<p id=\"stim\">SCALPEL</p>", "key_press": -1, "type": "PRES_VIS", "word": "scalpel", "wordID": 1242, "conditions": [24, 800, "v", 12000], "trial": 3, "serialpos": 11, "trial_type": "single-stim", "trial_index": 140, "time_elapsed": 635452, "internal_node_id": "0.0-104.0"}}, {"uniqueid": "MTK0896:3EQHHY4HQTZ0MFIYK6UJYI3CQGR5GK", "current_trial": 141, "dateTime": 1512864980652, "trialdata": {"rt": -1, "stimulus": "<p id=\"stim\">BUGGY</p>", "key_press": -1, "type": "PRES_VIS", "word": "buggy", "wordID": 187, "conditions": [24, 800, "v", 12000], "trial": 3, "serialpos": 12, "trial_type": "single-stim", "trial_index": 141, "time_elapsed": 637358, "internal_node_id": "0.0-105.0"}}, {"uniqueid": "MTK0896:3EQHHY4HQTZ0MFIYK6UJYI3CQGR5GK", "current_trial": 142, "dateTime": 1512864982409, "trialdata": {"rt": -1, "stimulus": "<p id=\"stim\">WOMAN</p>", "key_press": -1, "type": "PRES_VIS", "word": "woman", "wordID": 1619, "conditions": [24, 800, "v", 12000], "trial": 3, "serialpos": 13, "trial_type": "single-stim", "trial_index": 142, "time_elapsed": 639115, "internal_node_id": "0.0-106.0"}}, {"uniqueid": "MTK0896:3EQHHY4HQTZ0MFIYK6UJYI3CQGR5GK", "current_trial": 143, "dateTime": 1512864984212, "trialdata": {"rt": -1, "stimulus": "<p id=\"stim\">VICTIM</p>", "key_press": -1, "type": "PRES_VIS", "word": "victim", "wordID": 1561, "conditions": [24, 800, "v", 12000], "trial": 3, "serialpos": 14, "trial_type": "single-stim", "trial_index": 143, "time_elapsed": 640918, "internal_node_id": "0.0-107.0"}}, {"uniqueid": "MTK0896:3EQHHY4HQTZ0MFIYK6UJYI3CQGR5GK", "current_trial": 144, "dateTime": 1512864985878, "trialdata": {"rt": -1, "stimulus": "<p id=\"stim\">STAR</p>", "key_press": -1, "type": "PRES_VIS", "word": "star", "wordID": 1372, "conditions": [24, 800, "v", 12000], "trial": 3, "serialpos": 15, "trial_type": "single-stim", "trial_index": 144, "time_elapsed": 642584, "internal_node_id": "0.0-108.0"}}, {"uniqueid": "MTK0896:3EQHHY4HQTZ0MFIYK6UJYI3CQGR5GK", "current_trial": 145, "dateTime": 1512864987778, "trialdata": {"rt": -1, "stimulus": "<p id=\"stim\">PASTRY</p>", "key_press": -1, "type": "PRES_VIS", "word": "pastry", "wordID": 1021, "conditions": [24, 800, "v", 12000], "trial": 3, "serialpos": 16, "trial_type": "single-stim", "trial_index": 145, "time_elapsed": 644484, "internal_node_id": "0.0-109.0"}}, {"uniqueid": "MTK0896:3EQHHY4HQTZ0MFIYK6UJYI3CQGR5GK", "current_trial": 146, "dateTime": 1512864989502, "trialdata": {"rt": -1, "stimulus": "<p id=\"stim\">PICNIC</p>", "key_press": -1, "type": "PRES_VIS", "word": "picnic", "wordID": 1059, "conditions": [24, 800, "v", 12000], "trial": 3, "serialpos": 17, "trial_type": "single-stim", "trial_index": 146, "time_elapsed": 646208, "internal_node_id": "0.0-110.0"}}, {"uniqueid": "MTK0896:3EQHHY4HQTZ0MFIYK6UJYI3CQGR5GK", "current_trial": 147, "dateTime": 1512864991480, "trialdata": {"rt": -1, "stimulus": "<p id=\"stim\">PUDDING</p>", "key_press": -1, "type": "PRES_VIS", "word": "pudding", "wordID": 1138, "conditions": [24, 800, "v", 12000], "trial": 3, "serialpos": 18, "trial_type": "single-stim", "trial_index": 147, "time_elapsed": 648186, "internal_node_id": "0.0-111.0"}}, {"uniqueid": "MTK0896:3EQHHY4HQTZ0MFIYK6UJYI3CQGR5GK", "current_trial": 148, "dateTime": 1512864993410, "trialdata": {"rt": -1, "stimulus": "<p id=\"stim\">BEAVER</p>", "key_press": -1, "type": "PRES_VIS", "word": "beaver", "wordID": 108, "conditions": [24, 800, "v", 12000], "trial": 3, "serialpos": 19, "trial_type": "single-stim", "trial_index": 148, "time_elapsed": 650116, "internal_node_id": "0.0-112.0"}}, {"uniqueid": "MTK0896:3EQHHY4HQTZ0MFIYK6UJYI3CQGR5GK", "current_trial": 149, "dateTime": 1512864995149, "trialdata": {"rt": -1, "stimulus": "<p id=\"stim\">MATTRESS</p>", "key_press": -1, "type": "PRES_VIS", "word": "mattress", "wordID": 878, "conditions": [24, 800, "v", 12000], "trial": 3, "serialpos": 20, "trial_type": "single-stim", "trial_index": 149, "time_elapsed": 651855, "internal_node_id": "0.0-113.0"}}, {"uniqueid": "MTK0896:3EQHHY4HQTZ0MFIYK6UJYI3CQGR5GK", "current_trial": 150, "dateTime": 1512864997025, "trialdata": {"rt": -1, "stimulus": "<p id=\"stim\">ATLAS</p>", "key_press": -1, "type": "PRES_VIS", "word": "atlas", "wordID": 52, "conditions": [24, 800, "v", 12000], "trial": 3, "serialpos": 21, "trial_type": "single-stim", "trial_index": 150, "time_elapsed": 653731, "internal_node_id": "0.0-114.0"}}, {"uniqueid": "MTK0896:3EQHHY4HQTZ0MFIYK6UJYI3CQGR5GK", "current_trial": 151, "dateTime": 1512864998718, "trialdata": {"rt": -1, "stimulus": "<p id=\"stim\">PASTA</p>", "key_press": -1, "type": "PRES_VIS", "word": "pasta", "wordID": 1020, "conditions": [24, 800, "v", 12000], "trial": 3, "serialpos": 22, "trial_type": "single-stim", "trial_index": 151, "time_elapsed": 655424, "internal_node_id": "0.0-115.0"}}, {"uniqueid": "MTK0896:3EQHHY4HQTZ0MFIYK6UJYI3CQGR5GK", "current_trial": 152, "dateTime": 1512865000641, "trialdata": {"rt": -1, "stimulus": "<p id=\"stim\">HEADBAND</p>", "key_press": -1, "type": "PRES_VIS", "word": "headband", "wordID": 695, "conditions": [24, 800, "v", 12000], "trial": 3, "serialpos": 23, "trial_type": "single-stim", "trial_index": 152, "time_elapsed": 657347, "internal_node_id": "0.0-116.0"}}, {"uniqueid": "MTK0896:3EQHHY4HQTZ0MFIYK6UJYI3CQGR5GK", "current_trial": 153, "dateTime": 1512865002958, "trialdata": {"rt": -1, "stimulus": "", "key_press": -1, "type": "PRE_RECALL_DELAY", "trial_type": "single-stim", "trial_index": 153, "time_elapsed": 659664, "internal_node_id": "0.0-117.0-0.0"}}, {"uniqueid": "MTK0896:3EQHHY4HQTZ0MFIYK6UJYI3CQGR5GK", "current_trial": 154, "dateTime": 1512865003459, "trialdata": {"rt": -1000, "stimulus": "/static/audio/400Hz.wav", "key_press": -1, "type": "PRE_RECALL_ALERT", "trial_type": "single-audio", "trial_index": 154, "time_elapsed": 660165, "internal_node_id": "0.0-118.0"}}, {"uniqueid": "MTK0896:3EQHHY4HQTZ0MFIYK6UJYI3CQGR5GK", "current_trial": 155, "dateTime": 1512865063464, "trialdata": {"rt": [3669, 5032, 6872, 8977, 15769, 22247, 23088, 30593, 36584], "recwords": ["headband", "pasta", "woman", "victim", "body", "dress", "skirt", "buggy", "star"], "type": "FREE_RECALL", "conditions": [24, 800, "v", 12000], "trial": 3, "trial_type": "free-recall", "trial_index": 155, "time_elapsed": 720167, "internal_node_id": "0.0-119.0-0.0"}}, {"uniqueid": "MTK0896:3EQHHY4HQTZ0MFIYK6UJYI3CQGR5GK", "current_trial": 156, "dateTime": 1512865066448, "trialdata": {"rt": 982, "key_press": 32, "type": "INSTRUCTIONS", "trial_type": "text", "trial_index": 156, "time_elapsed": 723154, "internal_node_id": "0.0-120.0"}}, {"uniqueid": "MTK0896:3EQHHY4HQTZ0MFIYK6UJYI3CQGR5GK", "current_trial": 157, "dateTime": 1512865080449, "trialdata": {"rt": [1769, 3561, 5033, 6875, 8355, 10560], "responses": ["16", "13", "19", "13", "15", "16"], "num1": [5, 8, 8, 3, 6, 2, 5], "num2": [2, 1, 3, 4, 7, 5, 3], "num3": [9, 4, 8, 6, 2, 9, 2], "type": "DISTRACTOR", "conditions": [12, 800, "v", 12000], "trial": 4, "trial_type": "math-distractor", "trial_index": 157, "time_elapsed": 737155, "internal_node_id": "0.0-121.0"}}, {"uniqueid": "MTK0896:3EQHHY4HQTZ0MFIYK6UJYI3CQGR5GK", "current_trial": 158, "dateTime": 1512865083451, "trialdata": {"rt": -1, "stimulus": "<p id=\"stim\">10</p>", "key_press": -1, "trial_type": "single-stim", "trial_index": 158, "time_elapsed": 740157, "internal_node_id": "0.0-122.0-0.0"}}, {"uniqueid": "MTK0896:3EQHHY4HQTZ0MFIYK6UJYI3CQGR5GK", "current_trial": 159, "dateTime": 1512865084451, "trialdata": {"rt": -1, "stimulus": "<p id=\"stim\">9</p>", "key_press": -1, "trial_type": "single-stim", "trial_index": 159, "time_elapsed": 741157, "internal_node_id": "0.0-122.0-1.0"}}, {"uniqueid": "MTK0896:3EQHHY4HQTZ0MFIYK6UJYI3CQGR5GK", "current_trial": 160, "dateTime": 1512865085452, "trialdata": {"rt": -1, "stimulus": "<p id=\"stim\">8</p>", "key_press": -1, "trial_type": "single-stim", "trial_index": 160, "time_elapsed": 742158, "internal_node_id": "0.0-122.0-2.0"}}, {"uniqueid": "MTK0896:3EQHHY4HQTZ0MFIYK6UJYI3CQGR5GK", "current_trial": 161, "dateTime": 1512865086453, "trialdata": {"rt": -1, "stimulus": "<p id=\"stim\">7</p>", "key_press": -1, "trial_type": "single-stim", "trial_index": 161, "time_elapsed": 743159, "internal_node_id": "0.0-122.0-3.0"}}, {"uniqueid": "MTK0896:3EQHHY4HQTZ0MFIYK6UJYI3CQGR5GK", "current_trial": 162, "dateTime": 1512865087453, "trialdata": {"rt": -1, "stimulus": "<p id=\"stim\">6</p>", "key_press": -1, "trial_type": "single-stim", "trial_index": 162, "time_elapsed": 744159, "internal_node_id": "0.0-122.0-4.0"}}, {"uniqueid": "MTK0896:3EQHHY4HQTZ0MFIYK6UJYI3CQGR5GK", "current_trial": 163, "dateTime": 1512865088454, "trialdata": {"rt": -1, "stimulus": "<p id=\"stim\">5</p>", "key_press": -1, "trial_type": "single-stim", "trial_index": 163, "time_elapsed": 745160, "internal_node_id": "0.0-122.0-5.0"}}, {"uniqueid": "MTK0896:3EQHHY4HQTZ0MFIYK6UJYI3CQGR5GK", "current_trial": 164, "dateTime": 1512865089454, "trialdata": {"rt": -1, "stimulus": "<p id=\"stim\">4</p>", "key_press": -1, "trial_type": "single-stim", "trial_index": 164, "time_elapsed": 746160, "internal_node_id": "0.0-122.0-6.0"}}, {"uniqueid": "MTK0896:3EQHHY4HQTZ0MFIYK6UJYI3CQGR5GK", "current_trial": 165, "dateTime": 1512865090455, "trialdata": {"rt": -1, "stimulus": "<p id=\"stim\">3</p>", "key_press": -1, "trial_type": "single-stim", "trial_index": 165, "time_elapsed": 747161, "internal_node_id": "0.0-122.0-7.0"}}, {"uniqueid": "MTK0896:3EQHHY4HQTZ0MFIYK6UJYI3CQGR5GK", "current_trial": 166, "dateTime": 1512865091456, "trialdata": {"rt": -1, "stimulus": "<p id=\"stim\">2</p>", "key_press": -1, "trial_type": "single-stim", "trial_index": 166, "time_elapsed": 748162, "internal_node_id": "0.0-122.0-8.0"}}, {"uniqueid": "MTK0896:3EQHHY4HQTZ0MFIYK6UJYI3CQGR5GK", "current_trial": 167, "dateTime": 1512865092456, "trialdata": {"rt": -1, "stimulus": "<p id=\"stim\">1</p>", "key_press": -1, "trial_type": "single-stim", "trial_index": 167, "time_elapsed": 749162, "internal_node_id": "0.0-122.0-9.0"}}, {"uniqueid": "MTK0896:3EQHHY4HQTZ0MFIYK6UJYI3CQGR5GK", "current_trial": 168, "dateTime": 1512865093957, "trialdata": {"rt": -1, "stimulus": "<p id=\"stim\">+</p>", "key_press": -1, "type": "FIXATION", "trial_type": "single-stim", "trial_index": 168, "time_elapsed": 750663, "internal_node_id": "0.0-123.0-0.0"}}, {"uniqueid": "MTK0896:3EQHHY4HQTZ0MFIYK6UJYI3CQGR5GK", "current_trial": 169, "dateTime": 1512865094759, "trialdata": {"rt": -1, "stimulus": "<p id=\"stim\">OUTLAW</p>", "key_press": -1, "type": "PRES_VIS", "word": "outlaw", "wordID": 988, "conditions": [12, 800, "v", 12000], "trial": 4, "serialpos": 0, "trial_type": "single-stim", "trial_index": 169, "time_elapsed": 751465, "internal_node_id": "0.0-124.0"}}, {"uniqueid": "MTK0896:3EQHHY4HQTZ0MFIYK6UJYI3CQGR5GK", "current_trial": 170, "dateTime": 1512865096374, "trialdata": {"rt": -1, "stimulus": "<p id=\"stim\">SIDEWALK</p>", "key_press": -1, "type": "PRES_VIS", "word": "sidewalk", "wordID": 1302, "conditions": [12, 800, "v", 12000], "trial": 4, "serialpos": 1, "trial_type": "single-stim", "trial_index": 170, "time_elapsed": 753080, "internal_node_id": "0.0-125.0"}}, {"uniqueid": "MTK0896:3EQHHY4HQTZ0MFIYK6UJYI3CQGR5GK", "current_trial": 171, "dateTime": 1512865098149, "trialdata": {"rt": -1, "stimulus": "<p id=\"stim\">BLOCKADE</p>", "key_press": -1, "type": "PRES_VIS", "word": "blockade", "wordID": 136, "conditions": [12, 800, "v", 12000], "trial": 4, "serialpos": 2, "trial_type": "single-stim", "trial_index": 171, "time_elapsed": 754855, "internal_node_id": "0.0-126.0"}}, {"uniqueid": "MTK0896:3EQHHY4HQTZ0MFIYK6UJYI3CQGR5GK", "current_trial": 172, "dateTime": 1512865099759, "trialdata": {"rt": -1, "stimulus": "<p id=\"stim\">PISTON</p>", "key_press": -1, "type": "PRES_VIS", "word": "piston", "wordID": 1075, "conditions": [12, 800, "v", 12000], "trial": 4, "serialpos": 3, "trial_type": "single-stim", "trial_index": 172, "time_elapsed": 756465, "internal_node_id": "0.0-127.0"}}, {"uniqueid": "MTK0896:3EQHHY4HQTZ0MFIYK6UJYI3CQGR5GK", "current_trial": 173, "dateTime": 1512865101376, "trialdata": {"rt": -1, "stimulus": "<p id=\"stim\">VALVE</p>", "key_press": -1, "type": "PRES_VIS", "word": "valve", "wordID": 1545, "conditions": [12, 800, "v", 12000], "trial": 4, "serialpos": 4, "trial_type": "single-stim", "trial_index": 173, "time_elapsed": 758082, "internal_node_id": "0.0-128.0"}}, {"uniqueid": "MTK0896:3EQHHY4HQTZ0MFIYK6UJYI3CQGR5GK", "current_trial": 174, "dateTime": 1512865103283, "trialdata": {"rt": -1, "stimulus": "<p id=\"stim\">BACKBONE</p>", "key_press": -1, "type": "PRES_VIS", "word": "backbone", "wordID": 65, "conditions": [12, 800, "v", 12000], "trial": 4, "serialpos": 5, "trial_type": "single-stim", "trial_index": 174, "time_elapsed": 759989, "internal_node_id": "0.0-129.0"}}, {"uniqueid": "MTK0896:3EQHHY4HQTZ0MFIYK6UJYI3CQGR5GK", "current_trial": 175, "dateTime": 1512865105087, "trialdata": {"rt": -1, "stimulus": "<p id=\"stim\">MATCH</p>", "key_press": -1, "type": "PRES_VIS", "word": "match", "wordID": 877, "conditions": [12, 800, "v", 12000], "trial": 4, "serialpos": 6, "trial_type": "single-stim", "trial_index": 175, "time_elapsed": 761793, "internal_node_id": "0.0-130.0"}}, {"uniqueid": "MTK0896:3EQHHY4HQTZ0MFIYK6UJYI3CQGR5GK", "current_trial": 176, "dateTime": 1512865106767, "trialdata": {"rt": -1, "stimulus": "<p id=\"stim\">QUARTER</p>", "key_press": -1, "type": "PRES_VIS", "word": "quarter", "wordID": 1147, "conditions": [12, 800, "v", 12000], "trial": 4, "serialpos": 7, "trial_type": "single-stim", "trial_index": 176, "time_elapsed": 763473, "internal_node_id": "0.0-131.0"}}, {"uniqueid": "MTK0896:3EQHHY4HQTZ0MFIYK6UJYI3CQGR5GK", "current_trial": 177, "dateTime": 1512865108401, "trialdata": {"rt": -1, "stimulus": "<p id=\"stim\">PLAZA</p>", "key_press": -1, "type": "PRES_VIS", "word": "plaza", "wordID": 1087, "conditions": [12, 800, "v", 12000], "trial": 4, "serialpos": 8, "trial_type": "single-stim", "trial_index": 177, "time_elapsed": 765107, "internal_node_id": "0.0-132.0"}}, {"uniqueid": "MTK0896:3EQHHY4HQTZ0MFIYK6UJYI3CQGR5GK", "current_trial": 178, "dateTime": 1512865110302, "trialdata": {"rt": -1, "stimulus": "<p id=\"stim\">EGYPT</p>", "key_press": -1, "type": "PRES_VIS", "word": "egypt", "wordID": 518, "conditions": [12, 800, "v", 12000], "trial": 4, "serialpos": 9, "trial_type": "single-stim", "trial_index": 178, "time_elapsed": 767008, "internal_node_id": "0.0-133.0"}}, {"uniqueid": "MTK0896:3EQHHY4HQTZ0MFIYK6UJYI3CQGR5GK", "current_trial": 179, "dateTime": 1512865112061, "trialdata": {"rt": -1, "stimulus": "<p id=\"stim\">BLADE</p>", "key_press": -1, "type": "PRES_VIS", "word": "blade", "wordID": 133, "conditions": [12, 800, "v", 12000], "trial": 4, "serialpos": 10, "trial_type": "single-stim", "trial_index": 179, "time_elapsed": 768767, "internal_node_id": "0.0-134.0"}}, {"uniqueid": "MTK0896:3EQHHY4HQTZ0MFIYK6UJYI3CQGR5GK", "current_trial": 180, "dateTime": 1512865113931, "trialdata": {"rt": -1, "stimulus": "<p id=\"stim\">AIRPORT</p>", "key_press": -1, "type": "PRES_VIS", "word": "airport", "wordID": 12, "conditions": [12, 800, "v", 12000], "trial": 4, "serialpos": 11, "trial_type": "single-stim", "trial_index": 180, "time_elapsed": 770637, "internal_node_id": "0.0-135.0"}}, {"uniqueid": "MTK0896:3EQHHY4HQTZ0MFIYK6UJYI3CQGR5GK", "current_trial": 181, "dateTime": 1512865116253, "trialdata": {"rt": -1, "stimulus": "", "key_press": -1, "type": "PRE_RECALL_DELAY", "trial_type": "single-stim", "trial_index": 181, "time_elapsed": 772959, "internal_node_id": "0.0-136.0-0.0"}}, {"uniqueid": "MTK0896:3EQHHY4HQTZ0MFIYK6UJYI3CQGR5GK", "current_trial": 182, "dateTime": 1512865116754, "trialdata": {"rt": -1000, "stimulus": "/static/audio/400Hz.wav", "key_press": -1, "type": "PRE_RECALL_ALERT", "trial_type": "single-audio", "trial_index": 182, "time_elapsed": 773460, "internal_node_id": "0.0-137.0"}}, {"uniqueid": "MTK0896:3EQHHY4HQTZ0MFIYK6UJYI3CQGR5GK", "current_trial": 183, "dateTime": 1512865176760, "trialdata": {"rt": [2075, 4396, 6116, 8464, 9589, 14057, 20598], "recwords": ["airport", "egypt", "blade", "piston", "valve", "plaza", "outlaw"], "type": "FREE_RECALL", "conditions": [12, 800, "v", 12000], "trial": 4, "trial_type": "free-recall", "trial_index": 183, "time_elapsed": 833463, "internal_node_id": "0.0-138.0-0.0"}}, {"uniqueid": "MTK0896:3EQHHY4HQTZ0MFIYK6UJYI3CQGR5GK", "current_trial": 184, "dateTime": 1512865179995, "trialdata": {"rt": 1234, "key_press": 32, "type": "INSTRUCTIONS", "trial_type": "text", "trial_index": 184, "time_elapsed": 836701, "internal_node_id": "0.0-139.0"}}, {"uniqueid": "MTK0896:3EQHHY4HQTZ0MFIYK6UJYI3CQGR5GK", "current_trial": 185, "dateTime": 1512865193997, "trialdata": {"rt": [1676, 3133, 4517, 5949, 7462, 8929, 10825], "responses": ["15", "13", "9", "11", "12", "16", "18"], "num1": [9, 2, 3, 3, 4, 8, 2, 8], "num2": [2, 2, 2, 1, 1, 6, 6, 3], "num3": [4, 9, 4, 7, 7, 2, 9, 4], "type": "DISTRACTOR", "conditions": [12, 1600, "a", 12000], "trial": 5, "trial_type": "math-distractor", "trial_index": 185, "time_elapsed": 850703, "internal_node_id": "0.0-140.0"}}, {"uniqueid": "MTK0896:3EQHHY4HQTZ0MFIYK6UJYI3CQGR5GK", "current_trial": 186, "dateTime": 1512865196999, "trialdata": {"rt": -1, "stimulus": "<p id=\"stim\">10</p>", "key_press": -1, "trial_type": "single-stim", "trial_index": 186, "time_elapsed": 853705, "internal_node_id": "0.0-141.0-0.0"}}, {"uniqueid": "MTK0896:3EQHHY4HQTZ0MFIYK6UJYI3CQGR5GK", "current_trial": 187, "dateTime": 1512865198000, "trialdata": {"rt": -1, "stimulus": "<p id=\"stim\">9</p>", "key_press": -1, "trial_type": "single-stim", "trial_index": 187, "time_elapsed": 854706, "internal_node_id": "0.0-141.0-1.0"}}, {"uniqueid": "MTK0896:3EQHHY4HQTZ0MFIYK6UJYI3CQGR5GK", "current_trial": 188, "dateTime": 1512865199001, "trialdata": {"rt": -1, "stimulus": "<p id=\"stim\">8</p>", "key_press": -1, "trial_type": "single-stim", "trial_index": 188, "time_elapsed": 855707, "internal_node_id": "0.0-141.0-2.0"}}, {"uniqueid": "MTK0896:3EQHHY4HQTZ0MFIYK6UJYI3CQGR5GK", "current_trial": 189, "dateTime": 1512865200001, "trialdata": {"rt": -1, "stimulus": "<p id=\"stim\">7</p>", "key_press": -1, "trial_type": "single-stim", "trial_index": 189, "time_elapsed": 856707, "internal_node_id": "0.0-141.0-3.0"}}, {"uniqueid": "MTK0896:3EQHHY4HQTZ0MFIYK6UJYI3CQGR5GK", "current_trial": 190, "dateTime": 1512865201002, "trialdata": {"rt": -1, "stimulus": "<p id=\"stim\">6</p>", "key_press": -1, "trial_type": "single-stim", "trial_index": 190, "time_elapsed": 857708, "internal_node_id": "0.0-141.0-4.0"}}, {"uniqueid": "MTK0896:3EQHHY4HQTZ0MFIYK6UJYI3CQGR5GK", "current_trial": 191, "dateTime": 1512865202003, "trialdata": {"rt": -1, "stimulus": "<p id=\"stim\">5</p>", "key_press": -1, "trial_type": "single-stim", "trial_index": 191, "time_elapsed": 858709, "internal_node_id": "0.0-141.0-5.0"}}, {"uniqueid": "MTK0896:3EQHHY4HQTZ0MFIYK6UJYI3CQGR5GK", "current_trial": 192, "dateTime": 1512865203003, "trialdata": {"rt": -1, "stimulus": "<p id=\"stim\">4</p>", "key_press": -1, "trial_type": "single-stim", "trial_index": 192, "time_elapsed": 859709, "internal_node_id": "0.0-141.0-6.0"}}, {"uniqueid": "MTK0896:3EQHHY4HQTZ0MFIYK6UJYI3CQGR5GK", "current_trial": 193, "dateTime": 1512865204004, "trialdata": {"rt": -1, "stimulus": "<p id=\"stim\">3</p>", "key_press": -1, "trial_type": "single-stim", "trial_index": 193, "time_elapsed": 860710, "internal_node_id": "0.0-141.0-7.0"}}, {"uniqueid": "MTK0896:3EQHHY4HQTZ0MFIYK6UJYI3CQGR5GK", "current_trial": 194, "dateTime": 1512865205005, "trialdata": {"rt": -1, "stimulus": "<p id=\"stim\">2</p>", "key_press": -1, "trial_type": "single-stim", "trial_index": 194, "time_elapsed": 861711, "internal_node_id": "0.0-141.0-8.0"}}, {"uniqueid": "MTK0896:3EQHHY4HQTZ0MFIYK6UJYI3CQGR5GK", "current_trial": 195, "dateTime": 1512865206005, "trialdata": {"rt": -1, "stimulus": "<p id=\"stim\">1</p>", "key_press": -1, "trial_type": "single-stim", "trial_index": 195, "time_elapsed": 862711, "internal_node_id": "0.0-141.0-9.0"}}, {"uniqueid": "MTK0896:3EQHHY4HQTZ0MFIYK6UJYI3CQGR5GK", "current_trial": 196, "dateTime": 1512865207506, "trialdata": {"rt": -1, "stimulus": "<p id=\"stim\">+</p>", "key_press": -1, "type": "FIXATION", "trial_type": "single-stim", "trial_index": 196, "time_elapsed": 864212, "internal_node_id": "0.0-142.0-0.0"}}, {"uniqueid": "MTK0896:3EQHHY4HQTZ0MFIYK6UJYI3CQGR5GK", "current_trial": 197, "dateTime": 1512865210276, "trialdata": {"rt": -1000, "stimulus": "/static/audio/wordpool/TRUCK.wav", "key_press": -1, "type": "PRES_AUD", "word": "truck", "wordID": 1511, "conditions": [12, 1600, "a", 12000], "trial": 5, "serialpos": 0, "trial_type": "single-audio", "trial_index": 197, "time_elapsed": 866982, "internal_node_id": "0.0-143.0"}}, {"uniqueid": "MTK0896:3EQHHY4HQTZ0MFIYK6UJYI3CQGR5GK", "current_trial": 198, "dateTime": 1512865212824, "trialdata": {"rt": -1000, "stimulus": "/static/audio/wordpool/TURTLE.wav", "key_press": -1, "type": "PRES_AUD", "word": "turtle", "wordID": 1521, "conditions": [12, 1600, "a", 12000], "trial": 5, "serialpos": 1, "trial_type": "single-audio", "trial_index": 198, "time_elapsed": 869530, "internal_node_id": "0.0-144.0"}}, {"uniqueid": "MTK0896:3EQHHY4HQTZ0MFIYK6UJYI3CQGR5GK", "current_trial": 199, "dateTime": 1512865215422, "trialdata": {"rt": -1000, "stimulus": "/static/audio/wordpool/BIKE.wav", "key_press": -1, "type": "PRES_AUD", "word": "bike", "wordID": 124, "conditions": [12, 1600, "a", 12000], "trial": 5, "serialpos": 2, "trial_type": "single-audio", "trial_index": 199, "time_elapsed": 872128, "internal_node_id": "0.0-145.0"}}, {"uniqueid": "MTK0896:3EQHHY4HQTZ0MFIYK6UJYI3CQGR5GK", "current_trial": 200, "dateTime": 1512865217831, "trialdata": {"rt": -1000, "stimulus": "/static/audio/wordpool/TRACTOR.wav", "key_press": -1, "type": "PRES_AUD", "word": "tractor", "wordID": 1492, "conditions": [12, 1600, "a", 12000], "trial": 5, "serialpos": 3, "trial_type": "single-audio", "trial_index": 200, "time_elapsed": 874537, "internal_node_id": "0.0-146.0"}}, {"uniqueid": "MTK0896:3EQHHY4HQTZ0MFIYK6UJYI3CQGR5GK", "current_trial": 201, "dateTime": 1512865220568, "trialdata": {"rt": -1000, "stimulus": "/static/audio/wordpool/LIVER.wav", "key_press": -1, "type": "PRES_AUD", "word": "liver", "wordID": 832, "conditions": [12, 1600, "a", 12000], "trial": 5, "serialpos": 4, "trial_type": "single-audio", "trial_index": 201, "time_elapsed": 877274, "internal_node_id": "0.0-147.0"}}, {"uniqueid": "MTK0896:3EQHHY4HQTZ0MFIYK6UJYI3CQGR5GK", "current_trial": 202, "dateTime": 1512865223271, "trialdata": {"rt": -1000, "stimulus": "/static/audio/wordpool/SPIDER.wav", "key_press": -1, "type": "PRES_AUD", "word": "spider", "wordID": 1350, "conditions": [12, 1600, "a", 12000], "trial": 5, "serialpos": 5, "trial_type": "single-audio", "trial_index": 202, "time_elapsed": 879977, "internal_node_id": "0.0-148.0"}}, {"uniqueid": "MTK0896:3EQHHY4HQTZ0MFIYK6UJYI3CQGR5GK", "current_trial": 203, "dateTime": 1512865226005, "trialdata": {"rt": -1000, "stimulus": "/static/audio/wordpool/CREATURE.wav", "key_press": -1, "type": "PRES_AUD", "word": "creature", "wordID": 402, "conditions": [12, 1600, "a", 12000], "trial": 5, "serialpos": 6, "trial_type": "single-audio", "trial_index": 203, "time_elapsed": 882711, "internal_node_id": "0.0-149.0"}}, {"uniqueid": "MTK0896:3EQHHY4HQTZ0MFIYK6UJYI3CQGR5GK", "current_trial": 204, "dateTime": 1512865228652, "trialdata": {"rt": -1000, "stimulus": "/static/audio/wordpool/RIVER.wav", "key_press": -1, "type": "PRES_AUD", "word": "river", "wordID": 1193, "conditions": [12, 1600, "a", 12000], "trial": 5, "serialpos": 7, "trial_type": "single-audio", "trial_index": 204, "time_elapsed": 885358, "internal_node_id": "0.0-150.0"}}, {"uniqueid": "MTK0896:3EQHHY4HQTZ0MFIYK6UJYI3CQGR5GK", "current_trial": 205, "dateTime": 1512865231104, "trialdata": {"rt": -1000, "stimulus": "/static/audio/wordpool/FOREST.wav", "key_press": -1, "type": "PRES_AUD", "word": "forest", "wordID": 592, "conditions": [12, 1600, "a", 12000], "trial": 5, "serialpos": 8, "trial_type": "single-audio", "trial_index": 205, "time_elapsed": 887810, "internal_node_id": "0.0-151.0"}}, {"uniqueid": "MTK0896:3EQHHY4HQTZ0MFIYK6UJYI3CQGR5GK", "current_trial": 206, "dateTime": 1512865233532, "trialdata": {"rt": -1000, "stimulus": "/static/audio/wordpool/SHRUB.wav", "key_press": -1, "type": "PRES_AUD", "word": "shrub", "wordID": 1298, "conditions": [12, 1600, "a", 12000], "trial": 5, "serialpos": 9, "trial_type": "single-audio", "trial_index": 206, "time_elapsed": 890238, "internal_node_id": "0.0-152.0"}}, {"uniqueid": "MTK0896:3EQHHY4HQTZ0MFIYK6UJYI3CQGR5GK", "current_trial": 207, "dateTime": 1512865235959, "trialdata": {"rt": -1000, "stimulus": "/static/audio/wordpool/SALT.wav", "key_press": -1, "type": "PRES_AUD", "word": "salt", "wordID": 1228, "conditions": [12, 1600, "a", 12000], "trial": 5, "serialpos": 10, "trial_type": "single-audio", "trial_index": 207, "time_elapsed": 892665, "internal_node_id": "0.0-153.0"}}, {"uniqueid": "MTK0896:3EQHHY4HQTZ0MFIYK6UJYI3CQGR5GK", "current_trial": 208, "dateTime": 1512865238388, "trialdata": {"rt": -1000, "stimulus": "/static/audio/wordpool/DORM.wav", "key_press": -1, "type": "PRES_AUD", "word": "dorm", "wordID": 487, "conditions": [12, 1600, "a", 12000], "trial": 5, "serialpos": 11, "trial_type": "single-audio", "trial_index": 208, "time_elapsed": 895094, "internal_node_id": "0.0-154.0"}}, {"uniqueid": "MTK0896:3EQHHY4HQTZ0MFIYK6UJYI3CQGR5GK", "current_trial": 209, "dateTime": 1512865239765, "trialdata": {"rt": -1, "stimulus": "", "key_press": -1, "type": "PRE_RECALL_DELAY", "trial_type": "single-stim", "trial_index": 209, "time_elapsed": 896471, "internal_node_id": "0.0-155.0-0.0"}}, {"uniqueid": "MTK0896:3EQHHY4HQTZ0MFIYK6UJYI3CQGR5GK", "current_trial": 210, "dateTime": 1512865240266, "trialdata": {"rt": -1000, "stimulus": "/static/audio/400Hz.wav", "key_press": -1, "type": "PRE_RECALL_ALERT", "trial_type": "single-audio", "trial_index": 210, "time_elapsed": 896972, "internal_node_id": "0.0-156.0"}}, {"uniqueid": "MTK0896:3EQHHY4HQTZ0MFIYK6UJYI3CQGR5GK", "current_trial": 211, "dateTime": 1512865300269, "trialdata": {"rt": [1406, 2534, 3296, 4301, 5171, 6432, 8032, 17268, 36061, 48828], "recwords": ["dorm", "forest", "river", "shrub", "truck", "turtle", "tractor", "cactus", "liver", "spider"], "type": "FREE_RECALL", "conditions": [12, 1600, "a", 12000], "trial": 5, "trial_type": "free-recall", "trial_index": 211, "time_elapsed": 956972, "internal_node_id": "0.0-157.0-0.0"}}, {"uniqueid": "MTK0896:3EQHHY4HQTZ0MFIYK6UJYI3CQGR5GK", "current_trial": 212, "dateTime": 1512865305085, "trialdata": {"rt": 2814, "key_press": 32, "type": "INSTRUCTIONS", "trial_type": "text", "trial_index": 212, "time_elapsed": 961791, "internal_node_id": "0.0-158.0"}}, {"uniqueid": "MTK0896:3EQHHY4HQTZ0MFIYK6UJYI3CQGR5GK", "current_trial": 213, "dateTime": 1512865331087, "trialdata": {"rt": [3185, 5115, 7243, 8597, 11052, 12720, 14197, 15645, 17286, 19163, 20243, 21444], "responses": ["21", "16", "19", "16", "18", "10", "15", "15", "7", "14", "13", "12"], "num1": [8, 2, 4, 6, 9, 3, 2, 3, 1, 3, 5, 2, 8], "num2": [8, 6, 8, 1, 2, 6, 5, 6, 4, 5, 5, 6, 3], "num3": [5, 8, 7, 9, 7, 1, 8, 6, 2, 6, 3, 4, 2], "type": "DISTRACTOR", "conditions": [24, 1600, "v", 24000], "trial": 6, "trial_type": "math-distractor", "trial_index": 213, "time_elapsed": 987793, "internal_node_id": "0.0-159.0"}}, {"uniqueid": "MTK0896:3EQHHY4HQTZ0MFIYK6UJYI3CQGR5GK", "current_trial": 214, "dateTime": 1512865334089, "trialdata": {"rt": -1, "stimulus": "<p id=\"stim\">10</p>", "key_press": -1, "trial_type": "single-stim", "trial_index": 214, "time_elapsed": 990795, "internal_node_id": "0.0-160.0-0.0"}}, {"uniqueid": "MTK0896:3EQHHY4HQTZ0MFIYK6UJYI3CQGR5GK", "current_trial": 215, "dateTime": 1512865335090, "trialdata": {"rt": -1, "stimulus": "<p id=\"stim\">9</p>", "key_press": -1, "trial_type": "single-stim", "trial_index": 215, "time_elapsed": 991796, "internal_node_id": "0.0-160.0-1.0"}}, {"uniqueid": "MTK0896:3EQHHY4HQTZ0MFIYK6UJYI3CQGR5GK", "current_trial": 216, "dateTime": 1512865336091, "trialdata": {"rt": -1, "stimulus": "<p id=\"stim\">8</p>", "key_press": -1, "trial_type": "single-stim", "trial_index": 216, "time_elapsed": 992797, "internal_node_id": "0.0-160.0-2.0"}}, {"uniqueid": "MTK0896:3EQHHY4HQTZ0MFIYK6UJYI3CQGR5GK", "current_trial": 217, "dateTime": 1512865337091, "trialdata": {"rt": -1, "stimulus": "<p id=\"stim\">7</p>", "key_press": -1, "trial_type": "single-stim", "trial_index": 217, "time_elapsed": 993797, "internal_node_id": "0.0-160.0-3.0"}}, {"uniqueid": "MTK0896:3EQHHY4HQTZ0MFIYK6UJYI3CQGR5GK", "current_trial": 218, "dateTime": 1512865338092, "trialdata": {"rt": -1, "stimulus": "<p id=\"stim\">6</p>", "key_press": -1, "trial_type": "single-stim", "trial_index": 218, "time_elapsed": 994798, "internal_node_id": "0.0-160.0-4.0"}}, {"uniqueid": "MTK0896:3EQHHY4HQTZ0MFIYK6UJYI3CQGR5GK", "current_trial": 219, "dateTime": 1512865339093, "trialdata": {"rt": -1, "stimulus": "<p id=\"stim\">5</p>", "key_press": -1, "trial_type": "single-stim", "trial_index": 219, "time_elapsed": 995799, "internal_node_id": "0.0-160.0-5.0"}}, {"uniqueid": "MTK0896:3EQHHY4HQTZ0MFIYK6UJYI3CQGR5GK", "current_trial": 220, "dateTime": 1512865340093, "trialdata": {"rt": -1, "stimulus": "<p id=\"stim\">4</p>", "key_press": -1, "trial_type": "single-stim", "trial_index": 220, "time_elapsed": 996799, "internal_node_id": "0.0-160.0-6.0"}}, {"uniqueid": "MTK0896:3EQHHY4HQTZ0MFIYK6UJYI3CQGR5GK", "current_trial": 221, "dateTime": 1512865341094, "trialdata": {"rt": -1, "stimulus": "<p id=\"stim\">3</p>", "key_press": -1, "trial_type": "single-stim", "trial_index": 221, "time_elapsed": 997800, "internal_node_id": "0.0-160.0-7.0"}}, {"uniqueid": "MTK0896:3EQHHY4HQTZ0MFIYK6UJYI3CQGR5GK", "current_trial": 222, "dateTime": 1512865342095, "trialdata": {"rt": -1, "stimulus": "<p id=\"stim\">2</p>", "key_press": -1, "trial_type": "single-stim", "trial_index": 222, "time_elapsed": 998801, "internal_node_id": "0.0-160.0-8.0"}}, {"uniqueid": "MTK0896:3EQHHY4HQTZ0MFIYK6UJYI3CQGR5GK", "current_trial": 223, "dateTime": 1512865343095, "trialdata": {"rt": -1, "stimulus": "<p id=\"stim\">1</p>", "key_press": -1, "trial_type": "single-stim", "trial_index": 223, "time_elapsed": 999801, "internal_node_id": "0.0-160.0-9.0"}}, {"uniqueid": "MTK0896:3EQHHY4HQTZ0MFIYK6UJYI3CQGR5GK", "current_trial": 224, "dateTime": 1512865344596, "trialdata": {"rt": -1, "stimulus": "<p id=\"stim\">+</p>", "key_press": -1, "type": "FIXATION", "trial_type": "single-stim", "trial_index": 224, "time_elapsed": 1001302, "internal_node_id": "0.0-161.0-0.0"}}, {"uniqueid": "MTK0896:3EQHHY4HQTZ0MFIYK6UJYI3CQGR5GK", "current_trial": 225, "dateTime": 1512865346198, "trialdata": {"rt": -1, "stimulus": "<p id=\"stim\">POCKET</p>", "key_press": -1, "type": "PRES_VIS", "word": "pocket", "wordID": 1092, "conditions": [24, 1600, "v", 24000], "trial": 6, "serialpos": 0, "trial_type": "single-stim", "trial_index": 225, "time_elapsed": 1002904, "internal_node_id": "0.0-162.0"}}, {"uniqueid": "MTK0896:3EQHHY4HQTZ0MFIYK6UJYI3CQGR5GK", "current_trial": 226, "dateTime": 1512865348901, "trialdata": {"rt": -1, "stimulus": "<p id=\"stim\">COD</p>", "key_press": -1, "type": "PRES_VIS", "word": "cod", "wordID": 339, "conditions": [24, 1600, "v", 24000], "trial": 6, "serialpos": 1, "trial_type": "single-stim", "trial_index": 226, "time_elapsed": 1005607, "internal_node_id": "0.0-163.0"}}, {"uniqueid": "MTK0896:3EQHHY4HQTZ0MFIYK6UJYI3CQGR5GK", "current_trial": 227, "dateTime": 1512865351577, "trialdata": {"rt": -1, "stimulus": "<p id=\"stim\">EUROPE</p>", "key_press": -1, "type": "PRES_VIS", "word": "europe", "wordID": 540, "conditions": [24, 1600, "v", 24000], "trial": 6, "serialpos": 2, "trial_type": "single-stim", "trial_index": 227, "time_elapsed": 1008283, "internal_node_id": "0.0-164.0"}}, {"uniqueid": "MTK0896:3EQHHY4HQTZ0MFIYK6UJYI3CQGR5GK", "current_trial": 228, "dateTime": 1512865354141, "trialdata": {"rt": -1, "stimulus": "<p id=\"stim\">WHISKERS</p>", "key_press": -1, "type": "PRES_VIS", "word": "whiskers", "wordID": 1604, "conditions": [24, 1600, "v", 24000], "trial": 6, "serialpos": 3, "trial_type": "single-stim", "trial_index": 228, "time_elapsed": 1010847, "internal_node_id": "0.0-165.0"}}, {"uniqueid": "MTK0896:3EQHHY4HQTZ0MFIYK6UJYI3CQGR5GK", "current_trial": 229, "dateTime": 1512865356656, "trialdata": {"rt": -1, "stimulus": "<p id=\"stim\">SNAKE</p>", "key_press": -1, "type": "PRES_VIS", "word": "snake", "wordID": 1332, "conditions": [24, 1600, "v", 24000], "trial": 6, "serialpos": 4, "trial_type": "single-stim", "trial_index": 229, "time_elapsed": 1013362, "internal_node_id": "0.0-166.0"}}, {"uniqueid": "MTK0896:3EQHHY4HQTZ0MFIYK6UJYI3CQGR5GK", "current_trial": 230, "dateTime": 1512865359365, "trialdata": {"rt": -1, "stimulus": "<p id=\"stim\">CLOTHES</p>", "key_press": -1, "type": "PRES_VIS", "word": "clothes", "wordID": 326, "conditions": [24, 1600, "v", 24000], "trial": 6, "serialpos": 5, "trial_type": "single-stim", "trial_index": 230, "time_elapsed": 1016071, "internal_node_id": "0.0-167.0"}}, {"uniqueid": "MTK0896:3EQHHY4HQTZ0MFIYK6UJYI3CQGR5GK", "current_trial": 231, "dateTime": 1512865362104, "trialdata": {"rt": -1, "stimulus": "<p id=\"stim\">AGENT</p>", "key_press": -1, "type": "PRES_VIS", "word": "agent", "wordID": 9, "conditions": [24, 1600, "v", 24000], "trial": 6, "serialpos": 6, "trial_type": "single-stim", "trial_index": 231, "time_elapsed": 1018810, "internal_node_id": "0.0-168.0"}}, {"uniqueid": "MTK0896:3EQHHY4HQTZ0MFIYK6UJYI3CQGR5GK", "current_trial": 232, "dateTime": 1512865364587, "trialdata": {"rt": -1, "stimulus": "<p id=\"stim\">YARN</p>", "key_press": -1, "type": "PRES_VIS", "word": "yarn", "wordID": 1630, "conditions": [24, 1600, "v", 24000], "trial": 6, "serialpos": 7, "trial_type": "single-stim", "trial_index": 232, "time_elapsed": 1021293, "internal_node_id": "0.0-169.0"}}, {"uniqueid": "MTK0896:3EQHHY4HQTZ0MFIYK6UJYI3CQGR5GK", "current_trial": 233, "dateTime": 1512865367213, "trialdata": {"rt": -1, "stimulus": "<p id=\"stim\">LAGOON</p>", "key_press": -1, "type": "PRES_VIS", "word": "lagoon", "wordID": 794, "conditions": [24, 1600, "v", 24000], "trial": 6, "serialpos": 8, "trial_type": "single-stim", "trial_index": 233, "time_elapsed": 1023919, "internal_node_id": "0.0-170.0"}}, {"uniqueid": "MTK0896:3EQHHY4HQTZ0MFIYK6UJYI3CQGR5GK", "current_trial": 234, "dateTime": 1512865369892, "trialdata": {"rt": -1, "stimulus": "<p id=\"stim\">MARSH</p>", "key_press": -1, "type": "PRES_VIS", "word": "marsh", "wordID": 873, "conditions": [24, 1600, "v", 24000], "trial": 6, "serialpos": 9, "trial_type": "single-stim", "trial_index": 234, "time_elapsed": 1026598, "internal_node_id": "0.0-171.0"}}, {"uniqueid": "MTK0896:3EQHHY4HQTZ0MFIYK6UJYI3CQGR5GK", "current_trial": 235, "dateTime": 1512865372322, "trialdata": {"rt": -1, "stimulus": "<p id=\"stim\">SUMMIT</p>", "key_press": -1, "type": "PRES_VIS", "word": "summit", "wordID": 1404, "conditions": [24, 1600, "v", 24000], "trial": 6, "serialpos": 10, "trial_type": "single-stim", "trial_index": 235, "time_elapsed": 1029028, "internal_node_id": "0.0-172.0"}}, {"uniqueid": "MTK0896:3EQHHY4HQTZ0MFIYK6UJYI3CQGR5GK", "current_trial": 236, "dateTime": 1512865374737, "trialdata": {"rt": -1, "stimulus": "<p id=\"stim\">POSSUM</p>", "key_press": -1, "type": "PRES_VIS", "word": "possum", "wordID": 1111, "conditions": [24, 1600, "v", 24000], "trial": 6, "serialpos": 11, "trial_type": "single-stim", "trial_index": 236, "time_elapsed": 1031443, "internal_node_id": "0.0-173.0"}}, {"uniqueid": "MTK0896:3EQHHY4HQTZ0MFIYK6UJYI3CQGR5GK", "current_trial": 237, "dateTime": 1512865377294, "trialdata": {"rt": -1, "stimulus": "<p id=\"stim\">MAPLE</p>", "key_press": -1, "type": "PRES_VIS", "word": "maple", "wordID": 865, "conditions": [24, 1600, "v", 24000], "trial": 6, "serialpos": 12, "trial_type": "single-stim", "trial_index": 237, "time_elapsed": 1034000, "internal_node_id": "0.0-174.0"}}, {"uniqueid": "MTK0896:3EQHHY4HQTZ0MFIYK6UJYI3CQGR5GK", "current_trial": 238, "dateTime": 1512865379903, "trialdata": {"rt": -1, "stimulus": "<p id=\"stim\">SPOON</p>", "key_press": -1, "type": "PRES_VIS", "word": "spoon", "wordID": 1356, "conditions": [24, 1600, "v", 24000], "trial": 6, "serialpos": 13, "trial_type": "single-stim", "trial_index": 238, "time_elapsed": 1036609, "internal_node_id": "0.0-175.0"}}, {"uniqueid": "MTK0896:3EQHHY4HQTZ0MFIYK6UJYI3CQGR5GK", "current_trial": 239, "dateTime": 1512865382651, "trialdata": {"rt": -1, "stimulus": "<p id=\"stim\">PIZZA</p>", "key_press": -1, "type": "PRES_VIS", "word": "pizza", "wordID": 1078, "conditions": [24, 1600, "v", 24000], "trial": 6, "serialpos": 14, "trial_type": "single-stim", "trial_index": 239, "time_elapsed": 1039357, "internal_node_id": "0.0-176.0"}}, {"uniqueid": "MTK0896:3EQHHY4HQTZ0MFIYK6UJYI3CQGR5GK", "current_trial": 240, "dateTime": 1512865385106, "trialdata": {"rt": -1, "stimulus": "<p id=\"stim\">COBRA</p>", "key_press": -1, "type": "PRES_VIS", "word": "cobra", "wordID": 335, "conditions": [24, 1600, "v", 24000], "trial": 6, "serialpos": 15, "trial_type": "single-stim", "trial_index": 240, "time_elapsed": 1041811, "internal_node_id": "0.0-177.0"}}, {"uniqueid": "MTK0896:3EQHHY4HQTZ0MFIYK6UJYI3CQGR5GK", "current_trial": 241, "dateTime": 1512865387833, "trialdata": {"rt": -1, "stimulus": "<p id=\"stim\">SERVER</p>", "key_press": -1, "type": "PRES_VIS", "word": "server", "wordID": 1271, "conditions": [24, 1600, "v", 24000], "trial": 6, "serialpos": 16, "trial_type": "single-stim", "trial_index": 241, "time_elapsed": 1044539, "internal_node_id": "0.0-178.0"}}, {"uniqueid": "MTK0896:3EQHHY4HQTZ0MFIYK6UJYI3CQGR5GK", "current_trial": 242, "dateTime": 1512865390373, "trialdata": {"rt": -1, "stimulus": "<p id=\"stim\">DINER</p>", "key_press": -1, "type": "PRES_VIS", "word": "diner", "wordID": 466, "conditions": [24, 1600, "v", 24000], "trial": 6, "serialpos": 17, "trial_type": "single-stim", "trial_index": 242, "time_elapsed": 1047079, "internal_node_id": "0.0-179.0"}}, {"uniqueid": "MTK0896:3EQHHY4HQTZ0MFIYK6UJYI3CQGR5GK", "current_trial": 243, "dateTime": 1512865392891, "trialdata": {"rt": -1, "stimulus": "<p id=\"stim\">WRIST</p>", "key_press": -1, "type": "PRES_VIS", "word": "wrist", "wordID": 1625, "conditions": [24, 1600, "v", 24000], "trial": 6, "serialpos": 18, "trial_type": "single-stim", "trial_index": 243, "time_elapsed": 1049597, "internal_node_id": "0.0-180.0"}}, {"uniqueid": "MTK0896:3EQHHY4HQTZ0MFIYK6UJYI3CQGR5GK", "current_trial": 244, "dateTime": 1512865395345, "trialdata": {"rt": -1, "stimulus": "<p id=\"stim\">FINGER</p>", "key_press": -1, "type": "PRES_VIS", "word": "finger", "wordID": 566, "conditions": [24, 1600, "v", 24000], "trial": 6, "serialpos": 19, "trial_type": "single-stim", "trial_index": 244, "time_elapsed": 1052051, "internal_node_id": "0.0-181.0"}}, {"uniqueid": "MTK0896:3EQHHY4HQTZ0MFIYK6UJYI3CQGR5GK", "current_trial": 245, "dateTime": 1512865397907, "trialdata": {"rt": -1, "stimulus": "<p id=\"stim\">NECKLACE</p>", "key_press": -1, "type": "PRES_VIS", "word": "necklace", "wordID": 939, "conditions": [24, 1600, "v", 24000], "trial": 6, "serialpos": 20, "trial_type": "single-stim", "trial_index": 245, "time_elapsed": 1054613, "internal_node_id": "0.0-182.0"}}, {"uniqueid": "MTK0896:3EQHHY4HQTZ0MFIYK6UJYI3CQGR5GK", "current_trial": 246, "dateTime": 1512865400445, "trialdata": {"rt": -1, "stimulus": "<p id=\"stim\">SCISSORS</p>", "key_press": -1, "type": "PRES_VIS", "word": "scissors", "wordID": 1249, "conditions": [24, 1600, "v", 24000], "trial": 6, "serialpos": 21, "trial_type": "single-stim", "trial_index": 246, "time_elapsed": 1057151, "internal_node_id": "0.0-183.0"}}, {"uniqueid": "MTK0896:3EQHHY4HQTZ0MFIYK6UJYI3CQGR5GK", "current_trial": 247, "dateTime": 1512865402936, "trialdata": {"rt": -1, "stimulus": "<p id=\"stim\">BLENDER</p>", "key_press": -1, "type": "PRES_VIS", "word": "blender", "wordID": 135, "conditions": [24, 1600, "v", 24000], "trial": 6, "serialpos": 22, "trial_type": "single-stim", "trial_index": 247, "time_elapsed": 1059642, "internal_node_id": "0.0-184.0"}}, {"uniqueid": "MTK0896:3EQHHY4HQTZ0MFIYK6UJYI3CQGR5GK", "current_trial": 248, "dateTime": 1512865405366, "trialdata": {"rt": -1, "stimulus": "<p id=\"stim\">STOMACH</p>", "key_press": -1, "type": "PRES_VIS", "word": "stomach", "wordID": 1383, "conditions": [24, 1600, "v", 24000], "trial": 6, "serialpos": 23, "trial_type": "single-stim", "trial_index": 248, "time_elapsed": 1062072, "internal_node_id": "0.0-185.0"}}, {"uniqueid": "MTK0896:3EQHHY4HQTZ0MFIYK6UJYI3CQGR5GK", "current_trial": 249, "dateTime": 1512865407855, "trialdata": {"rt": -1, "stimulus": "", "key_press": -1, "type": "PRE_RECALL_DELAY", "trial_type": "single-stim", "trial_index": 249, "time_elapsed": 1064561, "internal_node_id": "0.0-186.0-0.0"}}, {"uniqueid": "MTK0896:3EQHHY4HQTZ0MFIYK6UJYI3CQGR5GK", "current_trial": 250, "dateTime": 1512865408356, "trialdata": {"rt": -1000, "stimulus": "/static/audio/400Hz.wav", "key_press": -1, "type": "PRE_RECALL_ALERT", "trial_type": "single-audio", "trial_index": 250, "time_elapsed": 1065062, "internal_node_id": "0.0-187.0"}}, {"uniqueid": "MTK0896:3EQHHY4HQTZ0MFIYK6UJYI3CQGR5GK", "current_trial": 251, "dateTime": 1512865468361, "trialdata": {"rt": [1498, 2375, 3528, 4464, 7184, 9344, 10205, 14376, 15924], "recwords": ["pizza", "cobra", "server", "diner", "necklace", "scissors", "snake", "wrist", "finger"], "type": "FREE_RECALL", "conditions": [24, 1600, "v", 24000], "trial": 6, "trial_type": "free-recall", "trial_index": 251, "time_elapsed": 1125065, "internal_node_id": "0.0-188.0-0.0"}}, {"uniqueid": "MTK0896:3EQHHY4HQTZ0MFIYK6UJYI3CQGR5GK", "current_trial": 252, "dateTime": 1512865490458, "trialdata": {"rt": 20095, "key_press": 32, "type": "INSTRUCTIONS", "trial_type": "text", "trial_index": 252, "time_elapsed": 1147163, "internal_node_id": "0.0-189.0"}}, {"uniqueid": "MTK0896:3EQHHY4HQTZ0MFIYK6UJYI3CQGR5GK", "current_trial": 253, "dateTime": 1512865516461, "trialdata": {"rt": [1885, 3950, 5757, 7859, 8924, 10189, 12898, 14750, 16512, 17946, 19286, 21106, 23660], "responses": ["25", "22", "7", "22", "5", "24", "24", "8", "11", "15", "13", "13", "23"], "num1": [9, 9, 1, 7, 3, 8, 7, 2, 8, 9, 3, 7, 8, 2], "num2": [9, 7, 3, 6, 1, 8, 8, 5, 1, 2, 9, 1, 6, 8], "num3": [7, 6, 3, 9, 1, 8, 9, 1, 2, 4, 1, 5, 9, 8], "type": "DISTRACTOR", "conditions": [12, 1600, "v", 24000], "trial": 7, "trial_type": "math-distractor", "trial_index": 253, "time_elapsed": 1173167, "internal_node_id": "0.0-190.0"}}, {"uniqueid": "MTK0896:3EQHHY4HQTZ0MFIYK6UJYI3CQGR5GK", "current_trial": 254, "dateTime": 1512865519463, "trialdata": {"rt": -1, "stimulus": "<p id=\"stim\">10</p>", "key_press": -1, "trial_type": "single-stim", "trial_index": 254, "time_elapsed": 1176169, "internal_node_id": "0.0-191.0-0.0"}}, {"uniqueid": "MTK0896:3EQHHY4HQTZ0MFIYK6UJYI3CQGR5GK", "current_trial": 255, "dateTime": 1512865520463, "trialdata": {"rt": -1, "stimulus": "<p id=\"stim\">9</p>", "key_press": -1, "trial_type": "single-stim", "trial_index": 255, "time_elapsed": 1177169, "internal_node_id": "0.0-191.0-1.0"}}, {"uniqueid": "MTK0896:3EQHHY4HQTZ0MFIYK6UJYI3CQGR5GK", "current_trial": 256, "dateTime": 1512865521465, "trialdata": {"rt": -1, "stimulus": "<p id=\"stim\">8</p>", "key_press": -1, "trial_type": "single-stim", "trial_index": 256, "time_elapsed": 1178171, "internal_node_id": "0.0-191.0-2.0"}}, {"uniqueid": "MTK0896:3EQHHY4HQTZ0MFIYK6UJYI3CQGR5GK", "current_trial": 257, "dateTime": 1512865522466, "trialdata": {"rt": -1, "stimulus": "<p id=\"stim\">7</p>", "key_press": -1, "trial_type": "single-stim", "trial_index": 257, "time_elapsed": 1179172, "internal_node_id": "0.0-191.0-3.0"}}, {"uniqueid": "MTK0896:3EQHHY4HQTZ0MFIYK6UJYI3CQGR5GK", "current_trial": 258, "dateTime": 1512865523468, "trialdata": {"rt": -1, "stimulus": "<p id=\"stim\">6</p>", "key_press": -1, "trial_type": "single-stim", "trial_index": 258, "time_elapsed": 1180174, "internal_node_id": "0.0-191.0-4.0"}}, {"uniqueid": "MTK0896:3EQHHY4HQTZ0MFIYK6UJYI3CQGR5GK", "current_trial": 259, "dateTime": 1512865524469, "trialdata": {"rt": -1, "stimulus": "<p id=\"stim\">5</p>", "key_press": -1, "trial_type": "single-stim", "trial_index": 259, "time_elapsed": 1181175, "internal_node_id": "0.0-191.0-5.0"}}, {"uniqueid": "MTK0896:3EQHHY4HQTZ0MFIYK6UJYI3CQGR5GK", "current_trial": 260, "dateTime": 1512865525469, "trialdata": {"rt": -1, "stimulus": "<p id=\"stim\">4</p>", "key_press": -1, "trial_type": "single-stim", "trial_index": 260, "time_elapsed": 1182175, "internal_node_id": "0.0-191.0-6.0"}}, {"uniqueid": "MTK0896:3EQHHY4HQTZ0MFIYK6UJYI3CQGR5GK", "current_trial": 261, "dateTime": 1512865526470, "trialdata": {"rt": -1, "stimulus": "<p id=\"stim\">3</p>", "key_press": -1, "trial_type": "single-stim", "trial_index": 261, "time_elapsed": 1183176, "internal_node_id": "0.0-191.0-7.0"}}, {"uniqueid": "MTK0896:3EQHHY4HQTZ0MFIYK6UJYI3CQGR5GK", "current_trial": 262, "dateTime": 1512865527471, "trialdata": {"rt": -1, "stimulus": "<p id=\"stim\">2</p>", "key_press": -1, "trial_type": "single-stim", "trial_index": 262, "time_elapsed": 1184177, "internal_node_id": "0.0-191.0-8.0"}}, {"uniqueid": "MTK0896:3EQHHY4HQTZ0MFIYK6UJYI3CQGR5GK", "current_trial": 263, "dateTime": 1512865528471, "trialdata": {"rt": -1, "stimulus": "<p id=\"stim\">1</p>", "key_press": -1, "trial_type": "single-stim", "trial_index": 263, "time_elapsed": 1185177, "internal_node_id": "0.0-191.0-9.0"}}, {"uniqueid": "MTK0896:3EQHHY4HQTZ0MFIYK6UJYI3CQGR5GK", "current_trial": 264, "dateTime": 1512865529972, "trialdata": {"rt": -1, "stimulus": "<p id=\"stim\">+</p>", "key_press": -1, "type": "FIXATION", "trial_type": "single-stim", "trial_index": 264, "time_elapsed": 1186678, "internal_node_id": "0.0-192.0-0.0"}}, {"uniqueid": "MTK0896:3EQHHY4HQTZ0MFIYK6UJYI3CQGR5GK", "current_trial": 265, "dateTime": 1512865531574, "trialdata": {"rt": -1, "stimulus": "<p id=\"stim\">FRIEND</p>", "key_press": -1, "type": "PRES_VIS", "word": "friend", "wordID": 605, "conditions": [12, 1600, "v", 24000], "trial": 7, "serialpos": 0, "trial_type": "single-stim", "trial_index": 265, "time_elapsed": 1188280, "internal_node_id": "0.0-193.0"}}, {"uniqueid": "MTK0896:3EQHHY4HQTZ0MFIYK6UJYI3CQGR5GK", "current_trial": 266, "dateTime": 1512865534289, "trialdata": {"rt": -1, "stimulus": "<p id=\"stim\">HERO</p>", "key_press": -1, "type": "PRES_VIS", "word": "hero", "wordID": 705, "conditions": [12, 1600, "v", 24000], "trial": 7, "serialpos": 1, "trial_type": "single-stim", "trial_index": 266, "time_elapsed": 1190995, "internal_node_id": "0.0-194.0"}}, {"uniqueid": "MTK0896:3EQHHY4HQTZ0MFIYK6UJYI3CQGR5GK", "current_trial": 267, "dateTime": 1512865536748, "trialdata": {"rt": -1, "stimulus": "<p id=\"stim\">SUITCASE</p>", "key_press": -1, "type": "PRES_VIS", "word": "suitcase", "wordID": 1402, "conditions": [12, 1600, "v", 24000], "trial": 7, "serialpos": 2, "trial_type": "single-stim", "trial_index": 267, "time_elapsed": 1193454, "internal_node_id": "0.0-195.0"}}, {"uniqueid": "MTK0896:3EQHHY4HQTZ0MFIYK6UJYI3CQGR5GK", "current_trial": 268, "dateTime": 1512865539471, "trialdata": {"rt": -1, "stimulus": "<p id=\"stim\">LUGGAGE</p>", "key_press": -1, "type": "PRES_VIS", "word": "luggage", "wordID": 846, "conditions": [12, 1600, "v", 24000], "trial": 7, "serialpos": 3, "trial_type": "single-stim", "trial_index": 268, "time_elapsed": 1196177, "internal_node_id": "0.0-196.0"}}, {"uniqueid": "MTK0896:3EQHHY4HQTZ0MFIYK6UJYI3CQGR5GK", "current_trial": 269, "dateTime": 1512865541928, "trialdata": {"rt": -1, "stimulus": "<p id=\"stim\">FREEZER</p>", "key_press": -1, "type": "PRES_VIS", "word": "freezer", "wordID": 603, "conditions": [12, 1600, "v", 24000], "trial": 7, "serialpos": 4, "trial_type": "single-stim", "trial_index": 269, "time_elapsed": 1198634, "internal_node_id": "0.0-197.0"}}, {"uniqueid": "MTK0896:3EQHHY4HQTZ0MFIYK6UJYI3CQGR5GK", "current_trial": 270, "dateTime": 1512865544411, "trialdata": {"rt": -1, "stimulus": "<p id=\"stim\">FRUIT</p>", "key_press": -1, "type": "PRES_VIS", "word": "fruit", "wordID": 609, "conditions": [12, 1600, "v", 24000], "trial": 7, "serialpos": 5, "trial_type": "single-stim", "trial_index