{"condition": 0, "counterbalance": 753, "assignmentId": "3SKRO2GZ72Y60JDY9ADMTKIOI9A1KP", "workerId": "MTK0312", "hitId": "3ZCC2DXSD7BWNAFOZCGKRVCPAPQYYL", "currenttrial": 626, "bonus": 0, "data": [{"uniqueid": "MTK0312:3SKRO2GZ72Y60JDY9ADMTKIOI9A1KP", "current_trial": 0, "dateTime": 1510702236485, "trialdata": {"rt": 3284, "key_press": 32, "type": "INSTRUCTIONS", "trial_type": "text", "trial_index": 0, "time_elapsed": 3287, "internal_node_id": "0.0-0.0"}}, {"uniqueid": "MTK0312:3SKRO2GZ72Y60JDY9ADMTKIOI9A1KP", "current_trial": 1, "dateTime": 1510702431765, "trialdata": {"rt": 195277, "key_press": 32, "type": "INSTRUCTIONS", "trial_type": "text", "trial_index": 1, "time_elapsed": 198568, "internal_node_id": "0.0-1.0"}}, {"uniqueid": "MTK0312:3SKRO2GZ72Y60JDY9ADMTKIOI9A1KP", "current_trial": 2, "dateTime": 1510702435491, "trialdata": {"rt": [3716], "responses": ["ocean"], "type": "AUDIO_TEST", "trial_type": "audio-test", "trial_index": 2, "time_elapsed": 202294, "internal_node_id": "0.0-2.0"}}, {"uniqueid": "MTK0312:3SKRO2GZ72Y60JDY9ADMTKIOI9A1KP", "current_trial": 3, "dateTime": 1510702439187, "trialdata": {"rt": [3691], "responses": ["crystal"], "type": "AUDIO_TEST", "trial_type": "audio-test", "trial_index": 3, "time_elapsed": 205990, "internal_node_id": "0.0-3.0"}}, {"uniqueid": "MTK0312:3SKRO2GZ72Y60JDY9ADMTKIOI9A1KP", "current_trial": 4, "dateTime": 1510702442611, "trialdata": {"rt": [3419], "responses": ["spice"], "type": "AUDIO_TEST", "trial_type": "audio-test", "trial_index": 4, "time_elapsed": 209414, "internal_node_id": "0.0-4.0"}}, {"uniqueid": "MTK0312:3SKRO2GZ72Y60JDY9ADMTKIOI9A1KP", "current_trial": 5, "dateTime": 1510702459584, "trialdata": {"rt": 16221, "responses": "{\"Q0\":\"4am\",\"Q1\":\"12pm\",\"Q2\":\"5\"}", "type": "SLEEP_SURVEY", "trial_type": "survey-text", "trial_index": 5, "time_elapsed": 226387, "internal_node_id": "0.0-5.0"}}, {"uniqueid": "MTK0312:3SKRO2GZ72Y60JDY9ADMTKIOI9A1KP", "current_trial": 6, "dateTime": 1510702504923, "trialdata": {"rt": 44338, "key_press": 32, "type": "INSTRUCTIONS", "trial_type": "text", "trial_index": 6, "time_elapsed": 271726, "internal_node_id": "0.0-6.0"}}, {"uniqueid": "MTK0312:3SKRO2GZ72Y60JDY9ADMTKIOI9A1KP", "current_trial": 7, "dateTime": 1510702548747, "trialdata": {"rt": 43323, "key_press": 13, "type": "INSTRUCTIONS", "trial_type": "text", "trial_index": 7, "time_elapsed": 315550, "internal_node_id": "0.0-7.0"}}, {"uniqueid": "MTK0312:3SKRO2GZ72Y60JDY9ADMTKIOI9A1KP", "current_trial": 8, "dateTime": 1510702559075, "trialdata": {"rt": 9827, "key_press": 32, "type": "INSTRUCTIONS", "trial_type": "text", "trial_index": 8, "time_elapsed": 325878, "internal_node_id": "0.0-8.0"}}, {"uniqueid": "MTK0312:3SKRO2GZ72Y60JDY9ADMTKIOI9A1KP", "current_trial": 9, "dateTime": 1510702578079, "trialdata": {"rt": [3772, 5380, 6948, 11740, 13476, 15852, 17524], "responses": ["7", "16", "13", "14", "7", "18", "14"], "num1": [5, 5, 2, 2, 2, 9, 1, 4], "num2": [1, 7, 9, 5, 1, 2, 4, 7], "num3": [1, 4, 2, 7, 4, 7, 9, 6], "type": "DISTRACTOR", "conditions": [18, 1200, "v", 18000], "trial": 0, "trial_type": "math-distractor", "trial_index": 9, "time_elapsed": 344882, "internal_node_id": "0.0-9.0"}}, {"uniqueid": "MTK0312:3SKRO2GZ72Y60JDY9ADMTKIOI9A1KP", "current_trial": 10, "dateTime": 1510702581081, "trialdata": {"rt": -1, "stimulus": "<p id=\"stim\">10</p>", "key_press": -1, "trial_type": "single-stim", "trial_index": 10, "time_elapsed": 347884, "internal_node_id": "0.0-10.0-0.0"}}, {"uniqueid": "MTK0312:3SKRO2GZ72Y60JDY9ADMTKIOI9A1KP", "current_trial": 11, "dateTime": 1510702582082, "trialdata": {"rt": -1, "stimulus": "<p id=\"stim\">9</p>", "key_press": -1, "trial_type": "single-stim", "trial_index": 11, "time_elapsed": 348885, "internal_node_id": "0.0-10.0-1.0"}}, {"uniqueid": "MTK0312:3SKRO2GZ72Y60JDY9ADMTKIOI9A1KP", "current_trial": 12, "dateTime": 1510702583083, "trialdata": {"rt": -1, "stimulus": "<p id=\"stim\">8</p>", "key_press": -1, "trial_type": "single-stim", "trial_index": 12, "time_elapsed": 349886, "internal_node_id": "0.0-10.0-2.0"}}, {"uniqueid": "MTK0312:3SKRO2GZ72Y60JDY9ADMTKIOI9A1KP", "current_trial": 13, "dateTime": 1510702584084, "trialdata": {"rt": -1, "stimulus": "<p id=\"stim\">7</p>", "key_press": -1, "trial_type": "single-stim", "trial_index": 13, "time_elapsed": 350887, "internal_node_id": "0.0-10.0-3.0"}}, {"uniqueid": "MTK0312:3SKRO2GZ72Y60JDY9ADMTKIOI9A1KP", "current_trial": 14, "dateTime": 1510702585084, "trialdata": {"rt": -1, "stimulus": "<p id=\"stim\">6</p>", "key_press": -1, "trial_type": "single-stim", "trial_index": 14, "time_elapsed": 351887, "internal_node_id": "0.0-10.0-4.0"}}, {"uniqueid": "MTK0312:3SKRO2GZ72Y60JDY9ADMTKIOI9A1KP", "current_trial": 15, "dateTime": 1510702586084, "trialdata": {"rt": -1, "stimulus": "<p id=\"stim\">5</p>", "key_press": -1, "trial_type": "single-stim", "trial_index": 15, "time_elapsed": 352887, "internal_node_id": "0.0-10.0-5.0"}}, {"uniqueid": "MTK0312:3SKRO2GZ72Y60JDY9ADMTKIOI9A1KP", "current_trial": 16, "dateTime": 1510702587098, "trialdata": {"rt": -1, "stimulus": "<p id=\"stim\">4</p>", "key_press": -1, "trial_type": "single-stim", "trial_index": 16, "time_elapsed": 353901, "internal_node_id": "0.0-10.0-6.0"}}, {"uniqueid": "MTK0312:3SKRO2GZ72Y60JDY9ADMTKIOI9A1KP", "current_trial": 17, "dateTime": 1510702588099, "trialdata": {"rt": -1, "stimulus": "<p id=\"stim\">3</p>", "key_press": -1, "trial_type": "single-stim", "trial_index": 17, "time_elapsed": 354902, "internal_node_id": "0.0-10.0-7.0"}}, {"uniqueid": "MTK0312:3SKRO2GZ72Y60JDY9ADMTKIOI9A1KP", "current_trial": 18, "dateTime": 1510702589099, "trialdata": {"rt": -1, "stimulus": "<p id=\"stim\">2</p>", "key_press": -1, "trial_type": "single-stim", "trial_index": 18, "time_elapsed": 355902, "internal_node_id": "0.0-10.0-8.0"}}, {"uniqueid": "MTK0312:3SKRO2GZ72Y60JDY9ADMTKIOI9A1KP", "current_trial": 19, "dateTime": 1510702590100, "trialdata": {"rt": -1, "stimulus": "<p id=\"stim\">1</p>", "key_press": -1, "trial_type": "single-stim", "trial_index": 19, "time_elapsed": 356903, "internal_node_id": "0.0-10.0-9.0"}}, {"uniqueid": "MTK0312:3SKRO2GZ72Y60JDY9ADMTKIOI9A1KP", "current_trial": 20, "dateTime": 1510702591602, "trialdata": {"rt": -1, "stimulus": "<p id=\"stim\">+</p>", "key_press": -1, "type": "FIXATION", "trial_type": "single-stim", "trial_index": 20, "time_elapsed": 358405, "internal_node_id": "0.0-11.0-0.0"}}, {"uniqueid": "MTK0312:3SKRO2GZ72Y60JDY9ADMTKIOI9A1KP", "current_trial": 21, "dateTime": 1510702592803, "trialdata": {"rt": -1, "stimulus": "<p id=\"stim\">ORANGE</p>", "key_press": -1, "type": "PRES_VIS", "word": "orange", "wordID": 979, "conditions": [18, 1200, "v", 18000], "trial": 0, "serialpos": 0, "trial_type": "single-stim", "trial_index": 21, "time_elapsed": 359606, "internal_node_id": "0.0-12.0"}}, {"uniqueid": "MTK0312:3SKRO2GZ72Y60JDY9ADMTKIOI9A1KP", "current_trial": 22, "dateTime": 1510702595173, "trialdata": {"rt": -1, "stimulus": "<p id=\"stim\">SODA</p>", "key_press": -1, "type": "PRES_VIS", "word": "soda", "wordID": 1340, "conditions": [18, 1200, "v", 18000], "trial": 0, "serialpos": 1, "trial_type": "single-stim", "trial_index": 22, "time_elapsed": 361976, "internal_node_id": "0.0-13.0"}}, {"uniqueid": "MTK0312:3SKRO2GZ72Y60JDY9ADMTKIOI9A1KP", "current_trial": 23, "dateTime": 1510702597418, "trialdata": {"rt": -1, "stimulus": "<p id=\"stim\">BANJO</p>", "key_press": -1, "type": "PRES_VIS", "word": "banjo", "wordID": 81, "conditions": [18, 1200, "v", 18000], "trial": 0, "serialpos": 2, "trial_type": "single-stim", "trial_index": 23, "time_elapsed": 364221, "internal_node_id": "0.0-14.0"}}, {"uniqueid": "MTK0312:3SKRO2GZ72Y60JDY9ADMTKIOI9A1KP", "current_trial": 24, "dateTime": 1510702599486, "trialdata": {"rt": -1, "stimulus": "<p id=\"stim\">BUREAU</p>", "key_press": -1, "type": "PRES_VIS", "word": "bureau", "wordID": 198, "conditions": [18, 1200, "v", 18000], "trial": 0, "serialpos": 3, "trial_type": "single-stim", "trial_index": 24, "time_elapsed": 366289, "internal_node_id": "0.0-15.0"}}, {"uniqueid": "MTK0312:3SKRO2GZ72Y60JDY9ADMTKIOI9A1KP", "current_trial": 25, "dateTime": 1510702601615, "trialdata": {"rt": -1, "stimulus": "<p id=\"stim\">KEEPER</p>", "key_press": -1, "type": "PRES_VIS", "word": "keeper", "wordID": 768, "conditions": [18, 1200, "v", 18000], "trial": 0, "serialpos": 4, "trial_type": "single-stim", "trial_index": 25, "time_elapsed": 368418, "internal_node_id": "0.0-16.0"}}, {"uniqueid": "MTK0312:3SKRO2GZ72Y60JDY9ADMTKIOI9A1KP", "current_trial": 26, "dateTime": 1510702603730, "trialdata": {"rt": -1, "stimulus": "<p id=\"stim\">PARTNER</p>", "key_press": -1, "type": "PRES_VIS", "word": "partner", "wordID": 1016, "conditions": [18, 1200, "v", 18000], "trial": 0, "serialpos": 5, "trial_type": "single-stim", "trial_index": 26, "time_elapsed": 370533, "internal_node_id": "0.0-17.0"}}, {"uniqueid": "MTK0312:3SKRO2GZ72Y60JDY9ADMTKIOI9A1KP", "current_trial": 27, "dateTime": 1510702605736, "trialdata": {"rt": -1, "stimulus": "<p id=\"stim\">MAMMAL</p>", "key_press": -1, "type": "PRES_VIS", "word": "mammal", "wordID": 860, "conditions": [18, 1200, "v", 18000], "trial": 0, "serialpos": 6, "trial_type": "single-stim", "trial_index": 27, "time_elapsed": 372539, "internal_node_id": "0.0-18.0"}}, {"uniqueid": "MTK0312:3SKRO2GZ72Y60JDY9ADMTKIOI9A1KP", "current_trial": 28, "dateTime": 1510702607901, "trialdata": {"rt": -1, "stimulus": "<p id=\"stim\">SHOULDER</p>", "key_press": -1, "type": "PRES_VIS", "word": "shoulder", "wordID": 1293, "conditions": [18, 1200, "v", 18000], "trial": 0, "serialpos": 7, "trial_type": "single-stim", "trial_index": 28, "time_elapsed": 374704, "internal_node_id": "0.0-19.0"}}, {"uniqueid": "MTK0312:3SKRO2GZ72Y60JDY9ADMTKIOI9A1KP", "current_trial": 29, "dateTime": 1510702610236, "trialdata": {"rt": -1, "stimulus": "<p id=\"stim\">SIBLING</p>", "key_press": -1, "type": "PRES_VIS", "word": "sibling", "wordID": 1300, "conditions": [18, 1200, "v", 18000], "trial": 0, "serialpos": 8, "trial_type": "single-stim", "trial_index": 29, "time_elapsed": 377039, "internal_node_id": "0.0-20.0"}}, {"uniqueid": "MTK0312:3SKRO2GZ72Y60JDY9ADMTKIOI9A1KP", "current_trial": 30, "dateTime": 1510702612598, "trialdata": {"rt": -1, "stimulus": "<p id=\"stim\">SPONGE</p>", "key_press": -1, "type": "PRES_VIS", "word": "sponge", "wordID": 1354, "conditions": [18, 1200, "v", 18000], "trial": 0, "serialpos": 9, "trial_type": "single-stim", "trial_index": 30, "time_elapsed": 379401, "internal_node_id": "0.0-21.0"}}, {"uniqueid": "MTK0312:3SKRO2GZ72Y60JDY9ADMTKIOI9A1KP", "current_trial": 31, "dateTime": 1510702614881, "trialdata": {"rt": -1, "stimulus": "<p id=\"stim\">WASHER</p>", "key_press": -1, "type": "PRES_VIS", "word": "washer", "wordID": 1591, "conditions": [18, 1200, "v", 18000], "trial": 0, "serialpos": 10, "trial_type": "single-stim", "trial_index": 31, "time_elapsed": 381684, "internal_node_id": "0.0-22.0"}}, {"uniqueid": "MTK0312:3SKRO2GZ72Y60JDY9ADMTKIOI9A1KP", "current_trial": 32, "dateTime": 1510702617153, "trialdata": {"rt": -1, "stimulus": "<p id=\"stim\">DONKEY</p>", "key_press": -1, "type": "PRES_VIS", "word": "donkey", "wordID": 483, "conditions": [18, 1200, "v", 18000], "trial": 0, "serialpos": 11, "trial_type": "single-stim", "trial_index": 32, "time_elapsed": 383956, "internal_node_id": "0.0-23.0"}}, {"uniqueid": "MTK0312:3SKRO2GZ72Y60JDY9ADMTKIOI9A1KP", "current_trial": 33, "dateTime": 1510702619352, "trialdata": {"rt": -1, "stimulus": "<p id=\"stim\">KITCHEN</p>", "key_press": -1, "type": "PRES_VIS", "word": "kitchen", "wordID": 777, "conditions": [18, 1200, "v", 18000], "trial": 0, "serialpos": 12, "trial_type": "single-stim", "trial_index": 33, "time_elapsed": 386154, "internal_node_id": "0.0-24.0"}}, {"uniqueid": "MTK0312:3SKRO2GZ72Y60JDY9ADMTKIOI9A1KP", "current_trial": 34, "dateTime": 1510702621379, "trialdata": {"rt": -1, "stimulus": "<p id=\"stim\">DOUGHNUT</p>", "key_press": -1, "type": "PRES_VIS", "word": "doughnut", "wordID": 489, "conditions": [18, 1200, "v", 18000], "trial": 0, "serialpos": 13, "trial_type": "single-stim", "trial_index": 34, "time_elapsed": 388181, "internal_node_id": "0.0-25.0"}}, {"uniqueid": "MTK0312:3SKRO2GZ72Y60JDY9ADMTKIOI9A1KP", "current_trial": 35, "dateTime": 1510702623540, "trialdata": {"rt": -1, "stimulus": "<p id=\"stim\">CURTAIN</p>", "key_press": -1, "type": "PRES_VIS", "word": "curtain", "wordID": 426, "conditions": [18, 1200, "v", 18000], "trial": 0, "serialpos": 14, "trial_type": "single-stim", "trial_index": 35, "time_elapsed": 390343, "internal_node_id": "0.0-26.0"}}, {"uniqueid": "MTK0312:3SKRO2GZ72Y60JDY9ADMTKIOI9A1KP", "current_trial": 36, "dateTime": 1510702625801, "trialdata": {"rt": -1, "stimulus": "<p id=\"stim\">FRANCE</p>", "key_press": -1, "type": "PRES_VIS", "word": "france", "wordID": 600, "conditions": [18, 1200, "v", 18000], "trial": 0, "serialpos": 15, "trial_type": "single-stim", "trial_index": 36, "time_elapsed": 392604, "internal_node_id": "0.0-27.0"}}, {"uniqueid": "MTK0312:3SKRO2GZ72Y60JDY9ADMTKIOI9A1KP", "current_trial": 37, "dateTime": 1510702627963, "trialdata": {"rt": -1, "stimulus": "<p id=\"stim\">SPOUSE</p>", "key_press": -1, "type": "PRES_VIS", "word": "spouse", "wordID": 1357, "conditions": [18, 1200, "v", 18000], "trial": 0, "serialpos": 16, "trial_type": "single-stim", "trial_index": 37, "time_elapsed": 394765, "internal_node_id": "0.0-28.0"}}, {"uniqueid": "MTK0312:3SKRO2GZ72Y60JDY9ADMTKIOI9A1KP", "current_trial": 38, "dateTime": 1510702630074, "trialdata": {"rt": -1, "stimulus": "<p id=\"stim\">PREACHER</p>", "key_press": -1, "type": "PRES_VIS", "word": "preacher", "wordID": 1118, "conditions": [18, 1200, "v", 18000], "trial": 0, "serialpos": 17, "trial_type": "single-stim", "trial_index": 38, "time_elapsed": 396877, "internal_node_id": "0.0-29.0"}}, {"uniqueid": "MTK0312:3SKRO2GZ72Y60JDY9ADMTKIOI9A1KP", "current_trial": 39, "dateTime": 1510702632583, "trialdata": {"rt": -1, "stimulus": "", "key_press": -1, "type": "PRE_RECALL_DELAY", "trial_type": "single-stim", "trial_index": 39, "time_elapsed": 399386, "internal_node_id": "0.0-30.0-0.0"}}, {"uniqueid": "MTK0312:3SKRO2GZ72Y60JDY9ADMTKIOI9A1KP", "current_trial": 40, "dateTime": 1510702633085, "trialdata": {"rt": -1000, "stimulus": "/static/audio/400Hz.wav", "key_press": -1, "type": "PRE_RECALL_ALERT", "trial_type": "single-audio", "trial_index": 40, "time_elapsed": 399888, "internal_node_id": "0.0-31.0"}}, {"uniqueid": "MTK0312:3SKRO2GZ72Y60JDY9ADMTKIOI9A1KP", "current_trial": 41, "dateTime": 1510702693090, "trialdata": {"rt": [3363, 7291, 11459, 12643, 34339, 47603], "recwords": ["banjo", "spouce", "orange", "soda", "mammal", ""], "type": "FREE_RECALL", "conditions": [18, 1200, "v", 18000], "trial": 0, "trial_type": "free-recall", "trial_index": 41, "time_elapsed": 459890, "internal_node_id": "0.0-32.0-0.0"}}, {"uniqueid": "MTK0312:3SKRO2GZ72Y60JDY9ADMTKIOI9A1KP", "current_trial": 42, "dateTime": 1510702696258, "trialdata": {"rt": 1167, "key_press": 32, "type": "INSTRUCTIONS", "trial_type": "text", "trial_index": 42, "time_elapsed": 463061, "internal_node_id": "0.0-33.0"}}, {"uniqueid": "MTK0312:3SKRO2GZ72Y60JDY9ADMTKIOI9A1KP", "current_trial": 43, "dateTime": 1510702716260, "trialdata": {"rt": [2870, 4838, 6422, 7750, 9118, 10750, 12734, 14086, 15502, 17654], "responses": ["17", "15", "18", "21", "16", "18", "18", "14", "16", "22"], "num1": [5, 7, 8, 7, 9, 9, 9, 4, 4, 3, 3], "num2": [9, 1, 9, 7, 2, 3, 7, 2, 6, 8, 8], "num3": [4, 7, 1, 7, 5, 6, 2, 8, 6, 7, 4], "type": "DISTRACTOR", "conditions": [18, 1200, "a", 18000], "trial": 1, "trial_type": "math-distractor", "trial_index": 43, "time_elapsed": 483063, "internal_node_id": "0.0-34.0"}}, {"uniqueid": "MTK0312:3SKRO2GZ72Y60JDY9ADMTKIOI9A1KP", "current_trial": 44, "dateTime": 1510702719261, "trialdata": {"rt": -1, "stimulus": "<p id=\"stim\">10</p>", "key_press": -1, "trial_type": "single-stim", "trial_index": 44, "time_elapsed": 486064, "internal_node_id": "0.0-35.0-0.0"}}, {"uniqueid": "MTK0312:3SKRO2GZ72Y60JDY9ADMTKIOI9A1KP", "current_trial": 45, "dateTime": 1510702720263, "trialdata": {"rt": -1, "stimulus": "<p id=\"stim\">9</p>", "key_press": -1, "trial_type": "single-stim", "trial_index": 45, "time_elapsed": 487066, "internal_node_id": "0.0-35.0-1.0"}}, {"uniqueid": "MTK0312:3SKRO2GZ72Y60JDY9ADMTKIOI9A1KP", "current_trial": 46, "dateTime": 1510702721263, "trialdata": {"rt": 458, "stimulus": "<p id=\"stim\">8</p>", "key_press": 18, "trial_type": "single-stim", "trial_index": 46, "time_elapsed": 488066, "internal_node_id": "0.0-35.0-2.0"}}, {"uniqueid": "MTK0312:3SKRO2GZ72Y60JDY9ADMTKIOI9A1KP", "current_trial": 47, "dateTime": 1510702722264, "trialdata": {"rt": -1, "stimulus": "<p id=\"stim\">7</p>", "key_press": -1, "trial_type": "single-stim", "trial_index": 47, "time_elapsed": 489067, "internal_node_id": "0.0-35.0-3.0"}}, {"uniqueid": "MTK0312:3SKRO2GZ72Y60JDY9ADMTKIOI9A1KP", "current_trial": 48, "dateTime": 1510702723266, "trialdata": {"rt": -1, "stimulus": "<p id=\"stim\">6</p>", "key_press": -1, "trial_type": "single-stim", "trial_index": 48, "time_elapsed": 490069, "internal_node_id": "0.0-35.0-4.0"}}, {"uniqueid": "MTK0312:3SKRO2GZ72Y60JDY9ADMTKIOI9A1KP", "current_trial": 49, "dateTime": 1510702724266, "trialdata": {"rt": -1, "stimulus": "<p id=\"stim\">5</p>", "key_press": -1, "trial_type": "single-stim", "trial_index": 49, "time_elapsed": 491069, "internal_node_id": "0.0-35.0-5.0"}}, {"uniqueid": "MTK0312:3SKRO2GZ72Y60JDY9ADMTKIOI9A1KP", "current_trial": 50, "dateTime": 1510702725266, "trialdata": {"rt": -1, "stimulus": "<p id=\"stim\">4</p>", "key_press": -1, "trial_type": "single-stim", "trial_index": 50, "time_elapsed": 492069, "internal_node_id": "0.0-35.0-6.0"}}, {"uniqueid": "MTK0312:3SKRO2GZ72Y60JDY9ADMTKIOI9A1KP", "current_trial": 51, "dateTime": 1510702726267, "trialdata": {"rt": -1, "stimulus": "<p id=\"stim\">3</p>", "key_press": -1, "trial_type": "single-stim", "trial_index": 51, "time_elapsed": 493070, "internal_node_id": "0.0-35.0-7.0"}}, {"uniqueid": "MTK0312:3SKRO2GZ72Y60JDY9ADMTKIOI9A1KP", "current_trial": 52, "dateTime": 1510702727269, "trialdata": {"rt": -1, "stimulus": "<p id=\"stim\">2</p>", "key_press": -1, "trial_type": "single-stim", "trial_index": 52, "time_elapsed": 494071, "internal_node_id": "0.0-35.0-8.0"}}, {"uniqueid": "MTK0312:3SKRO2GZ72Y60JDY9ADMTKIOI9A1KP", "current_trial": 53, "dateTime": 1510702728270, "trialdata": {"rt": -1, "stimulus": "<p id=\"stim\">1</p>", "key_press": -1, "trial_type": "single-stim", "trial_index": 53, "time_elapsed": 495073, "internal_node_id": "0.0-35.0-9.0"}}, {"uniqueid": "MTK0312:3SKRO2GZ72Y60JDY9ADMTKIOI9A1KP", "current_trial": 54, "dateTime": 1510702729771, "trialdata": {"rt": -1, "stimulus": "<p id=\"stim\">+</p>", "key_press": -1, "type": "FIXATION", "trial_type": "single-stim", "trial_index": 54, "time_elapsed": 496574, "internal_node_id": "0.0-36.0-0.0"}}, {"uniqueid": "MTK0312:3SKRO2GZ72Y60JDY9ADMTKIOI9A1KP", "current_trial": 55, "dateTime": 1510702732063, "trialdata": {"rt": -1000, "stimulus": "/static/audio/wordpool/TWEEZERS.wav", "key_press": -1, "type": "PRES_AUD", "word": "tweezers", "wordID": 1525, "conditions": [18, 1200, "a", 18000], "trial": 1, "serialpos": 0, "trial_type": "single-audio", "trial_index": 55, "time_elapsed": 498866, "internal_node_id": "0.0-37.0"}}, {"uniqueid": "MTK0312:3SKRO2GZ72Y60JDY9ADMTKIOI9A1KP", "current_trial": 56, "dateTime": 1510702734130, "trialdata": {"rt": -1000, "stimulus": "/static/audio/wordpool/PICTURE.wav", "key_press": -1, "type": "PRES_AUD", "word": "picture", "wordID": 1060, "conditions": [18, 1200, "a", 18000], "trial": 1, "serialpos": 1, "trial_type": "single-audio", "trial_index": 56, "time_elapsed": 500933, "internal_node_id": "0.0-38.0"}}, {"uniqueid": "MTK0312:3SKRO2GZ72Y60JDY9ADMTKIOI9A1KP", "current_trial": 57, "dateTime": 1510702736235, "trialdata": {"rt": -1000, "stimulus": "/static/audio/wordpool/FUNGUS.wav", "key_press": -1, "type": "PRES_AUD", "word": "fungus", "wordID": 613, "conditions": [18, 1200, "a", 18000], "trial": 1, "serialpos": 2, "trial_type": "single-audio", "trial_index": 57, "time_elapsed": 503038, "internal_node_id": "0.0-39.0"}}, {"uniqueid": "MTK0312:3SKRO2GZ72Y60JDY9ADMTKIOI9A1KP", "current_trial": 58, "dateTime": 1510702738249, "trialdata": {"rt": -1000, "stimulus": "/static/audio/wordpool/WAITRESS.wav", "key_press": -1, "type": "PRES_AUD", "word": "waitress", "wordID": 1580, "conditions": [18, 1200, "a", 18000], "trial": 1, "serialpos": 3, "trial_type": "single-audio", "trial_index": 58, "time_elapsed": 505052, "internal_node_id": "0.0-40.0"}}, {"uniqueid": "MTK0312:3SKRO2GZ72Y60JDY9ADMTKIOI9A1KP", "current_trial": 59, "dateTime": 1510702740467, "trialdata": {"rt": -1000, "stimulus": "/static/audio/wordpool/BEEF.wav", "key_press": -1, "type": "PRES_AUD", "word": "beef", "wordID": 112, "conditions": [18, 1200, "a", 18000], "trial": 1, "serialpos": 4, "trial_type": "single-audio", "trial_index": 59, "time_elapsed": 507270, "internal_node_id": "0.0-41.0"}}, {"uniqueid": "MTK0312:3SKRO2GZ72Y60JDY9ADMTKIOI9A1KP", "current_trial": 60, "dateTime": 1510702742565, "trialdata": {"rt": -1000, "stimulus": "/static/audio/wordpool/ROBBER.wav", "key_press": -1, "type": "PRES_AUD", "word": "robber", "wordID": 1196, "conditions": [18, 1200, "a", 18000], "trial": 1, "serialpos": 5, "trial_type": "single-audio", "trial_index": 60, "time_elapsed": 509368, "internal_node_id": "0.0-42.0"}}, {"uniqueid": "MTK0312:3SKRO2GZ72Y60JDY9ADMTKIOI9A1KP", "current_trial": 61, "dateTime": 1510702744926, "trialdata": {"rt": -1000, "stimulus": "/static/audio/wordpool/AIRPORT.wav", "key_press": -1, "type": "PRES_AUD", "word": "airport", "wordID": 12, "conditions": [18, 1200, "a", 18000], "trial": 1, "serialpos": 6, "trial_type": "single-audio", "trial_index": 61, "time_elapsed": 511729, "internal_node_id": "0.0-43.0"}}, {"uniqueid": "MTK0312:3SKRO2GZ72Y60JDY9ADMTKIOI9A1KP", "current_trial": 62, "dateTime": 1510702747111, "trialdata": {"rt": -1000, "stimulus": "/static/audio/wordpool/COCKTAIL.wav", "key_press": -1, "type": "PRES_AUD", "word": "cocktail", "wordID": 337, "conditions": [18, 1200, "a", 18000], "trial": 1, "serialpos": 7, "trial_type": "single-audio", "trial_index": 62, "time_elapsed": 513914, "internal_node_id": "0.0-44.0"}}, {"uniqueid": "MTK0312:3SKRO2GZ72Y60JDY9ADMTKIOI9A1KP", "current_trial": 63, "dateTime": 1510702749468, "trialdata": {"rt": -1000, "stimulus": "/static/audio/wordpool/POLICE.wav", "key_press": -1, "type": "PRES_AUD", "word": "police", "wordID": 1097, "conditions": [18, 1200, "a", 18000], "trial": 1, "serialpos": 8, "trial_type": "single-audio", "trial_index": 63, "time_elapsed": 516271, "internal_node_id": "0.0-45.0"}}, {"uniqueid": "MTK0312:3SKRO2GZ72Y60JDY9ADMTKIOI9A1KP", "current_trial": 64, "dateTime": 1510702751733, "trialdata": {"rt": -1000, "stimulus": "/static/audio/wordpool/MOP.wav", "key_press": -1, "type": "PRES_AUD", "word": "mop", "wordID": 915, "conditions": [18, 1200, "a", 18000], "trial": 1, "serialpos": 9, "trial_type": "single-audio", "trial_index": 64, "time_elapsed": 518536, "internal_node_id": "0.0-46.0"}}, {"uniqueid": "MTK0312:3SKRO2GZ72Y60JDY9ADMTKIOI9A1KP", "current_trial": 65, "dateTime": 1510702754138, "trialdata": {"rt": -1000, "stimulus": "/static/audio/wordpool/JURY.wav", "key_press": -1, "type": "PRES_AUD", "word": "jury", "wordID": 765, "conditions": [18, 1200, "a", 18000], "trial": 1, "serialpos": 10, "trial_type": "single-audio", "trial_index": 65, "time_elapsed": 520940, "internal_node_id": "0.0-47.0"}}, {"uniqueid": "MTK0312:3SKRO2GZ72Y60JDY9ADMTKIOI9A1KP", "current_trial": 66, "dateTime": 1510702756523, "trialdata": {"rt": -1000, "stimulus": "/static/audio/wordpool/NECKLACE.wav", "key_press": -1, "type": "PRES_AUD", "word": "necklace", "wordID": 939, "conditions": [18, 1200, "a", 18000], "trial": 1, "serialpos": 11, "trial_type": "single-audio", "trial_index": 66, "time_elapsed": 523326, "internal_node_id": "0.0-48.0"}}, {"uniqueid": "MTK0312:3SKRO2GZ72Y60JDY9ADMTKIOI9A1KP", "current_trial": 67, "dateTime": 1510702758605, "trialdata": {"rt": -1000, "stimulus": "/static/audio/wordpool/COSTUME.wav", "key_press": -1, "type": "PRES_AUD", "word": "costume", "wordID": 382, "conditions": [18, 1200, "a", 18000], "trial": 1, "serialpos": 12, "trial_type": "single-audio", "trial_index": 67, "time_elapsed": 525408, "internal_node_id": "0.0-49.0"}}, {"uniqueid": "MTK0312:3SKRO2GZ72Y60JDY9ADMTKIOI9A1KP", "current_trial": 68, "dateTime": 1510702760775, "trialdata": {"rt": -1000, "stimulus": "/static/audio/wordpool/STAR.wav", "key_press": -1, "type": "PRES_AUD", "word": "star", "wordID": 1372, "conditions": [18, 1200, "a", 18000], "trial": 1, "serialpos": 13, "trial_type": "single-audio", "trial_index": 68, "time_elapsed": 527576, "internal_node_id": "0.0-50.0"}}, {"uniqueid": "MTK0312:3SKRO2GZ72Y60JDY9ADMTKIOI9A1KP", "current_trial": 69, "dateTime": 1510702763052, "trialdata": {"rt": -1000, "stimulus": "/static/audio/wordpool/PORK.wav", "key_press": -1, "type": "PRES_AUD", "word": "pork", "wordID": 1107, "conditions": [18, 1200, "a", 18000], "trial": 1, "serialpos": 14, "trial_type": "single-audio", "trial_index": 69, "time_elapsed": 529855, "internal_node_id": "0.0-51.0"}}, {"uniqueid": "MTK0312:3SKRO2GZ72Y60JDY9ADMTKIOI9A1KP", "current_trial": 70, "dateTime": 1510702765072, "trialdata": {"rt": -1000, "stimulus": "/static/audio/wordpool/HUMAN.wav", "key_press": -1, "type": "PRES_AUD", "word": "human", "wordID": 725, "conditions": [18, 1200, "a", 18000], "trial": 1, "serialpos": 15, "trial_type": "single-audio", "trial_index": 70, "time_elapsed": 531875, "internal_node_id": "0.0-52.0"}}, {"uniqueid": "MTK0312:3SKRO2GZ72Y60JDY9ADMTKIOI9A1KP", "current_trial": 71, "dateTime": 1510702767370, "trialdata": {"rt": -1000, "stimulus": "/static/audio/wordpool/SPIDER.wav", "key_press": -1, "type": "PRES_AUD", "word": "spider", "wordID": 1350, "conditions": [18, 1200, "a", 18000], "trial": 1, "serialpos": 16, "trial_type": "single-audio", "trial_index": 71, "time_elapsed": 534173, "internal_node_id": "0.0-53.0"}}, {"uniqueid": "MTK0312:3SKRO2GZ72Y60JDY9ADMTKIOI9A1KP", "current_trial": 72, "dateTime": 1510702769571, "trialdata": {"rt": -1000, "stimulus": "/static/audio/wordpool/DRUG.wav", "key_press": -1, "type": "PRES_AUD", "word": "drug", "wordID": 500, "conditions": [18, 1200, "a", 18000], "trial": 1, "serialpos": 17, "trial_type": "single-audio", "trial_index": 72, "time_elapsed": 536374, "internal_node_id": "0.0-54.0"}}, {"uniqueid": "MTK0312:3SKRO2GZ72Y60JDY9ADMTKIOI9A1KP", "current_trial": 73, "dateTime": 1510702770870, "trialdata": {"rt": -1, "stimulus": "", "key_press": -1, "type": "PRE_RECALL_DELAY", "trial_type": "single-stim", "trial_index": 73, "time_elapsed": 537672, "internal_node_id": "0.0-55.0-0.0"}}, {"uniqueid": "MTK0312:3SKRO2GZ72Y60JDY9ADMTKIOI9A1KP", "current_trial": 74, "dateTime": 1510702771371, "trialdata": {"rt": -1000, "stimulus": "/static/audio/400Hz.wav", "key_press": -1, "type": "PRE_RECALL_ALERT", "trial_type": "single-audio", "trial_index": 74, "time_elapsed": 538174, "internal_node_id": "0.0-56.0"}}, {"uniqueid": "MTK0312:3SKRO2GZ72Y60JDY9ADMTKIOI9A1KP", "current_trial": 75, "dateTime": 1510702831376, "trialdata": {"rt": [2734, 4062, 5534, 6454, 18006, 33703], "recwords": ["drug", "mouse", "jury", "police", "tweezers", "pork"], "type": "FREE_RECALL", "conditions": [18, 1200, "a", 18000], "trial": 1, "trial_type": "free-recall", "trial_index": 75, "time_elapsed": 598176, "internal_node_id": "0.0-57.0-0.0"}}, {"uniqueid": "MTK0312:3SKRO2GZ72Y60JDY9ADMTKIOI9A1KP", "current_trial": 76, "dateTime": 1510702840855, "trialdata": {"rt": 7472, "key_press": 32, "type": "INSTRUCTIONS", "trial_type": "text", "trial_index": 76, "time_elapsed": 607653, "internal_node_id": "0.0-58.0"}}, {"uniqueid": "MTK0312:3SKRO2GZ72Y60JDY9ADMTKIOI9A1KP", "current_trial": 77, "dateTime": 1510702865857, "trialdata": {"rt": [2722, 4434, 5738, 9090, 11466, 13034, 14334, 15844, 17058, 18170, 19754, 21194, 23123], "responses": ["12", "15", "13", "14", "18", "12", "10", "15", "15", "11", "19", "13", "22"], "num1": [7, 3, 4, 2, 3, 8, 1, 4, 5, 5, 9, 6, 5, 2], "num2": [2, 9, 3, 3, 6, 3, 6, 3, 7, 5, 2, 1, 8, 9], "num3": [3, 3, 6, 9, 9, 1, 3, 8, 3, 1, 8, 6, 9, 1], "type": "DISTRACTOR", "conditions": [12, 800, "v", 24000], "trial": 2, "trial_type": "math-distractor", "trial_index": 77, "time_elapsed": 632660, "internal_node_id": "0.0-59.0"}}, {"uniqueid": "MTK0312:3SKRO2GZ72Y60JDY9ADMTKIOI9A1KP", "current_trial": 78, "dateTime": 1510702868859, "trialdata": {"rt": -1, "stimulus": "<p id=\"stim\">10</p>", "key_press": -1, "trial_type": "single-stim", "trial_index": 78, "time_elapsed": 635661, "internal_node_id": "0.0-60.0-0.0"}}, {"uniqueid": "MTK0312:3SKRO2GZ72Y60JDY9ADMTKIOI9A1KP", "current_trial": 79, "dateTime": 1510702869858, "trialdata": {"rt": -1, "stimulus": "<p id=\"stim\">9</p>", "key_press": -1, "trial_type": "single-stim", "trial_index": 79, "time_elapsed": 636661, "internal_node_id": "0.0-60.0-1.0"}}, {"uniqueid": "MTK0312:3SKRO2GZ72Y60JDY9ADMTKIOI9A1KP", "current_trial": 80, "dateTime": 1510702870858, "trialdata": {"rt": -1, "stimulus": "<p id=\"stim\">8</p>", "key_press": -1, "trial_type": "single-stim", "trial_index": 80, "time_elapsed": 637661, "internal_node_id": "0.0-60.0-2.0"}}, {"uniqueid": "MTK0312:3SKRO2GZ72Y60JDY9ADMTKIOI9A1KP", "current_trial": 81, "dateTime": 1510702871859, "trialdata": {"rt": -1, "stimulus": "<p id=\"stim\">7</p>", "key_press": -1, "trial_type": "single-stim", "trial_index": 81, "time_elapsed": 638662, "internal_node_id": "0.0-60.0-3.0"}}, {"uniqueid": "MTK0312:3SKRO2GZ72Y60JDY9ADMTKIOI9A1KP", "current_trial": 82, "dateTime": 1510702872859, "trialdata": {"rt": -1, "stimulus": "<p id=\"stim\">6</p>", "key_press": -1, "trial_type": "single-stim", "trial_index": 82, "time_elapsed": 639662, "internal_node_id": "0.0-60.0-4.0"}}, {"uniqueid": "MTK0312:3SKRO2GZ72Y60JDY9ADMTKIOI9A1KP", "current_trial": 83, "dateTime": 1510702873861, "trialdata": {"rt": -1, "stimulus": "<p id=\"stim\">5</p>", "key_press": -1, "trial_type": "single-stim", "trial_index": 83, "time_elapsed": 640664, "internal_node_id": "0.0-60.0-5.0"}}, {"uniqueid": "MTK0312:3SKRO2GZ72Y60JDY9ADMTKIOI9A1KP", "current_trial": 84, "dateTime": 1510702874861, "trialdata": {"rt": -1, "stimulus": "<p id=\"stim\">4</p>", "key_press": -1, "trial_type": "single-stim", "trial_index": 84, "time_elapsed": 641664, "internal_node_id": "0.0-60.0-6.0"}}, {"uniqueid": "MTK0312:3SKRO2GZ72Y60JDY9ADMTKIOI9A1KP", "current_trial": 85, "dateTime": 1510702875863, "trialdata": {"rt": -1, "stimulus": "<p id=\"stim\">3</p>", "key_press": -1, "trial_type": "single-stim", "trial_index": 85, "time_elapsed": 642666, "internal_node_id": "0.0-60.0-7.0"}}, {"uniqueid": "MTK0312:3SKRO2GZ72Y60JDY9ADMTKIOI9A1KP", "current_trial": 86, "dateTime": 1510702876865, "trialdata": {"rt": -1, "stimulus": "<p id=\"stim\">2</p>", "key_press": -1, "trial_type": "single-stim", "trial_index": 86, "time_elapsed": 643667, "internal_node_id": "0.0-60.0-8.0"}}, {"uniqueid": "MTK0312:3SKRO2GZ72Y60JDY9ADMTKIOI9A1KP", "current_trial": 87, "dateTime": 1510702877866, "trialdata": {"rt": -1, "stimulus": "<p id=\"stim\">1</p>", "key_press": -1, "trial_type": "single-stim", "trial_index": 87, "time_elapsed": 644669, "internal_node_id": "0.0-60.0-9.0"}}, {"uniqueid": "MTK0312:3SKRO2GZ72Y60JDY9ADMTKIOI9A1KP", "current_trial": 88, "dateTime": 1510702879393, "trialdata": {"rt": -1, "stimulus": "<p id=\"stim\">+</p>", "key_press": -1, "type": "FIXATION", "trial_type": "single-stim", "trial_index": 88, "time_elapsed": 646196, "internal_node_id": "0.0-61.0-0.0"}}, {"uniqueid": "MTK0312:3SKRO2GZ72Y60JDY9ADMTKIOI9A1KP", "current_trial": 89, "dateTime": 1510702880195, "trialdata": {"rt": -1, "stimulus": "<p id=\"stim\">OFFICE</p>", "key_press": -1, "type": "PRES_VIS", "word": "office", "wordID": 971, "conditions": [12, 800, "v", 24000], "trial": 2, "serialpos": 0, "trial_type": "single-stim", "trial_index": 89, "time_elapsed": 646998, "internal_node_id": "0.0-62.0"}}, {"uniqueid": "MTK0312:3SKRO2GZ72Y60JDY9ADMTKIOI9A1KP", "current_trial": 90, "dateTime": 1510702882057, "trialdata": {"rt": -1, "stimulus": "<p id=\"stim\">CLOUD</p>", "key_press": -1, "type": "PRES_VIS", "word": "cloud", "wordID": 327, "conditions": [12, 800, "v", 24000], "trial": 2, "serialpos": 1, "trial_type": "single-stim", "trial_index": 90, "time_elapsed": 648860, "internal_node_id": "0.0-63.0"}}, {"uniqueid": "MTK0312:3SKRO2GZ72Y60JDY9ADMTKIOI9A1KP", "current_trial": 91, "dateTime": 1510702883830, "trialdata": {"rt": -1, "stimulus": "<p id=\"stim\">SERVER</p>", "key_press": -1, "type": "PRES_VIS", "word": "server", "wordID": 1271, "conditions": [12, 800, "v", 24000], "trial": 2, "serialpos": 2, "trial_type": "single-stim", "trial_index": 91, "time_elapsed": 650633, "internal_node_id": "0.0-64.0"}}, {"uniqueid": "MTK0312:3SKRO2GZ72Y60JDY9ADMTKIOI9A1KP", "current_trial": 92, "dateTime": 1510702885797, "trialdata": {"rt": -1, "stimulus": "<p id=\"stim\">SEAFOOD</p>", "key_press": -1, "type": "PRES_VIS", "word": "seafood", "wordID": 1259, "conditions": [12, 800, "v", 24000], "trial": 2, "serialpos": 3, "trial_type": "single-stim", "trial_index": 92, "time_elapsed": 652600, "internal_node_id": "0.0-65.0"}}, {"uniqueid": "MTK0312:3SKRO2GZ72Y60JDY9ADMTKIOI9A1KP", "current_trial": 93, "dateTime": 1510702887790, "trialdata": {"rt": -1, "stimulus": "<p id=\"stim\">LIVER</p>", "key_press": -1, "type": "PRES_VIS", "word": "liver", "wordID": 832, "conditions": [12, 800, "v", 24000], "trial": 2, "serialpos": 4, "trial_type": "single-stim", "trial_index": 93, "time_elapsed": 654593, "internal_node_id": "0.0-66.0"}}, {"uniqueid": "MTK0312:3SKRO2GZ72Y60JDY9ADMTKIOI9A1KP", "current_trial": 94, "dateTime": 1510702889623, "trialdata": {"rt": -1, "stimulus": "<p id=\"stim\">SHOVEL</p>", "key_press": -1, "type": "PRES_VIS", "word": "shovel", "wordID": 1294, "conditions": [12, 800, "v", 24000], "trial": 2, "serialpos": 5, "trial_type": "single-stim", "trial_index": 94, "time_elapsed": 656426, "internal_node_id": "0.0-67.0"}}, {"uniqueid": "MTK0312:3SKRO2GZ72Y60JDY9ADMTKIOI9A1KP", "current_trial": 95, "dateTime": 1510702891259, "trialdata": {"rt": -1, "stimulus": "<p id=\"stim\">CATTLE</p>", "key_press": -1, "type": "PRES_VIS", "word": "cattle", "wordID": 260, "conditions": [12, 800, "v", 24000], "trial": 2, "serialpos": 6, "trial_type": "single-stim", "trial_index": 95, "time_elapsed": 658062, "internal_node_id": "0.0-68.0"}}, {"uniqueid": "MTK0312:3SKRO2GZ72Y60JDY9ADMTKIOI9A1KP", "current_trial": 96, "dateTime": 1510702893019, "trialdata": {"rt": -1, "stimulus": "<p id=\"stim\">SIDEWALK</p>", "key_press": -1, "type": "PRES_VIS", "word": "sidewalk", "wordID": 1302, "conditions": [12, 800, "v", 24000], "trial": 2, "serialpos": 7, "trial_type": "single-stim", "trial_index": 96, "time_elapsed": 659822, "internal_node_id": "0.0-69.0"}}, {"uniqueid": "MTK0312:3SKRO2GZ72Y60JDY9ADMTKIOI9A1KP", "current_trial": 97, "dateTime": 1510702894893, "trialdata": {"rt": -1, "stimulus": "<p id=\"stim\">PROTON</p>", "key_press": -1, "type": "PRES_VIS", "word": "proton", "wordID": 1131, "conditions": [12, 800, "v", 24000], "trial": 2, "serialpos": 8, "trial_type": "single-stim", "trial_index": 97, "time_elapsed": 661696, "internal_node_id": "0.0-70.0"}}, {"uniqueid": "MTK0312:3SKRO2GZ72Y60JDY9ADMTKIOI9A1KP", "current_trial": 98, "dateTime": 1510702896611, "trialdata": {"rt": -1, "stimulus": "<p id=\"stim\">HIKER</p>", "key_press": -1, "type": "PRES_VIS", "word": "hiker", "wordID": 707, "conditions": [12, 800, "v", 24000], "trial": 2, "serialpos": 9, "trial_type": "single-stim", "trial_index": 98, "time_elapsed": 663414, "internal_node_id": "0.0-71.0"}}, {"uniqueid": "MTK0312:3SKRO2GZ72Y60JDY9ADMTKIOI9A1KP", "current_trial": 99, "dateTime": 1510702898360, "trialdata": {"rt": -1, "stimulus": "<p id=\"stim\">CLIMBER</p>", "key_press": -1, "type": "PRES_VIS", "word": "climber", "wordID": 322, "conditions": [12, 800, "v", 24000], "trial": 2, "serialpos": 10, "trial_type": "single-stim", "trial_index": 99, "time_elapsed": 665163, "internal_node_id": "0.0-72.0"}}, {"uniqueid": "MTK0312:3SKRO2GZ72Y60JDY9ADMTKIOI9A1KP", "current_trial": 100, "dateTime": 1510702900277, "trialdata": {"rt": -1, "stimulus": "<p id=\"stim\">MARROW</p>", "key_press": -1, "type": "PRES_VIS", "word": "marrow", "wordID": 871, "conditions": [12, 800, "v", 24000], "trial": 2, "serialpos": 11, "trial_type": "single-stim", "trial_index": 100, "time_elapsed": 667080, "internal_node_id": "0.0-73.0"}}, {"uniqueid": "MTK0312:3SKRO2GZ72Y60JDY9ADMTKIOI9A1KP", "current_trial": 101, "dateTime": 1510702902491, "trialdata": {"rt": -1, "stimulus": "", "key_press": -1, "type": "PRE_RECALL_DELAY", "trial_type": "single-stim", "trial_index": 101, "time_elapsed": 669294, "internal_node_id": "0.0-74.0-0.0"}}, {"uniqueid": "MTK0312:3SKRO2GZ72Y60JDY9ADMTKIOI9A1KP", "current_trial": 102, "dateTime": 1510702902992, "trialdata": {"rt": -1000, "stimulus": "/static/audio/400Hz.wav", "key_press": -1, "type": "PRE_RECALL_ALERT", "trial_type": "single-audio", "trial_index": 102, "time_elapsed": 669795, "internal_node_id": "0.0-75.0"}}, {"uniqueid": "MTK0312:3SKRO2GZ72Y60JDY9ADMTKIOI9A1KP", "current_trial": 103, "dateTime": 1510702962996, "trialdata": {"rt": [2496, 3232, 26026, 27481], "recwords": ["climber", "marrow", "waitress", "seafood"], "type": "FREE_RECALL", "conditions": [12, 800, "v", 24000], "trial": 2, "trial_type": "free-recall", "trial_index": 103, "time_elapsed": 729797, "internal_node_id": "0.0-76.0-0.0"}}, {"uniqueid": "MTK0312:3SKRO2GZ72Y60JDY9ADMTKIOI9A1KP", "current_trial": 104, "dateTime": 1510703474428, "trialdata": {"rt": 509422, "key_press": 32, "type": "INSTRUCTIONS", "trial_type": "text", "trial_index": 104, "time_elapsed": 1241222, "internal_node_id": "0.0-77.0"}}, {"uniqueid": "MTK0312:3SKRO2GZ72Y60JDY9ADMTKIOI9A1KP", "current_trial": 105, "dateTime": 1510703488430, "trialdata": {"rt": [1901, 4145, 5837, 7045, 8453, 11117], "responses": ["11", "9", "12", "19", "9", "12"], "num1": [2, 2, 2, 8, 6, 7, 9], "num2": [7, 3, 6, 9, 2, 3, 4], "num3": [2, 4, 4, 2, 1, 2, 4], "type": "DISTRACTOR", "conditions": [12, 1600, "v", 12000], "trial": 3, "trial_type": "math-distractor", "trial_index": 105, "time_elapsed": 1255233, "internal_node_id": "0.0-78.0"}}, {"uniqueid": "MTK0312:3SKRO2GZ72Y60JDY9ADMTKIOI9A1KP", "current_trial": 106, "dateTime": 1510703491430, "trialdata": {"rt": -1, "stimulus": "<p id=\"stim\">10</p>", "key_press": -1, "trial_type": "single-stim", "trial_index": 106, "time_elapsed": 1258233, "internal_node_id": "0.0-79.0-0.0"}}, {"uniqueid": "MTK0312:3SKRO2GZ72Y60JDY9ADMTKIOI9A1KP", "current_trial": 107, "dateTime": 1510703492431, "trialdata": {"rt": -1, "stimulus": "<p id=\"stim\">9</p>", "key_press": -1, "trial_type": "single-stim", "trial_index": 107, "time_elapsed": 1259234, "internal_node_id": "0.0-79.0-1.0"}}, {"uniqueid": "MTK0312:3SKRO2GZ72Y60JDY9ADMTKIOI9A1KP", "current_trial": 108, "dateTime": 1510703493434, "trialdata": {"rt": -1, "stimulus": "<p id=\"stim\">8</p>", "key_press": -1, "trial_type": "single-stim", "trial_index": 108, "time_elapsed": 1260237, "internal_node_id": "0.0-79.0-2.0"}}, {"uniqueid": "MTK0312:3SKRO2GZ72Y60JDY9ADMTKIOI9A1KP", "current_trial": 109, "dateTime": 1510703494435, "trialdata": {"rt": -1, "stimulus": "<p id=\"stim\">7</p>", "key_press": -1, "trial_type": "single-stim", "trial_index": 109, "time_elapsed": 1261238, "internal_node_id": "0.0-79.0-3.0"}}, {"uniqueid": "MTK0312:3SKRO2GZ72Y60JDY9ADMTKIOI9A1KP", "current_trial": 110, "dateTime": 1510703495435, "trialdata": {"rt": -1, "stimulus": "<p id=\"stim\">6</p>", "key_press": -1, "trial_type": "single-stim", "trial_index": 110, "time_elapsed": 1262238, "internal_node_id": "0.0-79.0-4.0"}}, {"uniqueid": "MTK0312:3SKRO2GZ72Y60JDY9ADMTKIOI9A1KP", "current_trial": 111, "dateTime": 1510703496435, "trialdata": {"rt": -1, "stimulus": "<p id=\"stim\">5</p>", "key_press": -1, "trial_type": "single-stim", "trial_index": 111, "time_elapsed": 1263238, "internal_node_id": "0.0-79.0-5.0"}}, {"uniqueid": "MTK0312:3SKRO2GZ72Y60JDY9ADMTKIOI9A1KP", "current_trial": 112, "dateTime": 1510703497436, "trialdata": {"rt": -1, "stimulus": "<p id=\"stim\">4</p>", "key_press": -1, "trial_type": "single-stim", "trial_index": 112, "time_elapsed": 1264239, "internal_node_id": "0.0-79.0-6.0"}}, {"uniqueid": "MTK0312:3SKRO2GZ72Y60JDY9ADMTKIOI9A1KP", "current_trial": 113, "dateTime": 1510703498436, "trialdata": {"rt": -1, "stimulus": "<p id=\"stim\">3</p>", "key_press": -1, "trial_type": "single-stim", "trial_index": 113, "time_elapsed": 1265239, "internal_node_id": "0.0-79.0-7.0"}}, {"uniqueid": "MTK0312:3SKRO2GZ72Y60JDY9ADMTKIOI9A1KP", "current_trial": 114, "dateTime": 1510703499438, "trialdata": {"rt": -1, "stimulus": "<p id=\"stim\">2</p>", "key_press": -1, "trial_type": "single-stim", "trial_index": 114, "time_elapsed": 1266241, "internal_node_id": "0.0-79.0-8.0"}}, {"uniqueid": "MTK0312:3SKRO2GZ72Y60JDY9ADMTKIOI9A1KP", "current_trial": 115, "dateTime": 1510703500439, "trialdata": {"rt": -1, "stimulus": "<p id=\"stim\">1</p>", "key_press": -1, "trial_type": "single-stim", "trial_index": 115, "time_elapsed": 1267242, "internal_node_id": "0.0-79.0-9.0"}}, {"uniqueid": "MTK0312:3SKRO2GZ72Y60JDY9ADMTKIOI9A1KP", "current_trial": 116, "dateTime": 1510703501940, "trialdata": {"rt": -1, "stimulus": "<p id=\"stim\">+</p>", "key_press": -1, "type": "FIXATION", "trial_type": "single-stim", "trial_index": 116, "time_elapsed": 1268743, "internal_node_id": "0.0-80.0-0.0"}}, {"uniqueid": "MTK0312:3SKRO2GZ72Y60JDY9ADMTKIOI9A1KP", "current_trial": 117, "dateTime": 1510703503540, "trialdata": {"rt": -1, "stimulus": "<p id=\"stim\">TYPIST</p>", "key_press": -1, "type": "PRES_VIS", "word": "typist", "wordID": 1531, "conditions": [12, 1600, "v", 12000], "trial": 3, "serialpos": 0, "trial_type": "single-stim", "trial_index": 117, "time_elapsed": 1270343, "internal_node_id": "0.0-81.0"}}, {"uniqueid": "MTK0312:3SKRO2GZ72Y60JDY9ADMTKIOI9A1KP", "current_trial": 118, "dateTime": 1510703506240, "trialdata": {"rt": -1, "stimulus": "<p id=\"stim\">SWITCH</p>", "key_press": -1, "type": "PRES_VIS", "word": "switch", "wordID": 1421, "conditions": [12, 1600, "v", 12000], "trial": 3, "serialpos": 1, "trial_type": "single-stim", "trial_index": 118, "time_elapsed": 1273043, "internal_node_id": "0.0-82.0"}}, {"uniqueid": "MTK0312:3SKRO2GZ72Y60JDY9ADMTKIOI9A1KP", "current_trial": 119, "dateTime": 1510703509029, "trialdata": {"rt": -1, "stimulus": "<p id=\"stim\">SHIRT</p>", "key_press": -1, "type": "PRES_VIS", "word": "shirt", "wordID": 1286, "conditions": [12, 1600, "v", 12000], "trial": 3, "serialpos": 2, "trial_type": "single-stim", "trial_index": 119, "time_elapsed": 1275832, "internal_node_id": "0.0-83.0"}}, {"uniqueid": "MTK0312:3SKRO2GZ72Y60JDY9ADMTKIOI9A1KP", "current_trial": 120, "dateTime": 1510703511817, "trialdata": {"rt": -1, "stimulus": "<p id=\"stim\">KNAPSACK</p>", "key_press": -1, "type": "PRES_VIS", "word": "knapsack", "wordID": 782, "conditions": [12, 1600, "v", 12000], "trial": 3, "serialpos": 3, "trial_type": "single-stim", "trial_index": 120, "time_elapsed": 1278620, "internal_node_id": "0.0-84.0"}}, {"uniqueid": "MTK0312:3SKRO2GZ72Y60JDY9ADMTKIOI9A1KP", "current_trial": 121, "dateTime": 1510703514418, "trialdata": {"rt": -1, "stimulus": "<p id=\"stim\">OUTFIT</p>", "key_press": -1, "type": "PRES_VIS", "word": "outfit", "wordID": 987, "conditions": [12, 1600, "v", 12000], "trial": 3, "serialpos": 4, "trial_type": "single-stim", "trial_index": 121, "time_elapsed": 1281221, "internal_node_id": "0.0-85.0"}}, {"uniqueid": "MTK0312:3SKRO2GZ72Y60JDY9ADMTKIOI9A1KP", "current_trial": 122, "dateTime": 1510703517062, "trialdata": {"rt": -1, "stimulus": "<p id=\"stim\">GYMNAST</p>", "key_press": -1, "type": "PRES_VIS", "word": "gymnast", "wordID": 674, "conditions": [12, 1600, "v", 12000], "trial": 3, "serialpos": 5, "trial_type": "single-stim", "trial_index": 122, "time_elapsed": 1283865, "internal_node_id": "0.0-86.0"}}, {"uniqueid": "MTK0312:3SKRO2GZ72Y60JDY9ADMTKIOI9A1KP", "current_trial": 123, "dateTime": 1510703519613, "trialdata": {"rt": -1, "stimulus": "<p id=\"stim\">MONSTER</p>", "key_press": -1, "type": "PRES_VIS", "word": "monster", "wordID": 911, "conditions": [12, 1600, "v", 12000], "trial": 3, "serialpos": 6, "trial_type": "single-stim", "trial_index": 123, "time_elapsed": 1286416, "internal_node_id": "0.0-87.0"}}, {"uniqueid": "MTK0312:3SKRO2GZ72Y60JDY9ADMTKIOI9A1KP", "current_trial": 124, "dateTime": 1510703522276, "trialdata": {"rt": -1, "stimulus": "<p id=\"stim\">HEADBAND</p>", "key_press": -1, "type": "PRES_VIS", "word": "headband", "wordID": 695, "conditions": [12, 1600, "v", 12000], "trial": 3, "serialpos": 7, "trial_type": "single-stim", "trial_index": 124, "time_elapsed": 1289079, "internal_node_id": "0.0-88.0"}}, {"uniqueid": "MTK0312:3SKRO2GZ72Y60JDY9ADMTKIOI9A1KP", "current_trial": 125, "dateTime": 1510703524697, "trialdata": {"rt": -1, "stimulus": "<p id=\"stim\">CLAMP</p>", "key_press": -1, "type": "PRES_VIS", "word": "clamp", "wordID": 315, "conditions": [12, 1600, "v", 12000], "trial": 3, "serialpos": 8, "trial_type": "single-stim", "trial_index": 125, "time_elapsed": 1291500, "internal_node_id": "0.0-89.0"}}, {"uniqueid": "MTK0312:3SKRO2GZ72Y60JDY9ADMTKIOI9A1KP", "current_trial": 126, "dateTime": 1510703527203, "trialdata": {"rt": -1, "stimulus": "<p id=\"stim\">PUDDLE</p>", "key_press": -1, "type": "PRES_VIS", "word": "puddle", "wordID": 1139, "conditions": [12, 1600, "v", 12000], "trial": 3, "serialpos": 9, "trial_type": "single-stim", "trial_index": 126, "time_elapsed": 1294006, "internal_node_id": "0.0-90.0"}}, {"uniqueid": "MTK0312:3SKRO2GZ72Y60JDY9ADMTKIOI9A1KP", "current_trial": 127, "dateTime": 1510703529958, "trialdata": {"rt": -1, "stimulus": "<p id=\"stim\">APPLE</p>", "key_press": -1, "type": "PRES_VIS", "word": "apple", "wordID": 32, "conditions": [12, 1600, "v", 12000], "trial": 3, "serialpos": 10, "trial_type": "single-stim", "trial_index": 127, "time_elapsed": 1296761, "internal_node_id": "0.0-91.0"}}, {"uniqueid": "MTK0312:3SKRO2GZ72Y60JDY9ADMTKIOI9A1KP", "current_trial": 128, "dateTime": 1510703532492, "trialdata": {"rt": -1, "stimulus": "<p id=\"stim\">GRAPE</p>", "key_press": -1, "type": "PRES_VIS", "word": "grape", "wordID": 653, "conditions": [12, 1600, "v", 12000], "trial": 3, "serialpos": 11, "trial_type": "single-stim", "trial_index": 128, "time_elapsed": 1299295, "internal_node_id": "0.0-92.0"}}, {"uniqueid": "MTK0312:3SKRO2GZ72Y60JDY9ADMTKIOI9A1KP", "current_trial": 129, "dateTime": 1510703534677, "trialdata": {"rt": -1, "stimulus": "", "key_press": -1, "type": "PRE_RECALL_DELAY", "trial_type": "single-stim", "trial_index": 129, "time_elapsed": 1301480, "internal_node_id": "0.0-93.0-0.0"}}, {"uniqueid": "MTK0312:3SKRO2GZ72Y60JDY9ADMTKIOI9A1KP", "current_trial": 130, "dateTime": 1510703535178, "trialdata": {"rt": -1000, "stimulus": "/static/audio/400Hz.wav", "key_press": -1, "type": "PRE_RECALL_ALERT", "trial_type": "single-audio", "trial_index": 130, "time_elapsed": 1301981, "internal_node_id": "0.0-94.0"}}, {"uniqueid": "MTK0312:3SKRO2GZ72Y60JDY9ADMTKIOI9A1KP", "current_trial": 131, "dateTime": 1510703595182, "trialdata": {"rt": [3599, 4343, 5023, 5919, 6775, 14103, 15863], "recwords": ["puddle", "apple", "grape", "shirt", "switch", "clothing", "gymnast"], "type": "FREE_RECALL", "conditions": [12, 1600, "v", 12000], "trial": 3, "trial_type": "free-recall", "trial_index": 131, "time_elapsed": 1361983, "internal_node_id": "0.0-95.0-0.0"}}, {"uniqueid": "MTK0312:3SKRO2GZ72Y60JDY9ADMTKIOI9A1KP", "current_trial": 132, "dateTime": 1510703598395, "trialdata": {"rt": 1212, "key_press": 32, "type": "INSTRUCTIONS", "trial_type": "text", "trial_index": 132, "time_elapsed": 1365198, "internal_node_id": "0.0-96.0"}}, {"uniqueid": "MTK0312:3SKRO2GZ72Y60JDY9ADMTKIOI9A1KP", "current_trial": 133, "dateTime": 1510703624397, "trialdata": {"rt": [3589, 6221, 7813, 9229, 10541, 13326, 14781, 16021, 17438, 19309, 21357, 23175], "responses": ["15", "20", "16", "17", "11", "20", "21", "15", "13", "17", "19", "19"], "num1": [4, 5, 8, 5, 1, 8, 5, 8, 7, 3, 1, 7, 8], "num2": [5, 6, 1, 4, 4, 7, 8, 6, 5, 6, 9, 7, 2], "num3": [6, 9, 7, 8, 6, 5, 8, 1, 1, 8, 9, 5, 5], "type": "DISTRACTOR", "conditions": [12, 800, "a", 24000], "trial": 4, "trial_type": "math-distractor", "trial_index": 133, "time_elapsed": 1391200, "internal_node_id": "0.0-97.0"}}, {"uniqueid": "MTK0312:3SKRO2GZ72Y60JDY9ADMTKIOI9A1KP", "current_trial": 134, "dateTime": 1510703627398, "trialdata": {"rt": -1, "stimulus": "<p id=\"stim\">10</p>", "key_press": -1, "trial_type": "single-stim", "trial_index": 134, "time_elapsed": 1394201, "internal_node_id": "0.0-98.0-0.0"}}, {"uniqueid": "MTK0312:3SKRO2GZ72Y60JDY9ADMTKIOI9A1KP", "current_trial": 135, "dateTime": 1510703628399, "trialdata": {"rt": -1, "stimulus": "<p id=\"stim\">9</p>", "key_press": -1, "trial_type": "single-stim", "trial_index": 135, "time_elapsed": 1395202, "internal_node_id": "0.0-98.0-1.0"}}, {"uniqueid": "MTK0312:3SKRO2GZ72Y60JDY9ADMTKIOI9A1KP", "current_trial": 136, "dateTime": 1510703629400, "trialdata": {"rt": -1, "stimulus": "<p id=\"stim\">8</p>", "key_press": -1, "trial_type": "single-stim", "trial_index": 136, "time_elapsed": 1396203, "internal_node_id": "0.0-98.0-2.0"}}, {"uniqueid": "MTK0312:3SKRO2GZ72Y60JDY9ADMTKIOI9A1KP", "current_trial": 137, "dateTime": 1510703630400, "trialdata": {"rt": -1, "stimulus": "<p id=\"stim\">7</p>", "key_press": -1, "trial_type": "single-stim", "trial_index": 137, "time_elapsed": 1397203, "internal_node_id": "0.0-98.0-3.0"}}, {"uniqueid": "MTK0312:3SKRO2GZ72Y60JDY9ADMTKIOI9A1KP", "current_trial": 138, "dateTime": 1510703631402, "trialdata": {"rt": -1, "stimulus": "<p id=\"stim\">6</p>", "key_press": -1, "trial_type": "single-stim", "trial_index": 138, "time_elapsed": 1398205, "internal_node_id": "0.0-98.0-4.0"}}, {"uniqueid": "MTK0312:3SKRO2GZ72Y60JDY9ADMTKIOI9A1KP", "current_trial": 139, "dateTime": 1510703632402, "trialdata": {"rt": -1, "stimulus": "<p id=\"stim\">5</p>", "key_press": -1, "trial_type": "single-stim", "trial_index": 139, "time_elapsed": 1399205, "internal_node_id": "0.0-98.0-5.0"}}, {"uniqueid": "MTK0312:3SKRO2GZ72Y60JDY9ADMTKIOI9A1KP", "current_trial": 140, "dateTime": 1510703633404, "trialdata": {"rt": -1, "stimulus": "<p id=\"stim\">4</p>", "key_press": -1, "trial_type": "single-stim", "trial_index": 140, "time_elapsed": 1400207, "internal_node_id": "0.0-98.0-6.0"}}, {"uniqueid": "MTK0312:3SKRO2GZ72Y60JDY9ADMTKIOI9A1KP", "current_trial": 141, "dateTime": 1510703634404, "trialdata": {"rt": -1, "stimulus": "<p id=\"stim\">3</p>", "key_press": -1, "trial_type": "single-stim", "trial_index": 141, "time_elapsed": 1401207, "internal_node_id": "0.0-98.0-7.0"}}, {"uniqueid": "MTK0312:3SKRO2GZ72Y60JDY9ADMTKIOI9A1KP", "current_trial": 142, "dateTime": 1510703635406, "trialdata": {"rt": -1, "stimulus": "<p id=\"stim\">2</p>", "key_press": -1, "trial_type": "single-stim", "trial_index": 142, "time_elapsed": 1402209, "internal_node_id": "0.0-98.0-8.0"}}, {"uniqueid": "MTK0312:3SKRO2GZ72Y60JDY9ADMTKIOI9A1KP", "current_trial": 143, "dateTime": 1510703636406, "trialdata": {"rt": -1, "stimulus": "<p id=\"stim\">1</p>", "key_press": -1, "trial_type": "single-stim", "trial_index": 143, "time_elapsed": 1403209, "internal_node_id": "0.0-98.0-9.0"}}, {"uniqueid": "MTK0312:3SKRO2GZ72Y60JDY9ADMTKIOI9A1KP", "current_trial": 144, "dateTime": 1510703637906, "trialdata": {"rt": -1, "stimulus": "<p id=\"stim\">+</p>", "key_press": -1, "type": "FIXATION", "trial_type": "single-stim", "trial_index": 144, "time_elapsed": 1404709, "internal_node_id": "0.0-99.0-0.0"}}, {"uniqueid": "MTK0312:3SKRO2GZ72Y60JDY9ADMTKIOI9A1KP", "current_trial": 145, "dateTime": 1510703639694, "trialdata": {"rt": -1000, "stimulus": "/static/audio/wordpool/WASP.wav", "key_press": -1, "type": "PRES_AUD", "word": "wasp", "wordID": 1592, "conditions": [12, 800, "a", 24000], "trial": 4, "serialpos": 0, "trial_type": "single-audio", "trial_index": 145, "time_elapsed": 1406497, "internal_node_id": "0.0-100.0"}}, {"uniqueid": "MTK0312:3SKRO2GZ72Y60JDY9ADMTKIOI9A1KP", "current_trial": 146, "dateTime": 1510703641601, "trialdata": {"rt": -1000, "stimulus": "/static/audio/wordpool/VALLEY.wav", "key_press": -1, "type": "PRES_AUD", "word": "valley", "wordID": 1544, "conditions": [12, 800, "a", 24000], "trial": 4, "serialpos": 1, "trial_type": "single-audio", "trial_index": 146, "time_elapsed": 1408404, "internal_node_id": "0.0-101.0"}}, {"uniqueid": "MTK0312:3SKRO2GZ72Y60JDY9ADMTKIOI9A1KP", "current_trial": 147, "dateTime": 1510703643561, "trialdata": {"rt": -1000, "stimulus": "/static/audio/wordpool/FIREPLACE.wav", "key_press": -1, "type": "PRES_AUD", "word": "fireplace", "wordID": 569, "conditions": [12, 800, "a", 24000], "trial": 4, "serialpos": 2, "trial_type": "single-audio", "trial_index": 147, "time_elapsed": 1410364, "internal_node_id": "0.0-102.0"}}, {"uniqueid": "MTK0312:3SKRO2GZ72Y60JDY9ADMTKIOI9A1KP", "current_trial": 148, "dateTime": 1510703645309, "trialdata": {"rt": -1000, "stimulus": "/static/audio/wordpool/COBRA.wav", "key_press": -1, "type": "PRES_AUD", "word": "cobra", "wordID": 335, "conditions": [12, 800, "a", 24000], "trial": 4, "serialpos": 3, "trial_type": "single-audio", "trial_index": 148, "time_elapsed": 1412111, "internal_node_id": "0.0-103.0"}}, {"uniqueid": "MTK0312:3SKRO2GZ72Y60JDY9ADMTKIOI9A1KP", "current_trial": 149, "dateTime": 1510703647089, "trialdata": {"rt": -1000, "stimulus": "/static/audio/wordpool/POISON.wav", "key_press": -1, "type": "PRES_AUD", "word": "poison", "wordID": 1095, "conditions": [12, 800, "a", 24000], "trial": 4, "serialpos": 4, "trial_type": "single-audio", "trial_index": 149, "time_elapsed": 1413892, "internal_node_id": "0.0-104.0"}}, {"uniqueid": "MTK0312:3SKRO2GZ72Y60JDY9ADMTKIOI9A1KP", "current_trial": 150, "dateTime": 1510703648765, "trialdata": {"rt": -1000, "stimulus": "/static/audio/wordpool/THIEF.wav", "key_press": -1, "type": "PRES_AUD", "word": "thief", "wordID": 1455, "conditions": [12, 800, "a", 24000], "trial": 4, "serialpos": 5, "trial_type": "single-audio", "trial_index": 150, "time_elapsed": 1415568, "internal_node_id": "0.0-105.0"}}, {"uniqueid": "MTK0312:3SKRO2GZ72Y60JDY9ADMTKIOI9A1KP", "current_trial": 151, "dateTime": 1510703650404, "trialdata": {"rt": -1000, "stimulus": "/static/audio/wordpool/BURGLAR.wav", "key_press": -1, "type": "PRES_AUD", "word": "burglar", "wordID": 199, "conditions": [12, 800, "a", 24000], "trial": 4, "serialpos": 6, "trial_type": "single-audio", "trial_index": 151, "time_elapsed": 1417207, "internal_node_id": "0.0-106.0"}}, {"uniqueid": "MTK0312:3SKRO2GZ72Y60JDY9ADMTKIOI9A1KP", "current_trial": 152, "dateTime": 1510703652085, "trialdata": {"rt": -1000, "stimulus": "/static/audio/wordpool/STOVE.wav", "key_press": -1, "type": "PRES_AUD", "word": "stove", "wordID": 1387, "conditions": [12, 800, "a", 24000], "trial": 4, "serialpos": 7, "trial_type": "single-audio", "trial_index": 152, "time_elapsed": 1418888, "internal_node_id": "0.0-107.0"}}, {"uniqueid": "MTK0312:3SKRO2GZ72Y60JDY9ADMTKIOI9A1KP", "current_trial": 153, "dateTime": 1510703653928, "trialdata": {"rt": -1000, "stimulus": "/static/audio/wordpool/REPORT.wav", "key_press": -1, "type": "PRES_AUD", "word": "report", "wordID": 1183, "conditions": [12, 800, "a", 24000], "trial": 4, "serialpos": 8, "trial_type": "single-audio", "trial_index": 153, "time_elapsed": 1420731, "internal_node_id": "0.0-108.0"}}, {"uniqueid": "MTK0312:3SKRO2GZ72Y60JDY9ADMTKIOI9A1KP", "current_trial": 154, "dateTime": 1510703655792, "trialdata": {"rt": -1000, "stimulus": "/static/audio/wordpool/FRIEND.wav", "key_press": -1, "type": "PRES_AUD", "word": "friend", "wordID": 605, "conditions": [12, 800, "a", 24000], "trial": 4, "serialpos": 9, "trial_type": "single-audio", "trial_index": 154, "time_elapsed": 1422595, "internal_node_id": "0.0-109.0"}}, {"uniqueid": "MTK0312:3SKRO2GZ72Y60JDY9ADMTKIOI9A1KP", "current_trial": 155, "dateTime": 1510703657715, "trialdata": {"rt": -1000, "stimulus": "/static/audio/wordpool/ROBOT.wav", "key_press": -1, "type": "PRES_AUD", "word": "robot", "wordID": 1199, "conditions": [12, 800, "a", 24000], "trial": 4, "serialpos": 10, "trial_type": "single-audio", "trial_index": 155, "time_elapsed": 1424514, "internal_node_id": "0.0-110.0"}}, {"uniqueid": "MTK0312:3SKRO2GZ72Y60JDY9ADMTKIOI9A1KP", "current_trial": 156, "dateTime": 1510703659692, "trialdata": {"rt": -1000, "stimulus": "/static/audio/wordpool/LADY.wav", "key_press": -1, "type": "PRES_AUD", "word": "lady", "wordID": 793, "conditions": [12, 800, "a", 24000], "trial": 4, "serialpos": 11, "trial_type": "single-audio", "trial_index": 156, "time_elapsed": 1426495, "internal_node_id": "0.0-111.0"}}, {"uniqueid": "MTK0312:3SKRO2GZ72Y60JDY9ADMTKIOI9A1KP", "current_trial": 157, "dateTime": 1510703661062, "trialdata": {"rt": -1, "stimulus": "", "key_press": -1, "type": "PRE_RECALL_DELAY", "trial_type": "single-stim", "trial_index": 157, "time_elapsed": 1427865, "internal_node_id": "0.0-112.0-0.0"}}, {"uniqueid": "MTK0312:3SKRO2GZ72Y60JDY9ADMTKIOI9A1KP", "current_trial": 158, "dateTime": 1510703661563, "trialdata": {"rt": -1000, "stimulus": "/static/audio/400Hz.wav", "key_press": -1, "type": "PRE_RECALL_ALERT", "trial_type": "single-audio", "trial_index": 158, "time_elapsed": 1428366, "internal_node_id": "0.0-113.0"}}, {"uniqueid": "MTK0312:3SKRO2GZ72Y60JDY9ADMTKIOI9A1KP", "current_trial": 159, "dateTime": 1510703721566, "trialdata": {"rt": [3319, 4134, 5495, 6950, 7934], "recwords": ["lady", "thief", "burglar", "poison", "cobra"], "type": "FREE_RECALL", "conditions": [12, 800, "a", 24000], "trial": 4, "trial_type": "free-recall", "trial_index": 159, "time_elapsed": 1488367, "internal_node_id": "0.0-114.0-0.0"}}, {"uniqueid": "MTK0312:3SKRO2GZ72Y60JDY9ADMTKIOI9A1KP", "current_trial": 160, "dateTime": 1510704072547, "trialdata": {"rt": 348979, "key_press": 32, "type": "INSTRUCTIONS", "trial_type": "text", "trial_index": 160, "time_elapsed": 1839350, "internal_node_id": "0.0-115.0"}}, {"uniqueid": "MTK0312:3SKRO2GZ72Y60JDY9ADMTKIOI9A1KP", "current_trial": 161, "dateTime": 1510704086549, "trialdata": {"rt": [3087, 4414, 5870, 7334, 8566, 9934, 11511], "responses": ["18", "18", "22", "12", "14", "16", "22"], "num1": [3, 9, 9, 7, 1, 8, 7, 3], "num2": [8, 4, 7, 4, 8, 4, 8, 9], "num3": [7, 5, 6, 1, 5, 4, 7, 7], "type": "DISTRACTOR", "conditions": [24, 1600, "a", 12000], "trial": 5, "trial_type": "math-distractor", "trial_index": 161, "time_elapsed": 1853352, "internal_node_id": "0.0-116.0"}}, {"uniqueid": "MTK0312:3SKRO2GZ72Y60JDY9ADMTKIOI9A1KP", "current_trial": 162, "dateTime": 1510704089550, "trialdata": {"rt": -1, "stimulus": "<p id=\"stim\">10</p>", "key_press": -1, "trial_type": "single-stim", "trial_index": 162, "time_elapsed": 1856353, "internal_node_id": "0.0-117.0-0.0"}}, {"uniqueid": "MTK0312:3SKRO2GZ72Y60JDY9ADMTKIOI9A1KP", "current_trial": 163, "dateTime": 1510704090551, "trialdata": {"rt": -1, "stimulus": "<p id=\"stim\">9</p>", "key_press": -1, "trial_type": "single-stim", "trial_index": 163, "time_elapsed": 1857354, "internal_node_id": "0.0-117.0-1.0"}}, {"uniqueid": "MTK0312:3SKRO2GZ72Y60JDY9ADMTKIOI9A1KP", "current_trial": 164, "dateTime": 1510704091551, "trialdata": {"rt": -1, "stimulus": "<p id=\"stim\">8</p>", "key_press": -1, "trial_type": "single-stim", "trial_index": 164, "time_elapsed": 1858354, "internal_node_id": "0.0-117.0-2.0"}}, {"uniqueid": "MTK0312:3SKRO2GZ72Y60JDY9ADMTKIOI9A1KP", "current_trial": 165, "dateTime": 1510704092552, "trialdata": {"rt": -1, "stimulus": "<p id=\"stim\">7</p>", "key_press": -1, "trial_type": "single-stim", "trial_index": 165, "time_elapsed": 1859355, "internal_node_id": "0.0-117.0-3.0"}}, {"uniqueid": "MTK0312:3SKRO2GZ72Y60JDY9ADMTKIOI9A1KP", "current_trial": 166, "dateTime": 1510704093554, "trialdata": {"rt": -1, "stimulus": "<p id=\"stim\">6</p>", "key_press": -1, "trial_type": "single-stim", "trial_index": 166, "time_elapsed": 1860357, "internal_node_id": "0.0-117.0-4.0"}}, {"uniqueid": "MTK0312:3SKRO2GZ72Y60JDY9ADMTKIOI9A1KP", "current_trial": 167, "dateTime": 1510704094555, "trialdata": {"rt": -1, "stimulus": "<p id=\"stim\">5</p>", "key_press": -1, "trial_type": "single-stim", "trial_index": 167, "time_elapsed": 1861357, "internal_node_id": "0.0-117.0-5.0"}}, {"uniqueid": "MTK0312:3SKRO2GZ72Y60JDY9ADMTKIOI9A1KP", "current_trial": 168, "dateTime": 1510704095555, "trialdata": {"rt": -1, "stimulus": "<p id=\"stim\">4</p>", "key_press": -1, "trial_type": "single-stim", "trial_index": 168, "time_elapsed": 1862358, "internal_node_id": "0.0-117.0-6.0"}}, {"uniqueid": "MTK0312:3SKRO2GZ72Y60JDY9ADMTKIOI9A1KP", "current_trial": 169, "dateTime": 1510704096555, "trialdata": {"rt": -1, "stimulus": "<p id=\"stim\">3</p>", "key_press": -1, "trial_type": "single-stim", "trial_index": 169, "time_elapsed": 1863358, "internal_node_id": "0.0-117.0-7.0"}}, {"uniqueid": "MTK0312:3SKRO2GZ72Y60JDY9ADMTKIOI9A1KP", "current_trial": 170, "dateTime": 1510704097556, "trialdata": {"rt": -1, "stimulus": "<p id=\"stim\">2</p>", "key_press": -1, "trial_type": "single-stim", "trial_index": 170, "time_elapsed": 1864359, "internal_node_id": "0.0-117.0-8.0"}}, {"uniqueid": "MTK0312:3SKRO2GZ72Y60JDY9ADMTKIOI9A1KP", "current_trial": 171, "dateTime": 1510704098556, "trialdata": {"rt": -1, "stimulus": "<p id=\"stim\">1</p>", "key_press": -1, "trial_type": "single-stim", "trial_index": 171, "time_elapsed": 1865359, "internal_node_id": "0.0-117.0-9.0"}}, {"uniqueid": "MTK0312:3SKRO2GZ72Y60JDY9ADMTKIOI9A1KP", "current_trial": 172, "dateTime": 1510704100056, "trialdata": {"rt": -1, "stimulus": "<p id=\"stim\">+</p>", "key_press": -1, "type": "FIXATION", "trial_type": "single-stim", "trial_index": 172, "time_elapsed": 1866859, "internal_node_id": "0.0-118.0-0.0"}}, {"uniqueid": "MTK0312:3SKRO2GZ72Y60JDY9ADMTKIOI9A1KP", "current_trial": 173, "dateTime": 1510704102531, "trialdata": {"rt": -1000, "stimulus": "/static/audio/wordpool/PIGEON.wav", "key_press": -1, "type": "PRES_AUD", "word": "pigeon", "wordID": 1064, "conditions": [24, 1600, "a", 12000], "trial": 5, "serialpos": 0, "trial_type": "single-audio", "trial_index": 173, "time_elapsed": 1869334, "internal_node_id": "0.0-119.0"}}, {"uniqueid": "MTK0312:3SKRO2GZ72Y60JDY9ADMTKIOI9A1KP", "current_trial": 174, "dateTime": 1510704105061, "trialdata": {"rt": -1000, "stimulus": "/static/audio/wordpool/GARLIC.wav", "key_press": -1, "type": "PRES_AUD", "word": "garlic", "wordID": 623, "conditions": [24, 1600, "a", 12000], "trial": 5, "serialpos": 1, "trial_type": "single-audio", "trial_index": 174, "time_elapsed": 1871864, "internal_node_id": "0.0-120.0"}}, {"uniqueid": "MTK0312:3SKRO2GZ72Y60JDY9ADMTKIOI9A1KP", "current_trial": 175, "dateTime": 1510704107759, "trialdata": {"rt": -1000, "stimulus": "/static/audio/wordpool/RACKET.wav", "key_press": -1, "type": "PRES_AUD", "word": "racket", "wordID": 1154, "conditions": [24, 1600, "a", 12000], "trial": 5, "serialpos": 2, "trial_type": "single-audio", "trial_index": 175, "time_elapsed": 1874562, "internal_node_id": "0.0-121.0"}}, {"uniqueid": "MTK0312:3SKRO2GZ72Y60JDY9ADMTKIOI9A1KP", "current_trial": 176, "dateTime": 1510704110383, "trialdata": {"rt": -1000, "stimulus": "/static/audio/wordpool/BLADE.wav", "key_press": -1, "type": "PRES_AUD", "word": "blade", "wordID": 133, "conditions": [24, 1600, "a", 12000], "trial": 5, "serialpos": 3, "trial_type": "single-audio", "trial_index": 176, "time_elapsed": 1877186, "internal_node_id": "0.0-122.0"}}, {"uniqueid": "MTK0312:3SKRO2GZ72Y60JDY9ADMTKIOI9A1KP", "current_trial": 177, "dateTime": 1510704112838, "trialdata": {"rt": -1000, "stimulus": "/static/audio/wordpool/PARROT.wav", "key_press": -1, "type": "PRES_AUD", "word": "parrot", "wordID": 1014, "conditions": [24, 1600, "a", 12000], "trial": 5, "serialpos": 4, "trial_type": "single-audio", "trial_index": 177, "time_elapsed": 1879641, "internal_node_id": "0.0-123.0"}}, {"uniqueid": "MTK0312:3SKRO2GZ72Y60JDY9ADMTKIOI9A1KP", "current_trial": 178, "dateTime": 1510704115596, "trialdata": {"rt": -1000, "stimulus": "/static/audio/wordpool/LIZARD.wav", "key_press": -1, "type": "PRES_AUD", "word": "lizard", "wordID": 833, "conditions": [24, 1600, "a", 12000], "trial": 5, "serialpos": 5, "trial_type": "single-audio", "trial_index": 178, "time_elapsed": 1882399, "internal_node_id": "0.0-124.0"}}, {"uniqueid": "MTK0312:3SKRO2GZ72Y60JDY9ADMTKIOI9A1KP", "current_trial": 179, "dateTime": 1510704118268, "trialdata": {"rt": -1000, "stimulus": "/static/audio/wordpool/BLENDER.wav", "key_press": -1, "type": "PRES_AUD", "word": "blender", "wordID": 135, "conditions": [24, 1600, "a", 12000], "trial": 5, "serialpos": 6, "trial_type": "single-audio", "trial_index": 179, "time_elapsed": 1885071, "internal_node_id": "0.0-125.0"}}, {"uniqueid": "MTK0312:3SKRO2GZ72Y60JDY9ADMTKIOI9A1KP", "current_trial": 180, "dateTime": 1510704120833, "trialdata": {"rt": -1000, "stimulus": "/static/audio/wordpool/BREAST.wav", "key_press": -1, "type": "PRES_AUD", "word": "breast", "wordID": 170, "conditions": [24, 1600, "a", 12000], "trial": 5, "serialpos": 7, "trial_type": "single-audio", "trial_index": 180, "time_elapsed": 1887636, "internal_node_id": "0.0-126.0"}}, {"uniqueid": "MTK0312:3SKRO2GZ72Y60JDY9ADMTKIOI9A1KP", "current_trial": 181, "dateTime": 1510704123335, "trialdata": {"rt": -1000, "stimulus": "/static/audio/wordpool/DORM.wav", "key_press": -1, "type": "PRES_AUD", "word": "dorm", "wordID": 487, "conditions": [24, 1600, "a", 12000], "trial": 5, "serialpos": 8, "trial_type": "single-audio", "trial_index": 181, "time_elapsed": 1890138, "internal_node_id": "0.0-127.0"}}, {"uniqueid": "MTK0312:3SKRO2GZ72Y60JDY9ADMTKIOI9A1KP", "current_trial": 182, "dateTime": 1510704125836, "trialdata": {"rt": -1000, "stimulus": "/static/audio/wordpool/SKILLET.wav", "key_press": -1, "type": "PRES_AUD", "word": "skillet", "wordID": 1316, "conditions": [24, 1600, "a", 12000], "trial": 5, "serialpos": 9, "trial_type": "single-audio", "trial_index": 182, "time_elapsed": 1892639, "internal_node_id": "0.0-128.0"}}, {"uniqueid": "MTK0312:3SKRO2GZ72Y60JDY9ADMTKIOI9A1KP", "current_trial": 183, "dateTime": 1510704128462, "trialdata": {"rt": -1000, "stimulus": "/static/audio/wordpool/RADISH.wav", "key_press": -1, "type": "PRES_AUD", "word": "radish", "wordID": 1157, "conditions": [24, 1600, "a", 12000], "trial": 5, "serialpos": 10, "trial_type": "single-audio", "trial_index": 183, "time_elapsed": 1895265, "internal_node_id": "0.0-129.0"}}, {"uniqueid": "MTK0312:3SKRO2GZ72Y60JDY9ADMTKIOI9A1KP", "current_trial": 184, "dateTime": 1510704131247, "trialdata": {"rt": -1000, "stimulus": "/static/audio/wordpool/BOYFRIEND.wav", "key_press": -1, "type": "PRES_AUD", "word": "boyfriend", "wordID": 161, "conditions": [24, 1600, "a", 12000], "trial": 5, "serialpos": 11, "trial_type": "single-audio", "trial_index": 184, "time_elapsed": 1898050, "internal_node_id": "0.0-130.0"}}, {"uniqueid": "MTK0312:3SKRO2GZ72Y60JDY9ADMTKIOI9A1KP", "current_trial": 185, "dateTime": 1510704133745, "trialdata": {"rt": -1000, "stimulus": "/static/audio/wordpool/BROTHER.wav", "key_press": -1, "type": "PRES_AUD", "word": "brother", "wordID": 178, "conditions": [24, 1600, "a", 12000], "trial": 5, "serialpos": 12, "trial_type": "single-audio", "trial_index": 185, "time_elapsed": 1900548, "internal_node_id": "0.0-131.0"}}, {"uniqueid": "MTK0312:3SKRO2GZ72Y60JDY9ADMTKIOI9A1KP", "current_trial": 186, "dateTime": 1510704136159, "trialdata": {"rt": -1000, "stimulus": "/static/audio/wordpool/SCULPTURE.wav", "key_press": -1, "type": "PRES_AUD", "word": "sculpture", "wordID": 1257, "conditions": [24, 1600, "a", 12000], "trial": 5, "serialpos": 13, "trial_type": "single-audio", "trial_index": 186, "time_elapsed": 1902962, "internal_node_id": "0.0-132.0"}}, {"uniqueid": "MTK0312:3SKRO2GZ72Y60JDY9ADMTKIOI9A1KP", "current_trial": 187, "dateTime": 1510704138601, "trialdata": {"rt": -1000, "stimulus": "/static/audio/wordpool/STATUE.wav", "key_press": -1, "type": "PRES_AUD", "word": "statue", "wordID": 1373, "conditions": [24, 1600, "a", 12000], "trial": 5, "serialpos": 14, "trial_type": "single-audio", "trial_index": 187, "time_elapsed": 1905404, "internal_node_id": "0.0-133.0"}}, {"uniqueid": "MTK0312:3SKRO2GZ72Y60JDY9ADMTKIOI9A1KP", "current_trial": 188, "dateTime": 1510704141381, "trialdata": {"rt": -1000, "stimulus": "/static/audio/wordpool/COUSIN.wav", "key_press": -1, "type": "PRES_AUD", "word": "cousin", "wordID": 391, "conditions": [24, 1600, "a", 12000], "trial": 5, "serialpos": 15, "trial_type": "single-audio", "trial_index": 188, "time_elapsed": 1908184, "internal_node_id": "0.0-134.0"}}, {"uniqueid": "MTK0312:3SKRO2GZ72Y60JDY9ADMTKIOI9A1KP", "current_trial": 189, "dateTime": 1510704144141, "trialdata": {"rt": -1000, "stimulus": "/static/audio/wordpool/SLOPE.wav", "key_press": -1, "type": "PRES_AUD", "word": "slope", "wordID": 1327, "conditions": [24, 1600, "a", 12000], "trial": 5, "serialpos": 16, "trial_type": "single-audio", "trial_index": 189, "time_elapsed": 1910944, "internal_node_id": "0.0-135.0"}}, {"uniqueid": "MTK0312:3SKRO2GZ72Y60JDY9ADMTKIOI9A1KP", "current_trial": 190, "dateTime": 1510704146733, "trialdata": {"rt": -1000, "stimulus": "/static/audio/wordpool/CUSTARD.wav", "key_press": -1, "type": "PRES_AUD", "word": "custard", "wordID": 428, "conditions": [24, 1600, "a", 12000], "trial": 5, "serialpos": 17, "trial_type": "single-audio", "trial_index": 190, "time_elapsed": 1913536, "internal_node_id": "0.0-136.0"}}, {"uniqueid": "MTK0312:3SKRO2GZ72Y60JDY9ADMTKIOI9A1KP", "current_trial": 191, "dateTime": 1510704149415, "trialdata": {"rt": -1000, "stimulus": "/static/audio/wordpool/SHORTS.wav", "key_press": -1, "type": "PRES_AUD", "word": "shorts", "wordID": 1292, "conditions": [24, 1600, "a", 12000], "trial": 5, "serialpos": 18, "trial_type": "single-audio", "trial_index": 191, "time_elapsed": 1916218, "internal_node_id": "0.0-137.0"}}, {"uniqueid": "MTK0312:3SKRO2GZ72Y60JDY9ADMTKIOI9A1KP", "current_trial": 192, "dateTime": 1510704152054, "trialdata": {"rt": -1000, "stimulus": "/static/audio/wordpool/PORTRAIT.wav", "key_press": -1, "type": "PRES_AUD", "word": "portrait", "wordID": 1110, "conditions": [24, 1600, "a", 12000], "trial": 5, "serialpos": 19, "trial_type": "single-audio", "trial_index": 192, "time_elapsed": 1918857, "internal_node_id": "0.0-138.0"}}, {"uniqueid": "MTK0312:3SKRO2GZ72Y60JDY9ADMTKIOI9A1KP", "current_trial": 193, "dateTime": 1510704154609, "trialdata": {"rt": -1000, "stimulus": "/static/audio/wordpool/CASHEW.wav", "key_press": -1, "type": "PRES_AUD", "word": "cashew", "wordID": 252, "conditions": [24, 1600, "a", 12000], "trial": 5, "serialpos": 20, "trial_type": "single-audio", "trial_index": 193, "time_elapsed": 1921412, "internal_node_id": "0.0-139.0"}}, {"uniqueid": "MTK0312:3SKRO2GZ72Y60JDY9ADMTKIOI9A1KP", "current_trial": 194, "dateTime": 1510704157026, "trialdata": {"rt": -1000, "stimulus": "/static/audio/wordpool/COCOON.wav", "key_press": -1, "type": "PRES_AUD", "word": "cocoon", "wordID": 338, "conditions": [24, 1600, "a", 12000], "trial": 5, "serialpos": 21, "trial_type": "single-audio", "trial_index": 194, "time_elapsed": 1923829, "internal_node_id": "0.0-140.0"}}, {"uniqueid": "MTK0312:3SKRO2GZ72Y60JDY9ADMTKIOI9A1KP", "current_trial": 195, "dateTime": 1510704159433, "trialdata": {"rt": -1000, "stimulus": "/static/audio/wordpool/WHISKERS.wav", "key_press": -1, "type": "PRES_AUD", "word": "whiskers", "wordID": 1604, "conditions": [24, 1600, "a", 12000], "trial": 5, "serialpos": 22, "trial_type": "single-audio", "trial_index": 195, "time_elapsed": 1926236, "internal_node_id": "0.0-141.0"}}, {"uniqueid": "MTK0312:3SKRO2GZ72Y60JDY9ADMTKIOI9A1KP", "current_trial": 196, "dateTime": 1510704161917, "trialdata": {"rt": -1000, "stimulus": "/static/audio/wordpool/STAMP.wav", "key_press": -1, "type": "PRES_AUD", "word": "stamp", "wordID": 1369, "conditions": [24, 1600, "a", 12000], "trial": 5, "serialpos": 23, "trial_type": "single-audio", "trial_index": 196, "time_elapsed": 1928720, "internal_node_id": "0.0-142.0"}}, {"uniqueid": "MTK0312:3SKRO2GZ72Y60JDY9ADMTKIOI9A1KP", "current_trial": 197, "dateTime": 1510704163286, "trialdata": {"rt": -1, "stimulus": "", "key_press": -1, "type": "PRE_RECALL_DELAY", "trial_type": "single-stim", "trial_index": 197, "time_elapsed": 1930089, "internal_node_id": "0.0-143.0-0.0"}}, {"uniqueid": "MTK0312:3SKRO2GZ72Y60JDY9ADMTKIOI9A1KP", "current_trial": 198, "dateTime": 1510704163787, "trialdata": {"rt": -1000, "stimulus": "/static/audio/400Hz.wav", "key_press": -1, "type": "PRE_RECALL_ALERT", "trial_type": "single-audio", "trial_index": 198, "time_elapsed": 1930590, "internal_node_id": "0.0-144.0"}}, {"uniqueid": "MTK0312:3SKRO2GZ72Y60JDY9ADMTKIOI9A1KP", "current_trial": 199, "dateTime": 1510704223793, "trialdata": {"rt": [3845, 4909, 11885, 13221, 15438, 27773, 34421, 36150], "recwords": ["whiskers", "stamp", "brother", "breast", "boyfriend", "pigeon", "blender", "blade"], "type": "FREE_RECALL", "conditions": [24, 1600, "a", 12000], "trial": 5, "trial_type": "free-recall", "trial_index": 199, "time_elapsed": 1990592, "internal_node_id": "0.0-145.0-0.0"}}, {"uniqueid": "MTK0312:3SKRO2GZ72Y60JDY9ADMTKIOI9A1KP", "current_trial": 200, "dateTime": 1510704530891, "trialdata": {"rt": 305097, "key_press": 32, "type": "INSTRUCTIONS", "trial_type": "text", "trial_index": 200, "time_elapsed": 2297694, "internal_node_id": "0.0-146.0"}}, {"uniqueid": "MTK0312:3SKRO2GZ72Y60JDY9ADMTKIOI9A1KP", "current_trial": 201, "dateTime": 1510704544904, "trialdata": {"rt": [3483, 5067, 6444, 7644, 9059, 10708], "responses": ["11", "15", "17", "10", "7", "15"], "num1": [5, 9, 3, 1, 1, 1, 5], "num2": [2, 2, 9, 2, 4, 5, 2], "num3": [4, 4, 5, 7, 2, 9, 6], "type": "DISTRACTOR", "conditions": [12, 800, "v", 12000], "trial": 6, "trial_type": "math-distractor", "trial_index": 201, "time_elapsed": 2311707, "internal_node_id": "0.0-147.0"}}, {"uniqueid": "MTK0312:3SKRO2GZ72Y60JDY9ADMTKIOI9A1KP", "current_trial": 202, "dateTime": 1510704547904, "trialdata": {"rt": -1, "stimulus": "<p id=\"stim\">10</p>", "key_press": -1, "trial_type": "single-stim", "trial_index": 202, "time_elapsed": 2314707, "internal_node_id": "0.0-148.0-0.0"}}, {"uniqueid": "MTK0312:3SKRO2GZ72Y60JDY9ADMTKIOI9A1KP", "current_trial": 203, "dateTime": 1510704548906, "trialdata": {"rt": -1, "stimulus": "<p id=\"stim\">9</p>", "key_press": -1, "trial_type": "single-stim", "trial_index": 203, "time_elapsed": 2315709, "internal_node_id": "0.0-148.0-1.0"}}, {"uniqueid": "MTK0312:3SKRO2GZ72Y60JDY9ADMTKIOI9A1KP", "current_trial": 204, "dateTime": 1510704549907, "trialdata": {"rt": -1, "stimulus": "<p id=\"stim\">8</p>", "key_press": -1, "trial_type": "single-stim", "trial_index": 204, "time_elapsed": 2316710, "internal_node_id": "0.0-148.0-2.0"}}, {"uniqueid": "MTK0312:3SKRO2GZ72Y60JDY9ADMTKIOI9A1KP", "current_trial": 205, "dateTime": 1510704550908, "trialdata": {"rt": -1, "stimulus": "<p id=\"stim\">7</p>", "key_press": -1, "trial_type": "single-stim", "trial_index": 205, "time_elapsed": 2317711, "internal_node_id": "0.0-148.0-3.0"}}, {"uniqueid": "MTK0312:3SKRO2GZ72Y60JDY9ADMTKIOI9A1KP", "current_trial": 206, "dateTime": 1510704551909, "trialdata": {"rt": -1, "stimulus": "<p id=\"stim\">6</p>", "key_press": -1, "trial_type": "single-stim", "trial_index": 206, "time_elapsed": 2318711, "internal_node_id": "0.0-148.0-4.0"}}, {"uniqueid": "MTK0312:3SKRO2GZ72Y60JDY9ADMTKIOI9A1KP", "current_trial": 207, "dateTime": 1510704552910, "trialdata": {"rt": -1, "stimulus": "<p id=\"stim\">5</p>", "key_press": -1, "trial_type": "single-stim", "trial_index": 207, "time_elapsed": 2319713, "internal_node_id": "0.0-148.0-5.0"}}, {"uniqueid": "MTK0312:3SKRO2GZ72Y60JDY9ADMTKIOI9A1KP", "current_trial": 208, "dateTime": 1510704553911, "trialdata": {"rt": -1, "stimulus": "<p id=\"stim\">4</p>", "key_press": -1, "trial_type": "single-stim", "trial_index": 208, "time_elapsed": 2320714, "internal_node_id": "0.0-148.0-6.0"}}, {"uniqueid": "MTK0312:3SKRO2GZ72Y60JDY9ADMTKIOI9A1KP", "current_trial": 209, "dateTime": 1510704554912, "trialdata": {"rt": -1, "stimulus": "<p id=\"stim\">3</p>", "key_press": -1, "trial_type": "single-stim", "trial_index": 209, "time_elapsed": 2321715, "internal_node_id": "0.0-148.0-7.0"}}, {"uniqueid": "MTK0312:3SKRO2GZ72Y60JDY9ADMTKIOI9A1KP", "current_trial": 210, "dateTime": 1510704555915, "trialdata": {"rt": -1, "stimulus": "<p id=\"stim\">2</p>", "key_press": -1, "trial_type": "single-stim", "trial_index": 210, "time_elapsed": 2322716, "internal_node_id": "0.0-148.0-8.0"}}, {"uniqueid": "MTK0312:3SKRO2GZ72Y60JDY9ADMTKIOI9A1KP", "current_trial": 211, "dateTime": 1510704556916, "trialdata": {"rt": -1, "stimulus": "<p id=\"stim\">1</p>", "key_press": -1, "trial_type": "single-stim", "trial_index": 211, "time_elapsed": 2323719, "internal_node_id": "0.0-148.0-9.0"}}, {"uniqueid": "MTK0312:3SKRO2GZ72Y60JDY9ADMTKIOI9A1KP", "current_trial": 212, "dateTime": 1510704558421, "trialdata": {"rt": -1, "stimulus": "<p id=\"stim\">+</p>", "key_press": -1, "type": "FIXATION", "trial_type": "single-stim", "trial_index": 212, "time_elapsed": 2325224, "internal_node_id": "0.0-149.0-0.0"}}, {"uniqueid": "MTK0312:3SKRO2GZ72Y60JDY9ADMTKIOI9A1KP", "current_trial": 213, "dateTime": 1510704559252, "trialdata": {"rt": -1, "stimulus": "<p id=\"stim\">CHIPMUNK</p>", "key_press": -1, "type": "PRES_VIS", "word": "chipmunk", "wordID": 303, "conditions": [12, 800, "v", 12000], "trial": 6, "serialpos": 0, "trial_type": "single-stim", "trial_index": 213, "time_elapsed": 2326055, "internal_node_id": "0.0-150.0"}}, {"uniqueid": "MTK0312:3SKRO2GZ72Y60JDY9ADMTKIOI9A1KP", "current_trial": 214, "dateTime": 1510704561209, "trialdata": {"rt": -1, "stimulus": "<p id=\"stim\">TUNNEL</p>", "key_press": -1, "type": "PRES_VIS", "word": "tunnel", "wordID": 1518, "conditions": [12, 800, "v", 12000], "trial": 6, "serialpos": 1, "trial_type": "single-stim", "trial_index": 214, "time_elapsed": 2328012, "internal_node_id": "0.0-151.0"}}, {"uniqueid": "MTK0312:3SKRO2GZ72Y60JDY9ADMTKIOI9A1KP", "current_trial": 215, "dateTime": 1510704563088, "trialdata": {"rt": -1, "stimulus": "<p id=\"stim\">PEACH</p>", "key_press": -1, "type": "PRES_VIS", "word": "peach", "wordID": 1030, "conditions": [12, 800, "v", 12000], "trial": 6, "serialpos": 2, "trial_type": "single-stim", "trial_index": 215, "time_elapsed": 2329891, "internal_node_id": "0.0-152.0"}}, {"uniqueid": "MTK0312:3SKRO2GZ72Y60JDY9ADMTKIOI9A1KP", "current_trial": 216, "dateTime": 1510704564811, "trialdata": {"rt": -1, "stimulus": "<p id=\"stim\">RABBIT</p>", "key_press": -1, "type": "PRES_VIS", "word": "rabbit", "wordID": 1151, "conditions": [12, 800, "v", 12000], "trial": 6, "serialpos": 3, "trial_type": "single-stim", "trial_index": 216, "time_elapsed": 2331614, "internal_node_id": "0.0-153.0"}}, {"uniqueid": "MTK0312:3SKRO2GZ72Y60JDY9ADMTKIOI9A1KP", "current_trial": 217, "dateTime": 1510704566802, "trialdata": {"rt": -1, "stimulus": "<p id=\"stim\">MARINE</p>", "key_press": -1, "type": "PRES_VIS", "word": "marine", "wordID": 868, "conditions": [12, 800, "v", 12000], "trial": 6, "serialpos": 4, "trial_type": "single-stim", "trial_index": 217, "time_elapsed": 2333605, "internal_node_id": "0.0-154.0"}}, {"uniqueid": "MTK0312:3SKRO2GZ72Y60JDY9ADMTKIOI9A1KP", "current_trial": 218, "dateTime": 1510704568650, "trialdata": {"rt": -1, "stimulus": "<p id=\"stim\">LAPEL</p>", "key_press": -1, "type": "PRES_VIS", "word": "lapel", "wordID": 799, "conditions": [12, 800, "v", 12000], "trial": 6, "serialpos": 5, "trial_type": "single-stim", "trial_index": 218, "time_elapsed": 2335453, "internal_node_id": "0.0-155.0"}}, {"uniqueid": "MTK0312:3SKRO2GZ72Y60JDY9ADMTKIOI9A1KP", "current_trial": 219, "dateTime": 1510704570334, "trialdata": {"rt": -1, "stimulus": "<p id=\"stim\">DAISY</p>", "key_press": -1, "type": "PRES_VIS", "word": "daisy", "wordID": 434, "conditions": [12, 800, "v", 12000], "trial": 6, "serialpos": 6, "trial_type": "single-stim", "trial_index": 219, "time_elapsed": 2337137, "internal_node_id": "0.0-156.0"}}, {"uniqueid": "MTK0312:3SKRO2GZ72Y60JDY9ADMTKIOI9A1KP", "current_trial": 220, "dateTime": 1510704571978, "trialdata": {"rt": -1, "stimulus": "<p id=\"stim\">LILY</p>", "key_press": -1, "type": "PRES_VIS", "word": "lily", "wordID": 820, "conditions": [12, 800, "v", 12000], "trial": 6, "serialpos": 7, "trial_type": "single-stim", "trial_index": 220, "time_elapsed": 2338781, "internal_node_id": "0.0-157.0"}}, {"uniqueid": "MTK0312:3SKRO2GZ72Y60JDY9ADMTKIOI9A1KP", "current_trial": 221, "dateTime": 1510704573869, "trialdata": {"rt": -1, "stimulus": "<p id=\"stim\">DRILL</p>", "key_press": -1, "type": "PRES_VIS", "word": "drill", "wordID": 496, "conditions": [12, 800, "v", 12000], "trial": 6, "serialpos": 8, "trial_type": "single-stim", "trial_index": 221, "time_elapsed": 2340672, "internal_node_id": "0.0-158.0"}}, {"uniqueid": "MTK0312:3SKRO2GZ72Y60JDY9ADMTKIOI9A1KP", "current_trial": 222, "dateTime": 1510704575518, "trialdata": {"rt": -1, "stimulus": "<p id=\"stim\">TEACHER</p>", "key_press": -1, "type": "PRES_VIS", "word": "teacher", "wordID": 1439, "conditions": [12, 800, "v", 12000], "trial": 6, "serialpos": 9, "trial_type": "single-stim", "trial_index": 222, "time_elapsed": 2342321, "internal_node_id": "0.0-159.0"}}, {"uniqueid": "MTK0312:3SKRO2GZ72Y60JDY9ADMTKIOI9A1KP", "current_trial": 223, "dateTime": 1510704577166, "trialdata": {"rt": -1, "stimulus": "<p id=\"stim\">SERVANT</p>", "key_press": -1, "type": "PRES_VIS", "word": "servant", "wordID": 1270, "conditions": [12, 800, "v", 12000], "trial": 6, "serialpos": 10, "trial_type": "single-stim", "trial_index": 223, "time_elapsed": 2343969, "internal_node_id": "0.0-160.0"}}, {"uniqueid": "MTK0312:3SKRO2GZ72Y60JDY9ADMTKIOI9A1KP", "current_trial": 224, "dateTime": 1510704579122, "trialdata": {"rt": -1, "stimulus": "<p id=\"stim\">ORCHID</p>", "key_press": -1, "type": "PRES_VIS", "word": "orchid", "wordID": 981, "conditions": [12, 800, "v", 12000], "trial": 6, "serialpos": 11, "trial_type": "single-stim", "trial_index": 224, "time_elapsed": 2345925, "internal_node_id": "0.0-161.0"}}, {"uniqueid": "MTK0312:3SKRO2GZ72Y60JDY9ADMTKIOI9A1KP", "current_trial": 225, "dateTime": 1510704581610, "trialdata": {"rt": -1, "stimulus": "", "key_press": -1, "type": "PRE_RECALL_DELAY", "trial_type": "single-stim", "trial_index": 225, "time_elapsed": 2348413, "internal_node_id": "0.0-162.0-0.0"}}, {"uniqueid": "MTK0312:3SKRO2GZ72Y60JDY9ADMTKIOI9A1KP", "current_trial": 226, "dateTime": 1510704582112, "trialdata": {"rt": -1000, "stimulus": "/static/audio/400Hz.wav", "key_press": -1, "type": "PRE_RECALL_ALERT", "trial_type": "single-audio", "trial_index": 226, "time_elapsed": 2348915, "internal_node_id": "0.0-163.0"}}, {"uniqueid": "MTK0312:3SKRO2GZ72Y60JDY9ADMTKIOI9A1KP", "current_trial": 227, "dateTime": 1510704642118, "trialdata": {"rt": [3834, 4944, 6056, 7016, 8177, 12305], "recwords": ["orchid", "teacher", "servant", "rabbit", "tunnel", "squirrel"], "type": "FREE_RECALL", "conditions": [12, 800, "v", 12000], "trial": 6, "trial_type": "free-recall", "trial_index": 227, "time_elapsed": 2408917, "internal_node_id": "0.0-164.0-0.0"}}, {"uniqueid": "MTK0312:3SKRO2GZ72Y60JDY9ADMTKIOI9A1KP", "current_trial": 228, "dateTime": 1510704721899, "trialdata": {"rt": 77780, "key_press": 13, "type": "INSTRUCTIONS", "trial_type": "text", "trial_index": 228, "time_elapsed": 2488702, "internal_node_id": "0.0-165.0"}}, {"uniqueid": "MTK0312:3SKRO2GZ72Y60JDY9ADMTKIOI9A1KP", "current_trial": 229, "dateTime": 1510704747901, "trialdata": {"rt": [3070, 4431, 6022, 7190, 8255, 9550, 11490, 12822, 14198, 15222, 16527, 18246, 19439, 20736, 22326, 23850], "responses": ["14", "11", "19", "11", "8", "14", "13", "14", "13", "5", "12", "15", "12", "11", "12", "11"], "num1": [8, 2, 7, 7, 1, 3, 3, 7, 4, 2, 4, 8, 1, 1, 3, 2, 9], "num2": [3, 4, 5, 2, 6, 8, 4, 3, 1, 2, 5, 3, 9, 7, 3, 4, 4], "num3": [3, 5, 7, 2, 1, 3, 6, 4, 8, 1, 3, 4, 2, 3, 6, 5, 6], "type": "DISTRACTOR", "conditions": [12, 1600, "v", 24000], "trial": 7, "trial_type": "math-distractor", "trial_index": 229, "time_elapsed": 2514704, "internal_node_id": "0.0-166.0"}}, {"uniqueid": "MTK0312:3SKRO2GZ72Y60JDY9ADMTKIOI9A1KP", "current_trial": 230, "dateTime": 1510704750903, "trialdata": {"rt": -1, "stimulus": "<p id=\"stim\">10</p>", "key_press": -1, "trial_type": "single-stim", "trial_index": 230, "time_elapsed": 2517706, "internal_node_id": "0.0-167.0-0.0"}}, {"uniqueid": "MTK0312:3SKRO2GZ72Y60JDY9ADMTKIOI9A1KP", "current_trial": 231, "dateTime": 1510704751903, "trialdata": {"rt": -1, "stimulus": "<p id=\"stim\">9</p>", "key_press": -1, "trial_type": "single-stim", "trial_index": 231, "time_elapsed": 2518706, "internal_node_id": "0.0-167.0-1.0"}}, {"uniqueid": "MTK0312:3SKRO2GZ72Y60JDY9ADMTKIOI9A1KP", "current_trial": 232, "dateTime": 1510704752904, "trialdata": {"rt": -1, "stimulus": "<p id=\"stim\">8</p>", "key_press": -1, "trial_type": "single-stim", "trial_index": 232, "time_elapsed": 2519707, "internal_node_id": "0.0-167.0-2.0"}}, {"uniqueid": "MTK0312:3SKRO2GZ72Y60JDY9ADMTKIOI9A1KP", "current_trial": 233, "dateTime": 1510704753904, "trialdata": {"rt": -1, "stimulus": "<p id=\"stim\">7</p>", "key_press": -1, "trial_type": "single-stim", "trial_index": 233, "time_elapsed": 2520707, "internal_node_id": "0.0-167.0-3.0"}}, {"uniqueid": "MTK0312:3SKRO2GZ72Y60JDY9ADMTKIOI9A1KP", "current_trial": 234, "dateTime": 1510704754905, "trialdata": {"rt": -1, "stimulus": "<p id=\"stim\">6</p>", "key_press": -1, "trial_type": "single-stim", "trial_index": 234, "time_elapsed": 2521708, "internal_node_id": "0.0-167.0-4.0"}}, {"uniqueid": "MTK0312:3SKRO2GZ72Y60JDY9ADMTKIOI9A1KP", "current_trial": 235, "dateTime": 1510704755907, "trialdata": {"rt": -1, "stimulus": "<p id=\"stim\">5</p>", "key_press": -1, "trial_type": "single-stim", "trial_index": 235, "time_elapsed": 2522710, "internal_node_id": "0.0-167.0-5.0"}}, {"uniqueid": "MTK0312:3SKRO2GZ72Y60JDY9ADMTKIOI9A1KP", "current_trial": 236, "dateTime": 1510704756907, "trialdata": {"rt": -1, "stimulus": "<p id=\"stim\">4</p>", "key_press": -1, "trial_type": "single-stim", "trial_index": 236, "time_elapsed": 2523710, "internal_node_id": "0.0-167.0-6.0"}}, {"uniqueid": "MTK0312:3SKRO2GZ72Y60JDY9ADMTKIOI9A1KP", "current_trial": 237, "dateTime": 1510704757910, "trialdata": {"rt": -1, "stimulus": "<p id=\"stim\">3</p>", "key_press": -1, "trial_type": "single-stim", "trial_index": 237, "time_elapsed": 2524711, "internal_node_id": "0.0-167.0-7.0"}}, {"uniqueid": "MTK0312:3SKRO2GZ72Y60JDY9ADMTKIOI9A1KP", "current_trial": 238, "dateTime": 1510704758911, "trialdata": {"rt": -1, "stimulus": "<p id=\"stim\">2</p>", "key_press": -1, "trial_type": "single-stim", "trial_index": 238, "time_elapsed": 2525714, "internal_node_id": "0.0-167.0-8.0"}}, {"uniqueid": "MTK0312:3SKRO2GZ72Y60JDY9ADMTKIOI9A1KP", "current_trial": 239, "dateTime": 1510704759913, "trialdata": {"rt": -1, "stimulus": "<p id=\"stim\">1</p>", "key_press": -1, "trial_type": "single-stim", "trial_index": 239, "time_elapsed": 2526716, "internal_node_id": "0.0-167.0-9.0"}}, {"uniqueid": "MTK0312:3SKRO2GZ72Y60JDY9ADMTKIOI9A1KP", "current_trial": 240, "dateTime": 1510704761414, "trialdata": {"rt": -1, "stimulus": "<p id=\"stim\">+</p>", "key_press": -1, "type": "FIXATION", "trial_type": "single-stim", "trial_index": 240, "time_elapsed": 2528217, "internal_node_id": "0.0-168.0-0.0"}}, {"uniqueid": "MTK0312:3SKRO2GZ72Y60JDY9ADMTKIOI9A1KP", "current_trial": 241, "dateTime": 1510704763015, "trialdata": {"rt": -1, "stimulus": "<p id=\"stim\">WIFE</p>", "key_press": -1, "type": "PRES_VIS", "word": "wife", "wordID": 1608, "conditions": [12, 1600, "v", 24000], "trial": 7, "serialpos": 0, "trial_type": "single-stim", "trial_index": 241, "time_elapsed": 2529818, "internal_node_id": "0.0-169.0"}}, {"uniqueid": "MTK0312:3SKRO2GZ72Y60JDY9ADMTKIOI9A1KP", "current_trial": 242, "dateTime": 1510704765533, "trialdata": {"rt": -1, "stimulus": "<p id=\"stim\">FREEZER</p>", "key_press": -1, "type": "PRES_VIS", "word": "freezer", "wordID": 603, "conditions": [12, 1600, "v", 24000], "trial": 7, "serialpos": 1, "trial_type": "single-stim", "trial_index": 242, "time_elapsed": 2532336, "internal_node_id": "0.0-170.0"}}, {"uniqueid": "MTK0312:3SKRO2GZ72Y60JDY9ADMTKIOI9A1KP", "current_trial": 243, "dateTime": 1510704768166, "trialdata": {"rt": -1, "stimulus": "<p id=\"stim\">SLUG</p>", "key_press": -1, "type": "PRES_VIS", "word": "slug", "wordID": 1328, "conditions": [12, 1600, "v", 24000], "trial": 7, "serialpos": 2, "trial_type": "single-stim", "trial_index": 243, "time_elapsed": 2534969, "internal_node_id": "0.0-171.0"}}, {"uniqueid": "MTK0312:3SKRO2GZ72Y60JDY9ADMTKIOI9A1KP", "current_trial": 244, "dateTime": 1510704770862, "trialdata": {"rt": -1, "stimulus": "<p id=\"stim\">TORTOISE</p>", "key_press": -1, "type": "PRES_VIS", "word": "tortoise", "wordID": 1485, "conditions": [12, 1600, "v", 24000], "trial": 7, "serialpos": 3, "trial_type": "single-stim", "trial_index": 244, "time_elapsed": 2537665, "internal_node_id": "0.0-172.0"}}, {"uniqueid": "MTK0312:3SKRO2GZ72Y60JDY9ADMTKIOI9A1KP", "current_trial": 245, "dateTime": 1510704773277, "trialdata": {"rt": -1, "stimulus": "<p id=\"stim\">DRIVER</p>", "key_press": -1, "type": "PRES_VIS", "word": "driver", "wordID": 498, "conditions": [12, 1600, "v", 24000], "trial": 7, "serialpos": 4, "trial_type": "single-stim", "trial_index": 245, "time_elapsed": 2540080, "internal_node_id": "0.0-173.0"}}, {"uniqueid": "MTK0312:3SKRO2GZ72Y60JDY9ADMTKIOI9A1KP", "current_trial": 246, "dateTime": 1510704775839, "trialdata": {"rt": -1, "stimulus": "<p id=\"stim\">TRUCK</p>", "key_press": -1, "type": "PRES_VIS", "word": "truck", "wordID": 1511, "conditions": [12, 1600, "v", 24000], "trial": 7, "serialpos": 5, "trial_type": "single-stim", "trial_index": 246, "time_elapsed": 2542642, "internal_node_id": "0.0-174.0"}}, {"uniqueid": "MTK0312:3SKRO2GZ72Y60JDY9ADMTKIOI9A1KP", "current_trial": 247, "dateTime": 1510704778498, "trialdata": {"rt": -1, "stimulus": "<p id=\"stim\">CARRIAGE</p>", "key_press": -1, "type": "PRES_VIS", "word": "carriage", "wordID": 247, "conditions": [12, 1600, "v", 24000], "trial": 7, "serialpos": 6, "trial_type": "single-stim", "trial_index": 247, "time_elapsed": 2545301, "internal_node_id": "0.0-175.0"}}, {"uniqueid": "MTK0312:3SKRO2GZ72Y60JDY9ADMTKIOI9A1KP", "current_trial": 248, "dateTime": 1510704781129, "trialdata": {"rt": -1, "stimulus": "<p id=\"stim\">CARROT</p>", "key_press": -1, "type": "PRES_VIS", "word": "carrot", "wordID": 248, "conditions": [12, 1600, "v", 24000], "trial": 7, "serialpos": 7, "trial_type": "single-stim", "trial_index": 248, "time_elapsed": 2547932, "internal_node_id": "0.0-176.0"}}, {"uniqueid": "MTK0312:3SKRO2GZ72Y60JDY9ADMTKIOI9A1KP", "current_trial": 249, "dateTime": 1510704783600, "trialdata": {"rt": -1, "stimulus": "<p id=\"stim\">VENUS</p>", "key_press": -1, "type": "PRES_VIS", "word": "venus", "wordID": 1556, "conditions": [12, 1600, "v", 24000], "trial": 7, "serialpos": 8, "trial_type": "single-stim", "trial_index": 249, "time_elapsed": 2550403, "internal_node_id": "0.0-177.0"}}, {"uniqueid": "MTK0312:3SKRO2GZ72Y60JDY9ADMTKIOI9A1KP", "current_trial": 250, "dateTime": 1510704786180, "trialdata": {"rt": -1, "stimulus": "<p id=\"stim\">GIRL</p>", "key_press": -1, "type": "PRES_VIS", "word": "girl", "wordID": 636, "conditions": [12, 1600, "v", 24000], "trial": 7, "serialpos": 9, "trial_type": "single-stim", "trial_index": 250, "time_elapsed": 2552983, "internal_node_id": "0.0-178.0"}}, {"uniqueid": "MTK0312:3SKRO2GZ72Y60JDY9ADMTKIOI9A1KP", "current_trial": 251, "dateTime": 1510704788963, "trialdata": {"rt": -1, "stimulus": "<p id=\"stim\">SISTER</p>", "key_press": -1, "type": "PRES_VIS", "word": "sister", "wordID": 1311, "conditions": [12, 1600, "v", 24000], "trial": 7, "serialpos": 10, "trial_type": "single-stim", "trial_index": 251, "time_elapsed": 2555766, "internal_node_id": "0.0-179.0"}}, {"uniqueid": "MTK0312:3SKRO2GZ72Y60JDY9ADMTKIOI9A1KP", "current_trial": 252, "dateTime": 1510704791529, "trialdata": {"rt": -1, "stimulus": "<p id=\"stim\">LONDON</p>", "key_press": -1, "type": "PRES_VIS", "word": "london", "wordID": 842, "conditions": [12, 1600, "v", 24000], "trial": 7, "serialpos": 11, "trial_type": "single-stim", "trial_index": 252, "time_elapsed": 2558332, "internal_node_id": "0.0-180.0"}}, {"uniqueid": "MTK0312:3SKRO2GZ72Y60JDY9ADMTKIOI9A1KP", "current_trial": 253, "dateTime": 1510704793787, "trialdata": {"rt": -1, "stimulus": "", "key_press": -1, "type": "PRE_RECALL_DELAY", "trial_type": "single-stim", "trial_index": 253, "time_elapsed": 2560590, "internal_node_id": "0.0-181.0-0.0"}}, {"uniqueid": "MTK0312:3SKRO2GZ72Y60JDY9ADMTKIOI9A1KP", "current_trial": 254, "dateTime": 1510704794287, "trialdata": {"rt": -1000, "stimulus": "/static/audio/400Hz.wav", "key_press": -1, "type": "PRE_RECALL_ALERT", "trial_type": "single-audio", "trial_index": 254, "time_elapsed": 2561090, "internal_node_id": "0.0-182.0"}}, {"uniqueid": "MTK0312:3SKRO2GZ72Y60JDY9ADMTKIOI9A1KP", "current_trial": 255, "dateTime": 1510704854299, "trialdata": {"rt": [2256, 4049, 5449, 7488, 8281, 9944], "recwords": ["venus", "girl", "sister", "london", "truck", "driver"], "type": "FREE_RECALL", "conditions": [12, 1600, "v", 24000], "trial": 7, "trial_type": "free-recall", "trial_index": 255, "time_elapsed": 2621098, "internal_node_id": "0.0-183.0-0.0"}}, {"uniqueid": "MTK0312:3SKRO2GZ72Y60JDY9ADMTKIOI9A1KP", "current_trial": 256, "dateTime": 1510704873883, "trialdata": {"rt": 17583, "key_press": 13, "type": "INSTRUCTIONS", "trial_type": "text", "trial_index": 256, "time_elapsed": 2640686, "internal_node_id": "0.0-184.0"}}, {"uniqueid": "MTK0312:3SKRO2GZ72Y60JDY9ADMTKIOI9A1KP", "current_trial": 257, "dateTime": 1510704899885, "trialdata": {"rt": [3086, 4383, 6111, 8862, 11078, 13535, 14982, 16366, 17727, 19086, 20374, 21631, 23398], "responses": ["15", "17", "14", "21", "14", "22", "17", "19", "14", "14", "10", "9", "19"], "num1": [9, 8, 5, 9, 6, 6, 2, 7, 1, 5, 4, 2, 9, 7], "num2": [5, 6, 4, 4, 5, 8, 9, 3, 6, 1, 1, 5, 4, 3], "num3": [1, 3, 5, 8, 3, 8, 6, 9, 7, 8, 5, 2, 6, 5], "type": "DISTRACTOR", "conditions": [12, 1600, "a", 24000], "trial": 8, "trial_type": "math-distractor", "trial_index": 257, "time_elapsed": 2666687, "internal_node_id": "0.0-185.0"}}, {"uniqueid": "MTK0312:3SKRO2GZ72Y60JDY9ADMTKIOI9A1KP", "current_trial": 258, "dateTime": 1510704902886, "trialdata": {"rt": -1, "stimulus": "<p id=\"stim\">10</p>", "key_press": -1, "trial_type": "single-stim", "trial_index": 258, "time_elapsed": 2669689, "internal_node_id": "0.0-186.0-0.0"}}, {"uniqueid": "MTK0312:3SKRO2GZ72Y60JDY9ADMTKIOI9A1KP", "current_trial": 259, "dateTime": 1510704903887, "trialdata": {"rt": -1, "stimulus": "<p id=\"stim\">9</p>", "key_press": -1, "trial_type": "single-stim", "trial_index": 259, "time_elapsed": 2670690, "internal_node_id": "0.0-186.0-1.0"}}, {"uniqueid": "MTK0312:3SKRO2GZ72Y60JDY9ADMTKIOI9A1KP", "current_trial": 260, "dateTime": 1510704904888, "trialdata": {"rt": -1, "stimulus": "<p id=\"stim\">8</p>", "key_press": -1, "trial_type": "single-stim", "trial_index": 260, "time_elapsed": 2671691, "internal_node_id": "0.0-186.0-2.0"}}, {"uniqueid": "MTK0312:3SKRO2GZ72Y60JDY9ADMTKIOI9A1KP", "current_trial": 261, "dateTime": 1510704905889, "trialdata": {"rt": -1, "stimulus": "<p id=\"stim\">7</p>", "key_press": -1, "trial_type": "single-stim", "trial_index": 261, "time_elapsed": 2672692, "internal_node_id": "0.0-186.0-3.0"}}, {"uniqueid": "MTK0312:3SKRO2GZ72Y60JDY9ADMTKIOI9A1KP", "current_trial": 262, "dateTime": 1510704906890, "trialdata": {"rt": -1, "stimulus": "<p id=\"stim\">6</p>", "key_press": -1, "trial_type": "single-stim", "trial_index": 262, "time_elapsed": 2673693, "internal_node_id": "0.0-186.0-4.0"}}, {"uniqueid": "MTK0312:3SKRO2GZ72Y60JDY9ADMTKIOI9A1KP", "current_trial": 263, "dateTime": 1510704907901, "trialdata": {"rt": -1, "stimulus": "<p id=\"stim\">5</p>", "key_press": -1, "trial_type": "single-stim", "trial_index": 263, "time_elapsed": 2674704, "internal_node_id": "0.0-186.0-5.0"}}, {"uniqueid": "MTK0312:3SKRO2GZ72Y60JDY9ADMTKIOI9A1KP", "current_trial": 264, "dateTime": 1510704908903, "trialdata": {"rt": -1, "stimulus": "<p id=\"stim\">4</p>", "key_press": -1, "trial_type": "single-stim", "trial_index": 264, "time_elapsed": 2675706, "internal_node_id": "0.0-186.0-6.0"}}, {"uniqueid": "MTK0312:3SKRO2GZ72Y60JDY9ADMTKIOI9A1KP", "current_trial": 265, "dateTime": 1510704909904, "trialdata": {"rt": -1, "stimulus": "<p id=\"stim\">3</p>", "key_press": -1, "trial_type": "single-stim", "trial_index": 265, "time_elapsed": 2676707, "internal_node_id": "0.0-186.0-7.0"}}, {"uniqueid": "MTK0312:3SKRO2GZ72Y60JDY9ADMTKIOI9A1KP", "current_trial": 266, "dateTime": 1510704910905, "trialdata": {"rt": -1, "stimulus": "<p id=\"stim\">2</p>", "key_press": -1, "trial_type": "single-stim", "trial_index": 266, "time_elapsed": 2677708, "internal_node_id": "0.0-186.0-8.0"}}, {"uniqueid": "MTK0312:3SKRO2GZ72Y60JDY9ADMTKIOI9A1KP", "current_trial": 267, "dateTime": 1510704911906, "trialdata": {"rt": -1, "stimulus": "<p id=\"stim\">1</p>", "key_press": -1, "trial_type": "single-stim", "trial_index": 267, "time_elapsed": 2678709, "internal_node_id": "0.0-186.0-9.0"}}, {"uniqueid": "MTK0312:3SKRO2GZ72Y60JDY9ADMTKIOI9A1KP", "current_trial": 268, "dateTime": 1510704913407, "trialdata": {"rt": -1, "stimulus": "<p id=\"stim\">+</p>", "key_press": -1, "type": "FIXATION", "trial_type": "single-stim", "trial_index": 268, "time_elapsed": 2680209, "internal_node_id": "0.0-187.0-0.0"}}, {"uniqueid": "MTK0312:3SKRO2GZ72Y60JDY9ADMTKIOI9A1KP", "current_trial": 269, "dateTime": 1510704915961, "trialdata": {"rt": -1000, "stimulus": "/static/audio/wordpool/QUEEN.wav", "key_press": -1, "type": "PRES_AUD", "word": "queen", "wordID": 1148, "conditions": [12, 1600, "a", 24000], "trial": 8, "serialpos": 0, "trial_type": "single-audio", "trial_index": 269, "time_elapsed": 2682764, "internal_node_id": "0.0-188.0"}}, {"uniqueid": "MTK0312:3SKRO2GZ72Y60JDY9ADMTKIOI9A1KP", "current_trial": 270, "dateTime": 1510704918731, "trialdata": {"rt": -1000, "stimulus": "/static/audio/wordpool/SHRUB.wav", "key_press": -1, "type": "PRES_AUD", "word": "shrub", "wordID": 1298, "conditions": [12, 1600, "a", 24000], "trial": 8, "serialpos": 1, "trial_type": "single-audio", "trial_index": 270, "time_elapsed": 2685534, "internal_node_id": "0.0-189.0"}}, {"uniqueid": "MTK0312:3SKRO2GZ72Y60JDY9ADMTKIOI9A1KP", "current_trial": 271, "dateTime": 1510704921326, "trialdata": {"rt": -1000, "stimulus": "/static/audio/wordpool/MAILBOX.wav", "key_press": -1, "type": "PRES_AUD", "word": "mailbox", "wordID": 856, "conditions": [12, 1600, "a", 24000], "trial": 8, "serialpos": 2, "trial_type": "single-audio", "trial_index": 271, "time_elapsed": 2688129, "internal_node_id": "0.0-190.0"}}, {"uniqueid": "MTK0312:3SKRO2GZ72Y60JDY9ADMTKIOI9A1KP", "current_trial": 272, "dateTime": 1510704924078, "trialdata": {"rt": -1000, "stimulus": "/static/audio/wordpool/LUGGAGE.wav", "key_press": -1, "type": "PRES_AUD", "word": "luggage", "wordID": 846, "conditions": [12, 1600, "a", 24000], "trial": 8, "serialpos": 3, "trial_type": "single-audio", "trial_index": 272, "time_elapsed": 2690881, "internal_node_id": "0.0-191.0"}}, {"uniqueid": "MTK0312:3SKRO2GZ72Y60JDY9ADMTKIOI9A1KP", "current_trial": 273, "dateTime": 1510704926750, "trialdata": {"rt": -1000, "stimulus": "/static/audio/wordpool/CHAUFFEUR.wav", "key_press": -1, "type": "PRES_AUD", "word": "chauffeur", "wordID": 282, "conditions": [12, 1600, "a", 24000], "trial": 8, "serialpos": 4, "trial_type": "single-audio", "trial_index": 273, "time_elapsed": 2693552, "internal_node_id": "0.0-192.0"}}, {"uniqueid": "MTK0312:3SKRO2GZ72Y60JDY9ADMTKIOI9A1KP", "current_trial": 274, "dateTime": 15107