{"condition": 0, "counterbalance": 2476, "assignmentId": "3G5F9DBFOQ4VK5SOA3UENG9CHX5VH0", "workerId": "MTK0692", "hitId": "3TC2K6WK9G9R7JVZTNBVJENI2DY826", "currenttrial": 626, "bonus": 0, "data": [{"uniqueid": "MTK0692:3G5F9DBFOQ4VK5SOA3UENG9CHX5VH0", "current_trial": 0, "dateTime": 1512599058920, "trialdata": {"rt": 20384, "key_press": 32, "type": "INSTRUCTIONS", "trial_type": "text", "trial_index": 0, "time_elapsed": 20387, "internal_node_id": "0.0-0.0"}}, {"uniqueid": "MTK0692:3G5F9DBFOQ4VK5SOA3UENG9CHX5VH0", "current_trial": 1, "dateTime": 1512599080147, "trialdata": {"rt": 21225, "key_press": 32, "type": "INSTRUCTIONS", "trial_type": "text", "trial_index": 1, "time_elapsed": 41615, "internal_node_id": "0.0-1.0"}}, {"uniqueid": "MTK0692:3G5F9DBFOQ4VK5SOA3UENG9CHX5VH0", "current_trial": 2, "dateTime": 1512599097702, "trialdata": {"rt": [17544], "responses": ["ocean"], "type": "AUDIO_TEST", "trial_type": "audio-test", "trial_index": 2, "time_elapsed": 59170, "internal_node_id": "0.0-2.0"}}, {"uniqueid": "MTK0692:3G5F9DBFOQ4VK5SOA3UENG9CHX5VH0", "current_trial": 3, "dateTime": 1512599106108, "trialdata": {"rt": [8401], "responses": ["crystal"], "type": "AUDIO_TEST", "trial_type": "audio-test", "trial_index": 3, "time_elapsed": 67576, "internal_node_id": "0.0-3.0"}}, {"uniqueid": "MTK0692:3G5F9DBFOQ4VK5SOA3UENG9CHX5VH0", "current_trial": 4, "dateTime": 1512599113099, "trialdata": {"rt": [6985], "responses": ["spice"], "type": "AUDIO_TEST", "trial_type": "audio-test", "trial_index": 4, "time_elapsed": 74567, "internal_node_id": "0.0-4.0"}}, {"uniqueid": "MTK0692:3G5F9DBFOQ4VK5SOA3UENG9CHX5VH0", "current_trial": 5, "dateTime": 1512599137249, "trialdata": {"rt": 23397, "responses": "{\"Q0\":\"11:00\",\"Q1\":\"6:00\",\"Q2\":\"5\"}", "type": "SLEEP_SURVEY", "trial_type": "survey-text", "trial_index": 5, "time_elapsed": 98717, "internal_node_id": "0.0-5.0"}}, {"uniqueid": "MTK0692:3G5F9DBFOQ4VK5SOA3UENG9CHX5VH0", "current_trial": 6, "dateTime": 1512599202795, "trialdata": {"rt": 64543, "key_press": 32, "type": "INSTRUCTIONS", "trial_type": "text", "trial_index": 6, "time_elapsed": 164263, "internal_node_id": "0.0-6.0"}}, {"uniqueid": "MTK0692:3G5F9DBFOQ4VK5SOA3UENG9CHX5VH0", "current_trial": 7, "dateTime": 1512599214226, "trialdata": {"rt": 10931, "key_press": 32, "type": "INSTRUCTIONS", "trial_type": "text", "trial_index": 7, "time_elapsed": 175694, "internal_node_id": "0.0-7.0"}}, {"uniqueid": "MTK0692:3G5F9DBFOQ4VK5SOA3UENG9CHX5VH0", "current_trial": 8, "dateTime": 1512599219802, "trialdata": {"rt": 5075, "key_press": 32, "type": "INSTRUCTIONS", "trial_type": "text", "trial_index": 8, "time_elapsed": 181270, "internal_node_id": "0.0-8.0"}}, {"uniqueid": "MTK0692:3G5F9DBFOQ4VK5SOA3UENG9CHX5VH0", "current_trial": 9, "dateTime": 1512599238806, "trialdata": {"rt": [4252, 7252, 10334, 12798, 15133, 17366], "responses": ["21", "15", "17", "13", "15", "9"], "num1": [7, 2, 9, 4, 1, 6, 9], "num2": [7, 5, 5, 2, 8, 2, 6], "num3": [7, 8, 3, 7, 6, 1, 1], "type": "DISTRACTOR", "conditions": [18, 1200, "v", 18000], "trial": 0, "trial_type": "math-distractor", "trial_index": 9, "time_elapsed": 200274, "internal_node_id": "0.0-9.0"}}, {"uniqueid": "MTK0692:3G5F9DBFOQ4VK5SOA3UENG9CHX5VH0", "current_trial": 10, "dateTime": 1512599241808, "trialdata": {"rt": -1, "stimulus": "<p id=\"stim\">10</p>", "key_press": -1, "trial_type": "single-stim", "trial_index": 10, "time_elapsed": 203276, "internal_node_id": "0.0-10.0-0.0"}}, {"uniqueid": "MTK0692:3G5F9DBFOQ4VK5SOA3UENG9CHX5VH0", "current_trial": 11, "dateTime": 1512599242811, "trialdata": {"rt": -1, "stimulus": "<p id=\"stim\">9</p>", "key_press": -1, "trial_type": "single-stim", "trial_index": 11, "time_elapsed": 204279, "internal_node_id": "0.0-10.0-1.0"}}, {"uniqueid": "MTK0692:3G5F9DBFOQ4VK5SOA3UENG9CHX5VH0", "current_trial": 12, "dateTime": 1512599243812, "trialdata": {"rt": -1, "stimulus": "<p id=\"stim\">8</p>", "key_press": -1, "trial_type": "single-stim", "trial_index": 12, "time_elapsed": 205280, "internal_node_id": "0.0-10.0-2.0"}}, {"uniqueid": "MTK0692:3G5F9DBFOQ4VK5SOA3UENG9CHX5VH0", "current_trial": 13, "dateTime": 1512599244812, "trialdata": {"rt": -1, "stimulus": "<p id=\"stim\">7</p>", "key_press": -1, "trial_type": "single-stim", "trial_index": 13, "time_elapsed": 206280, "internal_node_id": "0.0-10.0-3.0"}}, {"uniqueid": "MTK0692:3G5F9DBFOQ4VK5SOA3UENG9CHX5VH0", "current_trial": 14, "dateTime": 1512599245813, "trialdata": {"rt": -1, "stimulus": "<p id=\"stim\">6</p>", "key_press": -1, "trial_type": "single-stim", "trial_index": 14, "time_elapsed": 207281, "internal_node_id": "0.0-10.0-4.0"}}, {"uniqueid": "MTK0692:3G5F9DBFOQ4VK5SOA3UENG9CHX5VH0", "current_trial": 15, "dateTime": 1512599246815, "trialdata": {"rt": -1, "stimulus": "<p id=\"stim\">5</p>", "key_press": -1, "trial_type": "single-stim", "trial_index": 15, "time_elapsed": 208282, "internal_node_id": "0.0-10.0-5.0"}}, {"uniqueid": "MTK0692:3G5F9DBFOQ4VK5SOA3UENG9CHX5VH0", "current_trial": 16, "dateTime": 1512599247816, "trialdata": {"rt": -1, "stimulus": "<p id=\"stim\">4</p>", "key_press": -1, "trial_type": "single-stim", "trial_index": 16, "time_elapsed": 209284, "internal_node_id": "0.0-10.0-6.0"}}, {"uniqueid": "MTK0692:3G5F9DBFOQ4VK5SOA3UENG9CHX5VH0", "current_trial": 17, "dateTime": 1512599248818, "trialdata": {"rt": -1, "stimulus": "<p id=\"stim\">3</p>", "key_press": -1, "trial_type": "single-stim", "trial_index": 17, "time_elapsed": 210286, "internal_node_id": "0.0-10.0-7.0"}}, {"uniqueid": "MTK0692:3G5F9DBFOQ4VK5SOA3UENG9CHX5VH0", "current_trial": 18, "dateTime": 1512599249830, "trialdata": {"rt": -1, "stimulus": "<p id=\"stim\">2</p>", "key_press": -1, "trial_type": "single-stim", "trial_index": 18, "time_elapsed": 211298, "internal_node_id": "0.0-10.0-8.0"}}, {"uniqueid": "MTK0692:3G5F9DBFOQ4VK5SOA3UENG9CHX5VH0", "current_trial": 19, "dateTime": 1512599250849, "trialdata": {"rt": -1, "stimulus": "<p id=\"stim\">1</p>", "key_press": -1, "trial_type": "single-stim", "trial_index": 19, "time_elapsed": 212317, "internal_node_id": "0.0-10.0-9.0"}}, {"uniqueid": "MTK0692:3G5F9DBFOQ4VK5SOA3UENG9CHX5VH0", "current_trial": 20, "dateTime": 1512599252358, "trialdata": {"rt": -1, "stimulus": "<p id=\"stim\">+</p>", "key_press": -1, "type": "FIXATION", "trial_type": "single-stim", "trial_index": 20, "time_elapsed": 213826, "internal_node_id": "0.0-11.0-0.0"}}, {"uniqueid": "MTK0692:3G5F9DBFOQ4VK5SOA3UENG9CHX5VH0", "current_trial": 21, "dateTime": 1512599253564, "trialdata": {"rt": -1, "stimulus": "<p id=\"stim\">LEOPARD</p>", "key_press": -1, "type": "PRES_VIS", "word": "leopard", "wordID": 811, "conditions": [18, 1200, "v", 18000], "trial": 0, "serialpos": 0, "trial_type": "single-stim", "trial_index": 21, "time_elapsed": 215032, "internal_node_id": "0.0-12.0"}}, {"uniqueid": "MTK0692:3G5F9DBFOQ4VK5SOA3UENG9CHX5VH0", "current_trial": 22, "dateTime": 1512599255862, "trialdata": {"rt": -1, "stimulus": "<p id=\"stim\">LION</p>", "key_press": -1, "type": "PRES_VIS", "word": "lion", "wordID": 826, "conditions": [18, 1200, "v", 18000], "trial": 0, "serialpos": 1, "trial_type": "single-stim", "trial_index": 22, "time_elapsed": 217330, "internal_node_id": "0.0-13.0"}}, {"uniqueid": "MTK0692:3G5F9DBFOQ4VK5SOA3UENG9CHX5VH0", "current_trial": 23, "dateTime": 1512599258077, "trialdata": {"rt": -1, "stimulus": "<p id=\"stim\">ZIPPER</p>", "key_press": -1, "type": "PRES_VIS", "word": "zipper", "wordID": 1635, "conditions": [18, 1200, "v", 18000], "trial": 0, "serialpos": 2, "trial_type": "single-stim", "trial_index": 23, "time_elapsed": 219545, "internal_node_id": "0.0-14.0"}}, {"uniqueid": "MTK0692:3G5F9DBFOQ4VK5SOA3UENG9CHX5VH0", "current_trial": 24, "dateTime": 1512599260250, "trialdata": {"rt": -1, "stimulus": "<p id=\"stim\">STONE</p>", "key_press": -1, "type": "PRES_VIS", "word": "stone", "wordID": 1384, "conditions": [18, 1200, "v", 18000], "trial": 0, "serialpos": 3, "trial_type": "single-stim", "trial_index": 24, "time_elapsed": 221717, "internal_node_id": "0.0-15.0"}}, {"uniqueid": "MTK0692:3G5F9DBFOQ4VK5SOA3UENG9CHX5VH0", "current_trial": 25, "dateTime": 1512599262432, "trialdata": {"rt": -1, "stimulus": "<p id=\"stim\">CASKET</p>", "key_press": -1, "type": "PRES_VIS", "word": "casket", "wordID": 254, "conditions": [18, 1200, "v", 18000], "trial": 0, "serialpos": 4, "trial_type": "single-stim", "trial_index": 25, "time_elapsed": 223900, "internal_node_id": "0.0-16.0"}}, {"uniqueid": "MTK0692:3G5F9DBFOQ4VK5SOA3UENG9CHX5VH0", "current_trial": 26, "dateTime": 1512599264534, "trialdata": {"rt": -1, "stimulus": "<p id=\"stim\">MATCH</p>", "key_press": -1, "type": "PRES_VIS", "word": "match", "wordID": 877, "conditions": [18, 1200, "v", 18000], "trial": 0, "serialpos": 5, "trial_type": "single-stim", "trial_index": 26, "time_elapsed": 226002, "internal_node_id": "0.0-17.0"}}, {"uniqueid": "MTK0692:3G5F9DBFOQ4VK5SOA3UENG9CHX5VH0", "current_trial": 27, "dateTime": 1512599266765, "trialdata": {"rt": -1, "stimulus": "<p id=\"stim\">CHEMIST</p>", "key_press": -1, "type": "PRES_VIS", "word": "chemist", "wordID": 291, "conditions": [18, 1200, "v", 18000], "trial": 0, "serialpos": 6, "trial_type": "single-stim", "trial_index": 27, "time_elapsed": 228233, "internal_node_id": "0.0-18.0"}}, {"uniqueid": "MTK0692:3G5F9DBFOQ4VK5SOA3UENG9CHX5VH0", "current_trial": 28, "dateTime": 1512599269597, "trialdata": {"rt": -1, "stimulus": "<p id=\"stim\">ARM</p>", "key_press": -1, "type": "PRES_VIS", "word": "arm", "wordID": 37, "conditions": [18, 1200, "v", 18000], "trial": 0, "serialpos": 7, "trial_type": "single-stim", "trial_index": 28, "time_elapsed": 231065, "internal_node_id": "0.0-19.0"}}, {"uniqueid": "MTK0692:3G5F9DBFOQ4VK5SOA3UENG9CHX5VH0", "current_trial": 29, "dateTime": 1512599271825, "trialdata": {"rt": -1, "stimulus": "<p id=\"stim\">SILK</p>", "key_press": -1, "type": "PRES_VIS", "word": "silk", "wordID": 1306, "conditions": [18, 1200, "v", 18000], "trial": 0, "serialpos": 8, "trial_type": "single-stim", "trial_index": 29, "time_elapsed": 233293, "internal_node_id": "0.0-20.0"}}, {"uniqueid": "MTK0692:3G5F9DBFOQ4VK5SOA3UENG9CHX5VH0", "current_trial": 30, "dateTime": 1512599274118, "trialdata": {"rt": -1, "stimulus": "<p id=\"stim\">STALLION</p>", "key_press": -1, "type": "PRES_VIS", "word": "stallion", "wordID": 1368, "conditions": [18, 1200, "v", 18000], "trial": 0, "serialpos": 9, "trial_type": "single-stim", "trial_index": 30, "time_elapsed": 235586, "internal_node_id": "0.0-21.0"}}, {"uniqueid": "MTK0692:3G5F9DBFOQ4VK5SOA3UENG9CHX5VH0", "current_trial": 31, "dateTime": 1512599276144, "trialdata": {"rt": -1, "stimulus": "<p id=\"stim\">BUCKET</p>", "key_press": -1, "type": "PRES_VIS", "word": "bucket", "wordID": 183, "conditions": [18, 1200, "v", 18000], "trial": 0, "serialpos": 10, "trial_type": "single-stim", "trial_index": 31, "time_elapsed": 237612, "internal_node_id": "0.0-22.0"}}, {"uniqueid": "MTK0692:3G5F9DBFOQ4VK5SOA3UENG9CHX5VH0", "current_trial": 32, "dateTime": 1512599278262, "trialdata": {"rt": -1, "stimulus": "<p id=\"stim\">NAPKIN</p>", "key_press": -1, "type": "PRES_VIS", "word": "napkin", "wordID": 936, "conditions": [18, 1200, "v", 18000], "trial": 0, "serialpos": 11, "trial_type": "single-stim", "trial_index": 32, "time_elapsed": 239730, "internal_node_id": "0.0-23.0"}}, {"uniqueid": "MTK0692:3G5F9DBFOQ4VK5SOA3UENG9CHX5VH0", "current_trial": 33, "dateTime": 1512599280567, "trialdata": {"rt": -1, "stimulus": "<p id=\"stim\">BLADE</p>", "key_press": -1, "type": "PRES_VIS", "word": "blade", "wordID": 133, "conditions": [18, 1200, "v", 18000], "trial": 0, "serialpos": 12, "trial_type": "single-stim", "trial_index": 33, "time_elapsed": 242035, "internal_node_id": "0.0-24.0"}}, {"uniqueid": "MTK0692:3G5F9DBFOQ4VK5SOA3UENG9CHX5VH0", "current_trial": 34, "dateTime": 1512599282862, "trialdata": {"rt": -1, "stimulus": "<p id=\"stim\">MOP</p>", "key_press": -1, "type": "PRES_VIS", "word": "mop", "wordID": 915, "conditions": [18, 1200, "v", 18000], "trial": 0, "serialpos": 13, "trial_type": "single-stim", "trial_index": 34, "time_elapsed": 244330, "internal_node_id": "0.0-25.0"}}, {"uniqueid": "MTK0692:3G5F9DBFOQ4VK5SOA3UENG9CHX5VH0", "current_trial": 35, "dateTime": 1512599285116, "trialdata": {"rt": -1, "stimulus": "<p id=\"stim\">PASSAGE</p>", "key_press": -1, "type": "PRES_VIS", "word": "passage", "wordID": 1018, "conditions": [18, 1200, "v", 18000], "trial": 0, "serialpos": 14, "trial_type": "single-stim", "trial_index": 35, "time_elapsed": 246583, "internal_node_id": "0.0-26.0"}}, {"uniqueid": "MTK0692:3G5F9DBFOQ4VK5SOA3UENG9CHX5VH0", "current_trial": 36, "dateTime": 1512599287250, "trialdata": {"rt": -1, "stimulus": "<p id=\"stim\">TRUCK</p>", "key_press": -1, "type": "PRES_VIS", "word": "truck", "wordID": 1511, "conditions": [18, 1200, "v", 18000], "trial": 0, "serialpos": 15, "trial_type": "single-stim", "trial_index": 36, "time_elapsed": 248717, "internal_node_id": "0.0-27.0"}}, {"uniqueid": "MTK0692:3G5F9DBFOQ4VK5SOA3UENG9CHX5VH0", "current_trial": 37, "dateTime": 1512599289479, "trialdata": {"rt": -1, "stimulus": "<p id=\"stim\">BREAST</p>", "key_press": -1, "type": "PRES_VIS", "word": "breast", "wordID": 170, "conditions": [18, 1200, "v", 18000], "trial": 0, "serialpos": 16, "trial_type": "single-stim", "trial_index": 37, "time_elapsed": 250947, "internal_node_id": "0.0-28.0"}}, {"uniqueid": "MTK0692:3G5F9DBFOQ4VK5SOA3UENG9CHX5VH0", "current_trial": 38, "dateTime": 1512599291505, "trialdata": {"rt": -1, "stimulus": "<p id=\"stim\">VALLEY</p>", "key_press": -1, "type": "PRES_VIS", "word": "valley", "wordID": 1544, "conditions": [18, 1200, "v", 18000], "trial": 0, "serialpos": 17, "trial_type": "single-stim", "trial_index": 38, "time_elapsed": 252972, "internal_node_id": "0.0-29.0"}}, {"uniqueid": "MTK0692:3G5F9DBFOQ4VK5SOA3UENG9CHX5VH0", "current_trial": 39, "dateTime": 1512599293676, "trialdata": {"rt": -1, "stimulus": "", "key_press": -1, "type": "PRE_RECALL_DELAY", "trial_type": "single-stim", "trial_index": 39, "time_elapsed": 255144, "internal_node_id": "0.0-30.0-0.0"}}, {"uniqueid": "MTK0692:3G5F9DBFOQ4VK5SOA3UENG9CHX5VH0", "current_trial": 40, "dateTime": 1512599294180, "trialdata": {"rt": -1000, "stimulus": "/static/audio/400Hz.wav", "key_press": -1, "type": "PRE_RECALL_ALERT", "trial_type": "single-audio", "trial_index": 40, "time_elapsed": 255647, "internal_node_id": "0.0-31.0"}}, {"uniqueid": "MTK0692:3G5F9DBFOQ4VK5SOA3UENG9CHX5VH0", "current_trial": 41, "dateTime": 1512599354185, "trialdata": {"rt": [7349, 12020, 14179, 17867, 20147, 32428], "recwords": ["valley", "truck", "mop", "leopard", "lion", "zipper"], "type": "FREE_RECALL", "conditions": [18, 1200, "v", 18000], "trial": 0, "trial_type": "free-recall", "trial_index": 41, "time_elapsed": 315651, "internal_node_id": "0.0-32.0-0.0"}}, {"uniqueid": "MTK0692:3G5F9DBFOQ4VK5SOA3UENG9CHX5VH0", "current_trial": 42, "dateTime": 1512599358193, "trialdata": {"rt": 2007, "key_press": 32, "type": "INSTRUCTIONS", "trial_type": "text", "trial_index": 42, "time_elapsed": 319661, "internal_node_id": "0.0-33.0"}}, {"uniqueid": "MTK0692:3G5F9DBFOQ4VK5SOA3UENG9CHX5VH0", "current_trial": 43, "dateTime": 1512599378196, "trialdata": {"rt": [3606, 6095, 8690, 8738, 10215, 12223, 14720, 17047], "responses": ["17", "15", "16", "", "5", "11", "16", "13"], "num1": [8, 4, 2, 7, 2, 6, 8, 2, 8], "num2": [5, 7, 8, 8, 2, 1, 3, 6, 9], "num3": [4, 4, 6, 2, 1, 4, 5, 5, 5], "type": "DISTRACTOR", "conditions": [18, 1200, "a", 18000], "trial": 1, "trial_type": "math-distractor", "trial_index": 43, "time_elapsed": 339664, "internal_node_id": "0.0-34.0"}}, {"uniqueid": "MTK0692:3G5F9DBFOQ4VK5SOA3UENG9CHX5VH0", "current_trial": 44, "dateTime": 1512599381199, "trialdata": {"rt": -1, "stimulus": "<p id=\"stim\">10</p>", "key_press": -1, "trial_type": "single-stim", "trial_index": 44, "time_elapsed": 342667, "internal_node_id": "0.0-35.0-0.0"}}, {"uniqueid": "MTK0692:3G5F9DBFOQ4VK5SOA3UENG9CHX5VH0", "current_trial": 45, "dateTime": 1512599382200, "trialdata": {"rt": -1, "stimulus": "<p id=\"stim\">9</p>", "key_press": -1, "trial_type": "single-stim", "trial_index": 45, "time_elapsed": 343668, "internal_node_id": "0.0-35.0-1.0"}}, {"uniqueid": "MTK0692:3G5F9DBFOQ4VK5SOA3UENG9CHX5VH0", "current_trial": 46, "dateTime": 1512599383201, "trialdata": {"rt": -1, "stimulus": "<p id=\"stim\">8</p>", "key_press": -1, "trial_type": "single-stim", "trial_index": 46, "time_elapsed": 344669, "internal_node_id": "0.0-35.0-2.0"}}, {"uniqueid": "MTK0692:3G5F9DBFOQ4VK5SOA3UENG9CHX5VH0", "current_trial": 47, "dateTime": 1512599384203, "trialdata": {"rt": -1, "stimulus": "<p id=\"stim\">7</p>", "key_press": -1, "trial_type": "single-stim", "trial_index": 47, "time_elapsed": 345671, "internal_node_id": "0.0-35.0-3.0"}}, {"uniqueid": "MTK0692:3G5F9DBFOQ4VK5SOA3UENG9CHX5VH0", "current_trial": 48, "dateTime": 1512599385204, "trialdata": {"rt": -1, "stimulus": "<p id=\"stim\">6</p>", "key_press": -1, "trial_type": "single-stim", "trial_index": 48, "time_elapsed": 346672, "internal_node_id": "0.0-35.0-4.0"}}, {"uniqueid": "MTK0692:3G5F9DBFOQ4VK5SOA3UENG9CHX5VH0", "current_trial": 49, "dateTime": 1512599386207, "trialdata": {"rt": -1, "stimulus": "<p id=\"stim\">5</p>", "key_press": -1, "trial_type": "single-stim", "trial_index": 49, "time_elapsed": 347674, "internal_node_id": "0.0-35.0-5.0"}}, {"uniqueid": "MTK0692:3G5F9DBFOQ4VK5SOA3UENG9CHX5VH0", "current_trial": 50, "dateTime": 1512599387208, "trialdata": {"rt": -1, "stimulus": "<p id=\"stim\">4</p>", "key_press": -1, "trial_type": "single-stim", "trial_index": 50, "time_elapsed": 348676, "internal_node_id": "0.0-35.0-6.0"}}, {"uniqueid": "MTK0692:3G5F9DBFOQ4VK5SOA3UENG9CHX5VH0", "current_trial": 51, "dateTime": 1512599388212, "trialdata": {"rt": -1, "stimulus": "<p id=\"stim\">3</p>", "key_press": -1, "trial_type": "single-stim", "trial_index": 51, "time_elapsed": 349680, "internal_node_id": "0.0-35.0-7.0"}}, {"uniqueid": "MTK0692:3G5F9DBFOQ4VK5SOA3UENG9CHX5VH0", "current_trial": 52, "dateTime": 1512599389215, "trialdata": {"rt": -1, "stimulus": "<p id=\"stim\">2</p>", "key_press": -1, "trial_type": "single-stim", "trial_index": 52, "time_elapsed": 350683, "internal_node_id": "0.0-35.0-8.0"}}, {"uniqueid": "MTK0692:3G5F9DBFOQ4VK5SOA3UENG9CHX5VH0", "current_trial": 53, "dateTime": 1512599390217, "trialdata": {"rt": -1, "stimulus": "<p id=\"stim\">1</p>", "key_press": -1, "trial_type": "single-stim", "trial_index": 53, "time_elapsed": 351685, "internal_node_id": "0.0-35.0-9.0"}}, {"uniqueid": "MTK0692:3G5F9DBFOQ4VK5SOA3UENG9CHX5VH0", "current_trial": 54, "dateTime": 1512599391719, "trialdata": {"rt": -1, "stimulus": "<p id=\"stim\">+</p>", "key_press": -1, "type": "FIXATION", "trial_type": "single-stim", "trial_index": 54, "time_elapsed": 353187, "internal_node_id": "0.0-36.0-0.0"}}, {"uniqueid": "MTK0692:3G5F9DBFOQ4VK5SOA3UENG9CHX5VH0", "current_trial": 55, "dateTime": 1512599393980, "trialdata": {"rt": -1000, "stimulus": "/static/audio/wordpool/AIRPLANE.wav", "key_press": -1, "type": "PRES_AUD", "word": "airplane", "wordID": 11, "conditions": [18, 1200, "a", 18000], "trial": 1, "serialpos": 0, "trial_type": "single-audio", "trial_index": 55, "time_elapsed": 355448, "internal_node_id": "0.0-37.0"}}, {"uniqueid": "MTK0692:3G5F9DBFOQ4VK5SOA3UENG9CHX5VH0", "current_trial": 56, "dateTime": 1512599396083, "trialdata": {"rt": -1000, "stimulus": "/static/audio/wordpool/PARROT.wav", "key_press": -1, "type": "PRES_AUD", "word": "parrot", "wordID": 1014, "conditions": [18, 1200, "a", 18000], "trial": 1, "serialpos": 1, "trial_type": "single-audio", "trial_index": 56, "time_elapsed": 357550, "internal_node_id": "0.0-38.0"}}, {"uniqueid": "MTK0692:3G5F9DBFOQ4VK5SOA3UENG9CHX5VH0", "current_trial": 57, "dateTime": 1512599398483, "trialdata": {"rt": -1000, "stimulus": "/static/audio/wordpool/WIDOW.wav", "key_press": -1, "type": "PRES_AUD", "word": "widow", "wordID": 1607, "conditions": [18, 1200, "a", 18000], "trial": 1, "serialpos": 2, "trial_type": "single-audio", "trial_index": 57, "time_elapsed": 359951, "internal_node_id": "0.0-39.0"}}, {"uniqueid": "MTK0692:3G5F9DBFOQ4VK5SOA3UENG9CHX5VH0", "current_trial": 58, "dateTime": 1512599400495, "trialdata": {"rt": -1000, "stimulus": "/static/audio/wordpool/COCOON.wav", "key_press": -1, "type": "PRES_AUD", "word": "cocoon", "wordID": 338, "conditions": [18, 1200, "a", 18000], "trial": 1, "serialpos": 3, "trial_type": "single-audio", "trial_index": 58, "time_elapsed": 361963, "internal_node_id": "0.0-40.0"}}, {"uniqueid": "MTK0692:3G5F9DBFOQ4VK5SOA3UENG9CHX5VH0", "current_trial": 59, "dateTime": 1512599402516, "trialdata": {"rt": -1000, "stimulus": "/static/audio/wordpool/TERMITE.wav", "key_press": -1, "type": "PRES_AUD", "word": "termite", "wordID": 1450, "conditions": [18, 1200, "a", 18000], "trial": 1, "serialpos": 4, "trial_type": "single-audio", "trial_index": 59, "time_elapsed": 363984, "internal_node_id": "0.0-41.0"}}, {"uniqueid": "MTK0692:3G5F9DBFOQ4VK5SOA3UENG9CHX5VH0", "current_trial": 60, "dateTime": 1512599404616, "trialdata": {"rt": -1000, "stimulus": "/static/audio/wordpool/BRANDY.wav", "key_press": -1, "type": "PRES_AUD", "word": "brandy", "wordID": 168, "conditions": [18, 1200, "a", 18000], "trial": 1, "serialpos": 5, "trial_type": "single-audio", "trial_index": 60, "time_elapsed": 366084, "internal_node_id": "0.0-42.0"}}, {"uniqueid": "MTK0692:3G5F9DBFOQ4VK5SOA3UENG9CHX5VH0", "current_trial": 61, "dateTime": 1512599406873, "trialdata": {"rt": -1000, "stimulus": "/static/audio/wordpool/SISTER.wav", "key_press": -1, "type": "PRES_AUD", "word": "sister", "wordID": 1311, "conditions": [18, 1200, "a", 18000], "trial": 1, "serialpos": 6, "trial_type": "single-audio", "trial_index": 61, "time_elapsed": 368341, "internal_node_id": "0.0-43.0"}}, {"uniqueid": "MTK0692:3G5F9DBFOQ4VK5SOA3UENG9CHX5VH0", "current_trial": 62, "dateTime": 1512599409176, "trialdata": {"rt": -1000, "stimulus": "/static/audio/wordpool/PLASTER.wav", "key_press": -1, "type": "PRES_AUD", "word": "plaster", "wordID": 1084, "conditions": [18, 1200, "a", 18000], "trial": 1, "serialpos": 7, "trial_type": "single-audio", "trial_index": 62, "time_elapsed": 370643, "internal_node_id": "0.0-44.0"}}, {"uniqueid": "MTK0692:3G5F9DBFOQ4VK5SOA3UENG9CHX5VH0", "current_trial": 63, "dateTime": 1512599411367, "trialdata": {"rt": -1000, "stimulus": "/static/audio/wordpool/BANJO.wav", "key_press": -1, "type": "PRES_AUD", "word": "banjo", "wordID": 81, "conditions": [18, 1200, "a", 18000], "trial": 1, "serialpos": 8, "trial_type": "single-audio", "trial_index": 63, "time_elapsed": 372835, "internal_node_id": "0.0-45.0"}}, {"uniqueid": "MTK0692:3G5F9DBFOQ4VK5SOA3UENG9CHX5VH0", "current_trial": 64, "dateTime": 1512599413404, "trialdata": {"rt": -1000, "stimulus": "/static/audio/wordpool/BOYFRIEND.wav", "key_press": -1, "type": "PRES_AUD", "word": "boyfriend", "wordID": 161, "conditions": [18, 1200, "a", 18000], "trial": 1, "serialpos": 9, "trial_type": "single-audio", "trial_index": 64, "time_elapsed": 374872, "internal_node_id": "0.0-46.0"}}, {"uniqueid": "MTK0692:3G5F9DBFOQ4VK5SOA3UENG9CHX5VH0", "current_trial": 65, "dateTime": 1512599415706, "trialdata": {"rt": -1000, "stimulus": "/static/audio/wordpool/CROSS.wav", "key_press": -1, "type": "PRES_AUD", "word": "cross", "wordID": 412, "conditions": [18, 1200, "a", 18000], "trial": 1, "serialpos": 10, "trial_type": "single-audio", "trial_index": 65, "time_elapsed": 377174, "internal_node_id": "0.0-47.0"}}, {"uniqueid": "MTK0692:3G5F9DBFOQ4VK5SOA3UENG9CHX5VH0", "current_trial": 66, "dateTime": 1512599417894, "trialdata": {"rt": -1000, "stimulus": "/static/audio/wordpool/PATROL.wav", "key_press": -1, "type": "PRES_AUD", "word": "patrol", "wordID": 1026, "conditions": [18, 1200, "a", 18000], "trial": 1, "serialpos": 11, "trial_type": "single-audio", "trial_index": 66, "time_elapsed": 379362, "internal_node_id": "0.0-48.0"}}, {"uniqueid": "MTK0692:3G5F9DBFOQ4VK5SOA3UENG9CHX5VH0", "current_trial": 67, "dateTime": 1512599419914, "trialdata": {"rt": -1000, "stimulus": "/static/audio/wordpool/CITRUS.wav", "key_press": -1, "type": "PRES_AUD", "word": "citrus", "wordID": 312, "conditions": [18, 1200, "a", 18000], "trial": 1, "serialpos": 12, "trial_type": "single-audio", "trial_index": 67, "time_elapsed": 381382, "internal_node_id": "0.0-49.0"}}, {"uniqueid": "MTK0692:3G5F9DBFOQ4VK5SOA3UENG9CHX5VH0", "current_trial": 68, "dateTime": 1512599422161, "trialdata": {"rt": -1000, "stimulus": "/static/audio/wordpool/WIFE.wav", "key_press": -1, "type": "PRES_AUD", "word": "wife", "wordID": 1608, "conditions": [18, 1200, "a", 18000], "trial": 1, "serialpos": 13, "trial_type": "single-audio", "trial_index": 68, "time_elapsed": 383628, "internal_node_id": "0.0-50.0"}}, {"uniqueid": "MTK0692:3G5F9DBFOQ4VK5SOA3UENG9CHX5VH0", "current_trial": 69, "dateTime": 1512599424483, "trialdata": {"rt": -1000, "stimulus": "/static/audio/wordpool/COUNTY.wav", "key_press": -1, "type": "PRES_AUD", "word": "county", "wordID": 388, "conditions": [18, 1200, "a", 18000], "trial": 1, "serialpos": 14, "trial_type": "single-audio", "trial_index": 69, "time_elapsed": 385951, "internal_node_id": "0.0-51.0"}}, {"uniqueid": "MTK0692:3G5F9DBFOQ4VK5SOA3UENG9CHX5VH0", "current_trial": 70, "dateTime": 1512599426718, "trialdata": {"rt": -1000, "stimulus": "/static/audio/wordpool/GUARD.wav", "key_press": -1, "type": "PRES_AUD", "word": "guard", "wordID": 666, "conditions": [18, 1200, "a", 18000], "trial": 1, "serialpos": 15, "trial_type": "single-audio", "trial_index": 70, "time_elapsed": 388186, "internal_node_id": "0.0-52.0"}}, {"uniqueid": "MTK0692:3G5F9DBFOQ4VK5SOA3UENG9CHX5VH0", "current_trial": 71, "dateTime": 1512599428772, "trialdata": {"rt": -1000, "stimulus": "/static/audio/wordpool/CABIN.wav", "key_press": -1, "type": "PRES_AUD", "word": "cabin", "wordID": 210, "conditions": [18, 1200, "a", 18000], "trial": 1, "serialpos": 16, "trial_type": "single-audio", "trial_index": 71, "time_elapsed": 390240, "internal_node_id": "0.0-53.0"}}, {"uniqueid": "MTK0692:3G5F9DBFOQ4VK5SOA3UENG9CHX5VH0", "current_trial": 72, "dateTime": 1512599431114, "trialdata": {"rt": -1000, "stimulus": "/static/audio/wordpool/COSTUME.wav", "key_press": -1, "type": "PRES_AUD", "word": "costume", "wordID": 382, "conditions": [18, 1200, "a", 18000], "trial": 1, "serialpos": 17, "trial_type": "single-audio", "trial_index": 72, "time_elapsed": 392582, "internal_node_id": "0.0-54.0"}}, {"uniqueid": "MTK0692:3G5F9DBFOQ4VK5SOA3UENG9CHX5VH0", "current_trial": 73, "dateTime": 1512599432358, "trialdata": {"rt": -1, "stimulus": "", "key_press": -1, "type": "PRE_RECALL_DELAY", "trial_type": "single-stim", "trial_index": 73, "time_elapsed": 393826, "internal_node_id": "0.0-55.0-0.0"}}, {"uniqueid": "MTK0692:3G5F9DBFOQ4VK5SOA3UENG9CHX5VH0", "current_trial": 74, "dateTime": 1512599432860, "trialdata": {"rt": -1000, "stimulus": "/static/audio/400Hz.wav", "key_press": -1, "type": "PRE_RECALL_ALERT", "trial_type": "single-audio", "trial_index": 74, "time_elapsed": 394328, "internal_node_id": "0.0-56.0"}}, {"uniqueid": "MTK0692:3G5F9DBFOQ4VK5SOA3UENG9CHX5VH0", "current_trial": 75, "dateTime": 1512599492866, "trialdata": {"rt": [5723, 8139, 11107, 13787, 18596, 20839, 32963], "recwords": ["costume", "cabin", "banjo", "cross", "boyfriend", "patrol", "wife"], "type": "FREE_RECALL", "conditions": [18, 1200, "a", 18000], "trial": 1, "trial_type": "free-recall", "trial_index": 75, "time_elapsed": 454331, "internal_node_id": "0.0-57.0-0.0"}}, {"uniqueid": "MTK0692:3G5F9DBFOQ4VK5SOA3UENG9CHX5VH0", "current_trial": 76, "dateTime": 1512599495221, "trialdata": {"rt": 351, "key_press": 84, "type": "INSTRUCTIONS", "trial_type": "text", "trial_index": 76, "time_elapsed": 456685, "internal_node_id": "0.0-58.0"}}, {"uniqueid": "MTK0692:3G5F9DBFOQ4VK5SOA3UENG9CHX5VH0", "current_trial": 77, "dateTime": 1512599508229, "trialdata": {"rt": [2265, 4041, 7617, 10050], "responses": ["12", "16", "20", "22"], "num1": [2, 6, 5, 9, 8], "num2": [9, 7, 8, 5, 6], "num3": [1, 3, 7, 8, 2], "type": "DISTRACTOR", "conditions": [24, 800, "a", 12000], "trial": 2, "trial_type": "math-distractor", "trial_index": 77, "time_elapsed": 469697, "internal_node_id": "0.0-59.0"}}, {"uniqueid": "MTK0692:3G5F9DBFOQ4VK5SOA3UENG9CHX5VH0", "current_trial": 78, "dateTime": 1512599511234, "trialdata": {"rt": -1, "stimulus": "<p id=\"stim\">10</p>", "key_press": -1, "trial_type": "single-stim", "trial_index": 78, "time_elapsed": 472701, "internal_node_id": "0.0-60.0-0.0"}}, {"uniqueid": "MTK0692:3G5F9DBFOQ4VK5SOA3UENG9CHX5VH0", "current_trial": 79, "dateTime": 1512599512235, "trialdata": {"rt": -1, "stimulus": "<p id=\"stim\">9</p>", "key_press": -1, "trial_type": "single-stim", "trial_index": 79, "time_elapsed": 473703, "internal_node_id": "0.0-60.0-1.0"}}, {"uniqueid": "MTK0692:3G5F9DBFOQ4VK5SOA3UENG9CHX5VH0", "current_trial": 80, "dateTime": 1512599513236, "trialdata": {"rt": -1, "stimulus": "<p id=\"stim\">8</p>", "key_press": -1, "trial_type": "single-stim", "trial_index": 80, "time_elapsed": 474704, "internal_node_id": "0.0-60.0-2.0"}}, {"uniqueid": "MTK0692:3G5F9DBFOQ4VK5SOA3UENG9CHX5VH0", "current_trial": 81, "dateTime": 1512599515122, "trialdata": {"rt": -1, "stimulus": "<p id=\"stim\">7</p>", "key_press": -1, "trial_type": "single-stim", "trial_index": 81, "time_elapsed": 476590, "internal_node_id": "0.0-60.0-3.0"}}, {"uniqueid": "MTK0692:3G5F9DBFOQ4VK5SOA3UENG9CHX5VH0", "current_trial": 82, "dateTime": 1512599516123, "trialdata": {"rt": -1, "stimulus": "<p id=\"stim\">6</p>", "key_press": -1, "trial_type": "single-stim", "trial_index": 82, "time_elapsed": 477591, "internal_node_id": "0.0-60.0-4.0"}}, {"uniqueid": "MTK0692:3G5F9DBFOQ4VK5SOA3UENG9CHX5VH0", "current_trial": 83, "dateTime": 1512599517124, "trialdata": {"rt": -1, "stimulus": "<p id=\"stim\">5</p>", "key_press": -1, "trial_type": "single-stim", "trial_index": 83, "time_elapsed": 478592, "internal_node_id": "0.0-60.0-5.0"}}, {"uniqueid": "MTK0692:3G5F9DBFOQ4VK5SOA3UENG9CHX5VH0", "current_trial": 84, "dateTime": 1512599518140, "trialdata": {"rt": -1, "stimulus": "<p id=\"stim\">4</p>", "key_press": -1, "trial_type": "single-stim", "trial_index": 84, "time_elapsed": 479608, "internal_node_id": "0.0-60.0-6.0"}}, {"uniqueid": "MTK0692:3G5F9DBFOQ4VK5SOA3UENG9CHX5VH0", "current_trial": 85, "dateTime": 1512599519141, "trialdata": {"rt": -1, "stimulus": "<p id=\"stim\">3</p>", "key_press": -1, "trial_type": "single-stim", "trial_index": 85, "time_elapsed": 480609, "internal_node_id": "0.0-60.0-7.0"}}, {"uniqueid": "MTK0692:3G5F9DBFOQ4VK5SOA3UENG9CHX5VH0", "current_trial": 86, "dateTime": 1512599520141, "trialdata": {"rt": -1, "stimulus": "<p id=\"stim\">2</p>", "key_press": -1, "trial_type": "single-stim", "trial_index": 86, "time_elapsed": 481609, "internal_node_id": "0.0-60.0-8.0"}}, {"uniqueid": "MTK0692:3G5F9DBFOQ4VK5SOA3UENG9CHX5VH0", "current_trial": 87, "dateTime": 1512599521144, "trialdata": {"rt": -1, "stimulus": "<p id=\"stim\">1</p>", "key_press": -1, "trial_type": "single-stim", "trial_index": 87, "time_elapsed": 482612, "internal_node_id": "0.0-60.0-9.0"}}, {"uniqueid": "MTK0692:3G5F9DBFOQ4VK5SOA3UENG9CHX5VH0", "current_trial": 88, "dateTime": 1512599522645, "trialdata": {"rt": -1, "stimulus": "<p id=\"stim\">+</p>", "key_press": -1, "type": "FIXATION", "trial_type": "single-stim", "trial_index": 88, "time_elapsed": 484113, "internal_node_id": "0.0-61.0-0.0"}}, {"uniqueid": "MTK0692:3G5F9DBFOQ4VK5SOA3UENG9CHX5VH0", "current_trial": 89, "dateTime": 1512599524550, "trialdata": {"rt": -1000, "stimulus": "/static/audio/wordpool/ROBBER.wav", "key_press": -1, "type": "PRES_AUD", "word": "robber", "wordID": 1196, "conditions": [24, 800, "a", 12000], "trial": 2, "serialpos": 0, "trial_type": "single-audio", "trial_index": 89, "time_elapsed": 486018, "internal_node_id": "0.0-62.0"}}, {"uniqueid": "MTK0692:3G5F9DBFOQ4VK5SOA3UENG9CHX5VH0", "current_trial": 90, "dateTime": 1512599526292, "trialdata": {"rt": -1000, "stimulus": "/static/audio/wordpool/PENGUIN.wav", "key_press": -1, "type": "PRES_AUD", "word": "penguin", "wordID": 1043, "conditions": [24, 800, "a", 12000], "trial": 2, "serialpos": 1, "trial_type": "single-audio", "trial_index": 90, "time_elapsed": 487759, "internal_node_id": "0.0-63.0"}}, {"uniqueid": "MTK0692:3G5F9DBFOQ4VK5SOA3UENG9CHX5VH0", "current_trial": 91, "dateTime": 1512599528000, "trialdata": {"rt": -1000, "stimulus": "/static/audio/wordpool/TURTLE.wav", "key_press": -1, "type": "PRES_AUD", "word": "turtle", "wordID": 1521, "conditions": [24, 800, "a", 12000], "trial": 2, "serialpos": 2, "trial_type": "single-audio", "trial_index": 91, "time_elapsed": 489467, "internal_node_id": "0.0-64.0"}}, {"uniqueid": "MTK0692:3G5F9DBFOQ4VK5SOA3UENG9CHX5VH0", "current_trial": 92, "dateTime": 1512599530000, "trialdata": {"rt": -1000, "stimulus": "/static/audio/wordpool/PLAID.wav", "key_press": -1, "type": "PRES_AUD", "word": "plaid", "wordID": 1079, "conditions": [24, 800, "a", 12000], "trial": 2, "serialpos": 3, "trial_type": "single-audio", "trial_index": 92, "time_elapsed": 491468, "internal_node_id": "0.0-65.0"}}, {"uniqueid": "MTK0692:3G5F9DBFOQ4VK5SOA3UENG9CHX5VH0", "current_trial": 93, "dateTime": 1512599531986, "trialdata": {"rt": -1000, "stimulus": "/static/audio/wordpool/BADGE.wav", "key_press": -1, "type": "PRES_AUD", "word": "badge", "wordID": 67, "conditions": [24, 800, "a", 12000], "trial": 2, "serialpos": 4, "trial_type": "single-audio", "trial_index": 93, "time_elapsed": 493453, "internal_node_id": "0.0-66.0"}}, {"uniqueid": "MTK0692:3G5F9DBFOQ4VK5SOA3UENG9CHX5VH0", "current_trial": 94, "dateTime": 1512599533725, "trialdata": {"rt": -1000, "stimulus": "/static/audio/wordpool/PUDDING.wav", "key_press": -1, "type": "PRES_AUD", "word": "pudding", "wordID": 1138, "conditions": [24, 800, "a", 12000], "trial": 2, "serialpos": 5, "trial_type": "single-audio", "trial_index": 94, "time_elapsed": 495193, "internal_node_id": "0.0-67.0"}}, {"uniqueid": "MTK0692:3G5F9DBFOQ4VK5SOA3UENG9CHX5VH0", "current_trial": 95, "dateTime": 1512599535591, "trialdata": {"rt": -1000, "stimulus": "/static/audio/wordpool/CATCHER.wav", "key_press": -1, "type": "PRES_AUD", "word": "catcher", "wordID": 257, "conditions": [24, 800, "a", 12000], "trial": 2, "serialpos": 6, "trial_type": "single-audio", "trial_index": 95, "time_elapsed": 497058, "internal_node_id": "0.0-68.0"}}, {"uniqueid": "MTK0692:3G5F9DBFOQ4VK5SOA3UENG9CHX5VH0", "current_trial": 96, "dateTime": 1512599537561, "trialdata": {"rt": -1000, "stimulus": "/static/audio/wordpool/FLESH.wav", "key_press": -1, "type": "PRES_AUD", "word": "flesh", "wordID": 578, "conditions": [24, 800, "a", 12000], "trial": 2, "serialpos": 7, "trial_type": "single-audio", "trial_index": 96, "time_elapsed": 499029, "internal_node_id": "0.0-69.0"}}, {"uniqueid": "MTK0692:3G5F9DBFOQ4VK5SOA3UENG9CHX5VH0", "current_trial": 97, "dateTime": 1512599539229, "trialdata": {"rt": -1000, "stimulus": "/static/audio/wordpool/BISON.wav", "key_press": -1, "type": "PRES_AUD", "word": "bison", "wordID": 130, "conditions": [24, 800, "a", 12000], "trial": 2, "serialpos": 8, "trial_type": "single-audio", "trial_index": 97, "time_elapsed": 500696, "internal_node_id": "0.0-70.0"}}, {"uniqueid": "MTK0692:3G5F9DBFOQ4VK5SOA3UENG9CHX5VH0", "current_trial": 98, "dateTime": 1512599540998, "trialdata": {"rt": -1000, "stimulus": "/static/audio/wordpool/CUSTARD.wav", "key_press": -1, "type": "PRES_AUD", "word": "custard", "wordID": 428, "conditions": [24, 800, "a", 12000], "trial": 2, "serialpos": 9, "trial_type": "single-audio", "trial_index": 98, "time_elapsed": 502465, "internal_node_id": "0.0-71.0"}}, {"uniqueid": "MTK0692:3G5F9DBFOQ4VK5SOA3UENG9CHX5VH0", "current_trial": 99, "dateTime": 1512599542981, "trialdata": {"rt": -1000, "stimulus": "/static/audio/wordpool/GUITAR.wav", "key_press": -1, "type": "PRES_AUD", "word": "guitar", "wordID": 669, "conditions": [24, 800, "a", 12000], "trial": 2, "serialpos": 10, "trial_type": "single-audio", "trial_index": 99, "time_elapsed": 504449, "internal_node_id": "0.0-72.0"}}, {"uniqueid": "MTK0692:3G5F9DBFOQ4VK5SOA3UENG9CHX5VH0", "current_trial": 100, "dateTime": 1512599544644, "trialdata": {"rt": -1000, "stimulus": "/static/audio/wordpool/ORANGE.wav", "key_press": -1, "type": "PRES_AUD", "word": "orange", "wordID": 979, "conditions": [24, 800, "a", 12000], "trial": 2, "serialpos": 11, "trial_type": "single-audio", "trial_index": 100, "time_elapsed": 506112, "internal_node_id": "0.0-73.0"}}, {"uniqueid": "MTK0692:3G5F9DBFOQ4VK5SOA3UENG9CHX5VH0", "current_trial": 101, "dateTime": 1512599546285, "trialdata": {"rt": -1000, "stimulus": "/static/audio/wordpool/ISLAND.wav", "key_press": -1, "type": "PRES_AUD", "word": "island", "wordID": 744, "conditions": [24, 800, "a", 12000], "trial": 2, "serialpos": 12, "trial_type": "single-audio", "trial_index": 101, "time_elapsed": 507753, "internal_node_id": "0.0-74.0"}}, {"uniqueid": "MTK0692:3G5F9DBFOQ4VK5SOA3UENG9CHX5VH0", "current_trial": 102, "dateTime": 1512599548145, "trialdata": {"rt": -1000, "stimulus": "/static/audio/wordpool/DRAWING.wav", "key_press": -1, "type": "PRES_AUD", "word": "drawing", "wordID": 493, "conditions": [24, 800, "a", 12000], "trial": 2, "serialpos": 13, "trial_type": "single-audio", "trial_index": 102, "time_elapsed": 509613, "internal_node_id": "0.0-75.0"}}, {"uniqueid": "MTK0692:3G5F9DBFOQ4VK5SOA3UENG9CHX5VH0", "current_trial": 103, "dateTime": 1512599550001, "trialdata": {"rt": -1000, "stimulus": "/static/audio/wordpool/PIMPLE.wav", "key_press": -1, "type": "PRES_AUD", "word": "pimple", "wordID": 1070, "conditions": [24, 800, "a", 12000], "trial": 2, "serialpos": 14, "trial_type": "single-audio", "trial_index": 103, "time_elapsed": 511469, "internal_node_id": "0.0-76.0"}}, {"uniqueid": "MTK0692:3G5F9DBFOQ4VK5SOA3UENG9CHX5VH0", "current_trial": 104, "dateTime": 1512599551660, "trialdata": {"rt": -1000, "stimulus": "/static/audio/wordpool/BLACKBOARD.wav", "key_press": -1, "type": "PRES_AUD", "word": "blackboard", "wordID": 132, "conditions": [24, 800, "a", 12000], "trial": 2, "serialpos": 15, "trial_type": "single-audio", "trial_index": 104, "time_elapsed": 513128, "internal_node_id": "0.0-77.0"}}, {"uniqueid": "MTK0692:3G5F9DBFOQ4VK5SOA3UENG9CHX5VH0", "current_trial": 105, "dateTime": 1512599553295, "trialdata": {"rt": -1000, "stimulus": "/static/audio/wordpool/SIBLING.wav", "key_press": -1, "type": "PRES_AUD", "word": "sibling", "wordID": 1300, "conditions": [24, 800, "a", 12000], "trial": 2, "serialpos": 16, "trial_type": "single-audio", "trial_index": 105, "time_elapsed": 514763, "internal_node_id": "0.0-78.0"}}, {"uniqueid": "MTK0692:3G5F9DBFOQ4VK5SOA3UENG9CHX5VH0", "current_trial": 106, "dateTime": 1512599555197, "trialdata": {"rt": -1000, "stimulus": "/static/audio/wordpool/SALAD.wav", "key_press": -1, "type": "PRES_AUD", "word": "salad", "wordID": 1223, "conditions": [24, 800, "a", 12000], "trial": 2, "serialpos": 17, "trial_type": "single-audio", "trial_index": 106, "time_elapsed": 516665, "internal_node_id": "0.0-79.0"}}, {"uniqueid": "MTK0692:3G5F9DBFOQ4VK5SOA3UENG9CHX5VH0", "current_trial": 107, "dateTime": 1512599557021, "trialdata": {"rt": -1000, "stimulus": "/static/audio/wordpool/GRILL.wav", "key_press": -1, "type": "PRES_AUD", "word": "grill", "wordID": 660, "conditions": [24, 800, "a", 12000], "trial": 2, "serialpos": 18, "trial_type": "single-audio", "trial_index": 107, "time_elapsed": 518489, "internal_node_id": "0.0-80.0"}}, {"uniqueid": "MTK0692:3G5F9DBFOQ4VK5SOA3UENG9CHX5VH0", "current_trial": 108, "dateTime": 1512599558926, "trialdata": {"rt": -1000, "stimulus": "/static/audio/wordpool/COOK.wav", "key_press": -1, "type": "PRES_AUD", "word": "cook", "wordID": 371, "conditions": [24, 800, "a", 12000], "trial": 2, "serialpos": 19, "trial_type": "single-audio", "trial_index": 108, "time_elapsed": 520393, "internal_node_id": "0.0-81.0"}}, {"uniqueid": "MTK0692:3G5F9DBFOQ4VK5SOA3UENG9CHX5VH0", "current_trial": 109, "dateTime": 1512599560605, "trialdata": {"rt": -1000, "stimulus": "/static/audio/wordpool/BROTHER.wav", "key_press": -1, "type": "PRES_AUD", "word": "brother", "wordID": 178, "conditions": [24, 800, "a", 12000], "trial": 2, "serialpos": 20, "trial_type": "single-audio", "trial_index": 109, "time_elapsed": 522073, "internal_node_id": "0.0-82.0"}}, {"uniqueid": "MTK0692:3G5F9DBFOQ4VK5SOA3UENG9CHX5VH0", "current_trial": 110, "dateTime": 1512599562256, "trialdata": {"rt": -1000, "stimulus": "/static/audio/wordpool/SEAGULL.wav", "key_press": -1, "type": "PRES_AUD", "word": "seagull", "wordID": 1260, "conditions": [24, 800, "a", 12000], "trial": 2, "serialpos": 21, "trial_type": "single-audio", "trial_index": 110, "time_elapsed": 523724, "internal_node_id": "0.0-83.0"}}, {"uniqueid": "MTK0692:3G5F9DBFOQ4VK5SOA3UENG9CHX5VH0", "current_trial": 111, "dateTime": 1512599563881, "trialdata": {"rt": -1000, "stimulus": "/static/audio/wordpool/FLAG.wav", "key_press": -1, "type": "PRES_AUD", "word": "flag", "wordID": 572, "conditions": [24, 800, "a", 12000], "trial": 2, "serialpos": 22, "trial_type": "single-audio", "trial_index": 111, "time_elapsed": 525349, "internal_node_id": "0.0-84.0"}}, {"uniqueid": "MTK0692:3G5F9DBFOQ4VK5SOA3UENG9CHX5VH0", "current_trial": 112, "dateTime": 1512599565659, "trialdata": {"rt": -1000, "stimulus": "/static/audio/wordpool/PADDING.wav", "key_press": -1, "type": "PRES_AUD", "word": "padding", "wordID": 998, "conditions": [24, 800, "a", 12000], "trial": 2, "serialpos": 23, "trial_type": "single-audio", "trial_index": 112, "time_elapsed": 527126, "internal_node_id": "0.0-85.0"}}, {"uniqueid": "MTK0692:3G5F9DBFOQ4VK5SOA3UENG9CHX5VH0", "current_trial": 113, "dateTime": 1512599567012, "trialdata": {"rt": -1, "stimulus": "", "key_press": -1, "type": "PRE_RECALL_DELAY", "trial_type": "single-stim", "trial_index": 113, "time_elapsed": 528480, "internal_node_id": "0.0-86.0-0.0"}}, {"uniqueid": "MTK0692:3G5F9DBFOQ4VK5SOA3UENG9CHX5VH0", "current_trial": 114, "dateTime": 1512599567513, "trialdata": {"rt": -1000, "stimulus": "/static/audio/400Hz.wav", "key_press": -1, "type": "PRE_RECALL_ALERT", "trial_type": "single-audio", "trial_index": 114, "time_elapsed": 528981, "internal_node_id": "0.0-87.0"}}, {"uniqueid": "MTK0692:3G5F9DBFOQ4VK5SOA3UENG9CHX5VH0", "current_trial": 115, "dateTime": 1512599627518, "trialdata": {"rt": [6167, 10343, 20823, 27315, 28848, 30768, 54895], "recwords": ["robber", "penguin", "painting", "sister", "brother", "sibling", "pimple"], "type": "FREE_RECALL", "conditions": [24, 800, "a", 12000], "trial": 2, "trial_type": "free-recall", "trial_index": 115, "time_elapsed": 588983, "internal_node_id": "0.0-88.0-0.0"}}, {"uniqueid": "MTK0692:3G5F9DBFOQ4VK5SOA3UENG9CHX5VH0", "current_trial": 116, "dateTime": 1512599631274, "trialdata": {"rt": 1754, "key_press": 32, "type": "INSTRUCTIONS", "trial_type": "text", "trial_index": 116, "time_elapsed": 592742, "internal_node_id": "0.0-89.0"}}, {"uniqueid": "MTK0692:3G5F9DBFOQ4VK5SOA3UENG9CHX5VH0", "current_trial": 117, "dateTime": 1512599645278, "trialdata": {"rt": [3454, 5622, 7270, 9310, 10662], "responses": ["13", "19", "19", "14", "5"], "num1": [7, 6, 7, 5, 2, 1], "num2": [1, 7, 6, 3, 2, 1], "num3": [5, 6, 6, 6, 1, 9], "type": "DISTRACTOR", "conditions": [12, 1600, "a", 12000], "trial": 3, "trial_type": "math-distractor", "trial_index": 117, "time_elapsed": 606745, "internal_node_id": "0.0-90.0"}}, {"uniqueid": "MTK0692:3G5F9DBFOQ4VK5SOA3UENG9CHX5VH0", "current_trial": 118, "dateTime": 1512599648281, "trialdata": {"rt": -1, "stimulus": "<p id=\"stim\">10</p>", "key_press": -1, "trial_type": "single-stim", "trial_index": 118, "time_elapsed": 609749, "internal_node_id": "0.0-91.0-0.0"}}, {"uniqueid": "MTK0692:3G5F9DBFOQ4VK5SOA3UENG9CHX5VH0", "current_trial": 119, "dateTime": 1512599649283, "trialdata": {"rt": -1, "stimulus": "<p id=\"stim\">9</p>", "key_press": -1, "trial_type": "single-stim", "trial_index": 119, "time_elapsed": 610751, "internal_node_id": "0.0-91.0-1.0"}}, {"uniqueid": "MTK0692:3G5F9DBFOQ4VK5SOA3UENG9CHX5VH0", "current_trial": 120, "dateTime": 1512599650284, "trialdata": {"rt": -1, "stimulus": "<p id=\"stim\">8</p>", "key_press": -1, "trial_type": "single-stim", "trial_index": 120, "time_elapsed": 611752, "internal_node_id": "0.0-91.0-2.0"}}, {"uniqueid": "MTK0692:3G5F9DBFOQ4VK5SOA3UENG9CHX5VH0", "current_trial": 121, "dateTime": 1512599651287, "trialdata": {"rt": -1, "stimulus": "<p id=\"stim\">7</p>", "key_press": -1, "trial_type": "single-stim", "trial_index": 121, "time_elapsed": 612754, "internal_node_id": "0.0-91.0-3.0"}}, {"uniqueid": "MTK0692:3G5F9DBFOQ4VK5SOA3UENG9CHX5VH0", "current_trial": 122, "dateTime": 1512599652288, "trialdata": {"rt": -1, "stimulus": "<p id=\"stim\">6</p>", "key_press": -1, "trial_type": "single-stim", "trial_index": 122, "time_elapsed": 613756, "internal_node_id": "0.0-91.0-4.0"}}, {"uniqueid": "MTK0692:3G5F9DBFOQ4VK5SOA3UENG9CHX5VH0", "current_trial": 123, "dateTime": 1512599653289, "trialdata": {"rt": -1, "stimulus": "<p id=\"stim\">5</p>", "key_press": -1, "trial_type": "single-stim", "trial_index": 123, "time_elapsed": 614757, "internal_node_id": "0.0-91.0-5.0"}}, {"uniqueid": "MTK0692:3G5F9DBFOQ4VK5SOA3UENG9CHX5VH0", "current_trial": 124, "dateTime": 1512599654291, "trialdata": {"rt": -1, "stimulus": "<p id=\"stim\">4</p>", "key_press": -1, "trial_type": "single-stim", "trial_index": 124, "time_elapsed": 615759, "internal_node_id": "0.0-91.0-6.0"}}, {"uniqueid": "MTK0692:3G5F9DBFOQ4VK5SOA3UENG9CHX5VH0", "current_trial": 125, "dateTime": 1512599655292, "trialdata": {"rt": -1, "stimulus": "<p id=\"stim\">3</p>", "key_press": -1, "trial_type": "single-stim", "trial_index": 125, "time_elapsed": 616760, "internal_node_id": "0.0-91.0-7.0"}}, {"uniqueid": "MTK0692:3G5F9DBFOQ4VK5SOA3UENG9CHX5VH0", "current_trial": 126, "dateTime": 1512599656294, "trialdata": {"rt": -1, "stimulus": "<p id=\"stim\">2</p>", "key_press": -1, "trial_type": "single-stim", "trial_index": 126, "time_elapsed": 617762, "internal_node_id": "0.0-91.0-8.0"}}, {"uniqueid": "MTK0692:3G5F9DBFOQ4VK5SOA3UENG9CHX5VH0", "current_trial": 127, "dateTime": 1512599657296, "trialdata": {"rt": -1, "stimulus": "<p id=\"stim\">1</p>", "key_press": -1, "trial_type": "single-stim", "trial_index": 127, "time_elapsed": 618764, "internal_node_id": "0.0-91.0-9.0"}}, {"uniqueid": "MTK0692:3G5F9DBFOQ4VK5SOA3UENG9CHX5VH0", "current_trial": 128, "dateTime": 1512599658797, "trialdata": {"rt": -1, "stimulus": "<p id=\"stim\">+</p>", "key_press": -1, "type": "FIXATION", "trial_type": "single-stim", "trial_index": 128, "time_elapsed": 620265, "internal_node_id": "0.0-92.0-0.0"}}, {"uniqueid": "MTK0692:3G5F9DBFOQ4VK5SOA3UENG9CHX5VH0", "current_trial": 129, "dateTime": 1512599661547, "trialdata": {"rt": -1000, "stimulus": "/static/audio/wordpool/OUTFIT.wav", "key_press": -1, "type": "PRES_AUD", "word": "outfit", "wordID": 987, "conditions": [12, 1600, "a", 12000], "trial": 3, "serialpos": 0, "trial_type": "single-audio", "trial_index": 129, "time_elapsed": 623014, "internal_node_id": "0.0-93.0"}}, {"uniqueid": "MTK0692:3G5F9DBFOQ4VK5SOA3UENG9CHX5VH0", "current_trial": 130, "dateTime": 1512599663964, "trialdata": {"rt": -1000, "stimulus": "/static/audio/wordpool/MAMMAL.wav", "key_press": -1, "type": "PRES_AUD", "word": "mammal", "wordID": 860, "conditions": [12, 1600, "a", 12000], "trial": 3, "serialpos": 1, "trial_type": "single-audio", "trial_index": 130, "time_elapsed": 625432, "internal_node_id": "0.0-94.0"}}, {"uniqueid": "MTK0692:3G5F9DBFOQ4VK5SOA3UENG9CHX5VH0", "current_trial": 131, "dateTime": 1512599666763, "trialdata": {"rt": -1000, "stimulus": "/static/audio/wordpool/SHORTCAKE.wav", "key_press": -1, "type": "PRES_AUD", "word": "shortcake", "wordID": 1291, "conditions": [12, 1600, "a", 12000], "trial": 3, "serialpos": 2, "trial_type": "single-audio", "trial_index": 131, "time_elapsed": 628231, "internal_node_id": "0.0-95.0"}}, {"uniqueid": "MTK0692:3G5F9DBFOQ4VK5SOA3UENG9CHX5VH0", "current_trial": 132, "dateTime": 1512599669254, "trialdata": {"rt": -1000, "stimulus": "/static/audio/wordpool/COUCH.wav", "key_press": -1, "type": "PRES_AUD", "word": "couch", "wordID": 385, "conditions": [12, 1600, "a", 12000], "trial": 3, "serialpos": 3, "trial_type": "single-audio", "trial_index": 132, "time_elapsed": 630722, "internal_node_id": "0.0-96.0"}}, {"uniqueid": "MTK0692:3G5F9DBFOQ4VK5SOA3UENG9CHX5VH0", "current_trial": 133, "dateTime": 1512599671997, "trialdata": {"rt": -1000, "stimulus": "/static/audio/wordpool/CABBAGE.wav", "key_press": -1, "type": "PRES_AUD", "word": "cabbage", "wordID": 209, "conditions": [12, 1600, "a", 12000], "trial": 3, "serialpos": 4, "trial_type": "single-audio", "trial_index": 133, "time_elapsed": 633465, "internal_node_id": "0.0-97.0"}}, {"uniqueid": "MTK0692:3G5F9DBFOQ4VK5SOA3UENG9CHX5VH0", "current_trial": 134, "dateTime": 1512599674800, "trialdata": {"rt": -1000, "stimulus": "/static/audio/wordpool/CATTLE.wav", "key_press": -1, "type": "PRES_AUD", "word": "cattle", "wordID": 260, "conditions": [12, 1600, "a", 12000], "trial": 3, "serialpos": 5, "trial_type": "single-audio", "trial_index": 134, "time_elapsed": 636268, "internal_node_id": "0.0-98.0"}}, {"uniqueid": "MTK0692:3G5F9DBFOQ4VK5SOA3UENG9CHX5VH0", "current_trial": 135, "dateTime": 1512599677420, "trialdata": {"rt": -1000, "stimulus": "/static/audio/wordpool/BEEF.wav", "key_press": -1, "type": "PRES_AUD", "word": "beef", "wordID": 112, "conditions": [12, 1600, "a", 12000], "trial": 3, "serialpos": 6, "trial_type": "single-audio", "trial_index": 135, "time_elapsed": 638888, "internal_node_id": "0.0-99.0"}}, {"uniqueid": "MTK0692:3G5F9DBFOQ4VK5SOA3UENG9CHX5VH0", "current_trial": 136, "dateTime": 1512599679886, "trialdata": {"rt": -1000, "stimulus": "/static/audio/wordpool/GRAVEL.wav", "key_press": -1, "type": "PRES_AUD", "word": "gravel", "wordID": 658, "conditions": [12, 1600, "a", 12000], "trial": 3, "serialpos": 7, "trial_type": "single-audio", "trial_index": 136, "time_elapsed": 641354, "internal_node_id": "0.0-100.0"}}, {"uniqueid": "MTK0692:3G5F9DBFOQ4VK5SOA3UENG9CHX5VH0", "current_trial": 137, "dateTime": 1512599682300, "trialdata": {"rt": -1000, "stimulus": "/static/audio/wordpool/PLAYGROUND.wav", "key_press": -1, "type": "PRES_AUD", "word": "playground", "wordID": 1086, "conditions": [12, 1600, "a", 12000], "trial": 3, "serialpos": 8, "trial_type": "single-audio", "trial_index": 137, "time_elapsed": 643768, "internal_node_id": "0.0-101.0"}}, {"uniqueid": "MTK0692:3G5F9DBFOQ4VK5SOA3UENG9CHX5VH0", "current_trial": 138, "dateTime": 1512599684863, "trialdata": {"rt": -1000, "stimulus": "/static/audio/wordpool/SCARF.wav", "key_press": -1, "type": "PRES_AUD", "word": "scarf", "wordID": 1245, "conditions": [12, 1600, "a", 12000], "trial": 3, "serialpos": 9, "trial_type": "single-audio", "trial_index": 138, "time_elapsed": 646331, "internal_node_id": "0.0-102.0"}}, {"uniqueid": "MTK0692:3G5F9DBFOQ4VK5SOA3UENG9CHX5VH0", "current_trial": 139, "dateTime": 1512599687480, "trialdata": {"rt": -1000, "stimulus": "/static/audio/wordpool/PIZZA.wav", "key_press": -1, "type": "PRES_AUD", "word": "pizza", "wordID": 1078, "conditions": [12, 1600, "a", 12000], "trial": 3, "serialpos": 10, "trial_type": "single-audio", "trial_index": 139, "time_elapsed": 648948, "internal_node_id": "0.0-103.0"}}, {"uniqueid": "MTK0692:3G5F9DBFOQ4VK5SOA3UENG9CHX5VH0", "current_trial": 140, "dateTime": 1512599689906, "trialdata": {"rt": -1000, "stimulus": "/static/audio/wordpool/PRIMATE.wav", "key_press": -1, "type": "PRES_AUD", "word": "primate", "wordID": 1122, "conditions": [12, 1600, "a", 12000], "trial": 3, "serialpos": 11, "trial_type": "single-audio", "trial_index": 140, "time_elapsed": 651373, "internal_node_id": "0.0-104.0"}}, {"uniqueid": "MTK0692:3G5F9DBFOQ4VK5SOA3UENG9CHX5VH0", "current_trial": 141, "dateTime": 1512599691163, "trialdata": {"rt": -1, "stimulus": "", "key_press": -1, "type": "PRE_RECALL_DELAY", "trial_type": "single-stim", "trial_index": 141, "time_elapsed": 652631, "internal_node_id": "0.0-105.0-0.0"}}, {"uniqueid": "MTK0692:3G5F9DBFOQ4VK5SOA3UENG9CHX5VH0", "current_trial": 142, "dateTime": 1512599691663, "trialdata": {"rt": -1000, "stimulus": "/static/audio/400Hz.wav", "key_press": -1, "type": "PRE_RECALL_ALERT", "trial_type": "single-audio", "trial_index": 142, "time_elapsed": 653131, "internal_node_id": "0.0-106.0"}}, {"uniqueid": "MTK0692:3G5F9DBFOQ4VK5SOA3UENG9CHX5VH0", "current_trial": 143, "dateTime": 1512599751669, "trialdata": {"rt": [3088, 6160, 8768, 10696, 10768, 13513, 15335], "recwords": ["mamma", "outfit", "scarf", "playground", "", "primate", "pizza"], "type": "FREE_RECALL", "conditions": [12, 1600, "a", 12000], "trial": 3, "trial_type": "free-recall", "trial_index": 143, "time_elapsed": 713135, "internal_node_id": "0.0-107.0-0.0"}}, {"uniqueid": "MTK0692:3G5F9DBFOQ4VK5SOA3UENG9CHX5VH0", "current_trial": 144, "dateTime": 1512599757393, "trialdata": {"rt": 3723, "key_press": 32, "type": "INSTRUCTIONS", "trial_type": "text", "trial_index": 144, "time_elapsed": 718861, "internal_node_id": "0.0-108.0"}}, {"uniqueid": "MTK0692:3G5F9DBFOQ4VK5SOA3UENG9CHX5VH0", "current_trial": 145, "dateTime": 1512599771396, "trialdata": {"rt": [2609, 4336, 6775, 9263, 11694], "responses": ["12", "19", "17", "14", "12"], "num1": [2, 7, 5, 7, 4, 8], "num2": [8, 6, 8, 5, 6, 3], "num3": [2, 6, 4, 2, 2, 2], "type": "DISTRACTOR", "conditions": [12, 1600, "v", 12000], "trial": 4, "trial_type": "math-distractor", "trial_index": 145, "time_elapsed": 732864, "internal_node_id": "0.0-109.0"}}, {"uniqueid": "MTK0692:3G5F9DBFOQ4VK5SOA3UENG9CHX5VH0", "current_trial": 146, "dateTime": 1512599774398, "trialdata": {"rt": -1, "stimulus": "<p id=\"stim\">10</p>", "key_press": -1, "trial_type": "single-stim", "trial_index": 146, "time_elapsed": 735866, "internal_node_id": "0.0-110.0-0.0"}}, {"uniqueid": "MTK0692:3G5F9DBFOQ4VK5SOA3UENG9CHX5VH0", "current_trial": 147, "dateTime": 1512599775399, "trialdata": {"rt": -1, "stimulus": "<p id=\"stim\">9</p>", "key_press": -1, "trial_type": "single-stim", "trial_index": 147, "time_elapsed": 736867, "internal_node_id": "0.0-110.0-1.0"}}, {"uniqueid": "MTK0692:3G5F9DBFOQ4VK5SOA3UENG9CHX5VH0", "current_trial": 148, "dateTime": 1512599776401, "trialdata": {"rt": -1, "stimulus": "<p id=\"stim\">8</p>", "key_press": -1, "trial_type": "single-stim", "trial_index": 148, "time_elapsed": 737869, "internal_node_id": "0.0-110.0-2.0"}}, {"uniqueid": "MTK0692:3G5F9DBFOQ4VK5SOA3UENG9CHX5VH0", "current_trial": 149, "dateTime": 1512599777402, "trialdata": {"rt": -1, "stimulus": "<p id=\"stim\">7</p>", "key_press": -1, "trial_type": "single-stim", "trial_index": 149, "time_elapsed": 738870, "internal_node_id": "0.0-110.0-3.0"}}, {"uniqueid": "MTK0692:3G5F9DBFOQ4VK5SOA3UENG9CHX5VH0", "current_trial": 150, "dateTime": 1512599778403, "trialdata": {"rt": -1, "stimulus": "<p id=\"stim\">6</p>", "key_press": -1, "trial_type": "single-stim", "trial_index": 150, "time_elapsed": 739871, "internal_node_id": "0.0-110.0-4.0"}}, {"uniqueid": "MTK0692:3G5F9DBFOQ4VK5SOA3UENG9CHX5VH0", "current_trial": 151, "dateTime": 1512599779404, "trialdata": {"rt": -1, "stimulus": "<p id=\"stim\">5</p>", "key_press": -1, "trial_type": "single-stim", "trial_index": 151, "time_elapsed": 740872, "internal_node_id": "0.0-110.0-5.0"}}, {"uniqueid": "MTK0692:3G5F9DBFOQ4VK5SOA3UENG9CHX5VH0", "current_trial": 152, "dateTime": 1512599780405, "trialdata": {"rt": -1, "stimulus": "<p id=\"stim\">4</p>", "key_press": -1, "trial_type": "single-stim", "trial_index": 152, "time_elapsed": 741873, "internal_node_id": "0.0-110.0-6.0"}}, {"uniqueid": "MTK0692:3G5F9DBFOQ4VK5SOA3UENG9CHX5VH0", "current_trial": 153, "dateTime": 1512599781406, "trialdata": {"rt": -1, "stimulus": "<p id=\"stim\">3</p>", "key_press": -1, "trial_type": "single-stim", "trial_index": 153, "time_elapsed": 742874, "internal_node_id": "0.0-110.0-7.0"}}, {"uniqueid": "MTK0692:3G5F9DBFOQ4VK5SOA3UENG9CHX5VH0", "current_trial": 154, "dateTime": 1512599782407, "trialdata": {"rt": -1, "stimulus": "<p id=\"stim\">2</p>", "key_press": -1, "trial_type": "single-stim", "trial_index": 154, "time_elapsed": 743875, "internal_node_id": "0.0-110.0-8.0"}}, {"uniqueid": "MTK0692:3G5F9DBFOQ4VK5SOA3UENG9CHX5VH0", "current_trial": 155, "dateTime": 1512599783407, "trialdata": {"rt": -1, "stimulus": "<p id=\"stim\">1</p>", "key_press": -1, "trial_type": "single-stim", "trial_index": 155, "time_elapsed": 744875, "internal_node_id": "0.0-110.0-9.0"}}, {"uniqueid": "MTK0692:3G5F9DBFOQ4VK5SOA3UENG9CHX5VH0", "current_trial": 156, "dateTime": 1512599784909, "trialdata": {"rt": -1, "stimulus": "<p id=\"stim\">+</p>", "key_press": -1, "type": "FIXATION", "trial_type": "single-stim", "trial_index": 156, "time_elapsed": 746377, "internal_node_id": "0.0-111.0-0.0"}}, {"uniqueid": "MTK0692:3G5F9DBFOQ4VK5SOA3UENG9CHX5VH0", "current_trial": 157, "dateTime": 1512599786511, "trialdata": {"rt": -1, "stimulus": "<p id=\"stim\">VALVE</p>", "key_press": -1, "type": "PRES_VIS", "word": "valve", "wordID": 1545, "conditions": [12, 1600, "v", 12000], "trial": 4, "serialpos": 0, "trial_type": "single-stim", "trial_index": 157, "time_elapsed": 747979, "internal_node_id": "0.0-112.0"}}, {"uniqueid": "MTK0692:3G5F9DBFOQ4VK5SOA3UENG9CHX5VH0", "current_trial": 158, "dateTime": 1512599789187, "trialdata": {"rt": -1, "stimulus": "<p id=\"stim\">PISTON</p>", "key_press": -1, "type": "PRES_VIS", "word": "piston", "wordID": 1075, "conditions": [12, 1600, "v", 12000], "trial": 4, "serialpos": 1, "trial_type": "single-stim", "trial_index": 158, "time_elapsed": 750655, "internal_node_id": "0.0-113.0"}}, {"uniqueid": "MTK0692:3G5F9DBFOQ4VK5SOA3UENG9CHX5VH0", "current_trial": 159, "dateTime": 1512599791884, "trialdata": {"rt": -1, "stimulus": "<p id=\"stim\">FIREPLACE</p>", "key_press": -1, "type": "PRES_VIS", "word": "fireplace", "wordID": 569, "conditions": [12, 1600, "v", 12000], "trial": 4, "serialpos": 2, "trial_type": "single-stim", "trial_index": 159, "time_elapsed": 753352, "internal_node_id": "0.0-114.0"}}, {"uniqueid": "MTK0692:3G5F9DBFOQ4VK5SOA3UENG9CHX5VH0", "current_trial": 160, "dateTime": 1512599794670, "trialdata": {"rt": -1, "stimulus": "<p id=\"stim\">KNIFE</p>", "key_press": -1, "type": "PRES_VIS", "word": "knife", "wordID": 784, "conditions": [12, 1600, "v", 12000], "trial": 4, "serialpos": 3, "trial_type": "single-stim", "trial_index": 160, "time_elapsed": 756138, "internal_node_id": "0.0-115.0"}}, {"uniqueid": "MTK0692:3G5F9DBFOQ4VK5SOA3UENG9CHX5VH0", "current_trial": 161, "dateTime": 1512599797304, "trialdata": {"rt": -1, "stimulus": "<p id=\"stim\">CANAL</p>", "key_press": -1, "type": "PRES_VIS", "word": "canal", "wordID": 225, "conditions": [12, 1600, "v", 12000], "trial": 4, "serialpos": 4, "trial_type": "single-stim", "trial_index": 161, "time_elapsed": 758772, "internal_node_id": "0.0-116.0"}}, {"uniqueid": "MTK0692:3G5F9DBFOQ4VK5SOA3UENG9CHX5VH0", "current_trial": 162, "dateTime": 1512599800064, "trialdata": {"rt": -1, "stimulus": "<p id=\"stim\">AWARD</p>", "key_press": -1, "type": "PRES_VIS", "word": "award", "wordID": 62, "conditions": [12, 1600, "v", 12000], "trial": 4, "serialpos": 5, "trial_type": "single-stim", "trial_index": 162, "time_elapsed": 761532, "internal_node_id": "0.0-117.0"}}, {"uniqueid": "MTK0692:3G5F9DBFOQ4VK5SOA3UENG9CHX5VH0", "current_trial": 163, "dateTime": 1512599802851, "trialdata": {"rt": -1, "stimulus": "<p id=\"stim\">ACTRESS</p>", "key_press": -1, "type": "PRES_VIS", "word": "actress", "wordID": 5, "conditions": [12, 1600, "v", 12000], "trial": 4, "serialpos": 6, "trial_type": "single-stim", "trial_index": 163, "time_elapsed": 764319, "internal_node_id": "0.0-118.0"}}, {"uniqueid": "MTK0692:3G5F9DBFOQ4VK5SOA3UENG9CHX5VH0", "current_trial": 164, "dateTime": 1512599805397, "trialdata": {"rt": -1, "stimulus": "<p id=\"stim\">REPORT</p>", "key_press": -1, "type": "PRES_VIS", "word": "report", "wordID": 1183, "conditions": [12, 1600, "v", 12000], "trial": 4, "serialpos": 7, "trial_type": "single-stim", "trial_index": 164, "time_elapsed": 766864, "internal_node_id": "0.0-119.0"}}, {"uniqueid": "MTK0692:3G5F9DBFOQ4VK5SOA3UENG9CHX5VH0", "current_trial": 165, "dateTime": 1512599808179, "trialdata": {"rt": -1, "stimulus": "<p id=\"stim\">FOREST</p>", "key_press": -1, "type": "PRES_VIS", "word": "forest", "wordID": 592, "conditions": [12, 1600, "v", 12000], "trial": 4, "serialpos": 8, "trial_type": "single-stim", "trial_index": 165, "time_elapsed": 769647, "internal_node_id": "0.0-120.0"}}, {"uniqueid": "MTK0692:3G5F9DBFOQ4VK5SOA3UENG9CHX5VH0", "current_trial": 166, "dateTime": 1512599810632, "trialdata": {"rt": -1, "stimulus": "<p id=\"stim\">PISTOL</p>", "key_press": -1, "type": "PRES_VIS", "word": "pistol", "wordID": 1074, "conditions": [12, 1600, "v", 12000], "trial": 4, "serialpos": 9, "trial_type": "single-stim", "trial_index": 166, "time_elapsed": 772100, "internal_node_id": "0.0-121.0"}}, {"uniqueid": "MTK0692:3G5F9DBFOQ4VK5SOA3UENG9CHX5VH0", "current_trial": 167, "dateTime": 1512599813347, "trialdata": {"rt": -1, "stimulus": "<p id=\"stim\">ROBIN</p>", "key_press": -1, "type": "PRES_VIS", "word": "robin", "wordID": 1198, "conditions": [12, 1600, "v", 12000], "trial": 4, "serialpos": 10, "trial_type": "single-stim", "trial_index": 167, "time_elapsed": 774815, "internal_node_id": "0.0-122.0"}}, {"uniqueid": "MTK0692:3G5F9DBFOQ4VK5SOA3UENG9CHX5VH0", "current_trial": 168, "dateTime": 1512599816086, "trialdata": {"rt": -1, "stimulus": "<p id=\"stim\">TAXI</p>", "key_press": -1, "type": "PRES_VIS", "word": "taxi", "wordID": 1437, "conditions": [12, 1600, "v", 12000], "trial": 4, "serialpos": 11, "trial_type": "single-stim", "trial_index": 168, "time_elapsed": 777554, "internal_node_id": "0.0-123.0"}}, {"uniqueid": "MTK0692:3G5F9DBFOQ4VK5SOA3UENG9CHX5VH0", "current_trial": 169, "dateTime": 1512599818547, "trialdata": {"rt": -1, "stimulus": "", "key_press": -1, "type": "PRE_RECALL_DELAY", "trial_type": "single-stim", "trial_index": 169, "time_elapsed": 780015, "internal_node_id": "0.0-124.0-0.0"}}, {"uniqueid": "MTK0692:3G5F9DBFOQ4VK5SOA3UENG9CHX5VH0", "current_trial": 170, "dateTime": 1512599819048, "trialdata": {"rt": -1000, "stimulus": "/static/audio/400Hz.wav", "key_press": -1, "type": "PRE_RECALL_ALERT", "trial_type": "single-audio", "trial_index": 170, "time_elapsed": 780516, "internal_node_id": "0.0-125.0"}}, {"uniqueid": "MTK0692:3G5F9DBFOQ4VK5SOA3UENG9CHX5VH0", "current_trial": 171, "dateTime": 1512599879057, "trialdata": {"rt": [3256, 5063, 6336, 9511, 10999, 12711], "recwords": ["taxi", "piston", "pistol", "forest", "robin", "canal"], "type": "FREE_RECALL", "conditions": [12, 1600, "v", 12000], "trial": 4, "trial_type": "free-recall", "trial_index": 171, "time_elapsed": 840521, "internal_node_id": "0.0-126.0-0.0"}}, {"uniqueid": "MTK0692:3G5F9DBFOQ4VK5SOA3UENG9CHX5VH0", "current_trial": 172, "dateTime": 1512599886065, "trialdata": {"rt": 5007, "key_press": 32, "type": "INSTRUCTIONS", "trial_type": "text", "trial_index": 172, "time_elapsed": 847533, "internal_node_id": "0.0-127.0"}}, {"uniqueid": "MTK0692:3G5F9DBFOQ4VK5SOA3UENG9CHX5VH0", "current_trial": 173, "dateTime": 1512599912068, "trialdata": {"rt": [1709, 3613, 5325, 7094, 8877, 10902, 12533, 14173, 15973, 17869, 19781, 21581, 23950], "responses": ["11", "15", "9", "12", "14", "18", "17", "15", "19", "21", "6", "9", "13"], "num1": [2, 5, 6, 3, 1, 7, 7, 9, 8, 9, 1, 1, 8, 6], "num2": [7, 4, 2, 4, 9, 8, 1, 3, 9, 6, 1, 7, 2, 2], "num3": [2, 6, 1, 5, 4, 3, 9, 3, 2, 6, 4, 1, 3, 4], "type": "DISTRACTOR", "conditions": [12, 800, "v", 24000], "trial": 5, "trial_type": "math-distractor", "trial_index": 173, "time_elapsed": 873536, "internal_node_id": "0.0-128.0"}}, {"uniqueid": "MTK0692:3G5F9DBFOQ4VK5SOA3UENG9CHX5VH0", "current_trial": 174, "dateTime": 1512599915070, "trialdata": {"rt": -1, "stimulus": "<p id=\"stim\">10</p>", "key_press": -1, "trial_type": "single-stim", "trial_index": 174, "time_elapsed": 876537, "internal_node_id": "0.0-129.0-0.0"}}, {"uniqueid": "MTK0692:3G5F9DBFOQ4VK5SOA3UENG9CHX5VH0", "current_trial": 175, "dateTime": 1512599916072, "trialdata": {"rt": -1, "stimulus": "<p id=\"stim\">9</p>", "key_press": -1, "trial_type": "single-stim", "trial_index": 175, "time_elapsed": 877539, "internal_node_id": "0.0-129.0-1.0"}}, {"uniqueid": "MTK0692:3G5F9DBFOQ4VK5SOA3UENG9CHX5VH0", "current_trial": 176, "dateTime": 1512599917074, "trialdata": {"rt": -1, "stimulus": "<p id=\"stim\">8</p>", "key_press": -1, "trial_type": "single-stim", "trial_index": 176, "time_elapsed": 878542, "internal_node_id": "0.0-129.0-2.0"}}, {"uniqueid": "MTK0692:3G5F9DBFOQ4VK5SOA3UENG9CHX5VH0", "current_trial": 177, "dateTime": 1512599918077, "trialdata": {"rt": -1, "stimulus": "<p id=\"stim\">7</p>", "key_press": -1, "trial_type": "single-stim", "trial_index": 177, "time_elapsed": 879545, "internal_node_id": "0.0-129.0-3.0"}}, {"uniqueid": "MTK0692:3G5F9DBFOQ4VK5SOA3UENG9CHX5VH0", "current_trial": 178, "dateTime": 1512599919078, "trialdata": {"rt": -1, "stimulus": "<p id=\"stim\">6</p>", "key_press": -1, "trial_type": "single-stim", "trial_index": 178, "time_elapsed": 880545, "internal_node_id": "0.0-129.0-4.0"}}, {"uniqueid": "MTK0692:3G5F9DBFOQ4VK5SOA3UENG9CHX5VH0", "current_trial": 179, "dateTime": 1512599920079, "trialdata": {"rt": -1, "stimulus": "<p id=\"stim\">5</p>", "key_press": -1, "trial_type": "single-stim", "trial_index": 179, "time_elapsed": 881547, "internal_node_id": "0.0-129.0-5.0"}}, {"uniqueid": "MTK0692:3G5F9DBFOQ4VK5SOA3UENG9CHX5VH0", "current_trial": 180, "dateTime": 1512599921080, "trialdata": {"rt": -1, "stimulus": "<p id=\"stim\">4</p>", "key_press": -1, "trial_type": "single-stim", "trial_index": 180, "time_elapsed": 882548, "internal_node_id": "0.0-129.0-6.0"}}, {"uniqueid": "MTK0692:3G5F9DBFOQ4VK5SOA3UENG9CHX5VH0", "current_trial": 181, "dateTime": 1512599922081, "trialdata": {"rt": -1, "stimulus": "<p id=\"stim\">3</p>", "key_press": -1, "trial_type": "single-stim", "trial_index": 181, "time_elapsed": 883549, "internal_node_id": "0.0-129.0-7.0"}}, {"uniqueid": "MTK0692:3G5F9DBFOQ4VK5SOA3UENG9CHX5VH0", "current_trial": 182, "dateTime": 1512599923082, "trialdata": {"rt": -1, "stimulus": "<p id=\"stim\">2</p>", "key_press": -1, "trial_type": "single-stim", "trial_index": 182, "time_elapsed": 884550, "internal_node_id": "0.0-129.0-8.0"}}, {"uniqueid": "MTK0692:3G5F9DBFOQ4VK5SOA3UENG9CHX5VH0", "current_trial": 183, "dateTime": 1512599924085, "trialdata": {"rt": -1, "stimulus": "<p id=\"stim\">1</p>", "key_press": -1, "trial_type": "single-stim", "trial_index": 183, "time_elapsed": 885553, "internal_node_id": "0.0-129.0-9.0"}}, {"uniqueid": "MTK0692:3G5F9DBFOQ4VK5SOA3UENG9CHX5VH0", "current_trial": 184, "dateTime": 1512599925586, "trialdata": {"rt": -1, "stimulus": "<p id=\"stim\">+</p>", "key_press": -1, "type": "FIXATION", "trial_type": "single-stim", "trial_index": 184, "time_elapsed": 887054, "internal_node_id": "0.0-130.0-0.0"}}, {"uniqueid": "MTK0692:3G5F9DBFOQ4VK5SOA3UENG9CHX5VH0", "current_trial": 185, "dateTime": 1512599926388, "trialdata": {"rt": -1, "stimulus": "<p id=\"stim\">CAMEL</p>", "key_press": -1, "type": "PRES_VIS", "word": "camel", "wordID": 222, "conditions": [12, 800, "v", 24000], "trial": 5, "serialpos": 0, "trial_type": "single-stim", "trial_index": 185, "time_elapsed": 887856, "internal_node_id": "0.0-131.0"}}, {"uniqueid": "MTK0692:3G5F9DBFOQ4VK5SOA3UENG9CHX5VH0", "current_trial": 186, "dateTime": 1512599928318, "trialdata": {"rt": -1, "stimulus": "<p id=\"stim\">BABY</p>", "key_press": -1, "type": "PRES_VIS", "word": "baby", "wordID": 63, "conditions": [12, 800, "v", 24000], "trial": 5, "serialpos": 1, "trial_type": "single-stim", "trial_index": 186, "time_elapsed": 889786, "internal_node_id": "0.0-132.0"}}, {"uniqueid": "MTK0692:3G5F9DBFOQ4VK5SOA3UENG9CHX5VH0", "current_trial": 187, "dateTime": 1512599930044, "trialdata": {"rt": -1, "stimulus": "<p id=\"stim\">BEAVER</p>", "key_press": -1, "type": "PRES_VIS", "word": "beaver", "wordID": 108, "conditions": [12, 800, "v", 24000], "trial": 5, "serialpos": 2, "trial_type": "single-stim", "trial_index": 187, "time_elapsed": 891512, "internal_node_id": "0.0-133.0"}}, {"uniqueid": "MTK0692:3G5F9DBFOQ4VK5SOA3UENG9CHX5VH0", "current_trial": 188, "dateTime": 1512599931762, "trialdata": {"rt": -1, "stimulus": "<p id=\"stim\">CASHIER</p>", "key_press": -1, "type": "PRES_VIS", "word": "cashier", "wordID": 253, "conditions": [12, 800, "v", 24000], "trial": 5, "serialpos": 3, "trial_type": "single-stim", "trial_index": 188, "time_elapsed": 893230, "internal_node_id": "0.0-134.0"}}, {"uniqueid": "MTK0692:3G5F9DBFOQ4VK5SOA3UENG9CHX5VH0", "current_trial": 189, "dateTime": 1512599933594, "trialdata": {"rt": -1, "stimulus": "<p id=\"stim\">STATUE</p>", "key_press": -1, "type": "PRES_VIS", "word": "statue", "wordID": 1373, "conditions": [12, 800, "v", 24000], "trial": 5, "serialpos": 4, "trial_type": "single-stim", "trial_index": 189, "time_elapsed": 895062, "internal_node_id": "0.0-135.0"}}, {"uniqueid": "MTK0692:3G5F9DBFOQ4VK5SOA3UENG9CHX5VH0", "current_trial": 190, "dateTime": 1512599935374, "trialdata": {"rt": -1, "stimulus": "<p id=\"stim\">GARDEN</p>", "key_press": -1, "type": "PRES_VIS", "word": "garden", "wordID": 622, "conditions": [12, 800, "v", 24000], "trial": 5, "serialpos": 5, "trial_type": "single-stim", "trial_index": 190, "time_elapsed": 896842, "internal_node_id": "0.0-136.0"}}, {"uniqueid": "MTK0692:3G5F9DBFOQ4VK5SOA3UENG9CHX5VH0", "current_trial": 191, "dateTime": 1512599937150, "trialdata": {"rt": -1, "stimulus": "<p id=\"stim\">SHRUB</p>", "key_press": -1, "type": "PRES_VIS", "word": "shrub", "wordID": 1298, "conditions": [12, 800, "v", 24000], "trial": 5, "serialpos": 6, "trial_type": "single-stim", "trial_index": 191, "time_elapsed": 898618, "internal_node_id": "0.0-137.0"}}, {"uniqueid": "MTK0692:3G5F9DBFOQ4VK5SOA3UENG9CHX5VH0", "current_trial": 192, "dateTime": 1512599938815, "trialdata": {"rt": -1, "stimulus": "<p id=\"stim\">PASTRY</p>", "key_press": -1, "type": "PRES_VIS", "word": "pastry", "wordID": 1021, "conditions": [12, 800, "v", 24000], "trial": 5, "serialpos": 7, "trial_type": "single-stim", "trial_index": 192, "time_elapsed": 900283, "internal_node_id": "0.0-138.0"}}, {"uniqueid": "MTK0692:3G5F9DBFOQ4VK5SOA3UENG9CHX5VH0", "current_trial": 193, "dateTime": 1512599940553, "trialdata": {"rt": -1, "stimulus": "<p id=\"stim\">XEROX</p>", "key_press": -1, "type": "PRES_VIS", "word": "xerox", "wordID": 1627, "conditions": [12, 800, "v", 24000], "trial": 5, "serialpos": 8, "trial_type": "single-stim", "trial_index": 193, "time_elapsed": 902020, "internal_node_id": "0.0-139.0"}}, {"uniqueid": "MTK0692:3G5F9DBFOQ4VK5SOA3UENG9CHX5VH0", "current_trial": 194, "dateTime": 1512599942482, "trialdata": {"rt": -1, "stimulus": "<p id=\"stim\">KETCHUP</p>", "key_press": -1, "type": "PRES_VIS", "word": "ketchup", "wordID": 770, "conditions": [12, 800, "v", 24000], "trial": 5, "serialpos": 9, "trial_type": "single-stim", "trial_index": 194, "time_elapsed": 903950, "internal_node_id": "0.0-140.0"}}, {"uniqueid": "MTK0692:3G5F9DBFOQ4VK5SOA3UENG9CHX5VH0", "current_trial": 195, "dateTime": 1512599944337, "trialdata": {"rt": -1, "stimulus": "<p id=\"stim\">OX</p>", "key_press": -1, "type": "PRES_VIS", "word": "ox", "wordID": 993, "conditions": [12, 800, "v", 24000], "trial": 5, "serialpos": 10, "trial_type": "single-stim", "trial_index": 195, "time_elapsed": 905805, "internal_node_id": "0.0-141.0"}}, {"uniqueid": "MTK0692:3G5F9DBFOQ4VK5SOA3UENG9CHX5VH0", "current_trial": 196, "dateTime": 1512599946069, "trialdata": {"rt": -1, "stimulus": "<p id=\"stim\">SCULPTURE</p>", "key_press": -1, "type": "PRES_VIS", "word": "sculpture", "wordID": 1257, "conditions": [12, 800, "v", 24000], "trial": 5, "serialpos": 11, "trial_type": "single-stim", "trial_index": 196, "time_elapsed": 907536, "internal_node_id": "0.0-142.0"}}, {"uniqueid": "MTK0692:3G5F9DBFOQ4VK5SOA3UENG9CHX5VH0", "current_trial": 197, "dateTime": 1512599948501, "trialdata": {"rt": -1, "stimulus": "", "key_press": -1, "type": "PRE_RECALL_DELAY", "trial_type": "single-stim", "trial_index": 197, "time_elapsed": 909968, "internal_node_id": "0.0-143.0-0.0"}}, {"uniqueid": "MTK0692:3G5F9DBFOQ4VK5SOA3UENG9CHX5VH0", "current_trial": 198, "dateTime": 1512599949002, "trialdata": {"rt": -1000, "stimulus": "/static/audio/400Hz.wav", "key_press": -1, "type": "PRE_RECALL_ALERT", "trial_type": "single-audio", "trial_index": 198, "time_elapsed": 910470, "internal_node_id": "0.0-144.0"}}, {"uniqueid": "MTK0692:3G5F9DBFOQ4VK5SOA3UENG9CHX5VH0", "current_trial": 199, "dateTime": 1512600009009, "trialdata": {"rt": [2669, 3614, 6454, 15342, 33865, 37269], "recwords": ["cashier", "baby", "shrub", "ketchup", "camel", "camel"], "type": "FREE_RECALL", "conditions": [12, 800, "v", 24000], "trial": 5, "trial_type": "free-recall", "trial_index": 199, "time_elapsed": 970474, "internal_node_id": "0.0-145.0-0.0"}}, {"uniqueid": "MTK0692:3G5F9DBFOQ4VK5SOA3UENG9CHX5VH0", "current_trial": 200, "dateTime": 1512600012130, "trialdata": {"rt": 1120, "key_press": 32, "type": "INSTRUCTIONS", "trial_type": "text", "trial_index": 200, "time_elapsed": 973598, "internal_node_id": "0.0-146.0"}}, {"uniqueid": "MTK0692:3G5F9DBFOQ4VK5SOA3UENG9CHX5VH0", "current_trial": 201, "dateTime": 1512600026168, "trialdata": {"rt": [2525, 4831, 7158, 8837, 10968], "responses": ["13", "17", "13", "7", "8"], "num1": [2, 6, 5, 2, 2, 6], "num2": [5, 7, 2, 2, 2, 4], "num3": [6, 4, 6, 3, 4, 7], "type": "DISTRACTOR", "conditions": [12, 800, "v", 12000], "trial": 6, "trial_type": "math-distractor", "trial_index": 201, "time_elapsed": 987636, "internal_node_id": "0.0-147.0"}}, {"uniqueid": "MTK0692:3G5F9DBFOQ4VK5SOA3UENG9CHX5VH0", "current_trial": 202, "dateTime": 1512600029169, "trialdata": {"rt": -1, "stimulus": "<p id=\"stim\">10</p>", "key_press": -1, "trial_type": "single-stim", "trial_index": 202, "time_elapsed": 990636, "internal_node_id": "0.0-148.0-0.0"}}, {"uniqueid": "MTK0692:3G5F9DBFOQ4VK5SOA3UENG9CHX5VH0", "current_trial": 203, "dateTime": 1512600030169, "trialdata": {"rt": -1, "stimulus": "<p id=\"stim\">9</p>", "key_press": -1, "trial_type": "single-stim", "trial_index": 203, "time_elapsed": 991637, "internal_node_id": "0.0-148.0-1.0"}}, {"uniqueid": "MTK0692:3G5F9DBFOQ4VK5SOA3UENG9CHX5VH0", "current_trial": 204, "dateTime": 1512600031172, "trialdata": {"rt": -1, "stimulus": "<p id=\"stim\">8</p>", "key_press": -1, "trial_type": "single-stim", "trial_index": 204, "time_elapsed": 992640, "internal_node_id": "0.0-148.0-2.0"}}, {"uniqueid": "MTK0692:3G5F9DBFOQ4VK5SOA3UENG9CHX5VH0", "current_trial": 205, "dateTime": 1512600032173, "trialdata": {"rt": -1, "stimulus": "<p id=\"stim\">7</p>", "key_press": -1, "trial_type": "single-stim", "trial_index": 205, "time_elapsed": 993641, "internal_node_id": "0.0-148.0-3.0"}}, {"uniqueid": "MTK0692:3G5F9DBFOQ4VK5SOA3UENG9CHX5VH0", "current_trial": 206, "dateTime": 1512600033173, "trialdata": {"rt": -1, "stimulus": "<p id=\"stim\">6</p>", "key_press": -1, "trial_type": "single-stim", "trial_index": 206, "time_elapsed": 994641, "internal_node_id": "0.0-148.0-4.0"}}, {"uniqueid": "MTK0692:3G5F9DBFOQ4VK5SOA3UENG9CHX5VH0", "current_trial": 207, "dateTime": 1512600034174, "trialdata": {"rt": -1, "stimulus": "<p id=\"stim\">5</p>", "key_press": -1, "trial_type": "single-stim", "trial_index": 207, "time_elapsed": 995642, "internal_node_id": "0.0-148.0-5.0"}}, {"uniqueid": "MTK0692:3G5F9DBFOQ4VK5SOA3UENG9CHX5VH0", "current_trial": 208, "dateTime": 1512600035174, "trialdata": {"rt": -1, "stimulus": "<p id=\"stim\">4</p>", "key_press": -1, "trial_type": "single-stim", "trial_index": 208, "time_elapsed": 996642, "internal_node_id": "0.0-148.0-6.0"}}, {"uniqueid": "MTK0692:3G5F9DBFOQ4VK5SOA3UENG9CHX5VH0", "current_trial": 209, "dateTime": 1512600036175, "trialdata": {"rt": -1, "stimulus": "<p id=\"stim\">3</p>", "key_press": -1, "trial_type": "single-stim", "trial_index": 209, "time_elapsed": 997643, "internal_node_id": "0.0-148.0-7.0"}}, {"uniqueid": "MTK0692:3G5F9DBFOQ4VK5SOA3UENG9CHX5VH0", "current_trial": 210, "dateTime": 1512600037176, "trialdata": {"rt": -1, "stimulus": "<p id=\"stim\">2</p>", "key_press": -1, "trial_type": "single-stim", "trial_index": 210, "time_elapsed": 998644, "internal_node_id": "0.0-148.0-8.0"}}, {"uniqueid": "MTK0692:3G5F9DBFOQ4VK5SOA3UENG9CHX5VH0", "current_trial": 211, "dateTime": 1512600038177, "trialdata": {"rt": -1, "stimulus": "<p id=\"stim\">1</p>", "key_press": -1, "trial_type": "single-stim", "trial_index": 211, "time_elapsed": 999645, "internal_node_id": "0.0-148.0-9.0"}}, {"uniqueid": "MTK0692:3G5F9DBFOQ4VK5SOA3UENG9CHX5VH0", "current_trial": 212, "dateTime": 1512600039680, "trialdata": {"rt": -1, "stimulus": "<p id=\"stim\">+</p>", "key_press": -1, "type": "FIXATION", "trial_type": "single-stim", "trial_index": 212, "time_elapsed": 1001148, "internal_node_id": "0.0-149.0-0.0"}}, {"uniqueid": "MTK0692:3G5F9DBFOQ4VK5SOA3UENG9CHX5VH0", "current_trial": 213, "dateTime": 1512600040483, "trialdata": {"rt": -1, "stimulus": "<p id=\"stim\">CRAB</p>", "key_press": -1, "type": "PRES_VIS", "word": "crab", "wordID": 396, "conditions": [12, 800, "v", 12000], "trial": 6, "serialpos": 0, "trial_type": "single-stim", "trial_index": 213, "time_elapsed": 1001951, "internal_node_id": "0.0-150.0"}}, {"uniqueid": "MTK0692:3G5F9DBFOQ4VK5SOA3UENG9CHX5VH0", "current_trial": 214, "dateTime": 1512600042354, "trialdata": {"rt": -1, "stimulus": "<p id=\"stim\">SCALLOP</p>", "key_press": -1, "type": "PRES_VIS", "word": "scallop", "wordID": 1241, "conditions": [12, 800, "v", 12000], "trial": 6, "serialpos": 1, "trial_type": "single-stim", "trial_index": 214, "time_elapsed": 1003821, "internal_node_id": "0.0-151.0"}}, {"uniqueid": "MTK0692:3G5F9DBFOQ4VK5SOA3UENG9CHX5VH0", "current_trial": 215, "dateTime": 1512600043976, "trialdata": {"rt": -1, "stimulus": "<p id=\"stim\">BURGLAR</p>", "key_press": -1, "type": "PRES_VIS", "word": "burglar", "wordID": 199, "conditions": [12, 800, "v", 12000], "trial": 6, "serialpos": 2, "trial_type": "single-stim", "trial_index": 215, "time_elapsed": 1005443, "internal_node_id": "0.0-152.0"}}, {"uniqueid": "MTK0692:3G5F9DBFOQ4VK5SOA3UENG9CHX5VH0", "current_trial": 216, "dateTime": 1512600045749, "trialdata": {"rt": -1, "stimulus": "<p id=\"stim\">THIEF</p>", "key_press": -1, "type": "PRES_VIS", "word": "thief", "wordID": 1455, "conditions": [12, 800, "v", 12000], "trial": 6, "serialpos": 3, "trial_type": "single-stim", "trial_index": 216, "time_elapsed": 1007217, "internal_node_id": "0.0-153.0"}}, {"uniqueid": "MTK0692:3G5F9DBFOQ4VK5SOA3UENG9CHX5VH0", "current_trial": 217, "dateTime": 1512600047439, "trialdata": {"rt": -1, "stimulus": "<p id=\"stim\">MUFFIN</p>", "key_press": -1, "type": "PRES_VIS", "word": "muffin", "wordID": 928, "conditions": [12, 800, "v", 12000], "trial": 6, "serialpos": 4, "trial_type": "single-stim", "trial_index": 217, "time_elapsed": 1008907, "internal_node_id": "0.0-154.0"}}, {"uniqueid": "MTK0692:3G5F9DBFOQ4VK5SOA3UENG9CHX5VH0", "current_trial": 218, "dateTime": 1512600049057, "trialdata": {"rt": -1, "stimulus": "<p id=\"stim\">MILK</p>", "key_press": -1, "type": "PRES_VIS", "word": "milk", "wordID": 894, "conditions": [12, 800, "v", 12000], "trial": 6, "serialpos": 5, "trial_type": "single-stim", "trial_index": 218, "time_elapsed": 1010525, "internal_node_id": "0.0-155.0"}}, {"uniqueid": "MTK0692:3G5F9DBFOQ4VK5SOA3UENG9CHX5VH0", "current_trial": 219, "dateTime": 1512600051031, "trialdata": {"rt": -1, "stimulus": "<p id=\"stim\">BUG</p>", "key_press": -1, "type": "PRES_VIS", "word": "bug", "wordID": 186, "conditions": [12, 800, "v", 12000], "trial": 6, "serialpos": 6, "trial_type": "single-stim", "trial_index": 219, "time_elapsed": 1012499, "internal_node_id": "0.0-156.0"}}, {"uniqueid": "MTK0692:3G5F9DBFOQ4VK5SOA3UENG9CHX5VH0", "current_trial": 220, "dateTime": 1512600052652, "trialdata": {"rt": -1, "stimulus": "<p id=\"stim\">IGLOO</p>", "key_press": -1, "type": "PRES_VIS", "word": "igloo", "wordID": 733, "conditions": [12, 800, "v", 12000], "trial": 6, "serialpos": 7, "trial_type": "single-stim", "trial_index": 220, "time_elapsed": 1014120, "internal_node_id": "0.0-157.0"}}, {"uniqueid": "MTK0692:3G5F9DBFOQ4VK5SOA3UENG9CHX5VH0", "current_trial": 221, "dateTime": 1512600054363, "trialdata": {"rt": -1, "stimulus": "<p id=\"stim\">HONEY</p>", "key_press": -1, "type": "PRES_VIS", "word": "honey", "wordID": 712, "conditions": [12, 800, "v", 12000], "trial": 6, "serialpos": 8, "trial_type": "single-stim", "trial_index": 221, "time_elapsed": 1015831, "internal_node_id": "0.0-158.0"}}, {"uniqueid": "MTK0692:3G5F9DBFOQ4VK5SOA3UENG9CHX5VH0", "current_trial": 222, "dateTime": 1512600056355, "trialdata": {"rt": -1, "stimulus": "<p id=\"stim\">BANKER</p>", "key_press": -1, "type": "PRES_VIS", "word": "banker", "wordID": 83, "conditions": [12, 800, "v", 12000], "trial": 6, "serialpos": 9, "trial_type": "single-stim", "trial_index": 222, "time_elapsed": 1017823, "internal_node_id": "0.0-159.0"}}, {"uniqueid": "MTK0692:3G5F9DBFOQ4VK5SOA3UENG9CHX5VH0", "current_trial": 223, "dateTime": 1512600058223, "trialdata": {"rt": -1, "stimulus": "<p id=\"stim\">SNAKE</p>", "key_press": -1, "type": "PRES_VIS", "word": "snake", "wordID": 1332, "conditions": [12, 800, "v", 12000], "trial": 6, "serialpos": 10, "trial_type": "single-stim", "trial_index": 223, "time_elapsed": 1019691, "internal_node_id": "0.0-160.0"}}, {"uniqueid": "MTK0692:3G5F9DBFOQ4VK5SOA3UENG9CHX5VH0", "current_trial": 224, "dateTime": 1512600060089, "trialdata": {"rt": -1, "stimulus": "<p id=\"stim\">BUNNY</p>", "key_press": -1, "type": "PRES_VIS", "word": "bunny", "wordID": 197, "conditions": [12, 800, "v", 12000], "trial": 6, "serialpos": 11, "trial_type": "single-stim", "trial_index": 224, "time_elapsed": 1021557, "internal_node_id": "0.0-161.0"}}, {"uniqueid": "MTK0692:3G5F9DBFOQ4VK5SOA3UENG9CHX5VH0", "current_trial": 225, "dateTime": 1512600062315, "trialdata": {"rt": -1, "stimulus": "", "key_press": -1, "type": "PRE_RECALL_DELAY", "trial_type": "single-stim", "trial_index": 225, "time_elapsed": 1023783, "internal_node_id": "0.0-162.0-0.0"}}, {"uniqueid": "MTK0692:3G5F9DBFOQ4VK5SOA3UENG9CHX5VH0", "current_trial": 226, "dateTime": 1512600062832, "trialdata": {"rt": -1000, "stimulus": "/static/audio/400Hz.wav", "key_press": -1, "type": "PRE_RECALL_ALERT", "trial_type": "single-audio", "trial_index": 226, "time_elapsed": 1024300, "internal_node_id": "0.0-163.0"}}, {"uniqueid": "MTK0692:3G5F9DBFOQ4VK5SOA3UENG9CHX5VH0", "current_trial": 227, "dateTime": 1512600122842, "trialdata": {"rt": [3055, 4846], "recwords": ["igloo", "bunny"], "type": "FREE_RECALL", "conditions": [12, 800, "v", 12000], "trial": 6, "trial_type": "free-recall", "trial_index": 227, "time_elapsed": 1084305, "internal_node_id": "0.0-164.0-0.0"}}, {"uniqueid": "MTK0692:3G5F9DBFOQ4VK5SOA3UENG9CHX5VH0", "current_trial": 228, "dateTime": 1512600126601, "trialdata": {"rt": 1758, "key_press": 32, "type": "INSTRUCTIONS", "trial_type": "text", "trial_index": 228, "time_elapsed": 1088068, "internal_node_id": "0.0-165.0"}}, {"uniqueid": "MTK0692:3G5F9DBFOQ4VK5SOA3UENG9CHX5VH0", "current_trial": 229, "dateTime": 1512600140603, "trialdata": {"rt": [3086, 6390, 7990, 9582, 11358], "responses": ["12", "18", "18", "15", "16"], "num1": [4, 9, 2, 7, 8, 4], "num2": [1, 7, 8, 7, 7, 5], "num3": [7, 2, 8, 1, 1, 4], "type": "DISTRACTOR", "conditions": [24, 800, "v", 12000], "trial": 7, "trial_type": "math-distractor", "trial_index": 229, "time_elapsed": 1102071, "internal_node_id": "0.0-166.0"}}, {"uniqueid": "MTK0692:3G5F9DBFOQ4VK5SOA3UENG9CHX5VH0", "current_trial": 230, "dateTime": 1512600143606, "trialdata": {"rt": -1, "stimulus": "<p id=\"stim\">10</p>", "key_press": -1, "trial_type": "single-stim", "trial_index": 230, "time_elapsed": 1105074, "internal_node_id": "0.0-167.0-0.0"}}, {"uniqueid": "MTK0692:3G5F9DBFOQ4VK5SOA3UENG9CHX5VH0", "current_trial": 231, "dateTime": 1512600144607, "trialdata": {"rt": -1, "stimulus": "<p id=\"stim\">9</p>", "key_press": -1, "trial_type": "single-stim", "trial_index": 231, "time_elapsed": 1106075, "internal_node_id": "0.0-167.0-1.0"}}, {"uniqueid": "MTK0692:3G5F9DBFOQ4VK5SOA3UENG9CHX5VH0", "current_trial": 232, "dateTime": 1512600145608, "trialdata": {"rt": -1, "stimulus": "<p id=\"stim\">8</p>", "key_press": -1, "trial_type": "single-stim", "trial_index": 232, "time_elapsed": 1107076, "internal_node_id": "0.0-167.0-2.0"}}, {"uniqueid": "MTK0692:3G5F9DBFOQ4VK5SOA3UENG9CHX5VH0", "current_trial": 233, "dateTime": 1512600146609, "trialdata": {"rt": -1, "stimulus": "<p id=\"stim\">7</p>", "key_press": -1, "trial_type": "single-stim", "trial_index": 233, "time_elapsed": 1108077, "internal_node_id": "0.0-167.0-3.0"}}, {"uniqueid": "MTK0692:3G5F9DBFOQ4VK5SOA3UENG9CHX5VH0", "current_trial": 234, "dateTime": 1512600147611, "trialdata": {"rt": -1, "stimulus": "<p id=\"stim\">6</p>", "key_press": -1, "trial_type": "single-stim", "trial_index": 234, "time_elapsed": 1109079, "internal_node_id": "0.0-167.0-4.0"}}, {"uniqueid": "MTK0692:3G5F9DBFOQ4VK5SOA3UENG9CHX5VH0", "current_trial": 235, "dateTime": 1512600148613, "trialdata": {"rt": -1, "stimulus": "<p id=\"stim\">5</p>", "key_press": -1, "trial_type": "single-stim", "trial_index": 235, "time_elapsed": 1110081, "internal_node_id": "0.0-167.0-5.0"}}, {"uniqueid": "MTK0692:3G5F9DBFOQ4VK5SOA3UENG9CHX5VH0", "current_trial": 236, "dateTime": 1512600149614, "trialdata": {"rt": -1, "stimulus": "<p id=\"stim\">4</p>", "key_press": -1, "trial_type": "single-stim", "trial_index": 236, "time_elapsed": 1111082, "internal_node_id": "0.0-167.0-6.0"}}, {"uniqueid": "MTK0692:3G5F9DBFOQ4VK5SOA3UENG9CHX5VH0", "current_trial": 237, "dateTime": 1512600150615, "trialdata": {"rt": -1, "stimulus": "<p id=\"stim\">3</p>", "key_press": -1, "trial_type": "single-stim", "trial_index": 237, "time_elapsed": 1112083, "internal_node_id": "0.0-167.0-7.0"}}, {"uniqueid": "MTK0692:3G5F9DBFOQ4VK5SOA3UENG9CHX5VH0", "current_trial": 238, "dateTime": 1512600151617, "trialdata": {"rt": -1, "stimulus": "<p id=\"stim\">2</p>", "key_press": -1, "trial_type": "single-stim", "trial_index": 238, "time_elapsed": 1113084, "internal_node_id": "0.0-167.0-8.0"}}, {"uniqueid": "MTK0692:3G5F9DBFOQ4VK5SOA3UENG9CHX5VH0", "current_trial": 239, "dateTime": 1512600152618, "trialdata": {"rt": -1, "stimulus": "<p id=\"stim\">1</p>", "key_press": -1, "trial_type": "single-stim", "trial_index": 239, "time_elapsed": 1114086, "internal_node_id": "0.0-167.0-9.0"}}, {"uniqueid": "MTK0692:3G5F9DBFOQ4VK5SOA3UENG9CHX5VH0", "current_trial": 240, "dateTime": 1512600154120, "trialdata": {"rt": -1, "stimulus": "<p id=\"stim\">+</p>", "key_press": -1, "type": "FIXATION", "trial_type": "single-stim", "trial_index": 240, "time_elapsed": 1115588, "internal_node_id": "0.0-168.0-0.0"}}, {"uniqueid": "MTK0692:3G5F9DBFOQ4VK5SOA3UENG9CHX5VH0", "current_trial": 241, "dateTime": 1512600154921, "trialdata": {"rt": -1, "stimulus": "<p id=\"stim\">PILOT</p>", "key_press": -1, "type": "PRES_VIS", "word": "pilot", "wordID": 1069, "conditions": [24, 800, "v", 12000], "trial": 7, "serialpos": 0, "trial_type": "single-stim", "trial_index": 241, "time_elapsed": 1116389, "internal_node_id": "0.0-169.0"}}, {"uniqueid": "MTK0692:3G5F9DBFOQ4VK5SOA3UENG9CHX5VH0", "current_trial": 242, "dateTime": 1512600156734, "trialdata": {"rt": -1, "stimulus": "<p id=\"stim\">QUEEN</p>", "key_press": -1, "type": "PRES_VIS", "word": "queen", "wordID": 1148, "conditions": [24, 800, "v", 12000], "trial": 7, "serialpos": 1, "trial_type": "single-stim", "trial_index": 242, "time_elapsed": 1118202, "internal_node_id": "0.0-170.0"}}, {"uniqueid": "MTK0692:3G5F9DBFOQ4VK5SOA3UENG9CHX5VH0", "current_trial": 243, "dateTime": 1512600158365, "trialdata": {"rt": -1, "stimulus": "<p id=\"stim\">BLENDER</p>", "key_press": -1, "type": "PRES_VIS", "word": "blender", "wordID": 135, "conditions": [24, 800, "v", 12000], "trial": 7, "serialpos": 2, "trial_type": "single-stim", "trial_index": 243, "time_elapsed": 1119833, "internal_node_id": "0.0-171.0"}}, {"uniqueid": "MTK0692:3G5F9DBFOQ4VK5SOA3UENG9CHX5VH0", "current_trial": 244, "dateTime": 1512600160085, "trialdata": {"rt": -1, "stimulus": "<p id=\"stim\">STUDENT</p>", "key_press": -1, "type": "PRES_VIS", "word": "student", "wordID": 1394, "conditions": [24, 800, "v", 12000], "trial": 7, "serialpos": 3, "trial_type": "single-stim", "trial_index": 244, "time_elapsed": 1121553, "internal_node_id": "0.0-172.0"}}, {"uniqueid": "MTK0692:3G5F9DBFOQ4VK5SOA3UENG9CHX5VH0", "current_trial": 245, "dateTime": 1512600161820, "trialdata": {"rt": -1, "stimulus": "<p id=\"stim\">SODA</p>", "key_press": -1, "type": "PRES_VIS", "word": "soda", "wordID": 1340, "conditions": [24, 800, "v", 12000], "trial": 7, "serialpos": 4, "trial_type": "single-stim", "trial_index": 245, "time_elapsed": 1123288, "internal_node_id": "0.0-173.0"}}, {"uniqueid": "MTK0692:3G5F9DBFOQ4VK5SOA3UENG9CHX5VH0", "current_trial": 246, "dateTime": 1512600163797, "trialdata": {"rt": -1, "stimulus": "<p id=\"stim\">HANDBAG</p>", "key_press": -1, "type": "PRES_VIS", "word": "handbag", "wordID": 683, "conditions": [24, 800, "v", 12000], "trial": 7, "serialpos": 5, "trial_type": "single-stim", "trial_index": 246, "time_elapsed": 1125265, "internal_node_id": "0.0-174.0"}}, {"uniqueid": "MTK0692:3G5F9DBFOQ4VK5SOA3UENG9CHX5VH0", "current_trial": 247, "dateTime": 1512600165414, "trialdata": {"rt": -1, "stimulus": "<p id=\"stim\">NECKLACE</p>", "key_press": -1, "type": "PRES_VIS", "word": "necklace", "wordID": 939, "conditions": [24, 800, "v", 12000], "trial": 7, "serialpos": 6, "trial_type": "single-stim", "trial_index": 247, "time_elapsed": 1126882, "internal_node_id": "0.0-175.0"}}, {"uniqueid": "MTK0692:3G5F9DBFOQ4VK5SOA3UENG9CHX5VH0", "current_trial": 248, "dateTime": 1512600167261, "trialdata": {"rt": -1, "stimulus": "<p id=\"stim\">DUSTPAN</p>", "key_press": -1, "type": "PRES_VIS", "word": "dustpan", "wordID": 508, "conditions": [24, 800, "v", 12000], "trial": 7, "serialpos": 7, "trial_type": "single-stim", "trial_index": 248, "time_elapsed": 1128728, "internal_node_id": "0.0-176.0"}}, {"uniqueid": "MTK0692:3G5F9DBFOQ4VK5SOA3UENG9CHX5VH0", "current_trial": 249, "dateTime": 1512600169229, "trialdata": {"rt": -1, "stimulus": "<p id=\"stim\">DRINK</p>", "key_press": -1, "type": "PRES_VIS", "word": "drink", "wordID": 497, "conditions": [24, 800, "v", 12000], "trial": 7, "serialpos": 8, "trial_type": "single-stim", "trial_index": 249, "time_elapsed": 1130697, "internal_node_id": "0.0-177.0"}}, {"uniqueid": "MTK0692:3G5F9DBFOQ4VK5SOA3UENG9CHX5VH0", "current_trial": 250, "dateTime": 1512600170844, "trialdata": {"rt": -1, "stimulus": "<p id=\"stim\">LIGHTNING</p>", "key_press": -1, "type": "PRES_VIS", "word": "lightning", "wordID": 819, "conditions": [24, 800, "v", 12000], "trial": 7, "serialpos": 9, "trial_type": "single-stim", "trial_index": 250, "time_elapsed": 1132312, "internal_node_id": "0.0-178.0"}}, {"uniqueid": "MTK0692:3G5F9DBFOQ4VK5SOA3UENG9CHX5VH0", "current_trial": 251, "dateTime": 1512600172547, "trialdata": {"rt": -1, "stimulus": "<p id=\"stim\">CYCLONE</p>", "key_press": -1, "type": "PRES_VIS", "word": "cyclone", "wordID": 430, "conditions": [24, 800, "v", 12000], "trial": 7, "serialpos": 10, "trial_type": "single-stim", "trial_index": 251, "time_elapsed": 1134014, "internal_node_id": "0.0-179.0"}}, {"uniqueid": "MTK0692:3G5F9DBFOQ4VK5SOA3UENG9CHX5VH0", "current_trial": 252, "dateTime": 1512600174461, "trialdata": {"rt": -1, "stimulus": "<p id=\"stim\">GRAPE</p>", "key_press": -1, "type": "PRES_VIS", "word": "grape", "wordID": 653, "conditions": [24, 800, "v", 12000], "trial": 7, "serialpos": 11, "trial_type": "single-stim", "trial_index": 252, "time_elapsed": 1135929, "internal_node_id": "0.0-180.0"}}, {"uniqueid": "MTK0692:3G5F9DBFOQ4VK5SOA3UENG9CHX5VH0", "current_trial": 253, "dateTime": 1512600176211, "trialdata": {"rt": -1, "stimulus": "<p id=\"stim\">CUPBOARD</p>", "key_press": -1, "type": "PRES_VIS", "word": "cupboard", "wordID": 424, "conditions": [24, 800, "v", 12000], "trial": 7, "serialpos": 12, "trial_type": "single-stim", "trial_index": 253, "time_elapsed": 1137679, "internal_node_id": "0.0-181.0"}}, {"uniqueid": "MTK0692:3G5F9DBFOQ4VK5SOA3UENG9CHX5VH0", "current_trial": 254, "dateTime": 1512600177821, "trialdata": {"rt": -1, "stimulus": "<p id=\"stim\">KITCHEN</p>", "key_press": -1, "type": "PRES_VIS", "word": "kitchen", "wordID": 777, "conditions": [24, 800, "v", 12000], "trial": 7, "serialpos": 13, "trial_type": "single-stim", "trial_index": 254, "time_elapsed": 1139289, "internal_node_id": "0.0-182.0"}}, {"uniqueid": "MTK0692:3G5F9DBFOQ4VK5SOA3UENG9CHX5VH0", "current_trial": 255, "dateTime": 1512600179690, "trialdata": {"rt": -1, "stimulus": "<p id=\"stim\">HUSBAND</p>", "key_press": -1, "type": "PRES_VIS", "word": "husband", "wordID": 727, "conditions": [24, 800, "v", 12000], "trial": 7, "serialpos": 14, "trial_type": "single-stim", "trial_index": 255, "time_elapsed": 1141158, "internal_node_id": "0.0-183.0"}}, {"uniqueid": "MTK0692:3G5F9DBFOQ4VK5SOA3UENG9CHX5VH0", "current_trial": 256, "dateTime": 1512600181616, "trialdata": {"rt": -1, "stimulus": "<p id=\"stim\">TYPIST</p>", "key_press": -1, "type": "PRES_VIS", "word": "typist", "wordID": 1531, "conditions": [24, 800, "v", 12000], "trial": 7, "serialpos": 15, "trial_type": "single-stim", "trial_index": 256, "time_elapsed": 1143084, "internal_node_id": "0.0-184.0"}}, {"uniqueid": "MTK0692:3G5F9DBFOQ4VK5SOA3UENG9CHX5VH0", "current_trial": 257, "dateTime": 1512600183562, "trialdata": {"rt": -1, "stimulus": "<p id=\"stim\">RAZOR</p>", "key_press": -1, "type": "PRES_VIS", "word": "razor", "wordID": 1170, "conditions": [24, 800, "v", 12000], "trial": 7, "serialpos": 16, "trial_type": "single-stim", "trial_index": 257, "time_elapsed": 1145030, "internal_node_id": "0.0-185.0"}}, {"uniqueid": "MTK0692:3G5F9DBFOQ4VK5SOA3UENG9CHX5VH0", "current_trial": 258, "dateTime": 1512600185432, "trialdata": {"rt": -1, "stimulus": "<p id=\"stim\">GRAVE</p>", "key_press": -1, "type": "PRES_VIS", "word": "grave", "wordID": 657, "conditions": [24, 800, "v", 12000], "trial": 7, "serialpos": 17, "trial_type": "single-stim", "trial_index": 258, "time_elapsed": 1146900, "internal_node_id": "0.0-186.0"}}, {"uniqueid": "MTK0692:3G5F9DBFOQ4VK5SOA3UENG9CHX5VH0", "current_trial": 259, "dateTime": 1512600187233, "trialdata": {"rt": -1, "stimulus": "<p id=\"stim\">TORTOISE</p>", "key_press": -1, "type": "PRES_VIS", "word": "tortoise", "wordID": 1485, "conditions": [24, 800, "v", 12000], "trial": 7, "serialpos": 18, "trial_type": "single-stim", "trial_index": 259, "time_elapsed": 1148701, "internal_node_id": "0.0-187.0"}}, {"uniqueid": "MTK0692:3G5F9DBFOQ4VK5SOA3UENG9CHX5VH0", "current_trial": 260, "dateTime": 1512600188911, "trialdata": {"rt": -1, "stimulus": "<p id=\"stim\">PIANO</p>", "key_press": -1, "type": "PRES_VIS", "word": "piano", "wordID": 1056, "conditions": [24, 800, "v", 12000], "trial": 7, "serialpos": 19, "trial_type": "single-stim", "trial_index": 260, "time_elapsed": 1150379, "internal_node_id": "0.0-188.0"}}, {"uniqueid": "MTK0692:3G5F9DBFOQ4VK5SOA3UENG9CHX5VH0", "current_trial": 261, "dateTime": 1512600190623, "trialdata": {"rt": -1, "stimulus": "<p id=\"stim\">FEMALE</p>", "key_press": -1, "type": "PRES_VIS", "word": "female", "wordID": 558, "conditions": [24, 800, "v", 12000], "trial": 7, "serialpos": 20, "trial_type": "single-stim", "trial_index": 261, "time_elapsed": 1152090, "internal_node_id": "0.0-189.0"}}, {"uniqueid": "MTK0692:3G5F9DBFOQ4VK5SOA3UENG9CHX5VH0", "current_trial": 262, "dateTime": 1512600192512, "trialdata": {"rt": -1, "stimulus": "<p id=\"stim\">SCALPEL</p>", "key_press": -1, "type": "PRES_VIS", "word": "scalpel", "wordID": 1242, "conditions": [24, 800, "v", 12000], "trial": 7, "serialpos": 21, "trial_type": "single-stim", "trial_index": 262, "time_elapsed": 1153979, "internal_node_id": "0.0-190.0"}}, {"uniqueid": "MTK0692:3G5F9DBFOQ4VK5SOA3UENG9CHX5VH0", "current_trial": 263, "dateTime": 1512600194282, "trialdata": {"rt": -1, "stimulus": "<p id=\"stim\">FIREMAN</p>", "key_press": -1, "type": "PRES_VIS", "word": "fireman", "wordID": 568, "conditions": [24, 800, "v", 12000], "trial": 7, "serialpos": 22, "trial_type": "single-stim", "trial_index": 263, "time_elapsed": 1155750, "internal_node_id": "0.0-191.0"}}, {"uniqueid": "MTK0692:3G5F9DBFOQ4VK5SOA3UENG9CHX5VH0", "current_trial": 264, "dateTime": 1512600196004, "trialdata": {"rt": -1, "stimulus": "<p id=\"stim\">SUITCASE</p>", "key_press": -1, "type": "PRES_VIS", "word": "suitcase", "wordID": 1402, "conditions": [24, 800, "v", 12000], "trial": 7, "serialpos": 23, "trial_type": "single-stim", "trial_index": 264, "time_elapsed": 1157472, "internal_node_id": "0.0-192.0"}}, {"uniqueid": "MTK0692:3G5F9DBFOQ4VK5SOA3UENG9CHX5VH0", "current_trial": 265, "dateTime": 1512600198444, "trialdata": {"rt": -1, "stimulus": "", "key_press": -1, "type": "PRE_RECALL_DELAY", "trial_type": "single-stim", "trial_index": 265, "time_elapsed": 1159912, "internal_node_id": "0.0-193.0-0.0"}}, {"uniqueid": "MTK0692:3G5F9DBFOQ4VK5SOA3UENG9CHX5VH0", "current_trial": 266, "dateTime": 1512600198945, "trialdata": {"rt": -1000, "stimulus": "/static/audio/400Hz.wav", "key_press": -1, "type": "PRE_RECALL_ALERT", "trial_type": "single-audio", "trial_index": 266, "time_elapsed": 1160413, "internal_node_id": "0.0-194.0"}}, {"uniqueid": "MTK0692:3G5F9DBFOQ4VK5SOA3UENG9CHX5VH0", "current_trial": 267, "dateTime": 1512600258953, "trialdata": {"rt": [5942, 10254, 13567, 17775, 21278, 22080, 41726, 50118, 52934, 57478, 59238], "recwords": ["scalpel", "husband", "cyclone", "female", "lightning", "stone", "penguin?", "this", "is", "infuriatingly", "hard!"], "type": "FREE_RECALL", "conditions": [24, 800, "v", 12000], "trial": 7, "trial_type": "free-recall", "trial_index": 267, "time_elapsed": 1220417, "internal_node_id": "0.0-195.0-0.0"}}, {"uniqueid": "MTK0692:3G5F9DBFOQ4VK5SOA3UENG9CHX5VH0", "current_trial": 268, "dateTime": 1512600262595, "trialdata": {"rt": 1641, "key_press": 32, "type": "INSTRUCTIONS", "trial_type": "text", "trial_index": 268, "time_elapsed": 1224063, "internal_node_id": "0.0-196.0"}}, {"uniqueid": "MTK0692:3G5F9DBFOQ4VK5SOA3UENG9CHX5VH0", "current_trial": 269, "dateTime": 1512600276598, "trialdata": {"rt": [2084, 5395, 9805, 10044], "responses": ["7", "18", "23", ""], "num1": [3, 7, 9, 1, 3], "num2": [3, 7, 6, 6, 4], "num3": [1, 4, 8, 7, 6], "type": "DISTRACTOR", "conditions": [24, 1600, "v", 12000], "trial": 8, "trial_type": "math-distractor", "trial_index": 269, "time_elapsed": 1238066, "internal_node_id": "0.0-197.0"}}, {"uniqueid": "MTK0692:3G5F9DBFOQ4VK5SOA3UENG9CHX5VH0", "current_trial": 270, "dateTime": 1512600279600, "trialdata": {"rt": -1, "stimulus": "<p id=\"stim\">10</p>", "key_press": -1, "trial_type": "single-stim", "trial_index": 270, "time_elapsed": 1241068, "internal_node_id": "0.0-198.0-0.0"}}, {"uniqueid": "MTK0692:3G5F9DBFOQ4VK5SOA3UENG9CHX5VH0", "current_trial": 271, "dateTime": 1512600280604, "trialdata": {"rt": -1, "stimulus": "<p id=\"stim\">9</p>", "key_press": -1, "trial_type": "single-stim", "trial_index": 271, "time_elapsed": 1242072, "internal_node_id": "0.0-198.0-1.0"}}, {"uniqueid": "MTK0692:3G5F9DBFOQ4VK5SOA3UENG9CHX5VH0", "current_trial": 272, "dateTime": 1512600281605, "trialdata": {"rt": -1, "stimulus": "<p id=\"stim\">8</p>", "key_press": -1, "trial_type": "single-stim", "trial_index": 272, "time_elapsed": 1243072, "internal_node_id": "0.0-198.0-2.0"}}, {"uniqueid": "MTK0692:3G5F9DBFOQ4VK5SOA3UENG9CHX5VH0", "current_trial": 273, "dateTime": 1512600282607, "trialdata": {"rt": -1, "stimulus": "<p id=\"stim\">7</p>", "key_press": -1, "trial_type": "single-stim", "trial_index": 273, "time_elapsed": 1244075, "internal_node_id": "0.0-198.0-3.0"}}, {"uniqueid": "MTK0692:3G5F9DBFOQ4VK5SOA3UENG9CHX5VH0", "current_trial": 274, "dateTime": 1512600283609, "trialdata": {"rt": -1, "stimulus": "<p id=\"stim\">6</p>", "key_press": -1, "trial_type": "s