{"condition": 0, "counterbalance": 803, "assignmentId": "3JPSL1DZ5T632DB126YVWDSVJ6ANAC", "workerId": "MTK0889", "hitId": "3HEADTGN2PZ6MF8XG616C0FYP5CVRE", "currenttrial": 626, "bonus": 0, "data": [{"uniqueid": "MTK0889:3JPSL1DZ5T632DB126YVWDSVJ6ANAC", "current_trial": 0, "dateTime": 1512862501673, "trialdata": {"rt": 3773, "key_press": 32, "type": "INSTRUCTIONS", "trial_type": "text", "trial_index": 0, "time_elapsed": 3776, "internal_node_id": "0.0-0.0"}}, {"uniqueid": "MTK0889:3JPSL1DZ5T632DB126YVWDSVJ6ANAC", "current_trial": 1, "dateTime": 1512862520846, "trialdata": {"rt": 19172, "key_press": 32, "type": "INSTRUCTIONS", "trial_type": "text", "trial_index": 1, "time_elapsed": 22951, "internal_node_id": "0.0-1.0"}}, {"uniqueid": "MTK0889:3JPSL1DZ5T632DB126YVWDSVJ6ANAC", "current_trial": 2, "dateTime": 1512862534813, "trialdata": {"rt": [13950], "responses": ["ocean"], "type": "AUDIO_TEST", "trial_type": "audio-test", "trial_index": 2, "time_elapsed": 36917, "internal_node_id": "0.0-2.0"}}, {"uniqueid": "MTK0889:3JPSL1DZ5T632DB126YVWDSVJ6ANAC", "current_trial": 3, "dateTime": 1512862542300, "trialdata": {"rt": [7484], "responses": ["crystal"], "type": "AUDIO_TEST", "trial_type": "audio-test", "trial_index": 3, "time_elapsed": 44405, "internal_node_id": "0.0-3.0"}}, {"uniqueid": "MTK0889:3JPSL1DZ5T632DB126YVWDSVJ6ANAC", "current_trial": 4, "dateTime": 1512862548324, "trialdata": {"rt": [6020], "responses": ["spice"], "type": "AUDIO_TEST", "trial_type": "audio-test", "trial_index": 4, "time_elapsed": 50429, "internal_node_id": "0.0-4.0"}}, {"uniqueid": "MTK0889:3JPSL1DZ5T632DB126YVWDSVJ6ANAC", "current_trial": 5, "dateTime": 1512862569823, "trialdata": {"rt": 20745, "responses": "{\"Q0\":\"1:00 am\",\"Q1\":\"9:00 am\",\"Q2\":\"4\"}", "type": "SLEEP_SURVEY", "trial_type": "survey-text", "trial_index": 5, "time_elapsed": 71928, "internal_node_id": "0.0-5.0"}}, {"uniqueid": "MTK0889:3JPSL1DZ5T632DB126YVWDSVJ6ANAC", "current_trial": 6, "dateTime": 1512862613515, "trialdata": {"rt": 42689, "key_press": 32, "type": "INSTRUCTIONS", "trial_type": "text", "trial_index": 6, "time_elapsed": 115620, "internal_node_id": "0.0-6.0"}}, {"uniqueid": "MTK0889:3JPSL1DZ5T632DB126YVWDSVJ6ANAC", "current_trial": 7, "dateTime": 1512862633750, "trialdata": {"rt": 19733, "key_press": 32, "type": "INSTRUCTIONS", "trial_type": "text", "trial_index": 7, "time_elapsed": 135855, "internal_node_id": "0.0-7.0"}}, {"uniqueid": "MTK0889:3JPSL1DZ5T632DB126YVWDSVJ6ANAC", "current_trial": 8, "dateTime": 1512862645300, "trialdata": {"rt": 11049, "key_press": 32, "type": "INSTRUCTIONS", "trial_type": "text", "trial_index": 8, "time_elapsed": 147405, "internal_node_id": "0.0-8.0"}}, {"uniqueid": "MTK0889:3JPSL1DZ5T632DB126YVWDSVJ6ANAC", "current_trial": 9, "dateTime": 1512862664309, "trialdata": {"rt": [2376, 8808, 11728, 15056], "responses": ["9", "23", "8", "17"], "num1": [3, 9, 5, 4, 4], "num2": [4, 7, 1, 9, 9], "num3": [2, 7, 2, 4, 6], "type": "DISTRACTOR", "conditions": [18, 1200, "v", 18000], "trial": 0, "trial_type": "math-distractor", "trial_index": 9, "time_elapsed": 166414, "internal_node_id": "0.0-9.0"}}, {"uniqueid": "MTK0889:3JPSL1DZ5T632DB126YVWDSVJ6ANAC", "current_trial": 10, "dateTime": 1512862667313, "trialdata": {"rt": -1, "stimulus": "<p id=\"stim\">10</p>", "key_press": -1, "trial_type": "single-stim", "trial_index": 10, "time_elapsed": 169418, "internal_node_id": "0.0-10.0-0.0"}}, {"uniqueid": "MTK0889:3JPSL1DZ5T632DB126YVWDSVJ6ANAC", "current_trial": 11, "dateTime": 1512862668315, "trialdata": {"rt": -1, "stimulus": "<p id=\"stim\">9</p>", "key_press": -1, "trial_type": "single-stim", "trial_index": 11, "time_elapsed": 170420, "internal_node_id": "0.0-10.0-1.0"}}, {"uniqueid": "MTK0889:3JPSL1DZ5T632DB126YVWDSVJ6ANAC", "current_trial": 12, "dateTime": 1512862669316, "trialdata": {"rt": -1, "stimulus": "<p id=\"stim\">8</p>", "key_press": -1, "trial_type": "single-stim", "trial_index": 12, "time_elapsed": 171421, "internal_node_id": "0.0-10.0-2.0"}}, {"uniqueid": "MTK0889:3JPSL1DZ5T632DB126YVWDSVJ6ANAC", "current_trial": 13, "dateTime": 1512862670318, "trialdata": {"rt": -1, "stimulus": "<p id=\"stim\">7</p>", "key_press": -1, "trial_type": "single-stim", "trial_index": 13, "time_elapsed": 172423, "internal_node_id": "0.0-10.0-3.0"}}, {"uniqueid": "MTK0889:3JPSL1DZ5T632DB126YVWDSVJ6ANAC", "current_trial": 14, "dateTime": 1512862671319, "trialdata": {"rt": -1, "stimulus": "<p id=\"stim\">6</p>", "key_press": -1, "trial_type": "single-stim", "trial_index": 14, "time_elapsed": 173424, "internal_node_id": "0.0-10.0-4.0"}}, {"uniqueid": "MTK0889:3JPSL1DZ5T632DB126YVWDSVJ6ANAC", "current_trial": 15, "dateTime": 1512862672323, "trialdata": {"rt": -1, "stimulus": "<p id=\"stim\">5</p>", "key_press": -1, "trial_type": "single-stim", "trial_index": 15, "time_elapsed": 174428, "internal_node_id": "0.0-10.0-5.0"}}, {"uniqueid": "MTK0889:3JPSL1DZ5T632DB126YVWDSVJ6ANAC", "current_trial": 16, "dateTime": 1512862673325, "trialdata": {"rt": -1, "stimulus": "<p id=\"stim\">4</p>", "key_press": -1, "trial_type": "single-stim", "trial_index": 16, "time_elapsed": 175430, "internal_node_id": "0.0-10.0-6.0"}}, {"uniqueid": "MTK0889:3JPSL1DZ5T632DB126YVWDSVJ6ANAC", "current_trial": 17, "dateTime": 1512862674327, "trialdata": {"rt": -1, "stimulus": "<p id=\"stim\">3</p>", "key_press": -1, "trial_type": "single-stim", "trial_index": 17, "time_elapsed": 176432, "internal_node_id": "0.0-10.0-7.0"}}, {"uniqueid": "MTK0889:3JPSL1DZ5T632DB126YVWDSVJ6ANAC", "current_trial": 18, "dateTime": 1512862675328, "trialdata": {"rt": -1, "stimulus": "<p id=\"stim\">2</p>", "key_press": -1, "trial_type": "single-stim", "trial_index": 18, "time_elapsed": 177433, "internal_node_id": "0.0-10.0-8.0"}}, {"uniqueid": "MTK0889:3JPSL1DZ5T632DB126YVWDSVJ6ANAC", "current_trial": 19, "dateTime": 1512862676329, "trialdata": {"rt": -1, "stimulus": "<p id=\"stim\">1</p>", "key_press": -1, "trial_type": "single-stim", "trial_index": 19, "time_elapsed": 178434, "internal_node_id": "0.0-10.0-9.0"}}, {"uniqueid": "MTK0889:3JPSL1DZ5T632DB126YVWDSVJ6ANAC", "current_trial": 20, "dateTime": 1512862677831, "trialdata": {"rt": -1, "stimulus": "<p id=\"stim\">+</p>", "key_press": -1, "type": "FIXATION", "trial_type": "single-stim", "trial_index": 20, "time_elapsed": 179936, "internal_node_id": "0.0-11.0-0.0"}}, {"uniqueid": "MTK0889:3JPSL1DZ5T632DB126YVWDSVJ6ANAC", "current_trial": 21, "dateTime": 1512862679033, "trialdata": {"rt": -1, "stimulus": "<p id=\"stim\">POISON</p>", "key_press": -1, "type": "PRES_VIS", "word": "poison", "wordID": 1095, "conditions": [18, 1200, "v", 18000], "trial": 0, "serialpos": 0, "trial_type": "single-stim", "trial_index": 21, "time_elapsed": 181138, "internal_node_id": "0.0-12.0"}}, {"uniqueid": "MTK0889:3JPSL1DZ5T632DB126YVWDSVJ6ANAC", "current_trial": 22, "dateTime": 1512862681063, "trialdata": {"rt": -1, "stimulus": "<p id=\"stim\">BRACES</p>", "key_press": -1, "type": "PRES_VIS", "word": "braces", "wordID": 163, "conditions": [18, 1200, "v", 18000], "trial": 0, "serialpos": 1, "trial_type": "single-stim", "trial_index": 22, "time_elapsed": 183168, "internal_node_id": "0.0-13.0"}}, {"uniqueid": "MTK0889:3JPSL1DZ5T632DB126YVWDSVJ6ANAC", "current_trial": 23, "dateTime": 1512862683447, "trialdata": {"rt": -1, "stimulus": "<p id=\"stim\">DRINK</p>", "key_press": -1, "type": "PRES_VIS", "word": "drink", "wordID": 497, "conditions": [18, 1200, "v", 18000], "trial": 0, "serialpos": 2, "trial_type": "single-stim", "trial_index": 23, "time_elapsed": 185552, "internal_node_id": "0.0-14.0"}}, {"uniqueid": "MTK0889:3JPSL1DZ5T632DB126YVWDSVJ6ANAC", "current_trial": 24, "dateTime": 1512862685575, "trialdata": {"rt": -1, "stimulus": "<p id=\"stim\">LAVA</p>", "key_press": -1, "type": "PRES_VIS", "word": "lava", "wordID": 803, "conditions": [18, 1200, "v", 18000], "trial": 0, "serialpos": 3, "trial_type": "single-stim", "trial_index": 24, "time_elapsed": 187680, "internal_node_id": "0.0-15.0"}}, {"uniqueid": "MTK0889:3JPSL1DZ5T632DB126YVWDSVJ6ANAC", "current_trial": 25, "dateTime": 1512862687762, "trialdata": {"rt": -1, "stimulus": "<p id=\"stim\">PUPPY</p>", "key_press": -1, "type": "PRES_VIS", "word": "puppy", "wordID": 1143, "conditions": [18, 1200, "v", 18000], "trial": 0, "serialpos": 4, "trial_type": "single-stim", "trial_index": 25, "time_elapsed": 189867, "internal_node_id": "0.0-16.0"}}, {"uniqueid": "MTK0889:3JPSL1DZ5T632DB126YVWDSVJ6ANAC", "current_trial": 26, "dateTime": 1512862689794, "trialdata": {"rt": -1, "stimulus": "<p id=\"stim\">STALLION</p>", "key_press": -1, "type": "PRES_VIS", "word": "stallion", "wordID": 1368, "conditions": [18, 1200, "v", 18000], "trial": 0, "serialpos": 5, "trial_type": "single-stim", "trial_index": 26, "time_elapsed": 191899, "internal_node_id": "0.0-17.0"}}, {"uniqueid": "MTK0889:3JPSL1DZ5T632DB126YVWDSVJ6ANAC", "current_trial": 27, "dateTime": 1512862691972, "trialdata": {"rt": -1, "stimulus": "<p id=\"stim\">CASHEW</p>", "key_press": -1, "type": "PRES_VIS", "word": "cashew", "wordID": 252, "conditions": [18, 1200, "v", 18000], "trial": 0, "serialpos": 6, "trial_type": "single-stim", "trial_index": 27, "time_elapsed": 194077, "internal_node_id": "0.0-18.0"}}, {"uniqueid": "MTK0889:3JPSL1DZ5T632DB126YVWDSVJ6ANAC", "current_trial": 28, "dateTime": 1512862694334, "trialdata": {"rt": -1, "stimulus": "<p id=\"stim\">GRAPE</p>", "key_press": -1, "type": "PRES_VIS", "word": "grape", "wordID": 653, "conditions": [18, 1200, "v", 18000], "trial": 0, "serialpos": 7, "trial_type": "single-stim", "trial_index": 28, "time_elapsed": 196439, "internal_node_id": "0.0-19.0"}}, {"uniqueid": "MTK0889:3JPSL1DZ5T632DB126YVWDSVJ6ANAC", "current_trial": 29, "dateTime": 1512862696722, "trialdata": {"rt": -1, "stimulus": "<p id=\"stim\">ZIPPER</p>", "key_press": -1, "type": "PRES_VIS", "word": "zipper", "wordID": 1635, "conditions": [18, 1200, "v", 18000], "trial": 0, "serialpos": 8, "trial_type": "single-stim", "trial_index": 29, "time_elapsed": 198827, "internal_node_id": "0.0-20.0"}}, {"uniqueid": "MTK0889:3JPSL1DZ5T632DB126YVWDSVJ6ANAC", "current_trial": 30, "dateTime": 1512862698957, "trialdata": {"rt": -1, "stimulus": "<p id=\"stim\">ROBOT</p>", "key_press": -1, "type": "PRES_VIS", "word": "robot", "wordID": 1199, "conditions": [18, 1200, "v", 18000], "trial": 0, "serialpos": 9, "trial_type": "single-stim", "trial_index": 30, "time_elapsed": 201062, "internal_node_id": "0.0-21.0"}}, {"uniqueid": "MTK0889:3JPSL1DZ5T632DB126YVWDSVJ6ANAC", "current_trial": 31, "dateTime": 1512862701273, "trialdata": {"rt": -1, "stimulus": "<p id=\"stim\">SURVEY</p>", "key_press": -1, "type": "PRES_VIS", "word": "survey", "wordID": 1413, "conditions": [18, 1200, "v", 18000], "trial": 0, "serialpos": 10, "trial_type": "single-stim", "trial_index": 31, "time_elapsed": 203378, "internal_node_id": "0.0-22.0"}}, {"uniqueid": "MTK0889:3JPSL1DZ5T632DB126YVWDSVJ6ANAC", "current_trial": 32, "dateTime": 1512862703337, "trialdata": {"rt": -1, "stimulus": "<p id=\"stim\">FOOT</p>", "key_press": -1, "type": "PRES_VIS", "word": "foot", "wordID": 589, "conditions": [18, 1200, "v", 18000], "trial": 0, "serialpos": 11, "trial_type": "single-stim", "trial_index": 32, "time_elapsed": 205442, "internal_node_id": "0.0-23.0"}}, {"uniqueid": "MTK0889:3JPSL1DZ5T632DB126YVWDSVJ6ANAC", "current_trial": 33, "dateTime": 1512862705684, "trialdata": {"rt": -1, "stimulus": "<p id=\"stim\">ICING</p>", "key_press": -1, "type": "PRES_VIS", "word": "icing", "wordID": 731, "conditions": [18, 1200, "v", 18000], "trial": 0, "serialpos": 12, "trial_type": "single-stim", "trial_index": 33, "time_elapsed": 207789, "internal_node_id": "0.0-24.0"}}, {"uniqueid": "MTK0889:3JPSL1DZ5T632DB126YVWDSVJ6ANAC", "current_trial": 34, "dateTime": 1512862707819, "trialdata": {"rt": -1, "stimulus": "<p id=\"stim\">EGYPT</p>", "key_press": -1, "type": "PRES_VIS", "word": "egypt", "wordID": 518, "conditions": [18, 1200, "v", 18000], "trial": 0, "serialpos": 13, "trial_type": "single-stim", "trial_index": 34, "time_elapsed": 209924, "internal_node_id": "0.0-25.0"}}, {"uniqueid": "MTK0889:3JPSL1DZ5T632DB126YVWDSVJ6ANAC", "current_trial": 35, "dateTime": 1512862710197, "trialdata": {"rt": -1, "stimulus": "<p id=\"stim\">WRIST</p>", "key_press": -1, "type": "PRES_VIS", "word": "wrist", "wordID": 1625, "conditions": [18, 1200, "v", 18000], "trial": 0, "serialpos": 14, "trial_type": "single-stim", "trial_index": 35, "time_elapsed": 212302, "internal_node_id": "0.0-26.0"}}, {"uniqueid": "MTK0889:3JPSL1DZ5T632DB126YVWDSVJ6ANAC", "current_trial": 36, "dateTime": 1512862712392, "trialdata": {"rt": -1, "stimulus": "<p id=\"stim\">UMPIRE</p>", "key_press": -1, "type": "PRES_VIS", "word": "umpire", "wordID": 1534, "conditions": [18, 1200, "v", 18000], "trial": 0, "serialpos": 15, "trial_type": "single-stim", "trial_index": 36, "time_elapsed": 214496, "internal_node_id": "0.0-27.0"}}, {"uniqueid": "MTK0889:3JPSL1DZ5T632DB126YVWDSVJ6ANAC", "current_trial": 37, "dateTime": 1512862714589, "trialdata": {"rt": -1, "stimulus": "<p id=\"stim\">GYMNAST</p>", "key_press": -1, "type": "PRES_VIS", "word": "gymnast", "wordID": 674, "conditions": [18, 1200, "v", 18000], "trial": 0, "serialpos": 16, "trial_type": "single-stim", "trial_index": 37, "time_elapsed": 216694, "internal_node_id": "0.0-28.0"}}, {"uniqueid": "MTK0889:3JPSL1DZ5T632DB126YVWDSVJ6ANAC", "current_trial": 38, "dateTime": 1512862716722, "trialdata": {"rt": -1, "stimulus": "<p id=\"stim\">HATCHET</p>", "key_press": -1, "type": "PRES_VIS", "word": "hatchet", "wordID": 690, "conditions": [18, 1200, "v", 18000], "trial": 0, "serialpos": 17, "trial_type": "single-stim", "trial_index": 38, "time_elapsed": 218827, "internal_node_id": "0.0-29.0"}}, {"uniqueid": "MTK0889:3JPSL1DZ5T632DB126YVWDSVJ6ANAC", "current_trial": 39, "dateTime": 1512862719028, "trialdata": {"rt": -1, "stimulus": "", "key_press": -1, "type": "PRE_RECALL_DELAY", "trial_type": "single-stim", "trial_index": 39, "time_elapsed": 221133, "internal_node_id": "0.0-30.0-0.0"}}, {"uniqueid": "MTK0889:3JPSL1DZ5T632DB126YVWDSVJ6ANAC", "current_trial": 40, "dateTime": 1512862719530, "trialdata": {"rt": -1000, "stimulus": "/static/audio/400Hz.wav", "key_press": -1, "type": "PRE_RECALL_ALERT", "trial_type": "single-audio", "trial_index": 40, "time_elapsed": 221635, "internal_node_id": "0.0-31.0"}}, {"uniqueid": "MTK0889:3JPSL1DZ5T632DB126YVWDSVJ6ANAC", "current_trial": 41, "dateTime": 1512862779537, "trialdata": {"rt": [2608, 4872, 7296, 8360, 16272, 49183], "recwords": ["hatchet", "poison", "survey", "foot", "braces", "hatchet"], "type": "FREE_RECALL", "conditions": [18, 1200, "v", 18000], "trial": 0, "trial_type": "free-recall", "trial_index": 41, "time_elapsed": 281638, "internal_node_id": "0.0-32.0-0.0"}}, {"uniqueid": "MTK0889:3JPSL1DZ5T632DB126YVWDSVJ6ANAC", "current_trial": 42, "dateTime": 1512862782748, "trialdata": {"rt": 1209, "key_press": 32, "type": "INSTRUCTIONS", "trial_type": "text", "trial_index": 42, "time_elapsed": 284853, "internal_node_id": "0.0-33.0"}}, {"uniqueid": "MTK0889:3JPSL1DZ5T632DB126YVWDSVJ6ANAC", "current_trial": 43, "dateTime": 1512862802752, "trialdata": {"rt": [2660, 5220, 7700, 9684, 11452, 14364, 16724], "responses": ["9", "8", "16", "16", "8", "22", "10"], "num1": [2, 3, 4, 7, 2, 7, 4, 5], "num2": [3, 1, 9, 1, 5, 6, 2, 7], "num3": [3, 4, 3, 8, 1, 9, 4, 8], "type": "DISTRACTOR", "conditions": [18, 1200, "a", 18000], "trial": 1, "trial_type": "math-distractor", "trial_index": 43, "time_elapsed": 304857, "internal_node_id": "0.0-34.0"}}, {"uniqueid": "MTK0889:3JPSL1DZ5T632DB126YVWDSVJ6ANAC", "current_trial": 44, "dateTime": 1512862805754, "trialdata": {"rt": -1, "stimulus": "<p id=\"stim\">10</p>", "key_press": -1, "trial_type": "single-stim", "trial_index": 44, "time_elapsed": 307859, "internal_node_id": "0.0-35.0-0.0"}}, {"uniqueid": "MTK0889:3JPSL1DZ5T632DB126YVWDSVJ6ANAC", "current_trial": 45, "dateTime": 1512862806755, "trialdata": {"rt": -1, "stimulus": "<p id=\"stim\">9</p>", "key_press": -1, "trial_type": "single-stim", "trial_index": 45, "time_elapsed": 308860, "internal_node_id": "0.0-35.0-1.0"}}, {"uniqueid": "MTK0889:3JPSL1DZ5T632DB126YVWDSVJ6ANAC", "current_trial": 46, "dateTime": 1512862807757, "trialdata": {"rt": -1, "stimulus": "<p id=\"stim\">8</p>", "key_press": -1, "trial_type": "single-stim", "trial_index": 46, "time_elapsed": 309862, "internal_node_id": "0.0-35.0-2.0"}}, {"uniqueid": "MTK0889:3JPSL1DZ5T632DB126YVWDSVJ6ANAC", "current_trial": 47, "dateTime": 1512862808758, "trialdata": {"rt": -1, "stimulus": "<p id=\"stim\">7</p>", "key_press": -1, "trial_type": "single-stim", "trial_index": 47, "time_elapsed": 310863, "internal_node_id": "0.0-35.0-3.0"}}, {"uniqueid": "MTK0889:3JPSL1DZ5T632DB126YVWDSVJ6ANAC", "current_trial": 48, "dateTime": 1512862809760, "trialdata": {"rt": -1, "stimulus": "<p id=\"stim\">6</p>", "key_press": -1, "trial_type": "single-stim", "trial_index": 48, "time_elapsed": 311865, "internal_node_id": "0.0-35.0-4.0"}}, {"uniqueid": "MTK0889:3JPSL1DZ5T632DB126YVWDSVJ6ANAC", "current_trial": 49, "dateTime": 1512862810762, "trialdata": {"rt": -1, "stimulus": "<p id=\"stim\">5</p>", "key_press": -1, "trial_type": "single-stim", "trial_index": 49, "time_elapsed": 312867, "internal_node_id": "0.0-35.0-5.0"}}, {"uniqueid": "MTK0889:3JPSL1DZ5T632DB126YVWDSVJ6ANAC", "current_trial": 50, "dateTime": 1512862811765, "trialdata": {"rt": -1, "stimulus": "<p id=\"stim\">4</p>", "key_press": -1, "trial_type": "single-stim", "trial_index": 50, "time_elapsed": 313870, "internal_node_id": "0.0-35.0-6.0"}}, {"uniqueid": "MTK0889:3JPSL1DZ5T632DB126YVWDSVJ6ANAC", "current_trial": 51, "dateTime": 1512862812766, "trialdata": {"rt": -1, "stimulus": "<p id=\"stim\">3</p>", "key_press": -1, "trial_type": "single-stim", "trial_index": 51, "time_elapsed": 314871, "internal_node_id": "0.0-35.0-7.0"}}, {"uniqueid": "MTK0889:3JPSL1DZ5T632DB126YVWDSVJ6ANAC", "current_trial": 52, "dateTime": 1512862813768, "trialdata": {"rt": -1, "stimulus": "<p id=\"stim\">2</p>", "key_press": -1, "trial_type": "single-stim", "trial_index": 52, "time_elapsed": 315873, "internal_node_id": "0.0-35.0-8.0"}}, {"uniqueid": "MTK0889:3JPSL1DZ5T632DB126YVWDSVJ6ANAC", "current_trial": 53, "dateTime": 1512862814769, "trialdata": {"rt": -1, "stimulus": "<p id=\"stim\">1</p>", "key_press": -1, "trial_type": "single-stim", "trial_index": 53, "time_elapsed": 316874, "internal_node_id": "0.0-35.0-9.0"}}, {"uniqueid": "MTK0889:3JPSL1DZ5T632DB126YVWDSVJ6ANAC", "current_trial": 54, "dateTime": 1512862816271, "trialdata": {"rt": -1, "stimulus": "<p id=\"stim\">+</p>", "key_press": -1, "type": "FIXATION", "trial_type": "single-stim", "trial_index": 54, "time_elapsed": 318376, "internal_node_id": "0.0-36.0-0.0"}}, {"uniqueid": "MTK0889:3JPSL1DZ5T632DB126YVWDSVJ6ANAC", "current_trial": 55, "dateTime": 1512862818396, "trialdata": {"rt": -1000, "stimulus": "/static/audio/wordpool/PECAN.wav", "key_press": -1, "type": "PRES_AUD", "word": "pecan", "wordID": 1035, "conditions": [18, 1200, "a", 18000], "trial": 1, "serialpos": 0, "trial_type": "single-audio", "trial_index": 55, "time_elapsed": 320501, "internal_node_id": "0.0-37.0"}}, {"uniqueid": "MTK0889:3JPSL1DZ5T632DB126YVWDSVJ6ANAC", "current_trial": 56, "dateTime": 1512862820400, "trialdata": {"rt": -1000, "stimulus": "/static/audio/wordpool/BULLET.wav", "key_press": -1, "type": "PRES_AUD", "word": "bullet", "wordID": 193, "conditions": [18, 1200, "a", 18000], "trial": 1, "serialpos": 1, "trial_type": "single-audio", "trial_index": 56, "time_elapsed": 322505, "internal_node_id": "0.0-38.0"}}, {"uniqueid": "MTK0889:3JPSL1DZ5T632DB126YVWDSVJ6ANAC", "current_trial": 57, "dateTime": 1512862822655, "trialdata": {"rt": -1000, "stimulus": "/static/audio/wordpool/ROOSTER.wav", "key_press": -1, "type": "PRES_AUD", "word": "rooster", "wordID": 1208, "conditions": [18, 1200, "a", 18000], "trial": 1, "serialpos": 2, "trial_type": "single-audio", "trial_index": 57, "time_elapsed": 324760, "internal_node_id": "0.0-39.0"}}, {"uniqueid": "MTK0889:3JPSL1DZ5T632DB126YVWDSVJ6ANAC", "current_trial": 58, "dateTime": 1512862824672, "trialdata": {"rt": -1000, "stimulus": "/static/audio/wordpool/CANYON.wav", "key_press": -1, "type": "PRES_AUD", "word": "canyon", "wordID": 234, "conditions": [18, 1200, "a", 18000], "trial": 1, "serialpos": 3, "trial_type": "single-audio", "trial_index": 58, "time_elapsed": 326777, "internal_node_id": "0.0-40.0"}}, {"uniqueid": "MTK0889:3JPSL1DZ5T632DB126YVWDSVJ6ANAC", "current_trial": 59, "dateTime": 1512862826777, "trialdata": {"rt": -1000, "stimulus": "/static/audio/wordpool/KLEENEX.wav", "key_press": -1, "type": "PRES_AUD", "word": "kleenex", "wordID": 781, "conditions": [18, 1200, "a", 18000], "trial": 1, "serialpos": 4, "trial_type": "single-audio", "trial_index": 59, "time_elapsed": 328882, "internal_node_id": "0.0-41.0"}}, {"uniqueid": "MTK0889:3JPSL1DZ5T632DB126YVWDSVJ6ANAC", "current_trial": 60, "dateTime": 1512862829030, "trialdata": {"rt": -1000, "stimulus": "/static/audio/wordpool/GRAVE.wav", "key_press": -1, "type": "PRES_AUD", "word": "grave", "wordID": 657, "conditions": [18, 1200, "a", 18000], "trial": 1, "serialpos": 5, "trial_type": "single-audio", "trial_index": 60, "time_elapsed": 331135, "internal_node_id": "0.0-42.0"}}, {"uniqueid": "MTK0889:3JPSL1DZ5T632DB126YVWDSVJ6ANAC", "current_trial": 61, "dateTime": 1512862831319, "trialdata": {"rt": -1000, "stimulus": "/static/audio/wordpool/PLIERS.wav", "key_press": -1, "type": "PRES_AUD", "word": "pliers", "wordID": 1088, "conditions": [18, 1200, "a", 18000], "trial": 1, "serialpos": 6, "trial_type": "single-audio", "trial_index": 61, "time_elapsed": 333424, "internal_node_id": "0.0-43.0"}}, {"uniqueid": "MTK0889:3JPSL1DZ5T632DB126YVWDSVJ6ANAC", "current_trial": 62, "dateTime": 1512862833603, "trialdata": {"rt": -1000, "stimulus": "/static/audio/wordpool/CARRIAGE.wav", "key_press": -1, "type": "PRES_AUD", "word": "carriage", "wordID": 247, "conditions": [18, 1200, "a", 18000], "trial": 1, "serialpos": 7, "trial_type": "single-audio", "trial_index": 62, "time_elapsed": 335707, "internal_node_id": "0.0-44.0"}}, {"uniqueid": "MTK0889:3JPSL1DZ5T632DB126YVWDSVJ6ANAC", "current_trial": 63, "dateTime": 1512862835632, "trialdata": {"rt": -1000, "stimulus": "/static/audio/wordpool/SCARECROW.wav", "key_press": -1, "type": "PRES_AUD", "word": "scarecrow", "wordID": 1244, "conditions": [18, 1200, "a", 18000], "trial": 1, "serialpos": 8, "trial_type": "single-audio", "trial_index": 63, "time_elapsed": 337736, "internal_node_id": "0.0-45.0"}}, {"uniqueid": "MTK0889:3JPSL1DZ5T632DB126YVWDSVJ6ANAC", "current_trial": 64, "dateTime": 1512862837771, "trialdata": {"rt": -1000, "stimulus": "/static/audio/wordpool/FINGER.wav", "key_press": -1, "type": "PRES_AUD", "word": "finger", "wordID": 566, "conditions": [18, 1200, "a", 18000], "trial": 1, "serialpos": 9, "trial_type": "single-audio", "trial_index": 64, "time_elapsed": 339876, "internal_node_id": "0.0-46.0"}}, {"uniqueid": "MTK0889:3JPSL1DZ5T632DB126YVWDSVJ6ANAC", "current_trial": 65, "dateTime": 1512862840016, "trialdata": {"rt": -1000, "stimulus": "/static/audio/wordpool/SKILLET.wav", "key_press": -1, "type": "PRES_AUD", "word": "skillet", "wordID": 1316, "conditions": [18, 1200, "a", 18000], "trial": 1, "serialpos": 10, "trial_type": "single-audio", "trial_index": 65, "time_elapsed": 342121, "internal_node_id": "0.0-47.0"}}, {"uniqueid": "MTK0889:3JPSL1DZ5T632DB126YVWDSVJ6ANAC", "current_trial": 66, "dateTime": 1512862842342, "trialdata": {"rt": -1000, "stimulus": "/static/audio/wordpool/SCALPEL.wav", "key_press": -1, "type": "PRES_AUD", "word": "scalpel", "wordID": 1242, "conditions": [18, 1200, "a", 18000], "trial": 1, "serialpos": 11, "trial_type": "single-audio", "trial_index": 66, "time_elapsed": 344447, "internal_node_id": "0.0-48.0"}}, {"uniqueid": "MTK0889:3JPSL1DZ5T632DB126YVWDSVJ6ANAC", "current_trial": 67, "dateTime": 1512862844415, "trialdata": {"rt": -1000, "stimulus": "/static/audio/wordpool/LEOPARD.wav", "key_press": -1, "type": "PRES_AUD", "word": "leopard", "wordID": 811, "conditions": [18, 1200, "a", 18000], "trial": 1, "serialpos": 12, "trial_type": "single-audio", "trial_index": 67, "time_elapsed": 346520, "internal_node_id": "0.0-49.0"}}, {"uniqueid": "MTK0889:3JPSL1DZ5T632DB126YVWDSVJ6ANAC", "current_trial": 68, "dateTime": 1512862846639, "trialdata": {"rt": -1000, "stimulus": "/static/audio/wordpool/SUMMIT.wav", "key_press": -1, "type": "PRES_AUD", "word": "summit", "wordID": 1404, "conditions": [18, 1200, "a", 18000], "trial": 1, "serialpos": 13, "trial_type": "single-audio", "trial_index": 68, "time_elapsed": 348741, "internal_node_id": "0.0-50.0"}}, {"uniqueid": "MTK0889:3JPSL1DZ5T632DB126YVWDSVJ6ANAC", "current_trial": 69, "dateTime": 1512862848836, "trialdata": {"rt": -1000, "stimulus": "/static/audio/wordpool/LOVER.wav", "key_press": -1, "type": "PRES_AUD", "word": "lover", "wordID": 845, "conditions": [18, 1200, "a", 18000], "trial": 1, "serialpos": 14, "trial_type": "single-audio", "trial_index": 69, "time_elapsed": 350941, "internal_node_id": "0.0-51.0"}}, {"uniqueid": "MTK0889:3JPSL1DZ5T632DB126YVWDSVJ6ANAC", "current_trial": 70, "dateTime": 1512862851216, "trialdata": {"rt": -1000, "stimulus": "/static/audio/wordpool/TRENCH.wav", "key_press": -1, "type": "PRES_AUD", "word": "trench", "wordID": 1502, "conditions": [18, 1200, "a", 18000], "trial": 1, "serialpos": 15, "trial_type": "single-audio", "trial_index": 70, "time_elapsed": 353321, "internal_node_id": "0.0-52.0"}}, {"uniqueid": "MTK0889:3JPSL1DZ5T632DB126YVWDSVJ6ANAC", "current_trial": 71, "dateTime": 1512862853342, "trialdata": {"rt": -1000, "stimulus": "/static/audio/wordpool/WASHER.wav", "key_press": -1, "type": "PRES_AUD", "word": "washer", "wordID": 1591, "conditions": [18, 1200, "a", 18000], "trial": 1, "serialpos": 16, "trial_type": "single-audio", "trial_index": 71, "time_elapsed": 355447, "internal_node_id": "0.0-53.0"}}, {"uniqueid": "MTK0889:3JPSL1DZ5T632DB126YVWDSVJ6ANAC", "current_trial": 72, "dateTime": 1512862855678, "trialdata": {"rt": -1000, "stimulus": "/static/audio/wordpool/FIREPLACE.wav", "key_press": -1, "type": "PRES_AUD", "word": "fireplace", "wordID": 569, "conditions": [18, 1200, "a", 18000], "trial": 1, "serialpos": 17, "trial_type": "single-audio", "trial_index": 72, "time_elapsed": 357783, "internal_node_id": "0.0-54.0"}}, {"uniqueid": "MTK0889:3JPSL1DZ5T632DB126YVWDSVJ6ANAC", "current_trial": 73, "dateTime": 1512862857036, "trialdata": {"rt": -1, "stimulus": "", "key_press": -1, "type": "PRE_RECALL_DELAY", "trial_type": "single-stim", "trial_index": 73, "time_elapsed": 359141, "internal_node_id": "0.0-55.0-0.0"}}, {"uniqueid": "MTK0889:3JPSL1DZ5T632DB126YVWDSVJ6ANAC", "current_trial": 74, "dateTime": 1512862857538, "trialdata": {"rt": -1000, "stimulus": "/static/audio/400Hz.wav", "key_press": -1, "type": "PRE_RECALL_ALERT", "trial_type": "single-audio", "trial_index": 74, "time_elapsed": 359643, "internal_node_id": "0.0-56.0"}}, {"uniqueid": "MTK0889:3JPSL1DZ5T632DB126YVWDSVJ6ANAC", "current_trial": 75, "dateTime": 1512862917548, "trialdata": {"rt": [2360, 5040, 6936, 8584, 12656, 17720, 22488, 38496], "recwords": ["washer", "fireplace", "pecan", "pliers", "scalpel", "fireplace", "shovel", "sugar"], "type": "FREE_RECALL", "conditions": [18, 1200, "a", 18000], "trial": 1, "trial_type": "free-recall", "trial_index": 75, "time_elapsed": 419647, "internal_node_id": "0.0-57.0-0.0"}}, {"uniqueid": "MTK0889:3JPSL1DZ5T632DB126YVWDSVJ6ANAC", "current_trial": 76, "dateTime": 1512862931498, "trialdata": {"rt": 11940, "key_press": 32, "type": "INSTRUCTIONS", "trial_type": "text", "trial_index": 76, "time_elapsed": 433597, "internal_node_id": "0.0-58.0"}}, {"uniqueid": "MTK0889:3JPSL1DZ5T632DB126YVWDSVJ6ANAC", "current_trial": 77, "dateTime": 1512862944501, "trialdata": {"rt": [2351, 5319, 9295, 11998], "responses": ["18", "18", "16", "20"], "num1": [6, 5, 9, 6, 2], "num2": [3, 8, 4, 8, 7], "num3": [9, 5, 3, 6, 4], "type": "DISTRACTOR", "conditions": [12, 800, "v", 12000], "trial": 2, "trial_type": "math-distractor", "trial_index": 77, "time_elapsed": 446606, "internal_node_id": "0.0-59.0"}}, {"uniqueid": "MTK0889:3JPSL1DZ5T632DB126YVWDSVJ6ANAC", "current_trial": 78, "dateTime": 1512862947506, "trialdata": {"rt": -1, "stimulus": "<p id=\"stim\">10</p>", "key_press": -1, "trial_type": "single-stim", "trial_index": 78, "time_elapsed": 449611, "internal_node_id": "0.0-60.0-0.0"}}, {"uniqueid": "MTK0889:3JPSL1DZ5T632DB126YVWDSVJ6ANAC", "current_trial": 79, "dateTime": 1512862948507, "trialdata": {"rt": -1, "stimulus": "<p id=\"stim\">9</p>", "key_press": -1, "trial_type": "single-stim", "trial_index": 79, "time_elapsed": 450612, "internal_node_id": "0.0-60.0-1.0"}}, {"uniqueid": "MTK0889:3JPSL1DZ5T632DB126YVWDSVJ6ANAC", "current_trial": 80, "dateTime": 1512862949508, "trialdata": {"rt": -1, "stimulus": "<p id=\"stim\">8</p>", "key_press": -1, "trial_type": "single-stim", "trial_index": 80, "time_elapsed": 451613, "internal_node_id": "0.0-60.0-2.0"}}, {"uniqueid": "MTK0889:3JPSL1DZ5T632DB126YVWDSVJ6ANAC", "current_trial": 81, "dateTime": 1512862950509, "trialdata": {"rt": -1, "stimulus": "<p id=\"stim\">7</p>", "key_press": -1, "trial_type": "single-stim", "trial_index": 81, "time_elapsed": 452614, "internal_node_id": "0.0-60.0-3.0"}}, {"uniqueid": "MTK0889:3JPSL1DZ5T632DB126YVWDSVJ6ANAC", "current_trial": 82, "dateTime": 1512862951511, "trialdata": {"rt": -1, "stimulus": "<p id=\"stim\">6</p>", "key_press": -1, "trial_type": "single-stim", "trial_index": 82, "time_elapsed": 453616, "internal_node_id": "0.0-60.0-4.0"}}, {"uniqueid": "MTK0889:3JPSL1DZ5T632DB126YVWDSVJ6ANAC", "current_trial": 83, "dateTime": 1512862952511, "trialdata": {"rt": -1, "stimulus": "<p id=\"stim\">5</p>", "key_press": -1, "trial_type": "single-stim", "trial_index": 83, "time_elapsed": 454616, "internal_node_id": "0.0-60.0-5.0"}}, {"uniqueid": "MTK0889:3JPSL1DZ5T632DB126YVWDSVJ6ANAC", "current_trial": 84, "dateTime": 1512862953513, "trialdata": {"rt": -1, "stimulus": "<p id=\"stim\">4</p>", "key_press": -1, "trial_type": "single-stim", "trial_index": 84, "time_elapsed": 455618, "internal_node_id": "0.0-60.0-6.0"}}, {"uniqueid": "MTK0889:3JPSL1DZ5T632DB126YVWDSVJ6ANAC", "current_trial": 85, "dateTime": 1512862954515, "trialdata": {"rt": -1, "stimulus": "<p id=\"stim\">3</p>", "key_press": -1, "trial_type": "single-stim", "trial_index": 85, "time_elapsed": 456620, "internal_node_id": "0.0-60.0-7.0"}}, {"uniqueid": "MTK0889:3JPSL1DZ5T632DB126YVWDSVJ6ANAC", "current_trial": 86, "dateTime": 1512862955518, "trialdata": {"rt": -1, "stimulus": "<p id=\"stim\">2</p>", "key_press": -1, "trial_type": "single-stim", "trial_index": 86, "time_elapsed": 457623, "internal_node_id": "0.0-60.0-8.0"}}, {"uniqueid": "MTK0889:3JPSL1DZ5T632DB126YVWDSVJ6ANAC", "current_trial": 87, "dateTime": 1512862956519, "trialdata": {"rt": -1, "stimulus": "<p id=\"stim\">1</p>", "key_press": -1, "trial_type": "single-stim", "trial_index": 87, "time_elapsed": 458624, "internal_node_id": "0.0-60.0-9.0"}}, {"uniqueid": "MTK0889:3JPSL1DZ5T632DB126YVWDSVJ6ANAC", "current_trial": 88, "dateTime": 1512862958021, "trialdata": {"rt": -1, "stimulus": "<p id=\"stim\">+</p>", "key_press": -1, "type": "FIXATION", "trial_type": "single-stim", "trial_index": 88, "time_elapsed": 460126, "internal_node_id": "0.0-61.0-0.0"}}, {"uniqueid": "MTK0889:3JPSL1DZ5T632DB126YVWDSVJ6ANAC", "current_trial": 89, "dateTime": 1512862958822, "trialdata": {"rt": -1, "stimulus": "<p id=\"stim\">BLADE</p>", "key_press": -1, "type": "PRES_VIS", "word": "blade", "wordID": 133, "conditions": [12, 800, "v", 12000], "trial": 2, "serialpos": 0, "trial_type": "single-stim", "trial_index": 89, "time_elapsed": 460927, "internal_node_id": "0.0-62.0"}}, {"uniqueid": "MTK0889:3JPSL1DZ5T632DB126YVWDSVJ6ANAC", "current_trial": 90, "dateTime": 1512862960592, "trialdata": {"rt": -1, "stimulus": "<p id=\"stim\">GAZELLE</p>", "key_press": -1, "type": "PRES_VIS", "word": "gazelle", "wordID": 627, "conditions": [12, 800, "v", 12000], "trial": 2, "serialpos": 1, "trial_type": "single-stim", "trial_index": 90, "time_elapsed": 462697, "internal_node_id": "0.0-63.0"}}, {"uniqueid": "MTK0889:3JPSL1DZ5T632DB126YVWDSVJ6ANAC", "current_trial": 91, "dateTime": 1512862962231, "trialdata": {"rt": -1, "stimulus": "<p id=\"stim\">ACTOR</p>", "key_press": -1, "type": "PRES_VIS", "word": "actor", "wordID": 4, "conditions": [12, 800, "v", 12000], "trial": 2, "serialpos": 2, "trial_type": "single-stim", "trial_index": 91, "time_elapsed": 464336, "internal_node_id": "0.0-64.0"}}, {"uniqueid": "MTK0889:3JPSL1DZ5T632DB126YVWDSVJ6ANAC", "current_trial": 92, "dateTime": 1512862964106, "trialdata": {"rt": -1, "stimulus": "<p id=\"stim\">FLOWER</p>", "key_press": -1, "type": "PRES_VIS", "word": "flower", "wordID": 583, "conditions": [12, 800, "v", 12000], "trial": 2, "serialpos": 3, "trial_type": "single-stim", "trial_index": 92, "time_elapsed": 466211, "internal_node_id": "0.0-65.0"}}, {"uniqueid": "MTK0889:3JPSL1DZ5T632DB126YVWDSVJ6ANAC", "current_trial": 93, "dateTime": 1512862966109, "trialdata": {"rt": -1, "stimulus": "<p id=\"stim\">FLUTE</p>", "key_press": -1, "type": "PRES_VIS", "word": "flute", "wordID": 584, "conditions": [12, 800, "v", 12000], "trial": 2, "serialpos": 4, "trial_type": "single-stim", "trial_index": 93, "time_elapsed": 468214, "internal_node_id": "0.0-66.0"}}, {"uniqueid": "MTK0889:3JPSL1DZ5T632DB126YVWDSVJ6ANAC", "current_trial": 94, "dateTime": 1512862967828, "trialdata": {"rt": -1, "stimulus": "<p id=\"stim\">GARDEN</p>", "key_press": -1, "type": "PRES_VIS", "word": "garden", "wordID": 622, "conditions": [12, 800, "v", 12000], "trial": 2, "serialpos": 5, "trial_type": "single-stim", "trial_index": 94, "time_elapsed": 469933, "internal_node_id": "0.0-67.0"}}, {"uniqueid": "MTK0889:3JPSL1DZ5T632DB126YVWDSVJ6ANAC", "current_trial": 95, "dateTime": 1512862969819, "trialdata": {"rt": -1, "stimulus": "<p id=\"stim\">ORCHID</p>", "key_press": -1, "type": "PRES_VIS", "word": "orchid", "wordID": 981, "conditions": [12, 800, "v", 12000], "trial": 2, "serialpos": 6, "trial_type": "single-stim", "trial_index": 95, "time_elapsed": 471924, "internal_node_id": "0.0-68.0"}}, {"uniqueid": "MTK0889:3JPSL1DZ5T632DB126YVWDSVJ6ANAC", "current_trial": 96, "dateTime": 1512862971625, "trialdata": {"rt": -1, "stimulus": "<p id=\"stim\">BLUEPRINT</p>", "key_press": -1, "type": "PRES_VIS", "word": "blueprint", "wordID": 141, "conditions": [12, 800, "v", 12000], "trial": 2, "serialpos": 7, "trial_type": "single-stim", "trial_index": 96, "time_elapsed": 473730, "internal_node_id": "0.0-69.0"}}, {"uniqueid": "MTK0889:3JPSL1DZ5T632DB126YVWDSVJ6ANAC", "current_trial": 97, "dateTime": 1512862973379, "trialdata": {"rt": -1, "stimulus": "<p id=\"stim\">COMPASS</p>", "key_press": -1, "type": "PRES_VIS", "word": "compass", "wordID": 357, "conditions": [12, 800, "v", 12000], "trial": 2, "serialpos": 8, "trial_type": "single-stim", "trial_index": 97, "time_elapsed": 475484, "internal_node_id": "0.0-70.0"}}, {"uniqueid": "MTK0889:3JPSL1DZ5T632DB126YVWDSVJ6ANAC", "current_trial": 98, "dateTime": 1512862975197, "trialdata": {"rt": -1, "stimulus": "<p id=\"stim\">FILM</p>", "key_press": -1, "type": "PRES_VIS", "word": "film", "wordID": 564, "conditions": [12, 800, "v", 12000], "trial": 2, "serialpos": 9, "trial_type": "single-stim", "trial_index": 98, "time_elapsed": 477302, "internal_node_id": "0.0-71.0"}}, {"uniqueid": "MTK0889:3JPSL1DZ5T632DB126YVWDSVJ6ANAC", "current_trial": 99, "dateTime": 1512862976909, "trialdata": {"rt": -1, "stimulus": "<p id=\"stim\">CHAPEL</p>", "key_press": -1, "type": "PRES_VIS", "word": "chapel", "wordID": 279, "conditions": [12, 800, "v", 12000], "trial": 2, "serialpos": 10, "trial_type": "single-stim", "trial_index": 99, "time_elapsed": 479014, "internal_node_id": "0.0-72.0"}}, {"uniqueid": "MTK0889:3JPSL1DZ5T632DB126YVWDSVJ6ANAC", "current_trial": 100, "dateTime": 1512862978747, "trialdata": {"rt": -1, "stimulus": "<p id=\"stim\">NOMAD</p>", "key_press": -1, "type": "PRES_VIS", "word": "nomad", "wordID": 954, "conditions": [12, 800, "v", 12000], "trial": 2, "serialpos": 11, "trial_type": "single-stim", "trial_index": 100, "time_elapsed": 480852, "internal_node_id": "0.0-73.0"}}, {"uniqueid": "MTK0889:3JPSL1DZ5T632DB126YVWDSVJ6ANAC", "current_trial": 101, "dateTime": 1512862980893, "trialdata": {"rt": -1, "stimulus": "", "key_press": -1, "type": "PRE_RECALL_DELAY", "trial_type": "single-stim", "trial_index": 101, "time_elapsed": 482998, "internal_node_id": "0.0-74.0-0.0"}}, {"uniqueid": "MTK0889:3JPSL1DZ5T632DB126YVWDSVJ6ANAC", "current_trial": 102, "dateTime": 1512862981395, "trialdata": {"rt": -1000, "stimulus": "/static/audio/400Hz.wav", "key_press": -1, "type": "PRE_RECALL_ALERT", "trial_type": "single-audio", "trial_index": 102, "time_elapsed": 483500, "internal_node_id": "0.0-75.0"}}, {"uniqueid": "MTK0889:3JPSL1DZ5T632DB126YVWDSVJ6ANAC", "current_trial": 103, "dateTime": 1512863041403, "trialdata": {"rt": [1974, 4326, 6422, 32230], "recwords": ["nomad", "orchid", "flower", "happy"], "type": "FREE_RECALL", "conditions": [12, 800, "v", 12000], "trial": 2, "trial_type": "free-recall", "trial_index": 103, "time_elapsed": 543504, "internal_node_id": "0.0-76.0-0.0"}}, {"uniqueid": "MTK0889:3JPSL1DZ5T632DB126YVWDSVJ6ANAC", "current_trial": 104, "dateTime": 1512863045468, "trialdata": {"rt": 2064, "key_press": 13, "type": "INSTRUCTIONS", "trial_type": "text", "trial_index": 104, "time_elapsed": 547573, "internal_node_id": "0.0-77.0"}}, {"uniqueid": "MTK0889:3JPSL1DZ5T632DB126YVWDSVJ6ANAC", "current_trial": 105, "dateTime": 1512863059472, "trialdata": {"rt": [1886, 4630, 7541, 9254, 11014], "responses": ["8", "22", "15", "10", "16"], "num1": [1, 7, 9, 8, 6, 2], "num2": [3, 7, 2, 1, 2, 9], "num3": [4, 8, 4, 1, 8, 6], "type": "DISTRACTOR", "conditions": [12, 1600, "v", 12000], "trial": 3, "trial_type": "math-distractor", "trial_index": 105, "time_elapsed": 561577, "internal_node_id": "0.0-78.0"}}, {"uniqueid": "MTK0889:3JPSL1DZ5T632DB126YVWDSVJ6ANAC", "current_trial": 106, "dateTime": 1512863062474, "trialdata": {"rt": -1, "stimulus": "<p id=\"stim\">10</p>", "key_press": -1, "trial_type": "single-stim", "trial_index": 106, "time_elapsed": 564579, "internal_node_id": "0.0-79.0-0.0"}}, {"uniqueid": "MTK0889:3JPSL1DZ5T632DB126YVWDSVJ6ANAC", "current_trial": 107, "dateTime": 1512863063476, "trialdata": {"rt": -1, "stimulus": "<p id=\"stim\">9</p>", "key_press": -1, "trial_type": "single-stim", "trial_index": 107, "time_elapsed": 565581, "internal_node_id": "0.0-79.0-1.0"}}, {"uniqueid": "MTK0889:3JPSL1DZ5T632DB126YVWDSVJ6ANAC", "current_trial": 108, "dateTime": 1512863064476, "trialdata": {"rt": -1, "stimulus": "<p id=\"stim\">8</p>", "key_press": -1, "trial_type": "single-stim", "trial_index": 108, "time_elapsed": 566581, "internal_node_id": "0.0-79.0-2.0"}}, {"uniqueid": "MTK0889:3JPSL1DZ5T632DB126YVWDSVJ6ANAC", "current_trial": 109, "dateTime": 1512863065479, "trialdata": {"rt": -1, "stimulus": "<p id=\"stim\">7</p>", "key_press": -1, "trial_type": "single-stim", "trial_index": 109, "time_elapsed": 567584, "internal_node_id": "0.0-79.0-3.0"}}, {"uniqueid": "MTK0889:3JPSL1DZ5T632DB126YVWDSVJ6ANAC", "current_trial": 110, "dateTime": 1512863066480, "trialdata": {"rt": -1, "stimulus": "<p id=\"stim\">6</p>", "key_press": -1, "trial_type": "single-stim", "trial_index": 110, "time_elapsed": 568584, "internal_node_id": "0.0-79.0-4.0"}}, {"uniqueid": "MTK0889:3JPSL1DZ5T632DB126YVWDSVJ6ANAC", "current_trial": 111, "dateTime": 1512863067482, "trialdata": {"rt": -1, "stimulus": "<p id=\"stim\">5</p>", "key_press": -1, "trial_type": "single-stim", "trial_index": 111, "time_elapsed": 569587, "internal_node_id": "0.0-79.0-5.0"}}, {"uniqueid": "MTK0889:3JPSL1DZ5T632DB126YVWDSVJ6ANAC", "current_trial": 112, "dateTime": 1512863068483, "trialdata": {"rt": -1, "stimulus": "<p id=\"stim\">4</p>", "key_press": -1, "trial_type": "single-stim", "trial_index": 112, "time_elapsed": 570588, "internal_node_id": "0.0-79.0-6.0"}}, {"uniqueid": "MTK0889:3JPSL1DZ5T632DB126YVWDSVJ6ANAC", "current_trial": 113, "dateTime": 1512863069484, "trialdata": {"rt": -1, "stimulus": "<p id=\"stim\">3</p>", "key_press": -1, "trial_type": "single-stim", "trial_index": 113, "time_elapsed": 571589, "internal_node_id": "0.0-79.0-7.0"}}, {"uniqueid": "MTK0889:3JPSL1DZ5T632DB126YVWDSVJ6ANAC", "current_trial": 114, "dateTime": 1512863070485, "trialdata": {"rt": -1, "stimulus": "<p id=\"stim\">2</p>", "key_press": -1, "trial_type": "single-stim", "trial_index": 114, "time_elapsed": 572590, "internal_node_id": "0.0-79.0-8.0"}}, {"uniqueid": "MTK0889:3JPSL1DZ5T632DB126YVWDSVJ6ANAC", "current_trial": 115, "dateTime": 1512863071486, "trialdata": {"rt": -1, "stimulus": "<p id=\"stim\">1</p>", "key_press": -1, "trial_type": "single-stim", "trial_index": 115, "time_elapsed": 573591, "internal_node_id": "0.0-79.0-9.0"}}, {"uniqueid": "MTK0889:3JPSL1DZ5T632DB126YVWDSVJ6ANAC", "current_trial": 116, "dateTime": 1512863072988, "trialdata": {"rt": -1, "stimulus": "<p id=\"stim\">+</p>", "key_press": -1, "type": "FIXATION", "trial_type": "single-stim", "trial_index": 116, "time_elapsed": 575093, "internal_node_id": "0.0-80.0-0.0"}}, {"uniqueid": "MTK0889:3JPSL1DZ5T632DB126YVWDSVJ6ANAC", "current_trial": 117, "dateTime": 1512863074590, "trialdata": {"rt": -1, "stimulus": "<p id=\"stim\">CLOTHES</p>", "key_press": -1, "type": "PRES_VIS", "word": "clothes", "wordID": 326, "conditions": [12, 1600, "v", 12000], "trial": 3, "serialpos": 0, "trial_type": "single-stim", "trial_index": 117, "time_elapsed": 576695, "internal_node_id": "0.0-81.0"}}, {"uniqueid": "MTK0889:3JPSL1DZ5T632DB126YVWDSVJ6ANAC", "current_trial": 118, "dateTime": 1512863077282, "trialdata": {"rt": -1, "stimulus": "<p id=\"stim\">ARM</p>", "key_press": -1, "type": "PRES_VIS", "word": "arm", "wordID": 37, "conditions": [12, 1600, "v", 12000], "trial": 3, "serialpos": 1, "trial_type": "single-stim", "trial_index": 118, "time_elapsed": 579387, "internal_node_id": "0.0-82.0"}}, {"uniqueid": "MTK0889:3JPSL1DZ5T632DB126YVWDSVJ6ANAC", "current_trial": 119, "dateTime": 1512863080002, "trialdata": {"rt": -1, "stimulus": "<p id=\"stim\">MAMMAL</p>", "key_press": -1, "type": "PRES_VIS", "word": "mammal", "wordID": 860, "conditions": [12, 1600, "v", 12000], "trial": 3, "serialpos": 2, "trial_type": "single-stim", "trial_index": 119, "time_elapsed": 582107, "internal_node_id": "0.0-83.0"}}, {"uniqueid": "MTK0889:3JPSL1DZ5T632DB126YVWDSVJ6ANAC", "current_trial": 120, "dateTime": 1512863082407, "trialdata": {"rt": -1, "stimulus": "<p id=\"stim\">PRIMATE</p>", "key_press": -1, "type": "PRES_VIS", "word": "primate", "wordID": 1122, "conditions": [12, 1600, "v", 12000], "trial": 3, "serialpos": 3, "trial_type": "single-stim", "trial_index": 120, "time_elapsed": 584512, "internal_node_id": "0.0-84.0"}}, {"uniqueid": "MTK0889:3JPSL1DZ5T632DB126YVWDSVJ6ANAC", "current_trial": 121, "dateTime": 1512863085178, "trialdata": {"rt": -1, "stimulus": "<p id=\"stim\">DAUGHTER</p>", "key_press": -1, "type": "PRES_VIS", "word": "daughter", "wordID": 441, "conditions": [12, 1600, "v", 12000], "trial": 3, "serialpos": 4, "trial_type": "single-stim", "trial_index": 121, "time_elapsed": 587283, "internal_node_id": "0.0-85.0"}}, {"uniqueid": "MTK0889:3JPSL1DZ5T632DB126YVWDSVJ6ANAC", "current_trial": 122, "dateTime": 1512863087856, "trialdata": {"rt": -1, "stimulus": "<p id=\"stim\">PROTON</p>", "key_press": -1, "type": "PRES_VIS", "word": "proton", "wordID": 1131, "conditions": [12, 1600, "v", 12000], "trial": 3, "serialpos": 5, "trial_type": "single-stim", "trial_index": 122, "time_elapsed": 589961, "internal_node_id": "0.0-86.0"}}, {"uniqueid": "MTK0889:3JPSL1DZ5T632DB126YVWDSVJ6ANAC", "current_trial": 123, "dateTime": 1512863090500, "trialdata": {"rt": -1, "stimulus": "<p id=\"stim\">BREAST</p>", "key_press": -1, "type": "PRES_VIS", "word": "breast", "wordID": 170, "conditions": [12, 1600, "v", 12000], "trial": 3, "serialpos": 6, "trial_type": "single-stim", "trial_index": 123, "time_elapsed": 592605, "internal_node_id": "0.0-87.0"}}, {"uniqueid": "MTK0889:3JPSL1DZ5T632DB126YVWDSVJ6ANAC", "current_trial": 124, "dateTime": 1512863093298, "trialdata": {"rt": -1, "stimulus": "<p id=\"stim\">SODA</p>", "key_press": -1, "type": "PRES_VIS", "word": "soda", "wordID": 1340, "conditions": [12, 1600, "v", 12000], "trial": 3, "serialpos": 7, "trial_type": "single-stim", "trial_index": 124, "time_elapsed": 595403, "internal_node_id": "0.0-88.0"}}, {"uniqueid": "MTK0889:3JPSL1DZ5T632DB126YVWDSVJ6ANAC", "current_trial": 125, "dateTime": 1512863095928, "trialdata": {"rt": -1, "stimulus": "<p id=\"stim\">SNAKE</p>", "key_press": -1, "type": "PRES_VIS", "word": "snake", "wordID": 1332, "conditions": [12, 1600, "v", 12000], "trial": 3, "serialpos": 8, "trial_type": "single-stim", "trial_index": 125, "time_elapsed": 598033, "internal_node_id": "0.0-89.0"}}, {"uniqueid": "MTK0889:3JPSL1DZ5T632DB126YVWDSVJ6ANAC", "current_trial": 126, "dateTime": 1512863098373, "trialdata": {"rt": -1, "stimulus": "<p id=\"stim\">COCOON</p>", "key_press": -1, "type": "PRES_VIS", "word": "cocoon", "wordID": 338, "conditions": [12, 1600, "v", 12000], "trial": 3, "serialpos": 9, "trial_type": "single-stim", "trial_index": 126, "time_elapsed": 600478, "internal_node_id": "0.0-90.0"}}, {"uniqueid": "MTK0889:3JPSL1DZ5T632DB126YVWDSVJ6ANAC", "current_trial": 127, "dateTime": 1512863100946, "trialdata": {"rt": -1, "stimulus": "<p id=\"stim\">COFFEE</p>", "key_press": -1, "type": "PRES_VIS", "word": "coffee", "wordID": 340, "conditions": [12, 1600, "v", 12000], "trial": 3, "serialpos": 10, "trial_type": "single-stim", "trial_index": 127, "time_elapsed": 603051, "internal_node_id": "0.0-91.0"}}, {"uniqueid": "MTK0889:3JPSL1DZ5T632DB126YVWDSVJ6ANAC", "current_trial": 128, "dateTime": 1512863103429, "trialdata": {"rt": -1, "stimulus": "<p id=\"stim\">ONION</p>", "key_press": -1, "type": "PRES_VIS", "word": "onion", "wordID": 976, "conditions": [12, 1600, "v", 12000], "trial": 3, "serialpos": 11, "trial_type": "single-stim", "trial_index": 128, "time_elapsed": 605533, "internal_node_id": "0.0-92.0"}}, {"uniqueid": "MTK0889:3JPSL1DZ5T632DB126YVWDSVJ6ANAC", "current_trial": 129, "dateTime": 1512863105647, "trialdata": {"rt": -1, "stimulus": "", "key_press": -1, "type": "PRE_RECALL_DELAY", "trial_type": "single-stim", "trial_index": 129, "time_elapsed": 607752, "internal_node_id": "0.0-93.0-0.0"}}, {"uniqueid": "MTK0889:3JPSL1DZ5T632DB126YVWDSVJ6ANAC", "current_trial": 130, "dateTime": 1512863106149, "trialdata": {"rt": -1000, "stimulus": "/static/audio/400Hz.wav", "key_press": -1, "type": "PRE_RECALL_ALERT", "trial_type": "single-audio", "trial_index": 130, "time_elapsed": 608254, "internal_node_id": "0.0-94.0"}}, {"uniqueid": "MTK0889:3JPSL1DZ5T632DB126YVWDSVJ6ANAC", "current_trial": 131, "dateTime": 1512863166158, "trialdata": {"rt": [4109, 5597, 6845, 9725, 13837, 27429, 29557], "recwords": ["coffee", "onion", "soda", "daughter", "snake", "poison", "proton"], "type": "FREE_RECALL", "conditions": [12, 1600, "v", 12000], "trial": 3, "trial_type": "free-recall", "trial_index": 131, "time_elapsed": 668257, "internal_node_id": "0.0-95.0-0.0"}}, {"uniqueid": "MTK0889:3JPSL1DZ5T632DB126YVWDSVJ6ANAC", "current_trial": 132, "dateTime": 1512863217179, "trialdata": {"rt": 49019, "key_press": 13, "type": "INSTRUCTIONS", "trial_type": "text", "trial_index": 132, "time_elapsed": 719284, "internal_node_id": "0.0-96.0"}}, {"uniqueid": "MTK0889:3JPSL1DZ5T632DB126YVWDSVJ6ANAC", "current_trial": 133, "dateTime": 1512863231182, "trialdata": {"rt": [1798, 4741, 6821, 9118, 11925], "responses": ["16", "14", "16", "13", "20"], "num1": [5, 2, 8, 7, 7, 5], "num2": [3, 7, 6, 5, 4, 3], "num3": [8, 5, 2, 1, 9, 1], "type": "DISTRACTOR", "conditions": [12, 1600, "a", 12000], "trial": 4, "trial_type": "math-distractor", "trial_index": 133, "time_elapsed": 733287, "internal_node_id": "0.0-97.0"}}, {"uniqueid": "MTK0889:3JPSL1DZ5T632DB126YVWDSVJ6ANAC", "current_trial": 134, "dateTime": 1512863234184, "trialdata": {"rt": -1, "stimulus": "<p id=\"stim\">10</p>", "key_press": -1, "trial_type": "single-stim", "trial_index": 134, "time_elapsed": 736289, "internal_node_id": "0.0-98.0-0.0"}}, {"uniqueid": "MTK0889:3JPSL1DZ5T632DB126YVWDSVJ6ANAC", "current_trial": 135, "dateTime": 1512863235186, "trialdata": {"rt": -1, "stimulus": "<p id=\"stim\">9</p>", "key_press": -1, "trial_type": "single-stim", "trial_index": 135, "time_elapsed": 737291, "internal_node_id": "0.0-98.0-1.0"}}, {"uniqueid": "MTK0889:3JPSL1DZ5T632DB126YVWDSVJ6ANAC", "current_trial": 136, "dateTime": 1512863236188, "trialdata": {"rt": -1, "stimulus": "<p id=\"stim\">8</p>", "key_press": -1, "trial_type": "single-stim", "trial_index": 136, "time_elapsed": 738293, "internal_node_id": "0.0-98.0-2.0"}}, {"uniqueid": "MTK0889:3JPSL1DZ5T632DB126YVWDSVJ6ANAC", "current_trial": 137, "dateTime": 1512863237189, "trialdata": {"rt": -1, "stimulus": "<p id=\"stim\">7</p>", "key_press": -1, "trial_type": "single-stim", "trial_index": 137, "time_elapsed": 739294, "internal_node_id": "0.0-98.0-3.0"}}, {"uniqueid": "MTK0889:3JPSL1DZ5T632DB126YVWDSVJ6ANAC", "current_trial": 138, "dateTime": 1512863238191, "trialdata": {"rt": -1, "stimulus": "<p id=\"stim\">6</p>", "key_press": -1, "trial_type": "single-stim", "trial_index": 138, "time_elapsed": 740296, "internal_node_id": "0.0-98.0-4.0"}}, {"uniqueid": "MTK0889:3JPSL1DZ5T632DB126YVWDSVJ6ANAC", "current_trial": 139, "dateTime": 1512863239192, "trialdata": {"rt": -1, "stimulus": "<p id=\"stim\">5</p>", "key_press": -1, "trial_type": "single-stim", "trial_index": 139, "time_elapsed": 741297, "internal_node_id": "0.0-98.0-5.0"}}, {"uniqueid": "MTK0889:3JPSL1DZ5T632DB126YVWDSVJ6ANAC", "current_trial": 140, "dateTime": 1512863240193, "trialdata": {"rt": -1, "stimulus": "<p id=\"stim\">4</p>", "key_press": -1, "trial_type": "single-stim", "trial_index": 140, "time_elapsed": 742298, "internal_node_id": "0.0-98.0-6.0"}}, {"uniqueid": "MTK0889:3JPSL1DZ5T632DB126YVWDSVJ6ANAC", "current_trial": 141, "dateTime": 1512863241195, "trialdata": {"rt": -1, "stimulus": "<p id=\"stim\">3</p>", "key_press": -1, "trial_type": "single-stim", "trial_index": 141, "time_elapsed": 743300, "internal_node_id": "0.0-98.0-7.0"}}, {"uniqueid": "MTK0889:3JPSL1DZ5T632DB126YVWDSVJ6ANAC", "current_trial": 142, "dateTime": 1512863242197, "trialdata": {"rt": -1, "stimulus": "<p id=\"stim\">2</p>", "key_press": -1, "trial_type": "single-stim", "trial_index": 142, "time_elapsed": 744301, "internal_node_id": "0.0-98.0-8.0"}}, {"uniqueid": "MTK0889:3JPSL1DZ5T632DB126YVWDSVJ6ANAC", "current_trial": 143, "dateTime": 1512863243199, "trialdata": {"rt": -1, "stimulus": "<p id=\"stim\">1</p>", "key_press": -1, "trial_type": "single-stim", "trial_index": 143, "time_elapsed": 745304, "internal_node_id": "0.0-98.0-9.0"}}, {"uniqueid": "MTK0889:3JPSL1DZ5T632DB126YVWDSVJ6ANAC", "current_trial": 144, "dateTime": 1512863244701, "trialdata": {"rt": -1, "stimulus": "<p id=\"stim\">+</p>", "key_press": -1, "type": "FIXATION", "trial_type": "single-stim", "trial_index": 144, "time_elapsed": 746806, "internal_node_id": "0.0-99.0-0.0"}}, {"uniqueid": "MTK0889:3JPSL1DZ5T632DB126YVWDSVJ6ANAC", "current_trial": 145, "dateTime": 1512863247401, "trialdata": {"rt": -1000, "stimulus": "/static/audio/wordpool/WORLD.wav", "key_press": -1, "type": "PRES_AUD", "word": "world", "wordID": 1621, "conditions": [12, 1600, "a", 12000], "trial": 4, "serialpos": 0, "trial_type": "single-audio", "trial_index": 145, "time_elapsed": 749506, "internal_node_id": "0.0-100.0"}}, {"uniqueid": "MTK0889:3JPSL1DZ5T632DB126YVWDSVJ6ANAC", "current_trial": 146, "dateTime": 1512863250087, "trialdata": {"rt": -1000, "stimulus": "/static/audio/wordpool/BACON.wav", "key_press": -1, "type": "PRES_AUD", "word": "bacon", "wordID": 66, "conditions": [12, 1600, "a", 12000], "trial": 4, "serialpos": 1, "trial_type": "single-audio", "trial_index": 146, "time_elapsed": 752192, "internal_node_id": "0.0-101.0"}}, {"uniqueid": "MTK0889:3JPSL1DZ5T632DB126YVWDSVJ6ANAC", "current_trial": 147, "dateTime": 1512863252847, "trialdata": {"rt": -1000, "stimulus": "/static/audio/wordpool/PORK.wav", "key_press": -1, "type": "PRES_AUD", "word": "pork", "wordID": 1107, "conditions": [12, 1600, "a", 12000], "trial": 4, "serialpos": 2, "trial_type": "single-audio", "trial_index": 147, "time_elapsed": 754952, "internal_node_id": "0.0-102.0"}}, {"uniqueid": "MTK0889:3JPSL1DZ5T632DB126YVWDSVJ6ANAC", "current_trial": 148, "dateTime": 1512863255343, "trialdata": {"rt": -1000, "stimulus": "/static/audio/wordpool/WAITRESS.wav", "key_press": -1, "type": "PRES_AUD", "word": "waitress", "wordID": 1580, "conditions": [12, 1600, "a", 12000], "trial": 4, "serialpos": 3, "trial_type": "single-audio", "trial_index": 148, "time_elapsed": 757447, "internal_node_id": "0.0-103.0"}}, {"uniqueid": "MTK0889:3JPSL1DZ5T632DB126YVWDSVJ6ANAC", "current_trial": 149, "dateTime": 1512863257864, "trialdata": {"rt": -1000, "stimulus": "/static/audio/wordpool/COUNTRY.wav", "key_press": -1, "type": "PRES_AUD", "word": "country", "wordID": 387, "conditions": [12, 1600, "a", 12000], "trial": 4, "serialpos": 4, "trial_type": "single-audio", "trial_index": 149, "time_elapsed": 759969, "internal_node_id": "0.0-104.0"}}, {"uniqueid": "MTK0889:3JPSL1DZ5T632DB126YVWDSVJ6ANAC", "current_trial": 150, "dateTime": 1512863260342, "trialdata": {"rt": -1000, "stimulus": "/static/audio/wordpool/LASER.wav", "key_press": -1, "type": "PRES_AUD", "word": "laser", "wordID": 800, "conditions": [12, 1600, "a", 12000], "trial": 4, "serialpos": 5, "trial_type": "single-audio", "trial_index": 150, "time_elapsed": 762447, "internal_node_id": "0.0-105.0"}}, {"uniqueid": "MTK0889:3JPSL1DZ5T632DB126YVWDSVJ6ANAC", "current_trial": 151, "dateTime": 1512863263074, "trialdata": {"rt": -1000, "stimulus": "/static/audio/wordpool/TOASTER.wav", "key_press": -1, "type": "PRES_AUD", "word": "toaster", "wordID": 1471, "conditions": [12, 1600, "a", 12000], "trial": 4, "serialpos": 6, "trial_type": "single-audio", "trial_index": 151, "time_elapsed": 765179, "internal_node_id": "0.0-106.0"}}, {"uniqueid": "MTK0889:3JPSL1DZ5T632DB126YVWDSVJ6ANAC", "current_trial": 152, "dateTime": 1512863265546, "trialdata": {"rt": -1000, "stimulus": "/static/audio/wordpool/SWORD.wav", "key_press": -1, "type": "PRES_AUD", "word": "sword", "wordID": 1422, "conditions": [12, 1600, "a", 12000], "trial": 4, "serialpos": 7, "trial_type": "single-audio", "trial_index": 152, "time_elapsed": 767651, "internal_node_id": "0.0-107.0"}}, {"uniqueid": "MTK0889:3JPSL1DZ5T632DB126YVWDSVJ6ANAC", "current_trial": 153, "dateTime": 1512863268146, "trialdata": {"rt": -1000, "stimulus": "/static/audio/wordpool/PALACE.wav", "key_press": -1, "type": "PRES_AUD", "word": "palace", "wordID": 1005, "conditions": [12, 1600, "a", 12000], "trial": 4, "serialpos": 8, "trial_type": "single-audio", "trial_index": 153, "time_elapsed": 770251, "internal_node_id": "0.0-108.0"}}, {"uniqueid": "MTK0889:3JPSL1DZ5T632DB126YVWDSVJ6ANAC", "current_trial": 154, "dateTime": 1512863270613, "trialdata": {"rt": -1000, "stimulus": "/static/audio/wordpool/PAPER.wav", "key_press": -1, "type": "PRES_AUD", "word": "paper", "wordID": 1010, "conditions": [12, 1600, "a", 12000], "trial": 4, "serialpos": 9, "trial_type": "single-audio", "trial_index": 154, "time_elapsed": 772718, "internal_node_id": "0.0-109.0"}}, {"uniqueid": "MTK0889:3JPSL1DZ5T632DB126YVWDSVJ6ANAC", "current_trial": 155, "dateTime": 1512863273047, "trialdata": {"rt": -1000, "stimulus": "/static/audio/wordpool/COOK.wav", "key_press": -1, "type": "PRES_AUD", "word": "cook", "wordID": 371, "conditions": [12, 1600, "a", 12000], "trial": 4, "serialpos": 10, "trial_type": "single-audio", "trial_index": 155, "time_elapsed": 775152, "internal_node_id": "0.0-110.0"}}, {"uniqueid": "MTK0889:3JPSL1DZ5T632DB126YVWDSVJ6ANAC", "current_trial": 156, "dateTime": 1512863275677, "trialdata": {"rt": -1000, "stimulus": "/static/audio/wordpool/PANTHER.wav", "key_press": -1, "type": "PRES_AUD", "word": "panther", "wordID": 1008, "conditions": [12, 1600, "a", 12000], "trial": 4, "serialpos": 11, "trial_type": "single-audio", "trial_index": 156, "time_elapsed": 777782, "internal_node_id": "0.0-111.0"}}, {"uniqueid": "MTK0889:3JPSL1DZ5T632DB126YVWDSVJ6ANAC", "current_trial": 157, "dateTime": 1512863276938, "trialdata": {"rt": -1, "stimulus": "", "key_press": -1, "type": "PRE_RECALL_DELAY", "trial_type": "single-stim", "trial_index": 157, "time_elapsed": 779043, "internal_node_id": "0.0-112.0-0.0"}}, {"uniqueid": "MTK0889:3JPSL1DZ5T632DB126YVWDSVJ6ANAC", "current_trial": 158, "dateTime": 1512863277440, "trialdata": {"rt": -1000, "stimulus": "/static/audio/400Hz.wav", "key_press": -1, "type": "PRE_RECALL_ALERT", "trial_type": "single-audio", "trial_index": 158, "time_elapsed": 779545, "internal_node_id": "0.0-113.0"}}, {"uniqueid": "MTK0889:3JPSL1DZ5T632DB126YVWDSVJ6ANAC", "current_trial": 159, "dateTime": 1512863337447, "trialdata": {"rt": [3616, 5167, 6608, 10136, 13736], "recwords": ["panther", "paper", "sword", "cook", "palace"], "type": "FREE_RECALL", "conditions": [12, 1600, "a", 12000], "trial": 4, "trial_type": "free-recall", "trial_index": 159, "time_elapsed": 839549, "internal_node_id": "0.0-114.0-0.0"}}, {"uniqueid": "MTK0889:3JPSL1DZ5T632DB126YVWDSVJ6ANAC", "current_trial": 160, "dateTime": 1512863341171, "trialdata": {"rt": 1723, "key_press": 32, "type": "INSTRUCTIONS", "trial_type": "text", "trial_index": 160, "time_elapsed": 843276, "internal_node_id": "0.0-115.0"}}, {"uniqueid": "MTK0889:3JPSL1DZ5T632DB126YVWDSVJ6ANAC", "current_trial": 161, "dateTime": 1512863355176, "trialdata": {"rt": [2110, 3933, 7285, 9805], "responses": ["13", "18", "20", "19"], "num1": [1, 8, 5, 9, 7], "num2": [8, 1, 9, 9, 8], "num3": [4, 9, 6, 1, 1], "type": "DISTRACTOR", "conditions": [24, 1600, "a", 12000], "trial": 5, "trial_type": "math-distractor", "trial_index": 161, "time_elapsed": 857280, "internal_node_id": "0.0-116.0"}}, {"uniqueid": "MTK0889:3JPSL1DZ5T632DB126YVWDSVJ6ANAC", "current_trial": 162, "dateTime": 1512863358178, "trialdata": {"rt": -1, "stimulus": "<p id=\"stim\">10</p>", "key_press": -1, "trial_type": "single-stim", "trial_index": 162, "time_elapsed": 860283, "internal_node_id": "0.0-117.0-0.0"}}, {"uniqueid": "MTK0889:3JPSL1DZ5T632DB126YVWDSVJ6ANAC", "current_trial": 163, "dateTime": 1512863359179, "trialdata": {"rt": -1, "stimulus": "<p id=\"stim\">9</p>", "key_press": -1, "trial_type": "single-stim", "trial_index": 163, "time_elapsed": 861284, "internal_node_id": "0.0-117.0-1.0"}}, {"uniqueid": "MTK0889:3JPSL1DZ5T632DB126YVWDSVJ6ANAC", "current_trial": 164, "dateTime": 1512863360181, "trialdata": {"rt": -1, "stimulus": "<p id=\"stim\">8</p>", "key_press": -1, "trial_type": "single-stim", "trial_index": 164, "time_elapsed": 862286, "internal_node_id": "0.0-117.0-2.0"}}, {"uniqueid": "MTK0889:3JPSL1DZ5T632DB126YVWDSVJ6ANAC", "current_trial": 165, "dateTime": 1512863361183, "trialdata": {"rt": -1, "stimulus": "<p id=\"stim\">7</p>", "key_press": -1, "trial_type": "single-stim", "trial_index": 165, "time_elapsed": 863288, "internal_node_id": "0.0-117.0-3.0"}}, {"uniqueid": "MTK0889:3JPSL1DZ5T632DB126YVWDSVJ6ANAC", "current_trial": 166, "dateTime": 1512863362185, "trialdata": {"rt": -1, "stimulus": "<p id=\"stim\">6</p>", "key_press": -1, "trial_type": "single-stim", "trial_index": 166, "time_elapsed": 864290, "internal_node_id": "0.0-117.0-4.0"}}, {"uniqueid": "MTK0889:3JPSL1DZ5T632DB126YVWDSVJ6ANAC", "current_trial": 167, "dateTime": 1512863363186, "trialdata": {"rt": -1, "stimulus": "<p id=\"stim\">5</p>", "key_press": -1, "trial_type": "single-stim", "trial_index": 167, "time_elapsed": 865291, "internal_node_id": "0.0-117.0-5.0"}}, {"uniqueid": "MTK0889:3JPSL1DZ5T632DB126YVWDSVJ6ANAC", "current_trial": 168, "dateTime": 1512863364187, "trialdata": {"rt": -1, "stimulus": "<p id=\"stim\">4</p>", "key_press": -1, "trial_type": "single-stim", "trial_index": 168, "time_elapsed": 866292, "internal_node_id": "0.0-117.0-6.0"}}, {"uniqueid": "MTK0889:3JPSL1DZ5T632DB126YVWDSVJ6ANAC", "current_trial": 169, "dateTime": 1512863365189, "trialdata": {"rt": -1, "stimulus": "<p id=\"stim\">3</p>", "key_press": -1, "trial_type": "single-stim", "trial_index": 169, "time_elapsed": 867294, "internal_node_id": "0.0-117.0-7.0"}}, {"uniqueid": "MTK0889:3JPSL1DZ5T632DB126YVWDSVJ6ANAC", "current_trial": 170, "dateTime": 1512863366190, "trialdata": {"rt": -1, "stimulus": "<p id=\"stim\">2</p>", "key_press": -1, "trial_type": "single-stim", "trial_index": 170, "time_elapsed": 868295, "internal_node_id": "0.0-117.0-8.0"}}, {"uniqueid": "MTK0889:3JPSL1DZ5T632DB126YVWDSVJ6ANAC", "current_trial": 171, "dateTime": 1512863367192, "trialdata": {"rt": -1, "stimulus": "<p id=\"stim\">1</p>", "key_press": -1, "trial_type": "single-stim", "trial_index": 171, "time_elapsed": 869297, "internal_node_id": "0.0-117.0-9.0"}}, {"uniqueid": "MTK0889:3JPSL1DZ5T632DB126YVWDSVJ6ANAC", "current_trial": 172, "dateTime": 1512863368694, "trialdata": {"rt": -1, "stimulus": "<p id=\"stim\">+</p>", "key_press": -1, "type": "FIXATION", "trial_type": "single-stim", "trial_index": 172, "time_elapsed": 870799, "internal_node_id": "0.0-118.0-0.0"}}, {"uniqueid": "MTK0889:3JPSL1DZ5T632DB126YVWDSVJ6ANAC", "current_trial": 173, "dateTime": 1512863371219, "trialdata": {"rt": -1000, "stimulus": "/static/audio/wordpool/MAILBOX.wav", "key_press": -1, "type": "PRES_AUD", "word": "mailbox", "wordID": 856, "conditions": [24, 1600, "a", 12000], "trial": 5, "serialpos": 0, "trial_type": "single-audio", "trial_index": 173, "time_elapsed": 873324, "internal_node_id": "0.0-119.0"}}, {"uniqueid": "MTK0889:3JPSL1DZ5T632DB126YVWDSVJ6ANAC", "current_trial": 174, "dateTime": 1512863373650, "trialdata": {"rt": -1000, "stimulus": "/static/audio/wordpool/LODGE.wav", "key_press": -1, "type": "PRES_AUD", "word": "lodge", "wordID": 838, "conditions": [24, 1600, "a", 12000], "trial": 5, "serialpos": 1, "trial_type": "single-audio", "trial_index": 174, "time_elapsed": 875755, "internal_node_id": "0.0-120.0"}}, {"uniqueid": "MTK0889:3JPSL1DZ5T632DB126YVWDSVJ6ANAC", "current_trial": 175, "dateTime": 1512863376247, "trialdata": {"rt": -1000, "stimulus": "/static/audio/wordpool/GRILL.wav", "key_press": -1, "type": "PRES_AUD", "word": "grill", "wordID": 660, "conditions": [24, 1600, "a", 12000], "trial": 5, "serialpos": 2, "trial_type": "single-audio", "trial_index": 175, "time_elapsed": 878352, "internal_node_id": "0.0-121.0"}}, {"uniqueid": "MTK0889:3JPSL1DZ5T632DB126YVWDSVJ6ANAC", "current_trial": 176, "dateTime": 1512863378947, "trialdata": {"rt": -1000, "stimulus": "/static/audio/wordpool/LUNCH.wav", "key_press": -1, "type": "PRES_AUD", "word": "lunch", "wordID": 848, "conditions": [24, 1600, "a", 12000], "trial": 5, "serialpos": 3, "trial_type": "single-audio", "trial_index": 176, "time_elapsed": 881052, "internal_node_id": "0.0-122.0"}}, {"uniqueid": "MTK0889:3JPSL1DZ5T632DB126YVWDSVJ6ANAC", "current_trial": 177, "dateTime": 1512863381534, "trialdata": {"rt": -1000, "stimulus": "/static/audio/wordpool/AWARD.wav", "key_press": -1, "type": "PRES_AUD", "word": "award", "wordID": 62, "conditions": [24, 1600, "a", 12000], "trial": 5, "serialpos": 4, "trial_type": "single-audio", "trial_index": 177, "time_elapsed": 883639, "internal_node_id": "0.0-123.0"}}, {"uniqueid": "MTK0889:3JPSL1DZ5T632DB126YVWDSVJ6ANAC", "current_trial": 178, "dateTime": 1512863383937, "trialdata": {"rt": -1000, "stimulus": "/static/audio/wordpool/CAFE.wav", "key_press": -1, "type": "PRES_AUD", "word": "cafe", "wordID": 215, "conditions": [24, 1600, "a", 12000], "trial": 5, "serialpos": 5, "trial_type": "single-audio", "trial_index": 178, "time_elapsed": 886042, "internal_node_id": "0.0-124.0"}}, {"uniqueid": "MTK0889:3JPSL1DZ5T632DB126YVWDSVJ6ANAC", "current_trial": 179, "dateTime": 1512863386601, "trialdata": {"rt": -1000, "stimulus": "/static/audio/wordpool/DINER.wav", "key_press": -1, "type": "PRES_AUD", "word": "diner", "wordID": 466, "conditions": [24, 1600, "a", 12000], "trial": 5, "serialpos": 6, "trial_type": "single-audio", "trial_index": 179, "time_elapsed": 888706, "internal_node_id": "0.0-125.0"}}, {"uniqueid": "MTK0889:3JPSL1DZ5T632DB126YVWDSVJ6ANAC", "current_trial": 180, "dateTime": 1512863389105, "trialdata": {"rt": -1000, "stimulus": "/static/audio/wordpool/MAILMAN.wav", "key_press": -1, "type": "PRES_AUD", "word": "mailman", "wordID": 857, "conditions": [24, 1600, "a", 12000], "trial": 5, "serialpos": 7, "trial_type": "single-audio", "trial_index": 180, "time_elapsed": 891210, "internal_node_id": "0.0-126.0"}}, {"uniqueid": "MTK0889:3JPSL1DZ5T632DB126YVWDSVJ6ANAC", "current_trial": 181, "dateTime": 1512863391701, "trialdata": {"rt": -1000, "stimulus": "/static/audio/wordpool/CONVICT.wav", "key_press": -1, "type": "PRES_AUD", "word": "convict", "wordID": 370, "conditions": [24, 1600, "a", 12000], "trial": 5, "serialpos": 8, "trial_type": "single-audio", "trial_index": 181, "time_elapsed": 893806, "internal_node_id": "0.0-127.0"}}, {"uniqueid": "MTK0889:3JPSL1DZ5T632DB126YVWDSVJ6ANAC", "current_trial": 182, "dateTime": 1512863394221, "trialdata": {"rt": -1000, "stimulus": "/static/audio/wordpool/ICEBERG.wav", "key_press": -1, "type": "PRES_AUD", "word": "iceberg", "wordID": 730, "conditions": [24, 1600, "a", 12000], "trial": 5, "serialpos": 9, "trial_type": "single-audio", "trial_index": 182, "time_elapsed": 896326, "internal_node_id": "0.0-128.0"}}, {"uniqueid": "MTK0889:3JPSL1DZ5T632DB126YVWDSVJ6ANAC", "current_trial": 183, "dateTime": 1512863396749, "trialdata": {"rt": -1000, "stimulus": "/static/audio/wordpool/WARDROBE.wav", "key_press": -1, "type": "PRES_AUD", "word": "wardrobe", "wordID": 1586, "conditions": [24, 1600, "a", 12000], "trial": 5, "serialpos": 10, "trial_type": "single-audio", "trial_index": 183, "time_elapsed": 898854, "internal_node_id": "0.0-129.0"}}, {"uniqueid": "MTK0889:3JPSL1DZ5T632DB126YVWDSVJ6ANAC", "current_trial": 184, "dateTime": 1512863399316, "trialdata": {"rt": -1000, "stimulus": "/static/audio/wordpool/KEEPER.wav", "key_press": -1, "type": "PRES_AUD", "word": "keeper", "wordID": 768, "conditions": [24, 1600, "a", 12000], "trial": 5, "serialpos": 11, "trial_type": "single-audio", "trial_index": 184, "time_elapsed": 901421, "internal_node_id": "0.0-130.0"}}, {"uniqueid": "MTK0889:3JPSL1DZ5T632DB126YVWDSVJ6ANAC", "current_trial": 185, "dateTime": 1512863401992, "trialdata": {"rt": -1000, "stimulus": "/static/audio/wordpool/BLENDER.wav", "key_press": -1, "type": "PRES_AUD", "word": "blender", "wordID": 135, "conditions": [24, 1600, "a", 12000], "trial": 5, "serialpos": 12, "trial_type": "single-audio", "trial_index": 185, "time_elapsed": 904097, "internal_node_id": "0.0-131.0"}}, {"uniqueid": "MTK0889:3JPSL1DZ5T632DB126YVWDSVJ6ANAC", "current_trial": 186, "dateTime": 1512863404785, "trialdata": {"rt": -1000, "stimulus": "/static/audio/wordpool/LOFT.wav", "key_press": -1, "type": "PRES_AUD", "word": "loft", "wordID": 839, "conditions": [24, 1600, "a", 12000], "trial": 5, "serialpos": 13, "trial_type": "single-audio", "trial_index": 186, "time_elapsed": 906890, "internal_node_id": "0.0-132.0"}}, {"uniqueid": "MTK0889:3JPSL1DZ5T632DB126YVWDSVJ6ANAC", "current_trial": 187, "dateTime": 1512863407273, "trialdata": {"rt": -1000, "stimulus": "/static/audio/wordpool/SCULPTURE.wav", "key_press": -1, "type": "PRES_AUD", "word": "sculpture", "wordID": 1257, "conditions": [24, 1600, "a", 12000], "trial": 5, "serialpos": 14, "trial_type": "single-audio", "trial_index": 187, "time_elapsed": 909378, "internal_node_id": "0.0-133.0"}}, {"uniqueid": "MTK0889:3JPSL1DZ5T632DB126YVWDSVJ6ANAC", "current_trial": 188, "dateTime": 1512863409850, "trialdata": {"rt": -1000, "stimulus": "/static/audio/wordpool/STATUE.wav", "key_press": -1, "type": "PRES_AUD", "word": "statue", "wordID": 1373, "conditions": [24, 1600, "a", 12000], "trial": 5, "serialpos": 15, "trial_type": "single-audio", "trial_index": 188, "time_elapsed": 911955, "internal_node_id": "0.0-134.0"}}, {"uniqueid": "MTK0889:3JPSL1DZ5T632DB126YVWDSVJ6ANAC", "current_trial": 189, "dateTime": 1512863412300, "trialdata": {"rt": -1000, "stimulus": "/static/audio/wordpool/SHERIFF.wav", "key_press": -1, "type": "PRES_AUD", "word": "sheriff", "wordID": 1283, "conditions": [24, 1600, "a", 12000], "trial": 5, "serialpos": 16, "trial_type": "single-audio", "trial_index": 189, "time_elapsed": 914405, "internal_node_id": "0.0-135.0"}}, {"uniqueid": "MTK0889:3JPSL1DZ5T632DB126YVWDSVJ6ANAC", "current_trial": 190, "dateTime": 1512863414740, "trialdata": {"rt": -1000, "stimulus": "/static/audio/wordpool/COWBOY.wav", "key_press": -1, "type": "PRES_AUD", "word": "cowboy", "wordID": 394, "conditions": [24, 1600, "a", 12000], "trial": 5, "serialpos": 17, "trial_type": "single-audio", "trial_index": 190, "time_elapsed": 916844, "internal_node_id": "0.0-136.0"}}, {"uniqueid": "MTK0889:3JPSL1DZ5T632DB126YVWDSVJ6ANAC", "current_trial": 191, "dateTime": 1512863417528, "trialdata": {"rt": -1000, "stimulus": "/static/audio/wordpool/OUTLAW.wav", "key_press": -1, "type": "PRES_AUD", "word": "outlaw", "wordID": 988, "conditions": [24, 1600, "a", 12000], "trial": 5, "serialpos": 18, "trial_type": "single-audio", "trial_index": 191, "time_elapsed": 919633, "internal_node_id": "0.0-137.0"}}, {"uniqueid": "MTK0889:3JPSL1DZ5T632DB126YVWDSVJ6ANAC", "current_trial": 192, "dateTime": 1512863420161, "trialdata": {"rt": -1000, "stimulus": "/static/audio/wordpool/REBEL.wav", "key_press": -1, "type": "PRES_AUD", "word": "rebel", "wordID": 1171, "conditions": [24, 1600, "a", 12000], "trial": 5, "serialpos": 19, "trial_type": "single-audio", "trial_index": 192, "time_elapsed": 922265, "internal_node_id": "0.0-138.0"}}, {"uniqueid": "MTK0889:3JPSL1DZ5T632DB126YVWDSVJ6ANAC", "current_trial": 193, "dateTime": 1512863422714, "trialdata": {"rt": -1000, "stimulus": "/static/audio/wordpool/BURGLAR.wav", "key_press": -1, "type": "PRES_AUD", "word": "burglar", "wordID": 199, "conditions": [24, 1600, "a", 12000], "trial": 5, "serialpos": 20, "trial_type": "single-audio", "trial_index": 193, "time_elapsed": 924818, "internal_node_id": "0.0-139.0"}}, {"uniqueid": "MTK0889:3JPSL1DZ5T632DB126YVWDSVJ6ANAC", "current_trial": 194, "dateTime": 1512863425361, "trialdata": {"rt": -1000, "stimulus": "/static/audio/wordpool/PIMPLE.wav", "key_press": -1, "type": "PRES_AUD", "word": "pimple", "wordID": 1070, "conditions": [24, 1600, "a", 12000], "trial": 5, "serialpos": 21, "trial_type": "single-audio", "trial_index": 194, "time_elapsed": 927466, "internal_node_id": "0.0-140.0"}}, {"uniqueid": "MTK0889:3JPSL1DZ5T632DB126YVWDSVJ6ANAC", "current_trial": 195, "dateTime": 1512863428150, "trialdata": {"rt": -1000, "stimulus": "/static/audio/wordpool/COUNTY.wav", "key_press": -1, "type": "PRES_AUD", "word": "county", "wordID": 388, "conditions": [24, 1600, "a", 12000], "trial": 5, "serialpos": 22, "trial_type": "single-audio", "trial_index": 195, "time_elapsed": 930255, "internal_node_id": "0.0-141.0"}}, {"uniqueid": "MTK0889:3JPSL1DZ5T632DB126YVWDSVJ6ANAC", "current_trial": 196, "dateTime": 1512863430568, "trialdata": {"rt": -1000, "stimulus": "/static/audio/wordpool/PERCH.wav", "key_press": -1, "type": "PRES_AUD", "word": "perch", "wordID": 1047, "conditions": [24, 1600, "a", 12000], "trial": 5, "serialpos": 23, "trial_type": "single-audio", "trial_index": 196, "time_elapsed": 932672, "internal_node_id": "0.0-142.0"}}, {"uniqueid": "MTK0889:3JPSL1DZ5T632DB126YVWDSVJ6ANAC", "current_trial": 197, "dateTime": 1512863431841, "trialdata": {"rt": -1, "stimulus": "", "key_press": -1, "type": "PRE_RECALL_DELAY", "trial_type": "single-stim", "trial_index": 197, "time_elapsed": 933946, "internal_node_id": "0.0-143.0-0.0"}}, {"uniqueid": "MTK0889:3JPSL1DZ5T632DB126YVWDSVJ6ANAC", "current_trial": 198, "dateTime": 1512863432342, "trialdata": {"rt": -1000, "stimulus": "/static/audio/400Hz.wav", "key_press": -1, "type": "PRE_RECALL_ALERT", "trial_type": "single-audio", "trial_index": 198, "time_elapsed": 934447, "internal_node_id": "0.0-144.0"}}, {"uniqueid": "MTK0889:3JPSL1DZ5T632DB126YVWDSVJ6ANAC", "current_trial": 199, "dateTime": 1512863492349, "trialdata": {"rt": [3050, 4834, 7731, 9963, 15803, 18844, 30395, 37810, 46354], "recwords": ["county", "perch", "mailbox", "mailman", "convict", "conty", "burglar", "lodge", "house"], "type": "FREE_RECALL", "conditions": [24, 1600, "a", 12000], "trial": 5, "trial_type": "free-recall", "trial_index": 199, "time_elapsed": 994451, "internal_node_id": "0.0-145.0-0.0"}}, {"uniqueid": "MTK0889:3JPSL1DZ5T632DB126YVWDSVJ6ANAC", "current_trial": 200, "dateTime": 1512863496211, "trialdata": {"rt": 1860, "key_press": 32, "type": "INSTRUCTIONS", "trial_type": "text", "trial_index": 200, "time_elapsed": 998316, "internal_node_id": "0.0-146.0"}}, {"uniqueid": "MTK0889:3JPSL1DZ5T632DB126YVWDSVJ6ANAC", "current_trial": 201, "dateTime": 1512863510216, "trialdata": {"rt": [2699, 6091, 9259, 11235], "responses": ["14", "17", "21", "9"], "num1": [3, 3, 5, 1, 1], "num2": [3, 6, 8, 7, 1], "num3": [8, 8, 8, 1, 1], "type": "DISTRACTOR", "conditions": [24, 800, "v", 12000], "trial": 6, "trial_type": "math-distractor", "trial_index": 201, "time_elapsed": 1012320, "internal_node_id": "0.0-147.0"}}, {"uniqueid": "MTK0889:3JPSL1DZ5T632DB126YVWDSVJ6ANAC", "current_trial": 202, "dateTime": 1512863513220, "trialdata": {"rt": -1, "stimulus": "<p id=\"stim\">10</p>", "key_press": -1, "trial_type": "single-stim", "trial_index": 202, "time_elapsed": 1015324, "internal_node_id": "0.0-148.0-0.0"}}, {"uniqueid": "MTK0889:3JPSL1DZ5T632DB126YVWDSVJ6ANAC", "current_trial": 203, "dateTime": 1512863514222, "trialdata": {"rt": -1, "stimulus": "<p id=\"stim\">9</p>", "key_press": -1, "trial_type": "single-stim", "trial_index": 203, "time_elapsed": 1016327, "internal_node_id": "0.0-148.0-1.0"}}, {"uniqueid": "MTK0889:3JPSL1DZ5T632DB126YVWDSVJ6ANAC", "current_trial": 204, "dateTime": 1512863515223, "trialdata": {"rt": -1, "stimulus": "<p id=\"stim\">8</p>", "key_press": -1, "trial_type": "single-stim", "trial_index": 204, "time_elapsed": 1017328, "internal_node_id": "0.0-148.0-2.0"}}, {"uniqueid": "MTK0889:3JPSL1DZ5T632DB126YVWDSVJ6ANAC", "current_trial": 205, "dateTime": 1512863516224, "trialdata": {"rt": -1, "stimulus": "<p id=\"stim\">7</p>", "key_press": -1, "trial_type": "single-stim", "trial_index": 205, "time_elapsed": 1018329, "internal_node_id": "0.0-148.0-3.0"}}, {"uniqueid": "MTK0889:3JPSL1DZ5T632DB126YVWDSVJ6ANAC", "current_trial": 206, "dateTime": 1512863517226, "trialdata": {"rt": -1, "stimulus": "<p id=\"stim\">6</p>", "key_press": -1, "trial_type": "single-stim", "trial_index": 206, "time_elapsed": 1019331, "internal_node_id": "0.0-148.0-4.0"}}, {"uniqueid": "MTK0889:3JPSL1DZ5T632DB126YVWDSVJ6ANAC", "current_trial": 207, "dateTime": 1512863518227, "trialdata": {"rt": -1, "stimulus": "<p id=\"stim\">5</p>", "key_press": -1, "trial_type": "single-stim", "trial_index": 207, "time_elapsed": 1020332, "internal_node_id": "0.0-148.0-5.0"}}, {"uniqueid": "MTK0889:3JPSL1DZ5T632DB126YVWDSVJ6ANAC", "current_trial": 208, "dateTime": 1512863519229, "trialdata": {"rt": -1, "stimulus": "<p id=\"stim\">4</p>", "key_press": -1, "trial_type": "single-stim", "trial_index": 208, "time_elapsed": 1021334, "internal_node_id": "0.0-148.0-6.0"}}, {"uniqueid": "MTK0889:3JPSL1DZ5T632DB126YVWDSVJ6ANAC", "current_trial": 209, "dateTime": 1512863520231, "trialdata": {"rt": -1, "stimulus": "<p id=\"stim\">3</p>", "key_press": -1, "trial_type": "single-stim", "trial_index": 209, "time_elapsed": 1022336, "internal_node_id": "0.0-148.0-7.0"}}, {"uniqueid": "MTK0889:3JPSL1DZ5T632DB126YVWDSVJ6ANAC", "current_trial": 210, "dateTime": 1512863521232, "trialdata": {"rt": -1, "stimulus": "<p id=\"stim\">2</p>", "key_press": -1, "trial_type": "single-stim", "trial_index": 210, "time_elapsed": 1023337, "internal_node_id": "0.0-148.0-8.0"}}, {"uniqueid": "MTK0889:3JPSL1DZ5T632DB126YVWDSVJ6ANAC", "current_trial": 211, "dateTime": 1512863522233, "trialdata": {"rt": -1, "stimulus": "<p id=\"stim\">1</p>", "key_press": -1, "trial_type": "single-stim", "trial_index": 211, "time_elapsed": 1024338, "internal_node_id": "0.0-148.0-9.0"}}, {"uniqueid": "MTK0889:3JPSL1DZ5T632DB126YVWDSVJ6ANAC", "current_trial": 212, "dateTime": 1512863523735, "trialdata": {"rt": -1, "stimulus": "<p id=\"stim\">+</p>", "key_press": -1, "type": "FIXATION", "trial_type": "single-stim", "trial_index": 212, "time_elapsed": 1025840, "internal_node_id": "0.0-149.0-0.0"}}, {"uniqueid": "MTK0889:3JPSL1DZ5T632DB126YVWDSVJ6ANAC", "current_trial": 213, "dateTime": 1512863524537, "trialdata": {"rt": -1, "stimulus": "<p id=\"stim\">FLEET</p>", "key_press": -1, "type": "PRES_VIS", "word": "fleet", "wordID": 577, "conditions": [24, 800, "v", 12000], "trial": 6, "serialpos": 0, "trial_type": "single-stim", "trial_index": 213, "time_elapsed": 1026642, "internal_node_id": "0.0-150.0"}}, {"uniqueid": "MTK0889:3JPSL1DZ5T632DB126YVWDSVJ6ANAC", "current_trial": 214, "dateTime": 1512863526289, "trialdata": {"rt": -1, "stimulus": "<p id=\"stim\">QUEEN</p>", "key_press": -1, "type": "PRES_VIS", "word": "queen", "wordID": 1148, "conditions": [24, 800, "v", 12000], "trial": 6, "serialpos": 1, "trial_type": "single-stim", "trial_index": 214, "time_elapsed": 1028394, "internal_node_id": "0.0-151.0"}}, {"uniqueid": "MTK0889:3JPSL1DZ5T632DB126YVWDSVJ6ANAC", "current_trial": 215, "dateTime": 1512863528229, "trialdata": {"rt": -1, "stimulus": "<p id=\"stim\">SLOPE</p>", "key_press": -1, "type": "PRES_VIS", "word": "slope", "wordID": 1327, "conditions": [24, 800, "v", 12000], "trial": 6, "serialpos": 2, "trial_type": "single-stim", "trial_index": 215, "time_elapsed": 1030332, "internal_node_id": "0.0-152.0"}}, {"uniqueid": "MTK0889:3JPSL1DZ5T632DB126YVWDSVJ6ANAC", "current_trial": 216, "dateTime": 1512863530142, "trialdata": {"rt": -1, "stimulus": "<p id=\"stim\">TILE</p>", "key_press": -1, "type": "PRES_VIS", "word": "tile", "wordID": 1467, "conditions": [24, 800, "v", 12000], "trial": 6, "serialpos": 3, "trial_type": "single-stim", "trial_index": 216, "time_elapsed": 1032247, "internal_node_id": "0.0-153.0"}}, {"uniqueid": "MTK0889:3JPSL1DZ5T632DB126YVWDSVJ6ANAC", "current_trial": 217, "dateTime": 1512863532091, "trialdata": {"rt": -1, "stimulus": "<p id=\"stim\">BRICK</p>", "key_press": -1, "type": "PRES_VIS", "word": "brick", "wordID": 171, "conditions": [24, 800, "v", 12000], "trial": 6, "serialpos": 4, "trial_type": "single-stim", "trial_index": 217, "time_elapsed": 1034196, "internal_node_id": "0.0-154.0"}}, {"uniqueid": "MTK0889:3JPSL1DZ5T632DB126YVWDSVJ6ANAC", "current_trial": 218, "dateTime": 1512863534089, "trialdata": {"rt": -1, "stimulus": "<p id=\"stim\">CHURCH</p>", "key_press": -1, "type": "PRES_VIS", "word": "church", "wordID": 306, "conditions": [24, 800, "v", 12000], "trial": 6, "serialpos": 5, "trial_type": "single-stim", "trial_index": 218, "time_elapsed": 1036194, "internal_node_id": "0.0-155.0"}}, {"uniqueid": "MTK0889:3JPSL1DZ5T632DB126YVWDSVJ6ANAC", "current_trial": 219, "dateTime": 1512863536088, "trialdata": {"rt": -1, "stimulus": "<p id=\"stim\">MATTRESS</p>", "key_press": -1, "type": "PRES_VIS", "word": "mattress", "wordID": 878, "conditions": [24, 800, "v", 12000], "trial": 6, "serialpos": 6, "trial_type": "single-stim", "trial_index": 219, "time_elapsed": 1038193, "internal_node_id": "0.0-156.0"}}, {"uniqueid": "MTK0889:3JPSL1DZ5T632DB126YVWDSVJ6ANAC", "current_trial": 220, "dateTime": 1512863537736, "trialdata": {"rt": -1, "stimulus": "<p id=\"stim\">CELLAR</p>", "key_press": -1, "type": "PRES_VIS", "word": "cellar", "wordID": 266, "conditions": [24, 800, "v", 12000], "trial": 6, "serialpos": 7, "trial_type": "single-stim", "trial_index": 220, "time_elapsed": 1039841, "internal_node_id": "0.0-157.0"}}, {"uniqueid": "MTK0889:3JPSL1DZ5T632DB126YVWDSVJ6ANAC", "current_trial": 221, "dateTime": 1512863539655, "trialdata": {"rt": -1, "stimulus": "<p id=\"stim\">SUNSET</p>", "key_press": -1, "type": "PRES_VIS", "word": "sunset", "wordID": 1407, "conditions": [24, 800, "v", 12000], "trial": 6, "serialpos": 8, "trial_type": "single-stim", "trial_index": 221, "time_elapsed": 1041760, "internal_node_id": "0.0-158.0"}}, {"uniqueid": "MTK0889:3JPSL1DZ5T632DB126YVWDSVJ6ANAC", "current_trial": 222, "dateTime": 1512863541450, "trialdata": {"rt": -1, "stimulus": "<p id=\"stim\">TEMPLE</p>", "key_press": -1, "type": "PRES_VIS", "word": "temple", "wordID": 1447, "conditions": [24, 800, "v", 12000], "trial": 6, "serialpos": 9, "trial_type": "single-stim", "trial_index": 222, "time_elapsed": 1043555, "internal_node_id": "0.0-159.0"}}, {"uniqueid": "MTK0889:3JPSL1DZ5T632DB126YVWDSVJ6ANAC", "current_trial": 223, "dateTime": 1512863543201, "trialdata": {"rt": -1, "stimulus": "<p id=\"stim\">DASHBOARD</p>", "key_press": -1, "type": "PRES_VIS", "word": "dashboard", "wordID": 440, "conditions": [24, 800, "v", 12000], "trial": 6, "serialpos": 10, "trial_type": "single-stim", "trial_index": 223, "time_elapsed": 1045306, "internal_node_id": "0.0-160.0"}}, {"uniqueid": "MTK0889:3JPSL1DZ5T632DB126YVWDSVJ6ANAC", "current_trial": 224, "dateTime": 1512863544842, "trialdata": {"rt": -1, "stimulus": "<p id=\"stim\">SUNRISE</p>", "key_press": -1, "type": "PRES_VIS", "word": "sunrise", "wordID": 1406, "conditions": [24, 800, "v", 12000], "trial": 6, "serialpos": 11, "trial_type": "single-stim", "trial_index": 224, "time_elapsed": 1046947, "internal_node_id": "0.0-161.0"}}, {"uniqueid": "MTK0889:3JPSL1DZ5T632DB126YVWDSVJ6ANAC", "current_trial": 225, "dateTime": 1512863546459, "trialdata": {"rt": -1, "stimulus": "<p id=\"stim\">BADGE</p>", "key_press": -1, "type": "PRES_VIS", "word": "badge", "wordID": 67, "conditions": [24, 800, "v", 12000], "trial": 6, "serialpos": 12, "trial_type": "single-stim", "trial_index": 225, "time_elapsed": 1048564, "internal_node_id": "0.0-162.0"}}, {"uniqueid": "MTK0889:3JPSL1DZ5T632DB126YVWDSVJ6ANAC", "current_trial": 226, "dateTime": 1512863548335, "trialdata": {"rt": -1, "stimulus": "<p id=\"stim\">EAGLE</p>", "key_press": -1, "type": "PRES_VIS", "word": "eagle", "wordID": 511, "conditions": [24, 800, "v", 12000], "trial": 6, "serialpos": 13, "trial_type": "single-stim", "trial_index": 226, "time_elapsed": 1050440, "internal_node_id": "0.0-163.0"}}, {"uniqueid": "MTK0889:3JPSL1DZ5T632DB126YVWDSVJ6ANAC", "current_trial": 227, "dateTime": 1512863550006, "trialdata": {"rt": -1, "stimulus": "<p id=\"stim\">PEANUT</p>", "key_press": -1, "type": "PRES_VIS", "word": "peanut", "wordID": 1031, "conditions": [24, 800, "v", 12000], "trial": 6, "serialpos": 14, "trial_type": "single-stim", "trial_index": 227, "time_elapsed": 1052111, "internal_node_id": "0.0-164.0"}}, {"uniqueid": "MTK0889:3JPSL1DZ5T632DB126YVWDSVJ6ANAC", "current_trial": 228, "dateTime": 1512863551817, "trialdata": {"rt": -1, "stimulus": "<p id=\"stim\">INFANT</p>", "key_press": -1, "type": "PRES_VIS", "word": "infant", "wordID": 736, "conditions": [24, 800, "v", 12000], "trial": 6, "serialpos": 15, "trial_type": "single-stim", "trial_index": 228, "time_elapsed": 1053922, "internal_node_id": "0.0-165.0"}}, {"uniqueid": "MTK0889:3JPSL1DZ5T632DB126YVWDSVJ6ANAC", "current_trial": 229, "dateTime": 1512863553530, "trialdata": {"rt": -1, "stimulus": "<p id=\"stim\">CHAMPAGNE</p>", "key_press": -1, "type": "PRES_VIS", "word": "champagne", "wordID": 277, "conditions": [24, 800, "v", 12000], "trial": 6, "serialpos": 16, "trial_type": "single-stim", "trial_index": 229, "time_elapsed": 1055635, "internal_node_id": "0.0-166.0"}}, {"uniqueid": "MTK0889:3JPSL1DZ5T632DB126YVWDSVJ6ANAC", "current_trial": 230, "dateTime": 1512863555237, "trialdata": {"rt": -1, "stimulus": "<p id=\"stim\">OUTDOORS</p>", "key_press": -1, "type": "PRES_VIS", "word": "outdoors", "wordID": 986, "conditions": [24, 800, "v", 12000], "trial": 6, "serialpos": 17, "trial_type": "single-stim", "trial_index": 230, "time_elapsed": 1057341, "internal_node_id": "0.0-167.0"}}, {"uniqueid": "MTK0889:3JPSL1DZ5T632DB126YVWDSVJ6ANAC", "current_trial": 231, "dateTime": 1512863556945, "trialdata": {"rt": -1, "stimulus": "<p id=\"stim\">OFFICE</p>", "key_press": -1, "type": "PRES_VIS", "word": "office", "wordID": 971, "conditions": [24, 800, "v", 12000], "trial": 6, "serialpos": 18, "trial_type": "single-stim", "trial_index": 231, "time_elapsed": 1059050, "internal_node_id": "0.0-168.0"}}, {"uniqueid": "MTK0889:3JPSL1DZ5T632DB126YVWDSVJ6ANAC", "current_trial": 232, "dateTime": 1512863558623, "trialdata": {"rt": -1, "stimulus": "<p id=\"stim\">SPHINX</p>", "key_press": -1, "type": "PRES_VIS", "word": "sphinx", "wordID": 1348, "conditions": [24, 800, "v", 12000], "trial": 6, "serialpos": 19, "trial_type": "single-stim", "trial_index": 232, "time_elapsed": 1060728, "internal_node_id": "0.0-169.0"}}, {"uniqueid": "MTK0889:3JPSL1DZ5T632DB126YVWDSVJ6ANAC", "current_trial": 233, "dateTime": 1512863560362, "trialdata": {"rt": -1, "stimulus": "<p id=\"stim\">RABBIT</p>", "key_press": -1, "type": "PRES_VIS", "word": "rabbit", "wordID": 1151, "conditions": [24, 800, "v", 12000], "trial": 6, "serialpos": 20, "trial_type": "single-stim", "trial_index": 233, "time_elapsed": 1062467, "internal_node_id": "0.0-170.0"}}, {"uniqueid": "MTK0889:3JPSL1DZ5T632DB126YVWDSVJ6ANAC", "current_trial": 234, "dateTime": 1512863562317, "trialdata": {"rt": -1, "stimulus": "<p id=\"stim\">PICTURE</p>", "key_press": -1, "type": "PRES_VIS", "word": "picture", "wordID": 1060, "conditions": [24, 800, "v", 12000], "trial": 6, "serialpos": 21, "trial_type": "single-stim", "trial_index": 234, "time_elapsed": 1064422, "internal_node_id": "0.0-171.0"}}, {"uniqueid": "MTK0889:3JPSL1DZ5T632DB126YVWDSVJ6ANAC", "current_trial": 235, "dateTime": 1512863563946, "trialdata": {"rt": -1, "stimulus": "<p id=\"stim\">PORTRAIT</p>", "key_press": -1, "type": "PRES_VIS", "word": "portrait", "wordID": 1110, "conditions": [24, 800, "v", 12000], "trial": 6, "serialpos": 22, "trial_type": "single-stim", "trial_index": 235, "time_elapsed": 1066051, "internal_node_id": "0.0-172.0"}}, {"uniqueid": "MTK0889:3JPSL1DZ5T632DB126YVWDSVJ6ANAC", "current_trial": 236, "dateTime": 1512863565701, "trialdata": {"rt": -1, "stimulus": "<p id=\"stim\">STICKER</p>", "key_press": -1, "type": "PRES_VIS", "word": "sticker", "wordID": 1381, "conditions": [24, 800, "v", 12000], "trial": 6, "serialpos": 23, "trial_type": "single-stim", "trial_index": 236, "time_elapsed": 1067806, "internal_node_id": "0.0-173.0"}}, {"uniqueid": "MTK0889:3JPSL1DZ5T632DB126YVWDSVJ6ANAC", "current_trial": 237, "dateTime": 1512863567974, "trialdata": {"rt": -1, "stimulus": "", "key_press": -1, "type": "PRE_RECALL_DELAY", "trial_type": "single-stim", "trial_index": 237, "time_elapsed": 1070079, "internal_node_id": "0.0-174.0-0.0"}}, {"uniqueid": "MTK0889:3JPSL1DZ5T632DB126YVWDSVJ6ANAC", "current_trial": 238, "dateTime": 1512863568475, "trialdata": {"rt": -1000, "stimulus": "/static/audio/400Hz.wav", "key_press": -1, "type": "PRE_RECALL_ALERT", "trial_type": "single-audio", "trial_index": 238, "time_elapsed": 1070580, "internal_node_id": "0.0-175.0"}}, {"uniqueid": "MTK0889:3JPSL1DZ5T632DB126YVWDSVJ6ANAC", "current_trial": 239, "dateTime": 1512863628486, "trialdata": {"rt": [2901, 5654, 8629, 12150, 17446], "recwords": ["picture", "portrait", "sticker", "fleet", "dashboard"], "type": "FREE_RECALL", "conditions": [24, 800, "v", 12000], "trial": 6, "trial_type": "free-recall", "trial_index": 239, "time_elapsed": 1130584, "internal_node_id": "0.0-176.0-0.0"}}, {"uniqueid": "MTK0889:3JPSL1DZ5T632DB126YVWDSVJ6ANAC", "current_trial": 240, "dateTime": 1512863631915, "trialdata": {"rt": 1427, "key_press": 32, "type": "INSTRUCTIONS", "trial_type": "text", "trial_index": 240, "time_elapsed": 1134020, "internal_node_id": "0.0-177.0"}}, {"uniqueid": "MTK0889:3JPSL1DZ5T632DB126YVWDSVJ6ANAC", "current_trial": 241, "dateTime": 1512863657921, "trialdata": {"rt": [4358, 7341, 9589, 12109, 14885, 17141, 20229], "responses": ["26", "18", "12", "14", "13", "15", "14"], "num1": [9, 5, 4, 4, 4, 7, 4, 4], "num2": [8, 8, 1, 9, 7, 7, 1, 6], "num3": [9, 5, 7, 1, 2, 1, 9, 5], "type": "DISTRACTOR", "conditions": [24, 1600, "a", 24000], "trial": 7, "trial_type": "math-distractor", "trial_index": 241, "time_elapsed": 1160026, "internal_node_id": "0.0-178.0"}}, {"uniqueid": "MTK0889:3JPSL1DZ5T632DB126YVWDSVJ6ANAC", "current_trial": 242, "dateTime": 1512863660924, "trialdata": {"rt": -1, "stimulus": "<p id=\"stim\">10</p>", "key_press": -1, "trial_type": "single-stim", "trial_index": 242, "time_elapsed": 1163029, "internal_node_id": "0.0-179.0-0.0"}}, {"uniqueid": "MTK0889:3JPSL1DZ5T632DB126YVWDSVJ6ANAC", "current_trial": 243, "dateTime": 1512863661925, "trialdata": {"rt": -1, "stimulus": "<p id=\"stim\">9</p>", "key_press": -1, "trial_type": "single-stim", "trial_index": 243, "time_elapsed": 1164030, "internal_node_id": "0.0-179.0-1.0"}}, {"uniqueid": "MTK0889:3JPSL1DZ5T632DB126YVWDSVJ6ANAC", "current_trial": 244, "dateTime": 1512863662926, "trialdata": {"rt": -1, "stimulus": "<p id=\"stim\">8</p>", "key_press": -1, "trial_type": "single-stim", "trial_index": 244, "time_elapsed": 1165031, "internal_node_id": "0.0-179.0-2.0"}}, {"uniqueid": "MTK0889:3JPSL1DZ5T632DB126YVWDSVJ6ANAC", "current_trial": 245, "dateTime": 1512863663929, "trialdata": {"rt": -1, "stimulus": "<p id=\"stim\">7</p>", "key_press": -1, "trial_type": "single-stim", "trial_index": 245, "time_elapsed": 1166034, "internal_node_id": "0.0-179.0-3.0"}}, {"uniqueid": "MTK0889:3JPSL1DZ5T632DB126YVWDSVJ6ANAC", "current_trial": 246, "dateTime": 1512863664932, "trialdata": {"rt": -1, "stimulus": "<p id=\"stim\">6</p>", "key_press": -1, "trial_type": "single-stim", "trial_index": 246, "time_elapsed": 1167037, "internal_node_id": "0.0-179.0-4.0"}}, {"uniqueid": "MTK0889:3JPSL1DZ5T632DB126YVWDSVJ6ANAC", "current_trial": 247, "dateTime": 1512863665933, "trialdata": {"rt": -1, "stimulus": "<p id=\"stim\">5</p>", "key_press": -1, "trial_type": "single-stim", "trial_index": 247, "time_elapsed": 1168038, "internal_node_id": "0.0-179.0-5.0"}}, {"uniqueid": "MTK0889:3JPSL1DZ5T632DB126YVWDSVJ6ANAC", "current_trial": 248, "dateTime": 1512863666935, "trialdata": {"rt": -1, "stimulus": "<p id=\"stim\">4</p>", "key_press": -1, "trial_type": "single-stim", "trial_index": 248, "time_elapsed": 1169040, "internal_node_id": "0.0-179.0-6.0"}}, {"uniqueid": "MTK0889:3JPSL1DZ5T632DB126YVWDSVJ6ANAC", "current_trial": 249, "dateTime": 1512863667936, "trialdata": {"rt": -1, "stimulus": "<p id=\"stim\">3</p>", "key_press": -1, "trial_type": "single-stim", "trial_index": 249, "time_elapsed": 1170041, "internal_node_id": "0.0-179.0-7.0"}}, {"uniqueid": "MTK0889:3JPSL1DZ5T632DB126YVWDSVJ6ANAC", "current_trial": 250, "dateTime": 1512863668937, "trialdata": {"rt": -1, "stimulus": "<p id=\"stim\">2</p>", "key_press": -1, "trial_type": "single-stim", "trial_index": 250, "time_elapsed": 1171042, "internal_node_id": "0.0-179.0-8.0"}}, {"uniqueid": "MTK0889:3JPSL1DZ5T632DB126YVWDSVJ6ANAC", "current_trial": 251, "dateTime": 1512863669939, "trialdata": {"rt": -1, "stimulus": "<p id=\"stim\">1</p>", "key_press": -1, "trial_type": "single-stim", "trial_index": 251, "time_elapsed": 1172044, "internal_node_id": "0.0-179.0-9.0"}}, {"uniqueid": "MTK0889:3JPSL1DZ5T632DB126YVWDSVJ6ANAC", "current_trial": 252, "dateTime": 1512863671441, "trialdata": {"rt": -1, "stimulus": "<p id=\"stim\">+</p>", "key_press": -1, "type": "FIXATION", "trial_type": "single-stim", "trial_index": 252, "time_elapsed": 1173546, "internal_node_id": "0.0-180.0-0.0"}}, {"uniqueid": "MTK0889:3JPSL1DZ5T632DB126YVWDSVJ6ANAC", "current_trial": 253, "dateTime": 1512863673923, "trialdata": {"rt": -1000, "stimulus": "/static/audio/wordpool/TYPIST.wav", "key_press": -1, "type": "PRES_AUD", "word": "typist", "wordID": 1531, "conditions": [24, 1600, "a", 24000], "trial": 7, "serialpos": 0, "trial_type": "single-audio", "trial_index": 253, "time_elapsed": 1176028, "internal_node_id": "0.0-181.0"}}, {"uniqueid": "MTK0889:3JPSL1DZ5T632DB126YVWDSVJ6ANAC", "current_trial": 254, "dateTime": 1512863676618, "trialdata": {"rt": -1000, "stimulus": "/static/audio/wordpool/CASHIER.wav", "key_press": -1, "type": "PRES_AUD", "word": "cashier", "wordID": 253, "conditions": [24, 1600, "a", 24000], "trial": 7, "serialpos": 1, "trial_type": "single-audio", "trial_index": 254, "time_elapsed": 1178723, "internal_node_id": "0.0-182.0"}}, {"uniqueid": "MTK0889:3JPSL1DZ5T632DB126YVWDSVJ6ANAC", "current_trial": 255, "dateTime": 1512863679379, "trialdata": {"rt": -1000, "stimulus": "/static/audio/wordpool/ROBBER.wav", "key_press": -1, "type": "PRES_AUD", "word": "robber", "wordID": 1196, "conditions": [24, 1600, "a", 24000], "trial": 7, "serialpos": 2, "trial_type": "single-audio", "trial_index": 255, "time_elapsed": 1181483, "internal_node_id": "0.0-183.0"}}, {"uniqueid": "MTK0889:3JPSL1DZ5T632DB126YVWDSVJ6ANAC", "current_trial": 256, "dateTime": 1512863682014, "trialdata": {"rt": -1000, "stimulus": "/static/audio/wordpool/BANK.wav", "key_press": -1, "type": "PRES_AUD", "word": "bank", "wordID": 82, "conditions": [24, 1600, "a", 24000], "trial": 7, "serialpos": 3, "trial_type": "single-audio", "trial_index": 256, "time_elapsed": 1184119, "internal_node_id": "0.0-184.0"}}, {"uniqueid": "MTK0889:3JPSL1DZ5T632DB126YVWDSVJ6ANAC", "current_trial": 257, "dateTime": 1512863684706, "trialdata": {"rt": -1000, "stimulus": "/static/audio/wordpool/OYSTER.wav", "key_press": -1, "type": "PRES_AUD", "word": "oyster", "wordID": 994, "conditions": [24, 1600, "a", 24000], "trial": 7, "serialpos": 4, "trial_type": "single-audio", "trial_index": 257, "time_elapsed": 1186811, "internal_node_id": "0.0-185.0"}}, {"uniqueid": "MTK0889:3JPSL1DZ5T632DB126YVWDSVJ6ANAC", "current_trial": 258, "dateTime": 1512863687291, "trialdata": {"rt": -1000, "stimulus": "/static/audio/wordpool/GIRL.wav", "key_press": -1, "type": "PRES_AUD", "word": "girl", "wordID": 636, "conditions": [24, 1600, "a", 24000], "trial": 7, "serialpos": 5, "trial_type": "single-audio", "trial_index": 258, "time_elapsed": 1189395, "internal_node_id": "0.0-186.0"}}, {"uniqueid": "MTK0889:3JPSL1DZ5T632DB126YVWDSVJ6ANAC", "current_trial": 259, "dateTime": 1512863689698, "trialdata": {"rt": -1000, "stimulus": "/static/audio/wordpool/BRANCH.wav", "key_press": -1, "type": "PRES_AUD", "word": "branch", "wordID": 167, "conditions": [24, 1600, "a", 24000], "trial": 7, "serialpos": 6, "trial_type": "single-audio", "trial_index": 259, "time_elapsed": 1191802, "internal_node_id": "0.0-187.0"}}, {"uniqueid": "MTK0889:3JPSL1DZ5T632DB126YVWDSVJ6ANAC", "current_trial": 260, "dateTime": 1512863692290, "trialdata": {"rt": -1000, "stimulus": "/static/audio/wordpool/SERVANT.wav", "key_press": -1, "type": "PRES_AUD", "word": "servant", "wordID": 1270, "conditions": [24, 1600, "a", 24000], "trial": 7, "serialpos": 7, "trial_type": "single-audio", "trial_index": 260, "time_elapsed": 1194395, "internal_node_id": "0.0-188.0"}}, {"uniqueid": "MTK0889:3JPSL1DZ5T632DB126YVWDSVJ6ANAC", "current_trial": 261, "dateTime": 1512863695007, "trialdata": {"rt": -1000, "stimulus": "/static/audio/wordpool/GRAVEL.wav", "key_press": -1, "type": "PRES_AUD", "word": "gravel", "wordID": 658, "conditions": [24, 1600, "a", 24000], "trial": 7, "serialpos": 8, "trial_type": "single-audio", "trial_index": 261, "time_elapsed": 1197112, "internal_node_id": "0.0-189.0"}}, {"uniqueid": "MTK0889:3JPSL1DZ5T632DB126YVWDSVJ6ANAC", "current_trial": 262, "dateTime": 1512863697783, "trialdata": {"rt": -1000, "stimulus": "/static/audio/wordpool/SAUSAGE.wav", "key_press": -1, "type": "PRES_AUD", "word": "sausage", "wordID": 1237, "conditions": [24, 1600, "a", 24000], "trial": 7, "serialpos": 9, "trial_type": "single-audio", "trial_index": 262, "time_elapsed": 1199888, "internal_node_id": "0.0-190.0"}}, {"uniqueid": "MTK0889:3JPSL1DZ5T632DB126YVWDSVJ6ANAC", "current_trial": 263, "dateTime": 1512863700425, "trialdata": {"rt": -1000, "stimulus": "/static/audio/wordpool/DIME.wav", "key_press": -1, "type": "PRES_AUD", "word": "dime", "wordID": 465, "conditions": [24, 1600, "a", 24000], "trial": 7, "serialpos": 10, "trial_type": "single-audio", "trial_index": 263, "time_elapsed": 1202530, "internal_node_id": "0.0-191.0"}}, {"uniqueid": "MTK0889:3JPSL1DZ5T632DB126YVWDSVJ6ANAC", "current_trial": 264, "dateTime": 1512863703079, "trialdata": {"rt": -1000, "stimulus": "/static/audio/wordpool/ROBIN.wav", "key_press": -1, "type": "PRES_AUD", "word": "robin", "wordID": 1198, "conditions": [24, 1600, "a", 24000], "trial": 7, "serialpos": 11, "trial_type": "single-audio", "trial_index": 264, "time_elapsed": 1205184, "internal_node_id": "0.0-192.0"}}, {"uniqueid": "MTK0889:3JPSL1DZ5T632DB126YVWDSVJ6ANAC", "current_trial": 265, "dateTime": 1512863705687, "trialdata": {"rt": -1000, "stimulus": "/static/audio/wordpool/VICTIM.wav", "key_press": -1, "type": "PRES_AUD", "word": "victim", "wordID": 1561, "conditions": [24, 1600, "a", 24000], "trial": 7, "serialpos": 12, "trial_type": "single-audio", "trial_index": 265, "time_elapsed": 1207792, "internal_node_id": "0.0-193.0"}}, {"uniqueid": "MTK0889:3JPSL1DZ5T632DB126YVWDSVJ6ANAC", "current_trial": 266, "dateTime": 1512863708435, "trialdata": {"rt": -1000, "stimulus": "/static/audio/wordpool/NURSE.wav", "key_press": -1, "type": "PRES_AUD", "word": "nurse", "wordID": 962, "conditions": [24, 1600, "a", 24000], "trial": 7, "serialpos": 13, "trial_type": "single-audio", "trial_index": 266, "time_elapsed": 1210538, "internal_node_id": "0.0-194.0"}}, {"uniqueid": "MTK0889:3JPSL1DZ5T632DB126YVWDSVJ6ANAC", "current_trial": 267, "dateTime": 1512863710992, "trialdata": {"rt": -1000, "stimulus": "/static/audio/wordpool/FRIEND.wav", "key_press": -1, "type": "PRES_AUD", "word": "friend", "wordID": 605, "conditions": [24, 1600, "a", 24000], "trial": 7, "serialpos": 14, "trial_type": "single-audio", "trial_index": 267, "time_elapsed": 1213097, "internal_node_id": "0.0-195.0"}}, {"uniqueid": "MTK0889:3JPSL1DZ5T632DB126YVWDSVJ6ANAC", "current_trial": 268, "dateTime": 1512863713705, "trialdata": {"rt": -1000, "stimulus": "/static/audio/wordpool/OUTFIT.wav", "key_press": -1, "type": "PRES_AUD", "word": "outfit", "wordID": 987, "conditions": [24, 1600, "a", 24000], "trial": 7, "serialpos": 15, "trial_type": "single-audio", "trial_index": 268, "time_elapsed": 1215810, "internal_node_id": "0.0-196.0"}}, {"uniqueid": "MTK0889:3JPSL1DZ5T632DB126YVWDSVJ6ANAC", "current_trial": 269, "dateTime": 1512863716230, "trialdata": {"rt": -1000, "stimulus": "/static/audio/wordpool/TREAT.wav", "key_press": -1, "type": "PRES_AUD", "word": "treat", "wordID": 1500, "conditions": [24, 1600, "a", 24000], "trial": 7, "serialpos": 16, "trial_type": "single-audio", "trial_index": 269, "time_elapsed": 1218335, "internal_node_id": "0.0-197.0"}}, {"uniqueid": "MTK0889:3JPSL1DZ5T632DB126YVWDSVJ6ANAC", "current_trial": 270, "dateTime": 1512863718674, "trialdata": {"rt": -1000, "stimulus": "/static/audio/wordpool/KITCHEN.wav", "key_press": -1, "type": "PRES_AUD", "word": "kitchen", "wordID": 777, "conditions": [24, 1600, "a", 24000], "trial": 7, "serialpos": 17, "trial_type": "single-audio", "trial_index": 270, "time_elapsed": 1220779, "internal_node_id": "0.0-198.0"}}, {"uniqueid": "MTK0889:3JPSL1DZ5T632DB126YVWDSVJ6ANAC", "current_trial": 271, "dateTime": 1512863721246, "trialdata": {"rt": -1000, "stimulus": "/static/audio/wordpool/GROUND.wav", "key_press": -1, "type": "PRES_AUD", "word": "ground", "wordID": 665, "conditions": [24, 1600, "a", 24000], "trial": 7, "serialpos": 18, "trial_type": "single-audio", "trial_index": 271, "time_elapsed": 1223350, "internal_node_id": "0.0-199.0"}}, {"uniqueid": "MTK0889:3JPSL1DZ5T632DB126YVWDSVJ6ANAC", "current_trial": 272, "dateTime": 1512863723979, "trialdata": {"rt": -1000, "stimulus": "/static/audio/wordpool/BLOUSE.wav", "key_press": -1, "type": "PRES_AUD", "wo