{"condition": 0, "counterbalance": 527, "assignmentId": "3EA3QWIZ4J2G38ZJBQCKMAM6J5LITC", "workerId": "MTK0501", "hitId": "3T5ZXGO9DEVNJYY74O19SGIPHEKZQP", "currenttrial": 626, "bonus": 0, "data": [{"uniqueid": "MTK0501:3EA3QWIZ4J2G38ZJBQCKMAM6J5LITC", "current_trial": 0, "dateTime": 1510969826072, "trialdata": {"rt": 2136, "key_press": 13, "type": "INSTRUCTIONS", "trial_type": "text", "trial_index": 0, "time_elapsed": 2138, "internal_node_id": "0.0-0.0"}}, {"uniqueid": "MTK0501:3EA3QWIZ4J2G38ZJBQCKMAM6J5LITC", "current_trial": 1, "dateTime": 1510969830632, "trialdata": {"rt": 4559, "key_press": 13, "type": "INSTRUCTIONS", "trial_type": "text", "trial_index": 1, "time_elapsed": 6698, "internal_node_id": "0.0-1.0"}}, {"uniqueid": "MTK0501:3EA3QWIZ4J2G38ZJBQCKMAM6J5LITC", "current_trial": 2, "dateTime": 1510969839264, "trialdata": {"rt": [8627], "responses": ["ocean"], "type": "AUDIO_TEST", "trial_type": "audio-test", "trial_index": 2, "time_elapsed": 15330, "internal_node_id": "0.0-2.0"}}, {"uniqueid": "MTK0501:3EA3QWIZ4J2G38ZJBQCKMAM6J5LITC", "current_trial": 3, "dateTime": 1510969843480, "trialdata": {"rt": [4213], "responses": ["crystal"], "type": "AUDIO_TEST", "trial_type": "audio-test", "trial_index": 3, "time_elapsed": 19546, "internal_node_id": "0.0-3.0"}}, {"uniqueid": "MTK0501:3EA3QWIZ4J2G38ZJBQCKMAM6J5LITC", "current_trial": 4, "dateTime": 1510969847744, "trialdata": {"rt": [4261], "responses": ["spice"], "type": "AUDIO_TEST", "trial_type": "audio-test", "trial_index": 4, "time_elapsed": 23810, "internal_node_id": "0.0-4.0"}}, {"uniqueid": "MTK0501:3EA3QWIZ4J2G38ZJBQCKMAM6J5LITC", "current_trial": 5, "dateTime": 1510969874872, "trialdata": {"rt": 26376, "responses": "{\"Q0\":\"12:15 PM\",\"Q1\":\"7:30 AM\",\"Q2\":\"4\"}", "type": "SLEEP_SURVEY", "trial_type": "survey-text", "trial_index": 5, "time_elapsed": 50938, "internal_node_id": "0.0-5.0"}}, {"uniqueid": "MTK0501:3EA3QWIZ4J2G38ZJBQCKMAM6J5LITC", "current_trial": 6, "dateTime": 1510969887696, "trialdata": {"rt": 11822, "key_press": 13, "type": "INSTRUCTIONS", "trial_type": "text", "trial_index": 6, "time_elapsed": 63762, "internal_node_id": "0.0-6.0"}}, {"uniqueid": "MTK0501:3EA3QWIZ4J2G38ZJBQCKMAM6J5LITC", "current_trial": 7, "dateTime": 1510969892911, "trialdata": {"rt": 4714, "key_press": 13, "type": "INSTRUCTIONS", "trial_type": "text", "trial_index": 7, "time_elapsed": 68977, "internal_node_id": "0.0-7.0"}}, {"uniqueid": "MTK0501:3EA3QWIZ4J2G38ZJBQCKMAM6J5LITC", "current_trial": 8, "dateTime": 1510969898543, "trialdata": {"rt": 5131, "key_press": 13, "type": "INSTRUCTIONS", "trial_type": "text", "trial_index": 8, "time_elapsed": 74609, "internal_node_id": "0.0-8.0"}}, {"uniqueid": "MTK0501:3EA3QWIZ4J2G38ZJBQCKMAM6J5LITC", "current_trial": 9, "dateTime": 1510969917549, "trialdata": {"rt": [2829, 5213, 7117, 9470, 11662, 14366, 16037, 17966], "responses": ["15", "15", "9", "17", "17", "15", "16", "9"], "num1": [5, 9, 6, 9, 3, 9, 1, 2, 3], "num2": [3, 5, 1, 4, 9, 2, 7, 5, 7], "num3": [6, 1, 2, 4, 5, 4, 8, 2, 8], "type": "DISTRACTOR", "conditions": [18, 1200, "v", 18000], "trial": 0, "trial_type": "math-distractor", "trial_index": 9, "time_elapsed": 93615, "internal_node_id": "0.0-9.0"}}, {"uniqueid": "MTK0501:3EA3QWIZ4J2G38ZJBQCKMAM6J5LITC", "current_trial": 10, "dateTime": 1510969920551, "trialdata": {"rt": -1, "stimulus": "<p id=\"stim\">10</p>", "key_press": -1, "trial_type": "single-stim", "trial_index": 10, "time_elapsed": 96617, "internal_node_id": "0.0-10.0-0.0"}}, {"uniqueid": "MTK0501:3EA3QWIZ4J2G38ZJBQCKMAM6J5LITC", "current_trial": 11, "dateTime": 1510969921552, "trialdata": {"rt": -1, "stimulus": "<p id=\"stim\">9</p>", "key_press": -1, "trial_type": "single-stim", "trial_index": 11, "time_elapsed": 97618, "internal_node_id": "0.0-10.0-1.0"}}, {"uniqueid": "MTK0501:3EA3QWIZ4J2G38ZJBQCKMAM6J5LITC", "current_trial": 12, "dateTime": 1510969922553, "trialdata": {"rt": -1, "stimulus": "<p id=\"stim\">8</p>", "key_press": -1, "trial_type": "single-stim", "trial_index": 12, "time_elapsed": 98619, "internal_node_id": "0.0-10.0-2.0"}}, {"uniqueid": "MTK0501:3EA3QWIZ4J2G38ZJBQCKMAM6J5LITC", "current_trial": 13, "dateTime": 1510969923554, "trialdata": {"rt": -1, "stimulus": "<p id=\"stim\">7</p>", "key_press": -1, "trial_type": "single-stim", "trial_index": 13, "time_elapsed": 99620, "internal_node_id": "0.0-10.0-3.0"}}, {"uniqueid": "MTK0501:3EA3QWIZ4J2G38ZJBQCKMAM6J5LITC", "current_trial": 14, "dateTime": 1510969924555, "trialdata": {"rt": -1, "stimulus": "<p id=\"stim\">6</p>", "key_press": -1, "trial_type": "single-stim", "trial_index": 14, "time_elapsed": 100621, "internal_node_id": "0.0-10.0-4.0"}}, {"uniqueid": "MTK0501:3EA3QWIZ4J2G38ZJBQCKMAM6J5LITC", "current_trial": 15, "dateTime": 1510969925556, "trialdata": {"rt": -1, "stimulus": "<p id=\"stim\">5</p>", "key_press": -1, "trial_type": "single-stim", "trial_index": 15, "time_elapsed": 101622, "internal_node_id": "0.0-10.0-5.0"}}, {"uniqueid": "MTK0501:3EA3QWIZ4J2G38ZJBQCKMAM6J5LITC", "current_trial": 16, "dateTime": 1510969926557, "trialdata": {"rt": -1, "stimulus": "<p id=\"stim\">4</p>", "key_press": -1, "trial_type": "single-stim", "trial_index": 16, "time_elapsed": 102623, "internal_node_id": "0.0-10.0-6.0"}}, {"uniqueid": "MTK0501:3EA3QWIZ4J2G38ZJBQCKMAM6J5LITC", "current_trial": 17, "dateTime": 1510969927558, "trialdata": {"rt": -1, "stimulus": "<p id=\"stim\">3</p>", "key_press": -1, "trial_type": "single-stim", "trial_index": 17, "time_elapsed": 103624, "internal_node_id": "0.0-10.0-7.0"}}, {"uniqueid": "MTK0501:3EA3QWIZ4J2G38ZJBQCKMAM6J5LITC", "current_trial": 18, "dateTime": 1510969928560, "trialdata": {"rt": -1, "stimulus": "<p id=\"stim\">2</p>", "key_press": -1, "trial_type": "single-stim", "trial_index": 18, "time_elapsed": 104626, "internal_node_id": "0.0-10.0-8.0"}}, {"uniqueid": "MTK0501:3EA3QWIZ4J2G38ZJBQCKMAM6J5LITC", "current_trial": 19, "dateTime": 1510969929561, "trialdata": {"rt": -1, "stimulus": "<p id=\"stim\">1</p>", "key_press": -1, "trial_type": "single-stim", "trial_index": 19, "time_elapsed": 105627, "internal_node_id": "0.0-10.0-9.0"}}, {"uniqueid": "MTK0501:3EA3QWIZ4J2G38ZJBQCKMAM6J5LITC", "current_trial": 20, "dateTime": 1510969931062, "trialdata": {"rt": -1, "stimulus": "<p id=\"stim\">+</p>", "key_press": -1, "type": "FIXATION", "trial_type": "single-stim", "trial_index": 20, "time_elapsed": 107128, "internal_node_id": "0.0-11.0-0.0"}}, {"uniqueid": "MTK0501:3EA3QWIZ4J2G38ZJBQCKMAM6J5LITC", "current_trial": 21, "dateTime": 1510969932263, "trialdata": {"rt": -1, "stimulus": "<p id=\"stim\">WAITRESS</p>", "key_press": -1, "type": "PRES_VIS", "word": "waitress", "wordID": 1580, "conditions": [18, 1200, "v", 18000], "trial": 0, "serialpos": 0, "trial_type": "single-stim", "trial_index": 21, "time_elapsed": 108329, "internal_node_id": "0.0-12.0"}}, {"uniqueid": "MTK0501:3EA3QWIZ4J2G38ZJBQCKMAM6J5LITC", "current_trial": 22, "dateTime": 1510969934665, "trialdata": {"rt": -1, "stimulus": "<p id=\"stim\">SLUG</p>", "key_press": -1, "type": "PRES_VIS", "word": "slug", "wordID": 1328, "conditions": [18, 1200, "v", 18000], "trial": 0, "serialpos": 1, "trial_type": "single-stim", "trial_index": 22, "time_elapsed": 110731, "internal_node_id": "0.0-13.0"}}, {"uniqueid": "MTK0501:3EA3QWIZ4J2G38ZJBQCKMAM6J5LITC", "current_trial": 23, "dateTime": 1510969936781, "trialdata": {"rt": -1, "stimulus": "<p id=\"stim\">SCOTCH</p>", "key_press": -1, "type": "PRES_VIS", "word": "scotch", "wordID": 1250, "conditions": [18, 1200, "v", 18000], "trial": 0, "serialpos": 2, "trial_type": "single-stim", "trial_index": 23, "time_elapsed": 112847, "internal_node_id": "0.0-14.0"}}, {"uniqueid": "MTK0501:3EA3QWIZ4J2G38ZJBQCKMAM6J5LITC", "current_trial": 24, "dateTime": 1510969939074, "trialdata": {"rt": -1, "stimulus": "<p id=\"stim\">YACHT</p>", "key_press": -1, "type": "PRES_VIS", "word": "yacht", "wordID": 1628, "conditions": [18, 1200, "v", 18000], "trial": 0, "serialpos": 3, "trial_type": "single-stim", "trial_index": 24, "time_elapsed": 115140, "internal_node_id": "0.0-15.0"}}, {"uniqueid": "MTK0501:3EA3QWIZ4J2G38ZJBQCKMAM6J5LITC", "current_trial": 25, "dateTime": 1510969941338, "trialdata": {"rt": -1, "stimulus": "<p id=\"stim\">SMOG</p>", "key_press": -1, "type": "PRES_VIS", "word": "smog", "wordID": 1329, "conditions": [18, 1200, "v", 18000], "trial": 0, "serialpos": 4, "trial_type": "single-stim", "trial_index": 25, "time_elapsed": 117404, "internal_node_id": "0.0-16.0"}}, {"uniqueid": "MTK0501:3EA3QWIZ4J2G38ZJBQCKMAM6J5LITC", "current_trial": 26, "dateTime": 1510969943578, "trialdata": {"rt": -1, "stimulus": "<p id=\"stim\">CELLAR</p>", "key_press": -1, "type": "PRES_VIS", "word": "cellar", "wordID": 266, "conditions": [18, 1200, "v", 18000], "trial": 0, "serialpos": 5, "trial_type": "single-stim", "trial_index": 26, "time_elapsed": 119644, "internal_node_id": "0.0-17.0"}}, {"uniqueid": "MTK0501:3EA3QWIZ4J2G38ZJBQCKMAM6J5LITC", "current_trial": 27, "dateTime": 1510969945944, "trialdata": {"rt": -1, "stimulus": "<p id=\"stim\">FIREPLACE</p>", "key_press": -1, "type": "PRES_VIS", "word": "fireplace", "wordID": 569, "conditions": [18, 1200, "v", 18000], "trial": 0, "serialpos": 6, "trial_type": "single-stim", "trial_index": 27, "time_elapsed": 122010, "internal_node_id": "0.0-18.0"}}, {"uniqueid": "MTK0501:3EA3QWIZ4J2G38ZJBQCKMAM6J5LITC", "current_trial": 28, "dateTime": 1510969948314, "trialdata": {"rt": -1, "stimulus": "<p id=\"stim\">MARSH</p>", "key_press": -1, "type": "PRES_VIS", "word": "marsh", "wordID": 873, "conditions": [18, 1200, "v", 18000], "trial": 0, "serialpos": 7, "trial_type": "single-stim", "trial_index": 28, "time_elapsed": 124380, "internal_node_id": "0.0-19.0"}}, {"uniqueid": "MTK0501:3EA3QWIZ4J2G38ZJBQCKMAM6J5LITC", "current_trial": 29, "dateTime": 1510969950400, "trialdata": {"rt": -1, "stimulus": "<p id=\"stim\">TILE</p>", "key_press": -1, "type": "PRES_VIS", "word": "tile", "wordID": 1467, "conditions": [18, 1200, "v", 18000], "trial": 0, "serialpos": 8, "trial_type": "single-stim", "trial_index": 29, "time_elapsed": 126466, "internal_node_id": "0.0-20.0"}}, {"uniqueid": "MTK0501:3EA3QWIZ4J2G38ZJBQCKMAM6J5LITC", "current_trial": 30, "dateTime": 1510969952412, "trialdata": {"rt": -1, "stimulus": "<p id=\"stim\">SISTER</p>", "key_press": -1, "type": "PRES_VIS", "word": "sister", "wordID": 1311, "conditions": [18, 1200, "v", 18000], "trial": 0, "serialpos": 9, "trial_type": "single-stim", "trial_index": 30, "time_elapsed": 128478, "internal_node_id": "0.0-21.0"}}, {"uniqueid": "MTK0501:3EA3QWIZ4J2G38ZJBQCKMAM6J5LITC", "current_trial": 31, "dateTime": 1510969954711, "trialdata": {"rt": -1, "stimulus": "<p id=\"stim\">PISTON</p>", "key_press": -1, "type": "PRES_VIS", "word": "piston", "wordID": 1075, "conditions": [18, 1200, "v", 18000], "trial": 0, "serialpos": 10, "trial_type": "single-stim", "trial_index": 31, "time_elapsed": 130777, "internal_node_id": "0.0-22.0"}}, {"uniqueid": "MTK0501:3EA3QWIZ4J2G38ZJBQCKMAM6J5LITC", "current_trial": 32, "dateTime": 1510969956799, "trialdata": {"rt": -1, "stimulus": "<p id=\"stim\">FLOWER</p>", "key_press": -1, "type": "PRES_VIS", "word": "flower", "wordID": 583, "conditions": [18, 1200, "v", 18000], "trial": 0, "serialpos": 11, "trial_type": "single-stim", "trial_index": 32, "time_elapsed": 132865, "internal_node_id": "0.0-23.0"}}, {"uniqueid": "MTK0501:3EA3QWIZ4J2G38ZJBQCKMAM6J5LITC", "current_trial": 33, "dateTime": 1510969958864, "trialdata": {"rt": -1, "stimulus": "<p id=\"stim\">CHURCH</p>", "key_press": -1, "type": "PRES_VIS", "word": "church", "wordID": 306, "conditions": [18, 1200, "v", 18000], "trial": 0, "serialpos": 12, "trial_type": "single-stim", "trial_index": 33, "time_elapsed": 134930, "internal_node_id": "0.0-24.0"}}, {"uniqueid": "MTK0501:3EA3QWIZ4J2G38ZJBQCKMAM6J5LITC", "current_trial": 34, "dateTime": 1510969961109, "trialdata": {"rt": -1, "stimulus": "<p id=\"stim\">DRINK</p>", "key_press": -1, "type": "PRES_VIS", "word": "drink", "wordID": 497, "conditions": [18, 1200, "v", 18000], "trial": 0, "serialpos": 13, "trial_type": "single-stim", "trial_index": 34, "time_elapsed": 137175, "internal_node_id": "0.0-25.0"}}, {"uniqueid": "MTK0501:3EA3QWIZ4J2G38ZJBQCKMAM6J5LITC", "current_trial": 35, "dateTime": 1510969963498, "trialdata": {"rt": -1, "stimulus": "<p id=\"stim\">COIN</p>", "key_press": -1, "type": "PRES_VIS", "word": "coin", "wordID": 342, "conditions": [18, 1200, "v", 18000], "trial": 0, "serialpos": 14, "trial_type": "single-stim", "trial_index": 35, "time_elapsed": 139564, "internal_node_id": "0.0-26.0"}}, {"uniqueid": "MTK0501:3EA3QWIZ4J2G38ZJBQCKMAM6J5LITC", "current_trial": 36, "dateTime": 1510969965566, "trialdata": {"rt": -1, "stimulus": "<p id=\"stim\">KEEPER</p>", "key_press": -1, "type": "PRES_VIS", "word": "keeper", "wordID": 768, "conditions": [18, 1200, "v", 18000], "trial": 0, "serialpos": 15, "trial_type": "single-stim", "trial_index": 36, "time_elapsed": 141632, "internal_node_id": "0.0-27.0"}}, {"uniqueid": "MTK0501:3EA3QWIZ4J2G38ZJBQCKMAM6J5LITC", "current_trial": 37, "dateTime": 1510969967797, "trialdata": {"rt": -1, "stimulus": "<p id=\"stim\">TREAT</p>", "key_press": -1, "type": "PRES_VIS", "word": "treat", "wordID": 1500, "conditions": [18, 1200, "v", 18000], "trial": 0, "serialpos": 16, "trial_type": "single-stim", "trial_index": 37, "time_elapsed": 143863, "internal_node_id": "0.0-28.0"}}, {"uniqueid": "MTK0501:3EA3QWIZ4J2G38ZJBQCKMAM6J5LITC", "current_trial": 38, "dateTime": 1510969969917, "trialdata": {"rt": -1, "stimulus": "<p id=\"stim\">PATIENT</p>", "key_press": -1, "type": "PRES_VIS", "word": "patient", "wordID": 1023, "conditions": [18, 1200, "v", 18000], "trial": 0, "serialpos": 17, "trial_type": "single-stim", "trial_index": 38, "time_elapsed": 145983, "internal_node_id": "0.0-29.0"}}, {"uniqueid": "MTK0501:3EA3QWIZ4J2G38ZJBQCKMAM6J5LITC", "current_trial": 39, "dateTime": 1510969972023, "trialdata": {"rt": -1, "stimulus": "", "key_press": -1, "type": "PRE_RECALL_DELAY", "trial_type": "single-stim", "trial_index": 39, "time_elapsed": 148089, "internal_node_id": "0.0-30.0-0.0"}}, {"uniqueid": "MTK0501:3EA3QWIZ4J2G38ZJBQCKMAM6J5LITC", "current_trial": 40, "dateTime": 1510969972524, "trialdata": {"rt": -1000, "stimulus": "/static/audio/400Hz.wav", "key_press": -1, "type": "PRE_RECALL_ALERT", "trial_type": "single-audio", "trial_index": 40, "time_elapsed": 148590, "internal_node_id": "0.0-31.0"}}, {"uniqueid": "MTK0501:3EA3QWIZ4J2G38ZJBQCKMAM6J5LITC", "current_trial": 41, "dateTime": 1510970032527, "trialdata": {"rt": [4827, 9179, 16611, 20371, 22275, 26283], "recwords": ["treat", "coin", "piston", "fireplace", "smog", "waitress"], "type": "FREE_RECALL", "conditions": [18, 1200, "v", 18000], "trial": 0, "trial_type": "free-recall", "trial_index": 41, "time_elapsed": 208592, "internal_node_id": "0.0-32.0-0.0"}}, {"uniqueid": "MTK0501:3EA3QWIZ4J2G38ZJBQCKMAM6J5LITC", "current_trial": 42, "dateTime": 1510970038000, "trialdata": {"rt": 3472, "key_press": 13, "type": "INSTRUCTIONS", "trial_type": "text", "trial_index": 42, "time_elapsed": 214066, "internal_node_id": "0.0-33.0"}}, {"uniqueid": "MTK0501:3EA3QWIZ4J2G38ZJBQCKMAM6J5LITC", "current_trial": 43, "dateTime": 1510970058003, "trialdata": {"rt": [3110, 5614, 7998, 14246, 17182], "responses": ["13", "10", "8", "15", "16"], "num1": [1, 1, 2, 6, 5, 5], "num2": [3, 3, 2, 7, 3, 6], "num3": [9, 6, 4, 2, 8, 8], "type": "DISTRACTOR", "conditions": [18, 1200, "a", 18000], "trial": 1, "trial_type": "math-distractor", "trial_index": 43, "time_elapsed": 234069, "internal_node_id": "0.0-34.0"}}, {"uniqueid": "MTK0501:3EA3QWIZ4J2G38ZJBQCKMAM6J5LITC", "current_trial": 44, "dateTime": 1510970061005, "trialdata": {"rt": -1, "stimulus": "<p id=\"stim\">10</p>", "key_press": -1, "trial_type": "single-stim", "trial_index": 44, "time_elapsed": 237071, "internal_node_id": "0.0-35.0-0.0"}}, {"uniqueid": "MTK0501:3EA3QWIZ4J2G38ZJBQCKMAM6J5LITC", "current_trial": 45, "dateTime": 1510970062006, "trialdata": {"rt": -1, "stimulus": "<p id=\"stim\">9</p>", "key_press": -1, "trial_type": "single-stim", "trial_index": 45, "time_elapsed": 238072, "internal_node_id": "0.0-35.0-1.0"}}, {"uniqueid": "MTK0501:3EA3QWIZ4J2G38ZJBQCKMAM6J5LITC", "current_trial": 46, "dateTime": 1510970063007, "trialdata": {"rt": -1, "stimulus": "<p id=\"stim\">8</p>", "key_press": -1, "trial_type": "single-stim", "trial_index": 46, "time_elapsed": 239073, "internal_node_id": "0.0-35.0-2.0"}}, {"uniqueid": "MTK0501:3EA3QWIZ4J2G38ZJBQCKMAM6J5LITC", "current_trial": 47, "dateTime": 1510970064008, "trialdata": {"rt": -1, "stimulus": "<p id=\"stim\">7</p>", "key_press": -1, "trial_type": "single-stim", "trial_index": 47, "time_elapsed": 240074, "internal_node_id": "0.0-35.0-3.0"}}, {"uniqueid": "MTK0501:3EA3QWIZ4J2G38ZJBQCKMAM6J5LITC", "current_trial": 48, "dateTime": 1510970065009, "trialdata": {"rt": -1, "stimulus": "<p id=\"stim\">6</p>", "key_press": -1, "trial_type": "single-stim", "trial_index": 48, "time_elapsed": 241075, "internal_node_id": "0.0-35.0-4.0"}}, {"uniqueid": "MTK0501:3EA3QWIZ4J2G38ZJBQCKMAM6J5LITC", "current_trial": 49, "dateTime": 1510970066010, "trialdata": {"rt": -1, "stimulus": "<p id=\"stim\">5</p>", "key_press": -1, "trial_type": "single-stim", "trial_index": 49, "time_elapsed": 242076, "internal_node_id": "0.0-35.0-5.0"}}, {"uniqueid": "MTK0501:3EA3QWIZ4J2G38ZJBQCKMAM6J5LITC", "current_trial": 50, "dateTime": 1510970067011, "trialdata": {"rt": -1, "stimulus": "<p id=\"stim\">4</p>", "key_press": -1, "trial_type": "single-stim", "trial_index": 50, "time_elapsed": 243077, "internal_node_id": "0.0-35.0-6.0"}}, {"uniqueid": "MTK0501:3EA3QWIZ4J2G38ZJBQCKMAM6J5LITC", "current_trial": 51, "dateTime": 1510970068012, "trialdata": {"rt": -1, "stimulus": "<p id=\"stim\">3</p>", "key_press": -1, "trial_type": "single-stim", "trial_index": 51, "time_elapsed": 244078, "internal_node_id": "0.0-35.0-7.0"}}, {"uniqueid": "MTK0501:3EA3QWIZ4J2G38ZJBQCKMAM6J5LITC", "current_trial": 52, "dateTime": 1510970069013, "trialdata": {"rt": -1, "stimulus": "<p id=\"stim\">2</p>", "key_press": -1, "trial_type": "single-stim", "trial_index": 52, "time_elapsed": 245079, "internal_node_id": "0.0-35.0-8.0"}}, {"uniqueid": "MTK0501:3EA3QWIZ4J2G38ZJBQCKMAM6J5LITC", "current_trial": 53, "dateTime": 1510970070014, "trialdata": {"rt": -1, "stimulus": "<p id=\"stim\">1</p>", "key_press": -1, "trial_type": "single-stim", "trial_index": 53, "time_elapsed": 246080, "internal_node_id": "0.0-35.0-9.0"}}, {"uniqueid": "MTK0501:3EA3QWIZ4J2G38ZJBQCKMAM6J5LITC", "current_trial": 54, "dateTime": 1510970071515, "trialdata": {"rt": -1, "stimulus": "<p id=\"stim\">+</p>", "key_press": -1, "type": "FIXATION", "trial_type": "single-stim", "trial_index": 54, "time_elapsed": 247581, "internal_node_id": "0.0-36.0-0.0"}}, {"uniqueid": "MTK0501:3EA3QWIZ4J2G38ZJBQCKMAM6J5LITC", "current_trial": 55, "dateTime": 1510970073744, "trialdata": {"rt": -1000, "stimulus": "/static/audio/wordpool/REBEL.wav", "key_press": -1, "type": "PRES_AUD", "word": "rebel", "wordID": 1171, "conditions": [18, 1200, "a", 18000], "trial": 1, "serialpos": 0, "trial_type": "single-audio", "trial_index": 55, "time_elapsed": 249810, "internal_node_id": "0.0-37.0"}}, {"uniqueid": "MTK0501:3EA3QWIZ4J2G38ZJBQCKMAM6J5LITC", "current_trial": 56, "dateTime": 1510970076078, "trialdata": {"rt": -1000, "stimulus": "/static/audio/wordpool/COD.wav", "key_press": -1, "type": "PRES_AUD", "word": "cod", "wordID": 339, "conditions": [18, 1200, "a", 18000], "trial": 1, "serialpos": 1, "trial_type": "single-audio", "trial_index": 56, "time_elapsed": 252144, "internal_node_id": "0.0-38.0"}}, {"uniqueid": "MTK0501:3EA3QWIZ4J2G38ZJBQCKMAM6J5LITC", "current_trial": 57, "dateTime": 1510970078330, "trialdata": {"rt": -1000, "stimulus": "/static/audio/wordpool/GRAPE.wav", "key_press": -1, "type": "PRES_AUD", "word": "grape", "wordID": 653, "conditions": [18, 1200, "a", 18000], "trial": 1, "serialpos": 2, "trial_type": "single-audio", "trial_index": 57, "time_elapsed": 254396, "internal_node_id": "0.0-39.0"}}, {"uniqueid": "MTK0501:3EA3QWIZ4J2G38ZJBQCKMAM6J5LITC", "current_trial": 58, "dateTime": 1510970080592, "trialdata": {"rt": -1000, "stimulus": "/static/audio/wordpool/BUGGY.wav", "key_press": -1, "type": "PRES_AUD", "word": "buggy", "wordID": 187, "conditions": [18, 1200, "a", 18000], "trial": 1, "serialpos": 3, "trial_type": "single-audio", "trial_index": 58, "time_elapsed": 256658, "internal_node_id": "0.0-40.0"}}, {"uniqueid": "MTK0501:3EA3QWIZ4J2G38ZJBQCKMAM6J5LITC", "current_trial": 59, "dateTime": 1510970082792, "trialdata": {"rt": -1000, "stimulus": "/static/audio/wordpool/PENGUIN.wav", "key_press": -1, "type": "PRES_AUD", "word": "penguin", "wordID": 1043, "conditions": [18, 1200, "a", 18000], "trial": 1, "serialpos": 4, "trial_type": "single-audio", "trial_index": 59, "time_elapsed": 258858, "internal_node_id": "0.0-41.0"}}, {"uniqueid": "MTK0501:3EA3QWIZ4J2G38ZJBQCKMAM6J5LITC", "current_trial": 60, "dateTime": 1510970084799, "trialdata": {"rt": -1000, "stimulus": "/static/audio/wordpool/APPLE.wav", "key_press": -1, "type": "PRES_AUD", "word": "apple", "wordID": 32, "conditions": [18, 1200, "a", 18000], "trial": 1, "serialpos": 5, "trial_type": "single-audio", "trial_index": 60, "time_elapsed": 260865, "internal_node_id": "0.0-42.0"}}, {"uniqueid": "MTK0501:3EA3QWIZ4J2G38ZJBQCKMAM6J5LITC", "current_trial": 61, "dateTime": 1510970087011, "trialdata": {"rt": -1000, "stimulus": "/static/audio/wordpool/PASSAGE.wav", "key_press": -1, "type": "PRES_AUD", "word": "passage", "wordID": 1018, "conditions": [18, 1200, "a", 18000], "trial": 1, "serialpos": 6, "trial_type": "single-audio", "trial_index": 61, "time_elapsed": 263077, "internal_node_id": "0.0-43.0"}}, {"uniqueid": "MTK0501:3EA3QWIZ4J2G38ZJBQCKMAM6J5LITC", "current_trial": 62, "dateTime": 1510970089073, "trialdata": {"rt": -1000, "stimulus": "/static/audio/wordpool/CAPTIVE.wav", "key_press": -1, "type": "PRES_AUD", "word": "captive", "wordID": 239, "conditions": [18, 1200, "a", 18000], "trial": 1, "serialpos": 7, "trial_type": "single-audio", "trial_index": 62, "time_elapsed": 265139, "internal_node_id": "0.0-44.0"}}, {"uniqueid": "MTK0501:3EA3QWIZ4J2G38ZJBQCKMAM6J5LITC", "current_trial": 63, "dateTime": 1510970091339, "trialdata": {"rt": -1000, "stimulus": "/static/audio/wordpool/LAVA.wav", "key_press": -1, "type": "PRES_AUD", "word": "lava", "wordID": 803, "conditions": [18, 1200, "a", 18000], "trial": 1, "serialpos": 8, "trial_type": "single-audio", "trial_index": 63, "time_elapsed": 267405, "internal_node_id": "0.0-45.0"}}, {"uniqueid": "MTK0501:3EA3QWIZ4J2G38ZJBQCKMAM6J5LITC", "current_trial": 64, "dateTime": 1510970093588, "trialdata": {"rt": -1000, "stimulus": "/static/audio/wordpool/PUDDING.wav", "key_press": -1, "type": "PRES_AUD", "word": "pudding", "wordID": 1138, "conditions": [18, 1200, "a", 18000], "trial": 1, "serialpos": 9, "trial_type": "single-audio", "trial_index": 64, "time_elapsed": 269654, "internal_node_id": "0.0-46.0"}}, {"uniqueid": "MTK0501:3EA3QWIZ4J2G38ZJBQCKMAM6J5LITC", "current_trial": 65, "dateTime": 1510970095806, "trialdata": {"rt": -1000, "stimulus": "/static/audio/wordpool/CRICKET.wav", "key_press": -1, "type": "PRES_AUD", "word": "cricket", "wordID": 407, "conditions": [18, 1200, "a", 18000], "trial": 1, "serialpos": 10, "trial_type": "single-audio", "trial_index": 65, "time_elapsed": 271872, "internal_node_id": "0.0-47.0"}}, {"uniqueid": "MTK0501:3EA3QWIZ4J2G38ZJBQCKMAM6J5LITC", "current_trial": 66, "dateTime": 1510970098158, "trialdata": {"rt": -1000, "stimulus": "/static/audio/wordpool/PEANUT.wav", "key_press": -1, "type": "PRES_AUD", "word": "peanut", "wordID": 1031, "conditions": [18, 1200, "a", 18000], "trial": 1, "serialpos": 11, "trial_type": "single-audio", "trial_index": 66, "time_elapsed": 274224, "internal_node_id": "0.0-48.0"}}, {"uniqueid": "MTK0501:3EA3QWIZ4J2G38ZJBQCKMAM6J5LITC", "current_trial": 67, "dateTime": 1510970100548, "trialdata": {"rt": -1000, "stimulus": "/static/audio/wordpool/EUROPE.wav", "key_press": -1, "type": "PRES_AUD", "word": "europe", "wordID": 540, "conditions": [18, 1200, "a", 18000], "trial": 1, "serialpos": 12, "trial_type": "single-audio", "trial_index": 67, "time_elapsed": 276614, "internal_node_id": "0.0-49.0"}}, {"uniqueid": "MTK0501:3EA3QWIZ4J2G38ZJBQCKMAM6J5LITC", "current_trial": 68, "dateTime": 1510970102856, "trialdata": {"rt": -1000, "stimulus": "/static/audio/wordpool/GRILL.wav", "key_press": -1, "type": "PRES_AUD", "word": "grill", "wordID": 660, "conditions": [18, 1200, "a", 18000], "trial": 1, "serialpos": 13, "trial_type": "single-audio", "trial_index": 68, "time_elapsed": 278921, "internal_node_id": "0.0-50.0"}}, {"uniqueid": "MTK0501:3EA3QWIZ4J2G38ZJBQCKMAM6J5LITC", "current_trial": 69, "dateTime": 1510970105013, "trialdata": {"rt": -1000, "stimulus": "/static/audio/wordpool/BANQUET.wav", "key_press": -1, "type": "PRES_AUD", "word": "banquet", "wordID": 85, "conditions": [18, 1200, "a", 18000], "trial": 1, "serialpos": 14, "trial_type": "single-audio", "trial_index": 69, "time_elapsed": 281079, "internal_node_id": "0.0-51.0"}}, {"uniqueid": "MTK0501:3EA3QWIZ4J2G38ZJBQCKMAM6J5LITC", "current_trial": 70, "dateTime": 1510970107304, "trialdata": {"rt": -1000, "stimulus": "/static/audio/wordpool/WORKER.wav", "key_press": -1, "type": "PRES_AUD", "word": "worker", "wordID": 1620, "conditions": [18, 1200, "a", 18000], "trial": 1, "serialpos": 15, "trial_type": "single-audio", "trial_index": 70, "time_elapsed": 283370, "internal_node_id": "0.0-52.0"}}, {"uniqueid": "MTK0501:3EA3QWIZ4J2G38ZJBQCKMAM6J5LITC", "current_trial": 71, "dateTime": 1510970109547, "trialdata": {"rt": -1000, "stimulus": "/static/audio/wordpool/SALAD.wav", "key_press": -1, "type": "PRES_AUD", "word": "salad", "wordID": 1223, "conditions": [18, 1200, "a", 18000], "trial": 1, "serialpos": 16, "trial_type": "single-audio", "trial_index": 71, "time_elapsed": 285613, "internal_node_id": "0.0-53.0"}}, {"uniqueid": "MTK0501:3EA3QWIZ4J2G38ZJBQCKMAM6J5LITC", "current_trial": 72, "dateTime": 1510970111924, "trialdata": {"rt": -1000, "stimulus": "/static/audio/wordpool/POWDER.wav", "key_press": -1, "type": "PRES_AUD", "word": "powder", "wordID": 1116, "conditions": [18, 1200, "a", 18000], "trial": 1, "serialpos": 17, "trial_type": "single-audio", "trial_index": 72, "time_elapsed": 287990, "internal_node_id": "0.0-54.0"}}, {"uniqueid": "MTK0501:3EA3QWIZ4J2G38ZJBQCKMAM6J5LITC", "current_trial": 73, "dateTime": 1510970113147, "trialdata": {"rt": -1, "stimulus": "", "key_press": -1, "type": "PRE_RECALL_DELAY", "trial_type": "single-stim", "trial_index": 73, "time_elapsed": 289213, "internal_node_id": "0.0-55.0-0.0"}}, {"uniqueid": "MTK0501:3EA3QWIZ4J2G38ZJBQCKMAM6J5LITC", "current_trial": 74, "dateTime": 1510970113648, "trialdata": {"rt": -1000, "stimulus": "/static/audio/400Hz.wav", "key_press": -1, "type": "PRE_RECALL_ALERT", "trial_type": "single-audio", "trial_index": 74, "time_elapsed": 289714, "internal_node_id": "0.0-56.0"}}, {"uniqueid": "MTK0501:3EA3QWIZ4J2G38ZJBQCKMAM6J5LITC", "current_trial": 75, "dateTime": 1510970173652, "trialdata": {"rt": [4703, 9047, 13520, 20087, 27015, 28983], "recwords": ["grill", "europe", "peanut", "pudding", "cod", "grape"], "type": "FREE_RECALL", "conditions": [18, 1200, "a", 18000], "trial": 1, "trial_type": "free-recall", "trial_index": 75, "time_elapsed": 349716, "internal_node_id": "0.0-57.0-0.0"}}, {"uniqueid": "MTK0501:3EA3QWIZ4J2G38ZJBQCKMAM6J5LITC", "current_trial": 76, "dateTime": 1510970178530, "trialdata": {"rt": 2875, "key_press": 13, "type": "INSTRUCTIONS", "trial_type": "text", "trial_index": 76, "time_elapsed": 354594, "internal_node_id": "0.0-58.0"}}, {"uniqueid": "MTK0501:3EA3QWIZ4J2G38ZJBQCKMAM6J5LITC", "current_trial": 77, "dateTime": 1510970191533, "trialdata": {"rt": [2588, 5140, 8308, 10444], "responses": ["14", "15", "16", "6"], "num1": [4, 4, 4, 1, 2], "num2": [4, 6, 6, 2, 3], "num3": [6, 5, 6, 3, 2], "type": "DISTRACTOR", "conditions": [12, 1600, "a", 12000], "trial": 2, "trial_type": "math-distractor", "trial_index": 77, "time_elapsed": 367599, "internal_node_id": "0.0-59.0"}}, {"uniqueid": "MTK0501:3EA3QWIZ4J2G38ZJBQCKMAM6J5LITC", "current_trial": 78, "dateTime": 1510970194535, "trialdata": {"rt": -1, "stimulus": "<p id=\"stim\">10</p>", "key_press": -1, "trial_type": "single-stim", "trial_index": 78, "time_elapsed": 370601, "internal_node_id": "0.0-60.0-0.0"}}, {"uniqueid": "MTK0501:3EA3QWIZ4J2G38ZJBQCKMAM6J5LITC", "current_trial": 79, "dateTime": 1510970195536, "trialdata": {"rt": -1, "stimulus": "<p id=\"stim\">9</p>", "key_press": -1, "trial_type": "single-stim", "trial_index": 79, "time_elapsed": 371602, "internal_node_id": "0.0-60.0-1.0"}}, {"uniqueid": "MTK0501:3EA3QWIZ4J2G38ZJBQCKMAM6J5LITC", "current_trial": 80, "dateTime": 1510970196538, "trialdata": {"rt": -1, "stimulus": "<p id=\"stim\">8</p>", "key_press": -1, "trial_type": "single-stim", "trial_index": 80, "time_elapsed": 372604, "internal_node_id": "0.0-60.0-2.0"}}, {"uniqueid": "MTK0501:3EA3QWIZ4J2G38ZJBQCKMAM6J5LITC", "current_trial": 81, "dateTime": 1510970197539, "trialdata": {"rt": -1, "stimulus": "<p id=\"stim\">7</p>", "key_press": -1, "trial_type": "single-stim", "trial_index": 81, "time_elapsed": 373605, "internal_node_id": "0.0-60.0-3.0"}}, {"uniqueid": "MTK0501:3EA3QWIZ4J2G38ZJBQCKMAM6J5LITC", "current_trial": 82, "dateTime": 1510970198540, "trialdata": {"rt": -1, "stimulus": "<p id=\"stim\">6</p>", "key_press": -1, "trial_type": "single-stim", "trial_index": 82, "time_elapsed": 374606, "internal_node_id": "0.0-60.0-4.0"}}, {"uniqueid": "MTK0501:3EA3QWIZ4J2G38ZJBQCKMAM6J5LITC", "current_trial": 83, "dateTime": 1510970199541, "trialdata": {"rt": -1, "stimulus": "<p id=\"stim\">5</p>", "key_press": -1, "trial_type": "single-stim", "trial_index": 83, "time_elapsed": 375607, "internal_node_id": "0.0-60.0-5.0"}}, {"uniqueid": "MTK0501:3EA3QWIZ4J2G38ZJBQCKMAM6J5LITC", "current_trial": 84, "dateTime": 1510970200542, "trialdata": {"rt": -1, "stimulus": "<p id=\"stim\">4</p>", "key_press": -1, "trial_type": "single-stim", "trial_index": 84, "time_elapsed": 376608, "internal_node_id": "0.0-60.0-6.0"}}, {"uniqueid": "MTK0501:3EA3QWIZ4J2G38ZJBQCKMAM6J5LITC", "current_trial": 85, "dateTime": 1510970201543, "trialdata": {"rt": -1, "stimulus": "<p id=\"stim\">3</p>", "key_press": -1, "trial_type": "single-stim", "trial_index": 85, "time_elapsed": 377609, "internal_node_id": "0.0-60.0-7.0"}}, {"uniqueid": "MTK0501:3EA3QWIZ4J2G38ZJBQCKMAM6J5LITC", "current_trial": 86, "dateTime": 1510970202544, "trialdata": {"rt": -1, "stimulus": "<p id=\"stim\">2</p>", "key_press": -1, "trial_type": "single-stim", "trial_index": 86, "time_elapsed": 378610, "internal_node_id": "0.0-60.0-8.0"}}, {"uniqueid": "MTK0501:3EA3QWIZ4J2G38ZJBQCKMAM6J5LITC", "current_trial": 87, "dateTime": 1510970203545, "trialdata": {"rt": -1, "stimulus": "<p id=\"stim\">1</p>", "key_press": -1, "trial_type": "single-stim", "trial_index": 87, "time_elapsed": 379611, "internal_node_id": "0.0-60.0-9.0"}}, {"uniqueid": "MTK0501:3EA3QWIZ4J2G38ZJBQCKMAM6J5LITC", "current_trial": 88, "dateTime": 1510970205046, "trialdata": {"rt": -1, "stimulus": "<p id=\"stim\">+</p>", "key_press": -1, "type": "FIXATION", "trial_type": "single-stim", "trial_index": 88, "time_elapsed": 381112, "internal_node_id": "0.0-61.0-0.0"}}, {"uniqueid": "MTK0501:3EA3QWIZ4J2G38ZJBQCKMAM6J5LITC", "current_trial": 89, "dateTime": 1510970207668, "trialdata": {"rt": -1000, "stimulus": "/static/audio/wordpool/WOMAN.wav", "key_press": -1, "type": "PRES_AUD", "word": "woman", "wordID": 1619, "conditions": [12, 1600, "a", 12000], "trial": 2, "serialpos": 0, "trial_type": "single-audio", "trial_index": 89, "time_elapsed": 383734, "internal_node_id": "0.0-62.0"}}, {"uniqueid": "MTK0501:3EA3QWIZ4J2G38ZJBQCKMAM6J5LITC", "current_trial": 90, "dateTime": 1510970210294, "trialdata": {"rt": -1000, "stimulus": "/static/audio/wordpool/CROWN.wav", "key_press": -1, "type": "PRES_AUD", "word": "crown", "wordID": 414, "conditions": [12, 1600, "a", 12000], "trial": 2, "serialpos": 1, "trial_type": "single-audio", "trial_index": 90, "time_elapsed": 386360, "internal_node_id": "0.0-63.0"}}, {"uniqueid": "MTK0501:3EA3QWIZ4J2G38ZJBQCKMAM6J5LITC", "current_trial": 91, "dateTime": 1510970212796, "trialdata": {"rt": -1000, "stimulus": "/static/audio/wordpool/PUPPY.wav", "key_press": -1, "type": "PRES_AUD", "word": "puppy", "wordID": 1143, "conditions": [12, 1600, "a", 12000], "trial": 2, "serialpos": 2, "trial_type": "single-audio", "trial_index": 91, "time_elapsed": 388862, "internal_node_id": "0.0-64.0"}}, {"uniqueid": "MTK0501:3EA3QWIZ4J2G38ZJBQCKMAM6J5LITC", "current_trial": 92, "dateTime": 1510970215332, "trialdata": {"rt": -1000, "stimulus": "/static/audio/wordpool/BUNNY.wav", "key_press": -1, "type": "PRES_AUD", "word": "bunny", "wordID": 197, "conditions": [12, 1600, "a", 12000], "trial": 2, "serialpos": 3, "trial_type": "single-audio", "trial_index": 92, "time_elapsed": 391398, "internal_node_id": "0.0-65.0"}}, {"uniqueid": "MTK0501:3EA3QWIZ4J2G38ZJBQCKMAM6J5LITC", "current_trial": 93, "dateTime": 1510970217797, "trialdata": {"rt": -1000, "stimulus": "/static/audio/wordpool/AGENT.wav", "key_press": -1, "type": "PRES_AUD", "word": "agent", "wordID": 9, "conditions": [12, 1600, "a", 12000], "trial": 2, "serialpos": 4, "trial_type": "single-audio", "trial_index": 93, "time_elapsed": 393863, "internal_node_id": "0.0-66.0"}}, {"uniqueid": "MTK0501:3EA3QWIZ4J2G38ZJBQCKMAM6J5LITC", "current_trial": 94, "dateTime": 1510970220372, "trialdata": {"rt": -1000, "stimulus": "/static/audio/wordpool/EXPERT.wav", "key_press": -1, "type": "PRES_AUD", "word": "expert", "wordID": 542, "conditions": [12, 1600, "a", 12000], "trial": 2, "serialpos": 5, "trial_type": "single-audio", "trial_index": 94, "time_elapsed": 396438, "internal_node_id": "0.0-67.0"}}, {"uniqueid": "MTK0501:3EA3QWIZ4J2G38ZJBQCKMAM6J5LITC", "current_trial": 95, "dateTime": 1510970222921, "trialdata": {"rt": -1000, "stimulus": "/static/audio/wordpool/DENIM.wav", "key_press": -1, "type": "PRES_AUD", "word": "denim", "wordID": 445, "conditions": [12, 1600, "a", 12000], "trial": 2, "serialpos": 6, "trial_type": "single-audio", "trial_index": 95, "time_elapsed": 398987, "internal_node_id": "0.0-68.0"}}, {"uniqueid": "MTK0501:3EA3QWIZ4J2G38ZJBQCKMAM6J5LITC", "current_trial": 96, "dateTime": 1510970225599, "trialdata": {"rt": -1000, "stimulus": "/static/audio/wordpool/BLADE.wav", "key_press": -1, "type": "PRES_AUD", "word": "blade", "wordID": 133, "conditions": [12, 1600, "a", 12000], "trial": 2, "serialpos": 7, "trial_type": "single-audio", "trial_index": 96, "time_elapsed": 401665, "internal_node_id": "0.0-69.0"}}, {"uniqueid": "MTK0501:3EA3QWIZ4J2G38ZJBQCKMAM6J5LITC", "current_trial": 97, "dateTime": 1510970228341, "trialdata": {"rt": -1000, "stimulus": "/static/audio/wordpool/LOFT.wav", "key_press": -1, "type": "PRES_AUD", "word": "loft", "wordID": 839, "conditions": [12, 1600, "a", 12000], "trial": 2, "serialpos": 8, "trial_type": "single-audio", "trial_index": 97, "time_elapsed": 404407, "internal_node_id": "0.0-70.0"}}, {"uniqueid": "MTK0501:3EA3QWIZ4J2G38ZJBQCKMAM6J5LITC", "current_trial": 98, "dateTime": 1510970230880, "trialdata": {"rt": -1000, "stimulus": "/static/audio/wordpool/CATCHER.wav", "key_press": -1, "type": "PRES_AUD", "word": "catcher", "wordID": 257, "conditions": [12, 1600, "a", 12000], "trial": 2, "serialpos": 9, "trial_type": "single-audio", "trial_index": 98, "time_elapsed": 406946, "internal_node_id": "0.0-71.0"}}, {"uniqueid": "MTK0501:3EA3QWIZ4J2G38ZJBQCKMAM6J5LITC", "current_trial": 99, "dateTime": 1510970233350, "trialdata": {"rt": -1000, "stimulus": "/static/audio/wordpool/RAZOR.wav", "key_press": -1, "type": "PRES_AUD", "word": "razor", "wordID": 1170, "conditions": [12, 1600, "a", 12000], "trial": 2, "serialpos": 10, "trial_type": "single-audio", "trial_index": 99, "time_elapsed": 409416, "internal_node_id": "0.0-72.0"}}, {"uniqueid": "MTK0501:3EA3QWIZ4J2G38ZJBQCKMAM6J5LITC", "current_trial": 100, "dateTime": 1510970235849, "trialdata": {"rt": -1000, "stimulus": "/static/audio/wordpool/GYMNAST.wav", "key_press": -1, "type": "PRES_AUD", "word": "gymnast", "wordID": 674, "conditions": [12, 1600, "a", 12000], "trial": 2, "serialpos": 11, "trial_type": "single-audio", "trial_index": 100, "time_elapsed": 411915, "internal_node_id": "0.0-73.0"}}, {"uniqueid": "MTK0501:3EA3QWIZ4J2G38ZJBQCKMAM6J5LITC", "current_trial": 101, "dateTime": 1510970237092, "trialdata": {"rt": -1, "stimulus": "", "key_press": -1, "type": "PRE_RECALL_DELAY", "trial_type": "single-stim", "trial_index": 101, "time_elapsed": 413158, "internal_node_id": "0.0-74.0-0.0"}}, {"uniqueid": "MTK0501:3EA3QWIZ4J2G38ZJBQCKMAM6J5LITC", "current_trial": 102, "dateTime": 1510970237593, "trialdata": {"rt": -1000, "stimulus": "/static/audio/400Hz.wav", "key_press": -1, "type": "PRE_RECALL_ALERT", "trial_type": "single-audio", "trial_index": 102, "time_elapsed": 413659, "internal_node_id": "0.0-75.0"}}, {"uniqueid": "MTK0501:3EA3QWIZ4J2G38ZJBQCKMAM6J5LITC", "current_trial": 103, "dateTime": 1510970297597, "trialdata": {"rt": [5654, 8350, 10926, 14095, 17286, 20190, 23822, 25038], "recwords": ["gymnist", "razor", "catcher", "blade", "denim", "expert", "bunny", "women"], "type": "FREE_RECALL", "conditions": [12, 1600, "a", 12000], "trial": 2, "trial_type": "free-recall", "trial_index": 103, "time_elapsed": 473661, "internal_node_id": "0.0-76.0-0.0"}}, {"uniqueid": "MTK0501:3EA3QWIZ4J2G38ZJBQCKMAM6J5LITC", "current_trial": 104, "dateTime": 1510970300760, "trialdata": {"rt": 1162, "key_press": 13, "type": "INSTRUCTIONS", "trial_type": "text", "trial_index": 104, "time_elapsed": 476826, "internal_node_id": "0.0-77.0"}}, {"uniqueid": "MTK0501:3EA3QWIZ4J2G38ZJBQCKMAM6J5LITC", "current_trial": 105, "dateTime": 1510970314763, "trialdata": {"rt": [2063, 4366, 8190, 10542], "responses": ["15", "17", "21", "16"], "num1": [3, 5, 6, 4, 1], "num2": [3, 3, 8, 6, 2], "num3": [9, 9, 7, 6, 7], "type": "DISTRACTOR", "conditions": [24, 1600, "v", 12000], "trial": 3, "trial_type": "math-distractor", "trial_index": 105, "time_elapsed": 490829, "internal_node_id": "0.0-78.0"}}, {"uniqueid": "MTK0501:3EA3QWIZ4J2G38ZJBQCKMAM6J5LITC", "current_trial": 106, "dateTime": 1510970317765, "trialdata": {"rt": -1, "stimulus": "<p id=\"stim\">10</p>", "key_press": -1, "trial_type": "single-stim", "trial_index": 106, "time_elapsed": 493831, "internal_node_id": "0.0-79.0-0.0"}}, {"uniqueid": "MTK0501:3EA3QWIZ4J2G38ZJBQCKMAM6J5LITC", "current_trial": 107, "dateTime": 1510970318767, "trialdata": {"rt": -1, "stimulus": "<p id=\"stim\">9</p>", "key_press": -1, "trial_type": "single-stim", "trial_index": 107, "time_elapsed": 494833, "internal_node_id": "0.0-79.0-1.0"}}, {"uniqueid": "MTK0501:3EA3QWIZ4J2G38ZJBQCKMAM6J5LITC", "current_trial": 108, "dateTime": 1510970319768, "trialdata": {"rt": -1, "stimulus": "<p id=\"stim\">8</p>", "key_press": -1, "trial_type": "single-stim", "trial_index": 108, "time_elapsed": 495834, "internal_node_id": "0.0-79.0-2.0"}}, {"uniqueid": "MTK0501:3EA3QWIZ4J2G38ZJBQCKMAM6J5LITC", "current_trial": 109, "dateTime": 1510970320769, "trialdata": {"rt": -1, "stimulus": "<p id=\"stim\">7</p>", "key_press": -1, "trial_type": "single-stim", "trial_index": 109, "time_elapsed": 496835, "internal_node_id": "0.0-79.0-3.0"}}, {"uniqueid": "MTK0501:3EA3QWIZ4J2G38ZJBQCKMAM6J5LITC", "current_trial": 110, "dateTime": 1510970321770, "trialdata": {"rt": -1, "stimulus": "<p id=\"stim\">6</p>", "key_press": -1, "trial_type": "single-stim", "trial_index": 110, "time_elapsed": 497836, "internal_node_id": "0.0-79.0-4.0"}}, {"uniqueid": "MTK0501:3EA3QWIZ4J2G38ZJBQCKMAM6J5LITC", "current_trial": 111, "dateTime": 1510970322771, "trialdata": {"rt": -1, "stimulus": "<p id=\"stim\">5</p>", "key_press": -1, "trial_type": "single-stim", "trial_index": 111, "time_elapsed": 498837, "internal_node_id": "0.0-79.0-5.0"}}, {"uniqueid": "MTK0501:3EA3QWIZ4J2G38ZJBQCKMAM6J5LITC", "current_trial": 112, "dateTime": 1510970323772, "trialdata": {"rt": -1, "stimulus": "<p id=\"stim\">4</p>", "key_press": -1, "trial_type": "single-stim", "trial_index": 112, "time_elapsed": 499838, "internal_node_id": "0.0-79.0-6.0"}}, {"uniqueid": "MTK0501:3EA3QWIZ4J2G38ZJBQCKMAM6J5LITC", "current_trial": 113, "dateTime": 1510970324773, "trialdata": {"rt": -1, "stimulus": "<p id=\"stim\">3</p>", "key_press": -1, "trial_type": "single-stim", "trial_index": 113, "time_elapsed": 500839, "internal_node_id": "0.0-79.0-7.0"}}, {"uniqueid": "MTK0501:3EA3QWIZ4J2G38ZJBQCKMAM6J5LITC", "current_trial": 114, "dateTime": 1510970325774, "trialdata": {"rt": -1, "stimulus": "<p id=\"stim\">2</p>", "key_press": -1, "trial_type": "single-stim", "trial_index": 114, "time_elapsed": 501840, "internal_node_id": "0.0-79.0-8.0"}}, {"uniqueid": "MTK0501:3EA3QWIZ4J2G38ZJBQCKMAM6J5LITC", "current_trial": 115, "dateTime": 1510970326775, "trialdata": {"rt": -1, "stimulus": "<p id=\"stim\">1</p>", "key_press": -1, "trial_type": "single-stim", "trial_index": 115, "time_elapsed": 502841, "internal_node_id": "0.0-79.0-9.0"}}, {"uniqueid": "MTK0501:3EA3QWIZ4J2G38ZJBQCKMAM6J5LITC", "current_trial": 116, "dateTime": 1510970328276, "trialdata": {"rt": -1, "stimulus": "<p id=\"stim\">+</p>", "key_press": -1, "type": "FIXATION", "trial_type": "single-stim", "trial_index": 116, "time_elapsed": 504342, "internal_node_id": "0.0-80.0-0.0"}}, {"uniqueid": "MTK0501:3EA3QWIZ4J2G38ZJBQCKMAM6J5LITC", "current_trial": 117, "dateTime": 1510970329877, "trialdata": {"rt": -1, "stimulus": "<p id=\"stim\">PATROL</p>", "key_press": -1, "type": "PRES_VIS", "word": "patrol", "wordID": 1026, "conditions": [24, 1600, "v", 12000], "trial": 3, "serialpos": 0, "trial_type": "single-stim", "trial_index": 117, "time_elapsed": 505943, "internal_node_id": "0.0-81.0"}}, {"uniqueid": "MTK0501:3EA3QWIZ4J2G38ZJBQCKMAM6J5LITC", "current_trial": 118, "dateTime": 1510970332569, "trialdata": {"rt": -1, "stimulus": "<p id=\"stim\">JELLO</p>", "key_press": -1, "type": "PRES_VIS", "word": "jello", "wordID": 753, "conditions": [24, 1600, "v", 12000], "trial": 3, "serialpos": 1, "trial_type": "single-stim", "trial_index": 118, "time_elapsed": 508635, "internal_node_id": "0.0-82.0"}}, {"uniqueid": "MTK0501:3EA3QWIZ4J2G38ZJBQCKMAM6J5LITC", "current_trial": 119, "dateTime": 1510970335340, "trialdata": {"rt": -1, "stimulus": "<p id=\"stim\">BARREL</p>", "key_press": -1, "type": "PRES_VIS", "word": "barrel", "wordID": 90, "conditions": [24, 1600, "v", 12000], "trial": 3, "serialpos": 2, "trial_type": "single-stim", "trial_index": 119, "time_elapsed": 511406, "internal_node_id": "0.0-83.0"}}, {"uniqueid": "MTK0501:3EA3QWIZ4J2G38ZJBQCKMAM6J5LITC", "current_trial": 120, "dateTime": 1510970337852, "trialdata": {"rt": -1, "stimulus": "<p id=\"stim\">BASEMENT</p>", "key_press": -1, "type": "PRES_VIS", "word": "basement", "wordID": 93, "conditions": [24, 1600, "v", 12000], "trial": 3, "serialpos": 3, "trial_type": "single-stim", "trial_index": 120, "time_elapsed": 513918, "internal_node_id": "0.0-84.0"}}, {"uniqueid": "MTK0501:3EA3QWIZ4J2G38ZJBQCKMAM6J5LITC", "current_trial": 121, "dateTime": 1510970340327, "trialdata": {"rt": -1, "stimulus": "<p id=\"stim\">WORLD</p>", "key_press": -1, "type": "PRES_VIS", "word": "world", "wordID": 1621, "conditions": [24, 1600, "v", 12000], "trial": 3, "serialpos": 4, "trial_type": "single-stim", "trial_index": 121, "time_elapsed": 516393, "internal_node_id": "0.0-85.0"}}, {"uniqueid": "MTK0501:3EA3QWIZ4J2G38ZJBQCKMAM6J5LITC", "current_trial": 122, "dateTime": 1510970342758, "trialdata": {"rt": -1, "stimulus": "<p id=\"stim\">WINDOW</p>", "key_press": -1, "type": "PRES_VIS", "word": "window", "wordID": 1610, "conditions": [24, 1600, "v", 12000], "trial": 3, "serialpos": 5, "trial_type": "single-stim", "trial_index": 122, "time_elapsed": 518824, "internal_node_id": "0.0-86.0"}}, {"uniqueid": "MTK0501:3EA3QWIZ4J2G38ZJBQCKMAM6J5LITC", "current_trial": 123, "dateTime": 1510970345188, "trialdata": {"rt": -1, "stimulus": "<p id=\"stim\">POLICE</p>", "key_press": -1, "type": "PRES_VIS", "word": "police", "wordID": 1097, "conditions": [24, 1600, "v", 12000], "trial": 3, "serialpos": 6, "trial_type": "single-stim", "trial_index": 123, "time_elapsed": 521254, "internal_node_id": "0.0-87.0"}}, {"uniqueid": "MTK0501:3EA3QWIZ4J2G38ZJBQCKMAM6J5LITC", "current_trial": 124, "dateTime": 1510970347907, "trialdata": {"rt": -1, "stimulus": "<p id=\"stim\">OFFICE</p>", "key_press": -1, "type": "PRES_VIS", "word": "office", "wordID": 971, "conditions": [24, 1600, "v", 12000], "trial": 3, "serialpos": 7, "trial_type": "single-stim", "trial_index": 124, "time_elapsed": 523973, "internal_node_id": "0.0-88.0"}}, {"uniqueid": "MTK0501:3EA3QWIZ4J2G38ZJBQCKMAM6J5LITC", "current_trial": 125, "dateTime": 1510970350534, "trialdata": {"rt": -1, "stimulus": "<p id=\"stim\">SEAL</p>", "key_press": -1, "type": "PRES_VIS", "word": "seal", "wordID": 1261, "conditions": [24, 1600, "v", 12000], "trial": 3, "serialpos": 8, "trial_type": "single-stim", "trial_index": 125, "time_elapsed": 526600, "internal_node_id": "0.0-89.0"}}, {"uniqueid": "MTK0501:3EA3QWIZ4J2G38ZJBQCKMAM6J5LITC", "current_trial": 126, "dateTime": 1510970352939, "trialdata": {"rt": -1, "stimulus": "<p id=\"stim\">DOLPHIN</p>", "key_press": -1, "type": "PRES_VIS", "word": "dolphin", "wordID": 482, "conditions": [24, 1600, "v", 12000], "trial": 3, "serialpos": 9, "trial_type": "single-stim", "trial_index": 126, "time_elapsed": 529005, "internal_node_id": "0.0-90.0"}}, {"uniqueid": "MTK0501:3EA3QWIZ4J2G38ZJBQCKMAM6J5LITC", "current_trial": 127, "dateTime": 1510970355463, "trialdata": {"rt": -1, "stimulus": "<p id=\"stim\">STOVE</p>", "key_press": -1, "type": "PRES_VIS", "word": "stove", "wordID": 1387, "conditions": [24, 1600, "v", 12000], "trial": 3, "serialpos": 10, "trial_type": "single-stim", "trial_index": 127, "time_elapsed": 531529, "internal_node_id": "0.0-91.0"}}, {"uniqueid": "MTK0501:3EA3QWIZ4J2G38ZJBQCKMAM6J5LITC", "current_trial": 128, "dateTime": 1510970358161, "trialdata": {"rt": -1, "stimulus": "<p id=\"stim\">TOASTER</p>", "key_press": -1, "type": "PRES_VIS", "word": "toaster", "wordID": 1471, "conditions": [24, 1600, "v", 12000], "trial": 3, "serialpos": 11, "trial_type": "single-stim", "trial_index": 128, "time_elapsed": 534227, "internal_node_id": "0.0-92.0"}}, {"uniqueid": "MTK0501:3EA3QWIZ4J2G38ZJBQCKMAM6J5LITC", "current_trial": 129, "dateTime": 1510970360899, "trialdata": {"rt": -1, "stimulus": "<p id=\"stim\">MAILBOX</p>", "key_press": -1, "type": "PRES_VIS", "word": "mailbox", "wordID": 856, "conditions": [24, 1600, "v", 12000], "trial": 3, "serialpos": 12, "trial_type": "single-stim", "trial_index": 129, "time_elapsed": 536965, "internal_node_id": "0.0-93.0"}}, {"uniqueid": "MTK0501:3EA3QWIZ4J2G38ZJBQCKMAM6J5LITC", "current_trial": 130, "dateTime": 1510970363628, "trialdata": {"rt": -1, "stimulus": "<p id=\"stim\">MAILMAN</p>", "key_press": -1, "type": "PRES_VIS", "word": "mailman", "wordID": 857, "conditions": [24, 1600, "v", 12000], "trial": 3, "serialpos": 13, "trial_type": "single-stim", "trial_index": 130, "time_elapsed": 539694, "internal_node_id": "0.0-94.0"}}, {"uniqueid": "MTK0501:3EA3QWIZ4J2G38ZJBQCKMAM6J5LITC", "current_trial": 131, "dateTime": 1510970366212, "trialdata": {"rt": -1, "stimulus": "<p id=\"stim\">STICKER</p>", "key_press": -1, "type": "PRES_VIS", "word": "sticker", "wordID": 1381, "conditions": [24, 1600, "v", 12000], "trial": 3, "serialpos": 14, "trial_type": "single-stim", "trial_index": 131, "time_elapsed": 542278, "internal_node_id": "0.0-95.0"}}, {"uniqueid": "MTK0501:3EA3QWIZ4J2G38ZJBQCKMAM6J5LITC", "current_trial": 132, "dateTime": 1510970368917, "trialdata": {"rt": -1, "stimulus": "<p id=\"stim\">ACTOR</p>", "key_press": -1, "type": "PRES_VIS", "word": "actor", "wordID": 4, "conditions": [24, 1600, "v", 12000], "trial": 3, "serialpos": 15, "trial_type": "single-stim", "trial_index": 132, "time_elapsed": 544983, "internal_node_id": "0.0-96.0"}}, {"uniqueid": "MTK0501:3EA3QWIZ4J2G38ZJBQCKMAM6J5LITC", "current_trial": 133, "dateTime": 1510970371396, "trialdata": {"rt": -1, "stimulus": "<p id=\"stim\">SPIDER</p>", "key_press": -1, "type": "PRES_VIS", "word": "spider", "wordID": 1350, "conditions": [24, 1600, "v", 12000], "trial": 3, "serialpos": 16, "trial_type": "single-stim", "trial_index": 133, "time_elapsed": 547462, "internal_node_id": "0.0-97.0"}}, {"uniqueid": "MTK0501:3EA3QWIZ4J2G38ZJBQCKMAM6J5LITC", "current_trial": 134, "dateTime": 1510970373916, "trialdata": {"rt": -1, "stimulus": "<p id=\"stim\">CYCLONE</p>", "key_press": -1, "type": "PRES_VIS", "word": "cyclone", "wordID": 430, "conditions": [24, 1600, "v", 12000], "trial": 3, "serialpos": 17, "trial_type": "single-stim", "trial_index": 134, "time_elapsed": 549982, "internal_node_id": "0.0-98.0"}}, {"uniqueid": "MTK0501:3EA3QWIZ4J2G38ZJBQCKMAM6J5LITC", "current_trial": 135, "dateTime": 1510970376338, "trialdata": {"rt": -1, "stimulus": "<p id=\"stim\">HUSBAND</p>", "key_press": -1, "type": "PRES_VIS", "word": "husband", "wordID": 727, "conditions": [24, 1600, "v", 12000], "trial": 3, "serialpos": 18, "trial_type": "single-stim", "trial_index": 135, "time_elapsed": 552404, "internal_node_id": "0.0-99.0"}}, {"uniqueid": "MTK0501:3EA3QWIZ4J2G38ZJBQCKMAM6J5LITC", "current_trial": 136, "dateTime": 1510970379019, "trialdata": {"rt": -1, "stimulus": "<p id=\"stim\">LABEL</p>", "key_press": -1, "type": "PRES_VIS", "word": "label", "wordID": 789, "conditions": [24, 1600, "v", 12000], "trial": 3, "serialpos": 19, "trial_type": "single-stim", "trial_index": 136, "time_elapsed": 555085, "internal_node_id": "0.0-100.0"}}, {"uniqueid": "MTK0501:3EA3QWIZ4J2G38ZJBQCKMAM6J5LITC", "current_trial": 137, "dateTime": 1510970381798, "trialdata": {"rt": -1, "stimulus": "<p id=\"stim\">FILM</p>", "key_press": -1, "type": "PRES_VIS", "word": "film", "wordID": 564, "conditions": [24, 1600, "v", 12000], "trial": 3, "serialpos": 20, "trial_type": "single-stim", "trial_index": 137, "time_elapsed": 557864, "internal_node_id": "0.0-101.0"}}, {"uniqueid": "MTK0501:3EA3QWIZ4J2G38ZJBQCKMAM6J5LITC", "current_trial": 138, "dateTime": 1510970384262, "trialdata": {"rt": -1, "stimulus": "<p id=\"stim\">HANDBAG</p>", "key_press": -1, "type": "PRES_VIS", "word": "handbag", "wordID": 683, "conditions": [24, 1600, "v", 12000], "trial": 3, "serialpos": 21, "trial_type": "single-stim", "trial_index": 138, "time_elapsed": 560328, "internal_node_id": "0.0-102.0"}}, {"uniqueid": "MTK0501:3EA3QWIZ4J2G38ZJBQCKMAM6J5LITC", "current_trial": 139, "dateTime": 1510970386897, "trialdata": {"rt": -1, "stimulus": "<p id=\"stim\">LUGGAGE</p>", "key_press": -1, "type": "PRES_VIS", "word": "luggage", "wordID": 846, "conditions": [24, 1600, "v", 12000], "trial": 3, "serialpos": 22, "trial_type": "single-stim", "trial_index": 139, "time_elapsed": 562963, "internal_node_id": "0.0-103.0"}}, {"uniqueid": "MTK0501:3EA3QWIZ4J2G38ZJBQCKMAM6J5LITC", "current_trial": 140, "dateTime": 1510970389299, "trialdata": {"rt": -1, "stimulus": "<p id=\"stim\">TRENCH</p>", "key_press": -1, "type": "PRES_VIS", "word": "trench", "wordID": 1502, "conditions": [24, 1600, "v", 12000], "trial": 3, "serialpos": 23, "trial_type": "single-stim", "trial_index": 140, "time_elapsed": 565365, "internal_node_id": "0.0-104.0"}}, {"uniqueid": "MTK0501:3EA3QWIZ4J2G38ZJBQCKMAM6J5LITC", "current_trial": 141, "dateTime": 1510970391672, "trialdata": {"rt": -1, "stimulus": "", "key_press": -1, "type": "PRE_RECALL_DELAY", "trial_type": "single-stim", "trial_index": 141, "time_elapsed": 567737, "internal_node_id": "0.0-105.0-0.0"}}, {"uniqueid": "MTK0501:3EA3QWIZ4J2G38ZJBQCKMAM6J5LITC", "current_trial": 142, "dateTime": 1510970392173, "trialdata": {"rt": -1000, "stimulus": "/static/audio/400Hz.wav", "key_press": -1, "type": "PRE_RECALL_ALERT", "trial_type": "single-audio", "trial_index": 142, "time_elapsed": 568239, "internal_node_id": "0.0-106.0"}}, {"uniqueid": "MTK0501:3EA3QWIZ4J2G38ZJBQCKMAM6J5LITC", "current_trial": 143, "dateTime": 1510970452177, "trialdata": {"rt": [3529, 8905, 13025, 14538, 20098, 23505, 27897, 31161], "recwords": ["trench", "husband", "film", "actor", "dolphin", "window", "barrel", "jello"], "type": "FREE_RECALL", "conditions": [24, 1600, "v", 12000], "trial": 3, "trial_type": "free-recall", "trial_index": 143, "time_elapsed": 628242, "internal_node_id": "0.0-107.0-0.0"}}, {"uniqueid": "MTK0501:3EA3QWIZ4J2G38ZJBQCKMAM6J5LITC", "current_trial": 144, "dateTime": 1510970463289, "trialdata": {"rt": 9111, "key_press": 13, "type": "INSTRUCTIONS", "trial_type": "text", "trial_index": 144, "time_elapsed": 639355, "internal_node_id": "0.0-108.0"}}, {"uniqueid": "MTK0501:3EA3QWIZ4J2G38ZJBQCKMAM6J5LITC", "current_trial": 145, "dateTime": 1510970477292, "trialdata": {"rt": [4798, 7918, 10678], "responses": ["25", "20", "17"], "num1": [8, 4, 4, 2], "num2": [9, 7, 4, 4], "num3": [7, 9, 9, 8], "type": "DISTRACTOR", "conditions": [12, 800, "v", 12000], "trial": 4, "trial_type": "math-distractor", "trial_index": 145, "time_elapsed": 653358, "internal_node_id": "0.0-109.0"}}, {"uniqueid": "MTK0501:3EA3QWIZ4J2G38ZJBQCKMAM6J5LITC", "current_trial": 146, "dateTime": 1510970480294, "trialdata": {"rt": -1, "stimulus": "<p id=\"stim\">10</p>", "key_press": -1, "trial_type": "single-stim", "trial_index": 146, "time_elapsed": 656360, "internal_node_id": "0.0-110.0-0.0"}}, {"uniqueid": "MTK0501:3EA3QWIZ4J2G38ZJBQCKMAM6J5LITC", "current_trial": 147, "dateTime": 1510970481295, "trialdata": {"rt": -1, "stimulus": "<p id=\"stim\">9</p>", "key_press": -1, "trial_type": "single-stim", "trial_index": 147, "time_elapsed": 657361, "internal_node_id": "0.0-110.0-1.0"}}, {"uniqueid": "MTK0501:3EA3QWIZ4J2G38ZJBQCKMAM6J5LITC", "current_trial": 148, "dateTime": 1510970482296, "trialdata": {"rt": -1, "stimulus": "<p id=\"stim\">8</p>", "key_press": -1, "trial_type": "single-stim", "trial_index": 148, "time_elapsed": 658362, "internal_node_id": "0.0-110.0-2.0"}}, {"uniqueid": "MTK0501:3EA3QWIZ4J2G38ZJBQCKMAM6J5LITC", "current_trial": 149, "dateTime": 1510970483297, "trialdata": {"rt": -1, "stimulus": "<p id=\"stim\">7</p>", "key_press": -1, "trial_type": "single-stim", "trial_index": 149, "time_elapsed": 659362, "internal_node_id": "0.0-110.0-3.0"}}, {"uniqueid": "MTK0501:3EA3QWIZ4J2G38ZJBQCKMAM6J5LITC", "current_trial": 150, "dateTime": 1510970484298, "trialdata": {"rt": -1, "stimulus": "<p id=\"stim\">6</p>", "key_press": -1, "trial_type": "single-stim", "trial_index": 150, "time_elapsed": 660364, "internal_node_id": "0.0-110.0-4.0"}}, {"uniqueid": "MTK0501:3EA3QWIZ4J2G38ZJBQCKMAM6J5LITC", "current_trial": 151, "dateTime": 1510970485299, "trialdata": {"rt": -1, "stimulus": "<p id=\"stim\">5</p>", "key_press": -1, "trial_type": "single-stim", "trial_index": 151, "time_elapsed": 661365, "internal_node_id": "0.0-110.0-5.0"}}, {"uniqueid": "MTK0501:3EA3QWIZ4J2G38ZJBQCKMAM6J5LITC", "current_trial": 152, "dateTime": 1510970486300, "trialdata": {"rt": -1, "stimulus": "<p id=\"stim\">4</p>", "key_press": -1, "trial_type": "single-stim", "trial_index": 152, "time_elapsed": 662366, "internal_node_id": "0.0-110.0-6.0"}}, {"uniqueid": "MTK0501:3EA3QWIZ4J2G38ZJBQCKMAM6J5LITC", "current_trial": 153, "dateTime": 1510970487301, "trialdata": {"rt": -1, "stimulus": "<p id=\"stim\">3</p>", "key_press": -1, "trial_type": "single-stim", "trial_index": 153, "time_elapsed": 663367, "internal_node_id": "0.0-110.0-7.0"}}, {"uniqueid": "MTK0501:3EA3QWIZ4J2G38ZJBQCKMAM6J5LITC", "current_trial": 154, "dateTime": 1510970488302, "trialdata": {"rt": -1, "stimulus": "<p id=\"stim\">2</p>", "key_press": -1, "trial_type": "single-stim", "trial_index": 154, "time_elapsed": 664368, "internal_node_id": "0.0-110.0-8.0"}}, {"uniqueid": "MTK0501:3EA3QWIZ4J2G38ZJBQCKMAM6J5LITC", "current_trial": 155, "dateTime": 1510970489303, "trialdata": {"rt": -1, "stimulus": "<p id=\"stim\">1</p>", "key_press": -1, "trial_type": "single-stim", "trial_index": 155, "time_elapsed": 665369, "internal_node_id": "0.0-110.0-9.0"}}, {"uniqueid": "MTK0501:3EA3QWIZ4J2G38ZJBQCKMAM6J5LITC", "current_trial": 156, "dateTime": 1510970490804, "trialdata": {"rt": -1, "stimulus": "<p id=\"stim\">+</p>", "key_press": -1, "type": "FIXATION", "trial_type": "single-stim", "trial_index": 156, "time_elapsed": 666870, "internal_node_id": "0.0-111.0-0.0"}}, {"uniqueid": "MTK0501:3EA3QWIZ4J2G38ZJBQCKMAM6J5LITC", "current_trial": 157, "dateTime": 1510970491605, "trialdata": {"rt": -1, "stimulus": "<p id=\"stim\">TRUCK</p>", "key_press": -1, "type": "PRES_VIS", "word": "truck", "wordID": 1511, "conditions": [12, 800, "v", 12000], "trial": 4, "serialpos": 0, "trial_type": "single-stim", "trial_index": 157, "time_elapsed": 667671, "internal_node_id": "0.0-112.0"}}, {"uniqueid": "MTK0501:3EA3QWIZ4J2G38ZJBQCKMAM6J5LITC", "current_trial": 158, "dateTime": 1510970493592, "trialdata": {"rt": -1, "stimulus": "<p id=\"stim\">COUSIN</p>", "key_press": -1, "type": "PRES_VIS", "word": "cousin", "wordID": 391, "conditions": [12, 800, "v", 12000], "trial": 4, "serialpos": 1, "trial_type": "single-stim", "trial_index": 158, "time_elapsed": 669658, "internal_node_id": "0.0-113.0"}}, {"uniqueid": "MTK0501:3EA3QWIZ4J2G38ZJBQCKMAM6J5LITC", "current_trial": 159, "dateTime": 1510970495563, "trialdata": {"rt": -1, "stimulus": "<p id=\"stim\">CARRIAGE</p>", "key_press": -1, "type": "PRES_VIS", "word": "carriage", "wordID": 247, "conditions": [12, 800, "v", 12000], "trial": 4, "serialpos": 2, "trial_type": "single-stim", "trial_index": 159, "time_elapsed": 671629, "internal_node_id": "0.0-114.0"}}, {"uniqueid": "MTK0501:3EA3QWIZ4J2G38ZJBQCKMAM6J5LITC", "current_trial": 160, "dateTime": 1510970497433, "trialdata": {"rt": -1, "stimulus": "<p id=\"stim\">FRIEND</p>", "key_press": -1, "type": "PRES_VIS", "word": "friend", "wordID": 605, "conditions": [12, 800, "v", 12000], "trial": 4, "serialpos": 3, "trial_type": "single-stim", "trial_index": 160, "time_elapsed": 673499, "internal_node_id": "0.0-115.0"}}, {"uniqueid": "MTK0501:3EA3QWIZ4J2G38ZJBQCKMAM6J5LITC", "current_trial": 161, "dateTime": 1510970499342, "trialdata": {"rt": -1, "stimulus": "<p id=\"stim\">BANKER</p>", "key_press": -1, "type": "PRES_VIS", "word": "banker", "wordID": 83, "conditions": [12, 800, "v", 12000], "trial": 4, "serialpos": 4, "trial_type": "single-stim", "trial_index": 161, "time_elapsed": 675408, "internal_node_id": "0.0-116.0"}}, {"uniqueid": "MTK0501:3EA3QWIZ4J2G38ZJBQCKMAM6J5LITC", "current_trial": 162, "dateTime": 1510970501292, "trialdata": {"rt": -1, "stimulus": "<p id=\"stim\">CHILD</p>", "key_press": -1, "type": "PRES_VIS", "word": "child", "wordID": 298, "conditions": [12, 800, "v", 12000], "trial": 4, "serialpos": 5, "trial_type": "single-stim", "trial_index": 162, "time_elapsed": 677358, "internal_node_id": "0.0-117.0"}}, {"uniqueid": "MTK0501:3EA3QWIZ4J2G38ZJBQCKMAM6J5LITC", "current_trial": 163, "dateTime": 1510970502974, "trialdata": {"rt": -1, "stimulus": "<p id=\"stim\">GIRL</p>", "key_press": -1, "type": "PRES_VIS", "word": "girl", "wordID": 636, "conditions": [12, 800, "v", 12000], "trial": 4, "serialpos": 6, "trial_type": "single-stim", "trial_index": 163, "time_elapsed": 679040, "internal_node_id": "0.0-118.0"}}, {"uniqueid": "MTK0501:3EA3QWIZ4J2G38ZJBQCKMAM6J5LITC", "current_trial": 164, "dateTime": 1510970504666, "trialdata": {"rt": -1, "stimulus": "<p id=\"stim\">BEAST</p>", "key_press": -1, "type": "PRES_VIS", "word": "beast", "wordID": 107, "conditions": [12, 800, "v", 12000], "trial": 4, "serialpos": 7, "trial_type": "single-stim", "trial_index": 164, "time_elapsed": 680732, "internal_node_id": "0.0-119.0"}}, {"uniqueid": "MTK0501:3EA3QWIZ4J2G38ZJBQCKMAM6J5LITC", "current_trial": 165, "dateTime": 1510970506572, "trialdata": {"rt": -1, "stimulus": "<p id=\"stim\">SHOULDER</p>", "key_press": -1, "type": "PRES_VIS", "word": "shoulder", "wordID": 1293, "conditions": [12, 800, "v", 12000], "trial": 4, "serialpos": 8, "trial_type": "single-stim", "trial_index": 165, "time_elapsed": 682638, "internal_node_id": "0.0-120.0"}}, {"uniqueid": "MTK0501:3EA3QWIZ4J2G38ZJBQCKMAM6J5LITC", "current_trial": 166, "dateTime": 1510970508213, "trialdata": {"rt": -1, "stimulus": "<p id=\"stim\">GARBAGE</p>", "key_press": -1, "type": "PRES_VIS", "word": "garbage", "wordID": 621, "conditions": [12, 800, "v", 12000], "trial": 4, "serialpos": 9, "trial_type": "single-stim", "trial_index": 166, "time_elapsed": 684279, "internal_node_id": "0.0-121.0"}}, {"uniqueid": "MTK0501:3EA3QWIZ4J2G38ZJBQCKMAM6J5LITC", "current_trial": 167, "dateTime": 1510970509993, "trialdata": {"rt": -1, "stimulus": "<p id=\"stim\">DAUGHTER</p>", "key_press": -1, "type": "PRES_VIS", "word": "daughter", "wordID": 441, "conditions": [12, 800, "v", 12000], "trial": 4, "serialpos": 10, "trial_type": "single-stim", "trial_index": 167, "time_elapsed": 686059, "internal_node_id": "0.0-122.0"}}, {"uniqueid": "MTK0501:3EA3QWIZ4J2G38ZJBQCKMAM6J5LITC", "current_trial": 168, "dateTime": 1510970511689, "trialdata": {"rt": -1, "stimulus": "<p id=\"stim\">SPHINX</p>", "key_press": -1, "type": "PRES_VIS", "word": "sphinx", "wordID": 1348, "conditions": [12, 800, "v", 12000], "trial": 4, "serialpos": 11, "trial_type": "single-stim", "trial_index": 168, "time_elapsed": 687754, "internal_node_id": "0.0-123.0"}}, {"uniqueid": "MTK0501:3EA3QWIZ4J2G38ZJBQCKMAM6J5LITC", "current_trial": 169, "dateTime": 1510970514117, "trialdata": {"rt": -1, "stimulus": "", "key_press": -1, "type": "PRE_RECALL_DELAY", "trial_type": "single-stim", "trial_index": 169, "time_elapsed": 690183, "internal_node_id": "0.0-124.0-0.0"}}, {"uniqueid": "MTK0501:3EA3QWIZ4J2G38ZJBQCKMAM6J5LITC", "current_trial": 170, "dateTime": 1510970514618, "trialdata": {"rt": -1000, "stimulus": "/static/audio/400Hz.wav", "key_press": -1, "type": "PRE_RECALL_ALERT", "trial_type": "single-audio", "trial_index": 170, "time_elapsed": 690684, "internal_node_id": "0.0-125.0"}}, {"uniqueid": "MTK0501:3EA3QWIZ4J2G38ZJBQCKMAM6J5LITC", "current_trial": 171, "dateTime": 1510970574621, "trialdata": {"rt": [3485, 6037, 9213, 14318, 17358, 19630, 21173], "recwords": ["garbage", "beast", "girl", "banker", "carriage", "cousin", "truck"], "type": "FREE_RECALL", "conditions": [12, 800, "v", 12000], "trial": 4, "trial_type": "free-recall", "trial_index": 171, "time_elapsed": 750686, "internal_node_id": "0.0-126.0-0.0"}}, {"uniqueid": "MTK0501:3EA3QWIZ4J2G38ZJBQCKMAM6J5LITC", "current_trial": 172, "dateTime": 1510970577976, "trialdata": {"rt": 1354, "key_press": 13, "type": "INSTRUCTIONS", "trial_type": "text", "trial_index": 172, "time_elapsed": 754042, "internal_node_id": "0.0-127.0"}}, {"uniqueid": "MTK0501:3EA3QWIZ4J2G38ZJBQCKMAM6J5LITC", "current_trial": 173, "dateTime": 1510970603979, "trialdata": {"rt": [3856, 5584, 9208, 11359, 14431, 16535, 18904, 21072], "responses": ["21", "14", "21", "15", "11", "16", "16", "18"], "num1": [7, 2, 9, 3, 4, 9, 6, 9, 6], "num2": [8, 4, 5, 3, 5, 3, 5, 6, 3], "num3": [6, 8, 7, 9, 2, 4, 5, 3, 8], "type": "DISTRACTOR", "conditions": [24, 800, "a", 24000], "trial": 5, "trial_type": "math-distractor", "trial_index": 173, "time_elapsed": 780045, "internal_node_id": "0.0-128.0"}}, {"uniqueid": "MTK0501:3EA3QWIZ4J2G38ZJBQCKMAM6J5LITC", "current_trial": 174, "dateTime": 1510970606981, "trialdata": {"rt": -1, "stimulus": "<p id=\"stim\">10</p>", "key_press": -1, "trial_type": "single-stim", "trial_index": 174, "time_elapsed": 783047, "internal_node_id": "0.0-129.0-0.0"}}, {"uniqueid": "MTK0501:3EA3QWIZ4J2G38ZJBQCKMAM6J5LITC", "current_trial": 175, "dateTime": 1510970607982, "trialdata": {"rt": -1, "stimulus": "<p id=\"stim\">9</p>", "key_press": -1, "trial_type": "single-stim", "trial_index": 175, "time_elapsed": 784048, "internal_node_id": "0.0-129.0-1.0"}}, {"uniqueid": "MTK0501:3EA3QWIZ4J2G38ZJBQCKMAM6J5LITC", "current_trial": 176, "dateTime": 1510970608983, "trialdata": {"rt": -1, "stimulus": "<p id=\"stim\">8</p>", "key_press": -1, "trial_type": "single-stim", "trial_index": 176, "time_elapsed": 785049, "internal_node_id": "0.0-129.0-2.0"}}, {"uniqueid": "MTK0501:3EA3QWIZ4J2G38ZJBQCKMAM6J5LITC", "current_trial": 177, "dateTime": 1510970609984, "trialdata": {"rt": -1, "stimulus": "<p id=\"stim\">7</p>", "key_press": -1, "trial_type": "single-stim", "trial_index": 177, "time_elapsed": 786050, "internal_node_id": "0.0-129.0-3.0"}}, {"uniqueid": "MTK0501:3EA3QWIZ4J2G38ZJBQCKMAM6J5LITC", "current_trial": 178, "dateTime": 1510970610985, "trialdata": {"rt": -1, "stimulus": "<p id=\"stim\">6</p>", "key_press": -1, "trial_type": "single-stim", "trial_index": 178, "time_elapsed": 787051, "internal_node_id": "0.0-129.0-4.0"}}, {"uniqueid": "MTK0501:3EA3QWIZ4J2G38ZJBQCKMAM6J5LITC", "current_trial": 179, "dateTime": 1510970611986, "trialdata": {"rt": -1, "stimulus": "<p id=\"stim\">5</p>", "key_press": -1, "trial_type": "single-stim", "trial_index": 179, "time_elapsed": 788052, "internal_node_id": "0.0-129.0-5.0"}}, {"uniqueid": "MTK0501:3EA3QWIZ4J2G38ZJBQCKMAM6J5LITC", "current_trial": 180, "dateTime": 1510970612987, "trialdata": {"rt": -1, "stimulus": "<p id=\"stim\">4</p>", "key_press": -1, "trial_type": "single-stim", "trial_index": 180, "time_elapsed": 789053, "internal_node_id": "0.0-129.0-6.0"}}, {"uniqueid": "MTK0501:3EA3QWIZ4J2G38ZJBQCKMAM6J5LITC", "current_trial": 181, "dateTime": 1510970613988, "trialdata": {"rt": -1, "stimulus": "<p id=\"stim\">3</p>", "key_press": -1, "trial_type": "single-stim", "trial_index": 181, "time_elapsed": 790054, "internal_node_id": "0.0-129.0-7.0"}}, {"uniqueid": "MTK0501:3EA3QWIZ4J2G38ZJBQCKMAM6J5LITC", "current_trial": 182, "dateTime": 1510970614989, "trialdata": {"rt": -1, "stimulus": "<p id=\"stim\">2</p>", "key_press": -1, "trial_type": "single-stim", "trial_index": 182, "time_elapsed": 791055, "internal_node_id": "0.0-129.0-8.0"}}, {"uniqueid": "MTK0501:3EA3QWIZ4J2G38ZJBQCKMAM6J5LITC", "current_trial": 183, "dateTime": 1510970615991, "trialdata": {"rt": -1, "stimulus": "<p id=\"stim\">1</p>", "key_press": -1, "trial_type": "single-stim", "trial_index": 183, "time_elapsed": 792057, "internal_node_id": "0.0-129.0-9.0"}}, {"uniqueid": "MTK0501:3EA3QWIZ4J2G38ZJBQCKMAM6J5LITC", "current_trial": 184, "dateTime": 1510970617492, "trialdata": {"rt": -1, "stimulus": "<p id=\"stim\">+</p>", "key_press": -1, "type": "FIXATION", "trial_type": "single-stim", "trial_index": 184, "time_elapsed": 793558, "internal_node_id": "0.0-130.0-0.0"}}, {"uniqueid": "MTK0501:3EA3QWIZ4J2G38ZJBQCKMAM6J5LITC", "current_trial": 185, "dateTime": 1510970619349, "trialdata": {"rt": -1000, "stimulus": "/static/audio/wordpool/DRAGON.wav", "key_press": -1, "type": "PRES_AUD", "word": "dragon", "wordID": 491, "conditions": [24, 800, "a", 24000], "trial": 5, "serialpos": 0, "trial_type": "single-audio", "trial_index": 185, "time_elapsed": 795415, "internal_node_id": "0.0-131.0"}}, {"uniqueid": "MTK0501:3EA3QWIZ4J2G38ZJBQCKMAM6J5LITC", "current_trial": 186, "dateTime": 1510970621240, "trialdata": {"rt": -1000, "stimulus": "/static/audio/wordpool/RADISH.wav", "key_press": -1, "type": "PRES_AUD", "word": "radish", "wordID": 1157, "conditions": [24, 800, "a", 24000], "trial": 5, "serialpos": 1, "trial_type": "single-audio", "trial_index": 186, "time_elapsed": 797306, "internal_node_id": "0.0-132.0"}}, {"uniqueid": "MTK0501:3EA3QWIZ4J2G38ZJBQCKMAM6J5LITC", "current_trial": 187, "dateTime": 1510970623229, "trialdata": {"rt": -1000, "stimulus": "/static/audio/wordpool/ASIA.wav", "key_press": -1, "type": "PRES_AUD", "word": "asia", "wordID": 45, "conditions": [24, 800, "a", 24000], "trial": 5, "serialpos": 2, "trial_type": "single-audio", "trial_index": 187, "time_elapsed": 799295, "internal_node_id": "0.0-133.0"}}, {"uniqueid": "MTK0501:3EA3QWIZ4J2G38ZJBQCKMAM6J5LITC", "current_trial": 188, "dateTime": 1510970624967, "trialdata": {"rt": -1000, "stimulus": "/static/audio/wordpool/PARROT.wav", "key_press": -1, "type": "PRES_AUD", "word": "parrot", "wordID": 1014, "conditions": [24, 800, "a", 24000], "trial": 5, "serialpos": 3, "trial_type": "single-audio", "trial_index": 188, "time_elapsed": 801033, "internal_node_id": "0.0-134.0"}}, {"uniqueid": "MTK0501:3EA3QWIZ4J2G38ZJBQCKMAM6J5LITC", "current_trial": 189, "dateTime": 1510970626861, "trialdata": {"rt": -1000, "stimulus": "/static/audio/wordpool/LIZARD.wav", "key_press": -1, "type": "PRES_AUD", "word": "lizard", "wordID": 833, "conditions": [24, 800, "a", 24000], "trial": 5, "serialpos": 4, "trial_type": "single-audio", "trial_index": 189, "time_elapsed": 802927, "internal_node_id": "0.0-135.0"}}, {"uniqueid": "MTK0501:3EA3QWIZ4J2G38ZJBQCKMAM6J5LITC", "current_trial": 190, "dateTime": 1510970628689, "trialdata": {"rt": -1000, "stimulus": "/static/audio/wordpool/BOYFRIEND.wav", "key_press": -1, "type": "PRES_AUD", "word": "boyfriend", "wordID": 161, "conditions": [24, 800, "a", 24000], "trial": 5, "serialpos": 5, "trial_type": "single-audio", "trial_index": 190, "time_elapsed": 804755, "internal_node_id": "0.0-136.0"}}, {"uniqueid": "MTK0501:3EA3QWIZ4J2G38ZJBQCKMAM6J5LITC", "current_trial": 191, "dateTime": 1510970630582, "trialdata": {"rt": -1000, "stimulus": "/static/audio/wordpool/HATCHET.wav", "key_press": -1, "type": "PRES_AUD", "word": "hatchet", "wordID": 690, "conditions": [24, 800, "a", 24000], "trial": 5, "serialpos": 6, "trial_type": "single-audio", "trial_index": 191, "time_elapsed": 806647, "internal_node_id": "0.0-137.0"}}, {"uniqueid": "MTK0501:3EA3QWIZ4J2G38ZJBQCKMAM6J5LITC", "current_trial": 192, "dateTime": 1510970632495, "trialdata": {"rt": -1000, "stimulus": "/static/audio/wordpool/DUSTPAN.wav", "key_press": -1, "type": "PRES_AUD", "word": "dustpan", "wordID": 508, "conditions": [24, 800, "a", 24000], "trial": 5, "serialpos": 7, "trial_type": "single-audio", "trial_index": 192, "time_elapsed": 808561, "internal_node_id": "0.0-138.0"}}, {"uniqueid": "MTK0501:3EA3QWIZ4J2G38ZJBQCKMAM6J5LITC", "current_trial": 193, "dateTime": 1510970634216, "trialdata": {"rt": -1000, "stimulus": "/static/audio/wordpool/GUITAR.wav", "key_press": -1, "type": "PRES_AUD", "word": "guitar", "wordID": 669, "conditions": [24, 800, "a", 24000], "trial": 5, "serialpos": 8, "trial_type": "single-audio", "trial_index": 193, "time_elapsed": 810282, "internal_node_id": "0.0-139.0"}}, {"uniqueid": "MTK0501:3EA3QWIZ4J2G38ZJBQCKMAM6J5LITC", "current_trial": 194, "dateTime": 1510970635869, "trialdata": {"rt": -1000, "stimulus": "/static/audio/wordpool/WAGON.wav", "key_press": -1, "type": "PRES_AUD", "word": "wagon", "wordID": 1577, "conditions": [24, 800, "a", 24000], "trial": 5, "serialpos": 9, "trial_type": "single-audio", "trial_index": 194, "time_elapsed": 811935, "internal_node_id": "0.0-140.0"}}, {"uniqueid": "MTK0501:3EA3QWIZ4J2G38ZJBQCKMAM6J5LITC", "current_trial": 195, "dateTime": 1510970637622, "trialdata": {"rt": -1000, "stimulus": "/static/audio/wordpool/GOBLIN.wav", "key_press": -1, "type": "PRES_AUD", "word": "goblin", "wordID": 644, "conditions": [24, 800, "a", 24000], "trial": 5, "serialpos": 10, "trial_type": "single-audio", "trial_index": 195, "time_elapsed": 813688, "internal_node_id": "0.0-141.0"}}, {"uniqueid": "MTK0501:3EA3QWIZ4J2G38ZJBQCKMAM6J5LITC", "current_trial": 196, "dateTime": 1510970639270, "trialdata": {"rt": -1000, "stimulus": "/static/audio/wordpool/GLOBE.wav", "key_press": -1, "type": "PRES_AUD", "word": "globe", "wordID": 640, "conditions": [24, 800, "a", 24000], "trial": 5, "serialpos": 11, "trial_type": "single-audio", "trial_index": 196, "time_elapsed": 815336, "internal_node_id": "0.0-142.0"}}, {"uniqueid": "MTK0501:3EA3QWIZ4J2G38ZJBQCKMAM6J5LITC", "current_trial": 197, "dateTime": 1510970640972, "trialdata": {"rt": -1000, "stimulus": "/static/audio/wordpool/TURKEY.wav", "key_press": -1, "type": "PRES_AUD", "word": "turkey", "wordID": 1519, "conditions": [24, 800, "a", 24000], "trial": 5, "serialpos": 12, "trial_type": "single-audio", "trial_index": 197, "time_elapsed": 817038, "internal_node_id": "0.0-143.0"}}, {"uniqueid": "MTK0501:3EA3QWIZ4J2G38ZJBQCKMAM6J5LITC", "current_trial": 198, "dateTime": 1510970642675, "trialdata": {"rt": -1000, "stimulus": "/static/audio/wordpool/GROUND.wav", "key_press": -1, "type": "PRES_AUD", "word": "ground", "wordID": 665, "conditions": [24, 800, "a", 24000], "trial": 5, "serialpos": 13, "trial_type": "single-audio", "trial_index": 198, "time_elapsed": 818741, "internal_node_id": "0.0-144.0"}}, {"uniqueid": "MTK0501:3EA3QWIZ4J2G38ZJBQCKMAM6J5LITC", "current_trial": 199, "dateTime": 1510970644333, "trialdata": {"rt": -1000, "stimulus": "/static/audio/wordpool/HOSTESS.wav", "key_press": -1, "type": "PRES_AUD", "word": "hostess", "wordID": 722, "conditions": [24, 800, "a", 24000], "trial": 5, "serialpos": 14, "trial_type": "single-audio", "trial_index": 199, "time_elapsed": 820399, "internal_node_id": "0.0-145.0"}}, {"uniqueid": "MTK0501:3EA3QWIZ4J2G38ZJBQCKMAM6J5LITC", "current_trial": 200, "dateTime": 1510970645944, "trialdata": {"rt": -1000, "stimulus": "/static/audio/wordpool/CLOUD.wav", "key_press": -1, "type": "PRES_AUD", "word": "cloud", "wordID": 327, "conditions": [24, 800, "a", 24000], "trial": 5, "serialpos": 15, "trial_type": "single-audio", "trial_index": 200, "time_elapsed": 822010, "internal_node_id": "0.0-146.0"}}, {"uniqueid": "MTK0501:3EA3QWIZ4J2G38ZJBQCKMAM6J5LITC", "current_trial": 201, "dateTime": 1510970647686, "trialdata": {"rt": -1000, "stimulus": "/static/audio/wordpool/JAPAN.wav", "key_press": -1, "type": "PRES_AUD", "word": "japan", "wordID": 748, "conditions": [24, 800, "a", 24000], "trial": 5, "serialpos": 16, "trial_type": "single-audio", "trial_index": 201, "time_elapsed": 823752, "internal_node_id": "0.0-147.0"}}, {"uniqueid": "MTK0501:3EA3QWIZ4J2G38ZJBQCKMAM6J5LITC", "current_trial": 202, "dateTime": 1510970649681, "trialdata": {"rt": -1000, "stimulus": "/static/audio/wordpool/PANTHER.wav", "key_press": -1, "type": "PRES_AUD", "word": "panther", "wordID": 1008, "conditions": [24, 800, "a", 24000], "trial": 5, "serialpos": 17, "trial_type": "single-audio", "trial_index": 202, "time_elapsed": 825747, "internal_node_id": "0.0-148.0"}}, {"uniqueid": "MTK0501:3EA3QWIZ4J2G38ZJBQCKMAM6J5LITC", "current_trial": 203, "dateTime": 1510970651591, "trialdata": {"rt": -1000, "stimulus": "/static/audio/wordpool/TURTLE.wav", "key_press": -1, "type": "PRES_AUD", "word": "turtle", "wordID": 1521, "conditions": [24, 800, "a", 24000], "trial": 5, "serialpos": 18, "trial_type": "single-audio", "trial_index": 203, "time_elapsed": 827657, "internal_node_id": "0.0-149.0"}}, {"uniqueid": "MTK0501:3EA3QWIZ4J2G38ZJBQCKMAM6J5LITC", "current_trial": 204, "dateTime": 1510970653468, "trialdata": {"rt": -1000, "stimulus": "/static/audio/wordpool/LACE.wav", "key_press": -1, "type": "PRES_AUD", "word": "lace", "wordID": 791, "conditions": [24, 800, "a", 24000], "trial": 5, "serialpos": 19, "trial_type": "single-audio", "trial_index": 204, "time_elapsed": 829534, "internal_node_id": "0.0-150.0"}}, {"uniqueid": "MTK0501:3EA3QWIZ4J2G38ZJBQCKMAM6J5LITC", "current_trial": 205, "dateTime": 1510970655143, "trialdata": {"rt": -1000, "stimulus": "/static/audio/wordpool/SERVER.wav", "key_press": -1, "type": "PRES_AUD", "word": "server", "wordID": 1271, "conditions": [24, 800, "a", 24000], "trial": 5, "serialpos": 20, "trial_type": "single-audio", "trial_index": 205, "time_elapsed": 831209, "internal_node_id": "0.0-151.0"}}, {"uniqueid": "MTK0501:3EA3QWIZ4J2G38ZJBQCKMAM6J5LITC", "current_trial": 206, "dateTime": 1510970657102, "trialdata": {"rt": -1000, "stimulus": "/static/audio/wordpool/FRANCE.wav", "key_press": -1, "type": "PRES_AUD", "word": "france", "wordID": 600, "conditions": [24, 800, "a", 24000], "trial": 5, "serialpos": 21, "trial_type": "single-audio", "trial_index": 206, "time_elapsed": 833168, "internal_node_id": "0.0-152.0"}}, {"uniqueid": "MTK0501:3EA3QWIZ4J2G38ZJBQCKMAM6J5LITC", "current_trial": 207, "dateTime": 1510970659040, "trialdata": {"rt": -1000, "stimulus": "/static/audio/wordpool/PEPPER.wav", "key_press": -1, "type": "PRES_AUD", "word": "pepper", "wordID": 1046, "conditions": [24, 800, "a", 24000], "trial": 5, "serialpos": 22, "trial_type": "single-audio", "trial_index": 207, "time_elapsed": 835106, "internal_node_id": "0.0-153.0"}}, {"uniqueid": "MTK0501:3EA3QWIZ4J2G38ZJBQCKMAM6J5LITC", "current_trial": 208, "dateTime": 1510970660903, "trialdata": {"rt": -1000, "stimulus": "/static/audio/wordpool/CARROT.wav", "key_press": -1, "type": "PRES_AUD", "word": "carrot", "wordID": 248, "conditions": [24, 800, "a", 24000], "trial": 5, "serialpos": 23, "trial_type": "single-audio", "trial_index": 208, "time_elapsed": 836969, "internal_node_id": "0.0-154.0"}}, {"uniqueid": "MTK0501:3EA3QWIZ4J2G38ZJBQCKMAM6J5LITC", "current_trial": 209, "dateTime": 1510970662193, "trialdata": {"rt": -1, "stimulus": "", "key_press": -1, "type": "PRE_RECALL_DELAY", "trial_type": "single-stim", "trial_index": 209, "time_elapsed": 838259, "internal_node_id": "0.0-155.0-0.0"}}, {"uniqueid": "MTK0501:3EA3QWIZ4J2G38ZJBQCKMAM6J5LITC", "current_trial": 210, "dateTime": 1510970662694, "trialdata": {"rt": -1000, "stimulus": "/static/audio/400Hz.wav", "key_press": -1, "type": "PRE_RECALL_ALERT", "trial_type": "single-audio", "trial_index": 210, "time_elapsed": 838760, "internal_node_id": "0.0-156.0"}}, {"uniqueid": "MTK0501:3EA3QWIZ4J2G38ZJBQCKMAM6J5LITC", "current_trial": 211, "dateTime": 1510970722698, "trialdata": {"rt": [2993, 5970, 8914, 12698, 17057, 19929, 24490, 27826, 31482], "recwords": ["carrot", "pepper", "lace", "panther", "turkey", "japan", "lizard", "asia", "dragon"], "type": "FREE_RECALL", "conditions": [24, 800, "a", 24000], "trial": 5, "trial_type": "free-recall", "trial_index": 211, "time_elapsed": 898763, "internal_node_id": "0.0-157.0-0.0"}}, {"uniqueid": "MTK0501:3EA3QWIZ4J2G38ZJBQCKMAM6J5LITC", "current_trial": 212, "dateTime": 1510970744201, "trialdata": {"rt": 19502, "key_press": 13, "type": "INSTRUCTIONS", "trial_type": "text", "trial_index": 212, "time_elapsed": 920267, "internal_node_id": "0.0-158.0"}}, {"uniqueid": "MTK0501:3EA3QWIZ4J2G38ZJBQCKMAM6J5LITC", "current_trial": 213, "dateTime": 1510970770203, "trialdata": {"rt": [2310, 4310, 7830, 10031, 12143, 15511, 17815, 20191, 23678], "responses": ["12", "16", "19", "10", "15", "20", "15", "21", "15"], "num1": [6, 9, 4, 4, 5, 5, 7, 8, 2, 6], "num2": [5, 1, 9, 2, 1, 7, 6, 7, 6, 3], "num3": [1, 6, 6, 4, 9, 8, 2, 6, 7, 5], "type": "DISTRACTOR", "conditions": [24, 1600, "v", 24000], "trial": 6, "trial_type": "math-distractor", "trial_index": 213, "time_elapsed": 946269, "internal_node_id": "0.0-159.0"}}, {"uniqueid": "MTK0501:3EA3QWIZ4J2G38ZJBQCKMAM6J5LITC", "current_trial": 214, "dateTime": 1510970773205, "trialdata": {"rt": -1, "stimulus": "<p id=\"stim\">10</p>", "key_press": -1, "trial_type": "single-stim", "trial_index": 214, "time_elapsed": 949271, "internal_node_id": "0.0-160.0-0.0"}}, {"uniqueid": "MTK0501:3EA3QWIZ4J2G38ZJBQCKMAM6J5LITC", "current_trial": 215, "dateTime": 1510970774207, "trialdata": {"rt": -1, "stimulus": "<p id=\"stim\">9</p>", "key_press": -1, "trial_type": "single-stim", "trial_index": 215, "time_elapsed": 950273, "internal_node_id": "0.0-160.0-1.0"}}, {"uniqueid": "MTK0501:3EA3QWIZ4J2G38ZJBQCKMAM6J5LITC", "current_trial": 216, "dateTime": 1510970775208, "trialdata": {"rt": -1, "stimulus": "<p id=\"stim\">8</p>", "key_press": -1, "trial_type": "single-stim", "trial_index": 216, "time_elapsed": 951274, "internal_node_id": "0.0-160.0-2.0"}}, {"uniqueid": "MTK0501:3EA3QWIZ4J2G38ZJBQCKMAM6J5LITC", "current_trial": 217, "dateTime": 1510970776209, "trialdata": {"rt": -1, "stimulus": "<p id=\"stim\">7</p>", "key_press": -1, "trial_type": "single-stim", "trial_index": 217, "time_elapsed": 952275, "internal_node_id": "0.0-160.0-3.0"}}, {"uniqueid": "MTK0501:3EA3QWIZ4J2G38ZJBQCKMAM6J5LITC", "current_trial": 218, "dateTime": 1510970777210, "trialdata": {"rt": -1, "stimulus": "<p id=\"stim\">6</p>", "key_press": -1, "trial_type": "single-stim", "trial_index": 218, "time_elapsed": 953276, "internal_node_id": "0.0-160.0-4.0"}}, {"uniqueid": "MTK0501:3EA3QWIZ4J2G38ZJBQCKMAM6J5LITC", "current_trial": 219, "dateTime": 1510970778211, "trialdata": {"rt": -1, "stimulus": "<p id=\"stim\">5</p>", "key_press": -1, "trial_type": "single-stim", "trial_index": 219, "time_elapsed": 954277, "internal_node_id": "0.0-160.0-5.0"}}, {"uniqueid": "MTK0501:3EA3QWIZ4J2G38ZJBQCKMAM6J5LITC", "current_trial": 220, "dateTime": 1510970779212, "trialdata": {"rt": -1, "stimulus": "<p id=\"stim\">4</p>", "key_press": -1, "trial_type": "single-stim", "trial_index": 220, "time_elapsed": 955278, "internal_node_id": "0.0-160.0-6.0"}}, {"uniqueid": "MTK0501:3EA3QWIZ4J2G38ZJBQCKMAM6J5LITC", "current_trial": 221, "dateTime": 1510970780213, "trialdata": {"rt": -1, "stimulus": "<p id=\"stim\">3</p>", "key_press": -1, "trial_type": "single-stim", "trial_index": 221, "time_elapsed": 956279, "internal_node_id": "0.0-160.0-7.0"}}, {"uniqueid": "MTK0501:3EA3QWIZ4J2G38ZJBQCKMAM6J5LITC", "current_trial": 222, "dateTime": 1510970781214, "trialdata": {"rt": -1, "stimulus": "<p id=\"stim\">2</p>", "key_press": -1, "trial_type": "single-stim", "trial_index": 222, "time_elapsed": 957280, "internal_node_id": "0.0-160.0-8.0"}}, {"uniqueid": "MTK0501:3EA3QWIZ4J2G38ZJBQCKMAM6J5LITC", "current_trial": 223, "dateTime": 1510970782215, "trialdata": {"rt": -1, "stimulus": "<p id=\"stim\">1</p>", "key_press": -1, "trial_type": "single-stim", "trial_index": 223, "time_elapsed": 958281, "internal_node_id": "0.0-160.0-9.0"}}, {"uniqueid": "MTK0501:3EA3QWIZ4J2G38ZJBQCKMAM6J5LITC", "current_trial": 224, "dateTime": 1510970783716, "trialdata": {"rt": -1, "stimulus": "<p id=\"stim\">+</p>", "key_press": -1, "type": "FIXATION", "trial_type": "single-stim", "trial_index": 224, "time_elapsed": 959782, "internal_node_id": "0.0-161.0-0.0"}}, {"uniqueid": "MTK0501:3EA3QWIZ4J2G38ZJBQCKMAM6J5LITC", "current_trial": 225, "dateTime": 1510970785317, "trialdata": {"rt": -1, "stimulus": "<p id=\"stim\">SUNSET</p>", "key_press": -1, "type": "PRES_VIS", "word": "sunset", "wordID": 1407, "conditions": [24, 1600, "v", 24000], "trial": 6, "serialpos": 0, "trial_type": "single-stim", "trial_index": 225, "time_elapsed": 961383, "internal_node_id": "0.0-162.0"}}, {"uniqueid": "MTK0501:3EA3QWIZ4J2G38ZJBQCKMAM6J5LITC", "current_trial": 226, "dateTime": 1510970788092, "trialdata": {"rt": -1, "stimulus": "<p id=\"stim\">SUNRISE</p>", "key_press": -1, "type": "PRES_VIS", "word": "sunrise", "wordID": 1406, "conditions": [24, 1600, "v", 24000], "trial": 6, "serialpos": 1, "trial_type": "single-stim", "trial_index": 226, "time_elapsed": 964158, "internal_node_id": "0.0-163.0"}}, {"uniqueid": "MTK0501:3EA3QWIZ4J2G38ZJBQCKMAM6J5LITC", "current_trial": 227, "dateTime": 1510970790542, "trialdata": {"rt": -1, "stimulus": "<p id=\"stim\">TOMBSTONE</p>", "key_press": -1, "type": "PRES_VIS", "word": "tombstone", "wordID": 1477, "conditions": [24, 1600, "v", 24000], "trial": 6, "serialpos": 2, "trial_type": "single-stim", "trial_index": 227, "time_elapsed": 966608, "internal_node_id": "0.0-164.0"}}, {"uniqueid": "MTK0501:3EA3QWIZ4J2G38ZJBQCKMAM6J5LITC", "current_trial": 228, "dateTime": 1510970793208, "trialdata": {"rt": -1, "stimulus": "<p id=\"stim\">SODA</p>", "key_press": -1, "type": "PRES_VIS", "word": "soda", "wordID": 1340, "conditions": [24, 1600, "v", 24000], "trial": 6, "serialpos": 3, "trial_type": "single-stim", "trial_index": 228, "time_elapsed": 969274, "internal_node_id": "0.0-165.0"}}, {"uniqueid": "MTK0501:3EA3QWIZ4J2G38ZJBQCKMAM6J5LITC", "current_trial": 229, "dateTime": 1510970795787, "trialdata": {"rt": -1, "stimulus": "<p id=\"stim\">MISTER</p>", "key_press": -1, "type": "PRES_VIS", "word": "mister", "wordID": 900, "conditions": [24, 1600, "v", 24000], "trial": 6, "serialpos": 4, "trial_type": "single-stim", "trial_index": 229, "time_elapsed": 971853, "internal_node_id": "0.0-166.0"}}, {"uniqueid": "MTK0501:3EA3QWIZ4J2G38ZJBQCKMAM6J5LITC", "current_trial": 230, "dateTime": 1510970798343, "trialdata": {"rt": -1, "stimulus": "<p id=\"stim\">TRACTOR</p>", "key_press": -1, "type": "PRES_VIS", "word": "tractor", "wordID": 1492, "conditions": [24, 1600, "v", 24000], "trial": 6, "serialpos": 5, "trial_type": "single-stim", "trial_index": 230, "time_elapsed": 974409, "internal_node_id": "0.0-167.0"}}, {"uniqueid": "MTK0501:3EA3QWIZ4J2G38ZJBQCKMAM6J5LITC", "current_trial": 231, "dateTime": 1510970800763, "trialdata": {"rt": -1, "stimulus": "<p id=\"stim\">STATUE</p>", "key_press": -1, "type": "PRES_VIS", "word": "statue", "wordID": 1373, "conditions": [24, 1600, "v", 24000], "trial": 6, "serialpos": 6, "trial_type": "single-stim", "trial_index": 231, "time_elapsed": 976829, "internal_node_id": "0.0-168.0"}}, {"uniqueid": "MTK0501:3EA3QWIZ4J2G38ZJBQCKMAM6J5LITC", "current_trial": 232, "dateTime": 1510970803463, "trialdata": {"rt": -1, "stimulus": "<p id=\"stim\">LEOPARD</p>", "key_press": -1, "type": "PRES_VIS", "word": "leopard", "wordID": 811, "conditions": [24, 1600, "v", 24000], "trial": 6, "serialpos": 7, "trial_type": "single-stim", "trial_index": 232, "time_elapsed": 979529, "internal_node_id": "0.0-169.0"}}, {"uniqueid": "MTK0501:3EA3QWIZ4J2G38ZJBQCKMAM6J5LITC", "current_trial": 233, "dateTime": 1510970806037, "trialdata": {"rt": -1, "stimulus": "<p id=\"stim\">AIRPLANE</p>", "key_press": -1, "type": "PRES_VIS", "word": "airplane", "wordID": 11, "conditions": [24, 1600, "v", 24000], "trial": 6, "serialpos": 8, "trial_type": "single-stim", "trial_index": 233, "time_elapsed": 982103, "internal_node_id": "0.0-170.0"}}, {"uniqueid": "MTK0501:3EA3QWIZ4J2G38ZJBQCKMAM6J5LITC", "current_trial": 234, "dateTime": 1510970808471, "trialdata": {"rt": -1, "stimulus": "<p id=\"stim\">NEUTRON</p>", "key_press": -1, "type": "PRES_VIS", "word": "neutron", "wordID": 946, "conditions": [24, 1600, "v", 24000], "trial": 6, "serialpos": 9, "trial_type": "single-stim", "trial_index": 234, "time_elapsed": 984537, "internal_node_id": "0.0-171.0"}}, {"uniqueid": "MTK0501:3EA3QWIZ4J2G38ZJBQCKMAM6J5LITC", "current_trial": 235, "dateTime": 1510970811136, "trialdata": {"rt": -1, "stimulus": "<p id=\"stim\">GAZELLE</p>", "key_press": -1, "type": "PRES_VIS", "word": "gazelle", "wordID": 627, "conditions": [24, 1600, "v", 24000], "trial": 6, "serialpos": 10, "trial_type": "single-stim", "trial_index": 235, "time_elapsed": 987202, "internal_node_id": "0.0-172.0"}}, {"uniqueid": "MTK0501:3EA3QWIZ4J2G38ZJBQCKMAM6J5LITC", "current_trial": 236, "dateTime": 1510970813626, "trialdata": {"rt": -1, "stimulus": "<p id=\"stim\">GIFT</p>", "key_press": -1, "type": "PRES_VIS", "word": "gift", "wordID": 634, "conditions": [24, 1600, "v", 24000], "trial": 6, "serialpos": 11, "trial_type": "single-stim", "trial_index": 236, "time_elapsed": 989692, "internal_node_id": "0.0-173.0"}}, {"uniqueid": "MTK0501:3EA3QWIZ4J2G38ZJBQCKMAM6J5LITC", "current_trial": 237, "dateTime": 1510970816321, "trialdata": {"rt": -1, "stimulus": "<p id=\"stim\">COWBOY</p>", "key_press": -1, "type": "PRES_VIS", "word": "cowboy", "wordID": 394, "conditions": [24, 1600, "v", 24000], "trial": 6, "serialpos": 12, "trial_type": "single-stim", "trial_index": 237, "time_elapsed": 992387, "internal_node_id": "0.0-174.0"}}, {"uniqueid": "MTK0501:3EA3QWIZ4J2G38ZJBQCKMAM6J5LITC", "current_trial": 238, "dateTime": 1510970818910, "trialdata": {"rt": -1, "stimulus": "<p id=\"stim\">MUFFIN</p>", "key_press": -1, "type": "PRES_VIS", "word": "muffin", "wordID": 928, "conditions": [24, 1600, "v", 24000], "trial": 6, "serialpos": 13, "trial_type": "single-stim", "trial_index": 238, "time_elapsed": 994976, "internal_node_id": "0.0-175.0"}}, {"uniqueid": "MTK0501:3EA3QWIZ4J2G38ZJBQCKMAM6J5LITC", "current_trial": 239, "dateTime": 1510970821399, "trialdata": {"rt": -1, "stimulus": "<p id=\"stim\">ROBBER</p>", "key_press": -1, "type": "PRES_VIS", "word": "robber", "wordID": 1196, "conditions": [24, 1600, "v", 24000], "trial": 6, "serialpos": 14, "trial_type": "single-stim", "trial_index": 239, "time_elapsed": 997465, "internal_node_id": "0.0-176.0"}}, {"uniqueid": "MTK0501:3EA3QWIZ4J2G38ZJBQCKMAM6J5LITC", "current_trial": 240, "dateTime": 1510970823879, "trialdata": {"rt": -1, "stimulus": "<p id=\"stim\">CREATURE</p>", "key_press": -1, "type": "PRES_VIS", "word": "creature", "wordID": 402, "conditions": [24, 1600, "v", 24000], "trial": 6, "serialpos": 15, "trial_type": "single-stim", "trial_index": 240, "time_elapsed": 999945, "internal_node_id": "0.0-177.0"}}, {"uniqueid": "MTK0501:3EA3QWIZ4J2G38ZJBQCKMAM6J5LITC", "current_trial": 241, "dateTime": 1510970826322, "trialdata": {"rt": -1, "stimulus": "<p id=\"stim\">RACKET</p>", "key_press": -1, "type": "PRES_VIS", "word": "racket", "wordID": 1154, "conditions": [24, 1600, "v", 24000], "trial": 6, "serialpos": 16, "trial_type": "single-stim", "trial_index": 241, "time_elapsed": 1002388, "internal_node_id": "0.0-178.0"}}, {"uniqueid": "MTK0501:3EA3QWIZ4J2G38ZJBQCKMAM6J5LITC", "current_trial": 242, "dateTime": 1510970828753, "trialdata": {"rt": -1, "stimulus": "<p id=\"stim\">BLENDER</p>", "key_press": -1, "type": "PRES_VIS", "word": "blender", "wordID": 135, "conditions": [24, 1600, "v", 24000], "trial": 6, "serialpos": 17, "trial_type": "single-stim", "trial_index": 242, "time_elapsed": 1004819, "internal_node_id": "0.0-179.0"}}, {"uniqueid": "MTK0501:3EA3QWIZ4J2G38ZJBQCKMAM6J5LITC", "current_trial": 243, "dateTime": 1510970831361, "trialdata": {"rt": -1, "stimulus": "<p id=\"stim\">GLASS</p>", "key_press": -1, "type": "PRES_VIS", "word": "glass", "wordID": 638, "conditions": [24, 1600, "v", 24000], "trial": 6, "serialpos": 18, "trial_type": "single-stim", "trial_index": 243, "time_elapsed": 1007427, "internal_node_id": "0.0-180.0"}}, {"uniqueid": "MTK0501:3EA3QWIZ4J2G38ZJBQCKMAM6J5LITC", "current_trial": 244, "dateTime": 1510970833830, "trialdata": {"rt": -1, "stimulus": "<p id=\"stim\">SUPPER</p>", "key_press": -1, "type": "PRES_VIS", "word": "supper", "wordID": 1410, "conditions": [24, 1600, "v", 24000], "trial": 6, "serialpos": 19, "trial_type": "single-stim", "trial_index": 244, "time_elapsed": 1009896, "internal_node_id": "0.0-181.0"}}, {"uniqueid": "MTK0501:3EA3QWIZ4J2G38ZJBQCKMAM6J5LITC", "current_trial": 245, "dateTime": 1510970836630, "trialdata": {"rt": -1, "stimulus": "<p id=\"stim\">LUNCH</p>", "key_press": -1, "type": "PRES_VIS", "word": "lunch", "wordID": 848, "conditions": [24, 1600, "v", 24000], "trial": 6, "serialpos": 20, "trial_type": "single-stim", "trial_index": 245, "time_elapsed": 1012696, "internal_node_id": "0.0-182.0"}}, {"uniqueid": "MTK0501:3EA3QWIZ4J2G38ZJBQCKMAM6J5LITC", "current_trial": 246, "dateTime": 1510970839249, "trialdata": {"rt": -1, "stimulus": "<p id=\"stim\">DRAWING</p>", "key_press": -1, "type": "PRES_VIS", "word": "drawing", "wordID": 493, "conditions": [24, 1600, "v", 24000], "trial": 6, "serialpos": 21, "trial_type": "single-stim", "trial_index": 246, "time_elapsed": 1015315, "internal_node_id": "0.0-183.0"}}, {"uniqueid": "MTK0501:3EA3QWIZ4J2G38ZJBQCKMAM6J5LITC", "current_trial": 247, "dateTime": 1510970841794, "trialdata": {"rt": -1, "stimulus": "<p id=\"stim\">MAMMAL</p>", "key_press": -1, "type": "PRES_VIS", "word": "mammal", "wordID": 860, "conditions": [24, 1600, "v", 24000], "trial": 6, "serialpos": 22, "trial_type": "single-stim", "trial_index": 247, "time_elapsed": 1017860, "internal_node_id": "0.0-184.0"}}, {"uniqueid": "MTK0501:3EA3QWIZ4J2G38ZJBQCKMAM6J5LITC", "current_trial": 248, "dateTime": 1510970844424, "trialdata": {"rt": -1, "stimulus": "<p id=\"stim\">PADDLE</p>", "key_press": -1, "type": "PRES_VIS", "word": "paddle", "wordID": 999, "conditions": [24, 1600, "v", 24000], "trial": 6, "serialpos": 23, "trial_type": "single-stim", "trial_index": 248, "time_elapsed": 1020490, "internal_node_id": "0.0-185.0"}}, {"uniqueid": "MTK0501:3EA3QWIZ4J2G38ZJBQCKMAM6J5LITC", "current_trial": 249, "dateTime": 1510970846555, "trialdata": {"rt": -1, "stimulus": "", "key_press": -1, "type": "PRE_RECALL_DELAY", "trial_type": "single-stim", "trial_index": 249, "time_elapsed": 1022621, "internal_node_id": "0.0-186.0-0.0"}}, {"uniqueid": "MTK0501:3EA3QWIZ4J2G38ZJBQCKMAM6J5LITC", "current_trial": 250, "dateTime": 1510970847056, "trialdata": {"rt": -1000, "stimulus": "/static/audio/400Hz.wav", "key_press": -1, "type": "PRE_RECALL_ALERT", "trial_type": "single-audio", "trial_index": 250, "time_elapsed": 1023122, "internal_node_id": "0.0-187.0"}}, {"uniqueid": "MTK0501:3EA3QWIZ4J2G38ZJBQCKMAM6J5LITC", "current_trial": 251, "dateTime": 1510970907061, "trialdata": {"rt": [5446, 8966, 12262, 14239, 16959, 20503, 25023], "recwords": ["robber", "muffin", "sunset", "sunrise", "soda", "tractor", "gift"], "type": "FREE_RECALL", "conditions": [24, 1600, "v", 24000], "trial": 6, "trial_type": "free-recall", "trial_index": 251, "time_elapsed": 1083125, "internal_node_id": "0.0-188.0-0.0"}}, {"uniqueid": "MTK0501:3EA3QWIZ4J2G38ZJBQCKMAM6J5LITC", "current_trial": 252, "dateTime": 1510970910913, "trialdata": {"rt": 1850, "key_press": 13, "type": "INSTRUCTIONS", "trial_type": "text", "trial_index": 252, "time_elapsed": 1086979, "internal_node_id": "0.0-189.0"}}, {"uniqueid": "MTK0501:3EA3QWIZ4J2G38ZJBQCKMAM6J5LITC", "current_trial": 253, "dateTime": 1510970936916, "trialdata": {"rt": [2991, 6383, 8855, 10791, 13246, 15398, 17807, 19951, 21903], "responses": ["17", "18", "9", "6", "13", "16", "10", "12", "11"], "num1": [1, 5, 3, 4, 4, 4, 6, 1, 6, 9], "num2": [8, 6, 4, 1, 7, 7, 3, 3, 1, 5], "num3": [8, 7, 2, 1, 2, 5, 1, 8, 4, 4], "type": "DISTRACTOR", "conditions": [24, 1600, "a", 24000], "trial": 7, "trial_type": "math-distractor", "trial_index": 253, "time_elapsed": 1112982, "internal_node_id": "0.0-190.0"}}, {"uniqueid": "MTK0501:3EA3QWIZ4J2G38ZJBQCKMAM6J5LITC", "current_trial": 254, "dateTime": 1510970939918, "trialdata": {"rt": -1, "stimulus": "<p id=\"stim\">10</p>", "key_press": -1, "trial_type": "single-stim", "trial_index": 254, "time_elapsed": 1115984, "internal_node_id": "0.0-191.0-0.0"}}, {"uniqueid": "MTK0501:3EA3QWIZ4J2G38ZJBQCKMAM6J5LITC", "current_trial": 255, "dateTime": 1510970940919, "trialdata": {"rt": -1, "stimulus": "<p id=\"stim\">9</p>", "key_press": -1, "trial_type": "single-stim", "trial_index": 255, "time_elapsed": 1116985, "internal_node_id": "0.0-191.0-1.0"}}, {"uniqueid": "MTK0501:3EA3QWIZ4J2G38ZJBQCKMAM6J5LITC", "current_trial": 256, "dateTime": 1510970941920, "trialdata": {"rt": -1, "stimulus": "<p id=\"stim\">8</p>", "key_press": -1, "trial_type": "single-stim", "trial_index": 256, "time_elapsed": 1117986, "internal_node_id": "0.0-191.0-2.0"}}, {"uniqueid": "MTK0501:3EA3QWIZ4J2G38ZJBQCKMAM6J5LITC", "current_trial": 257, "dateTime": 1510970942921, "trialdata": {"rt": -1, "stimulus": "<p id=\"stim\">7</p>", "key_press": -1, "trial_type": "single-stim", "trial_index": 257, "time_elapsed": 1118987, "internal_node_id": "0.0-191.0-3.0"}}, {"uniqueid": "MTK0501:3EA3QWIZ4J2G38ZJBQCKMAM6J5LITC", "current_trial": 258, "dateTime": 1510970943922, "trialdata": {"rt": -1, "stimulus": "<p id=\"stim\">6</p>", "key_press": -1, "trial_type": "single-stim", "trial_index": 258, "time_elapsed": 1119988, "internal_node_id": "0.0-191.0-4.0"}}, {"uniqueid": "MTK0501:3EA3QWIZ4J2G38ZJBQCKMAM6J5LITC", "current_trial": 259, "dateTime": 1510970944923, "trialdata": {"rt": -1, "stimulus": "<p id=\"stim\">5</p>", "key_press": -1, "trial_type": "single-stim", "trial_index": 259, "time_elapsed": 1120989, "internal_node_id": "0.0-191.0-5.0"}}, {"uniqueid": "MTK0501:3EA3QWIZ4J2G38ZJBQCKMAM6J5LITC", "current_trial": 260, "dateTime": 1510970945925, "trialdata": {"rt": -1, "stimulus": "<p id=\"stim\">4</p>", "key_press": -1, "trial_type": "single-stim", "trial_index": 260, "time_elapsed": 1121990, "internal_node_id": "0.0-191.0-6.0"}}, {"uniqueid": "MTK0501:3EA3QWIZ4J2G38ZJBQCKMAM6J5LITC", "current_trial": 261, "dateTime": 1510970946926, "trialdata": {"rt": -1, "stimulus": "<p id=\"stim\">3</p>", "key_press": -1, "trial_type": "single-stim", "trial_index": 261, "time_elapsed": 1122992, "internal_node_id": "0.0-191.0-7.0"}}, {"uniqueid": "MTK0501:3EA3QWIZ4J2G38ZJBQCKMAM6J5LITC", "current_trial": 262, "dateTime": 1510970947927, "trialdata": {"rt": -1, "stimulus": "<p id=\"stim\">2</p>", "key_press": -1, "trial_type": "single-stim", "trial_index": 262, "time_elapsed": 1123993, "internal_node_id": "0.0-191.0-8.0"}}, {"uniqueid": "MTK0501:3EA3QWIZ4J2G38ZJBQCKMAM6J5LITC", "current_trial": 263, "dateTime": 1510970948929, "trialdata": {"rt": -1, "stimulus": "<p id=\"stim\">1</p>", "key_press": -1, "trial_type": "single-stim", "trial_index": 263, "time_elapsed": 1124995, "internal_node_id": "0.0-191.0-9.0"}}, {"uniqueid": "MTK0501:3EA3QWIZ4J2G38ZJBQCKMAM6J5LITC", "current_trial": 264, "dateTime": 1510970950430, "trialdata": {"rt": -1, "stimulus": "<p id=\"stim\">+</p>", "key_press": -1, "type": "FIXATION", "trial_type": "single-stim", "trial_index": 264, "time_elapsed": 1126496, "internal_node_id": "0.0-192.0-0.0"}}, {"uniqueid": "MTK0501:3EA3QWIZ4J2G38ZJBQCKMAM6J5LITC", "current_trial": 265, "dateTime": 1510970953205, "trialdata": {"rt": -1000, "stimulus": "/static/audio/wordpool/SNAKE.wav", "key_press": -1, "type": "PRES_AUD", "word": "snake", "wordID": 1332, "conditions": [24, 1600, "a", 24000], "trial": 7, "serialpos": 0, "trial_type": "single-audio", "trial_index": 265, "time_elapsed": 1129271, "internal_node_id": "0.0-193.0"}}, {"uniqueid": "MTK0501:3EA3QWIZ4J2G38ZJBQCKMAM6J5LITC", "current_trial": 266, "dateTime": 1510970955841, "trialdata": {"rt": -1000, "stimulus": "/static/audio/wordpool/TORTOISE.wav", "key_press": -1, "type": "PRES_AUD", "word": "tortoise", "wordID": 1485, "conditions": [24, 1600, "a", 24000], "trial": 7, "serialpos": 1, "trial_type": "single-audio", "trial_index": 266, "time_elapsed": 1131907, "internal_node_id": "0.0-194.0"}}, {"uniqueid": "MTK0501:3EA3QWIZ4J2G38ZJBQCKMAM6J5LITC", "current_trial": 267, "dateTime": 1510970958426, "trialdata": {"rt": -1000, "stimulus": "/static/audio/wordpool/SHARK.wav", "key_press": -1, "type": "PRES_AUD", "word": "shark", "wordID": 1274, "conditions": [24, 1600, "a", 24000], "trial": 7, "serialpos": 2, "trial_type": "single-audio", "trial_index": 267, "time_elapsed": 1134492, "internal_node_id": "0.0-195.0"}}, {"uniqueid": "MTK0501:3EA3QWIZ4J2G38ZJBQCKMAM6J5LITC", "current_trial": 268, "dateTime": 1510970960992, "trialdata": {"rt": -1000, "stimulus": "/static/audio/wordpool/BREAST.wav", "key_press": -1, "type": "PRES_AUD", "word": "breast", "wordID": 170, "conditions": [24, 1600, "a", 24000], "trial": 7, "serialpos": 3, "trial_type": "single-audio", "trial_index": 268, "time_elapsed": 1137058, "internal_node_id": "0.0-196.0"}}, {"uniqueid": "MTK0501:3EA3QWIZ4J2G38ZJBQCKMAM6J5LITC", "current_trial": 269, "dateTime": 1510970963758, "trialdata": {"rt": -1000, "stimulus": "/static/audio/wordpool/CHAPEL.wav", "key_press": -1, "type": "PRES_AUD", "word": "chapel", "wordID": 279, "conditions": [24, 1600, "a", 24000], "trial": 7, "serialpos": 4, "trial_type": "single-audio", "trial_index": 269, "time_elapsed": 1139824, "internal_node_id": "0.0-197.0"}}, {"uniqueid": "MTK0501:3EA3QWIZ4J2G38ZJBQCKMAM6J5LITC", "current_trial": 270, "dateTime": 1510970966536, "trialdata": {"rt": -1000, "stimulus": "/static/audio/wordpool/SHELTER.wav", "key_press": -1, "type": "PRES_AUD", "word": "shelter", "wordID": 1281, "conditions": [24, 1600, "a", 24000], "trial": 7, "serialpos": 5, "trial_type": "single-audio", "trial_index": 270, "time_elapsed": 1142602, "internal_node_id": "0.0-198.0"}}, {"uniqueid": "MTK0501:3EA3QWIZ4J2G38ZJBQCKMAM6J5LITC", "current_trial": 271, "dateTime": 1510970968978, "trialdata": {"rt": -1000, "stimulus": "/static/audio/wordpool/CATTLE.wav", "key_press": -1, "type": "PRES_AUD", "word": "cattle", "wordID": 260, "conditions": [24, 1600, "a", 24000], "trial": 7, "serialpos": 6, "trial_type": "single-audio", "trial_index": 271, "time_elapsed": 1145044, "internal_node_id": "0.0-199.0"}}, {"uniqueid": "MTK0501:3EA3QWIZ4J2G38ZJBQCKMAM6J5LITC", "current_trial": 272, "dateTime"