{"condition": 0, "counterbalance": 162, "assignmentId": "3Z4XG4ZF49YUVJWQ7E1QYODYR5KX8G", "workerId": "MTK0101", "hitId": "3FSEU3P2NR7ET8RG7MWWB3QV3XIRRV", "currenttrial": 625, "bonus": 0, "data": [{"uniqueid": "MTK0101:3Z4XG4ZF49YUVJWQ7E1QYODYR5KX8G", "current_trial": 0, "dateTime": 1509155265486, "trialdata": {"rt": 31132, "key_press": 32, "type": "INSTRUCTIONS", "trial_type": "text", "trial_index": 0, "time_elapsed": 31136, "internal_node_id": "0.0-0.0"}}, {"uniqueid": "MTK0101:3Z4XG4ZF49YUVJWQ7E1QYODYR5KX8G", "current_trial": 1, "dateTime": 1509155323016, "trialdata": {"rt": 57529, "key_press": 13, "type": "INSTRUCTIONS", "trial_type": "text", "trial_index": 1, "time_elapsed": 88667, "internal_node_id": "0.0-1.0"}}, {"uniqueid": "MTK0101:3Z4XG4ZF49YUVJWQ7E1QYODYR5KX8G", "current_trial": 2, "dateTime": 1509155337327, "trialdata": {"rt": [14300], "responses": ["ocean"], "type": "AUDIO_TEST", "trial_type": "audio-test", "trial_index": 2, "time_elapsed": 102978, "internal_node_id": "0.0-2.0"}}, {"uniqueid": "MTK0101:3Z4XG4ZF49YUVJWQ7E1QYODYR5KX8G", "current_trial": 3, "dateTime": 1509155342119, "trialdata": {"rt": [4787], "responses": ["crystal"], "type": "AUDIO_TEST", "trial_type": "audio-test", "trial_index": 3, "time_elapsed": 107770, "internal_node_id": "0.0-3.0"}}, {"uniqueid": "MTK0101:3Z4XG4ZF49YUVJWQ7E1QYODYR5KX8G", "current_trial": 4, "dateTime": 1509155347114, "trialdata": {"rt": [4991], "responses": ["spice"], "type": "AUDIO_TEST", "trial_type": "audio-test", "trial_index": 4, "time_elapsed": 112765, "internal_node_id": "0.0-4.0"}}, {"uniqueid": "MTK0101:3Z4XG4ZF49YUVJWQ7E1QYODYR5KX8G", "current_trial": 5, "dateTime": 1509155350466, "trialdata": {"rt": 2598, "key_press": 13, "type": "INSTRUCTIONS", "trial_type": "text", "trial_index": 5, "time_elapsed": 116117, "internal_node_id": "0.0-5.0"}}, {"uniqueid": "MTK0101:3Z4XG4ZF49YUVJWQ7E1QYODYR5KX8G", "current_trial": 6, "dateTime": 1509155400169, "trialdata": {"rt": 49702, "key_press": 13, "type": "INSTRUCTIONS", "trial_type": "text", "trial_index": 6, "time_elapsed": 165820, "internal_node_id": "0.0-6.0"}}, {"uniqueid": "MTK0101:3Z4XG4ZF49YUVJWQ7E1QYODYR5KX8G", "current_trial": 7, "dateTime": 1509155420071, "trialdata": {"rt": 19900, "key_press": 13, "type": "INSTRUCTIONS", "trial_type": "text", "trial_index": 7, "time_elapsed": 185722, "internal_node_id": "0.0-7.0"}}, {"uniqueid": "MTK0101:3Z4XG4ZF49YUVJWQ7E1QYODYR5KX8G", "current_trial": 8, "dateTime": 1509155425909, "trialdata": {"rt": 5837, "key_press": 13, "type": "INSTRUCTIONS", "trial_type": "text", "trial_index": 8, "time_elapsed": 191560, "internal_node_id": "0.0-8.0"}}, {"uniqueid": "MTK0101:3Z4XG4ZF49YUVJWQ7E1QYODYR5KX8G", "current_trial": 9, "dateTime": 1509155444915, "trialdata": {"rt": [2347, 4271, 8378, 10324, 16647], "responses": ["9", "13", "26", "9", "20"], "num1": [2, 3, 8, 2, 6, 1], "num2": [6, 5, 9, 5, 6, 7], "num3": [1, 5, 9, 2, 8, 2], "type": "DISTRACTOR", "conditions": [18, 1200, "a", 18000], "trial": 0, "trial_type": "math-distractor", "trial_index": 9, "time_elapsed": 210565, "internal_node_id": "0.0-9.0"}}, {"uniqueid": "MTK0101:3Z4XG4ZF49YUVJWQ7E1QYODYR5KX8G", "current_trial": 10, "dateTime": 1509155447921, "trialdata": {"rt": -1, "stimulus": "<p id=\"stim\">10</p>", "key_press": -1, "trial_type": "single-stim", "trial_index": 10, "time_elapsed": 213572, "internal_node_id": "0.0-10.0-0.0"}}, {"uniqueid": "MTK0101:3Z4XG4ZF49YUVJWQ7E1QYODYR5KX8G", "current_trial": 11, "dateTime": 1509155448925, "trialdata": {"rt": -1, "stimulus": "<p id=\"stim\">9</p>", "key_press": -1, "trial_type": "single-stim", "trial_index": 11, "time_elapsed": 214576, "internal_node_id": "0.0-10.0-1.0"}}, {"uniqueid": "MTK0101:3Z4XG4ZF49YUVJWQ7E1QYODYR5KX8G", "current_trial": 12, "dateTime": 1509155449929, "trialdata": {"rt": -1, "stimulus": "<p id=\"stim\">8</p>", "key_press": -1, "trial_type": "single-stim", "trial_index": 12, "time_elapsed": 215580, "internal_node_id": "0.0-10.0-2.0"}}, {"uniqueid": "MTK0101:3Z4XG4ZF49YUVJWQ7E1QYODYR5KX8G", "current_trial": 13, "dateTime": 1509155450933, "trialdata": {"rt": -1, "stimulus": "<p id=\"stim\">7</p>", "key_press": -1, "trial_type": "single-stim", "trial_index": 13, "time_elapsed": 216584, "internal_node_id": "0.0-10.0-3.0"}}, {"uniqueid": "MTK0101:3Z4XG4ZF49YUVJWQ7E1QYODYR5KX8G", "current_trial": 14, "dateTime": 1509155451937, "trialdata": {"rt": -1, "stimulus": "<p id=\"stim\">6</p>", "key_press": -1, "trial_type": "single-stim", "trial_index": 14, "time_elapsed": 217588, "internal_node_id": "0.0-10.0-4.0"}}, {"uniqueid": "MTK0101:3Z4XG4ZF49YUVJWQ7E1QYODYR5KX8G", "current_trial": 15, "dateTime": 1509155452941, "trialdata": {"rt": -1, "stimulus": "<p id=\"stim\">5</p>", "key_press": -1, "trial_type": "single-stim", "trial_index": 15, "time_elapsed": 218592, "internal_node_id": "0.0-10.0-5.0"}}, {"uniqueid": "MTK0101:3Z4XG4ZF49YUVJWQ7E1QYODYR5KX8G", "current_trial": 16, "dateTime": 1509155453945, "trialdata": {"rt": -1, "stimulus": "<p id=\"stim\">4</p>", "key_press": -1, "trial_type": "single-stim", "trial_index": 16, "time_elapsed": 219596, "internal_node_id": "0.0-10.0-6.0"}}, {"uniqueid": "MTK0101:3Z4XG4ZF49YUVJWQ7E1QYODYR5KX8G", "current_trial": 17, "dateTime": 1509155454949, "trialdata": {"rt": -1, "stimulus": "<p id=\"stim\">3</p>", "key_press": -1, "trial_type": "single-stim", "trial_index": 17, "time_elapsed": 220600, "internal_node_id": "0.0-10.0-7.0"}}, {"uniqueid": "MTK0101:3Z4XG4ZF49YUVJWQ7E1QYODYR5KX8G", "current_trial": 18, "dateTime": 1509155455953, "trialdata": {"rt": -1, "stimulus": "<p id=\"stim\">2</p>", "key_press": -1, "trial_type": "single-stim", "trial_index": 18, "time_elapsed": 221604, "internal_node_id": "0.0-10.0-8.0"}}, {"uniqueid": "MTK0101:3Z4XG4ZF49YUVJWQ7E1QYODYR5KX8G", "current_trial": 19, "dateTime": 1509155456957, "trialdata": {"rt": -1, "stimulus": "<p id=\"stim\">1</p>", "key_press": -1, "trial_type": "single-stim", "trial_index": 19, "time_elapsed": 222608, "internal_node_id": "0.0-10.0-9.0"}}, {"uniqueid": "MTK0101:3Z4XG4ZF49YUVJWQ7E1QYODYR5KX8G", "current_trial": 20, "dateTime": 1509155458461, "trialdata": {"rt": -1, "stimulus": "<p id=\"stim\">+</p>", "key_press": -1, "type": "FIXATION", "trial_type": "single-stim", "trial_index": 20, "time_elapsed": 224112, "internal_node_id": "0.0-11.0-0.0"}}, {"uniqueid": "MTK0101:3Z4XG4ZF49YUVJWQ7E1QYODYR5KX8G", "current_trial": 21, "dateTime": 1509155460655, "trialdata": {"rt": -1000, "stimulus": "/static/audio/wordpool/HUSBAND.wav", "key_press": -1, "type": "PRES_AUD", "word": "husband", "wordID": 727, "conditions": [18, 1200, "a", 18000], "trial": 0, "serialpos": 0, "trial_type": "single-audio", "trial_index": 21, "time_elapsed": 226306, "internal_node_id": "0.0-12.0"}}, {"uniqueid": "MTK0101:3Z4XG4ZF49YUVJWQ7E1QYODYR5KX8G", "current_trial": 22, "dateTime": 1509155462712, "trialdata": {"rt": -1000, "stimulus": "/static/audio/wordpool/SWITCH.wav", "key_press": -1, "type": "PRES_AUD", "word": "switch", "wordID": 1421, "conditions": [18, 1200, "a", 18000], "trial": 0, "serialpos": 1, "trial_type": "single-audio", "trial_index": 22, "time_elapsed": 228363, "internal_node_id": "0.0-13.0"}}, {"uniqueid": "MTK0101:3Z4XG4ZF49YUVJWQ7E1QYODYR5KX8G", "current_trial": 23, "dateTime": 1509155464898, "trialdata": {"rt": -1000, "stimulus": "/static/audio/wordpool/HEDGE.wav", "key_press": -1, "type": "PRES_AUD", "word": "hedge", "wordID": 698, "conditions": [18, 1200, "a", 18000], "trial": 0, "serialpos": 2, "trial_type": "single-audio", "trial_index": 23, "time_elapsed": 230549, "internal_node_id": "0.0-14.0"}}, {"uniqueid": "MTK0101:3Z4XG4ZF49YUVJWQ7E1QYODYR5KX8G", "current_trial": 24, "dateTime": 1509155467024, "trialdata": {"rt": -1000, "stimulus": "/static/audio/wordpool/BACKBONE.wav", "key_press": -1, "type": "PRES_AUD", "word": "backbone", "wordID": 65, "conditions": [18, 1200, "a", 18000], "trial": 0, "serialpos": 3, "trial_type": "single-audio", "trial_index": 24, "time_elapsed": 232675, "internal_node_id": "0.0-15.0"}}, {"uniqueid": "MTK0101:3Z4XG4ZF49YUVJWQ7E1QYODYR5KX8G", "current_trial": 25, "dateTime": 1509155469269, "trialdata": {"rt": -1000, "stimulus": "/static/audio/wordpool/MONSTER.wav", "key_press": -1, "type": "PRES_AUD", "word": "monster", "wordID": 911, "conditions": [18, 1200, "a", 18000], "trial": 0, "serialpos": 4, "trial_type": "single-audio", "trial_index": 25, "time_elapsed": 234920, "internal_node_id": "0.0-16.0"}}, {"uniqueid": "MTK0101:3Z4XG4ZF49YUVJWQ7E1QYODYR5KX8G", "current_trial": 26, "dateTime": 1509155471580, "trialdata": {"rt": -1000, "stimulus": "/static/audio/wordpool/EAGLE.wav", "key_press": -1, "type": "PRES_AUD", "word": "eagle", "wordID": 511, "conditions": [18, 1200, "a", 18000], "trial": 0, "serialpos": 5, "trial_type": "single-audio", "trial_index": 26, "time_elapsed": 237231, "internal_node_id": "0.0-17.0"}}, {"uniqueid": "MTK0101:3Z4XG4ZF49YUVJWQ7E1QYODYR5KX8G", "current_trial": 27, "dateTime": 1509155473651, "trialdata": {"rt": -1000, "stimulus": "/static/audio/wordpool/ICEBERG.wav", "key_press": -1, "type": "PRES_AUD", "word": "iceberg", "wordID": 730, "conditions": [18, 1200, "a", 18000], "trial": 0, "serialpos": 6, "trial_type": "single-audio", "trial_index": 27, "time_elapsed": 239302, "internal_node_id": "0.0-18.0"}}, {"uniqueid": "MTK0101:3Z4XG4ZF49YUVJWQ7E1QYODYR5KX8G", "current_trial": 28, "dateTime": 1509155475943, "trialdata": {"rt": -1000, "stimulus": "/static/audio/wordpool/JOURNAL.wav", "key_press": -1, "type": "PRES_AUD", "word": "journal", "wordID": 759, "conditions": [18, 1200, "a", 18000], "trial": 0, "serialpos": 7, "trial_type": "single-audio", "trial_index": 28, "time_elapsed": 241594, "internal_node_id": "0.0-19.0"}}, {"uniqueid": "MTK0101:3Z4XG4ZF49YUVJWQ7E1QYODYR5KX8G", "current_trial": 29, "dateTime": 1509155478310, "trialdata": {"rt": -1000, "stimulus": "/static/audio/wordpool/FOOTBALL.wav", "key_press": -1, "type": "PRES_AUD", "word": "football", "wordID": 590, "conditions": [18, 1200, "a", 18000], "trial": 0, "serialpos": 8, "trial_type": "single-audio", "trial_index": 29, "time_elapsed": 243961, "internal_node_id": "0.0-20.0"}}, {"uniqueid": "MTK0101:3Z4XG4ZF49YUVJWQ7E1QYODYR5KX8G", "current_trial": 30, "dateTime": 1509155480338, "trialdata": {"rt": -1000, "stimulus": "/static/audio/wordpool/PARROT.wav", "key_press": -1, "type": "PRES_AUD", "word": "parrot", "wordID": 1014, "conditions": [18, 1200, "a", 18000], "trial": 0, "serialpos": 9, "trial_type": "single-audio", "trial_index": 30, "time_elapsed": 245989, "internal_node_id": "0.0-21.0"}}, {"uniqueid": "MTK0101:3Z4XG4ZF49YUVJWQ7E1QYODYR5KX8G", "current_trial": 31, "dateTime": 1509155482482, "trialdata": {"rt": -1000, "stimulus": "/static/audio/wordpool/FOX.wav", "key_press": -1, "type": "PRES_AUD", "word": "fox", "wordID": 597, "conditions": [18, 1200, "a", 18000], "trial": 0, "serialpos": 10, "trial_type": "single-audio", "trial_index": 31, "time_elapsed": 248133, "internal_node_id": "0.0-22.0"}}, {"uniqueid": "MTK0101:3Z4XG4ZF49YUVJWQ7E1QYODYR5KX8G", "current_trial": 32, "dateTime": 1509155484860, "trialdata": {"rt": -1000, "stimulus": "/static/audio/wordpool/CAMEL.wav", "key_press": -1, "type": "PRES_AUD", "word": "camel", "wordID": 222, "conditions": [18, 1200, "a", 18000], "trial": 0, "serialpos": 11, "trial_type": "single-audio", "trial_index": 32, "time_elapsed": 250511, "internal_node_id": "0.0-23.0"}}, {"uniqueid": "MTK0101:3Z4XG4ZF49YUVJWQ7E1QYODYR5KX8G", "current_trial": 33, "dateTime": 1509155487236, "trialdata": {"rt": -1000, "stimulus": "/static/audio/wordpool/COMPASS.wav", "key_press": -1, "type": "PRES_AUD", "word": "compass", "wordID": 357, "conditions": [18, 1200, "a", 18000], "trial": 0, "serialpos": 12, "trial_type": "single-audio", "trial_index": 33, "time_elapsed": 252887, "internal_node_id": "0.0-24.0"}}, {"uniqueid": "MTK0101:3Z4XG4ZF49YUVJWQ7E1QYODYR5KX8G", "current_trial": 34, "dateTime": 1509155489454, "trialdata": {"rt": -1000, "stimulus": "/static/audio/wordpool/EGYPT.wav", "key_press": -1, "type": "PRES_AUD", "word": "egypt", "wordID": 518, "conditions": [18, 1200, "a", 18000], "trial": 0, "serialpos": 13, "trial_type": "single-audio", "trial_index": 34, "time_elapsed": 255105, "internal_node_id": "0.0-25.0"}}, {"uniqueid": "MTK0101:3Z4XG4ZF49YUVJWQ7E1QYODYR5KX8G", "current_trial": 35, "dateTime": 1509155491654, "trialdata": {"rt": -1000, "stimulus": "/static/audio/wordpool/TRUCK.wav", "key_press": -1, "type": "PRES_AUD", "word": "truck", "wordID": 1511, "conditions": [18, 1200, "a", 18000], "trial": 0, "serialpos": 14, "trial_type": "single-audio", "trial_index": 35, "time_elapsed": 257305, "internal_node_id": "0.0-26.0"}}, {"uniqueid": "MTK0101:3Z4XG4ZF49YUVJWQ7E1QYODYR5KX8G", "current_trial": 36, "dateTime": 1509155494029, "trialdata": {"rt": -1000, "stimulus": "/static/audio/wordpool/PICNIC.wav", "key_press": -1, "type": "PRES_AUD", "word": "picnic", "wordID": 1059, "conditions": [18, 1200, "a", 18000], "trial": 0, "serialpos": 15, "trial_type": "single-audio", "trial_index": 36, "time_elapsed": 259680, "internal_node_id": "0.0-27.0"}}, {"uniqueid": "MTK0101:3Z4XG4ZF49YUVJWQ7E1QYODYR5KX8G", "current_trial": 37, "dateTime": 1509155496196, "trialdata": {"rt": -1000, "stimulus": "/static/audio/wordpool/PARENT.wav", "key_press": -1, "type": "PRES_AUD", "word": "parent", "wordID": 1012, "conditions": [18, 1200, "a", 18000], "trial": 0, "serialpos": 16, "trial_type": "single-audio", "trial_index": 37, "time_elapsed": 261847, "internal_node_id": "0.0-28.0"}}, {"uniqueid": "MTK0101:3Z4XG4ZF49YUVJWQ7E1QYODYR5KX8G", "current_trial": 38, "dateTime": 1509155498480, "trialdata": {"rt": -1000, "stimulus": "/static/audio/wordpool/YACHT.wav", "key_press": -1, "type": "PRES_AUD", "word": "yacht", "wordID": 1628, "conditions": [18, 1200, "a", 18000], "trial": 0, "serialpos": 17, "trial_type": "single-audio", "trial_index": 38, "time_elapsed": 264131, "internal_node_id": "0.0-29.0"}}, {"uniqueid": "MTK0101:3Z4XG4ZF49YUVJWQ7E1QYODYR5KX8G", "current_trial": 39, "dateTime": 1509155499727, "trialdata": {"rt": -1, "stimulus": "", "key_press": -1, "type": "PRE_RECALL_DELAY", "trial_type": "single-stim", "trial_index": 39, "time_elapsed": 265378, "internal_node_id": "0.0-30.0-0.0"}}, {"uniqueid": "MTK0101:3Z4XG4ZF49YUVJWQ7E1QYODYR5KX8G", "current_trial": 40, "dateTime": 1509155500229, "trialdata": {"rt": -1000, "stimulus": "/static/audio/400Hz.wav", "key_press": -1, "type": "PRE_RECALL_ALERT", "trial_type": "single-audio", "trial_index": 40, "time_elapsed": 265880, "internal_node_id": "0.0-31.0"}}, {"uniqueid": "MTK0101:3Z4XG4ZF49YUVJWQ7E1QYODYR5KX8G", "current_trial": 41, "dateTime": 1509155560239, "trialdata": {"rt": [1346, 2695, 3640, 4968, 6532, 12652, 29302, 43803, 50013], "recwords": ["yacht", "husband", "monster", "footbal", "paris", "switch", "monster", "husband", "parish"], "type": "FREE_RECALL", "conditions": [18, 1200, "a", 18000], "trial": 0, "trial_type": "free-recall", "trial_index": 41, "time_elapsed": 325887, "internal_node_id": "0.0-32.0-0.0"}}, {"uniqueid": "MTK0101:3Z4XG4ZF49YUVJWQ7E1QYODYR5KX8G", "current_trial": 42, "dateTime": 1509155563880, "trialdata": {"rt": 1638, "key_press": 13, "type": "INSTRUCTIONS", "trial_type": "text", "trial_index": 42, "time_elapsed": 329531, "internal_node_id": "0.0-33.0"}}, {"uniqueid": "MTK0101:3Z4XG4ZF49YUVJWQ7E1QYODYR5KX8G", "current_trial": 43, "dateTime": 1509155583888, "trialdata": {"rt": [5443, 8346, 12508, 16187, 17964], "responses": ["13", "17", "25", "15", "16"], "num1": [4, 5, 7, 4, 7, 9], "num2": [2, 6, 9, 5, 3, 8], "num3": [7, 6, 9, 6, 6, 1], "type": "DISTRACTOR", "conditions": [18, 1200, "v", 18000], "trial": 1, "trial_type": "math-distractor", "trial_index": 43, "time_elapsed": 349539, "internal_node_id": "0.0-34.0"}}, {"uniqueid": "MTK0101:3Z4XG4ZF49YUVJWQ7E1QYODYR5KX8G", "current_trial": 44, "dateTime": 1509155586894, "trialdata": {"rt": -1, "stimulus": "<p id=\"stim\">10</p>", "key_press": -1, "trial_type": "single-stim", "trial_index": 44, "time_elapsed": 352545, "internal_node_id": "0.0-35.0-0.0"}}, {"uniqueid": "MTK0101:3Z4XG4ZF49YUVJWQ7E1QYODYR5KX8G", "current_trial": 45, "dateTime": 1509155587898, "trialdata": {"rt": -1, "stimulus": "<p id=\"stim\">9</p>", "key_press": -1, "trial_type": "single-stim", "trial_index": 45, "time_elapsed": 353549, "internal_node_id": "0.0-35.0-1.0"}}, {"uniqueid": "MTK0101:3Z4XG4ZF49YUVJWQ7E1QYODYR5KX8G", "current_trial": 46, "dateTime": 1509155588902, "trialdata": {"rt": -1, "stimulus": "<p id=\"stim\">8</p>", "key_press": -1, "trial_type": "single-stim", "trial_index": 46, "time_elapsed": 354553, "internal_node_id": "0.0-35.0-2.0"}}, {"uniqueid": "MTK0101:3Z4XG4ZF49YUVJWQ7E1QYODYR5KX8G", "current_trial": 47, "dateTime": 1509155589906, "trialdata": {"rt": -1, "stimulus": "<p id=\"stim\">7</p>", "key_press": -1, "trial_type": "single-stim", "trial_index": 47, "time_elapsed": 355557, "internal_node_id": "0.0-35.0-3.0"}}, {"uniqueid": "MTK0101:3Z4XG4ZF49YUVJWQ7E1QYODYR5KX8G", "current_trial": 48, "dateTime": 1509155590910, "trialdata": {"rt": -1, "stimulus": "<p id=\"stim\">6</p>", "key_press": -1, "trial_type": "single-stim", "trial_index": 48, "time_elapsed": 356561, "internal_node_id": "0.0-35.0-4.0"}}, {"uniqueid": "MTK0101:3Z4XG4ZF49YUVJWQ7E1QYODYR5KX8G", "current_trial": 49, "dateTime": 1509155591915, "trialdata": {"rt": -1, "stimulus": "<p id=\"stim\">5</p>", "key_press": -1, "trial_type": "single-stim", "trial_index": 49, "time_elapsed": 357565, "internal_node_id": "0.0-35.0-5.0"}}, {"uniqueid": "MTK0101:3Z4XG4ZF49YUVJWQ7E1QYODYR5KX8G", "current_trial": 50, "dateTime": 1509155592918, "trialdata": {"rt": -1, "stimulus": "<p id=\"stim\">4</p>", "key_press": -1, "trial_type": "single-stim", "trial_index": 50, "time_elapsed": 358569, "internal_node_id": "0.0-35.0-6.0"}}, {"uniqueid": "MTK0101:3Z4XG4ZF49YUVJWQ7E1QYODYR5KX8G", "current_trial": 51, "dateTime": 1509155593923, "trialdata": {"rt": -1, "stimulus": "<p id=\"stim\">3</p>", "key_press": -1, "trial_type": "single-stim", "trial_index": 51, "time_elapsed": 359574, "internal_node_id": "0.0-35.0-7.0"}}, {"uniqueid": "MTK0101:3Z4XG4ZF49YUVJWQ7E1QYODYR5KX8G", "current_trial": 52, "dateTime": 1509155594927, "trialdata": {"rt": -1, "stimulus": "<p id=\"stim\">2</p>", "key_press": -1, "trial_type": "single-stim", "trial_index": 52, "time_elapsed": 360578, "internal_node_id": "0.0-35.0-8.0"}}, {"uniqueid": "MTK0101:3Z4XG4ZF49YUVJWQ7E1QYODYR5KX8G", "current_trial": 53, "dateTime": 1509155595931, "trialdata": {"rt": -1, "stimulus": "<p id=\"stim\">1</p>", "key_press": -1, "trial_type": "single-stim", "trial_index": 53, "time_elapsed": 361582, "internal_node_id": "0.0-35.0-9.0"}}, {"uniqueid": "MTK0101:3Z4XG4ZF49YUVJWQ7E1QYODYR5KX8G", "current_trial": 54, "dateTime": 1509155597434, "trialdata": {"rt": -1, "stimulus": "<p id=\"stim\">+</p>", "key_press": -1, "type": "FIXATION", "trial_type": "single-stim", "trial_index": 54, "time_elapsed": 363085, "internal_node_id": "0.0-36.0-0.0"}}, {"uniqueid": "MTK0101:3Z4XG4ZF49YUVJWQ7E1QYODYR5KX8G", "current_trial": 55, "dateTime": 1509155598636, "trialdata": {"rt": -1, "stimulus": "<p id=\"stim\">PERMIT</p>", "key_press": -1, "type": "PRES_VIS", "word": "permit", "wordID": 1050, "conditions": [18, 1200, "v", 18000], "trial": 1, "serialpos": 0, "trial_type": "single-stim", "trial_index": 55, "time_elapsed": 364286, "internal_node_id": "0.0-37.0"}}, {"uniqueid": "MTK0101:3Z4XG4ZF49YUVJWQ7E1QYODYR5KX8G", "current_trial": 56, "dateTime": 1509155600916, "trialdata": {"rt": -1, "stimulus": "<p id=\"stim\">COUSIN</p>", "key_press": -1, "type": "PRES_VIS", "word": "cousin", "wordID": 391, "conditions": [18, 1200, "v", 18000], "trial": 1, "serialpos": 1, "trial_type": "single-stim", "trial_index": 56, "time_elapsed": 366567, "internal_node_id": "0.0-38.0"}}, {"uniqueid": "MTK0101:3Z4XG4ZF49YUVJWQ7E1QYODYR5KX8G", "current_trial": 57, "dateTime": 1509155603192, "trialdata": {"rt": -1, "stimulus": "<p id=\"stim\">GRAPE</p>", "key_press": -1, "type": "PRES_VIS", "word": "grape", "wordID": 653, "conditions": [18, 1200, "v", 18000], "trial": 1, "serialpos": 2, "trial_type": "single-stim", "trial_index": 57, "time_elapsed": 368843, "internal_node_id": "0.0-39.0"}}, {"uniqueid": "MTK0101:3Z4XG4ZF49YUVJWQ7E1QYODYR5KX8G", "current_trial": 58, "dateTime": 1509155605356, "trialdata": {"rt": -1, "stimulus": "<p id=\"stim\">LASER</p>", "key_press": -1, "type": "PRES_VIS", "word": "laser", "wordID": 800, "conditions": [18, 1200, "v", 18000], "trial": 1, "serialpos": 3, "trial_type": "single-stim", "trial_index": 58, "time_elapsed": 371007, "internal_node_id": "0.0-40.0"}}, {"uniqueid": "MTK0101:3Z4XG4ZF49YUVJWQ7E1QYODYR5KX8G", "current_trial": 59, "dateTime": 1509155607371, "trialdata": {"rt": -1, "stimulus": "<p id=\"stim\">MAILMAN</p>", "key_press": -1, "type": "PRES_VIS", "word": "mailman", "wordID": 857, "conditions": [18, 1200, "v", 18000], "trial": 1, "serialpos": 4, "trial_type": "single-stim", "trial_index": 59, "time_elapsed": 373022, "internal_node_id": "0.0-41.0"}}, {"uniqueid": "MTK0101:3Z4XG4ZF49YUVJWQ7E1QYODYR5KX8G", "current_trial": 60, "dateTime": 1509155609512, "trialdata": {"rt": -1, "stimulus": "<p id=\"stim\">KETCHUP</p>", "key_press": -1, "type": "PRES_VIS", "word": "ketchup", "wordID": 770, "conditions": [18, 1200, "v", 18000], "trial": 1, "serialpos": 5, "trial_type": "single-stim", "trial_index": 60, "time_elapsed": 375163, "internal_node_id": "0.0-42.0"}}, {"uniqueid": "MTK0101:3Z4XG4ZF49YUVJWQ7E1QYODYR5KX8G", "current_trial": 61, "dateTime": 1509155611783, "trialdata": {"rt": -1, "stimulus": "<p id=\"stim\">POSSUM</p>", "key_press": -1, "type": "PRES_VIS", "word": "possum", "wordID": 1111, "conditions": [18, 1200, "v", 18000], "trial": 1, "serialpos": 6, "trial_type": "single-stim", "trial_index": 61, "time_elapsed": 377434, "internal_node_id": "0.0-43.0"}}, {"uniqueid": "MTK0101:3Z4XG4ZF49YUVJWQ7E1QYODYR5KX8G", "current_trial": 62, "dateTime": 1509155613894, "trialdata": {"rt": -1, "stimulus": "<p id=\"stim\">LADY</p>", "key_press": -1, "type": "PRES_VIS", "word": "lady", "wordID": 793, "conditions": [18, 1200, "v", 18000], "trial": 1, "serialpos": 7, "trial_type": "single-stim", "trial_index": 62, "time_elapsed": 379545, "internal_node_id": "0.0-44.0"}}, {"uniqueid": "MTK0101:3Z4XG4ZF49YUVJWQ7E1QYODYR5KX8G", "current_trial": 63, "dateTime": 1509155616228, "trialdata": {"rt": -1, "stimulus": "<p id=\"stim\">PEACH</p>", "key_press": -1, "type": "PRES_VIS", "word": "peach", "wordID": 1030, "conditions": [18, 1200, "v", 18000], "trial": 1, "serialpos": 8, "trial_type": "single-stim", "trial_index": 63, "time_elapsed": 381879, "internal_node_id": "0.0-45.0"}}, {"uniqueid": "MTK0101:3Z4XG4ZF49YUVJWQ7E1QYODYR5KX8G", "current_trial": 64, "dateTime": 1509155618271, "trialdata": {"rt": -1, "stimulus": "<p id=\"stim\">POPCORN</p>", "key_press": -1, "type": "PRES_VIS", "word": "popcorn", "wordID": 1103, "conditions": [18, 1200, "v", 18000], "trial": 1, "serialpos": 9, "trial_type": "single-stim", "trial_index": 64, "time_elapsed": 383922, "internal_node_id": "0.0-46.0"}}, {"uniqueid": "MTK0101:3Z4XG4ZF49YUVJWQ7E1QYODYR5KX8G", "current_trial": 65, "dateTime": 1509155620405, "trialdata": {"rt": -1, "stimulus": "<p id=\"stim\">WIDOW</p>", "key_press": -1, "type": "PRES_VIS", "word": "widow", "wordID": 1607, "conditions": [18, 1200, "v", 18000], "trial": 1, "serialpos": 10, "trial_type": "single-stim", "trial_index": 65, "time_elapsed": 386056, "internal_node_id": "0.0-47.0"}}, {"uniqueid": "MTK0101:3Z4XG4ZF49YUVJWQ7E1QYODYR5KX8G", "current_trial": 66, "dateTime": 1509155622705, "trialdata": {"rt": -1, "stimulus": "<p id=\"stim\">STREAM</p>", "key_press": -1, "type": "PRES_VIS", "word": "stream", "wordID": 1391, "conditions": [18, 1200, "v", 18000], "trial": 1, "serialpos": 11, "trial_type": "single-stim", "trial_index": 66, "time_elapsed": 388355, "internal_node_id": "0.0-48.0"}}, {"uniqueid": "MTK0101:3Z4XG4ZF49YUVJWQ7E1QYODYR5KX8G", "current_trial": 67, "dateTime": 1509155624934, "trialdata": {"rt": -1, "stimulus": "<p id=\"stim\">BREAST</p>", "key_press": -1, "type": "PRES_VIS", "word": "breast", "wordID": 170, "conditions": [18, 1200, "v", 18000], "trial": 1, "serialpos": 12, "trial_type": "single-stim", "trial_index": 67, "time_elapsed": 390585, "internal_node_id": "0.0-49.0"}}, {"uniqueid": "MTK0101:3Z4XG4ZF49YUVJWQ7E1QYODYR5KX8G", "current_trial": 68, "dateTime": 1509155627204, "trialdata": {"rt": -1, "stimulus": "<p id=\"stim\">MATCH</p>", "key_press": -1, "type": "PRES_VIS", "word": "match", "wordID": 877, "conditions": [18, 1200, "v", 18000], "trial": 1, "serialpos": 13, "trial_type": "single-stim", "trial_index": 68, "time_elapsed": 392854, "internal_node_id": "0.0-50.0"}}, {"uniqueid": "MTK0101:3Z4XG4ZF49YUVJWQ7E1QYODYR5KX8G", "current_trial": 69, "dateTime": 1509155629585, "trialdata": {"rt": -1, "stimulus": "<p id=\"stim\">VELVET</p>", "key_press": -1, "type": "PRES_VIS", "word": "velvet", "wordID": 1554, "conditions": [18, 1200, "v", 18000], "trial": 1, "serialpos": 14, "trial_type": "single-stim", "trial_index": 69, "time_elapsed": 395236, "internal_node_id": "0.0-51.0"}}, {"uniqueid": "MTK0101:3Z4XG4ZF49YUVJWQ7E1QYODYR5KX8G", "current_trial": 70, "dateTime": 1509155631748, "trialdata": {"rt": -1, "stimulus": "<p id=\"stim\">PATIENT</p>", "key_press": -1, "type": "PRES_VIS", "word": "patient", "wordID": 1023, "conditions": [18, 1200, "v", 18000], "trial": 1, "serialpos": 15, "trial_type": "single-stim", "trial_index": 70, "time_elapsed": 397399, "internal_node_id": "0.0-52.0"}}, {"uniqueid": "MTK0101:3Z4XG4ZF49YUVJWQ7E1QYODYR5KX8G", "current_trial": 71, "dateTime": 1509155633849, "trialdata": {"rt": -1, "stimulus": "<p id=\"stim\">EMPIRE</p>", "key_press": -1, "type": "PRES_VIS", "word": "empire", "wordID": 529, "conditions": [18, 1200, "v", 18000], "trial": 1, "serialpos": 16, "trial_type": "single-stim", "trial_index": 71, "time_elapsed": 399500, "internal_node_id": "0.0-53.0"}}, {"uniqueid": "MTK0101:3Z4XG4ZF49YUVJWQ7E1QYODYR5KX8G", "current_trial": 72, "dateTime": 1509155636103, "trialdata": {"rt": -1, "stimulus": "<p id=\"stim\">HUMAN</p>", "key_press": -1, "type": "PRES_VIS", "word": "human", "wordID": 725, "conditions": [18, 1200, "v", 18000], "trial": 1, "serialpos": 17, "trial_type": "single-stim", "trial_index": 72, "time_elapsed": 401754, "internal_node_id": "0.0-54.0"}}, {"uniqueid": "MTK0101:3Z4XG4ZF49YUVJWQ7E1QYODYR5KX8G", "current_trial": 73, "dateTime": 1509155638411, "trialdata": {"rt": -1, "stimulus": "", "key_press": -1, "type": "PRE_RECALL_DELAY", "trial_type": "single-stim", "trial_index": 73, "time_elapsed": 404062, "internal_node_id": "0.0-55.0-0.0"}}, {"uniqueid": "MTK0101:3Z4XG4ZF49YUVJWQ7E1QYODYR5KX8G", "current_trial": 74, "dateTime": 1509155638913, "trialdata": {"rt": -1000, "stimulus": "/static/audio/400Hz.wav", "key_press": -1, "type": "PRE_RECALL_ALERT", "trial_type": "single-audio", "trial_index": 74, "time_elapsed": 404564, "internal_node_id": "0.0-56.0"}}, {"uniqueid": "MTK0101:3Z4XG4ZF49YUVJWQ7E1QYODYR5KX8G", "current_trial": 75, "dateTime": 1509155698922, "trialdata": {"rt": [6821, 8486, 10083, 12694, 15281, 19185, 21232, 22492, 24326, 25687, 27408, 31819, 35587, 36791, 38974, 39964, 42675, 51788, 52642], "recwords": ["permit", "grape", "laser", "mailman", "catsup", "possum", "peach", "lady", "popcorn", "widow", "stream", "match", "possum", "patient", "empire", "grape", "human", "permit", "cousin"], "type": "FREE_RECALL", "conditions": [18, 1200, "v", 18000], "trial": 1, "trial_type": "free-recall", "trial_index": 75, "time_elapsed": 464571, "internal_node_id": "0.0-57.0-0.0"}}, {"uniqueid": "MTK0101:3Z4XG4ZF49YUVJWQ7E1QYODYR5KX8G", "current_trial": 76, "dateTime": 1509155702909, "trialdata": {"rt": 1984, "key_press": 13, "type": "INSTRUCTIONS", "trial_type": "text", "trial_index": 76, "time_elapsed": 468560, "internal_node_id": "0.0-58.0"}}, {"uniqueid": "MTK0101:3Z4XG4ZF49YUVJWQ7E1QYODYR5KX8G", "current_trial": 77, "dateTime": 1509155715917, "trialdata": {"rt": [2133, 4574, 9120], "responses": ["16", "17", "17"], "num1": [6, 8, 5, 8], "num2": [4, 7, 9, 5], "num3": [6, 2, 3, 1], "type": "DISTRACTOR", "conditions": [24, 800, "v", 12000], "trial": 2, "trial_type": "math-distractor", "trial_index": 77, "time_elapsed": 481568, "internal_node_id": "0.0-59.0"}}, {"uniqueid": "MTK0101:3Z4XG4ZF49YUVJWQ7E1QYODYR5KX8G", "current_trial": 78, "dateTime": 1509155718923, "trialdata": {"rt": -1, "stimulus": "<p id=\"stim\">10</p>", "key_press": -1, "trial_type": "single-stim", "trial_index": 78, "time_elapsed": 484574, "internal_node_id": "0.0-60.0-0.0"}}, {"uniqueid": "MTK0101:3Z4XG4ZF49YUVJWQ7E1QYODYR5KX8G", "current_trial": 79, "dateTime": 1509155719927, "trialdata": {"rt": -1, "stimulus": "<p id=\"stim\">9</p>", "key_press": -1, "trial_type": "single-stim", "trial_index": 79, "time_elapsed": 485578, "internal_node_id": "0.0-60.0-1.0"}}, {"uniqueid": "MTK0101:3Z4XG4ZF49YUVJWQ7E1QYODYR5KX8G", "current_trial": 80, "dateTime": 1509155720931, "trialdata": {"rt": -1, "stimulus": "<p id=\"stim\">8</p>", "key_press": -1, "trial_type": "single-stim", "trial_index": 80, "time_elapsed": 486582, "internal_node_id": "0.0-60.0-2.0"}}, {"uniqueid": "MTK0101:3Z4XG4ZF49YUVJWQ7E1QYODYR5KX8G", "current_trial": 81, "dateTime": 1509155721936, "trialdata": {"rt": -1, "stimulus": "<p id=\"stim\">7</p>", "key_press": -1, "trial_type": "single-stim", "trial_index": 81, "time_elapsed": 487586, "internal_node_id": "0.0-60.0-3.0"}}, {"uniqueid": "MTK0101:3Z4XG4ZF49YUVJWQ7E1QYODYR5KX8G", "current_trial": 82, "dateTime": 1509155722940, "trialdata": {"rt": -1, "stimulus": "<p id=\"stim\">6</p>", "key_press": -1, "trial_type": "single-stim", "trial_index": 82, "time_elapsed": 488590, "internal_node_id": "0.0-60.0-4.0"}}, {"uniqueid": "MTK0101:3Z4XG4ZF49YUVJWQ7E1QYODYR5KX8G", "current_trial": 83, "dateTime": 1509155723943, "trialdata": {"rt": -1, "stimulus": "<p id=\"stim\">5</p>", "key_press": -1, "trial_type": "single-stim", "trial_index": 83, "time_elapsed": 489594, "internal_node_id": "0.0-60.0-5.0"}}, {"uniqueid": "MTK0101:3Z4XG4ZF49YUVJWQ7E1QYODYR5KX8G", "current_trial": 84, "dateTime": 1509155724946, "trialdata": {"rt": -1, "stimulus": "<p id=\"stim\">4</p>", "key_press": -1, "trial_type": "single-stim", "trial_index": 84, "time_elapsed": 490597, "internal_node_id": "0.0-60.0-6.0"}}, {"uniqueid": "MTK0101:3Z4XG4ZF49YUVJWQ7E1QYODYR5KX8G", "current_trial": 85, "dateTime": 1509155725952, "trialdata": {"rt": -1, "stimulus": "<p id=\"stim\">3</p>", "key_press": -1, "trial_type": "single-stim", "trial_index": 85, "time_elapsed": 491603, "internal_node_id": "0.0-60.0-7.0"}}, {"uniqueid": "MTK0101:3Z4XG4ZF49YUVJWQ7E1QYODYR5KX8G", "current_trial": 86, "dateTime": 1509155726956, "trialdata": {"rt": -1, "stimulus": "<p id=\"stim\">2</p>", "key_press": -1, "trial_type": "single-stim", "trial_index": 86, "time_elapsed": 492607, "internal_node_id": "0.0-60.0-8.0"}}, {"uniqueid": "MTK0101:3Z4XG4ZF49YUVJWQ7E1QYODYR5KX8G", "current_trial": 87, "dateTime": 1509155727960, "trialdata": {"rt": -1, "stimulus": "<p id=\"stim\">1</p>", "key_press": -1, "trial_type": "single-stim", "trial_index": 87, "time_elapsed": 493611, "internal_node_id": "0.0-60.0-9.0"}}, {"uniqueid": "MTK0101:3Z4XG4ZF49YUVJWQ7E1QYODYR5KX8G", "current_trial": 88, "dateTime": 1509155729463, "trialdata": {"rt": -1, "stimulus": "<p id=\"stim\">+</p>", "key_press": -1, "type": "FIXATION", "trial_type": "single-stim", "trial_index": 88, "time_elapsed": 495114, "internal_node_id": "0.0-61.0-0.0"}}, {"uniqueid": "MTK0101:3Z4XG4ZF49YUVJWQ7E1QYODYR5KX8G", "current_trial": 89, "dateTime": 1509155730268, "trialdata": {"rt": 703, "stimulus": "<p id=\"stim\">DOLPHIN</p>", "key_press": 68, "type": "PRES_VIS", "word": "dolphin", "wordID": 482, "conditions": [24, 800, "v", 12000], "trial": 2, "serialpos": 0, "trial_type": "single-stim", "trial_index": 89, "time_elapsed": 495919, "internal_node_id": "0.0-62.0"}}, {"uniqueid": "MTK0101:3Z4XG4ZF49YUVJWQ7E1QYODYR5KX8G", "current_trial": 90, "dateTime": 1509155732004, "trialdata": {"rt": -1, "stimulus": "<p id=\"stim\">GROUND</p>", "key_press": -1, "type": "PRES_VIS", "word": "ground", "wordID": 665, "conditions": [24, 800, "v", 12000], "trial": 2, "serialpos": 1, "trial_type": "single-stim", "trial_index": 90, "time_elapsed": 497655, "internal_node_id": "0.0-63.0"}}, {"uniqueid": "MTK0101:3Z4XG4ZF49YUVJWQ7E1QYODYR5KX8G", "current_trial": 91, "dateTime": 1509155733895, "trialdata": {"rt": -1, "stimulus": "<p id=\"stim\">HOOD</p>", "key_press": -1, "type": "PRES_VIS", "word": "hood", "wordID": 713, "conditions": [24, 800, "v", 12000], "trial": 2, "serialpos": 2, "trial_type": "single-stim", "trial_index": 91, "time_elapsed": 499545, "internal_node_id": "0.0-64.0"}}, {"uniqueid": "MTK0101:3Z4XG4ZF49YUVJWQ7E1QYODYR5KX8G", "current_trial": 92, "dateTime": 1509155735842, "trialdata": {"rt": -1, "stimulus": "<p id=\"stim\">LAMP</p>", "key_press": -1, "type": "PRES_VIS", "word": "lamp", "wordID": 797, "conditions": [24, 800, "v", 12000], "trial": 2, "serialpos": 3, "trial_type": "single-stim", "trial_index": 92, "time_elapsed": 501493, "internal_node_id": "0.0-65.0"}}, {"uniqueid": "MTK0101:3Z4XG4ZF49YUVJWQ7E1QYODYR5KX8G", "current_trial": 93, "dateTime": 1509155737792, "trialdata": {"rt": -1, "stimulus": "<p id=\"stim\">PUDDING</p>", "key_press": -1, "type": "PRES_VIS", "word": "pudding", "wordID": 1138, "conditions": [24, 800, "v", 12000], "trial": 2, "serialpos": 4, "trial_type": "single-stim", "trial_index": 93, "time_elapsed": 503443, "internal_node_id": "0.0-66.0"}}, {"uniqueid": "MTK0101:3Z4XG4ZF49YUVJWQ7E1QYODYR5KX8G", "current_trial": 94, "dateTime": 1509155739644, "trialdata": {"rt": -1, "stimulus": "<p id=\"stim\">PENGUIN</p>", "key_press": -1, "type": "PRES_VIS", "word": "penguin", "wordID": 1043, "conditions": [24, 800, "v", 12000], "trial": 2, "serialpos": 5, "trial_type": "single-stim", "trial_index": 94, "time_elapsed": 505295, "internal_node_id": "0.0-67.0"}}, {"uniqueid": "MTK0101:3Z4XG4ZF49YUVJWQ7E1QYODYR5KX8G", "current_trial": 95, "dateTime": 1509155741438, "trialdata": {"rt": -1, "stimulus": "<p id=\"stim\">FOOT</p>", "key_press": -1, "type": "PRES_VIS", "word": "foot", "wordID": 589, "conditions": [24, 800, "v", 12000], "trial": 2, "serialpos": 6, "trial_type": "single-stim", "trial_index": 95, "time_elapsed": 507089, "internal_node_id": "0.0-68.0"}}, {"uniqueid": "MTK0101:3Z4XG4ZF49YUVJWQ7E1QYODYR5KX8G", "current_trial": 96, "dateTime": 1509155743416, "trialdata": {"rt": -1, "stimulus": "<p id=\"stim\">CIGAR</p>", "key_press": -1, "type": "PRES_VIS", "word": "cigar", "wordID": 307, "conditions": [24, 800, "v", 12000], "trial": 2, "serialpos": 7, "trial_type": "single-stim", "trial_index": 96, "time_elapsed": 509067, "internal_node_id": "0.0-69.0"}}, {"uniqueid": "MTK0101:3Z4XG4ZF49YUVJWQ7E1QYODYR5KX8G", "current_trial": 97, "dateTime": 1509155745096, "trialdata": {"rt": -1, "stimulus": "<p id=\"stim\">WAITER</p>", "key_press": -1, "type": "PRES_VIS", "word": "waiter", "wordID": 1579, "conditions": [24, 800, "v", 12000], "trial": 2, "serialpos": 8, "trial_type": "single-stim", "trial_index": 97, "time_elapsed": 510746, "internal_node_id": "0.0-70.0"}}, {"uniqueid": "MTK0101:3Z4XG4ZF49YUVJWQ7E1QYODYR5KX8G", "current_trial": 98, "dateTime": 1509155747100, "trialdata": {"rt": -1, "stimulus": "<p id=\"stim\">PIZZA</p>", "key_press": -1, "type": "PRES_VIS", "word": "pizza", "wordID": 1078, "conditions": [24, 800, "v", 12000], "trial": 2, "serialpos": 9, "trial_type": "single-stim", "trial_index": 98, "time_elapsed": 512751, "internal_node_id": "0.0-71.0"}}, {"uniqueid": "MTK0101:3Z4XG4ZF49YUVJWQ7E1QYODYR5KX8G", "current_trial": 99, "dateTime": 1509155749029, "trialdata": {"rt": -1, "stimulus": "<p id=\"stim\">DINER</p>", "key_press": -1, "type": "PRES_VIS", "word": "diner", "wordID": 466, "conditions": [24, 800, "v", 12000], "trial": 2, "serialpos": 10, "trial_type": "single-stim", "trial_index": 99, "time_elapsed": 514680, "internal_node_id": "0.0-72.0"}}, {"uniqueid": "MTK0101:3Z4XG4ZF49YUVJWQ7E1QYODYR5KX8G", "current_trial": 100, "dateTime": 1509155750729, "trialdata": {"rt": -1, "stimulus": "<p id=\"stim\">RUST</p>", "key_press": -1, "type": "PRES_VIS", "word": "rust", "wordID": 1218, "conditions": [24, 800, "v", 12000], "trial": 2, "serialpos": 11, "trial_type": "single-stim", "trial_index": 100, "time_elapsed": 516380, "internal_node_id": "0.0-73.0"}}, {"uniqueid": "MTK0101:3Z4XG4ZF49YUVJWQ7E1QYODYR5KX8G", "current_trial": 101, "dateTime": 1509155752556, "trialdata": {"rt": -1, "stimulus": "<p id=\"stim\">SWIMMER</p>", "key_press": -1, "type": "PRES_VIS", "word": "swimmer", "wordID": 1419, "conditions": [24, 800, "v", 12000], "trial": 2, "serialpos": 12, "trial_type": "single-stim", "trial_index": 101, "time_elapsed": 518207, "internal_node_id": "0.0-74.0"}}, {"uniqueid": "MTK0101:3Z4XG4ZF49YUVJWQ7E1QYODYR5KX8G", "current_trial": 102, "dateTime": 1509155754339, "trialdata": {"rt": -1, "stimulus": "<p id=\"stim\">VIKING</p>", "key_press": -1, "type": "PRES_VIS", "word": "viking", "wordID": 1564, "conditions": [24, 800, "v", 12000], "trial": 2, "serialpos": 13, "trial_type": "single-stim", "trial_index": 102, "time_elapsed": 519990, "internal_node_id": "0.0-75.0"}}, {"uniqueid": "MTK0101:3Z4XG4ZF49YUVJWQ7E1QYODYR5KX8G", "current_trial": 103, "dateTime": 1509155756290, "trialdata": {"rt": -1, "stimulus": "<p id=\"stim\">CHILD</p>", "key_press": -1, "type": "PRES_VIS", "word": "child", "wordID": 298, "conditions": [24, 800, "v", 12000], "trial": 2, "serialpos": 14, "trial_type": "single-stim", "trial_index": 103, "time_elapsed": 521941, "internal_node_id": "0.0-76.0"}}, {"uniqueid": "MTK0101:3Z4XG4ZF49YUVJWQ7E1QYODYR5KX8G", "current_trial": 104, "dateTime": 1509155758063, "trialdata": {"rt": -1, "stimulus": "<p id=\"stim\">PATROL</p>", "key_press": -1, "type": "PRES_VIS", "word": "patrol", "wordID": 1026, "conditions": [24, 800, "v", 12000], "trial": 2, "serialpos": 15, "trial_type": "single-stim", "trial_index": 104, "time_elapsed": 523714, "internal_node_id": "0.0-77.0"}}, {"uniqueid": "MTK0101:3Z4XG4ZF49YUVJWQ7E1QYODYR5KX8G", "current_trial": 105, "dateTime": 1509155759819, "trialdata": {"rt": -1, "stimulus": "<p id=\"stim\">LIZARD</p>", "key_press": -1, "type": "PRES_VIS", "word": "lizard", "wordID": 833, "conditions": [24, 800, "v", 12000], "trial": 2, "serialpos": 16, "trial_type": "single-stim", "trial_index": 105, "time_elapsed": 525469, "internal_node_id": "0.0-78.0"}}, {"uniqueid": "MTK0101:3Z4XG4ZF49YUVJWQ7E1QYODYR5KX8G", "current_trial": 106, "dateTime": 1509155761575, "trialdata": {"rt": -1, "stimulus": "<p id=\"stim\">PLAYGROUND</p>", "key_press": -1, "type": "PRES_VIS", "word": "playground", "wordID": 1086, "conditions": [24, 800, "v", 12000], "trial": 2, "serialpos": 17, "trial_type": "single-stim", "trial_index": 106, "time_elapsed": 527226, "internal_node_id": "0.0-79.0"}}, {"uniqueid": "MTK0101:3Z4XG4ZF49YUVJWQ7E1QYODYR5KX8G", "current_trial": 107, "dateTime": 1509155763554, "trialdata": {"rt": -1, "stimulus": "<p id=\"stim\">WASHER</p>", "key_press": -1, "type": "PRES_VIS", "word": "washer", "wordID": 1591, "conditions": [24, 800, "v", 12000], "trial": 2, "serialpos": 18, "trial_type": "single-stim", "trial_index": 107, "time_elapsed": 529205, "internal_node_id": "0.0-80.0"}}, {"uniqueid": "MTK0101:3Z4XG4ZF49YUVJWQ7E1QYODYR5KX8G", "current_trial": 108, "dateTime": 1509155765210, "trialdata": {"rt": -1, "stimulus": "<p id=\"stim\">SPARROW</p>", "key_press": -1, "type": "PRES_VIS", "word": "sparrow", "wordID": 1346, "conditions": [24, 800, "v", 12000], "trial": 2, "serialpos": 19, "trial_type": "single-stim", "trial_index": 108, "time_elapsed": 530861, "internal_node_id": "0.0-81.0"}}, {"uniqueid": "MTK0101:3Z4XG4ZF49YUVJWQ7E1QYODYR5KX8G", "current_trial": 109, "dateTime": 1509155767125, "trialdata": {"rt": -1, "stimulus": "<p id=\"stim\">ROBIN</p>", "key_press": -1, "type": "PRES_VIS", "word": "robin", "wordID": 1198, "conditions": [24, 800, "v", 12000], "trial": 2, "serialpos": 20, "trial_type": "single-stim", "trial_index": 109, "time_elapsed": 532776, "internal_node_id": "0.0-82.0"}}, {"uniqueid": "MTK0101:3Z4XG4ZF49YUVJWQ7E1QYODYR5KX8G", "current_trial": 110, "dateTime": 1509155768815, "trialdata": {"rt": -1, "stimulus": "<p id=\"stim\">SPIDER</p>", "key_press": -1, "type": "PRES_VIS", "word": "spider", "wordID": 1350, "conditions": [24, 800, "v", 12000], "trial": 2, "serialpos": 21, "trial_type": "single-stim", "trial_index": 110, "time_elapsed": 534466, "internal_node_id": "0.0-83.0"}}, {"uniqueid": "MTK0101:3Z4XG4ZF49YUVJWQ7E1QYODYR5KX8G", "current_trial": 111, "dateTime": 1509155770453, "trialdata": {"rt": -1, "stimulus": "<p id=\"stim\">GRILL</p>", "key_press": -1, "type": "PRES_VIS", "word": "grill", "wordID": 660, "conditions": [24, 800, "v", 12000], "trial": 2, "serialpos": 22, "trial_type": "single-stim", "trial_index": 111, "time_elapsed": 536104, "internal_node_id": "0.0-84.0"}}, {"uniqueid": "MTK0101:3Z4XG4ZF49YUVJWQ7E1QYODYR5KX8G", "current_trial": 112, "dateTime": 1509155772165, "trialdata": {"rt": -1, "stimulus": "<p id=\"stim\">GIRL</p>", "key_press": -1, "type": "PRES_VIS", "word": "girl", "wordID": 636, "conditions": [24, 800, "v", 12000], "trial": 2, "serialpos": 23, "trial_type": "single-stim", "trial_index": 112, "time_elapsed": 537816, "internal_node_id": "0.0-85.0"}}, {"uniqueid": "MTK0101:3Z4XG4ZF49YUVJWQ7E1QYODYR5KX8G", "current_trial": 113, "dateTime": 1509155774557, "trialdata": {"rt": -1, "stimulus": "", "key_press": -1, "type": "PRE_RECALL_DELAY", "trial_type": "single-stim", "trial_index": 113, "time_elapsed": 540208, "internal_node_id": "0.0-86.0-0.0"}}, {"uniqueid": "MTK0101:3Z4XG4ZF49YUVJWQ7E1QYODYR5KX8G", "current_trial": 114, "dateTime": 1509155775059, "trialdata": {"rt": -1000, "stimulus": "/static/audio/400Hz.wav", "key_press": -1, "type": "PRE_RECALL_ALERT", "trial_type": "single-audio", "trial_index": 114, "time_elapsed": 540710, "internal_node_id": "0.0-87.0"}}, {"uniqueid": "MTK0101:3Z4XG4ZF49YUVJWQ7E1QYODYR5KX8G", "current_trial": 115, "dateTime": 1509155835066, "trialdata": {"rt": [1625, 2784, 6721, 10108, 10985, 12335, 13156, 14945, 17859, 19051, 20942, 22876, 24789, 26263, 27320, 28637, 31944, 33384, 34678, 36793, 38964, 40686, 41709, 44060, 44870, 47188, 48762, 54207], "recwords": ["grill", "girl", "spider", "dolphin", "hood", "ground", "lamp", "pudding", "penguin", "foot", "cigar", "waiter", "pizza", "diner", "dinner", "rust", "swimming", "viking", "children", "police", "snake", "playground", "washer", "sparrow", "bird", "robin", "spider", "human"], "type": "FREE_RECALL", "conditions": [24, 800, "v", 12000], "trial": 2, "trial_type": "free-recall", "trial_index": 115, "time_elapsed": 600715, "internal_node_id": "0.0-88.0-0.0"}}, {"uniqueid": "MTK0101:3Z4XG4ZF49YUVJWQ7E1QYODYR5KX8G", "current_trial": 116, "dateTime": 1509156006560, "trialdata": {"rt": 169493, "key_press": 13, "type": "INSTRUCTIONS", "trial_type": "text", "trial_index": 116, "time_elapsed": 772211, "internal_node_id": "0.0-89.0"}}, {"uniqueid": "MTK0101:3Z4XG4ZF49YUVJWQ7E1QYODYR5KX8G", "current_trial": 117, "dateTime": 1509156032570, "trialdata": {"rt": [3507, 6285, 9615, 11618, 15241, 17176, 21642], "responses": ["22", "12", "23", "10", "11", "9", "18"], "num1": [7, 7, 8, 4, 2, 1, 7, 4], "num2": [9, 4, 7, 4, 2, 7, 9, 4], "num3": [7, 1, 7, 2, 7, 1, 2, 3], "type": "DISTRACTOR", "conditions": [24, 1600, "a", 24000], "trial": 3, "trial_type": "math-distractor", "trial_index": 117, "time_elapsed": 798221, "internal_node_id": "0.0-90.0"}}, {"uniqueid": "MTK0101:3Z4XG4ZF49YUVJWQ7E1QYODYR5KX8G", "current_trial": 118, "dateTime": 1509156035576, "trialdata": {"rt": -1, "stimulus": "<p id=\"stim\">10</p>", "key_press": -1, "trial_type": "single-stim", "trial_index": 118, "time_elapsed": 801227, "internal_node_id": "0.0-91.0-0.0"}}, {"uniqueid": "MTK0101:3Z4XG4ZF49YUVJWQ7E1QYODYR5KX8G", "current_trial": 119, "dateTime": 1509156036581, "trialdata": {"rt": -1, "stimulus": "<p id=\"stim\">9</p>", "key_press": -1, "trial_type": "single-stim", "trial_index": 119, "time_elapsed": 802232, "internal_node_id": "0.0-91.0-1.0"}}, {"uniqueid": "MTK0101:3Z4XG4ZF49YUVJWQ7E1QYODYR5KX8G", "current_trial": 120, "dateTime": 1509156037586, "trialdata": {"rt": -1, "stimulus": "<p id=\"stim\">8</p>", "key_press": -1, "trial_type": "single-stim", "trial_index": 120, "time_elapsed": 803237, "internal_node_id": "0.0-91.0-2.0"}}, {"uniqueid": "MTK0101:3Z4XG4ZF49YUVJWQ7E1QYODYR5KX8G", "current_trial": 121, "dateTime": 1509156038588, "trialdata": {"rt": -1, "stimulus": "<p id=\"stim\">7</p>", "key_press": -1, "trial_type": "single-stim", "trial_index": 121, "time_elapsed": 804239, "internal_node_id": "0.0-91.0-3.0"}}, {"uniqueid": "MTK0101:3Z4XG4ZF49YUVJWQ7E1QYODYR5KX8G", "current_trial": 122, "dateTime": 1509156039593, "trialdata": {"rt": -1, "stimulus": "<p id=\"stim\">6</p>", "key_press": -1, "trial_type": "single-stim", "trial_index": 122, "time_elapsed": 805244, "internal_node_id": "0.0-91.0-4.0"}}, {"uniqueid": "MTK0101:3Z4XG4ZF49YUVJWQ7E1QYODYR5KX8G", "current_trial": 123, "dateTime": 1509156040597, "trialdata": {"rt": -1, "stimulus": "<p id=\"stim\">5</p>", "key_press": -1, "trial_type": "single-stim", "trial_index": 123, "time_elapsed": 806248, "internal_node_id": "0.0-91.0-5.0"}}, {"uniqueid": "MTK0101:3Z4XG4ZF49YUVJWQ7E1QYODYR5KX8G", "current_trial": 124, "dateTime": 1509156041601, "trialdata": {"rt": -1, "stimulus": "<p id=\"stim\">4</p>", "key_press": -1, "trial_type": "single-stim", "trial_index": 124, "time_elapsed": 807252, "internal_node_id": "0.0-91.0-6.0"}}, {"uniqueid": "MTK0101:3Z4XG4ZF49YUVJWQ7E1QYODYR5KX8G", "current_trial": 125, "dateTime": 1509156042607, "trialdata": {"rt": -1, "stimulus": "<p id=\"stim\">3</p>", "key_press": -1, "trial_type": "single-stim", "trial_index": 125, "time_elapsed": 808258, "internal_node_id": "0.0-91.0-7.0"}}, {"uniqueid": "MTK0101:3Z4XG4ZF49YUVJWQ7E1QYODYR5KX8G", "current_trial": 126, "dateTime": 1509156043613, "trialdata": {"rt": -1, "stimulus": "<p id=\"stim\">2</p>", "key_press": -1, "trial_type": "single-stim", "trial_index": 126, "time_elapsed": 809264, "internal_node_id": "0.0-91.0-8.0"}}, {"uniqueid": "MTK0101:3Z4XG4ZF49YUVJWQ7E1QYODYR5KX8G", "current_trial": 127, "dateTime": 1509156044615, "trialdata": {"rt": -1, "stimulus": "<p id=\"stim\">1</p>", "key_press": -1, "trial_type": "single-stim", "trial_index": 127, "time_elapsed": 810266, "internal_node_id": "0.0-91.0-9.0"}}, {"uniqueid": "MTK0101:3Z4XG4ZF49YUVJWQ7E1QYODYR5KX8G", "current_trial": 128, "dateTime": 1509156046117, "trialdata": {"rt": -1, "stimulus": "<p id=\"stim\">+</p>", "key_press": -1, "type": "FIXATION", "trial_type": "single-stim", "trial_index": 128, "time_elapsed": 811767, "internal_node_id": "0.0-92.0-0.0"}}, {"uniqueid": "MTK0101:3Z4XG4ZF49YUVJWQ7E1QYODYR5KX8G", "current_trial": 129, "dateTime": 1509156048549, "trialdata": {"rt": -1000, "stimulus": "/static/audio/wordpool/SCARECROW.wav", "key_press": -1, "type": "PRES_AUD", "word": "scarecrow", "wordID": 1244, "conditions": [24, 1600, "a", 24000], "trial": 3, "serialpos": 0, "trial_type": "single-audio", "trial_index": 129, "time_elapsed": 814200, "internal_node_id": "0.0-93.0"}}, {"uniqueid": "MTK0101:3Z4XG4ZF49YUVJWQ7E1QYODYR5KX8G", "current_trial": 130, "dateTime": 1509156050986, "trialdata": {"rt": -1000, "stimulus": "/static/audio/wordpool/RELISH.wav", "key_press": -1, "type": "PRES_AUD", "word": "relish", "wordID": 1182, "conditions": [24, 1600, "a", 24000], "trial": 3, "serialpos": 1, "trial_type": "single-audio", "trial_index": 130, "time_elapsed": 816637, "internal_node_id": "0.0-94.0"}}, {"uniqueid": "MTK0101:3Z4XG4ZF49YUVJWQ7E1QYODYR5KX8G", "current_trial": 131, "dateTime": 1509156053456, "trialdata": {"rt": -1000, "stimulus": "/static/audio/wordpool/CATTLE.wav", "key_press": -1, "type": "PRES_AUD", "word": "cattle", "wordID": 260, "conditions": [24, 1600, "a", 24000], "trial": 3, "serialpos": 2, "trial_type": "single-audio", "trial_index": 131, "time_elapsed": 819107, "internal_node_id": "0.0-95.0"}}, {"uniqueid": "MTK0101:3Z4XG4ZF49YUVJWQ7E1QYODYR5KX8G", "current_trial": 132, "dateTime": 1509156055966, "trialdata": {"rt": -1000, "stimulus": "/static/audio/wordpool/HOUND.wav", "key_press": -1, "type": "PRES_AUD", "word": "hound", "wordID": 723, "conditions": [24, 1600, "a", 24000], "trial": 3, "serialpos": 3, "trial_type": "single-audio", "trial_index": 132, "time_elapsed": 821617, "internal_node_id": "0.0-96.0"}}, {"uniqueid": "MTK0101:3Z4XG4ZF49YUVJWQ7E1QYODYR5KX8G", "current_trial": 133, "dateTime": 1509156058443, "trialdata": {"rt": -1000, "stimulus": "/static/audio/wordpool/ROOSTER.wav", "key_press": -1, "type": "PRES_AUD", "word": "rooster", "wordID": 1208, "conditions": [24, 1600, "a", 24000], "trial": 3, "serialpos": 4, "trial_type": "single-audio", "trial_index": 133, "time_elapsed": 824094, "internal_node_id": "0.0-97.0"}}, {"uniqueid": "MTK0101:3Z4XG4ZF49YUVJWQ7E1QYODYR5KX8G", "current_trial": 134, "dateTime": 1509156060953, "trialdata": {"rt": -1000, "stimulus": "/static/audio/wordpool/PERFUME.wav", "key_press": -1, "type": "PRES_AUD", "word": "perfume", "wordID": 1048, "conditions": [24, 1600, "a", 24000], "trial": 3, "serialpos": 5, "trial_type": "single-audio", "trial_index": 134, "time_elapsed": 826603, "internal_node_id": "0.0-98.0"}}, {"uniqueid": "MTK0101:3Z4XG4ZF49YUVJWQ7E1QYODYR5KX8G", "current_trial": 135, "dateTime": 1509156063557, "trialdata": {"rt": -1000, "stimulus": "/static/audio/wordpool/LAKE.wav", "key_press": -1, "type": "PRES_AUD", "word": "lake", "wordID": 795, "conditions": [24, 1600, "a", 24000], "trial": 3, "serialpos": 6, "trial_type": "single-audio", "trial_index": 135, "time_elapsed": 829208, "internal_node_id": "0.0-99.0"}}, {"uniqueid": "MTK0101:3Z4XG4ZF49YUVJWQ7E1QYODYR5KX8G", "current_trial": 136, "dateTime": 1509156065976, "trialdata": {"rt": -1000, "stimulus": "/static/audio/wordpool/DRESS.wav", "key_press": -1, "type": "PRES_AUD", "word": "dress", "wordID": 494, "conditions": [24, 1600, "a", 24000], "trial": 3, "serialpos": 7, "trial_type": "single-audio", "trial_index": 136, "time_elapsed": 831627, "internal_node_id": "0.0-100.0"}}, {"uniqueid": "MTK0101:3Z4XG4ZF49YUVJWQ7E1QYODYR5KX8G", "current_trial": 137, "dateTime": 1509156068652, "trialdata": {"rt": -1000, "stimulus": "/static/audio/wordpool/SKIRT.wav", "key_press": -1, "type": "PRES_AUD", "word": "skirt", "wordID": 1318, "conditions": [24, 1600, "a", 24000], "trial": 3, "serialpos": 8, "trial_type": "single-audio", "trial_index": 137, "time_elapsed": 834303, "internal_node_id": "0.0-101.0"}}, {"uniqueid": "MTK0101:3Z4XG4ZF49YUVJWQ7E1QYODYR5KX8G", "current_trial": 138, "dateTime": 1509156071154, "trialdata": {"rt": -1000, "stimulus": "/static/audio/wordpool/CONTRACT.wav", "key_press": -1, "type": "PRES_AUD", "word": "contract", "wordID": 367, "conditions": [24, 1600, "a", 24000], "trial": 3, "serialpos": 9, "trial_type": "single-audio", "trial_index": 138, "time_elapsed": 836805, "internal_node_id": "0.0-102.0"}}, {"uniqueid": "MTK0101:3Z4XG4ZF49YUVJWQ7E1QYODYR5KX8G", "current_trial": 139, "dateTime": 1509156073569, "trialdata": {"rt": -1000, "stimulus": "/static/audio/wordpool/QUAIL.wav", "key_press": -1, "type": "PRES_AUD", "word": "quail", "wordID": 1146, "conditions": [24, 1600, "a", 24000], "trial": 3, "serialpos": 10, "trial_type": "single-audio", "trial_index": 139, "time_elapsed": 839220, "internal_node_id": "0.0-103.0"}}, {"uniqueid": "MTK0101:3Z4XG4ZF49YUVJWQ7E1QYODYR5KX8G", "current_trial": 140, "dateTime": 1509156076187, "trialdata": {"rt": -1000, "stimulus": "/static/audio/wordpool/FRAGRANCE.wav", "key_press": -1, "type": "PRES_AUD", "word": "fragrance", "wordID": 598, "conditions": [24, 1600, "a", 24000], "trial": 3, "serialpos": 11, "trial_type": "single-audio", "trial_index": 140, "time_elapsed": 841838, "internal_node_id": "0.0-104.0"}}, {"uniqueid": "MTK0101:3Z4XG4ZF49YUVJWQ7E1QYODYR5KX8G", "current_trial": 141, "dateTime": 1509156078753, "trialdata": {"rt": -1000, "stimulus": "/static/audio/wordpool/NAPKIN.wav", "key_press": -1, "type": "PRES_AUD", "word": "napkin", "wordID": 936, "conditions": [24, 1600, "a", 24000], "trial": 3, "serialpos": 12, "trial_type": "single-audio", "trial_index": 141, "time_elapsed": 844404, "internal_node_id": "0.0-105.0"}}, {"uniqueid": "MTK0101:3Z4XG4ZF49YUVJWQ7E1QYODYR5KX8G", "current_trial": 142, "dateTime": 1509156081411, "trialdata": {"rt": -1000, "stimulus": "/static/audio/wordpool/PISTON.wav", "key_press": -1, "type": "PRES_AUD", "word": "piston", "wordID": 1075, "conditions": [24, 1600, "a", 24000], "trial": 3, "serialpos": 13, "trial_type": "single-audio", "trial_index": 142, "time_elapsed": 847062, "internal_node_id": "0.0-106.0"}}, {"uniqueid": "MTK0101:3Z4XG4ZF49YUVJWQ7E1QYODYR5KX8G", "current_trial": 143, "dateTime": 1509156083983, "trialdata": {"rt": -1000, "stimulus": "/static/audio/wordpool/TRIBE.wav", "key_press": -1, "type": "PRES_AUD", "word": "tribe", "wordID": 1504, "conditions": [24, 1600, "a", 24000], "trial": 3, "serialpos": 14, "trial_type": "single-audio", "trial_index": 143, "time_elapsed": 849634, "internal_node_id": "0.0-107.0"}}, {"uniqueid": "MTK0101:3Z4XG4ZF49YUVJWQ7E1QYODYR5KX8G", "current_trial": 144, "dateTime": 1509156086599, "trialdata": {"rt": -1000, "stimulus": "/static/audio/wordpool/COTTAGE.wav", "key_press": -1, "type": "PRES_AUD", "word": "cottage", "wordID": 383, "conditions": [24, 1600, "a", 24000], "trial": 3, "serialpos": 15, "trial_type": "single-audio", "trial_index": 144, "time_elapsed": 852250, "internal_node_id": "0.0-108.0"}}, {"uniqueid": "MTK0101:3Z4XG4ZF49YUVJWQ7E1QYODYR5KX8G", "current_trial": 145, "dateTime": 1509156089390, "trialdata": {"rt": -1000, "stimulus": "/static/audio/wordpool/FRIEND.wav", "key_press": -1, "type": "PRES_AUD", "word": "friend", "wordID": 605, "conditions": [24, 1600, "a", 24000], "trial": 3, "serialpos": 16, "trial_type": "single-audio", "trial_index": 145, "time_elapsed": 855040, "internal_node_id": "0.0-109.0"}}, {"uniqueid": "MTK0101:3Z4XG4ZF49YUVJWQ7E1QYODYR5KX8G", "current_trial": 146, "dateTime": 1509156091830, "trialdata": {"rt": -1000, "stimulus": "/static/audio/wordpool/IGLOO.wav", "key_press": -1, "type": "PRES_AUD", "word": "igloo", "wordID": 733, "conditions": [24, 1600, "a", 24000], "trial": 3, "serialpos": 17, "trial_type": "single-audio", "trial_index": 146, "time_elapsed": 857480, "internal_node_id": "0.0-110.0"}}, {"uniqueid": "MTK0101:3Z4XG4ZF49YUVJWQ7E1QYODYR5KX8G", "current_trial": 147, "dateTime": 1509156094244, "trialdata": {"rt": -1000, "stimulus": "/static/audio/wordpool/MUMMY.wav", "key_press": -1, "type": "PRES_AUD", "word": "mummy", "wordID": 931, "conditions": [24, 1600, "a", 24000], "trial": 3, "serialpos": 18, "trial_type": "single-audio", "trial_index": 147, "time_elapsed": 859895, "internal_node_id": "0.0-111.0"}}, {"uniqueid": "MTK0101:3Z4XG4ZF49YUVJWQ7E1QYODYR5KX8G", "current_trial": 148, "dateTime": 1509156097014, "trialdata": {"rt": -1000, "stimulus": "/static/audio/wordpool/UNCLE.wav", "key_press": -1, "type": "PRES_AUD", "word": "uncle", "wordID": 1535, "conditions": [24, 1600, "a", 24000], "trial": 3, "serialpos": 19, "trial_type": "single-audio", "trial_index": 148, "time_elapsed": 862665, "internal_node_id": "0.0-112.0"}}, {"uniqueid": "MTK0101:3Z4XG4ZF49YUVJWQ7E1QYODYR5KX8G", "current_trial": 149, "dateTime": 1509156099556, "trialdata": {"rt": -1000, "stimulus": "/static/audio/wordpool/SISTER.wav", "key_press": -1, "type": "PRES_AUD", "word": "sister", "wordID": 1311, "conditions": [24, 1600, "a", 24000], "trial": 3, "serialpos": 20, "trial_type": "single-audio", "trial_index": 149, "time_elapsed": 865207, "internal_node_id": "0.0-113.0"}}, {"uniqueid": "MTK0101:3Z4XG4ZF49YUVJWQ7E1QYODYR5KX8G", "current_trial": 150, "dateTime": 1509156102240, "trialdata": {"rt": -1000, "stimulus": "/static/audio/wordpool/TWIG.wav", "key_press": -1, "type": "PRES_AUD", "word": "twig", "wordID": 1526, "conditions": [24, 1600, "a", 24000], "trial": 3, "serialpos": 21, "trial_type": "single-audio", "trial_index": 150, "time_elapsed": 867891, "internal_node_id": "0.0-114.0"}}, {"uniqueid": "MTK0101:3Z4XG4ZF49YUVJWQ7E1QYODYR5KX8G", "current_trial": 151, "dateTime": 1509156104951, "trialdata": {"rt": -1000, "stimulus": "/static/audio/wordpool/HAWK.wav", "key_press": -1, "type": "PRES_AUD", "word": "hawk", "wordID": 691, "conditions": [24, 1600, "a", 24000], "trial": 3, "serialpos": 22, "trial_type": "single-audio", "trial_index": 151, "time_elapsed": 870602, "internal_node_id": "0.0-115.0"}}, {"uniqueid": "MTK0101:3Z4XG4ZF49YUVJWQ7E1QYODYR5KX8G", "current_trial": 152, "dateTime": 1509156107627, "trialdata": {"rt": -1000, "stimulus": "/static/audio/wordpool/VALVE.wav", "key_press": -1, "type": "PRES_AUD", "word": "valve", "wordID": 1545, "conditions": [24, 1600, "a", 24000], "trial": 3, "serialpos": 23, "trial_type": "single-audio", "trial_index": 152, "time_elapsed": 873278, "internal_node_id": "0.0-116.0"}}, {"uniqueid": "MTK0101:3Z4XG4ZF49YUVJWQ7E1QYODYR5KX8G", "current_trial": 153, "dateTime": 1509156108957, "trialdata": {"rt": -1, "stimulus": "", "key_press": -1, "type": "PRE_RECALL_DELAY", "trial_type": "single-stim", "trial_index": 153, "time_elapsed": 874608, "internal_node_id": "0.0-117.0-0.0"}}, {"uniqueid": "MTK0101:3Z4XG4ZF49YUVJWQ7E1QYODYR5KX8G", "current_trial": 154, "dateTime": 1509156109459, "trialdata": {"rt": -1000, "stimulus": "/static/audio/400Hz.wav", "key_press": -1, "type": "PRE_RECALL_ALERT", "trial_type": "single-audio", "trial_index": 154, "time_elapsed": 875110, "internal_node_id": "0.0-118.0"}}, {"uniqueid": "MTK0101:3Z4XG4ZF49YUVJWQ7E1QYODYR5KX8G", "current_trial": 155, "dateTime": 1509156169467, "trialdata": {"rt": [9452, 11140, 12366, 14121, 16934, 17800, 19488, 20894, 22019, 24269, 26946, 29849, 32470, 35598, 37814, 46522, 50999, 55499, 57006, 58177], "recwords": ["scarecrow", "relish", "cattle", "hound", "rooster", "hen", "perfume", "cologne", "lake", "dress", "skirt", "contract", "bird", "quail", "napkin", "cabin", "igloo", "uncle", "twig", "hawk"], "type": "FREE_RECALL", "conditions": [24, 1600, "a", 24000], "trial": 3, "trial_type": "free-recall", "trial_index": 155, "time_elapsed": 935115, "internal_node_id": "0.0-119.0-0.0"}}, {"uniqueid": "MTK0101:3Z4XG4ZF49YUVJWQ7E1QYODYR5KX8G", "current_trial": 156, "dateTime": 1509156173365, "trialdata": {"rt": 1893, "key_press": 13, "type": "INSTRUCTIONS", "trial_type": "text", "trial_index": 156, "time_elapsed": 939015, "internal_node_id": "0.0-120.0"}}, {"uniqueid": "MTK0101:3Z4XG4ZF49YUVJWQ7E1QYODYR5KX8G", "current_trial": 157, "dateTime": 1509156187370, "trialdata": {"rt": [2632, 4781, 7548, 9888], "responses": ["20", "20", "15", "12"], "num1": [8, 3, 2, 9, 9], "num2": [3, 8, 7, 2, 7], "num3": [9, 9, 6, 1, 9], "type": "DISTRACTOR", "conditions": [24, 800, "a", 12000], "trial": 4, "trial_type": "math-distractor", "trial_index": 157, "time_elapsed": 953021, "internal_node_id": "0.0-121.0"}}, {"uniqueid": "MTK0101:3Z4XG4ZF49YUVJWQ7E1QYODYR5KX8G", "current_trial": 158, "dateTime": 1509156190379, "trialdata": {"rt": -1, "stimulus": "<p id=\"stim\">10</p>", "key_press": -1, "trial_type": "single-stim", "trial_index": 158, "time_elapsed": 956029, "internal_node_id": "0.0-122.0-0.0"}}, {"uniqueid": "MTK0101:3Z4XG4ZF49YUVJWQ7E1QYODYR5KX8G", "current_trial": 159, "dateTime": 1509156191383, "trialdata": {"rt": -1, "stimulus": "<p id=\"stim\">9</p>", "key_press": -1, "trial_type": "single-stim", "trial_index": 159, "time_elapsed": 957033, "internal_node_id": "0.0-122.0-1.0"}}, {"uniqueid": "MTK0101:3Z4XG4ZF49YUVJWQ7E1QYODYR5KX8G", "current_trial": 160, "dateTime": 1509156192384, "trialdata": {"rt": -1, "stimulus": "<p id=\"stim\">8</p>", "key_press": -1, "trial_type": "single-stim", "trial_index": 160, "time_elapsed": 958035, "internal_node_id": "0.0-122.0-2.0"}}, {"uniqueid": "MTK0101:3Z4XG4ZF49YUVJWQ7E1QYODYR5KX8G", "current_trial": 161, "dateTime": 1509156193388, "trialdata": {"rt": -1, "stimulus": "<p id=\"stim\">7</p>", "key_press": -1, "trial_type": "single-stim", "trial_index": 161, "time_elapsed": 959039, "internal_node_id": "0.0-122.0-3.0"}}, {"uniqueid": "MTK0101:3Z4XG4ZF49YUVJWQ7E1QYODYR5KX8G", "current_trial": 162, "dateTime": 1509156194392, "trialdata": {"rt": -1, "stimulus": "<p id=\"stim\">6</p>", "key_press": -1, "trial_type": "single-stim", "trial_index": 162, "time_elapsed": 960043, "internal_node_id": "0.0-122.0-4.0"}}, {"uniqueid": "MTK0101:3Z4XG4ZF49YUVJWQ7E1QYODYR5KX8G", "current_trial": 163, "dateTime": 1509156195396, "trialdata": {"rt": -1, "stimulus": "<p id=\"stim\">5</p>", "key_press": -1, "trial_type": "single-stim", "trial_index": 163, "time_elapsed": 961047, "internal_node_id": "0.0-122.0-5.0"}}, {"uniqueid": "MTK0101:3Z4XG4ZF49YUVJWQ7E1QYODYR5KX8G", "current_trial": 164, "dateTime": 1509156196401, "trialdata": {"rt": -1, "stimulus": "<p id=\"stim\">4</p>", "key_press": -1, "trial_type": "single-stim", "trial_index": 164, "time_elapsed": 962051, "internal_node_id": "0.0-122.0-6.0"}}, {"uniqueid": "MTK0101:3Z4XG4ZF49YUVJWQ7E1QYODYR5KX8G", "current_trial": 165, "dateTime": 1509156197405, "trialdata": {"rt": -1, "stimulus": "<p id=\"stim\">3</p>", "key_press": -1, "trial_type": "single-stim", "trial_index": 165, "time_elapsed": 963055, "internal_node_id": "0.0-122.0-7.0"}}, {"uniqueid": "MTK0101:3Z4XG4ZF49YUVJWQ7E1QYODYR5KX8G", "current_trial": 166, "dateTime": 1509156198408, "trialdata": {"rt": -1, "stimulus": "<p id=\"stim\">2</p>", "key_press": -1, "trial_type": "single-stim", "trial_index": 166, "time_elapsed": 964059, "internal_node_id": "0.0-122.0-8.0"}}, {"uniqueid": "MTK0101:3Z4XG4ZF49YUVJWQ7E1QYODYR5KX8G", "current_trial": 167, "dateTime": 1509156199413, "trialdata": {"rt": -1, "stimulus": "<p id=\"stim\">1</p>", "key_press": -1, "trial_type": "single-stim", "trial_index": 167, "time_elapsed": 965064, "internal_node_id": "0.0-122.0-9.0"}}, {"uniqueid": "MTK0101:3Z4XG4ZF49YUVJWQ7E1QYODYR5KX8G", "current_trial": 168, "dateTime": 1509156200916, "trialdata": {"rt": -1, "stimulus": "<p id=\"stim\">+</p>", "key_press": -1, "type": "FIXATION", "trial_type": "single-stim", "trial_index": 168, "time_elapsed": 966567, "internal_node_id": "0.0-123.0-0.0"}}, {"uniqueid": "MTK0101:3Z4XG4ZF49YUVJWQ7E1QYODYR5KX8G", "current_trial": 169, "dateTime": 1509156202727, "trialdata": {"rt": -1000, "stimulus": "/static/audio/wordpool/CUSTARD.wav", "key_press": -1, "type": "PRES_AUD", "word": "custard", "wordID": 428, "conditions": [24, 800, "a", 12000], "trial": 4, "serialpos": 0, "trial_type": "single-audio", "trial_index": 169, "time_elapsed": 968377, "internal_node_id": "0.0-124.0"}}, {"uniqueid": "MTK0101:3Z4XG4ZF49YUVJWQ7E1QYODYR5KX8G", "current_trial": 170, "dateTime": 1509156204645, "trialdata": {"rt": -1000, "stimulus": "/static/audio/wordpool/PASTA.wav", "key_press": -1, "type": "PRES_AUD", "word": "pasta", "wordID": 1020, "conditions": [24, 800, "a", 12000], "trial": 4, "serialpos": 1, "trial_type": "single-audio", "trial_index": 170, "time_elapsed": 970296, "internal_node_id": "0.0-125.0"}}, {"uniqueid": "MTK0101:3Z4XG4ZF49YUVJWQ7E1QYODYR5KX8G", "current_trial": 171, "dateTime": 1509156206581, "trialdata": {"rt": -1000, "stimulus": "/static/audio/wordpool/DUSTPAN.wav", "key_press": -1, "type": "PRES_AUD", "word": "dustpan", "wordID": 508, "conditions": [24, 800, "a", 12000], "trial": 4, "serialpos": 2, "trial_type": "single-audio", "trial_index": 171, "time_elapsed": 972232, "internal_node_id": "0.0-126.0"}}, {"uniqueid": "MTK0101:3Z4XG4ZF49YUVJWQ7E1QYODYR5KX8G", "current_trial": 172, "dateTime": 1509156208498, "trialdata": {"rt": -1000, "stimulus": "/static/audio/wordpool/EXPERT.wav", "key_press": -1, "type": "PRES_AUD", "word": "expert", "wordID": 542, "conditions": [24, 800, "a", 12000], "trial": 4, "serialpos": 3, "trial_type": "single-audio", "trial_index": 172, "time_elapsed": 974149, "internal_node_id": "0.0-127.0"}}, {"uniqueid": "MTK0101:3Z4XG4ZF49YUVJWQ7E1QYODYR5KX8G", "current_trial": 173, "dateTime": 1509156210435, "trialdata": {"rt": -1000, "stimulus": "/static/audio/wordpool/AGENT.wav", "key_press": -1, "type": "PRES_AUD", "word": "agent", "wordID": 9, "conditions": [24, 800, "a", 12000], "trial": 4, "serialpos": 4, "trial_type": "single-audio", "trial_index": 173, "time_elapsed": 976085, "internal_node_id": "0.0-128.0"}}, {"uniqueid": "MTK0101:3Z4XG4ZF49YUVJWQ7E1QYODYR5KX8G", "current_trial": 174, "dateTime": 1509156212338, "trialdata": {"rt": -1000, "stimulus": "/static/audio/wordpool/SUSPECT.wav", "key_press": -1, "type": "PRES_AUD", "word": "suspect", "wordID": 1414, "conditions": [24, 800, "a", 12000], "trial": 4, "serialpos": 5, "trial_type": "single-audio", "trial_index": 174, "time_elapsed": 977989, "internal_node_id": "0.0-129.0"}}, {"uniqueid": "MTK0101:3Z4XG4ZF49YUVJWQ7E1QYODYR5KX8G", "current_trial": 175, "dateTime": 1509156213999, "trialdata": {"rt": -1000, "stimulus": "/static/audio/wordpool/PIGMENT.wav", "key_press": -1, "type": "PRES_AUD", "word": "pigment", "wordID": 1065, "conditions": [24, 800, "a", 12000], "trial": 4, "serialpos": 6, "trial_type": "single-audio", "trial_index": 175, "time_elapsed": 979650, "internal_node_id": "0.0-130.0"}}, {"uniqueid": "MTK0101:3Z4XG4ZF49YUVJWQ7E1QYODYR5KX8G", "current_trial": 176, "dateTime": 1509156215936, "trialdata": {"rt": -1000, "stimulus": "/static/audio/wordpool/CHAUFFEUR.wav", "key_press": -1, "type": "PRES_AUD", "word": "chauffeur", "wordID": 282, "conditions": [24, 800, "a", 12000], "trial": 4, "serialpos": 7, "trial_type": "single-audio", "trial_index": 176, "time_elapsed": 981587, "internal_node_id": "0.0-131.0"}}, {"uniqueid": "MTK0101:3Z4XG4ZF49YUVJWQ7E1QYODYR5KX8G", "current_trial": 177, "dateTime": 1509156217853, "trialdata": {"rt": -1000, "stimulus": "/static/audio/wordpool/ACTOR.wav", "key_press": -1, "type": "PRES_AUD", "word": "actor", "wordID": 4, "conditions": [24, 800, "a", 12000], "trial": 4, "serialpos": 8, "trial_type": "single-audio", "trial_index": 177, "time_elapsed": 983504, "internal_node_id": "0.0-132.0"}}, {"uniqueid": "MTK0101:3Z4XG4ZF49YUVJWQ7E1QYODYR5KX8G", "current_trial": 178, "dateTime": 1509156219673, "trialdata": {"rt": -1000, "stimulus": "/static/audio/wordpool/RECEIPT.wav", "key_press": -1, "type": "PRES_AUD", "word": "receipt", "wordID": 1172, "conditions": [24, 800, "a", 12000], "trial": 4, "serialpos": 9, "trial_type": "single-audio", "trial_index": 178, "time_elapsed": 985324, "internal_node_id": "0.0-133.0"}}, {"uniqueid": "MTK0101:3Z4XG4ZF49YUVJWQ7E1QYODYR5KX8G", "current_trial": 179, "dateTime": 1509156221489, "trialdata": {"rt": -1000, "stimulus": "/static/audio/wordpool/VICTIM.wav", "key_press": -1, "type": "PRES_AUD", "word": "victim", "wordID": 1561, "conditions": [24, 800, "a", 12000], "trial": 4, "serialpos": 10, "trial_type": "single-audio", "trial_index": 179, "time_elapsed": 987139, "internal_node_id": "0.0-134.0"}}, {"uniqueid": "MTK0101:3Z4XG4ZF49YUVJWQ7E1QYODYR5KX8G", "current_trial": 180, "dateTime": 1509156223166, "trialdata": {"rt": -1000, "stimulus": "/static/audio/wordpool/TYPIST.wav", "key_press": -1, "type": "PRES_AUD", "word": "typist", "wordID": 1531, "conditions": [24, 800, "a", 12000], "trial": 4, "serialpos": 11, "trial_type": "single-audio", "trial_index": 180, "time_elapsed": 988817, "internal_node_id": "0.0-135.0"}}, {"uniqueid": "MTK0101:3Z4XG4ZF49YUVJWQ7E1QYODYR5KX8G", "current_trial": 181, "dateTime": 1509156225088, "trialdata": {"rt": -1000, "stimulus": "/static/audio/wordpool/DIVER.wav", "key_press": -1, "type": "PRES_AUD", "word": "diver", "wordID": 475, "conditions": [24, 800, "a", 12000], "trial": 4, "serialpos": 12, "trial_type": "single-audio", "trial_index": 181, "time_elapsed": 990739, "internal_node_id": "0.0-136.0"}}, {"uniqueid": "MTK0101:3Z4XG4ZF49YUVJWQ7E1QYODYR5KX8G", "current_trial": 182, "dateTime": 1509156226737, "trialdata": {"rt": -1000, "stimulus": "/static/audio/wordpool/TEACHER.wav", "key_press": -1, "type": "PRES_AUD", "word": "teacher", "wordID": 1439, "conditions": [24, 800, "a", 12000], "trial": 4, "serialpos": 13, "trial_type": "single-audio", "trial_index": 182, "time_elapsed": 992387, "internal_node_id": "0.0-137.0"}}, {"uniqueid": "MTK0101:3Z4XG4ZF49YUVJWQ7E1QYODYR5KX8G", "current_trial": 183, "dateTime": 1509156228660, "trialdata": {"rt": -1000, "stimulus": "/static/audio/wordpool/BLENDER.wav", "key_press": -1, "type": "PRES_AUD", "word": "blender", "wordID": 135, "conditions": [24, 800, "a", 12000], "trial": 4, "serialpos": 14, "trial_type": "single-audio", "trial_index": 183, "time_elapsed": 994311, "internal_node_id": "0.0-138.0"}}, {"uniqueid": "MTK0101:3Z4XG4ZF49YUVJWQ7E1QYODYR5KX8G", "current_trial": 184, "dateTime": 1509156230423, "trialdata": {"rt": -1000, "stimulus": "/static/audio/wordpool/COD.wav", "key_press": -1, "type": "PRES_AUD", "word": "cod", "wordID": 339, "conditions": [24, 800, "a", 12000], "trial": 4, "serialpos": 15, "trial_type": "single-audio", "trial_index": 184, "time_elapsed": 996074, "internal_node_id": "0.0-139.0"}}, {"uniqueid": "MTK0101:3Z4XG4ZF49YUVJWQ7E1QYODYR5KX8G", "current_trial": 185, "dateTime": 1509156232263, "trialdata": {"rt": -1000, "stimulus": "/static/audio/wordpool/PIGEON.wav", "key_press": -1, "type": "PRES_AUD", "word": "pigeon", "wordID": 1064, "conditions": [24, 800, "a", 12000], "trial": 4, "serialpos": 16, "trial_type": "single-audio", "trial_index": 185, "time_elapsed": 997914, "internal_node_id": "0.0-140.0"}}, {"uniqueid": "MTK0101:3Z4XG4ZF49YUVJWQ7E1QYODYR5KX8G", "current_trial": 186, "dateTime": 1509156233912, "trialdata": {"rt": -1000, "stimulus": "/static/audio/wordpool/RABBIT.wav", "key_press": -1, "type": "PRES_AUD", "word": "rabbit", "wordID": 1151, "conditions": [24, 800, "a", 12000], "trial": 4, "serialpos": 17, "trial_type": "single-audio", "trial_index": 186, "time_elapsed": 999562, "internal_node_id": "0.0-141.0"}}, {"uniqueid": "MTK0101:3Z4XG4ZF49YUVJWQ7E1QYODYR5KX8G", "current_trial": 187, "dateTime": 1509156235812, "trialdata": {"rt": -1000, "stimulus": "/static/audio/wordpool/WAGON.wav", "key_press": -1, "type": "PRES_AUD", "word": "wagon", "wordID": 1577, "conditions": [24, 800, "a", 12000], "trial": 4, "serialpos": 18, "trial_type": "single-audio", "trial_index": 187, "time_elapsed": 1001462, "internal_node_id": "0.0-142.0"}}, {"uniqueid": "MTK0101:3Z4XG4ZF49YUVJWQ7E1QYODYR5KX8G", "current_trial": 188, "dateTime": 1509156237680, "trialdata": {"rt": -1000, "stimulus": "/static/audio/wordpool/SHOULDER.wav", "key_press": -1, "type": "PRES_AUD", "word": "shoulder", "wordID": 1293, "conditions": [24, 800, "a", 12000], "trial": 4, "serialpos": 19, "trial_type": "single-audio", "trial_index": 188, "time_elapsed": 1003331, "internal_node_id": "0.0-143.0"}}, {"uniqueid": "MTK0101:3Z4XG4ZF49YUVJWQ7E1QYODYR5KX8G", "current_trial": 189, "dateTime": 1509156239380, "trialdata": {"rt": -1000, "stimulus": "/static/audio/wordpool/COUCH.wav", "key_press": -1, "type": "PRES_AUD", "word": "couch", "wordID": 385, "conditions": [24, 800, "a", 12000], "trial": 4, "serialpos": 20, "trial_type": "single-audio", "trial_index": 189, "time_elapsed": 1005031, "internal_node_id": "0.0-144.0"}}, {"uniqueid": "MTK0101:3Z4XG4ZF49YUVJWQ7E1QYODYR5KX8G", "current_trial": 190, "dateTime": 1509156241020, "trialdata": {"rt": -1000, "stimulus": "/static/audio/wordpool/BASEMENT.wav", "key_press": -1, "type": "PRES_AUD", "word": "basement", "wordID": 93, "conditions": [24, 800, "a", 12000], "trial": 4, "serialpos": 21, "trial_type": "single-audio", "trial_index": 190, "time_elapsed": 1006671, "internal_node_id": "0.0-145.0"}}, {"uniqueid": "MTK0101:3Z4XG4ZF49YUVJWQ7E1QYODYR5KX8G", "current_trial": 191, "dateTime": 1509156242753, "trialdata": {"rt": -1000, "stimulus": "/static/audio/wordpool/BEAVER.wav", "key_press": -1, "type": "PRES_AUD", "word": "beaver", "wordID": 108, "conditions": [24, 800, "a", 12000], "trial": 4, "serialpos": 22, "trial_type": "single-audio", "trial_index": 191, "time_elapsed": 1008403, "internal_node_id": "0.0-146.0"}}, {"uniqueid": "MTK0101:3Z4XG4ZF49YUVJWQ7E1QYODYR5KX8G", "current_trial": 192, "dateTime": 1509156244566, "trialdata": {"rt": -1000, "stimulus": "/static/audio/wordpool/SKILLET.wav", "key_press": -1, "type": "PRES_AUD", "word": "skillet", "wordID": 1316, "conditions": [24, 800, "a", 12000], "trial": 4, "serialpos": 23, "trial_type": "single-audio", "trial_index": 192, "time_elapsed": 1010217, "internal_node_id": "0.0-147.0"}}, {"uniqueid": "MTK0101:3Z4XG4ZF49YUVJWQ7E1QYODYR5KX8G", "current_trial": 193, "dateTime": 1509156245874, "trialdata": {"rt": -1, "stimulus": "", "key_press": -1, "type": "PRE_RECALL_DELAY", "trial_type": "single-stim", "trial_index": 193, "time_elapsed": 1011525, "internal_node_id": "0.0-148.0-0.0"}}, {"uniqueid": "MTK0101:3Z4XG4ZF49YUVJWQ7E1QYODYR5KX8G", "current_trial": 194, "dateTime": 1509156246375, "trialdata": {"rt": -1000, "stimulus": "/static/audio/400Hz.wav", "key_press": -1, "type": "PRE_RECALL_ALERT", "trial_type": "single-audio", "trial_index": 194, "time_elapsed": 1012026, "internal_node_id": "0.0-149.0"}}, {"uniqueid": "MTK0101:3Z4XG4ZF49YUVJWQ7E1QYODYR5KX8G", "current_trial": 195, "dateTime": 1509156306385, "trialdata": {"rt": [2846, 3994, 5119, 6987, 8370, 9641, 12825, 14411, 18022, 22905, 47194, 50895], "recwords": ["typist", "diver", "agent", "suspect", "blender", "fish", "quail", "rabbit", "custard", "monster", "monster", "quail"], "type": "FREE_RECALL", "conditions": [24, 800, "a", 12000], "trial": 4, "trial_type": "free-recall", "trial_index": 195, "time_elapsed": 1072033, "internal_node_id": "0.0-150.0-0.0"}}, {"uniqueid": "MTK0101:3Z4XG4ZF49YUVJWQ7E1QYODYR5KX8G", "current_trial": 196, "dateTime": 1509156309840, "trialdata": {"rt": 1454, "key_press": 13, "type": "INSTRUCTIONS", "trial_type": "text", "trial_index": 196, "time_elapsed": 1075491, "internal_node_id": "0.0-151.0"}}, {"uniqueid": "MTK0101:3Z4XG4ZF49YUVJWQ7E1QYODYR5KX8G", "current_trial": 197, "dateTime": 1509156335845, "trialdata": {"rt": [3103, 5848, 7749, 10821, 15017, 20721], "responses": ["13", "11", "12", "17", "17", "16"], "num1": [4, 2, 1, 9, 7, 9, 3], "num2": [3, 2, 2, 2, 5, 5, 4], "num3": [6, 7, 9, 6, 5, 2, 9], "type": "DISTRACTOR", "conditions": [24, 800, "v", 24000], "trial": 5, "trial_type": "math-distractor", "trial_index": 197, "time_elapsed": 1101495, "internal_node_id": "0.0-152.0"}}, {"uniqueid": "MTK0101:3Z4XG4ZF49YUVJWQ7E1QYODYR5KX8G", "current_trial": 198, "dateTime": 1509156338854, "trialdata": {"rt": -1, "stimulus": "<p id=\"stim\">10</p>", "key_press": -1, "trial_type": "single-stim", "trial_index": 198, "time_elapsed": 1104505, "internal_node_id": "0.0-153.0-0.0"}}, {"uniqueid": "MTK0101:3Z4XG4ZF49YUVJWQ7E1QYODYR5KX8G", "current_trial": 199, "dateTime": 1509156339856, "trialdata": {"rt": -1, "stimulus": "<p id=\"stim\">9</p>", "key_press": -1, "trial_type": "single-stim", "trial_index": 199, "time_elapsed": 1105507, "internal_node_id": "0.0-153.0-1.0"}}, {"uniqueid": "MTK0101:3Z4XG4ZF49YUVJWQ7E1QYODYR5KX8G", "current_trial": 200, "dateTime": 1509156340859, "trialdata": {"rt": -1, "stimulus": "<p id=\"stim\">8</p>", "key_press": -1, "trial_type": "single-stim", "trial_index": 200, "time_elapsed": 1106510, "internal_node_id": "0.0-153.0-2.0"}}, {"uniqueid": "MTK0101:3Z4XG4ZF49YUVJWQ7E1QYODYR5KX8G", "current_trial": 201, "dateTime": 1509156341862, "trialdata": {"rt": -1, "stimulus": "<p id=\"stim\">7</p>", "key_press": -1, "trial_type": "single-stim", "trial_index": 201, "time_elapsed": 1107513, "internal_node_id": "0.0-153.0-3.0"}}, {"uniqueid": "MTK0101:3Z4XG4ZF49YUVJWQ7E1QYODYR5KX8G", "current_trial": 202, "dateTime": 1509156342865, "trialdata": {"rt": -1, "stimulus": "<p id=\"stim\">6</p>", "key_press": -1, "trial_type": "single-stim", "trial_index": 202, "time_elapsed": 1108516, "internal_node_id": "0.0-153.0-4.0"}}, {"uniqueid": "MTK0101:3Z4XG4ZF49YUVJWQ7E1QYODYR5KX8G", "current_trial": 203, "dateTime": 1509156343869, "trialdata": {"rt": -1, "stimulus": "<p id=\"stim\">5</p>", "key_press": -1, "trial_type": "single-stim", "trial_index": 203, "time_elapsed": 1109520, "internal_node_id": "0.0-153.0-5.0"}}, {"uniqueid": "MTK0101:3Z4XG4ZF49YUVJWQ7E1QYODYR5KX8G", "current_trial": 204, "dateTime": 1509156344872, "trialdata": {"rt": -1, "stimulus": "<p id=\"stim\">4</p>", "key_press": -1, "trial_type": "single-stim", "trial_index": 204, "time_elapsed": 1110523, "internal_node_id": "0.0-153.0-6.0"}}, {"uniqueid": "MTK0101:3Z4XG4ZF49YUVJWQ7E1QYODYR5KX8G", "current_trial": 205, "dateTime": 1509156345875, "trialdata": {"rt": -1, "stimulus": "<p id=\"stim\">3</p>", "key_press": -1, "trial_type": "single-stim", "trial_index": 205, "time_elapsed": 1111526, "internal_node_id": "0.0-153.0-7.0"}}, {"uniqueid": "MTK0101:3Z4XG4ZF49YUVJWQ7E1QYODYR5KX8G", "current_trial": 206, "dateTime": 1509156346877, "trialdata": {"rt": -1, "stimulus": "<p id=\"stim\">2</p>", "key_press": -1, "trial_type": "single-stim", "trial_index": 206, "time_elapsed": 1112528, "internal_node_id": "0.0-153.0-8.0"}}, {"uniqueid": "MTK0101:3Z4XG4ZF49YUVJWQ7E1QYODYR5KX8G", "current_trial": 207, "dateTime": 1509156347880, "trialdata": {"rt": -1, "stimulus": "<p id=\"stim\">1</p>", "key_press": -1, "trial_type": "single-stim", "trial_index": 207, "time_elapsed": 1113531, "internal_node_id": "0.0-153.0-9.0"}}, {"uniqueid": "MTK0101:3Z4XG4ZF49YUVJWQ7E1QYODYR5KX8G", "current_trial": 208, "dateTime": 1509156349385, "trialdata": {"rt": -1, "stimulus": "<p id=\"stim\">+</p>", "key_press": -1, "type": "FIXATION", "trial_type": "single-stim", "trial_index": 208, "time_elapsed": 1115036, "internal_node_id": "0.0-154.0-0.0"}}, {"uniqueid": "MTK0101:3Z4XG4ZF49YUVJWQ7E1QYODYR5KX8G", "current_trial": 209, "dateTime": 1509156350186, "trialdata": {"rt": -1, "stimulus": "<p id=\"stim\">DRUG</p>", "key_press": -1, "type": "PRES_VIS", "word": "drug", "wordID": 500, "conditions": [24, 800, "v", 24000], "trial": 5, "serialpos": 0, "trial_type": "single-stim", "trial_index": 209, "time_elapsed": 1115837, "internal_node_id": "0.0-155.0"}}, {"uniqueid": "MTK0101:3Z4XG4ZF49YUVJWQ7E1QYODYR5KX8G", "current_trial": 210, "dateTime": 1509156352021, "trialdata": {"rt": -1, "stimulus": "<p id=\"stim\">CHEST</p>", "key_press": -1, "type": "PRES_VIS", "word": "chest", "wordID": 294, "conditions": [24, 800, "v", 24000], "trial": 5, "serialpos": 1, "trial_type": "single-stim", "trial_index": 210, "time_elapsed": 1117672, "internal_node_id": "0.0-156.0"}}, {"uniqueid": "MTK0101:3Z4XG4ZF49YUVJWQ7E1QYODYR5KX8G", "current_trial": 211, "dateTime": 1509156353976, "trialdata": {"rt": -1, "stimulus": "<p id=\"stim\">GAVEL</p>", "key_press": -1, "type": "PRES_VIS", "word": "gavel", "wordID": 626, "conditions": [24, 800, "v", 24000], "trial": 5, "serialpos": 2, "trial_type": "single-stim", "trial_index": 211, "time_elapsed": 1119627, "internal_node_id": "0.0-157.0"}}, {"uniqueid": "MTK0101:3Z4XG4ZF49YUVJWQ7E1QYODYR5KX8G", "current_trial": 212, "dateTime": 1509156355811, "trialdata": {"rt": -1, "stimulus": "<p id=\"stim\">JUDGE</p>", "key_press": -1, "type": "PRES_VIS", "word": "judge", "wordID": 760, "conditions": [24, 800, "v", 24000], "trial": 5, "serialpos": 3, "trial_type": "single-stim", "trial_index": 212, "time_elapsed": 1121461, "internal_node_id": "0.0-158.0"}}, {"uniqueid": "MTK0101:3Z4XG4ZF49YUVJWQ7E1QYODYR5KX8G", "current_trial": 213, "dateTime": 1509156357580, "trialdata": {"rt": -1, "stimulus": "<p id=\"stim\">LAVA</p>", "key_press": -1, "type": "PRES_VIS", "word": "lava", "wordID": 803, "conditions": [24, 800, "v", 24000], "trial": 5, "serialpos": 4, "trial_type": "single-stim", "trial_index": 213, "time_elapsed": 1123230, "internal_node_id": "0.0-159.0"}}, {"uniqueid": "MTK0101:3Z4XG4ZF49YUVJWQ7E1QYODYR5KX8G", "current_trial": 214, "dateTime": 1509156359502, "trialdata": {"rt": -1, "stimulus": "<p id=\"stim\">ATLAS</p>", "key_press": -1, "type": "PRES_VIS", "word": "atlas", "wordID": 52, "conditions": [24, 800, "v", 24000], "trial": 5, "serialpos": 5, "trial_type": "single-stim", "trial_index": 214, "time_elapsed": 1125153, "internal_node_id": "0.0-160.0"}}, {"uniqueid": "MTK0101:3Z4XG4ZF49YUVJWQ7E1QYODYR5KX8G", "current_trial": 215, "dateTime": 1509156361110, "trialdata": {"rt": -1, "stimulus": "<p id=\"stim\">DENIM</p>", "key_press": -1, "type": "PRES_VIS", "word": "denim", "wordID": 445, "conditions": [24, 800, "v", 24000], "trial": 5, "serialpos": 6, "trial_type": "single-stim", "trial_index": 215, "time_elapsed": 1126760, "internal_node_id": "0.0-161.0"}}, {"uniqueid": "MTK0101:3Z4XG4ZF49YUVJWQ7E1QYODYR5KX8G", "current_trial": 216, "dateTime": 1509156362880, "trialdata": {"rt": -1, "stimulus": "<p id=\"stim\">PLAID</p>", "key_press": -1, "type": "PRES_VIS", "word": "plaid", "wordID": 1079, "conditions": [24, 800, "v", 24000], "trial": 5, "serialpos": 7, "trial_type": "single-stim", "trial_index": 216, "time_elapsed": 1128531, "internal_node_id": "0.0-162.0"}}, {"uniqueid": "MTK0101:3Z4XG4ZF49YUVJWQ7E1QYODYR5KX8G", "current_trial": 217, "dateTime": 1509156364520, "trialdata": {"rt": -1, "stimulus": "<p id=\"stim\">LIGHTNING</p>", "key_press": -1, "type": "PRES_VIS", "word": "lightning", "wordID": 819, "conditions": [24, 800, "v", 24000], "trial": 5, "serialpos": 8, "trial_type": "single-stim", "trial_index": 217, "time_elapsed": 1130171, "internal_node_id": "0.0-163.0"}}, {"uniqueid": "MTK0101:3Z4XG4ZF49YUVJWQ7E1QYODYR5KX8G", "current_trial": 218, "dateTime": 1509156366333, "trialdata": {"rt": -1, "stimulus": "<p id=\"stim\">SLUG</p>", "key_press": -1, "type": "PRES_VIS", "word": "slug", "wordID": 1328, "conditions": [24, 800, "v", 24000], "trial": 5, "serialpos": 9, "trial_type": "single-stim", "trial_index": 218, "time_elapsed": 1131984, "internal_node_id": "0.0-164.0"}}, {"uniqueid": "MTK0101:3Z4XG4ZF49YUVJWQ7E1QYODYR5KX8G", "current_trial": 219, "dateTime": 1509156368102, "trialdata": {"rt": -1, "stimulus": "<p id=\"stim\">NOVEL</p>", "key_press": -1, "type": "PRES_VIS", "word": "novel", "wordID": 959, "conditions": [24, 800, "v", 24000], "trial": 5, "serialpos": 10, "trial_type": "single-stim", "trial_index": 219, "time_elapsed": 1133752, "internal_node_id": "0.0-165.0"}}, {"uniqueid": "MTK0101:3Z4XG4ZF49YUVJWQ7E1QYODYR5KX8G", "current_trial": 220, "dateTime": 1509156370077, "trialdata": {"rt": -1, "stimulus": "<p id=\"stim\">JURY</p>", "key_press": -1, "type": "PRES_VIS", "word": "jury", "wordID": 765, "conditions": [24, 800, "v", 24000], "trial": 5, "serialpos": 11, "trial_type": "single-stim", "trial_index": 220, "time_elapsed": 1135728, "internal_node_id": "0.0-166.0"}}, {"uniqueid": "MTK0101:3Z4XG4ZF49YUVJWQ7E1QYODYR5KX8G", "current_trial": 221, "dateTime": 1509156371857, "trialdata": {"rt": -1, "stimulus": "<p id=\"stim\">FLESH</p>", "key_press": -1, "type": "PRES_VIS", "word": "flesh", "wordID": 578, "conditions": [24, 800, "v", 24000], "trial": 5, "serialpos": 12, "trial_type": "single-stim", "trial_index": 221, "time_elapsed": 1137508, "internal_node_id": "0.0-167.0"}}, {"uniqueid": "MTK0101:3Z4XG4ZF49YUVJWQ7E1QYODYR5KX8G", "current_trial": 222, "dateTime": 1509156373597, "trialdata": {"rt": -1, "stimulus": "<p id=\"stim\">PICTURE</p>", "key_press": -1, "type": "PRES_VIS", "word": "picture", "wordID": 1060, "conditions": [24, 800, "v", 24000], "trial": 5, "serialpos": 13, "trial_type": "single-stim", "trial_index": 222, "time_elapsed": 1139248, "internal_node_id": "0.0-168.0"}}, {"uniqueid": "MTK0101:3Z4XG4ZF49YUVJWQ7E1QYODYR5KX8G", "current_trial": 223, "dateTime": 1509156375413, "trialdata": {"rt": -1, "stimulus": "<p id=\"stim\">SALT</p>", "key_press": -1, "type": "PRES_VIS", "word": "salt", "wordID": 1228, "conditions": [24, 800, "v", 24000], "trial": 5, "serialpos": 14, "trial_type": "single-stim", "trial_index": 223, "time_elapsed": 1141064, "internal_node_id": "0.0-169.0"}}, {"uniqueid": "MTK0101:3Z4XG4ZF49YUVJWQ7E1QYODYR5KX8G", "current_trial": 224, "dateTime": 1509156377367, "trialdata": {"rt": -1, "stimulus": "<p id=\"stim\">KNIFE</p>", "key_press": -1, "type": "PRES_VIS", "word": "knife", "wordID": 784, "conditions": [24, 800, "v", 24000], "trial": 5, "serialpos": 15, "trial_type": "single-stim", "trial_index": 224, "time_elapsed": 1143018, "internal_node_id": "0.0-170.0"}}, {"uniqueid": "MTK0101:3Z4XG4ZF49YUVJWQ7E1QYODYR5KX8G", "current_trial": 225, "dateTime": 1509156379310, "trialdata": {"rt": -1, "stimulus": "<p id=\"stim\">QUEEN</p>", "key_press": -1, "type": "PRES_VIS", "word": "queen", "wordID": 1148, "conditions": [24, 800, "v", 24000], "trial": 5, "serialpos": 16, "trial_type": "single-stim", "trial_index": 225, "time_elapsed": 1144960, "internal_node_id": "0.0-171.0"}}, {"uniqueid": "MTK0101:3Z4XG4ZF49YUVJWQ7E1QYODYR5KX8G", "current_trial": 226, "dateTime": 1509156380989, "trialdata": {"rt": -1, "stimulus": "<p id=\"stim\">PRINCESS</p>", "key_press": -1, "type": "PRES_VIS", "word": "princess", "wordID": 1124, "conditions": [24, 800, "v", 24000], "trial": 5, "serialpos": 17, "trial_type": "single-stim", "trial_index": 226, "time_elapsed": 1146639, "internal_node_id": "0.0-172.0"}}, {"uniqueid": "MTK0101:3Z4XG4ZF49YUVJWQ7E1QYODYR5KX8G", "current_trial": 227, "dateTime": 1509156382628, "trialdata": {"rt": -1, "stimulus": "<p id=\"stim\">TURTLE</p>", "key_press": -1, "type": "PRES_VIS", "word": "turtle", "wordID": 1521, "conditions": [24, 800, "v", 24000], "trial": 5, "serialpos": 18, "trial_type": "single-stim", "trial_index": 227, "time_elapsed": 1148279, "internal_node_id": "0.0-173.0"}}, {"uniqueid": "MTK0101:3Z4XG4ZF49YUVJWQ7E1QYODYR5KX8G", "current_trial": 228, "dateTime": 1509156384490, "trialdata": {"rt": -1, "stimulus": "<p id=\"stim\">OX</p>", "key_press": -1, "type": "PRES_VIS", "word": "ox", "wordID": 993, "conditions": [24, 800, "v", 24000], "trial": 5, "serialpos": 19, "trial_type": "single-stim", "trial_index": 228, "time_elapsed": 1150141, "internal_node_id": "0.0-174.0"}}, {"uniqueid": "MTK0101:3Z4XG4ZF49YUVJWQ7E1QYODYR5KX8G", "current_trial": 229, "dateTime": 1509156386143, "trialdata": {"rt": -1, "stimulus": "<p id=\"stim\">LION</p>", "key_press": -1, "type": "PRES_VIS", "word": "lion", "wordID": 826, "conditions": [24, 800, "v", 24000], "trial": 5, "serialpos": 20, "trial_type": "single-stim", "trial_index": 229, "time_elapsed": 1151793, "internal_node_id": "0.0-175.0"}}, {"uniqueid": "MTK0101:3Z4XG4ZF49YUVJWQ7E1QYODYR5KX8G", "current_trial": 230, "dateTime": 1509156388058, "trialdata": {"rt": -1, "stimulus": "<p id=\"stim\">BEEF</p>", "key_press": -1, "type": "PRES_VIS", "word": "beef", "wordID": 112, "conditions": [24, 800, "v", 24000], "trial": 5, "serialpos": 21, "trial_type": "single-stim", "trial_index": 230, "time_elapsed": 1153709, "internal_node_id": "0.0-176.0"}}, {"uniqueid": "MTK0101:3Z4XG4ZF49YUVJWQ7E1QYODYR5KX8G", "current_trial": 231, "dateTime": 1509156389819, "trialdata": {"rt": -1, "stimulus": "<p id=\"stim\">TART</p>", "key_press": -1, "type": "PRES_VIS", "word": "tart", "wordID": 1435, "conditions": [24, 800, "v", 24000], "trial": 5, "serialpos": 22, "trial_type": "single-stim", "trial_index": 231, "time_elapsed": 1155470, "internal_node_id": "0.0-177.0"}}, {"uniqueid": "MTK0101:3Z4XG4ZF49YUVJWQ7E1QYODYR5KX8G", "current_trial": 232, "dateTime": 1509156391540, "trialdata": {"rt": -1, "stimulus": "<p id=\"stim\">SHARK</p>", "key_press": -1, "type": "PRES_VIS", "word": "shark", "wordID": 1274, "conditions": [24, 800, "v", 24000], "trial": 5, "serialpos": 23, "trial_type": "single-stim", "trial_index": 232, "time_elapsed": 1157191, "internal_node_id": "0.0-178.0"}}, {"uniqueid": "MTK0101:3Z4XG4ZF49YUVJWQ7E1QYODYR5KX8G", "current_trial": 233, "dateTime": 1509156393899, "trialdata": {"rt": -1, "stimulus": "", "key_press": -1, "type": "PRE_RECALL_DELAY", "trial_type": "single-stim", "trial_index": 233, "time_elapsed": 1159550, "internal_node_id": "0.0-179.0-0.0"}}, {"uniqueid": "MTK0101:3Z4XG4ZF49YUVJWQ7E1QYODYR5KX8G", "current_trial": 234, "dateTime": 1509156394401, "trialdata": {"rt": -1000, "stimulus": "/static/audio/400Hz.wav", "key_press": -1, "type": "PRE_RECALL_ALERT", "trial_type": "single-audio", "trial_index": 234, "time_elapsed": 1160052, "internal_node_id": "0.0-180.0"}}, {"uniqueid": "MTK0101:3Z4XG4ZF49YUVJWQ7E1QYODYR5KX8G", "current_trial": 235, "dateTime": 1509156454407, "trialdata": {"rt": [1050, 3885, 4965, 5978, 9510, 10691, 12728, 21986, 30964, 34283, 43980, 48357, 54353], "recwords": ["shark", "drug", "judge", "chest", "ox", "lion", "picture", "treasure", "jury", "suspect", "judge", "chest", "snake"], "type": "FREE_RECALL", "conditions": [24, 800, "v", 24000], "trial": 5, "trial_type": "free-recall", "trial_index": 235, "time_elapsed": 1220055, "internal_node_id": "0.0-181.0-0.0"}}, {"uniqueid": "MTK0101:3Z4XG4ZF49YUVJWQ7E1QYODYR5KX8G", "current_trial": 236, "dateTime": 1509156585208, "trialdata": {"rt": 128796, "key_press": 13, "type": "INSTRUCTIONS", "trial_type": "text", "trial_index": 236, "time_elapsed": 1350859, "internal_node_id": "0.0-182.0"}}, {"uniqueid": "MTK0101:3Z4XG4ZF49YUVJWQ7E1QYODYR5KX8G", "current_trial": 237, "dateTime": 1509156599217, "trialdata": {"rt": [3630, 5993, 10335], "responses": ["21", "10", "12"], "num1": [6, 4, 7, 9], "num2": [8, 1, 1, 9], "num3": [7, 5, 4, 1], "type": "DISTRACTOR", "conditions": [12, 800, "a", 12000], "trial": 6, "trial_type": "math-distractor", "trial_index": 237, "time_elapsed": 1364868, "internal_node_id": "0.0-183.0"}}, {"uniqueid": "MTK0101:3Z4XG4ZF49YUVJWQ7E1QYODYR5KX8G", "current_trial": 238, "dateTime": 1509156602228, "trialdata": {"rt": -1, "stimulus": "<p id=\"stim\">10</p>", "key_press": -1, "trial_type": "single-stim", "trial_index": 238, "time_elapsed": 1367878, "internal_node_id": "0.0-184.0-0.0"}}, {"uniqueid": "MTK0101:3Z4XG4ZF49YUVJWQ7E1QYODYR5KX8G", "current_trial": 239, "dateTime": 1509156603231, "trialdata": {"rt": -1, "stimulus": "<p id=\"stim\">9</p>", "key_press": -1, "trial_type": "single-stim", "trial_index": 239, "time_elapsed": 1368882, "internal_node_id": "0.0-184.0-1.0"}}, {"uniqueid": "MTK0101:3Z4XG4ZF49YUVJWQ7E1QYODYR5KX8G", "current_trial": 240, "dateTime": 1509156604236, "trialdata": {"rt": -1, "stimulus": "<p id=\"stim\">8</p>", "key_press": -1, "trial_type": "single-stim", "trial_index": 240, "time_elapsed": 1369886, "internal_node_id": "0.0-184.0-2.0"}}, {"uniqueid": "MTK0101:3Z4XG4ZF49YUVJWQ7E1QYODYR5KX8G", "current_trial": 241, "dateTime": 1509156605240, "trialdata": {"rt": -1, "stimulus": "<p id=\"stim\">7</p>", "key_press": -1, "trial_type": "single-stim", "trial_index": 241, "time_elapsed": 1370891, "internal_node_id": "0.0-184.0-3.0"}}, {"uniqueid": "MTK0101:3Z4XG4ZF49YUVJWQ7E1QYODYR5KX8G", "current_trial": 242, "dateTime": 1509156606244, "trialdata": {"rt": -1, "stimulus": "<p id=\"stim\">6</p>", "key_press": -1, "trial_type": "single-stim", "trial_index": 242, "time_elapsed": 1371895, "internal_node_id": "0.0-184.0-4.0"}}, {"uniqueid": "MTK0101:3Z4XG4ZF49YUVJWQ7E1QYODYR5KX8G", "current_trial": 243, "dateTime": 1509156607248, "trialdata": {"rt": -1, "stimulus": "<p id=\"stim\">5</p>", "key_press": -1, "trial_type": "single-stim", "trial_index": 243, "time_elapsed": 1372899, "internal_node_id": "0.0-184.0-5.0"}}, {"uniqueid": "MTK0101:3Z4XG4ZF49YUVJWQ7E1QYODYR5KX8G", "current_trial": 244, "dateTime": 1509156608252, "trialdata": {"rt": -1, "stimulus": "<p id=\"stim\">4</p>", "key_press": -1, "trial_type": "single-stim", "trial_index": 244, "time_elapsed": 1373903, "internal_node_id": "0.0-184.0-6.0"}}, {"uniqueid": "MTK0101:3Z4XG4ZF49YUVJWQ7E1QYODYR5KX8G", "current_trial": 245, "dateTime": 1509156609256, "trialdata": {"rt": -1, "stimulus": "<p id=\"stim\">3</p>", "key_press": -1, "trial_type": "single-stim", "trial_index": 245, "time_elapsed": 1374907, "internal_node_id": "0.0-184.0-7.0"}}, {"uniqueid": "MTK0101:3Z4XG4ZF49YUVJWQ7E1QYODYR5KX8G", "current_trial": 246, "dateTime": 1509156610260, "trialdata": {"rt": -1, "stimulus": "<p id=\"stim\">2</p>", "key_press": -1, "trial_type": "single-stim", "trial_index": 246, "time_elapsed": 1375911, "internal_node_id": "0.0-184.0-8.0"}}, {"uniqueid": "MTK0101:3Z4XG4ZF49YUVJWQ7E1QYODYR5KX8G", "current_trial": 247, "dateTime": 1509156611264, "trialdata": {"rt": -1, "stimulus": "<p id=\"stim\">1</p>", "key_press": -1, "trial_type": "single-stim", "trial_index": 247, "time_elapsed": 1376915, "internal_node_id": "0.0-184.0-9.0"}}, {"uniqueid": "MTK0101:3Z4XG4ZF49YUVJWQ7E1QYODYR5KX8G", "current_trial": 248, "dateTime": 1509156612768, "trialdata": {"rt": -1, "stimulus": "<p id=\"stim\">+</p>", "key_press": -1, "type": "FIXATION", "trial_type": "single-stim", "trial_index": 248, "time_elapsed": 1378418, "internal_node_id": "0.0-185.0-0.0"}}, {"uniqueid": "MTK0101:3Z4XG4ZF49YUVJWQ7E1QYODYR5KX8G", "current_trial": 249, "dateTime": 1509156614387, "trialdata": {"rt": -1000, "stimulus": "/static/audio/wordpool/TORTOISE.wav", "key_press": -1, "type": "PRES_AUD", "word": "tortoise", "wordID": 1485, "conditions": [12, 800, "a", 12000], "trial": 6, "serialpos": 0, "trial_type": "single-audio", "trial_index": 249, "time_elapsed": 1380038, "internal_node_id": "0.0-186.0"}}, {"uniqueid": "MTK0101:3Z4XG4ZF49YUVJWQ7E1QYODYR5KX8G", "current_trial": 250, "dateTime": 1509156616193, "trialdata": {"rt": -1000, "stimulus": "/static/audio/wordpool/LILY.wav", "key_press": -1, "type": "PRES_AUD", "word": "lily", "wordID": 820, "conditions": [12, 800, "a", 12000], "trial": 6, "serialpos": 1, "trial_type": "single-audio", "trial_index": 250, "time_elapsed": 1381844, "internal_node_id": "0.0-187.0"}}, {"uniqueid": "MTK0101:3Z4XG4ZF49YUVJWQ7E1QYODYR5KX8G", "current_trial": 251, "dateTime": 1509156617863, "trialdata": {"rt": -1000, "stimulus": "/static/audio/wordpool/ROCKET.wav", "key_press": -1, "type": "PRES_AUD", "word": "rocket", "wordID": 1201, "conditions": [12, 800, "a", 12000], "trial": 6, "serialpos": 2, "trial_type": "single-audio", "trial_index": 251, "time_elapsed": 1383514, "internal_node_id": "0.0-188.0"}}, {"uniqueid": "MTK0101:3Z4XG4ZF49YUVJWQ7E1QYODYR5KX8G", "current_trial": 252, "dateTime": 1509156619479, "trialdata": {"rt": -1000, "stimulus": "/static/audio/wordpool/WITNESS.wav", "key_press": -1, "type": "PRES_AUD", "word": "witness", "wordID": 1617, "conditions": [12, 800, "a", 12000], "trial": 6, "serialpos": 3, "trial_type": "single-audio", "trial_index": 252, "time_elapsed": 1385129, "internal_node_id": "0.0-189.0"}}, {"uniqueid": "MTK0101:3Z4XG4ZF49YUVJWQ7E1QYODYR5KX8G", "current_trial": 253, "dateTime": 1509156621139, "trialdata": {"rt": -1000, "stimulus": "/static/audio/wordpool/TUBA.wav", "key_press": -1, "type": "PRES_AUD", "word": "tuba", "wordID": 1514, "conditions": [12, 800, "a", 12000], "trial": 6, "serialpos": 4, "trial_type": "single-audio", "trial_index": 253, "time_elapsed": 1386789, "internal_node_id": "0.0-190.0"}}, {"uniqueid": "MTK0101:3Z4XG4ZF49YUVJWQ7E1QYODYR5KX8G", "current_trial": 254, "dateTime": 1509156623052, "trialdata": {"rt": -1000, "stimulus": "/static/audio/wordpool/PLUTO.wav", "key_press": -1, "type": "PRES_AUD", "word": "pluto", "wordID": 1091, "conditions": [12, 800, "a", 12000], "trial": 6, "serialpos": 5, "trial_type": "single-audio", "trial_index": 254, "time_elapsed": 1388703, "internal_node_id": "0.0-191.0"}}, {"uniqueid": "MTK0101:3Z4XG4ZF49YUVJWQ7E1QYODYR5KX8G", "current_trial": 255, "dateTime": 1509156625012, "trialdata": {"rt": -1000, "stimulus": "/static/audio/wordpool/FUNGUS.wav", "key_press": -1, "type": "PRES_AUD", "word": "fungus", "wordID": 613, "conditions": [12, 800, "a", 12000], "trial": 6, "serialpos": 6, "trial_type": "single-audio", "trial_index": 255, "time_elapsed": 1390662, "internal_node_id": "0.0-192.0"}}, {"uniqueid": "MTK0101:3Z4XG4ZF49YUVJWQ7E1QYODYR5KX8G", "current_trial": 256, "dateTime": 1509156626856, "trialdata": {"rt": -1000, "stimulus": "/static/audio/wordpool/TURNIP.wav", "key_press": -1, "type": "PRES_AUD", "word": "turnip", "wordID": 1520, "conditions": [12, 800, "a", 12000], "trial": 6, "serialpos": 7, "trial_type": "single-audio", "trial_index": 256, "time_elapsed": 1392507, "internal_node_id": "0.0-193.0"}}, {"uniqueid": "MTK0101:3Z4XG4ZF49YUVJWQ7E1QYODYR5KX8G", "current_trial": 257, "dateTime": 1509156628484, "trialdata": {"rt": -1000, "stimulus": "/static/audio/wordpool/CONVICT.wav", "key_press": -1, "type": "PRES_AUD", "word": "convict", "wordID": 370, "conditions": [12, 800, "a", 12000], "trial": 6, "serialpos": 8, "trial_type": "single-audio", "trial_index": 257, "time_elapsed": 1394135, "internal_node_id": "0.0-194.0"}}, {"uniqueid": "MTK0101:3Z4XG4ZF49YUVJWQ7E1QYODYR5KX8G", "current_trial": 258, "dateTime": 1509156630343, "trialdata": {"rt": -1000, "stimulus": "/static/audio/wordpool/TERMITE.wav", "key_press": -1, "type": "PRES_AUD", "word": "termite", "wordID": 1450, "conditions": [12, 800, "a", 12000], "trial": 6, "serialpos": 9, "trial_type": "single-audio", "trial_index": 258, "time_elapsed": 1395994, "internal_node_id": "0.0-195.0"}}, {"uniqueid": "MTK0101:3Z4XG4ZF49YUVJWQ7E1QYODYR5KX8G", "current_trial": 259, "dateTime": 1509156632104, "trialdata": {"rt": -1000, "stimulus": "/static/audio/wordpool/WARDROBE.wav", "key_press": -1, "type": "PRES_AUD", "word": "wardrobe", "wordID": 1586, "conditions": [12, 800, "a", 12000], "trial": 6, "serialpos": 10, "trial_type": "single-audio", "trial_index": 259, "time_elapsed": 1397755, "internal_node_id": "0.0-196.0"}}, {"uniqueid": "MTK0101:3Z4XG4ZF49YUVJWQ7E1QYODYR5KX8G", "current_trial": 260, "dateTime": 1509156634043, "trialdata": {"rt": -1000, "stimulus": "/static/audio/wordpool/BLOUSE.wav", "key_press": -1, "type": "PRES_AUD", "word": "blouse", "wordID": 138, "conditions": [12, 800, "a", 12000], "trial": 6, "serialpos": 11, "trial_type": "single-audio", "trial_index": 260, "time_elapsed": 1399694, "internal_node_id": "0.0-197.0"}}, {"uniqueid": "MTK0101:3Z4XG4ZF49YUVJWQ7E1QYODYR5KX8G", "current_trial": 261, "dateTime": 1509156635352, "trialdata": {"rt": -1, "stimulus": "", "key_press": -1, "type": "PRE_RECALL_DELAY", "trial_type": "single-stim", "trial_index": 261, "time_elapsed": 1401003, "internal_node_id": "0.0-198.0-0.0"}}, {"uniqueid": "MTK0101:3Z4XG4ZF49YUVJWQ7E1QYODYR5KX8G", "current_trial": 262, "dateTime": 1509156635854, "trialdata": {"rt": -1000, "stimulus": "/static/audio/400Hz.wav", "key_press": -1, "type": "PRE_RECALL_ALERT", "trial_type": "single-audio", "trial_index": 262, "time_elapsed": 1401505, "internal_node_id": "0.0-199.0"}}, {"uniqueid": "MTK0101:3Z4XG4ZF49YUVJWQ7E1QYODYR5KX8G", "current_trial": 263, "dateTime": 1509156695860, "trialdata": {"rt": [6591, 7851, 8830, 12194, 13735, 14995, 18066, 21453, 24851, 51468, 58308], "recwords": ["tortise", "lily", "rocket", "witness", "tuba", "turnip", "blossom", "cactus", "fungus", "turnip", "turtle"], "type": "FREE_RECALL", "conditions": [12, 800, "a", 12000], "trial": 6, "trial_type": "free-recall", "trial_index": 263, "time_elapsed": 1461508, "internal_node_id": "0.0-200.0-0.0"}}, {"uniqueid": "MTK0101:3Z4XG4ZF49YUVJWQ7E1QYODYR5KX8G", "current_trial": 264, "dateTime": 1509156698946, "trialdata": {"rt": 1083, "key_press": 13, "type": "INSTRUCTIONS", "trial_type": "text", "trial_index": 264, "time_elapsed": 1464597, "internal_node_id": "0.0-201.0"}}, {"uniqueid": "MTK0101:3Z4XG4ZF49YUVJWQ7E1QYODYR5KX8G", "current_trial": 265, "dateTime": 1509156724959, "trialdata": {"rt": [2155, 5372, 8466, 11886, 16150, 17590, 22045, 23755], "responses": ["16", "18", "17", "19", "13", "12", "20", "20"], "num1": [8, 8, 3, 3, 5, 6, 9, 8, 5], "num2": [8, 9, 5, 7, 7, 4, 3, 3, 5], "num3": [4, 1, 9, 9, 1, 2, 8, 9, 2], "type": "DISTRACTOR", "conditions": [24, 800, "a", 24000], "trial": 7, "trial_type": "math-distractor", "trial_index": 265, "time_elapsed": 1490610, "internal_node_id": "0.0-202.0"}}, {"uniqueid": "MTK0101:3Z4XG4ZF49YUVJWQ7E1QYODYR5KX8G", "current_trial": 266, "dateTime": 1509156727965, "trialdata": {"rt": -1, "stimulus": "<p id=\"stim\">10</p>", "key_press": -1, "trial_type": "single-stim", "trial_index": 266, "time_elapsed": 1493616, "internal_node_id": "0.0-203.0-0.0"}}, {"uniqueid": "MT