{"condition": 0, "counterbalance": 650, "assignmentId": "3SUWZRL0MZKYL5MLJUE0QLW06NU6E8", "workerId": "MTK0333", "hitId": "3TZDZ3Y0JSDKW3WDFBHVER8OUVX192", "currenttrial": 626, "bonus": 0, "data": [{"uniqueid": "MTK0333:3SUWZRL0MZKYL5MLJUE0QLW06NU6E8", "current_trial": 0, "dateTime": 1510714011850, "trialdata": {"rt": 2061, "key_press": 13, "type": "INSTRUCTIONS", "trial_type": "text", "trial_index": 0, "time_elapsed": 2065, "internal_node_id": "0.0-0.0"}}, {"uniqueid": "MTK0333:3SUWZRL0MZKYL5MLJUE0QLW06NU6E8", "current_trial": 1, "dateTime": 1510714025485, "trialdata": {"rt": 13633, "key_press": 13, "type": "INSTRUCTIONS", "trial_type": "text", "trial_index": 1, "time_elapsed": 15701, "internal_node_id": "0.0-1.0"}}, {"uniqueid": "MTK0333:3SUWZRL0MZKYL5MLJUE0QLW06NU6E8", "current_trial": 2, "dateTime": 1510714031716, "trialdata": {"rt": [6219], "responses": ["ocean"], "type": "AUDIO_TEST", "trial_type": "audio-test", "trial_index": 2, "time_elapsed": 21932, "internal_node_id": "0.0-2.0"}}, {"uniqueid": "MTK0333:3SUWZRL0MZKYL5MLJUE0QLW06NU6E8", "current_trial": 3, "dateTime": 1510714053171, "trialdata": {"rt": [6568, 21447], "responses": ["crysta", "crystal"], "type": "AUDIO_TEST", "trial_type": "audio-test", "trial_index": 3, "time_elapsed": 43386, "internal_node_id": "0.0-3.0"}}, {"uniqueid": "MTK0333:3SUWZRL0MZKYL5MLJUE0QLW06NU6E8", "current_trial": 4, "dateTime": 1510714060130, "trialdata": {"rt": [6953], "responses": ["spice"], "type": "AUDIO_TEST", "trial_type": "audio-test", "trial_index": 4, "time_elapsed": 50346, "internal_node_id": "0.0-4.0"}}, {"uniqueid": "MTK0333:3SUWZRL0MZKYL5MLJUE0QLW06NU6E8", "current_trial": 5, "dateTime": 1510714089842, "trialdata": {"rt": 28953, "responses": "{\"Q0\":\"1:30\",\"Q1\":\"9:00\",\"Q2\":\"5\"}", "type": "SLEEP_SURVEY", "trial_type": "survey-text", "trial_index": 5, "time_elapsed": 80058, "internal_node_id": "0.0-5.0"}}, {"uniqueid": "MTK0333:3SUWZRL0MZKYL5MLJUE0QLW06NU6E8", "current_trial": 6, "dateTime": 1510714153831, "trialdata": {"rt": 62985, "key_press": 13, "type": "INSTRUCTIONS", "trial_type": "text", "trial_index": 6, "time_elapsed": 144047, "internal_node_id": "0.0-6.0"}}, {"uniqueid": "MTK0333:3SUWZRL0MZKYL5MLJUE0QLW06NU6E8", "current_trial": 7, "dateTime": 1510714179891, "trialdata": {"rt": 25558, "key_press": 13, "type": "INSTRUCTIONS", "trial_type": "text", "trial_index": 7, "time_elapsed": 170107, "internal_node_id": "0.0-7.0"}}, {"uniqueid": "MTK0333:3SUWZRL0MZKYL5MLJUE0QLW06NU6E8", "current_trial": 8, "dateTime": 1510714210987, "trialdata": {"rt": 30591, "key_press": 13, "type": "INSTRUCTIONS", "trial_type": "text", "trial_index": 8, "time_elapsed": 201203, "internal_node_id": "0.0-8.0"}}, {"uniqueid": "MTK0333:3SUWZRL0MZKYL5MLJUE0QLW06NU6E8", "current_trial": 9, "dateTime": 1510714229998, "trialdata": {"rt": [3796, 8691, 12869, 16747], "responses": ["16", "8", "17", "14"], "num1": [5, 4, 8, 1, 8], "num2": [5, 2, 3, 7, 3], "num3": [6, 2, 6, 6, 5], "type": "DISTRACTOR", "conditions": [18, 1200, "a", 18000], "trial": 0, "trial_type": "math-distractor", "trial_index": 9, "time_elapsed": 220213, "internal_node_id": "0.0-9.0"}}, {"uniqueid": "MTK0333:3SUWZRL0MZKYL5MLJUE0QLW06NU6E8", "current_trial": 10, "dateTime": 1510714233004, "trialdata": {"rt": -1, "stimulus": "<p id=\"stim\">10</p>", "key_press": -1, "trial_type": "single-stim", "trial_index": 10, "time_elapsed": 223219, "internal_node_id": "0.0-10.0-0.0"}}, {"uniqueid": "MTK0333:3SUWZRL0MZKYL5MLJUE0QLW06NU6E8", "current_trial": 11, "dateTime": 1510714234008, "trialdata": {"rt": -1, "stimulus": "<p id=\"stim\">9</p>", "key_press": -1, "trial_type": "single-stim", "trial_index": 11, "time_elapsed": 224223, "internal_node_id": "0.0-10.0-1.0"}}, {"uniqueid": "MTK0333:3SUWZRL0MZKYL5MLJUE0QLW06NU6E8", "current_trial": 12, "dateTime": 1510714235011, "trialdata": {"rt": -1, "stimulus": "<p id=\"stim\">8</p>", "key_press": -1, "trial_type": "single-stim", "trial_index": 12, "time_elapsed": 225227, "internal_node_id": "0.0-10.0-2.0"}}, {"uniqueid": "MTK0333:3SUWZRL0MZKYL5MLJUE0QLW06NU6E8", "current_trial": 13, "dateTime": 1510714236015, "trialdata": {"rt": -1, "stimulus": "<p id=\"stim\">7</p>", "key_press": -1, "trial_type": "single-stim", "trial_index": 13, "time_elapsed": 226231, "internal_node_id": "0.0-10.0-3.0"}}, {"uniqueid": "MTK0333:3SUWZRL0MZKYL5MLJUE0QLW06NU6E8", "current_trial": 14, "dateTime": 1510714237020, "trialdata": {"rt": -1, "stimulus": "<p id=\"stim\">6</p>", "key_press": -1, "trial_type": "single-stim", "trial_index": 14, "time_elapsed": 227235, "internal_node_id": "0.0-10.0-4.0"}}, {"uniqueid": "MTK0333:3SUWZRL0MZKYL5MLJUE0QLW06NU6E8", "current_trial": 15, "dateTime": 1510714238025, "trialdata": {"rt": -1, "stimulus": "<p id=\"stim\">5</p>", "key_press": -1, "trial_type": "single-stim", "trial_index": 15, "time_elapsed": 228241, "internal_node_id": "0.0-10.0-5.0"}}, {"uniqueid": "MTK0333:3SUWZRL0MZKYL5MLJUE0QLW06NU6E8", "current_trial": 16, "dateTime": 1510714239027, "trialdata": {"rt": -1, "stimulus": "<p id=\"stim\">4</p>", "key_press": -1, "trial_type": "single-stim", "trial_index": 16, "time_elapsed": 229243, "internal_node_id": "0.0-10.0-6.0"}}, {"uniqueid": "MTK0333:3SUWZRL0MZKYL5MLJUE0QLW06NU6E8", "current_trial": 17, "dateTime": 1510714240031, "trialdata": {"rt": -1, "stimulus": "<p id=\"stim\">3</p>", "key_press": -1, "trial_type": "single-stim", "trial_index": 17, "time_elapsed": 230247, "internal_node_id": "0.0-10.0-7.0"}}, {"uniqueid": "MTK0333:3SUWZRL0MZKYL5MLJUE0QLW06NU6E8", "current_trial": 18, "dateTime": 1510714241036, "trialdata": {"rt": -1, "stimulus": "<p id=\"stim\">2</p>", "key_press": -1, "trial_type": "single-stim", "trial_index": 18, "time_elapsed": 231251, "internal_node_id": "0.0-10.0-8.0"}}, {"uniqueid": "MTK0333:3SUWZRL0MZKYL5MLJUE0QLW06NU6E8", "current_trial": 19, "dateTime": 1510714242038, "trialdata": {"rt": -1, "stimulus": "<p id=\"stim\">1</p>", "key_press": -1, "trial_type": "single-stim", "trial_index": 19, "time_elapsed": 232253, "internal_node_id": "0.0-10.0-9.0"}}, {"uniqueid": "MTK0333:3SUWZRL0MZKYL5MLJUE0QLW06NU6E8", "current_trial": 20, "dateTime": 1510714243543, "trialdata": {"rt": -1, "stimulus": "<p id=\"stim\">+</p>", "key_press": -1, "type": "FIXATION", "trial_type": "single-stim", "trial_index": 20, "time_elapsed": 233758, "internal_node_id": "0.0-11.0-0.0"}}, {"uniqueid": "MTK0333:3SUWZRL0MZKYL5MLJUE0QLW06NU6E8", "current_trial": 21, "dateTime": 1510714245683, "trialdata": {"rt": -1000, "stimulus": "/static/audio/wordpool/LIVER.wav", "key_press": -1, "type": "PRES_AUD", "word": "liver", "wordID": 832, "conditions": [18, 1200, "a", 18000], "trial": 0, "serialpos": 0, "trial_type": "single-audio", "trial_index": 21, "time_elapsed": 235899, "internal_node_id": "0.0-12.0"}}, {"uniqueid": "MTK0333:3SUWZRL0MZKYL5MLJUE0QLW06NU6E8", "current_trial": 22, "dateTime": 1510714248033, "trialdata": {"rt": -1000, "stimulus": "/static/audio/wordpool/NOVEL.wav", "key_press": -1, "type": "PRES_AUD", "word": "novel", "wordID": 959, "conditions": [18, 1200, "a", 18000], "trial": 0, "serialpos": 1, "trial_type": "single-audio", "trial_index": 22, "time_elapsed": 238249, "internal_node_id": "0.0-13.0"}}, {"uniqueid": "MTK0333:3SUWZRL0MZKYL5MLJUE0QLW06NU6E8", "current_trial": 23, "dateTime": 1510714250257, "trialdata": {"rt": -1000, "stimulus": "/static/audio/wordpool/OUTLAW.wav", "key_press": -1, "type": "PRES_AUD", "word": "outlaw", "wordID": 988, "conditions": [18, 1200, "a", 18000], "trial": 0, "serialpos": 2, "trial_type": "single-audio", "trial_index": 23, "time_elapsed": 240473, "internal_node_id": "0.0-14.0"}}, {"uniqueid": "MTK0333:3SUWZRL0MZKYL5MLJUE0QLW06NU6E8", "current_trial": 24, "dateTime": 1510714252440, "trialdata": {"rt": -1000, "stimulus": "/static/audio/wordpool/BANQUET.wav", "key_press": -1, "type": "PRES_AUD", "word": "banquet", "wordID": 85, "conditions": [18, 1200, "a", 18000], "trial": 0, "serialpos": 3, "trial_type": "single-audio", "trial_index": 24, "time_elapsed": 242656, "internal_node_id": "0.0-15.0"}}, {"uniqueid": "MTK0333:3SUWZRL0MZKYL5MLJUE0QLW06NU6E8", "current_trial": 25, "dateTime": 1510714254775, "trialdata": {"rt": -1000, "stimulus": "/static/audio/wordpool/MARSH.wav", "key_press": -1, "type": "PRES_AUD", "word": "marsh", "wordID": 873, "conditions": [18, 1200, "a", 18000], "trial": 0, "serialpos": 4, "trial_type": "single-audio", "trial_index": 25, "time_elapsed": 244991, "internal_node_id": "0.0-16.0"}}, {"uniqueid": "MTK0333:3SUWZRL0MZKYL5MLJUE0QLW06NU6E8", "current_trial": 26, "dateTime": 1510714256830, "trialdata": {"rt": -1000, "stimulus": "/static/audio/wordpool/ICEBERG.wav", "key_press": -1, "type": "PRES_AUD", "word": "iceberg", "wordID": 730, "conditions": [18, 1200, "a", 18000], "trial": 0, "serialpos": 5, "trial_type": "single-audio", "trial_index": 26, "time_elapsed": 247046, "internal_node_id": "0.0-17.0"}}, {"uniqueid": "MTK0333:3SUWZRL0MZKYL5MLJUE0QLW06NU6E8", "current_trial": 27, "dateTime": 1510714258833, "trialdata": {"rt": -1000, "stimulus": "/static/audio/wordpool/OMELET.wav", "key_press": -1, "type": "PRES_AUD", "word": "omelet", "wordID": 975, "conditions": [18, 1200, "a", 18000], "trial": 0, "serialpos": 6, "trial_type": "single-audio", "trial_index": 27, "time_elapsed": 249049, "internal_node_id": "0.0-18.0"}}, {"uniqueid": "MTK0333:3SUWZRL0MZKYL5MLJUE0QLW06NU6E8", "current_trial": 28, "dateTime": 1510714260897, "trialdata": {"rt": -1000, "stimulus": "/static/audio/wordpool/SNAIL.wav", "key_press": -1, "type": "PRES_AUD", "word": "snail", "wordID": 1331, "conditions": [18, 1200, "a", 18000], "trial": 0, "serialpos": 7, "trial_type": "single-audio", "trial_index": 28, "time_elapsed": 251113, "internal_node_id": "0.0-19.0"}}, {"uniqueid": "MTK0333:3SUWZRL0MZKYL5MLJUE0QLW06NU6E8", "current_trial": 29, "dateTime": 1510714262979, "trialdata": {"rt": -1000, "stimulus": "/static/audio/wordpool/BALLOON.wav", "key_press": -1, "type": "PRES_AUD", "word": "balloon", "wordID": 74, "conditions": [18, 1200, "a", 18000], "trial": 0, "serialpos": 8, "trial_type": "single-audio", "trial_index": 29, "time_elapsed": 253194, "internal_node_id": "0.0-20.0"}}, {"uniqueid": "MTK0333:3SUWZRL0MZKYL5MLJUE0QLW06NU6E8", "current_trial": 30, "dateTime": 1510714265222, "trialdata": {"rt": -1000, "stimulus": "/static/audio/wordpool/SUPPER.wav", "key_press": -1, "type": "PRES_AUD", "word": "supper", "wordID": 1410, "conditions": [18, 1200, "a", 18000], "trial": 0, "serialpos": 9, "trial_type": "single-audio", "trial_index": 30, "time_elapsed": 255438, "internal_node_id": "0.0-21.0"}}, {"uniqueid": "MTK0333:3SUWZRL0MZKYL5MLJUE0QLW06NU6E8", "current_trial": 31, "dateTime": 1510714267317, "trialdata": {"rt": -1000, "stimulus": "/static/audio/wordpool/DORM.wav", "key_press": -1, "type": "PRES_AUD", "word": "dorm", "wordID": 487, "conditions": [18, 1200, "a", 18000], "trial": 0, "serialpos": 10, "trial_type": "single-audio", "trial_index": 31, "time_elapsed": 257533, "internal_node_id": "0.0-22.0"}}, {"uniqueid": "MTK0333:3SUWZRL0MZKYL5MLJUE0QLW06NU6E8", "current_trial": 32, "dateTime": 1510714269385, "trialdata": {"rt": -1000, "stimulus": "/static/audio/wordpool/CELLAR.wav", "key_press": -1, "type": "PRES_AUD", "word": "cellar", "wordID": 266, "conditions": [18, 1200, "a", 18000], "trial": 0, "serialpos": 11, "trial_type": "single-audio", "trial_index": 32, "time_elapsed": 259601, "internal_node_id": "0.0-23.0"}}, {"uniqueid": "MTK0333:3SUWZRL0MZKYL5MLJUE0QLW06NU6E8", "current_trial": 33, "dateTime": 1510714271543, "trialdata": {"rt": -1000, "stimulus": "/static/audio/wordpool/CHURCH.wav", "key_press": -1, "type": "PRES_AUD", "word": "church", "wordID": 306, "conditions": [18, 1200, "a", 18000], "trial": 0, "serialpos": 12, "trial_type": "single-audio", "trial_index": 33, "time_elapsed": 261759, "internal_node_id": "0.0-24.0"}}, {"uniqueid": "MTK0333:3SUWZRL0MZKYL5MLJUE0QLW06NU6E8", "current_trial": 34, "dateTime": 1510714273726, "trialdata": {"rt": -1000, "stimulus": "/static/audio/wordpool/SCARECROW.wav", "key_press": -1, "type": "PRES_AUD", "word": "scarecrow", "wordID": 1244, "conditions": [18, 1200, "a", 18000], "trial": 0, "serialpos": 13, "trial_type": "single-audio", "trial_index": 34, "time_elapsed": 263942, "internal_node_id": "0.0-25.0"}}, {"uniqueid": "MTK0333:3SUWZRL0MZKYL5MLJUE0QLW06NU6E8", "current_trial": 35, "dateTime": 1510714275920, "trialdata": {"rt": -1000, "stimulus": "/static/audio/wordpool/VELVET.wav", "key_press": -1, "type": "PRES_AUD", "word": "velvet", "wordID": 1554, "conditions": [18, 1200, "a", 18000], "trial": 0, "serialpos": 14, "trial_type": "single-audio", "trial_index": 35, "time_elapsed": 266136, "internal_node_id": "0.0-26.0"}}, {"uniqueid": "MTK0333:3SUWZRL0MZKYL5MLJUE0QLW06NU6E8", "current_trial": 36, "dateTime": 1510714278110, "trialdata": {"rt": -1000, "stimulus": "/static/audio/wordpool/PILOT.wav", "key_press": -1, "type": "PRES_AUD", "word": "pilot", "wordID": 1069, "conditions": [18, 1200, "a", 18000], "trial": 0, "serialpos": 15, "trial_type": "single-audio", "trial_index": 36, "time_elapsed": 268326, "internal_node_id": "0.0-27.0"}}, {"uniqueid": "MTK0333:3SUWZRL0MZKYL5MLJUE0QLW06NU6E8", "current_trial": 37, "dateTime": 1510714280198, "trialdata": {"rt": -1000, "stimulus": "/static/audio/wordpool/GLOBE.wav", "key_press": -1, "type": "PRES_AUD", "word": "globe", "wordID": 640, "conditions": [18, 1200, "a", 18000], "trial": 0, "serialpos": 16, "trial_type": "single-audio", "trial_index": 37, "time_elapsed": 270414, "internal_node_id": "0.0-28.0"}}, {"uniqueid": "MTK0333:3SUWZRL0MZKYL5MLJUE0QLW06NU6E8", "current_trial": 38, "dateTime": 1510714282525, "trialdata": {"rt": -1000, "stimulus": "/static/audio/wordpool/REPORT.wav", "key_press": -1, "type": "PRES_AUD", "word": "report", "wordID": 1183, "conditions": [18, 1200, "a", 18000], "trial": 0, "serialpos": 17, "trial_type": "single-audio", "trial_index": 38, "time_elapsed": 272741, "internal_node_id": "0.0-29.0"}}, {"uniqueid": "MTK0333:3SUWZRL0MZKYL5MLJUE0QLW06NU6E8", "current_trial": 39, "dateTime": 1510714283908, "trialdata": {"rt": -1, "stimulus": "", "key_press": -1, "type": "PRE_RECALL_DELAY", "trial_type": "single-stim", "trial_index": 39, "time_elapsed": 274123, "internal_node_id": "0.0-30.0-0.0"}}, {"uniqueid": "MTK0333:3SUWZRL0MZKYL5MLJUE0QLW06NU6E8", "current_trial": 40, "dateTime": 1510714284410, "trialdata": {"rt": -1000, "stimulus": "/static/audio/400Hz.wav", "key_press": -1, "type": "PRE_RECALL_ALERT", "trial_type": "single-audio", "trial_index": 40, "time_elapsed": 274625, "internal_node_id": "0.0-31.0"}}, {"uniqueid": "MTK0333:3SUWZRL0MZKYL5MLJUE0QLW06NU6E8", "current_trial": 41, "dateTime": 1510714344421, "trialdata": {"rt": [3432, 4960, 6089, 7689, 9833, 14200, 17600, 22488, 31129, 35255, 45542], "recwords": ["report", "snail", "globe", "pilot", "omelette", "supper", "velvet", "banquet", "church", "liver", ""], "type": "FREE_RECALL", "conditions": [18, 1200, "a", 18000], "trial": 0, "trial_type": "free-recall", "trial_index": 41, "time_elapsed": 334631, "internal_node_id": "0.0-32.0-0.0"}}, {"uniqueid": "MTK0333:3SUWZRL0MZKYL5MLJUE0QLW06NU6E8", "current_trial": 42, "dateTime": 1510714422770, "trialdata": {"rt": 76346, "key_press": 13, "type": "INSTRUCTIONS", "trial_type": "text", "trial_index": 42, "time_elapsed": 412986, "internal_node_id": "0.0-33.0"}}, {"uniqueid": "MTK0333:3SUWZRL0MZKYL5MLJUE0QLW06NU6E8", "current_trial": 43, "dateTime": 1510714442776, "trialdata": {"rt": [5899, 9178, 16323], "responses": ["19", "18", "25"], "num1": [5, 6, 9, 5], "num2": [6, 7, 9, 9], "num3": [8, 5, 7, 7], "type": "DISTRACTOR", "conditions": [18, 1200, "v", 18000], "trial": 1, "trial_type": "math-distractor", "trial_index": 43, "time_elapsed": 432991, "internal_node_id": "0.0-34.0"}}, {"uniqueid": "MTK0333:3SUWZRL0MZKYL5MLJUE0QLW06NU6E8", "current_trial": 44, "dateTime": 1510714445781, "trialdata": {"rt": -1, "stimulus": "<p id=\"stim\">10</p>", "key_press": -1, "trial_type": "single-stim", "trial_index": 44, "time_elapsed": 435997, "internal_node_id": "0.0-35.0-0.0"}}, {"uniqueid": "MTK0333:3SUWZRL0MZKYL5MLJUE0QLW06NU6E8", "current_trial": 45, "dateTime": 1510714446785, "trialdata": {"rt": -1, "stimulus": "<p id=\"stim\">9</p>", "key_press": -1, "trial_type": "single-stim", "trial_index": 45, "time_elapsed": 437001, "internal_node_id": "0.0-35.0-1.0"}}, {"uniqueid": "MTK0333:3SUWZRL0MZKYL5MLJUE0QLW06NU6E8", "current_trial": 46, "dateTime": 1510714447792, "trialdata": {"rt": -1, "stimulus": "<p id=\"stim\">8</p>", "key_press": -1, "trial_type": "single-stim", "trial_index": 46, "time_elapsed": 438008, "internal_node_id": "0.0-35.0-2.0"}}, {"uniqueid": "MTK0333:3SUWZRL0MZKYL5MLJUE0QLW06NU6E8", "current_trial": 47, "dateTime": 1510714448794, "trialdata": {"rt": -1, "stimulus": "<p id=\"stim\">7</p>", "key_press": -1, "trial_type": "single-stim", "trial_index": 47, "time_elapsed": 439010, "internal_node_id": "0.0-35.0-3.0"}}, {"uniqueid": "MTK0333:3SUWZRL0MZKYL5MLJUE0QLW06NU6E8", "current_trial": 48, "dateTime": 1510714449798, "trialdata": {"rt": -1, "stimulus": "<p id=\"stim\">6</p>", "key_press": -1, "trial_type": "single-stim", "trial_index": 48, "time_elapsed": 440013, "internal_node_id": "0.0-35.0-4.0"}}, {"uniqueid": "MTK0333:3SUWZRL0MZKYL5MLJUE0QLW06NU6E8", "current_trial": 49, "dateTime": 1510714450802, "trialdata": {"rt": -1, "stimulus": "<p id=\"stim\">5</p>", "key_press": -1, "trial_type": "single-stim", "trial_index": 49, "time_elapsed": 441018, "internal_node_id": "0.0-35.0-5.0"}}, {"uniqueid": "MTK0333:3SUWZRL0MZKYL5MLJUE0QLW06NU6E8", "current_trial": 50, "dateTime": 1510714451806, "trialdata": {"rt": -1, "stimulus": "<p id=\"stim\">4</p>", "key_press": -1, "trial_type": "single-stim", "trial_index": 50, "time_elapsed": 442021, "internal_node_id": "0.0-35.0-6.0"}}, {"uniqueid": "MTK0333:3SUWZRL0MZKYL5MLJUE0QLW06NU6E8", "current_trial": 51, "dateTime": 1510714452810, "trialdata": {"rt": -1, "stimulus": "<p id=\"stim\">3</p>", "key_press": -1, "trial_type": "single-stim", "trial_index": 51, "time_elapsed": 443026, "internal_node_id": "0.0-35.0-7.0"}}, {"uniqueid": "MTK0333:3SUWZRL0MZKYL5MLJUE0QLW06NU6E8", "current_trial": 52, "dateTime": 1510714453814, "trialdata": {"rt": -1, "stimulus": "<p id=\"stim\">2</p>", "key_press": -1, "trial_type": "single-stim", "trial_index": 52, "time_elapsed": 444030, "internal_node_id": "0.0-35.0-8.0"}}, {"uniqueid": "MTK0333:3SUWZRL0MZKYL5MLJUE0QLW06NU6E8", "current_trial": 53, "dateTime": 1510714454818, "trialdata": {"rt": -1, "stimulus": "<p id=\"stim\">1</p>", "key_press": -1, "trial_type": "single-stim", "trial_index": 53, "time_elapsed": 445034, "internal_node_id": "0.0-35.0-9.0"}}, {"uniqueid": "MTK0333:3SUWZRL0MZKYL5MLJUE0QLW06NU6E8", "current_trial": 54, "dateTime": 1510714456323, "trialdata": {"rt": -1, "stimulus": "<p id=\"stim\">+</p>", "key_press": -1, "type": "FIXATION", "trial_type": "single-stim", "trial_index": 54, "time_elapsed": 446538, "internal_node_id": "0.0-36.0-0.0"}}, {"uniqueid": "MTK0333:3SUWZRL0MZKYL5MLJUE0QLW06NU6E8", "current_trial": 55, "dateTime": 1510714457528, "trialdata": {"rt": -1, "stimulus": "<p id=\"stim\">CANDY</p>", "key_press": -1, "type": "PRES_VIS", "word": "candy", "wordID": 229, "conditions": [18, 1200, "v", 18000], "trial": 1, "serialpos": 0, "trial_type": "single-stim", "trial_index": 55, "time_elapsed": 447744, "internal_node_id": "0.0-37.0"}}, {"uniqueid": "MTK0333:3SUWZRL0MZKYL5MLJUE0QLW06NU6E8", "current_trial": 56, "dateTime": 1510714459585, "trialdata": {"rt": -1, "stimulus": "<p id=\"stim\">BINDER</p>", "key_press": -1, "type": "PRES_VIS", "word": "binder", "wordID": 126, "conditions": [18, 1200, "v", 18000], "trial": 1, "serialpos": 1, "trial_type": "single-stim", "trial_index": 56, "time_elapsed": 449801, "internal_node_id": "0.0-38.0"}}, {"uniqueid": "MTK0333:3SUWZRL0MZKYL5MLJUE0QLW06NU6E8", "current_trial": 57, "dateTime": 1510714461916, "trialdata": {"rt": -1, "stimulus": "<p id=\"stim\">MAPLE</p>", "key_press": -1, "type": "PRES_VIS", "word": "maple", "wordID": 865, "conditions": [18, 1200, "v", 18000], "trial": 1, "serialpos": 2, "trial_type": "single-stim", "trial_index": 57, "time_elapsed": 452131, "internal_node_id": "0.0-39.0"}}, {"uniqueid": "MTK0333:3SUWZRL0MZKYL5MLJUE0QLW06NU6E8", "current_trial": 58, "dateTime": 1510714464207, "trialdata": {"rt": -1, "stimulus": "<p id=\"stim\">COD</p>", "key_press": -1, "type": "PRES_VIS", "word": "cod", "wordID": 339, "conditions": [18, 1200, "v", 18000], "trial": 1, "serialpos": 3, "trial_type": "single-stim", "trial_index": 58, "time_elapsed": 454422, "internal_node_id": "0.0-40.0"}}, {"uniqueid": "MTK0333:3SUWZRL0MZKYL5MLJUE0QLW06NU6E8", "current_trial": 59, "dateTime": 1510714466270, "trialdata": {"rt": -1, "stimulus": "<p id=\"stim\">CHEMIST</p>", "key_press": -1, "type": "PRES_VIS", "word": "chemist", "wordID": 291, "conditions": [18, 1200, "v", 18000], "trial": 1, "serialpos": 4, "trial_type": "single-stim", "trial_index": 59, "time_elapsed": 456485, "internal_node_id": "0.0-41.0"}}, {"uniqueid": "MTK0333:3SUWZRL0MZKYL5MLJUE0QLW06NU6E8", "current_trial": 60, "dateTime": 1510714468376, "trialdata": {"rt": -1, "stimulus": "<p id=\"stim\">WINDOW</p>", "key_press": -1, "type": "PRES_VIS", "word": "window", "wordID": 1610, "conditions": [18, 1200, "v", 18000], "trial": 1, "serialpos": 5, "trial_type": "single-stim", "trial_index": 60, "time_elapsed": 458592, "internal_node_id": "0.0-42.0"}}, {"uniqueid": "MTK0333:3SUWZRL0MZKYL5MLJUE0QLW06NU6E8", "current_trial": 61, "dateTime": 1510714470447, "trialdata": {"rt": -1, "stimulus": "<p id=\"stim\">LEOPARD</p>", "key_press": -1, "type": "PRES_VIS", "word": "leopard", "wordID": 811, "conditions": [18, 1200, "v", 18000], "trial": 1, "serialpos": 6, "trial_type": "single-stim", "trial_index": 61, "time_elapsed": 460663, "internal_node_id": "0.0-43.0"}}, {"uniqueid": "MTK0333:3SUWZRL0MZKYL5MLJUE0QLW06NU6E8", "current_trial": 62, "dateTime": 1510714472746, "trialdata": {"rt": -1, "stimulus": "<p id=\"stim\">HERO</p>", "key_press": -1, "type": "PRES_VIS", "word": "hero", "wordID": 705, "conditions": [18, 1200, "v", 18000], "trial": 1, "serialpos": 7, "trial_type": "single-stim", "trial_index": 62, "time_elapsed": 462961, "internal_node_id": "0.0-44.0"}}, {"uniqueid": "MTK0333:3SUWZRL0MZKYL5MLJUE0QLW06NU6E8", "current_trial": 63, "dateTime": 1510714474832, "trialdata": {"rt": -1, "stimulus": "<p id=\"stim\">HUSBAND</p>", "key_press": -1, "type": "PRES_VIS", "word": "husband", "wordID": 727, "conditions": [18, 1200, "v", 18000], "trial": 1, "serialpos": 8, "trial_type": "single-stim", "trial_index": 63, "time_elapsed": 465047, "internal_node_id": "0.0-45.0"}}, {"uniqueid": "MTK0333:3SUWZRL0MZKYL5MLJUE0QLW06NU6E8", "current_trial": 64, "dateTime": 1510714477167, "trialdata": {"rt": -1, "stimulus": "<p id=\"stim\">SUBWAY</p>", "key_press": -1, "type": "PRES_VIS", "word": "subway", "wordID": 1399, "conditions": [18, 1200, "v", 18000], "trial": 1, "serialpos": 9, "trial_type": "single-stim", "trial_index": 64, "time_elapsed": 467383, "internal_node_id": "0.0-46.0"}}, {"uniqueid": "MTK0333:3SUWZRL0MZKYL5MLJUE0QLW06NU6E8", "current_trial": 65, "dateTime": 1510714479374, "trialdata": {"rt": -1, "stimulus": "<p id=\"stim\">SADDLE</p>", "key_press": -1, "type": "PRES_VIS", "word": "saddle", "wordID": 1220, "conditions": [18, 1200, "v", 18000], "trial": 1, "serialpos": 10, "trial_type": "single-stim", "trial_index": 65, "time_elapsed": 469590, "internal_node_id": "0.0-47.0"}}, {"uniqueid": "MTK0333:3SUWZRL0MZKYL5MLJUE0QLW06NU6E8", "current_trial": 66, "dateTime": 1510714481591, "trialdata": {"rt": -1, "stimulus": "<p id=\"stim\">GRAVE</p>", "key_press": -1, "type": "PRES_VIS", "word": "grave", "wordID": 657, "conditions": [18, 1200, "v", 18000], "trial": 1, "serialpos": 11, "trial_type": "single-stim", "trial_index": 66, "time_elapsed": 471807, "internal_node_id": "0.0-48.0"}}, {"uniqueid": "MTK0333:3SUWZRL0MZKYL5MLJUE0QLW06NU6E8", "current_trial": 67, "dateTime": 1510714483741, "trialdata": {"rt": -1, "stimulus": "<p id=\"stim\">BACON</p>", "key_press": -1, "type": "PRES_VIS", "word": "bacon", "wordID": 66, "conditions": [18, 1200, "v", 18000], "trial": 1, "serialpos": 12, "trial_type": "single-stim", "trial_index": 67, "time_elapsed": 473956, "internal_node_id": "0.0-49.0"}}, {"uniqueid": "MTK0333:3SUWZRL0MZKYL5MLJUE0QLW06NU6E8", "current_trial": 68, "dateTime": 1510714485817, "trialdata": {"rt": -1, "stimulus": "<p id=\"stim\">TRENCH</p>", "key_press": -1, "type": "PRES_VIS", "word": "trench", "wordID": 1502, "conditions": [18, 1200, "v", 18000], "trial": 1, "serialpos": 13, "trial_type": "single-stim", "trial_index": 68, "time_elapsed": 476031, "internal_node_id": "0.0-50.0"}}, {"uniqueid": "MTK0333:3SUWZRL0MZKYL5MLJUE0QLW06NU6E8", "current_trial": 69, "dateTime": 1510714488065, "trialdata": {"rt": -1, "stimulus": "<p id=\"stim\">OYSTER</p>", "key_press": -1, "type": "PRES_VIS", "word": "oyster", "wordID": 994, "conditions": [18, 1200, "v", 18000], "trial": 1, "serialpos": 14, "trial_type": "single-stim", "trial_index": 69, "time_elapsed": 478277, "internal_node_id": "0.0-51.0"}}, {"uniqueid": "MTK0333:3SUWZRL0MZKYL5MLJUE0QLW06NU6E8", "current_trial": 70, "dateTime": 1510714490314, "trialdata": {"rt": -1, "stimulus": "<p id=\"stim\">COWBOY</p>", "key_press": -1, "type": "PRES_VIS", "word": "cowboy", "wordID": 394, "conditions": [18, 1200, "v", 18000], "trial": 1, "serialpos": 15, "trial_type": "single-stim", "trial_index": 70, "time_elapsed": 480529, "internal_node_id": "0.0-52.0"}}, {"uniqueid": "MTK0333:3SUWZRL0MZKYL5MLJUE0QLW06NU6E8", "current_trial": 71, "dateTime": 1510714492624, "trialdata": {"rt": -1, "stimulus": "<p id=\"stim\">FRANCE</p>", "key_press": -1, "type": "PRES_VIS", "word": "france", "wordID": 600, "conditions": [18, 1200, "v", 18000], "trial": 1, "serialpos": 16, "trial_type": "single-stim", "trial_index": 71, "time_elapsed": 482840, "internal_node_id": "0.0-53.0"}}, {"uniqueid": "MTK0333:3SUWZRL0MZKYL5MLJUE0QLW06NU6E8", "current_trial": 72, "dateTime": 1510714494817, "trialdata": {"rt": -1, "stimulus": "<p id=\"stim\">SWORD</p>", "key_press": -1, "type": "PRES_VIS", "word": "sword", "wordID": 1422, "conditions": [18, 1200, "v", 18000], "trial": 1, "serialpos": 17, "trial_type": "single-stim", "trial_index": 72, "time_elapsed": 485033, "internal_node_id": "0.0-54.0"}}, {"uniqueid": "MTK0333:3SUWZRL0MZKYL5MLJUE0QLW06NU6E8", "current_trial": 73, "dateTime": 1510714497162, "trialdata": {"rt": -1, "stimulus": "", "key_press": -1, "type": "PRE_RECALL_DELAY", "trial_type": "single-stim", "trial_index": 73, "time_elapsed": 487378, "internal_node_id": "0.0-55.0-0.0"}}, {"uniqueid": "MTK0333:3SUWZRL0MZKYL5MLJUE0QLW06NU6E8", "current_trial": 74, "dateTime": 1510714497667, "trialdata": {"rt": -1000, "stimulus": "/static/audio/400Hz.wav", "key_press": -1, "type": "PRE_RECALL_ALERT", "trial_type": "single-audio", "trial_index": 74, "time_elapsed": 487883, "internal_node_id": "0.0-56.0"}}, {"uniqueid": "MTK0333:3SUWZRL0MZKYL5MLJUE0QLW06NU6E8", "current_trial": 75, "dateTime": 1510714557679, "trialdata": {"rt": [2530, 3770, 5522, 7066, 10329, 11562, 25887], "recwords": ["france", "sword", "cowboy", "cod", "candy", "binder", "sword"], "type": "FREE_RECALL", "conditions": [18, 1200, "v", 18000], "trial": 1, "trial_type": "free-recall", "trial_index": 75, "time_elapsed": 547889, "internal_node_id": "0.0-57.0-0.0"}}, {"uniqueid": "MTK0333:3SUWZRL0MZKYL5MLJUE0QLW06NU6E8", "current_trial": 76, "dateTime": 1510714619193, "trialdata": {"rt": 59505, "key_press": 32, "type": "INSTRUCTIONS", "trial_type": "text", "trial_index": 76, "time_elapsed": 609403, "internal_node_id": "0.0-58.0"}}, {"uniqueid": "MTK0333:3SUWZRL0MZKYL5MLJUE0QLW06NU6E8", "current_trial": 77, "dateTime": 1510714644202, "trialdata": {"rt": [5696, 8736, 10656, 13608, 15577, 20431, 23375], "responses": ["19", "12", "18", "18", "12", "12", "5"], "num1": [7, 2, 1, 5, 5, 7, 1, 2], "num2": [9, 6, 9, 8, 3, 2, 2, 3], "num3": [3, 4, 8, 5, 2, 3, 2, 5], "type": "DISTRACTOR", "conditions": [24, 1600, "v", 24000], "trial": 2, "trial_type": "math-distractor", "trial_index": 77, "time_elapsed": 634418, "internal_node_id": "0.0-59.0"}}, {"uniqueid": "MTK0333:3SUWZRL0MZKYL5MLJUE0QLW06NU6E8", "current_trial": 78, "dateTime": 1510714647208, "trialdata": {"rt": -1, "stimulus": "<p id=\"stim\">10</p>", "key_press": -1, "trial_type": "single-stim", "trial_index": 78, "time_elapsed": 637424, "internal_node_id": "0.0-60.0-0.0"}}, {"uniqueid": "MTK0333:3SUWZRL0MZKYL5MLJUE0QLW06NU6E8", "current_trial": 79, "dateTime": 1510714648214, "trialdata": {"rt": -1, "stimulus": "<p id=\"stim\">9</p>", "key_press": -1, "trial_type": "single-stim", "trial_index": 79, "time_elapsed": 638430, "internal_node_id": "0.0-60.0-1.0"}}, {"uniqueid": "MTK0333:3SUWZRL0MZKYL5MLJUE0QLW06NU6E8", "current_trial": 80, "dateTime": 1510714649217, "trialdata": {"rt": -1, "stimulus": "<p id=\"stim\">8</p>", "key_press": -1, "trial_type": "single-stim", "trial_index": 80, "time_elapsed": 639433, "internal_node_id": "0.0-60.0-2.0"}}, {"uniqueid": "MTK0333:3SUWZRL0MZKYL5MLJUE0QLW06NU6E8", "current_trial": 81, "dateTime": 1510714650220, "trialdata": {"rt": -1, "stimulus": "<p id=\"stim\">7</p>", "key_press": -1, "trial_type": "single-stim", "trial_index": 81, "time_elapsed": 640436, "internal_node_id": "0.0-60.0-3.0"}}, {"uniqueid": "MTK0333:3SUWZRL0MZKYL5MLJUE0QLW06NU6E8", "current_trial": 82, "dateTime": 1510714651224, "trialdata": {"rt": -1, "stimulus": "<p id=\"stim\">6</p>", "key_press": -1, "trial_type": "single-stim", "trial_index": 82, "time_elapsed": 641440, "internal_node_id": "0.0-60.0-4.0"}}, {"uniqueid": "MTK0333:3SUWZRL0MZKYL5MLJUE0QLW06NU6E8", "current_trial": 83, "dateTime": 1510714652228, "trialdata": {"rt": -1, "stimulus": "<p id=\"stim\">5</p>", "key_press": -1, "trial_type": "single-stim", "trial_index": 83, "time_elapsed": 642444, "internal_node_id": "0.0-60.0-5.0"}}, {"uniqueid": "MTK0333:3SUWZRL0MZKYL5MLJUE0QLW06NU6E8", "current_trial": 84, "dateTime": 1510714653232, "trialdata": {"rt": -1, "stimulus": "<p id=\"stim\">4</p>", "key_press": -1, "trial_type": "single-stim", "trial_index": 84, "time_elapsed": 643448, "internal_node_id": "0.0-60.0-6.0"}}, {"uniqueid": "MTK0333:3SUWZRL0MZKYL5MLJUE0QLW06NU6E8", "current_trial": 85, "dateTime": 1510714654238, "trialdata": {"rt": -1, "stimulus": "<p id=\"stim\">3</p>", "key_press": -1, "trial_type": "single-stim", "trial_index": 85, "time_elapsed": 644454, "internal_node_id": "0.0-60.0-7.0"}}, {"uniqueid": "MTK0333:3SUWZRL0MZKYL5MLJUE0QLW06NU6E8", "current_trial": 86, "dateTime": 1510714655241, "trialdata": {"rt": -1, "stimulus": "<p id=\"stim\">2</p>", "key_press": -1, "trial_type": "single-stim", "trial_index": 86, "time_elapsed": 645456, "internal_node_id": "0.0-60.0-8.0"}}, {"uniqueid": "MTK0333:3SUWZRL0MZKYL5MLJUE0QLW06NU6E8", "current_trial": 87, "dateTime": 1510714656245, "trialdata": {"rt": -1, "stimulus": "<p id=\"stim\">1</p>", "key_press": -1, "trial_type": "single-stim", "trial_index": 87, "time_elapsed": 646460, "internal_node_id": "0.0-60.0-9.0"}}, {"uniqueid": "MTK0333:3SUWZRL0MZKYL5MLJUE0QLW06NU6E8", "current_trial": 88, "dateTime": 1510714657748, "trialdata": {"rt": -1, "stimulus": "<p id=\"stim\">+</p>", "key_press": -1, "type": "FIXATION", "trial_type": "single-stim", "trial_index": 88, "time_elapsed": 647963, "internal_node_id": "0.0-61.0-0.0"}}, {"uniqueid": "MTK0333:3SUWZRL0MZKYL5MLJUE0QLW06NU6E8", "current_trial": 89, "dateTime": 1510714659350, "trialdata": {"rt": -1, "stimulus": "<p id=\"stim\">PAPER</p>", "key_press": -1, "type": "PRES_VIS", "word": "paper", "wordID": 1010, "conditions": [24, 1600, "v", 24000], "trial": 2, "serialpos": 0, "trial_type": "single-stim", "trial_index": 89, "time_elapsed": 649565, "internal_node_id": "0.0-62.0"}}, {"uniqueid": "MTK0333:3SUWZRL0MZKYL5MLJUE0QLW06NU6E8", "current_trial": 90, "dateTime": 1510714661787, "trialdata": {"rt": -1, "stimulus": "<p id=\"stim\">HAND</p>", "key_press": -1, "type": "PRES_VIS", "word": "hand", "wordID": 682, "conditions": [24, 1600, "v", 24000], "trial": 2, "serialpos": 1, "trial_type": "single-stim", "trial_index": 90, "time_elapsed": 652003, "internal_node_id": "0.0-63.0"}}, {"uniqueid": "MTK0333:3SUWZRL0MZKYL5MLJUE0QLW06NU6E8", "current_trial": 91, "dateTime": 1510714664416, "trialdata": {"rt": -1, "stimulus": "<p id=\"stim\">CATTLE</p>", "key_press": -1, "type": "PRES_VIS", "word": "cattle", "wordID": 260, "conditions": [24, 1600, "v", 24000], "trial": 2, "serialpos": 2, "trial_type": "single-stim", "trial_index": 91, "time_elapsed": 654632, "internal_node_id": "0.0-64.0"}}, {"uniqueid": "MTK0333:3SUWZRL0MZKYL5MLJUE0QLW06NU6E8", "current_trial": 92, "dateTime": 1510714667005, "trialdata": {"rt": -1, "stimulus": "<p id=\"stim\">LEG</p>", "key_press": -1, "type": "PRES_VIS", "word": "leg", "wordID": 808, "conditions": [24, 1600, "v", 24000], "trial": 2, "serialpos": 3, "trial_type": "single-stim", "trial_index": 92, "time_elapsed": 657220, "internal_node_id": "0.0-65.0"}}, {"uniqueid": "MTK0333:3SUWZRL0MZKYL5MLJUE0QLW06NU6E8", "current_trial": 93, "dateTime": 1510714669577, "trialdata": {"rt": -1, "stimulus": "<p id=\"stim\">SHOULDER</p>", "key_press": -1, "type": "PRES_VIS", "word": "shoulder", "wordID": 1293, "conditions": [24, 1600, "v", 24000], "trial": 2, "serialpos": 4, "trial_type": "single-stim", "trial_index": 93, "time_elapsed": 659793, "internal_node_id": "0.0-66.0"}}, {"uniqueid": "MTK0333:3SUWZRL0MZKYL5MLJUE0QLW06NU6E8", "current_trial": 94, "dateTime": 1510714672286, "trialdata": {"rt": -1, "stimulus": "<p id=\"stim\">COCKTAIL</p>", "key_press": -1, "type": "PRES_VIS", "word": "cocktail", "wordID": 337, "conditions": [24, 1600, "v", 24000], "trial": 2, "serialpos": 5, "trial_type": "single-stim", "trial_index": 94, "time_elapsed": 662502, "internal_node_id": "0.0-67.0"}}, {"uniqueid": "MTK0333:3SUWZRL0MZKYL5MLJUE0QLW06NU6E8", "current_trial": 95, "dateTime": 1510714674732, "trialdata": {"rt": -1, "stimulus": "<p id=\"stim\">ITEM</p>", "key_press": -1, "type": "PRES_VIS", "word": "item", "wordID": 745, "conditions": [24, 1600, "v", 24000], "trial": 2, "serialpos": 6, "trial_type": "single-stim", "trial_index": 95, "time_elapsed": 664948, "internal_node_id": "0.0-68.0"}}, {"uniqueid": "MTK0333:3SUWZRL0MZKYL5MLJUE0QLW06NU6E8", "current_trial": 96, "dateTime": 1510714677161, "trialdata": {"rt": -1, "stimulus": "<p id=\"stim\">SPHINX</p>", "key_press": -1, "type": "PRES_VIS", "word": "sphinx", "wordID": 1348, "conditions": [24, 1600, "v", 24000], "trial": 2, "serialpos": 7, "trial_type": "single-stim", "trial_index": 96, "time_elapsed": 667377, "internal_node_id": "0.0-69.0"}}, {"uniqueid": "MTK0333:3SUWZRL0MZKYL5MLJUE0QLW06NU6E8", "current_trial": 97, "dateTime": 1510714679599, "trialdata": {"rt": -1, "stimulus": "<p id=\"stim\">PICTURE</p>", "key_press": -1, "type": "PRES_VIS", "word": "picture", "wordID": 1060, "conditions": [24, 1600, "v", 24000], "trial": 2, "serialpos": 8, "trial_type": "single-stim", "trial_index": 97, "time_elapsed": 669815, "internal_node_id": "0.0-70.0"}}, {"uniqueid": "MTK0333:3SUWZRL0MZKYL5MLJUE0QLW06NU6E8", "current_trial": 98, "dateTime": 1510714682077, "trialdata": {"rt": -1, "stimulus": "<p id=\"stim\">THIEF</p>", "key_press": -1, "type": "PRES_VIS", "word": "thief", "wordID": 1455, "conditions": [24, 1600, "v", 24000], "trial": 2, "serialpos": 9, "trial_type": "single-stim", "trial_index": 98, "time_elapsed": 672293, "internal_node_id": "0.0-71.0"}}, {"uniqueid": "MTK0333:3SUWZRL0MZKYL5MLJUE0QLW06NU6E8", "current_trial": 99, "dateTime": 1510714684868, "trialdata": {"rt": -1, "stimulus": "<p id=\"stim\">OUTFIT</p>", "key_press": -1, "type": "PRES_VIS", "word": "outfit", "wordID": 987, "conditions": [24, 1600, "v", 24000], "trial": 2, "serialpos": 10, "trial_type": "single-stim", "trial_index": 99, "time_elapsed": 675084, "internal_node_id": "0.0-72.0"}}, {"uniqueid": "MTK0333:3SUWZRL0MZKYL5MLJUE0QLW06NU6E8", "current_trial": 100, "dateTime": 1510714687608, "trialdata": {"rt": -1, "stimulus": "<p id=\"stim\">BISON</p>", "key_press": -1, "type": "PRES_VIS", "word": "bison", "wordID": 130, "conditions": [24, 1600, "v", 24000], "trial": 2, "serialpos": 11, "trial_type": "single-stim", "trial_index": 100, "time_elapsed": 677824, "internal_node_id": "0.0-73.0"}}, {"uniqueid": "MTK0333:3SUWZRL0MZKYL5MLJUE0QLW06NU6E8", "current_trial": 101, "dateTime": 1510714690151, "trialdata": {"rt": -1, "stimulus": "<p id=\"stim\">TYPIST</p>", "key_press": -1, "type": "PRES_VIS", "word": "typist", "wordID": 1531, "conditions": [24, 1600, "v", 24000], "trial": 2, "serialpos": 12, "trial_type": "single-stim", "trial_index": 101, "time_elapsed": 680366, "internal_node_id": "0.0-74.0"}}, {"uniqueid": "MTK0333:3SUWZRL0MZKYL5MLJUE0QLW06NU6E8", "current_trial": 102, "dateTime": 1510714692907, "trialdata": {"rt": -1, "stimulus": "<p id=\"stim\">FIDDLE</p>", "key_press": -1, "type": "PRES_VIS", "word": "fiddle", "wordID": 560, "conditions": [24, 1600, "v", 24000], "trial": 2, "serialpos": 13, "trial_type": "single-stim", "trial_index": 102, "time_elapsed": 683123, "internal_node_id": "0.0-75.0"}}, {"uniqueid": "MTK0333:3SUWZRL0MZKYL5MLJUE0QLW06NU6E8", "current_trial": 103, "dateTime": 1510714695380, "trialdata": {"rt": -1, "stimulus": "<p id=\"stim\">HONEY</p>", "key_press": -1, "type": "PRES_VIS", "word": "honey", "wordID": 712, "conditions": [24, 1600, "v", 24000], "trial": 2, "serialpos": 14, "trial_type": "single-stim", "trial_index": 103, "time_elapsed": 685595, "internal_node_id": "0.0-76.0"}}, {"uniqueid": "MTK0333:3SUWZRL0MZKYL5MLJUE0QLW06NU6E8", "current_trial": 104, "dateTime": 1510714698063, "trialdata": {"rt": -1, "stimulus": "<p id=\"stim\">CHEST</p>", "key_press": -1, "type": "PRES_VIS", "word": "chest", "wordID": 294, "conditions": [24, 1600, "v", 24000], "trial": 2, "serialpos": 15, "trial_type": "single-stim", "trial_index": 104, "time_elapsed": 688279, "internal_node_id": "0.0-77.0"}}, {"uniqueid": "MTK0333:3SUWZRL0MZKYL5MLJUE0QLW06NU6E8", "current_trial": 105, "dateTime": 1510714700783, "trialdata": {"rt": -1, "stimulus": "<p id=\"stim\">STOMACH</p>", "key_press": -1, "type": "PRES_VIS", "word": "stomach", "wordID": 1383, "conditions": [24, 1600, "v", 24000], "trial": 2, "serialpos": 16, "trial_type": "single-stim", "trial_index": 105, "time_elapsed": 690998, "internal_node_id": "0.0-78.0"}}, {"uniqueid": "MTK0333:3SUWZRL0MZKYL5MLJUE0QLW06NU6E8", "current_trial": 106, "dateTime": 1510714703232, "trialdata": {"rt": -1, "stimulus": "<p id=\"stim\">DRILL</p>", "key_press": -1, "type": "PRES_VIS", "word": "drill", "wordID": 496, "conditions": [24, 1600, "v", 24000], "trial": 2, "serialpos": 17, "trial_type": "single-stim", "trial_index": 106, "time_elapsed": 693448, "internal_node_id": "0.0-79.0"}}, {"uniqueid": "MTK0333:3SUWZRL0MZKYL5MLJUE0QLW06NU6E8", "current_trial": 107, "dateTime": 1510714705866, "trialdata": {"rt": -1, "stimulus": "<p id=\"stim\">FLUTE</p>", "key_press": -1, "type": "PRES_VIS", "word": "flute", "wordID": 584, "conditions": [24, 1600, "v", 24000], "trial": 2, "serialpos": 18, "trial_type": "single-stim", "trial_index": 107, "time_elapsed": 696082, "internal_node_id": "0.0-80.0"}}, {"uniqueid": "MTK0333:3SUWZRL0MZKYL5MLJUE0QLW06NU6E8", "current_trial": 108, "dateTime": 1510714708536, "trialdata": {"rt": -1, "stimulus": "<p id=\"stim\">FARMER</p>", "key_press": -1, "type": "PRES_VIS", "word": "farmer", "wordID": 552, "conditions": [24, 1600, "v", 24000], "trial": 2, "serialpos": 19, "trial_type": "single-stim", "trial_index": 108, "time_elapsed": 698752, "internal_node_id": "0.0-81.0"}}, {"uniqueid": "MTK0333:3SUWZRL0MZKYL5MLJUE0QLW06NU6E8", "current_trial": 109, "dateTime": 1510714711124, "trialdata": {"rt": -1, "stimulus": "<p id=\"stim\">STAPLE</p>", "key_press": -1, "type": "PRES_VIS", "word": "staple", "wordID": 1370, "conditions": [24, 1600, "v", 24000], "trial": 2, "serialpos": 20, "trial_type": "single-stim", "trial_index": 109, "time_elapsed": 701340, "internal_node_id": "0.0-82.0"}}, {"uniqueid": "MTK0333:3SUWZRL0MZKYL5MLJUE0QLW06NU6E8", "current_trial": 110, "dateTime": 1510714713870, "trialdata": {"rt": -1, "stimulus": "<p id=\"stim\">ONION</p>", "key_press": -1, "type": "PRES_VIS", "word": "onion", "wordID": 976, "conditions": [24, 1600, "v", 24000], "trial": 2, "serialpos": 21, "trial_type": "single-stim", "trial_index": 110, "time_elapsed": 704085, "internal_node_id": "0.0-83.0"}}, {"uniqueid": "MTK0333:3SUWZRL0MZKYL5MLJUE0QLW06NU6E8", "current_trial": 111, "dateTime": 1510714716354, "trialdata": {"rt": -1, "stimulus": "<p id=\"stim\">LIGHTNING</p>", "key_press": -1, "type": "PRES_VIS", "word": "lightning", "wordID": 819, "conditions": [24, 1600, "v", 24000], "trial": 2, "serialpos": 22, "trial_type": "single-stim", "trial_index": 111, "time_elapsed": 706570, "internal_node_id": "0.0-84.0"}}, {"uniqueid": "MTK0333:3SUWZRL0MZKYL5MLJUE0QLW06NU6E8", "current_trial": 112, "dateTime": 1510714718978, "trialdata": {"rt": -1, "stimulus": "<p id=\"stim\">OFFICE</p>", "key_press": -1, "type": "PRES_VIS", "word": "office", "wordID": 971, "conditions": [24, 1600, "v", 24000], "trial": 2, "serialpos": 23, "trial_type": "single-stim", "trial_index": 112, "time_elapsed": 709194, "internal_node_id": "0.0-85.0"}}, {"uniqueid": "MTK0333:3SUWZRL0MZKYL5MLJUE0QLW06NU6E8", "current_trial": 113, "dateTime": 1510714721305, "trialdata": {"rt": -1, "stimulus": "", "key_press": -1, "type": "PRE_RECALL_DELAY", "trial_type": "single-stim", "trial_index": 113, "time_elapsed": 711521, "internal_node_id": "0.0-86.0-0.0"}}, {"uniqueid": "MTK0333:3SUWZRL0MZKYL5MLJUE0QLW06NU6E8", "current_trial": 114, "dateTime": 1510714721812, "trialdata": {"rt": -1000, "stimulus": "/static/audio/400Hz.wav", "key_press": -1, "type": "PRE_RECALL_ALERT", "trial_type": "single-audio", "trial_index": 114, "time_elapsed": 712028, "internal_node_id": "0.0-87.0"}}, {"uniqueid": "MTK0333:3SUWZRL0MZKYL5MLJUE0QLW06NU6E8", "current_trial": 115, "dateTime": 1510714781822, "trialdata": {"rt": [3190, 4854, 9182, 11309, 15469, 17158, 18751, 21133, 23461, 26189, 32981], "recwords": ["staple", "onion", "lightning", "office", "cattle", "shoulder", "hand", "thief", "picture", "sphinx", "shoulder"], "type": "FREE_RECALL", "conditions": [24, 1600, "v", 24000], "trial": 2, "trial_type": "free-recall", "trial_index": 115, "time_elapsed": 772031, "internal_node_id": "0.0-88.0-0.0"}}, {"uniqueid": "MTK0333:3SUWZRL0MZKYL5MLJUE0QLW06NU6E8", "current_trial": 116, "dateTime": 1510714786792, "trialdata": {"rt": 2966, "key_press": 32, "type": "INSTRUCTIONS", "trial_type": "text", "trial_index": 116, "time_elapsed": 777008, "internal_node_id": "0.0-89.0"}}, {"uniqueid": "MTK0333:3SUWZRL0MZKYL5MLJUE0QLW06NU6E8", "current_trial": 117, "dateTime": 1510714800797, "trialdata": {"rt": [3490, 6666, 9521, 11409], "responses": ["15", "12", "15", "6"], "num1": [2, 5, 3, 4, 8], "num2": [4, 6, 6, 1, 2], "num3": [9, 1, 6, 1, 5], "type": "DISTRACTOR", "conditions": [12, 800, "v", 12000], "trial": 3, "trial_type": "math-distractor", "trial_index": 117, "time_elapsed": 791013, "internal_node_id": "0.0-90.0"}}, {"uniqueid": "MTK0333:3SUWZRL0MZKYL5MLJUE0QLW06NU6E8", "current_trial": 118, "dateTime": 1510714803802, "trialdata": {"rt": -1, "stimulus": "<p id=\"stim\">10</p>", "key_press": -1, "trial_type": "single-stim", "trial_index": 118, "time_elapsed": 794018, "internal_node_id": "0.0-91.0-0.0"}}, {"uniqueid": "MTK0333:3SUWZRL0MZKYL5MLJUE0QLW06NU6E8", "current_trial": 119, "dateTime": 1510714804809, "trialdata": {"rt": -1, "stimulus": "<p id=\"stim\">9</p>", "key_press": -1, "trial_type": "single-stim", "trial_index": 119, "time_elapsed": 795024, "internal_node_id": "0.0-91.0-1.0"}}, {"uniqueid": "MTK0333:3SUWZRL0MZKYL5MLJUE0QLW06NU6E8", "current_trial": 120, "dateTime": 1510714805812, "trialdata": {"rt": -1, "stimulus": "<p id=\"stim\">8</p>", "key_press": -1, "trial_type": "single-stim", "trial_index": 120, "time_elapsed": 796027, "internal_node_id": "0.0-91.0-2.0"}}, {"uniqueid": "MTK0333:3SUWZRL0MZKYL5MLJUE0QLW06NU6E8", "current_trial": 121, "dateTime": 1510714806815, "trialdata": {"rt": -1, "stimulus": "<p id=\"stim\">7</p>", "key_press": -1, "trial_type": "single-stim", "trial_index": 121, "time_elapsed": 797031, "internal_node_id": "0.0-91.0-3.0"}}, {"uniqueid": "MTK0333:3SUWZRL0MZKYL5MLJUE0QLW06NU6E8", "current_trial": 122, "dateTime": 1510714807818, "trialdata": {"rt": -1, "stimulus": "<p id=\"stim\">6</p>", "key_press": -1, "trial_type": "single-stim", "trial_index": 122, "time_elapsed": 798034, "internal_node_id": "0.0-91.0-4.0"}}, {"uniqueid": "MTK0333:3SUWZRL0MZKYL5MLJUE0QLW06NU6E8", "current_trial": 123, "dateTime": 1510714808822, "trialdata": {"rt": -1, "stimulus": "<p id=\"stim\">5</p>", "key_press": -1, "trial_type": "single-stim", "trial_index": 123, "time_elapsed": 799038, "internal_node_id": "0.0-91.0-5.0"}}, {"uniqueid": "MTK0333:3SUWZRL0MZKYL5MLJUE0QLW06NU6E8", "current_trial": 124, "dateTime": 1510714809827, "trialdata": {"rt": -1, "stimulus": "<p id=\"stim\">4</p>", "key_press": -1, "trial_type": "single-stim", "trial_index": 124, "time_elapsed": 800042, "internal_node_id": "0.0-91.0-6.0"}}, {"uniqueid": "MTK0333:3SUWZRL0MZKYL5MLJUE0QLW06NU6E8", "current_trial": 125, "dateTime": 1510714810831, "trialdata": {"rt": -1, "stimulus": "<p id=\"stim\">3</p>", "key_press": -1, "trial_type": "single-stim", "trial_index": 125, "time_elapsed": 801047, "internal_node_id": "0.0-91.0-7.0"}}, {"uniqueid": "MTK0333:3SUWZRL0MZKYL5MLJUE0QLW06NU6E8", "current_trial": 126, "dateTime": 1510714811835, "trialdata": {"rt": -1, "stimulus": "<p id=\"stim\">2</p>", "key_press": -1, "trial_type": "single-stim", "trial_index": 126, "time_elapsed": 802051, "internal_node_id": "0.0-91.0-8.0"}}, {"uniqueid": "MTK0333:3SUWZRL0MZKYL5MLJUE0QLW06NU6E8", "current_trial": 127, "dateTime": 1510714812839, "trialdata": {"rt": -1, "stimulus": "<p id=\"stim\">1</p>", "key_press": -1, "trial_type": "single-stim", "trial_index": 127, "time_elapsed": 803054, "internal_node_id": "0.0-91.0-9.0"}}, {"uniqueid": "MTK0333:3SUWZRL0MZKYL5MLJUE0QLW06NU6E8", "current_trial": 128, "dateTime": 1510714814342, "trialdata": {"rt": -1, "stimulus": "<p id=\"stim\">+</p>", "key_press": -1, "type": "FIXATION", "trial_type": "single-stim", "trial_index": 128, "time_elapsed": 804558, "internal_node_id": "0.0-92.0-0.0"}}, {"uniqueid": "MTK0333:3SUWZRL0MZKYL5MLJUE0QLW06NU6E8", "current_trial": 129, "dateTime": 1510714815149, "trialdata": {"rt": -1, "stimulus": "<p id=\"stim\">CHILD</p>", "key_press": -1, "type": "PRES_VIS", "word": "child", "wordID": 298, "conditions": [12, 800, "v", 12000], "trial": 3, "serialpos": 0, "trial_type": "single-stim", "trial_index": 129, "time_elapsed": 805365, "internal_node_id": "0.0-93.0"}}, {"uniqueid": "MTK0333:3SUWZRL0MZKYL5MLJUE0QLW06NU6E8", "current_trial": 130, "dateTime": 1510714816988, "trialdata": {"rt": -1, "stimulus": "<p id=\"stim\">BRIEFCASE</p>", "key_press": -1, "type": "PRES_VIS", "word": "briefcase", "wordID": 174, "conditions": [12, 800, "v", 12000], "trial": 3, "serialpos": 1, "trial_type": "single-stim", "trial_index": 130, "time_elapsed": 807204, "internal_node_id": "0.0-94.0"}}, {"uniqueid": "MTK0333:3SUWZRL0MZKYL5MLJUE0QLW06NU6E8", "current_trial": 131, "dateTime": 1510714818701, "trialdata": {"rt": -1, "stimulus": "<p id=\"stim\">FRECKLE</p>", "key_press": -1, "type": "PRES_VIS", "word": "freckle", "wordID": 601, "conditions": [12, 800, "v", 12000], "trial": 3, "serialpos": 2, "trial_type": "single-stim", "trial_index": 131, "time_elapsed": 808916, "internal_node_id": "0.0-95.0"}}, {"uniqueid": "MTK0333:3SUWZRL0MZKYL5MLJUE0QLW06NU6E8", "current_trial": 132, "dateTime": 1510714820343, "trialdata": {"rt": -1, "stimulus": "<p id=\"stim\">PATROL</p>", "key_press": -1, "type": "PRES_VIS", "word": "patrol", "wordID": 1026, "conditions": [12, 800, "v", 12000], "trial": 3, "serialpos": 3, "trial_type": "single-stim", "trial_index": 132, "time_elapsed": 810559, "internal_node_id": "0.0-96.0"}}, {"uniqueid": "MTK0333:3SUWZRL0MZKYL5MLJUE0QLW06NU6E8", "current_trial": 133, "dateTime": 1510714822107, "trialdata": {"rt": -1, "stimulus": "<p id=\"stim\">POLICE</p>", "key_press": -1, "type": "PRES_VIS", "word": "police", "wordID": 1097, "conditions": [12, 800, "v", 12000], "trial": 3, "serialpos": 4, "trial_type": "single-stim", "trial_index": 133, "time_elapsed": 812323, "internal_node_id": "0.0-97.0"}}, {"uniqueid": "MTK0333:3SUWZRL0MZKYL5MLJUE0QLW06NU6E8", "current_trial": 134, "dateTime": 1510714824006, "trialdata": {"rt": -1, "stimulus": "<p id=\"stim\">TART</p>", "key_press": -1, "type": "PRES_VIS", "word": "tart", "wordID": 1435, "conditions": [12, 800, "v", 12000], "trial": 3, "serialpos": 5, "trial_type": "single-stim", "trial_index": 134, "time_elapsed": 814221, "internal_node_id": "0.0-98.0"}}, {"uniqueid": "MTK0333:3SUWZRL0MZKYL5MLJUE0QLW06NU6E8", "current_trial": 135, "dateTime": 1510714825735, "trialdata": {"rt": -1, "stimulus": "<p id=\"stim\">GIRL</p>", "key_press": -1, "type": "PRES_VIS", "word": "girl", "wordID": 636, "conditions": [12, 800, "v", 12000], "trial": 3, "serialpos": 6, "trial_type": "single-stim", "trial_index": 135, "time_elapsed": 815951, "internal_node_id": "0.0-99.0"}}, {"uniqueid": "MTK0333:3SUWZRL0MZKYL5MLJUE0QLW06NU6E8", "current_trial": 136, "dateTime": 1510714827453, "trialdata": {"rt": -1, "stimulus": "<p id=\"stim\">ROD</p>", "key_press": -1, "type": "PRES_VIS", "word": "rod", "wordID": 1202, "conditions": [12, 800, "v", 12000], "trial": 3, "serialpos": 7, "trial_type": "single-stim", "trial_index": 136, "time_elapsed": 817669, "internal_node_id": "0.0-100.0"}}, {"uniqueid": "MTK0333:3SUWZRL0MZKYL5MLJUE0QLW06NU6E8", "current_trial": 137, "dateTime": 1510714829177, "trialdata": {"rt": -1, "stimulus": "<p id=\"stim\">MAILBOX</p>", "key_press": -1, "type": "PRES_VIS", "word": "mailbox", "wordID": 856, "conditions": [12, 800, "v", 12000], "trial": 3, "serialpos": 8, "trial_type": "single-stim", "trial_index": 137, "time_elapsed": 819393, "internal_node_id": "0.0-101.0"}}, {"uniqueid": "MTK0333:3SUWZRL0MZKYL5MLJUE0QLW06NU6E8", "current_trial": 138, "dateTime": 1510714831103, "trialdata": {"rt": -1, "stimulus": "<p id=\"stim\">LUMBER</p>", "key_press": -1, "type": "PRES_VIS", "word": "lumber", "wordID": 847, "conditions": [12, 800, "v", 12000], "trial": 3, "serialpos": 9, "trial_type": "single-stim", "trial_index": 138, "time_elapsed": 821318, "internal_node_id": "0.0-102.0"}}, {"uniqueid": "MTK0333:3SUWZRL0MZKYL5MLJUE0QLW06NU6E8", "current_trial": 139, "dateTime": 1510714832822, "trialdata": {"rt": -1, "stimulus": "<p id=\"stim\">TRACTOR</p>", "key_press": -1, "type": "PRES_VIS", "word": "tractor", "wordID": 1492, "conditions": [12, 800, "v", 12000], "trial": 3, "serialpos": 10, "trial_type": "single-stim", "trial_index": 139, "time_elapsed": 823037, "internal_node_id": "0.0-103.0"}}, {"uniqueid": "MTK0333:3SUWZRL0MZKYL5MLJUE0QLW06NU6E8", "current_trial": 140, "dateTime": 1510714834719, "trialdata": {"rt": -1, "stimulus": "<p id=\"stim\">POET</p>", "key_press": -1, "type": "PRES_VIS", "word": "poet", "wordID": 1094, "conditions": [12, 800, "v", 12000], "trial": 3, "serialpos": 11, "trial_type": "single-stim", "trial_index": 140, "time_elapsed": 824935, "internal_node_id": "0.0-104.0"}}, {"uniqueid": "MTK0333:3SUWZRL0MZKYL5MLJUE0QLW06NU6E8", "current_trial": 141, "dateTime": 1510714837070, "trialdata": {"rt": -1, "stimulus": "", "key_press": -1, "type": "PRE_RECALL_DELAY", "trial_type": "single-stim", "trial_index": 141, "time_elapsed": 827286, "internal_node_id": "0.0-105.0-0.0"}}, {"uniqueid": "MTK0333:3SUWZRL0MZKYL5MLJUE0QLW06NU6E8", "current_trial": 142, "dateTime": 1510714837572, "trialdata": {"rt": -1000, "stimulus": "/static/audio/400Hz.wav", "key_press": -1, "type": "PRE_RECALL_ALERT", "trial_type": "single-audio", "trial_index": 142, "time_elapsed": 827788, "internal_node_id": "0.0-106.0"}}, {"uniqueid": "MTK0333:3SUWZRL0MZKYL5MLJUE0QLW06NU6E8", "current_trial": 143, "dateTime": 1510714897582, "trialdata": {"rt": [2136, 3680, 5288, 6920, 7809, 9048, 10552, 11832, 13999, 16168, 30156], "recwords": ["poet", "tractor", "lumber", "mailbox", "rod", "child", "freckle", "police", "patrol", "lumber", "poet"], "type": "FREE_RECALL", "conditions": [12, 800, "v", 12000], "trial": 3, "trial_type": "free-recall", "trial_index": 143, "time_elapsed": 887791, "internal_node_id": "0.0-107.0-0.0"}}, {"uniqueid": "MTK0333:3SUWZRL0MZKYL5MLJUE0QLW06NU6E8", "current_trial": 144, "dateTime": 1510714908283, "trialdata": {"rt": 8699, "key_press": 13, "type": "INSTRUCTIONS", "trial_type": "text", "trial_index": 144, "time_elapsed": 898498, "internal_node_id": "0.0-108.0"}}, {"uniqueid": "MTK0333:3SUWZRL0MZKYL5MLJUE0QLW06NU6E8", "current_trial": 145, "dateTime": 1510714922297, "trialdata": {"rt": [3784, 6483, 8626, 10602], "responses": ["20", "15", "14", "15"], "num1": [7, 5, 3, 9, 1], "num2": [5, 8, 4, 5, 6], "num3": [8, 2, 7, 1, 3], "type": "DISTRACTOR", "conditions": [24, 1600, "v", 12000], "trial": 4, "trial_type": "math-distractor", "trial_index": 145, "time_elapsed": 912513, "internal_node_id": "0.0-109.0"}}, {"uniqueid": "MTK0333:3SUWZRL0MZKYL5MLJUE0QLW06NU6E8", "current_trial": 146, "dateTime": 1510714925304, "trialdata": {"rt": -1, "stimulus": "<p id=\"stim\">10</p>", "key_press": -1, "trial_type": "single-stim", "trial_index": 146, "time_elapsed": 915519, "internal_node_id": "0.0-110.0-0.0"}}, {"uniqueid": "MTK0333:3SUWZRL0MZKYL5MLJUE0QLW06NU6E8", "current_trial": 147, "dateTime": 1510714926316, "trialdata": {"rt": -1, "stimulus": "<p id=\"stim\">9</p>", "key_press": -1, "trial_type": "single-stim", "trial_index": 147, "time_elapsed": 916532, "internal_node_id": "0.0-110.0-1.0"}}, {"uniqueid": "MTK0333:3SUWZRL0MZKYL5MLJUE0QLW06NU6E8", "current_trial": 148, "dateTime": 1510714927322, "trialdata": {"rt": -1, "stimulus": "<p id=\"stim\">8</p>", "key_press": -1, "trial_type": "single-stim", "trial_index": 148, "time_elapsed": 917538, "internal_node_id": "0.0-110.0-2.0"}}, {"uniqueid": "MTK0333:3SUWZRL0MZKYL5MLJUE0QLW06NU6E8", "current_trial": 149, "dateTime": 1510714928328, "trialdata": {"rt": -1, "stimulus": "<p id=\"stim\">7</p>", "key_press": -1, "trial_type": "single-stim", "trial_index": 149, "time_elapsed": 918544, "internal_node_id": "0.0-110.0-3.0"}}, {"uniqueid": "MTK0333:3SUWZRL0MZKYL5MLJUE0QLW06NU6E8", "current_trial": 150, "dateTime": 1510714929334, "trialdata": {"rt": -1, "stimulus": "<p id=\"stim\">6</p>", "key_press": -1, "trial_type": "single-stim", "trial_index": 150, "time_elapsed": 919550, "internal_node_id": "0.0-110.0-4.0"}}, {"uniqueid": "MTK0333:3SUWZRL0MZKYL5MLJUE0QLW06NU6E8", "current_trial": 151, "dateTime": 1510714930340, "trialdata": {"rt": -1, "stimulus": "<p id=\"stim\">5</p>", "key_press": -1, "trial_type": "single-stim", "trial_index": 151, "time_elapsed": 920556, "internal_node_id": "0.0-110.0-5.0"}}, {"uniqueid": "MTK0333:3SUWZRL0MZKYL5MLJUE0QLW06NU6E8", "current_trial": 152, "dateTime": 1510714931342, "trialdata": {"rt": -1, "stimulus": "<p id=\"stim\">4</p>", "key_press": -1, "trial_type": "single-stim", "trial_index": 152, "time_elapsed": 921558, "internal_node_id": "0.0-110.0-6.0"}}, {"uniqueid": "MTK0333:3SUWZRL0MZKYL5MLJUE0QLW06NU6E8", "current_trial": 153, "dateTime": 1510714932346, "trialdata": {"rt": -1, "stimulus": "<p id=\"stim\">3</p>", "key_press": -1, "trial_type": "single-stim", "trial_index": 153, "time_elapsed": 922561, "internal_node_id": "0.0-110.0-7.0"}}, {"uniqueid": "MTK0333:3SUWZRL0MZKYL5MLJUE0QLW06NU6E8", "current_trial": 154, "dateTime": 1510714933350, "trialdata": {"rt": -1, "stimulus": "<p id=\"stim\">2</p>", "key_press": -1, "trial_type": "single-stim", "trial_index": 154, "time_elapsed": 923566, "internal_node_id": "0.0-110.0-8.0"}}, {"uniqueid": "MTK0333:3SUWZRL0MZKYL5MLJUE0QLW06NU6E8", "current_trial": 155, "dateTime": 1510714934354, "trialdata": {"rt": -1, "stimulus": "<p id=\"stim\">1</p>", "key_press": -1, "trial_type": "single-stim", "trial_index": 155, "time_elapsed": 924570, "internal_node_id": "0.0-110.0-9.0"}}, {"uniqueid": "MTK0333:3SUWZRL0MZKYL5MLJUE0QLW06NU6E8", "current_trial": 156, "dateTime": 1510714935858, "trialdata": {"rt": -1, "stimulus": "<p id=\"stim\">+</p>", "key_press": -1, "type": "FIXATION", "trial_type": "single-stim", "trial_index": 156, "time_elapsed": 926073, "internal_node_id": "0.0-111.0-0.0"}}, {"uniqueid": "MTK0333:3SUWZRL0MZKYL5MLJUE0QLW06NU6E8", "current_trial": 157, "dateTime": 1510714937461, "trialdata": {"rt": -1, "stimulus": "<p id=\"stim\">SCULPTURE</p>", "key_press": -1, "type": "PRES_VIS", "word": "sculpture", "wordID": 1257, "conditions": [24, 1600, "v", 12000], "trial": 4, "serialpos": 0, "trial_type": "single-stim", "trial_index": 157, "time_elapsed": 927677, "internal_node_id": "0.0-112.0"}}, {"uniqueid": "MTK0333:3SUWZRL0MZKYL5MLJUE0QLW06NU6E8", "current_trial": 158, "dateTime": 1510714939952, "trialdata": {"rt": -1, "stimulus": "<p id=\"stim\">GRILL</p>", "key_press": -1, "type": "PRES_VIS", "word": "grill", "wordID": 660, "conditions": [24, 1600, "v", 12000], "trial": 4, "serialpos": 1, "trial_type": "single-stim", "trial_index": 158, "time_elapsed": 930168, "internal_node_id": "0.0-113.0"}}, {"uniqueid": "MTK0333:3SUWZRL0MZKYL5MLJUE0QLW06NU6E8", "current_trial": 159, "dateTime": 1510714942456, "trialdata": {"rt": -1, "stimulus": "<p id=\"stim\">ATOM</p>", "key_press": -1, "type": "PRES_VIS", "word": "atom", "wordID": 54, "conditions": [24, 1600, "v", 12000], "trial": 4, "serialpos": 2, "trial_type": "single-stim", "trial_index": 159, "time_elapsed": 932672, "internal_node_id": "0.0-114.0"}}, {"uniqueid": "MTK0333:3SUWZRL0MZKYL5MLJUE0QLW06NU6E8", "current_trial": 160, "dateTime": 1510714945041, "trialdata": {"rt": -1, "stimulus": "<p id=\"stim\">ZEBRA</p>", "key_press": -1, "type": "PRES_VIS", "word": "zebra", "wordID": 1634, "conditions": [24, 1600, "v", 12000], "trial": 4, "serialpos": 3, "trial_type": "single-stim", "trial_index": 160, "time_elapsed": 935255, "internal_node_id": "0.0-115.0"}}, {"uniqueid": "MTK0333:3SUWZRL0MZKYL5MLJUE0QLW06NU6E8", "current_trial": 161, "dateTime": 1510714947459, "trialdata": {"rt": -1, "stimulus": "<p id=\"stim\">STOVE</p>", "key_press": -1, "type": "PRES_VIS", "word": "stove", "wordID": 1387, "conditions": [24, 1600, "v", 12000], "trial": 4, "serialpos": 4, "trial_type": "single-stim", "trial_index": 161, "time_elapsed": 937675, "internal_node_id": "0.0-116.0"}}, {"uniqueid": "MTK0333:3SUWZRL0MZKYL5MLJUE0QLW06NU6E8", "current_trial": 162, "dateTime": 1510714950129, "trialdata": {"rt": -1, "stimulus": "<p id=\"stim\">BROTHER</p>", "key_press": -1, "type": "PRES_VIS", "word": "brother", "wordID": 178, "conditions": [24, 1600, "v", 12000], "trial": 4, "serialpos": 5, "trial_type": "single-stim", "trial_index": 162, "time_elapsed": 940345, "internal_node_id": "0.0-117.0"}}, {"uniqueid": "MTK0333:3SUWZRL0MZKYL5MLJUE0QLW06NU6E8", "current_trial": 163, "dateTime": 1510714952764, "trialdata": {"rt": -1, "stimulus": "<p id=\"stim\">FRIEND</p>", "key_press": -1, "type": "PRES_VIS", "word": "friend", "wordID": 605, "conditions": [24, 1600, "v", 12000], "trial": 4, "serialpos": 6, "trial_type": "single-stim", "trial_index": 163, "time_elapsed": 942980, "internal_node_id": "0.0-118.0"}}, {"uniqueid": "MTK0333:3SUWZRL0MZKYL5MLJUE0QLW06NU6E8", "current_trial": 164, "dateTime": 1510714955206, "trialdata": {"rt": -1, "stimulus": "<p id=\"stim\">DRIVER</p>", "key_press": -1, "type": "PRES_VIS", "word": "driver", "wordID": 498, "conditions": [24, 1600, "v", 12000], "trial": 4, "serialpos": 7, "trial_type": "single-stim", "trial_index": 164, "time_elapsed": 945421, "internal_node_id": "0.0-119.0"}}, {"uniqueid": "MTK0333:3SUWZRL0MZKYL5MLJUE0QLW06NU6E8", "current_trial": 165, "dateTime": 1510714957691, "trialdata": {"rt": -1, "stimulus": "<p id=\"stim\">DONKEY</p>", "key_press": -1, "type": "PRES_VIS", "word": "donkey", "wordID": 483, "conditions": [24, 1600, "v", 12000], "trial": 4, "serialpos": 8, "trial_type": "single-stim", "trial_index": 165, "time_elapsed": 947907, "internal_node_id": "0.0-120.0"}}, {"uniqueid": "MTK0333:3SUWZRL0MZKYL5MLJUE0QLW06NU6E8", "current_trial": 166, "dateTime": 1510714960471, "trialdata": {"rt": -1, "stimulus": "<p id=\"stim\">CANAL</p>", "key_press": -1, "type": "PRES_VIS", "word": "canal", "wordID": 225, "conditions": [24, 1600, "v", 12000], "trial": 4, "serialpos": 9, "trial_type": "single-stim", "trial_index": 166, "time_elapsed": 950687, "internal_node_id": "0.0-121.0"}}, {"uniqueid": "MTK0333:3SUWZRL0MZKYL5MLJUE0QLW06NU6E8", "current_trial": 167, "dateTime": 1510714963004, "trialdata": {"rt": -1, "stimulus": "<p id=\"stim\">RAFT</p>", "key_press": -1, "type": "PRES_VIS", "word": "raft", "wordID": 1158, "conditions": [24, 1600, "v", 12000], "trial": 4, "serialpos": 10, "trial_type": "single-stim", "trial_index": 167, "time_elapsed": 953220, "internal_node_id": "0.0-122.0"}}, {"uniqueid": "MTK0333:3SUWZRL0MZKYL5MLJUE0QLW06NU6E8", "current_trial": 168, "dateTime": 1510714965685, "trialdata": {"rt": -1, "stimulus": "<p id=\"stim\">STAMP</p>", "key_press": -1, "type": "PRES_VIS", "word": "stamp", "wordID": 1369, "conditions": [24, 1600, "v", 12000], "trial": 4, "serialpos": 11, "trial_type": "single-stim", "trial_index": 168, "time_elapsed": 955901, "internal_node_id": "0.0-123.0"}}, {"uniqueid": "MTK0333:3SUWZRL0MZKYL5MLJUE0QLW06NU6E8", "current_trial": 169, "dateTime": 1510714968480, "trialdata": {"rt": -1, "stimulus": "<p id=\"stim\">HARP</p>", "key_press": -1, "type": "PRES_VIS", "word": "harp", "wordID": 688, "conditions": [24, 1600, "v", 12000], "trial": 4, "serialpos": 12, "trial_type": "single-stim", "trial_index": 169, "time_elapsed": 958696, "internal_node_id": "0.0-124.0"}}, {"uniqueid": "MTK0333:3SUWZRL0MZKYL5MLJUE0QLW06NU6E8", "current_trial": 170, "dateTime": 1510714971011, "trialdata": {"rt": -1, "stimulus": "<p id=\"stim\">SURVEY</p>", "key_press": -1, "type": "PRES_VIS", "word": "survey", "wordID": 1413, "conditions": [24, 1600, "v", 12000], "trial": 4, "serialpos": 13, "trial_type": "single-stim", "trial_index": 170, "time_elapsed": 961227, "internal_node_id": "0.0-125.0"}}, {"uniqueid": "MTK0333:3SUWZRL0MZKYL5MLJUE0QLW06NU6E8", "current_trial": 171, "dateTime": 1510714973605, "trialdata": {"rt": -1, "stimulus": "<p id=\"stim\">CRAB</p>", "key_press": -1, "type": "PRES_VIS", "word": "crab", "wordID": 396, "conditions": [24, 1600, "v", 12000], "trial": 4, "serialpos": 14, "trial_type": "single-stim", "trial_index": 171, "time_elapsed": 963821, "internal_node_id": "0.0-126.0"}}, {"uniqueid": "MTK0333:3SUWZRL0MZKYL5MLJUE0QLW06NU6E8", "current_trial": 172, "dateTime": 1510714976155, "trialdata": {"rt": -1, "stimulus": "<p id=\"stim\">HEART</p>", "key_press": -1, "type": "PRES_VIS", "word": "heart", "wordID": 696, "conditions": [24, 1600, "v", 12000], "trial": 4, "serialpos": 15, "trial_type": "single-stim", "trial_index": 172, "time_elapsed": 966371, "internal_node_id": "0.0-127.0"}}, {"uniqueid": "MTK0333:3SUWZRL0MZKYL5MLJUE0QLW06NU6E8", "current_trial": 173, "dateTime": 1510714978753, "trialdata": {"rt": -1, "stimulus": "<p id=\"stim\">BOUQUET</p>", "key_press": -1, "type": "PRES_VIS", "word": "bouquet", "wordID": 156, "conditions": [24, 1600, "v", 12000], "trial": 4, "serialpos": 16, "trial_type": "single-stim", "trial_index": 173, "time_elapsed": 968969, "internal_node_id": "0.0-128.0"}}, {"uniqueid": "MTK0333:3SUWZRL0MZKYL5MLJUE0QLW06NU6E8", "current_trial": 174, "dateTime": 1510714981487, "trialdata": {"rt": -1, "stimulus": "<p id=\"stim\">TABLE</p>", "key_press": -1, "type": "PRES_VIS", "word": "table", "wordID": 1425, "conditions": [24, 1600, "v", 12000], "trial": 4, "serialpos": 17, "trial_type": "single-stim", "trial_index": 174, "time_elapsed": 971702, "internal_node_id": "0.0-129.0"}}, {"uniqueid": "MTK0333:3SUWZRL0MZKYL5MLJUE0QLW06NU6E8", "current_trial": 175, "dateTime": 1510714984249, "trialdata": {"rt": -1, "stimulus": "<p id=\"stim\">JOURNAL</p>", "key_press": -1, "type": "PRES_VIS", "word": "journal", "wordID": 759, "conditions": [24, 1600, "v", 12000], "trial": 4, "serialpos": 18, "trial_type": "single-stim", "trial_index": 175, "time_elapsed": 974465, "internal_node_id": "0.0-130.0"}}, {"uniqueid": "MTK0333:3SUWZRL0MZKYL5MLJUE0QLW06NU6E8", "current_trial": 176, "dateTime": 1510714986967, "trialdata": {"rt": -1, "stimulus": "<p id=\"stim\">SALMON</p>", "key_press": -1, "type": "PRES_VIS", "word": "salmon", "wordID": 1226, "conditions": [24, 1600, "v", 12000], "trial": 4, "serialpos": 19, "trial_type": "single-stim", "trial_index": 176, "time_elapsed": 977183, "internal_node_id": "0.0-131.0"}}, {"uniqueid": "MTK0333:3SUWZRL0MZKYL5MLJUE0QLW06NU6E8", "current_trial": 177, "dateTime": 1510714989672, "trialdata": {"rt": -1, "stimulus": "<p id=\"stim\">SUITCASE</p>", "key_press": -1, "type": "PRES_VIS", "word": "suitcase", "wordID": 1402, "conditions": [24, 1600, "v", 12000], "trial": 4, "serialpos": 20, "trial_type": "single-stim", "trial_index": 177, "time_elapsed": 979888, "internal_node_id": "0.0-132.0"}}, {"uniqueid": "MTK0333:3SUWZRL0MZKYL5MLJUE0QLW06NU6E8", "current_trial": 178, "dateTime": 1510714992410, "trialdata": {"rt": -1, "stimulus": "<p id=\"stim\">CARRIAGE</p>", "key_press": -1, "type": "PRES_VIS", "word": "carriage", "wordID": 247, "conditions": [24, 1600, "v", 12000], "trial": 4, "serialpos": 21, "trial_type": "single-stim", "trial_index": 178, "time_elapsed": 982626, "internal_node_id": "0.0-133.0"}}, {"uniqueid": "MTK0333:3SUWZRL0MZKYL5MLJUE0QLW06NU6E8", "current_trial": 179, "dateTime": 1510714995161, "trialdata": {"rt": -1, "stimulus": "<p id=\"stim\">COUNTY</p>", "key_press": -1, "type": "PRES_VIS", "word": "county", "wordID": 388, "conditions": [24, 1600, "v", 12000], "trial": 4, "serialpos": 22, "trial_type": "single-stim", "trial_index": 179, "time_elapsed": 985376, "internal_node_id": "0.0-134.0"}}, {"uniqueid": "MTK0333:3SUWZRL0MZKYL5MLJUE0QLW06NU6E8", "current_trial": 180, "dateTime": 1510714997604, "trialdata": {"rt": -1, "stimulus": "<p id=\"stim\">SHERIFF</p>", "key_press": -1, "type": "PRES_VIS", "word": "sheriff", "wordID": 1283, "conditions": [24, 1600, "v", 12000], "trial": 4, "serialpos": 23, "trial_type": "single-stim", "trial_index": 180, "time_elapsed": 987819, "internal_node_id": "0.0-135.0"}}, {"uniqueid": "MTK0333:3SUWZRL0MZKYL5MLJUE0QLW06NU6E8", "current_trial": 181, "dateTime": 1510714999837, "trialdata": {"rt": -1, "stimulus": "", "key_press": -1, "type": "PRE_RECALL_DELAY", "trial_type": "single-stim", "trial_index": 181, "time_elapsed": 990053, "internal_node_id": "0.0-136.0-0.0"}}, {"uniqueid": "MTK0333:3SUWZRL0MZKYL5MLJUE0QLW06NU6E8", "current_trial": 182, "dateTime": 1510715000339, "trialdata": {"rt": -1000, "stimulus": "/static/audio/400Hz.wav", "key_press": -1, "type": "PRE_RECALL_ALERT", "trial_type": "single-audio", "trial_index": 182, "time_elapsed": 990554, "internal_node_id": "0.0-137.0"}}, {"uniqueid": "MTK0333:3SUWZRL0MZKYL5MLJUE0QLW06NU6E8", "current_trial": 183, "dateTime": 1510715060350, "trialdata": {"rt": [2237, 3541, 5172, 6199, 7685, 9892, 11085, 12260, 13477, 14733, 16612, 19236, 20789, 23100, 25740, 32732, 43404], "recwords": ["county", "sheriff", "crab", "heart", "salmon", "suitcase", "canal", "brother", "friend", "driver", "donkey", "atom", "grill", "harp", "stamp", "sculpture", "heart"], "type": "FREE_RECALL", "conditions": [24, 1600, "v", 12000], "trial": 4, "trial_type": "free-recall", "trial_index": 183, "time_elapsed": 1050561, "internal_node_id": "0.0-138.0-0.0"}}, {"uniqueid": "MTK0333:3SUWZRL0MZKYL5MLJUE0QLW06NU6E8", "current_trial": 184, "dateTime": 1510715066245, "trialdata": {"rt": 3892, "key_press": 13, "type": "INSTRUCTIONS", "trial_type": "text", "trial_index": 184, "time_elapsed": 1056461, "internal_node_id": "0.0-139.0"}}, {"uniqueid": "MTK0333:3SUWZRL0MZKYL5MLJUE0QLW06NU6E8", "current_trial": 185, "dateTime": 1510715092255, "trialdata": {"rt": [3353, 5977, 7969, 10041, 12274, 14760, 16728, 19032, 21260], "responses": ["17", "11", "18", "15", "14", "17", "15", "11", "12"], "num1": [6, 6, 8, 1, 6, 9, 5, 2, 2, 3], "num2": [8, 2, 6, 7, 7, 4, 8, 1, 4, 3], "num3": [3, 3, 4, 7, 1, 4, 2, 8, 6, 6], "type": "DISTRACTOR", "conditions": [12, 800, "a", 24000], "trial": 5, "trial_type": "math-distractor", "trial_index": 185, "time_elapsed": 1082470, "internal_node_id": "0.0-140.0"}}, {"uniqueid": "MTK0333:3SUWZRL0MZKYL5MLJUE0QLW06NU6E8", "current_trial": 186, "dateTime": 1510715095262, "trialdata": {"rt": -1, "stimulus": "<p id=\"stim\">10</p>", "key_press": -1, "trial_type": "single-stim", "trial_index": 186, "time_elapsed": 1085477, "internal_node_id": "0.0-141.0-0.0"}}, {"uniqueid": "MTK0333:3SUWZRL0MZKYL5MLJUE0QLW06NU6E8", "current_trial": 187, "dateTime": 1510715096267, "trialdata": {"rt": -1, "stimulus": "<p id=\"stim\">9</p>", "key_press": -1, "trial_type": "single-stim", "trial_index": 187, "time_elapsed": 1086483, "internal_node_id": "0.0-141.0-1.0"}}, {"uniqueid": "MTK0333:3SUWZRL0MZKYL5MLJUE0QLW06NU6E8", "current_trial": 188, "dateTime": 1510715097270, "trialdata": {"rt": -1, "stimulus": "<p id=\"stim\">8</p>", "key_press": -1, "trial_type": "single-stim", "trial_index": 188, "time_elapsed": 1087485, "internal_node_id": "0.0-141.0-2.0"}}, {"uniqueid": "MTK0333:3SUWZRL0MZKYL5MLJUE0QLW06NU6E8", "current_trial": 189, "dateTime": 1510715098272, "trialdata": {"rt": -1, "stimulus": "<p id=\"stim\">7</p>", "key_press": -1, "trial_type": "single-stim", "trial_index": 189, "time_elapsed": 1088488, "internal_node_id": "0.0-141.0-3.0"}}, {"uniqueid": "MTK0333:3SUWZRL0MZKYL5MLJUE0QLW06NU6E8", "current_trial": 190, "dateTime": 1510715099277, "trialdata": {"rt": -1, "stimulus": "<p id=\"stim\">6</p>", "key_press": -1, "trial_type": "single-stim", "trial_index": 190, "time_elapsed": 1089492, "internal_node_id": "0.0-141.0-4.0"}}, {"uniqueid": "MTK0333:3SUWZRL0MZKYL5MLJUE0QLW06NU6E8", "current_trial": 191, "dateTime": 1510715100283, "trialdata": {"rt": -1, "stimulus": "<p id=\"stim\">5</p>", "key_press": -1, "trial_type": "single-stim", "trial_index": 191, "time_elapsed": 1090499, "internal_node_id": "0.0-141.0-5.0"}}, {"uniqueid": "MTK0333:3SUWZRL0MZKYL5MLJUE0QLW06NU6E8", "current_trial": 192, "dateTime": 1510715101285, "trialdata": {"rt": -1, "stimulus": "<p id=\"stim\">4</p>", "key_press": -1, "trial_type": "single-stim", "trial_index": 192, "time_elapsed": 1091501, "internal_node_id": "0.0-141.0-6.0"}}, {"uniqueid": "MTK0333:3SUWZRL0MZKYL5MLJUE0QLW06NU6E8", "current_trial": 193, "dateTime": 1510715102289, "trialdata": {"rt": -1, "stimulus": "<p id=\"stim\">3</p>", "key_press": -1, "trial_type": "single-stim", "trial_index": 193, "time_elapsed": 1092504, "internal_node_id": "0.0-141.0-7.0"}}, {"uniqueid": "MTK0333:3SUWZRL0MZKYL5MLJUE0QLW06NU6E8", "current_trial": 194, "dateTime": 1510715103294, "trialdata": {"rt": -1, "stimulus": "<p id=\"stim\">2</p>", "key_press": -1, "trial_type": "single-stim", "trial_index": 194, "time_elapsed": 1093508, "internal_node_id": "0.0-141.0-8.0"}}, {"uniqueid": "MTK0333:3SUWZRL0MZKYL5MLJUE0QLW06NU6E8", "current_trial": 195, "dateTime": 1510715104299, "trialdata": {"rt": -1, "stimulus": "<p id=\"stim\">1</p>", "key_press": -1, "trial_type": "single-stim", "trial_index": 195, "time_elapsed": 1094514, "internal_node_id": "0.0-141.0-9.0"}}, {"uniqueid": "MTK0333:3SUWZRL0MZKYL5MLJUE0QLW06NU6E8", "current_trial": 196, "dateTime": 1510715105805, "trialdata": {"rt": -1, "stimulus": "<p id=\"stim\">+</p>", "key_press": -1, "type": "FIXATION", "trial_type": "single-stim", "trial_index": 196, "time_elapsed": 1096021, "internal_node_id": "0.0-142.0-0.0"}}, {"uniqueid": "MTK0333:3SUWZRL0MZKYL5MLJUE0QLW06NU6E8", "current_trial": 197, "dateTime": 1510715107780, "trialdata": {"rt": -1000, "stimulus": "/static/audio/wordpool/SHARK.wav", "key_press": -1, "type": "PRES_AUD", "word": "shark", "wordID": 1274, "conditions": [12, 800, "a", 24000], "trial": 5, "serialpos": 0, "trial_type": "single-audio", "trial_index": 197, "time_elapsed": 1097996, "internal_node_id": "0.0-143.0"}}, {"uniqueid": "MTK0333:3SUWZRL0MZKYL5MLJUE0QLW06NU6E8", "current_trial": 198, "dateTime": 1510715109512, "trialdata": {"rt": -1000, "stimulus": "/static/audio/wordpool/SANDWICH.wav", "key_press": -1, "type": "PRES_AUD", "word": "sandwich", "wordID": 1231, "conditions": [12, 800, "a", 24000], "trial": 5, "serialpos": 1, "trial_type": "single-audio", "trial_index": 198, "time_elapsed": 1099728, "internal_node_id": "0.0-144.0"}}, {"uniqueid": "MTK0333:3SUWZRL0MZKYL5MLJUE0QLW06NU6E8", "current_trial": 199, "dateTime": 1510715111391, "trialdata": {"rt": -1000, "stimulus": "/static/audio/wordpool/SISTER.wav", "key_press": -1, "type": "PRES_AUD", "word": "sister", "wordID": 1311, "conditions": [12, 800, "a", 24000], "trial": 5, "serialpos": 2, "trial_type": "single-audio", "trial_index": 199, "time_elapsed": 1101607, "internal_node_id": "0.0-145.0"}}, {"uniqueid": "MTK0333:3SUWZRL0MZKYL5MLJUE0QLW06NU6E8", "current_trial": 200, "dateTime": 1510715113284, "trialdata": {"rt": -1000, "stimulus": "/static/audio/wordpool/GRAVEL.wav", "key_press": -1, "type": "PRES_AUD", "word": "gravel", "wordID": 658, "conditions": [12, 800, "a", 24000], "trial": 5, "serialpos": 3, "trial_type": "single-audio", "trial_index": 200, "time_elapsed": 1103500, "internal_node_id": "0.0-146.0"}}, {"uniqueid": "MTK0333:3SUWZRL0MZKYL5MLJUE0QLW06NU6E8", "current_trial": 201, "dateTime": 1510715115264, "trialdata": {"rt": -1000, "stimulus": "/static/audio/wordpool/JUDGE.wav", "key_press": -1, "type": "PRES_AUD", "word": "judge", "wordID": 760, "conditions": [12, 800, "a", 24000], "trial": 5, "serialpos": 4, "trial_type": "single-audio", "trial_index": 201, "time_elapsed": 1105480, "internal_node_id": "0.0-147.0"}}, {"uniqueid": "MTK0333:3SUWZRL0MZKYL5MLJUE0QLW06NU6E8", "current_trial": 202, "dateTime": 1510715117202, "trialdata": {"rt": -1000, "stimulus": "/static/audio/wordpool/SUSPECT.wav", "key_press": -1, "type": "PRES_AUD", "word": "suspect", "wordID": 1414, "conditions": [12, 800, "a", 24000], "trial": 5, "serialpos": 5, "trial_type": "single-audio", "trial_index": 202, "time_elapsed": 1107417, "internal_node_id": "0.0-148.0"}}, {"uniqueid": "MTK0333:3SUWZRL0MZKYL5MLJUE0QLW06NU6E8", "current_trial": 203, "dateTime": 1510715119088, "trialdata": {"rt": -1000, "stimulus": "/static/audio/wordpool/WRENCH.wav", "key_press": -1, "type": "PRES_AUD", "word": "wrench", "wordID": 1624, "conditions": [12, 800, "a", 24000], "trial": 5, "serialpos": 6, "trial_type": "single-audio", "trial_index": 203, "time_elapsed": 1109304, "internal_node_id": "0.0-149.0"}}, {"uniqueid": "MTK0333:3SUWZRL0MZKYL5MLJUE0QLW06NU6E8", "current_trial": 204, "dateTime": 1510715120901, "trialdata": {"rt": -1000, "stimulus": "/static/audio/wordpool/SUNRISE.wav", "key_press": -1, "type": "PRES_AUD", "word": "sunrise", "wordID": 1406, "conditions": [12, 800, "a", 24000], "trial": 5, "serialpos": 7, "trial_type": "single-audio", "trial_index": 204, "time_elapsed": 1111117, "internal_node_id": "0.0-150.0"}}, {"uniqueid": "MTK0333:3SUWZRL0MZKYL5MLJUE0QLW06NU6E8", "current_trial": 205, "dateTime": 1510715122859, "trialdata": {"rt": -1000, "stimulus": "/static/audio/wordpool/TURTLE.wav", "key_press": -1, "type": "PRES_AUD", "word": "turtle", "wordID": 1521, "conditions": [12, 800, "a", 24000], "trial": 5, "serialpos": 8, "trial_type": "single-audio", "trial_index": 205, "time_elapsed": 1113075, "internal_node_id": "0.0-151.0"}}, {"uniqueid": "MTK0333:3SUWZRL0MZKYL5MLJUE0QLW06NU6E8", "current_trial": 206, "dateTime": 1510715124550, "trialdata": {"rt": -1000, "stimulus": "/static/audio/wordpool/DRAGON.wav", "key_press": -1, "type": "PRES_AUD", "word": "dragon", "wordID": 491, "conditions": [12, 800, "a", 24000], "trial": 5, "serialpos": 9, "trial_type": "single-audio", "trial_index": 206, "time_elapsed": 1114766, "internal_node_id": "0.0-152.0"}}, {"uniqueid": "MTK0333:3SUWZRL0MZKYL5MLJUE0QLW06NU6E8", "current_trial": 207, "dateTime": 1510715126368, "trialdata": {"rt": -1000, "stimulus": "/static/audio/wordpool/GOBLIN.wav", "key_press": -1, "type": "PRES_AUD", "word": "goblin", "wordID": 644, "conditions": [12, 800, "a", 24000], "trial": 5, "serialpos": 10, "trial_type": "single-audio", "trial_index": 207, "time_elapsed": 1116583, "internal_node_id": "0.0-153.0"}}, {"uniqueid": "MTK0333:3SUWZRL0MZKYL5MLJUE0QLW06NU6E8", "current_trial": 208, "dateTime": 1510715128167, "trialdata": {"rt": -1000, "stimulus": "/static/audio/wordpool/COMPASS.wav", "key_press": -1, "type": "PRES_AUD", "word": "compass", "wordID": 357, "conditions": [12, 800, "a", 24000], "trial": 5, "serialpos": 11, "trial_type": "single-audio", "trial_index": 208, "time_elapsed": 1118383, "internal_node_id": "0.0-154.0"}}, {"uniqueid": "MTK0333:3SUWZRL0MZKYL5MLJUE0QLW06NU6E8", "current_trial": 209, "dateTime": 1510715129447, "trialdata": {"rt": -1, "stimulus": "", "key_press": -1, "type": "PRE_RECALL_DELAY", "trial_type": "single-stim", "trial_index": 209, "time_elapsed": 1119663, "internal_node_id": "0.0-155.0-0.0"}}, {"uniqueid": "MTK0333:3SUWZRL0MZKYL5MLJUE0QLW06NU6E8", "current_trial": 210, "dateTime": 1510715129949, "trialdata": {"rt": -1000, "stimulus": "/static/audio/400Hz.wav", "key_press": -1, "type": "PRE_RECALL_ALERT", "trial_type": "single-audio", "trial_index": 210, "time_elapsed": 1120165, "internal_node_id": "0.0-156.0"}}, {"uniqueid": "MTK0333:3SUWZRL0MZKYL5MLJUE0QLW06NU6E8", "current_trial": 211, "dateTime": 1510715189958, "trialdata": {"rt": [2612, 3884, 6403, 8052, 10235, 11772, 13244, 15468, 28028], "recwords": ["dragon", "goblin", "compass", "shark", "sandwich", "sister", "gravel", "judge", "goblin"], "type": "FREE_RECALL", "conditions": [12, 800, "a", 24000], "trial": 5, "trial_type": "free-recall", "trial_index": 211, "time_elapsed": 1180169, "internal_node_id": "0.0-157.0-0.0"}}, {"uniqueid": "MTK0333:3SUWZRL0MZKYL5MLJUE0QLW06NU6E8", "current_trial": 212, "dateTime": 1510715208770, "trialdata": {"rt": 16807, "key_press": 13, "type": "INSTRUCTIONS", "trial_type": "text", "trial_index": 212, "time_elapsed": 1198985, "internal_node_id": "0.0-158.0"}}, {"uniqueid": "MTK0333:3SUWZRL0MZKYL5MLJUE0QLW06NU6E8", "current_trial": 213, "dateTime": 1510715234778, "trialdata": {"rt": [3895, 5583, 9247, 11424, 15231, 17703, 19447, 21927], "responses": ["18", "15", "19", "16", "28", "10", "9", "14"], "num1": [5, 5, 9, 6, 9, 2, 3, 7, 4], "num2": [9, 6, 2, 5, 5, 6, 5, 2, 8], "num3": [4, 4, 8, 5, 9, 2, 1, 5, 4], "type": "DISTRACTOR", "conditions": [12, 1600, "a", 24000], "trial": 6, "trial_type": "math-distractor", "trial_index": 213, "time_elapsed": 1224994, "internal_node_id": "0.0-159.0"}}, {"uniqueid": "MTK0333:3SUWZRL0MZKYL5MLJUE0QLW06NU6E8", "current_trial": 214, "dateTime": 1510715237784, "trialdata": {"rt": -1, "stimulus": "<p id=\"stim\">10</p>", "key_press": -1, "trial_type": "single-stim", "trial_index": 214, "time_elapsed": 1228000, "internal_node_id": "0.0-160.0-0.0"}}, {"uniqueid": "MTK0333:3SUWZRL0MZKYL5MLJUE0QLW06NU6E8", "current_trial": 215, "dateTime": 1510715238790, "trialdata": {"rt": -1, "stimulus": "<p id=\"stim\">9</p>", "key_press": -1, "trial_type": "single-stim", "trial_index": 215, "time_elapsed": 1229005, "internal_node_id": "0.0-160.0-1.0"}}, {"uniqueid": "MTK0333:3SUWZRL0MZKYL5MLJUE0QLW06NU6E8", "current_trial": 216, "dateTime": 1510715239793, "trialdata": {"rt": -1, "stimulus": "<p id=\"stim\">8</p>", "key_press": -1, "trial_type": "single-stim", "trial_index": 216, "time_elapsed": 1230008, "internal_node_id": "0.0-160.0-2.0"}}, {"uniqueid": "MTK0333:3SUWZRL0MZKYL5MLJUE0QLW06NU6E8", "current_trial": 217, "dateTime": 1510715240796, "trialdata": {"rt": -1, "stimulus": "<p id=\"stim\">7</p>", "key_press": -1, "trial_type": "single-stim", "trial_index": 217, "time_elapsed": 1231012, "internal_node_id": "0.0-160.0-3.0"}}, {"uniqueid": "MTK0333:3SUWZRL0MZKYL5MLJUE0QLW06NU6E8", "current_trial": 218, "dateTime": 1510715241800, "trialdata": {"rt": -1, "stimulus": "<p id=\"stim\">6</p>", "key_press": -1, "trial_type": "single-stim", "trial_index": 218, "time_elapsed": 1232016, "internal_node_id": "0.0-160.0-4.0"}}, {"uniqueid": "MTK0333:3SUWZRL0MZKYL5MLJUE0QLW06NU6E8", "current_trial": 219, "dateTime": 1510715242804, "trialdata": {"rt": -1, "stimulus": "<p id=\"stim\">5</p>", "key_press": -1, "trial_type": "single-stim", "trial_index": 219, "time_elapsed": 1233020, "internal_node_id": "0.0-160.0-5.0"}}, {"uniqueid": "MTK0333:3SUWZRL0MZKYL5MLJUE0QLW06NU6E8", "current_trial": 220, "dateTime": 1510715243808, "trialdata": {"rt": -1, "stimulus": "<p id=\"stim\">4</p>", "key_press": -1, "trial_type": "single-stim", "trial_index": 220, "time_elapsed": 1234024, "internal_node_id": "0.0-160.0-6.0"}}, {"uniqueid": "MTK0333:3SUWZRL0MZKYL5MLJUE0QLW06NU6E8", "current_trial": 221, "dateTime": 1510715244815, "trialdata": {"rt": -1, "stimulus": "<p id=\"stim\">3</p>", "key_press": -1, "trial_type": "single-stim", "trial_index": 221, "time_elapsed": 1235030, "internal_node_id": "0.0-160.0-7.0"}}, {"uniqueid": "MTK0333:3SUWZRL0MZKYL5MLJUE0QLW06NU6E8", "current_trial": 222, "dateTime": 1510715245817, "trialdata": {"rt": -1, "stimulus": "<p id=\"stim\">2</p>", "key_press": -1, "trial_type": "single-stim", "trial_index": 222, "time_elapsed": 1236032, "internal_node_id": "0.0-160.0-8.0"}}, {"uniqueid": "MTK0333:3SUWZRL0MZKYL5MLJUE0QLW06NU6E8", "current_trial": 223, "dateTime": 1510715246821, "trialdata": {"rt": -1, "stimulus": "<p id=\"stim\">1</p>", "key_press": -1, "trial_type": "single-stim", "trial_index": 223, "time_elapsed": 1237037, "internal_node_id": "0.0-160.0-9.0"}}, {"uniqueid": "MTK0333:3SUWZRL0MZKYL5MLJUE0QLW06NU6E8", "current_trial": 224, "dateTime": 1510715248324, "trialdata": {"rt": -1, "stimulus": "<p id=\"stim\">+</p>", "key_press": -1, "type": "FIXATION", "trial_type": "single-stim", "trial_index": 224, "time_elapsed": 1238540, "internal_node_id": "0.0-161.0-0.0"}}, {"uniqueid": "MTK0333:3SUWZRL0MZKYL5MLJUE0QLW06NU6E8", "current_trial": 225, "dateTime": 1510715250767, "trialdata": {"rt": -1000, "stimulus": "/static/audio/wordpool/LADY.wav", "key_press": -1, "type": "PRES_AUD", "word": "lady", "wordID": 793, "conditions": [12, 1600, "a", 24000], "trial": 6, "serialpos": 0, "trial_type": "single-audio", "trial_index": 225, "time_elapsed": 1240983, "internal_node_id": "0.0-162.0"}}, {"uniqueid": "MTK0333:3SUWZRL0MZKYL5MLJUE0QLW06NU6E8", "current_trial": 226, "dateTime": 1510715253346, "trialdata": {"rt": -1000, "stimulus": "/static/audio/wordpool/WOMAN.wav", "key_press": -1, "type": "PRES_AUD", "word": "woman", "wordID": 1619, "conditions": [12, 1600, "a", 24000], "trial": 6, "serialpos": 1, "trial_type": "single-audio", "trial_index": 226, "time_elapsed": 1243562, "internal_node_id": "0.0-163.0"}}, {"uniqueid": "MTK0333:3SUWZRL0MZKYL5MLJUE0QLW06NU6E8", "current_trial": 227, "dateTime": 1510715255826, "trialdata": {"rt": -1000, "stimulus": "/static/audio/wordpool/BODY.wav", "key_press": -1, "type": "PRES_AUD", "word": "body", "wordID": 144, "conditions": [12, 1600, "a", 24000], "trial": 6, "serialpos": 2, "trial_type": "single-audio", "trial_index": 227, "time_elapsed": 1246041, "internal_node_id": "0.0-164.0"}}, {"uniqueid": "MTK0333:3SUWZRL0MZKYL5MLJUE0QLW06NU6E8", "current_trial": 228, "dateTime": 1510715258478, "trialdata": {"rt": -1000, "stimulus": "/static/audio/wordpool/TROUT.wav", "key_press": -1, "type": "PRES_AUD", "word": "trout", "wordID": 1510, "conditions": [12, 1600, "a", 24000], "trial": 6, "serialpos": 3, "trial_type": "single-audio", "trial_index": 228, "time_elapsed": 1248694, "internal_node_id": "0.0-165.0"}}, {"uniqueid": "MTK0333:3SUWZRL0MZKYL5MLJUE0QLW06NU6E8", "current_trial": 229, "dateTime": 1510715261154, "trialdata": {"rt": -1000, "stimulus": "/static/audio/wordpool/CRIB.wav", "key_press": -1, "type": "PRES_AUD", "word": "crib", "wordID": 406, "conditions": [12, 1600, "a", 24000], "trial": 6, "serialpos": 4, "trial_type": "single-audio", "trial_index": 229, "time_elapsed": 1251370, "internal_node_id": "0.0-166.0"}}, {"uniqueid": "MTK0333:3SUWZRL0MZKYL5MLJUE0QLW06NU6E8", "current_trial": 230, "dateTime": 1510715263703, "trialdata": {"rt": -1000, "stimulus": "/static/audio/wordpool/PARTNER.wav", "key_press": -1, "type": "PRES_AUD", "word": "partner", "wordID": 1016, "conditions": [12, 1600, "a", 24000], "trial": 6, "serialpos": 5, "trial_type": "single-audio", "trial_index": 230, "time_elapsed": 1253919, "internal_node_id": "0.0-167.0"}}, {"uniqueid": "MTK0333:3SUWZRL0MZKYL5MLJUE0QLW06NU6E8", "current_trial": 231, "dateTime": 1510715266373, "trialdata": {"rt": -1000, "stimulus": "/static/audio/wordpool/AGENT.wav", "key_press": -1, "type": "PRES_AUD", "word": "agent", "wordID": 9, "conditions": [12, 1600, "a", 24000], "trial": 6, "serialpos": 6, "trial_type": "single-audio", "trial_index": 231, "time_elapsed": 1256589, "internal_node_id": "0.0-168.0"}}, {"uniqueid": "MTK0333:3SUWZRL0MZKYL5MLJUE0QLW06NU6E8", "current_trial": 232, "dateTime": 1510715268973, "trialdata": {"rt": -1000, "stimulus": "/static/audio/wordpool/HEADBAND.wav", "key_press": -1, "type": "PRES_AUD", "word": "headband", "wordID": 695, "conditions": [12, 1600, "a", 24000], "trial": 6, "serialpos": 7, "trial_type": "single-audio", "trial_index": 232, "time_elapsed": 1259189, "internal_node_id": "0.0-169.0"}}, {"uniqueid": "MTK0333:3SUWZRL0MZKYL5MLJUE0QLW06NU6E8", "current_trial": 233, "dateTime": 1510715271423, "trialdata": {"rt": -1000, "stimulus": "/static/audio/wordpool/CHAUFFEUR.wav", "key_press": -1, "type": "PRES_AUD", "word": "chauffeur", "wordID": 282, "conditions": [12, 1600, "a", 24000], "trial": 6, "serialpos": 8, "trial_type": "single-audio", "trial_index": 233, "time_elapsed": 1261639, "internal_node_id": "0.0-170.0"}}, {"uniqueid": "MTK0333:3SUWZRL0MZKYL5MLJUE0QLW06NU6E8", "current_trial": 234, "dateTime": 1510715274140, "trialdata": {"rt": -1000, "stimulus": "/static/audio/wordpool/INFANT.wav", "key_press": -1, "type": "PRES_AUD", "word": "infant", "wordID": 736, "conditions": [12, 1600, "a", 24000], "trial": 6, "serialpos": 9, "trial_type": "single-audio", "trial_index": 234, "time_elapsed": 1264355, "internal_node_id": "0.0-171.0"}}, {"uniqueid": "MTK0333:3SUWZRL0MZKYL5MLJUE0QLW06NU6E8", "current_trial": 235, "dateTime": 1510715276677, "trialdata": {"rt": -1000, "stimulus": "/static/audio/wordpool/ELBOW.wav", "key_press": -1, "type": "PRES_AUD", "word": "elbow", "wordID": 519, "conditions": [12, 1600, "a", 24000], "trial": 6, "serialpos": 10, "trial_type": "single-audio", "trial_index": 235, "time_elapsed": 1266893, "internal_node_id": "0.0-172.0"}}, {"uniqueid": "MTK0333:3SUWZRL0MZKYL5MLJUE0QLW06NU6E8", "current_trial": 236, "dateTime": 1510715279432, "trialdata": {"rt": -1000, "stimulus": "/static/audio/wordpool/BREAST.wav", "key_press": -1, "type": "PRES_AUD", "word": "breast", "wordID": 170, "conditions": [12, 1600, "a", 24000], "trial": 6, "serialpos": 11, "trial_type": "single-audio", "trial_index": 236, "time_elapsed": 1269647, "internal_node_id": "0.0-173.0"}}, {"uniqueid": "MTK0333:3SUWZRL0MZKYL5MLJUE0QLW06NU6E8", "current_trial": 237, "dateTime": 1510715280687, "trialdata": {"rt": -1, "stimulus": "", "key_press": -1, "type": "PRE_RECALL_DELAY", "trial_type": "single-stim", "trial_index": 237, "time_elapsed": 1270903, "internal_node_id": "0.0-174.0-0.0"}}, {"uniqueid": "MTK0333:3SUWZRL0MZKYL5MLJUE0QLW06NU6E8", "current_trial": 238, "dateTime": 1510715281189, "trialdata": {"rt": -1000, "stimulus": "/static/audio/400Hz.wav", "key_press": -1, "type": "PRE_RECALL_ALERT", "trial_type": "single-audio", "trial_index": 238, "time_elapsed": 1271405, "internal_node_id": "0.0-175.0"}}, {"uniqueid": "MTK0333:3SUWZRL0MZKYL5MLJUE0QLW06NU6E8", "current_trial": 239, "dateTime": 1510715341198, "trialdata": {"rt": [2218, 3858, 8586, 9522, 12402, 14641, 15906, 17817, 22042], "recwords": ["lady", "woman", "infant", "crib", "chauffeur", "partner", "agent", "breast", "body"], "type": "FREE_RECALL", "conditions": [12, 1600, "a", 24000], "trial": 6, "trial_type": "free-recall", "trial_index": 239, "time_elapsed": 1331409, "internal_node_id": "0.0-176.0-0.0"}}, {"uniqueid": "MTK0333:3SUWZRL0MZKYL5MLJUE0QLW06NU6E8", "current_trial": 240, "dateTime": 1510715348538, "trialdata": {"rt": 5281, "key_press": 13, "type": "INSTRUCTIONS", "trial_type": "text", "trial_index": 240, "time_elapsed": 1338754, "internal_node_id": "0.0-177.0"}}, {"uniqueid": "MTK0333:3SUWZRL0MZKYL5MLJUE0QLW06NU6E8", "current_trial": 241, "dateTime": 1510715362545, "trialdata": {"rt": [2270, 4311, 6918, 9293], "responses": ["12", "9", "19", "14"], "num1": [2, 7, 8, 2, 6], "num2": [1, 1, 9, 8, 7], "num3": [9, 1, 2, 4, 2], "type": "DISTRACTOR", "conditions": [24, 800, "v", 12000], "trial": 7, "trial_type": "math-distractor", "trial_index": 241, "time_elapsed": 1352761, "internal_node_id": "0.0-178.0"}}, {"uniqueid": "MTK0333:3SUWZRL0MZKYL5MLJUE0QLW06NU6E8", "current_trial": 242, "dateTime": 1510715365552, "trialdata": {"rt": -1, "stimulus": "<p id=\"stim\">10</p>", "key_press": -1, "trial_type": "single-stim", "trial_index": 242, "time_elapsed": 1355767, "internal_node_id": "0.0-179.0-0.0"}}, {"uniqueid": "MTK0333:3SUWZRL0MZKYL5MLJUE0QLW06NU6E8", "current_trial": 243, "dateTime": 1510715366555, "trialdata": {"rt": -1, "stimulus": "<p id=\"stim\">9</p>", "key_press": -1, "trial_type": "single-stim", "trial_index": 243, "time_elapsed": 1356771, "internal_node_id": "0.0-179.0-1.0"}}, {"uniqueid": "MTK0333:3SUWZRL0MZKYL5MLJUE0QLW06NU6E8", "current_trial": 244, "dateTime": 1510715367560, "trialdata": {"rt": -1, "stimulus": "<p id=\"stim\">8</p>", "key_press": -1, "trial_type": "single-stim", "trial_index": 244, "time_elapsed": 1357776, "internal_node_id": "0.0-179.0-2.0"}}, {"uniqueid": "MTK0333:3SUWZRL0MZKYL5MLJUE0QLW06NU6E8", "current_trial": 245, "dateTime": 1510715368566, "trialdata": {"rt": -1, "stimulus": "<p id=\"stim\">7</p>", "key_press": -1, "trial_type": "single-stim", "trial_index": 245, "time_elapsed": 1358782, "internal_node_id": "0.0-179.0-3.0"}}, {"uniqueid": "MTK0333:3SUWZRL0MZKYL5MLJUE0QLW06NU6E8", "current_trial": 246, "dateTime": 1510715369573, "trialdata": {"rt": -1, "stimulus": "<p id=\"stim\">6</p>", "key_press": -1, "trial_type": "single-stim", "trial_index": 246, "time_elapsed": 1359788, "internal_node_id": "0.0-179.0-4.0"}}, {"uniqueid": "MTK0333:3SUWZRL0MZKYL5MLJUE0QLW06NU6E8", "current_trial": 247, "dateTime": 1510715370577, "trialdata": {"rt": -1, "stimulus": "<p id=\"stim\">5</p>", "key_press": -1, "trial_type": "single-stim", "trial_index": 247, "time_elapsed": 1360793, "internal_node_id": "0.0-179.0-5.0"}}, {"uniqueid": "MTK0333:3SUWZRL0MZKYL5MLJUE0QLW06NU6E8", "current_trial": 248, "dateTime": 1510715371581, "trialdata": {"rt": -1, "stimulus": "<p id=\"stim\">4</p>", "key_press": -1, "trial_type": "single-stim", "trial_index": 248, "time_elapsed": 1361797, "internal_node_id": "0.0-179.0-6.0"}}, {"uniqueid": "MTK0333:3SUWZRL0MZKYL5MLJUE0QLW06NU6E8", "current_trial": 249, "dateTime": 1510715372586, "trialdata": {"rt": -1, "stimulus": "<p id=\"stim\">3</p>", "key_press": -1, "trial_type": "single-stim", "trial_index": 249, "time_elapsed": 1362801, "internal_node_id": "0.0-179.0-7.0"}}, {"uniqueid": "MTK0333:3SUWZRL0MZKYL5MLJUE0QLW06NU6E8", "current_trial": 250, "dateTime": 1510715373589, "trialdata": {"rt": -1, "stimulus": "<p id=\"stim\">2</p>", "key_press": -1, "trial_type": "single-stim", "trial_index": 250, "time_elapsed": 1363805, "internal_node_id": "0.0-179.0-8.0"}}, {"uniqueid": "MTK0333:3SUWZRL0MZKYL5MLJUE0QLW06NU6E8", "current_trial": 251, "dateTime": 1510715374593, "trialdata": {"rt": -1, "stimulus": "<p id=\"stim\">1</p>", "key_press": -1, "trial_type": "single-stim", "trial_index": 251, "time_elapsed": 1364809, "internal_node_id": "0.0-179.0-9.0"}}, {"uniqueid": "MTK0333:3SUWZRL0MZKYL5MLJUE0QLW06NU6E8", "current_trial": 252, "dateTime": 1510715376097, "trialdata": {"rt": -1, "stimulus": "<p id=\"stim\">+</p>", "key_press": -1, "type": "FIXATION", "trial_type": "single-stim", "trial_index": 252, "time_elapsed": 1366313, "internal_node_id": "0.0-180.0-0.0"}}, {"uniqueid": "MTK0333:3SUWZRL0MZKYL5MLJUE0QLW06NU6E8", "current_trial": 253, "dateTime": 1510715376904, "trialdata": {"rt": -1, "stimulus": "<p id=\"stim\">EAGLE</p>", "key_press": -1, "type": "PRES_VIS", "word": "eagle", "wordID": 511, "conditions": [24, 800, "v", 12000], "trial": 7, "serialpos": 0, "trial_type": "single-stim", "trial_index": 253, "time_elapsed": 1367119, "internal_node_id": "0.0-181.0"}}, {"uniqueid": "MTK0333:3SUWZRL0MZKYL5MLJUE0QLW06NU6E8", "current_trial": 254, "dateTime": 1510715378622, "trialdata": {"rt": -1, "stimulus": "<p id=\"stim\">SNACK</p>", "key_press": -1, "type": "PRES_VIS", "word": "snack", "wordID": 1330, "conditions": [24, 800, "v", 12000], "trial": 7, "serialpos": 1, "trial_type": "single-stim", "trial_index": 254, "time_elapsed": 1368837, "internal_node_id": "0.0-182.0"}}, {"uniqueid": "MTK0333:3SUWZRL0MZKYL5MLJUE0QLW06NU6E8", "current_trial": 255, "dateTime": 1510715380420, "trialdata": {"rt": -1, "stimulus": "<p id=\"stim\">QUAIL</p>", "key_press": -1, "type": "PRES_VIS", "word": "quail", "wordID": 1146, "conditions": [24, 800, "v", 12000], "trial": 7, "serialpos": 2, "trial_type": "single-stim", "trial_index": 255, "time_elapsed": 1370636, "internal_node_id": "0.0-183.0"}}, {"uniqueid": "MTK0333:3SUWZRL0MZKYL5MLJUE0QLW06NU6E8", "current_trial": 256, "dateTime": 1510715382063, "trialdata": {"rt": -1, "stimulus": "<p id=\"stim\">TURKEY</p>", "key_press": -1, "type": "PRES_VIS", "word": "turkey", "wordID": 1519, "conditions": [24, 800, "v", 12000], "trial": 7, "serialpos": 3, "trial_type": "single-stim", "trial_index": 256, "time_elapsed": 1372278, "internal_node_id": "0.0-184.0"}}, {"uniqueid": "MTK0333:3SUWZRL0MZKYL5MLJUE0QLW06NU6E8", "current_trial": 257, "dateTime": 1510715383920, "trialdata": {"rt": -1, "stimulus": "<p id=\"stim\">LUNCH</p>", "key_press": -1, "type": "PRES_VIS", "word": "lunch", "wordID": 848, "conditions": [24, 800, "v", 12000], "trial": 7, "serialpos": 4, "trial_type": "single-stim", "trial_index": 257, "time_elapsed": 1374136, "internal_node_id": "0.0-185.0"}}, {"uniqueid": "MTK0333:3SUWZRL0MZKYL5MLJUE0QLW06NU6E8", "current_trial": 258, "dateTime": 1510715385603, "trialdata": {"rt": -1, "stimulus": "<p id=\"stim\">PUPPY</p>", "key_press": -1, "type": "PRES_VIS", "word": "puppy", "wordID": 1143, "conditions": [24, 800, "v", 12000], "trial": 7, "serialpos": 5, "trial_type": "single-stim", "trial_index": 258, "time_elapsed": 1375819, "internal_node_id": "0.0-186.0"}}, {"uniqueid": "MTK0333:3SUWZRL0MZKYL5MLJUE0QLW06NU6E8", "current_trial": 259, "dateTime": 1510715387490, "trialdata": {"rt": -1, "stimulus": "<p id=\"stim\">ANKLE</p>", "key_press": -1, "type": "PRES_VIS", "word": "ankle", "wordID": 23, "conditions": [24, 800, "v", 12000], "trial": 7, "serialpos": 6, "trial_type": "single-stim", "trial_index": 259, "time_elapsed": 1377706, "internal_node_id": "0.0-187.0"}}, {"uniqueid": "MTK0333:3SUWZRL0MZKYL5MLJUE0QLW06NU6E8", "current_trial": 260, "dateTime": 1510715389428, "trialdata": {"rt": -1, "stimulus": "<p id=\"stim\">PERMIT</p>", "key_press": -1, "type": "PRES_VIS", "word": "permit", "wordID": 1050, "conditions": [24, 800, "v", 12000], "trial": 7, "serialpos": 7, "trial_type": "single-stim", "trial_index": 260, "time_elapsed": 1379644, "internal_node_id": "0.0-188.0"}}, {"uniqueid": "MTK0333:3SUWZRL0MZKYL5MLJUE0QLW06NU6E8", "current_trial": 261, "dateTime": 1510715391286, "trialdata": {"rt": -1, "stimulus": "<p id=\"stim\">FLASK</p>", "key_press": -1, "type": "PRES_VIS", "word": "flask", "wordID": 575, "conditions": [24, 800, "v", 12000], "trial": 7, "serialpos": 8, "trial_type": "single-stim", "trial_index": 261, "time_elapsed": 1381502, "internal_node_id": "0.0-189.0"}}, {"uniqueid": "MTK0333:3SUWZRL0MZKYL5MLJUE0QLW06NU6E8", "current_trial": 262, "dateTime": 1510715393160, "trialdata": {"rt": -1, "stimulus": "<p id=\"stim\">PALACE</p>", "key_press": -1, "type": "PRES_VIS", "word": "palace", "wordID": 1005, "conditions": [24, 800, "v", 12000], "trial": 7, "serialpos": 9, "trial_type": "single-stim", "trial_index": 262, "time_elapsed": 1383375, "internal_node_id": "0.0-190.0"}}, {"uniqueid": "MTK0333:3SUWZRL0MZKYL5MLJUE0QLW06NU6E8", "current_trial": 263, "dateTime": 1510715395064, "trialdata": {"rt": -1, "stimulus": "<p id=\"stim\">WARDROBE</p>", "key_press": -1, "type": "PRES_VIS", "word": "wardrobe", "wordID": 1586, "conditions": [24, 800, "v", 12000], "trial": 7, "serialpos": 10, "trial_type": "single-stim", "trial_index": 263, "time_elapsed": 1385280, "internal_node_id": "0.0-191.0"}}, {"uniqueid": "MTK0333:3SUWZRL0MZKYL5MLJUE0QLW06NU6E8", "current_trial": 264, "dateTime": 1510715396750, "trialdata": {"rt": -1, "stimulus": "<p id=\"stim\">GLOVE</p>", "key_press": -1, "type": "PRES_VIS", "word": "glove", "wordID": 641, "conditions": [24, 800, "v", 12000], "trial": 7, "serialpos": 11, "trial_type": "single-stim", "trial_index": 264, "time_elapsed": 1386966, "internal_node_id": "0.0-192.0"}}, {"uniqueid": "MTK0333:3SUWZRL0MZKYL5MLJUE0QLW06NU6E8", "current_trial": 265, "dateTime": 1510715398476, "trialdata": {"rt": -1, "stimulus": "<p id=\"stim\">LAVA</p>", "key_press": -1, "type": "PRES_VIS", "word": "lava", "wordID": 803, "conditions": [24, 800, "v", 12000], "trial": 7, "serialpos": 12, "trial_type": "single-stim", "trial_index": 265, "time_elapsed": 1388692, "internal_node_id": "0.0-193.0"}}, {"uniqueid": "MTK0333:3SUWZRL0MZKYL5MLJUE0QLW06NU6E8", "current_trial": 266, "dateTime": 1510715400245, "trialdata": {"rt": -1, "stimulus": "<p id=\"stim\">GANGSTER</p>", "key_press": -1, "type": "PRES_VIS", "word": "gangster", "wordID": 619, "conditions": [24, 800, "v", 12000], "trial": 7, "serialpos": 13, "trial_type": "single-stim", "trial_index": 266, "time_elapsed": 1390461, "internal_node_id": "0.0-194.0"}}, {"uniqueid": "MTK0333:3SUWZRL0MZKYL5MLJUE0QLW06NU6E8", "current_trial": 267, "dateTime": 1510715401935, "trialdata": {"rt": -1, "stimulus": "<p id=\"stim\">SLIME</p>", "key_press": -1, "type": "PRES_VIS", "word": "slime", "wordID": 1326, "conditions": [24, 800, "v", 12000], "trial": 7, "serialpos": 14, "trial_type": "single-stim", "trial_index": 267, "time_elapsed": 1392151, "internal_node_id": "0.0-195.0"}}, {"uniqueid": "MTK0333:3SUWZRL0MZKYL5MLJUE0QLW06NU6E8", "current_trial": 268, "dateTime": 1510715403625, "trialdata": {"rt": -1, "stimulus": "<p id=\"stim\">NAPKIN</p>", "key_press": -1, "type": "PRES_VIS", "word": "napkin", "wordID": 936, "conditions": [24, 800, "v", 12000], "trial": 7, "serialpos": 15, "trial_type": "single-stim", "trial_index": 268, "time_elapsed": 1393841, "internal_node_id": "0.0-196.0"}}, {"uniqueid": "MTK0333:3SUWZRL0MZKYL5MLJUE0QLW06NU6E8", "current_trial": 269, "dateTime": 1510715405349, "trialdata": {"rt": -1, "stimulus": "<p id=\"stim\">HOOD</p>", "key_press": -1, "type": "PRES_VIS", "word": "hood", "wordID": 713, "conditions": [24, 800, "v", 12000], "trial": 7, "serialpos": 16, "trial_type": "single-stim", "trial_index": 269, "time_elapsed": 1395565, "internal_node_id": "0.0-197.0"}}, {"uniqueid": "MTK0333:3SUWZRL0MZKYL5MLJUE0QLW06NU6E8", "current_trial": 270, "dateTime": 1510715407031, "trialdata": {"rt": -1, "stimulus": "<p id=\"stim\">BADGE</p>", "key_press": -1, "type": "PRES_VIS", "word": "badge", "wordID": 67, "conditions": [24, 800, "v", 12000], "trial": 7, "serialpos": 17, "trial_type": "single-stim", "trial_index": 270, "time_elapsed": 1397246, "internal_node_id": "0.0-198.0"}}, {"uniqueid": "MTK0333:3SUWZRL0MZKYL5MLJUE0QLW06NU6E8", "current_trial": 271, "dateTime": 1510715408698, "trialdata": {"rt": -1, "stimulus": "<p id=\"stim\">STICKER</p>", "key_press": -1, "type": "PRES_VIS", "word": "sticker", "wordID": 1381, "conditions": [24, 800, "v", 12000], "trial": 7, "serialpos": 18, "trial_type": "single-stim", "trial_index": 271, "time_elapsed": 1398914, "internal_node_id": "0.0-199.0"}}, {"uniqueid": "MTK0333:3SUWZRL0MZKYL5MLJUE0QLW06NU6E8", "cu