{"condition": 0, "counterbalance": 2375, "assignmentId": "3FE2ERCCZYFS72HFS4G51XHV808OPX", "workerId": "MTK0784", "hitId": "3XABXM4AJ1C8Z2XKVY1WFWLLILL8QX", "currenttrial": 626, "bonus": 0, "data": [{"uniqueid": "MTK0784:3FE2ERCCZYFS72HFS4G51XHV808OPX", "current_trial": 0, "dateTime": 1512751388287, "trialdata": {"rt": 13291, "key_press": 74, "type": "INSTRUCTIONS", "trial_type": "text", "trial_index": 0, "time_elapsed": 13295, "internal_node_id": "0.0-0.0"}}, {"uniqueid": "MTK0784:3FE2ERCCZYFS72HFS4G51XHV808OPX", "current_trial": 1, "dateTime": 1512751404297, "trialdata": {"rt": 16007, "key_press": 72, "type": "INSTRUCTIONS", "trial_type": "text", "trial_index": 1, "time_elapsed": 29305, "internal_node_id": "0.0-1.0"}}, {"uniqueid": "MTK0784:3FE2ERCCZYFS72HFS4G51XHV808OPX", "current_trial": 2, "dateTime": 1512751439866, "trialdata": {"rt": [21301, 35555], "responses": ["0cean", "ocean"], "type": "AUDIO_TEST", "trial_type": "audio-test", "trial_index": 2, "time_elapsed": 64874, "internal_node_id": "0.0-2.0"}}, {"uniqueid": "MTK0784:3FE2ERCCZYFS72HFS4G51XHV808OPX", "current_trial": 3, "dateTime": 1512751451156, "trialdata": {"rt": [11284], "responses": ["crystal"], "type": "AUDIO_TEST", "trial_type": "audio-test", "trial_index": 3, "time_elapsed": 76164, "internal_node_id": "0.0-3.0"}}, {"uniqueid": "MTK0784:3FE2ERCCZYFS72HFS4G51XHV808OPX", "current_trial": 4, "dateTime": 1512751459248, "trialdata": {"rt": [8085], "responses": ["spice"], "type": "AUDIO_TEST", "trial_type": "audio-test", "trial_index": 4, "time_elapsed": 84256, "internal_node_id": "0.0-4.0"}}, {"uniqueid": "MTK0784:3FE2ERCCZYFS72HFS4G51XHV808OPX", "current_trial": 5, "dateTime": 1512751487797, "trialdata": {"rt": 27782, "responses": "{\"Q0\":\"12 am\",\"Q1\":\"7 am\",\"Q2\":\"4\"}", "type": "SLEEP_SURVEY", "trial_type": "survey-text", "trial_index": 5, "time_elapsed": 112805, "internal_node_id": "0.0-5.0"}}, {"uniqueid": "MTK0784:3FE2ERCCZYFS72HFS4G51XHV808OPX", "current_trial": 6, "dateTime": 1512751523409, "trialdata": {"rt": 34611, "key_press": 72, "type": "INSTRUCTIONS", "trial_type": "text", "trial_index": 6, "time_elapsed": 148417, "internal_node_id": "0.0-6.0"}}, {"uniqueid": "MTK0784:3FE2ERCCZYFS72HFS4G51XHV808OPX", "current_trial": 7, "dateTime": 1512751541171, "trialdata": {"rt": 17261, "key_press": 72, "type": "INSTRUCTIONS", "trial_type": "text", "trial_index": 7, "time_elapsed": 166179, "internal_node_id": "0.0-7.0"}}, {"uniqueid": "MTK0784:3FE2ERCCZYFS72HFS4G51XHV808OPX", "current_trial": 8, "dateTime": 1512751551005, "trialdata": {"rt": 9333, "key_press": 71, "type": "INSTRUCTIONS", "trial_type": "text", "trial_index": 8, "time_elapsed": 176013, "internal_node_id": "0.0-8.0"}}, {"uniqueid": "MTK0784:3FE2ERCCZYFS72HFS4G51XHV808OPX", "current_trial": 9, "dateTime": 1512751570010, "trialdata": {"rt": [5163, 8121], "responses": ["16", "17"], "num1": [6, 8, 3], "num2": [3, 2, 8], "num3": [7, 7, 1], "type": "DISTRACTOR", "conditions": [18, 1200, "a", 18000], "trial": 0, "trial_type": "math-distractor", "trial_index": 9, "time_elapsed": 195018, "internal_node_id": "0.0-9.0"}}, {"uniqueid": "MTK0784:3FE2ERCCZYFS72HFS4G51XHV808OPX", "current_trial": 10, "dateTime": 1512751573014, "trialdata": {"rt": -1, "stimulus": "<p id=\"stim\">10</p>", "key_press": -1, "trial_type": "single-stim", "trial_index": 10, "time_elapsed": 198022, "internal_node_id": "0.0-10.0-0.0"}}, {"uniqueid": "MTK0784:3FE2ERCCZYFS72HFS4G51XHV808OPX", "current_trial": 11, "dateTime": 1512751574015, "trialdata": {"rt": -1, "stimulus": "<p id=\"stim\">9</p>", "key_press": -1, "trial_type": "single-stim", "trial_index": 11, "time_elapsed": 199022, "internal_node_id": "0.0-10.0-1.0"}}, {"uniqueid": "MTK0784:3FE2ERCCZYFS72HFS4G51XHV808OPX", "current_trial": 12, "dateTime": 1512751575016, "trialdata": {"rt": -1, "stimulus": "<p id=\"stim\">8</p>", "key_press": -1, "trial_type": "single-stim", "trial_index": 12, "time_elapsed": 200023, "internal_node_id": "0.0-10.0-2.0"}}, {"uniqueid": "MTK0784:3FE2ERCCZYFS72HFS4G51XHV808OPX", "current_trial": 13, "dateTime": 1512751576017, "trialdata": {"rt": -1, "stimulus": "<p id=\"stim\">7</p>", "key_press": -1, "trial_type": "single-stim", "trial_index": 13, "time_elapsed": 201025, "internal_node_id": "0.0-10.0-3.0"}}, {"uniqueid": "MTK0784:3FE2ERCCZYFS72HFS4G51XHV808OPX", "current_trial": 14, "dateTime": 1512751577018, "trialdata": {"rt": -1, "stimulus": "<p id=\"stim\">6</p>", "key_press": -1, "trial_type": "single-stim", "trial_index": 14, "time_elapsed": 202026, "internal_node_id": "0.0-10.0-4.0"}}, {"uniqueid": "MTK0784:3FE2ERCCZYFS72HFS4G51XHV808OPX", "current_trial": 15, "dateTime": 1512751578019, "trialdata": {"rt": -1, "stimulus": "<p id=\"stim\">5</p>", "key_press": -1, "trial_type": "single-stim", "trial_index": 15, "time_elapsed": 203027, "internal_node_id": "0.0-10.0-5.0"}}, {"uniqueid": "MTK0784:3FE2ERCCZYFS72HFS4G51XHV808OPX", "current_trial": 16, "dateTime": 1512751579020, "trialdata": {"rt": -1, "stimulus": "<p id=\"stim\">4</p>", "key_press": -1, "trial_type": "single-stim", "trial_index": 16, "time_elapsed": 204028, "internal_node_id": "0.0-10.0-6.0"}}, {"uniqueid": "MTK0784:3FE2ERCCZYFS72HFS4G51XHV808OPX", "current_trial": 17, "dateTime": 1512751580021, "trialdata": {"rt": -1, "stimulus": "<p id=\"stim\">3</p>", "key_press": -1, "trial_type": "single-stim", "trial_index": 17, "time_elapsed": 205029, "internal_node_id": "0.0-10.0-7.0"}}, {"uniqueid": "MTK0784:3FE2ERCCZYFS72HFS4G51XHV808OPX", "current_trial": 18, "dateTime": 1512751581025, "trialdata": {"rt": -1, "stimulus": "<p id=\"stim\">2</p>", "key_press": -1, "trial_type": "single-stim", "trial_index": 18, "time_elapsed": 206032, "internal_node_id": "0.0-10.0-8.0"}}, {"uniqueid": "MTK0784:3FE2ERCCZYFS72HFS4G51XHV808OPX", "current_trial": 19, "dateTime": 1512751582042, "trialdata": {"rt": -1, "stimulus": "<p id=\"stim\">1</p>", "key_press": -1, "trial_type": "single-stim", "trial_index": 19, "time_elapsed": 207050, "internal_node_id": "0.0-10.0-9.0"}}, {"uniqueid": "MTK0784:3FE2ERCCZYFS72HFS4G51XHV808OPX", "current_trial": 20, "dateTime": 1512751583542, "trialdata": {"rt": -1, "stimulus": "<p id=\"stim\">+</p>", "key_press": -1, "type": "FIXATION", "trial_type": "single-stim", "trial_index": 20, "time_elapsed": 208550, "internal_node_id": "0.0-11.0-0.0"}}, {"uniqueid": "MTK0784:3FE2ERCCZYFS72HFS4G51XHV808OPX", "current_trial": 21, "dateTime": 1512751585881, "trialdata": {"rt": -1000, "stimulus": "/static/audio/wordpool/CELLAR.wav", "key_press": -1, "type": "PRES_AUD", "word": "cellar", "wordID": 266, "conditions": [18, 1200, "a", 18000], "trial": 0, "serialpos": 0, "trial_type": "single-audio", "trial_index": 21, "time_elapsed": 210889, "internal_node_id": "0.0-12.0"}}, {"uniqueid": "MTK0784:3FE2ERCCZYFS72HFS4G51XHV808OPX", "current_trial": 22, "dateTime": 1512751588052, "trialdata": {"rt": -1000, "stimulus": "/static/audio/wordpool/COD.wav", "key_press": -1, "type": "PRES_AUD", "word": "cod", "wordID": 339, "conditions": [18, 1200, "a", 18000], "trial": 0, "serialpos": 1, "trial_type": "single-audio", "trial_index": 22, "time_elapsed": 213060, "internal_node_id": "0.0-13.0"}}, {"uniqueid": "MTK0784:3FE2ERCCZYFS72HFS4G51XHV808OPX", "current_trial": 23, "dateTime": 1512751590359, "trialdata": {"rt": -1000, "stimulus": "/static/audio/wordpool/CLIMBER.wav", "key_press": -1, "type": "PRES_AUD", "word": "climber", "wordID": 322, "conditions": [18, 1200, "a", 18000], "trial": 0, "serialpos": 2, "trial_type": "single-audio", "trial_index": 23, "time_elapsed": 215367, "internal_node_id": "0.0-14.0"}}, {"uniqueid": "MTK0784:3FE2ERCCZYFS72HFS4G51XHV808OPX", "current_trial": 24, "dateTime": 1512751592760, "trialdata": {"rt": -1000, "stimulus": "/static/audio/wordpool/MATTRESS.wav", "key_press": -1, "type": "PRES_AUD", "word": "mattress", "wordID": 878, "conditions": [18, 1200, "a", 18000], "trial": 0, "serialpos": 3, "trial_type": "single-audio", "trial_index": 24, "time_elapsed": 217768, "internal_node_id": "0.0-15.0"}}, {"uniqueid": "MTK0784:3FE2ERCCZYFS72HFS4G51XHV808OPX", "current_trial": 25, "dateTime": 1512751595103, "trialdata": {"rt": -1000, "stimulus": "/static/audio/wordpool/PARSLEY.wav", "key_press": -1, "type": "PRES_AUD", "word": "parsley", "wordID": 1015, "conditions": [18, 1200, "a", 18000], "trial": 0, "serialpos": 4, "trial_type": "single-audio", "trial_index": 25, "time_elapsed": 220111, "internal_node_id": "0.0-16.0"}}, {"uniqueid": "MTK0784:3FE2ERCCZYFS72HFS4G51XHV808OPX", "current_trial": 26, "dateTime": 1512751597212, "trialdata": {"rt": -1000, "stimulus": "/static/audio/wordpool/RECEIPT.wav", "key_press": -1, "type": "PRES_AUD", "word": "receipt", "wordID": 1172, "conditions": [18, 1200, "a", 18000], "trial": 0, "serialpos": 5, "trial_type": "single-audio", "trial_index": 26, "time_elapsed": 222220, "internal_node_id": "0.0-17.0"}}, {"uniqueid": "MTK0784:3FE2ERCCZYFS72HFS4G51XHV808OPX", "current_trial": 27, "dateTime": 1512751599246, "trialdata": {"rt": -1000, "stimulus": "/static/audio/wordpool/COOKBOOK.wav", "key_press": -1, "type": "PRES_AUD", "word": "cookbook", "wordID": 372, "conditions": [18, 1200, "a", 18000], "trial": 0, "serialpos": 6, "trial_type": "single-audio", "trial_index": 27, "time_elapsed": 224254, "internal_node_id": "0.0-18.0"}}, {"uniqueid": "MTK0784:3FE2ERCCZYFS72HFS4G51XHV808OPX", "current_trial": 28, "dateTime": 1512751601374, "trialdata": {"rt": -1000, "stimulus": "/static/audio/wordpool/GRAPE.wav", "key_press": -1, "type": "PRES_AUD", "word": "grape", "wordID": 653, "conditions": [18, 1200, "a", 18000], "trial": 0, "serialpos": 7, "trial_type": "single-audio", "trial_index": 28, "time_elapsed": 226382, "internal_node_id": "0.0-19.0"}}, {"uniqueid": "MTK0784:3FE2ERCCZYFS72HFS4G51XHV808OPX", "current_trial": 29, "dateTime": 1512751603717, "trialdata": {"rt": -1000, "stimulus": "/static/audio/wordpool/TABLET.wav", "key_press": -1, "type": "PRES_AUD", "word": "tablet", "wordID": 1426, "conditions": [18, 1200, "a", 18000], "trial": 0, "serialpos": 8, "trial_type": "single-audio", "trial_index": 29, "time_elapsed": 228725, "internal_node_id": "0.0-20.0"}}, {"uniqueid": "MTK0784:3FE2ERCCZYFS72HFS4G51XHV808OPX", "current_trial": 30, "dateTime": 1512751605951, "trialdata": {"rt": -1000, "stimulus": "/static/audio/wordpool/MATCH.wav", "key_press": -1, "type": "PRES_AUD", "word": "match", "wordID": 877, "conditions": [18, 1200, "a", 18000], "trial": 0, "serialpos": 9, "trial_type": "single-audio", "trial_index": 30, "time_elapsed": 230959, "internal_node_id": "0.0-21.0"}}, {"uniqueid": "MTK0784:3FE2ERCCZYFS72HFS4G51XHV808OPX", "current_trial": 31, "dateTime": 1512751607987, "trialdata": {"rt": -1000, "stimulus": "/static/audio/wordpool/SNAKE.wav", "key_press": -1, "type": "PRES_AUD", "word": "snake", "wordID": 1332, "conditions": [18, 1200, "a", 18000], "trial": 0, "serialpos": 10, "trial_type": "single-audio", "trial_index": 31, "time_elapsed": 232995, "internal_node_id": "0.0-22.0"}}, {"uniqueid": "MTK0784:3FE2ERCCZYFS72HFS4G51XHV808OPX", "current_trial": 32, "dateTime": 1512751610360, "trialdata": {"rt": -1000, "stimulus": "/static/audio/wordpool/PICNIC.wav", "key_press": -1, "type": "PRES_AUD", "word": "picnic", "wordID": 1059, "conditions": [18, 1200, "a", 18000], "trial": 0, "serialpos": 11, "trial_type": "single-audio", "trial_index": 32, "time_elapsed": 235368, "internal_node_id": "0.0-23.0"}}, {"uniqueid": "MTK0784:3FE2ERCCZYFS72HFS4G51XHV808OPX", "current_trial": 33, "dateTime": 1512751612422, "trialdata": {"rt": -1000, "stimulus": "/static/audio/wordpool/PRIMATE.wav", "key_press": -1, "type": "PRES_AUD", "word": "primate", "wordID": 1122, "conditions": [18, 1200, "a", 18000], "trial": 0, "serialpos": 12, "trial_type": "single-audio", "trial_index": 33, "time_elapsed": 237430, "internal_node_id": "0.0-24.0"}}, {"uniqueid": "MTK0784:3FE2ERCCZYFS72HFS4G51XHV808OPX", "current_trial": 34, "dateTime": 1512751614527, "trialdata": {"rt": -1000, "stimulus": "/static/audio/wordpool/NURSE.wav", "key_press": -1, "type": "PRES_AUD", "word": "nurse", "wordID": 962, "conditions": [18, 1200, "a", 18000], "trial": 0, "serialpos": 13, "trial_type": "single-audio", "trial_index": 34, "time_elapsed": 239535, "internal_node_id": "0.0-25.0"}}, {"uniqueid": "MTK0784:3FE2ERCCZYFS72HFS4G51XHV808OPX", "current_trial": 35, "dateTime": 1512751616653, "trialdata": {"rt": -1000, "stimulus": "/static/audio/wordpool/COTTAGE.wav", "key_press": -1, "type": "PRES_AUD", "word": "cottage", "wordID": 383, "conditions": [18, 1200, "a", 18000], "trial": 0, "serialpos": 14, "trial_type": "single-audio", "trial_index": 35, "time_elapsed": 241661, "internal_node_id": "0.0-26.0"}}, {"uniqueid": "MTK0784:3FE2ERCCZYFS72HFS4G51XHV808OPX", "current_trial": 36, "dateTime": 1512751619039, "trialdata": {"rt": -1000, "stimulus": "/static/audio/wordpool/SALMON.wav", "key_press": -1, "type": "PRES_AUD", "word": "salmon", "wordID": 1226, "conditions": [18, 1200, "a", 18000], "trial": 0, "serialpos": 15, "trial_type": "single-audio", "trial_index": 36, "time_elapsed": 244047, "internal_node_id": "0.0-27.0"}}, {"uniqueid": "MTK0784:3FE2ERCCZYFS72HFS4G51XHV808OPX", "current_trial": 37, "dateTime": 1512751621247, "trialdata": {"rt": -1000, "stimulus": "/static/audio/wordpool/BUGGY.wav", "key_press": -1, "type": "PRES_AUD", "word": "buggy", "wordID": 187, "conditions": [18, 1200, "a", 18000], "trial": 0, "serialpos": 16, "trial_type": "single-audio", "trial_index": 37, "time_elapsed": 246255, "internal_node_id": "0.0-28.0"}}, {"uniqueid": "MTK0784:3FE2ERCCZYFS72HFS4G51XHV808OPX", "current_trial": 38, "dateTime": 1512751623309, "trialdata": {"rt": -1000, "stimulus": "/static/audio/wordpool/LETTUCE.wav", "key_press": -1, "type": "PRES_AUD", "word": "lettuce", "wordID": 813, "conditions": [18, 1200, "a", 18000], "trial": 0, "serialpos": 17, "trial_type": "single-audio", "trial_index": 38, "time_elapsed": 248317, "internal_node_id": "0.0-29.0"}}, {"uniqueid": "MTK0784:3FE2ERCCZYFS72HFS4G51XHV808OPX", "current_trial": 39, "dateTime": 1512751624642, "trialdata": {"rt": -1, "stimulus": "", "key_press": -1, "type": "PRE_RECALL_DELAY", "trial_type": "single-stim", "trial_index": 39, "time_elapsed": 249650, "internal_node_id": "0.0-30.0-0.0"}}, {"uniqueid": "MTK0784:3FE2ERCCZYFS72HFS4G51XHV808OPX", "current_trial": 40, "dateTime": 1512751625152, "trialdata": {"rt": -1000, "stimulus": "/static/audio/400Hz.wav", "key_press": -1, "type": "PRE_RECALL_ALERT", "trial_type": "single-audio", "trial_index": 40, "time_elapsed": 250160, "internal_node_id": "0.0-31.0"}}, {"uniqueid": "MTK0784:3FE2ERCCZYFS72HFS4G51XHV808OPX", "current_trial": 41, "dateTime": 1512751685157, "trialdata": {"rt": [3749, 7370, 12073, 14935, 20522, 28658, 30261, 35738, 59214], "recwords": ["lettuce", "cellar", "mattress", "climber", "buggy", "salmon", "cod", "parsley", "cottage"], "type": "FREE_RECALL", "conditions": [18, 1200, "a", 18000], "trial": 0, "trial_type": "free-recall", "trial_index": 41, "time_elapsed": 310162, "internal_node_id": "0.0-32.0-0.0"}}, {"uniqueid": "MTK0784:3FE2ERCCZYFS72HFS4G51XHV808OPX", "current_trial": 42, "dateTime": 1512751690049, "trialdata": {"rt": 2890, "key_press": 13, "type": "INSTRUCTIONS", "trial_type": "text", "trial_index": 42, "time_elapsed": 315057, "internal_node_id": "0.0-33.0"}}, {"uniqueid": "MTK0784:3FE2ERCCZYFS72HFS4G51XHV808OPX", "current_trial": 43, "dateTime": 1512751710051, "trialdata": {"rt": [7435, 11576, 15160, 17796], "responses": ["19", "16", "14", "6"], "num1": [8, 2, 5, 1, 3], "num2": [5, 6, 3, 1, 7], "num3": [6, 8, 6, 4, 6], "type": "DISTRACTOR", "conditions": [18, 1200, "v", 18000], "trial": 1, "trial_type": "math-distractor", "trial_index": 43, "time_elapsed": 335059, "internal_node_id": "0.0-34.0"}}, {"uniqueid": "MTK0784:3FE2ERCCZYFS72HFS4G51XHV808OPX", "current_trial": 44, "dateTime": 1512751713051, "trialdata": {"rt": -1, "stimulus": "<p id=\"stim\">10</p>", "key_press": -1, "trial_type": "single-stim", "trial_index": 44, "time_elapsed": 338059, "internal_node_id": "0.0-35.0-0.0"}}, {"uniqueid": "MTK0784:3FE2ERCCZYFS72HFS4G51XHV808OPX", "current_trial": 45, "dateTime": 1512751714052, "trialdata": {"rt": -1, "stimulus": "<p id=\"stim\">9</p>", "key_press": -1, "trial_type": "single-stim", "trial_index": 45, "time_elapsed": 339060, "internal_node_id": "0.0-35.0-1.0"}}, {"uniqueid": "MTK0784:3FE2ERCCZYFS72HFS4G51XHV808OPX", "current_trial": 46, "dateTime": 1512751715053, "trialdata": {"rt": -1, "stimulus": "<p id=\"stim\">8</p>", "key_press": -1, "trial_type": "single-stim", "trial_index": 46, "time_elapsed": 340061, "internal_node_id": "0.0-35.0-2.0"}}, {"uniqueid": "MTK0784:3FE2ERCCZYFS72HFS4G51XHV808OPX", "current_trial": 47, "dateTime": 1512751716055, "trialdata": {"rt": -1, "stimulus": "<p id=\"stim\">7</p>", "key_press": -1, "trial_type": "single-stim", "trial_index": 47, "time_elapsed": 341062, "internal_node_id": "0.0-35.0-3.0"}}, {"uniqueid": "MTK0784:3FE2ERCCZYFS72HFS4G51XHV808OPX", "current_trial": 48, "dateTime": 1512751717055, "trialdata": {"rt": -1, "stimulus": "<p id=\"stim\">6</p>", "key_press": -1, "trial_type": "single-stim", "trial_index": 48, "time_elapsed": 342063, "internal_node_id": "0.0-35.0-4.0"}}, {"uniqueid": "MTK0784:3FE2ERCCZYFS72HFS4G51XHV808OPX", "current_trial": 49, "dateTime": 1512751718056, "trialdata": {"rt": -1, "stimulus": "<p id=\"stim\">5</p>", "key_press": -1, "trial_type": "single-stim", "trial_index": 49, "time_elapsed": 343064, "internal_node_id": "0.0-35.0-5.0"}}, {"uniqueid": "MTK0784:3FE2ERCCZYFS72HFS4G51XHV808OPX", "current_trial": 50, "dateTime": 1512751719057, "trialdata": {"rt": -1, "stimulus": "<p id=\"stim\">4</p>", "key_press": -1, "trial_type": "single-stim", "trial_index": 50, "time_elapsed": 344065, "internal_node_id": "0.0-35.0-6.0"}}, {"uniqueid": "MTK0784:3FE2ERCCZYFS72HFS4G51XHV808OPX", "current_trial": 51, "dateTime": 1512751720058, "trialdata": {"rt": -1, "stimulus": "<p id=\"stim\">3</p>", "key_press": -1, "trial_type": "single-stim", "trial_index": 51, "time_elapsed": 345066, "internal_node_id": "0.0-35.0-7.0"}}, {"uniqueid": "MTK0784:3FE2ERCCZYFS72HFS4G51XHV808OPX", "current_trial": 52, "dateTime": 1512751721059, "trialdata": {"rt": -1, "stimulus": "<p id=\"stim\">2</p>", "key_press": -1, "trial_type": "single-stim", "trial_index": 52, "time_elapsed": 346067, "internal_node_id": "0.0-35.0-8.0"}}, {"uniqueid": "MTK0784:3FE2ERCCZYFS72HFS4G51XHV808OPX", "current_trial": 53, "dateTime": 1512751722061, "trialdata": {"rt": -1, "stimulus": "<p id=\"stim\">1</p>", "key_press": -1, "trial_type": "single-stim", "trial_index": 53, "time_elapsed": 347068, "internal_node_id": "0.0-35.0-9.0"}}, {"uniqueid": "MTK0784:3FE2ERCCZYFS72HFS4G51XHV808OPX", "current_trial": 54, "dateTime": 1512751723561, "trialdata": {"rt": -1, "stimulus": "<p id=\"stim\">+</p>", "key_press": -1, "type": "FIXATION", "trial_type": "single-stim", "trial_index": 54, "time_elapsed": 348569, "internal_node_id": "0.0-36.0-0.0"}}, {"uniqueid": "MTK0784:3FE2ERCCZYFS72HFS4G51XHV808OPX", "current_trial": 55, "dateTime": 1512751724762, "trialdata": {"rt": -1, "stimulus": "<p id=\"stim\">ANKLE</p>", "key_press": -1, "type": "PRES_VIS", "word": "ankle", "wordID": 23, "conditions": [18, 1200, "v", 18000], "trial": 1, "serialpos": 0, "trial_type": "single-stim", "trial_index": 55, "time_elapsed": 349770, "internal_node_id": "0.0-37.0"}}, {"uniqueid": "MTK0784:3FE2ERCCZYFS72HFS4G51XHV808OPX", "current_trial": 56, "dateTime": 1512751727004, "trialdata": {"rt": -1, "stimulus": "<p id=\"stim\">YACHT</p>", "key_press": -1, "type": "PRES_VIS", "word": "yacht", "wordID": 1628, "conditions": [18, 1200, "v", 18000], "trial": 1, "serialpos": 1, "trial_type": "single-stim", "trial_index": 56, "time_elapsed": 352011, "internal_node_id": "0.0-38.0"}}, {"uniqueid": "MTK0784:3FE2ERCCZYFS72HFS4G51XHV808OPX", "current_trial": 57, "dateTime": 1512751729382, "trialdata": {"rt": -1, "stimulus": "<p id=\"stim\">CABIN</p>", "key_press": -1, "type": "PRES_VIS", "word": "cabin", "wordID": 210, "conditions": [18, 1200, "v", 18000], "trial": 1, "serialpos": 2, "trial_type": "single-stim", "trial_index": 57, "time_elapsed": 354390, "internal_node_id": "0.0-39.0"}}, {"uniqueid": "MTK0784:3FE2ERCCZYFS72HFS4G51XHV808OPX", "current_trial": 58, "dateTime": 1512751731653, "trialdata": {"rt": -1, "stimulus": "<p id=\"stim\">PARENT</p>", "key_press": -1, "type": "PRES_VIS", "word": "parent", "wordID": 1012, "conditions": [18, 1200, "v", 18000], "trial": 1, "serialpos": 3, "trial_type": "single-stim", "trial_index": 58, "time_elapsed": 356661, "internal_node_id": "0.0-40.0"}}, {"uniqueid": "MTK0784:3FE2ERCCZYFS72HFS4G51XHV808OPX", "current_trial": 59, "dateTime": 1512751733817, "trialdata": {"rt": -1, "stimulus": "<p id=\"stim\">NECKLACE</p>", "key_press": -1, "type": "PRES_VIS", "word": "necklace", "wordID": 939, "conditions": [18, 1200, "v", 18000], "trial": 1, "serialpos": 4, "trial_type": "single-stim", "trial_index": 59, "time_elapsed": 358825, "internal_node_id": "0.0-41.0"}}, {"uniqueid": "MTK0784:3FE2ERCCZYFS72HFS4G51XHV808OPX", "current_trial": 60, "dateTime": 1512751735927, "trialdata": {"rt": -1, "stimulus": "<p id=\"stim\">SHORTS</p>", "key_press": -1, "type": "PRES_VIS", "word": "shorts", "wordID": 1292, "conditions": [18, 1200, "v", 18000], "trial": 1, "serialpos": 5, "trial_type": "single-stim", "trial_index": 60, "time_elapsed": 360935, "internal_node_id": "0.0-42.0"}}, {"uniqueid": "MTK0784:3FE2ERCCZYFS72HFS4G51XHV808OPX", "current_trial": 61, "dateTime": 1512751738228, "trialdata": {"rt": -1, "stimulus": "<p id=\"stim\">WOMAN</p>", "key_press": -1, "type": "PRES_VIS", "word": "woman", "wordID": 1619, "conditions": [18, 1200, "v", 18000], "trial": 1, "serialpos": 6, "trial_type": "single-stim", "trial_index": 61, "time_elapsed": 363236, "internal_node_id": "0.0-43.0"}}, {"uniqueid": "MTK0784:3FE2ERCCZYFS72HFS4G51XHV808OPX", "current_trial": 62, "dateTime": 1512751740482, "trialdata": {"rt": -1, "stimulus": "<p id=\"stim\">PISTOL</p>", "key_press": -1, "type": "PRES_VIS", "word": "pistol", "wordID": 1074, "conditions": [18, 1200, "v", 18000], "trial": 1, "serialpos": 7, "trial_type": "single-stim", "trial_index": 62, "time_elapsed": 365490, "internal_node_id": "0.0-44.0"}}, {"uniqueid": "MTK0784:3FE2ERCCZYFS72HFS4G51XHV808OPX", "current_trial": 63, "dateTime": 1512751742701, "trialdata": {"rt": -1, "stimulus": "<p id=\"stim\">FLUTE</p>", "key_press": -1, "type": "PRES_VIS", "word": "flute", "wordID": 584, "conditions": [18, 1200, "v", 18000], "trial": 1, "serialpos": 8, "trial_type": "single-stim", "trial_index": 63, "time_elapsed": 367709, "internal_node_id": "0.0-45.0"}}, {"uniqueid": "MTK0784:3FE2ERCCZYFS72HFS4G51XHV808OPX", "current_trial": 64, "dateTime": 1512751744925, "trialdata": {"rt": -1, "stimulus": "<p id=\"stim\">TUBA</p>", "key_press": -1, "type": "PRES_VIS", "word": "tuba", "wordID": 1514, "conditions": [18, 1200, "v", 18000], "trial": 1, "serialpos": 9, "trial_type": "single-stim", "trial_index": 64, "time_elapsed": 369933, "internal_node_id": "0.0-46.0"}}, {"uniqueid": "MTK0784:3FE2ERCCZYFS72HFS4G51XHV808OPX", "current_trial": 65, "dateTime": 1512751747324, "trialdata": {"rt": -1, "stimulus": "<p id=\"stim\">NAPKIN</p>", "key_press": -1, "type": "PRES_VIS", "word": "napkin", "wordID": 936, "conditions": [18, 1200, "v", 18000], "trial": 1, "serialpos": 10, "trial_type": "single-stim", "trial_index": 65, "time_elapsed": 372332, "internal_node_id": "0.0-47.0"}}, {"uniqueid": "MTK0784:3FE2ERCCZYFS72HFS4G51XHV808OPX", "current_trial": 66, "dateTime": 1512751749629, "trialdata": {"rt": -1, "stimulus": "<p id=\"stim\">LOVER</p>", "key_press": -1, "type": "PRES_VIS", "word": "lover", "wordID": 845, "conditions": [18, 1200, "v", 18000], "trial": 1, "serialpos": 11, "trial_type": "single-stim", "trial_index": 66, "time_elapsed": 374636, "internal_node_id": "0.0-48.0"}}, {"uniqueid": "MTK0784:3FE2ERCCZYFS72HFS4G51XHV808OPX", "current_trial": 67, "dateTime": 1512751751859, "trialdata": {"rt": -1, "stimulus": "<p id=\"stim\">BROTHER</p>", "key_press": -1, "type": "PRES_VIS", "word": "brother", "wordID": 178, "conditions": [18, 1200, "v", 18000], "trial": 1, "serialpos": 12, "trial_type": "single-stim", "trial_index": 67, "time_elapsed": 376867, "internal_node_id": "0.0-49.0"}}, {"uniqueid": "MTK0784:3FE2ERCCZYFS72HFS4G51XHV808OPX", "current_trial": 68, "dateTime": 1512751753889, "trialdata": {"rt": -1, "stimulus": "<p id=\"stim\">COUSIN</p>", "key_press": -1, "type": "PRES_VIS", "word": "cousin", "wordID": 391, "conditions": [18, 1200, "v", 18000], "trial": 1, "serialpos": 13, "trial_type": "single-stim", "trial_index": 68, "time_elapsed": 378894, "internal_node_id": "0.0-50.0"}}, {"uniqueid": "MTK0784:3FE2ERCCZYFS72HFS4G51XHV808OPX", "current_trial": 69, "dateTime": 1512751756093, "trialdata": {"rt": -1, "stimulus": "<p id=\"stim\">PRINCESS</p>", "key_press": -1, "type": "PRES_VIS", "word": "princess", "wordID": 1124, "conditions": [18, 1200, "v", 18000], "trial": 1, "serialpos": 14, "trial_type": "single-stim", "trial_index": 69, "time_elapsed": 381101, "internal_node_id": "0.0-51.0"}}, {"uniqueid": "MTK0784:3FE2ERCCZYFS72HFS4G51XHV808OPX", "current_trial": 70, "dateTime": 1512751758093, "trialdata": {"rt": -1, "stimulus": "<p id=\"stim\">BROOK</p>", "key_press": -1, "type": "PRES_VIS", "word": "brook", "wordID": 176, "conditions": [18, 1200, "v", 18000], "trial": 1, "serialpos": 15, "trial_type": "single-stim", "trial_index": 70, "time_elapsed": 383101, "internal_node_id": "0.0-52.0"}}, {"uniqueid": "MTK0784:3FE2ERCCZYFS72HFS4G51XHV808OPX", "current_trial": 71, "dateTime": 1512751760248, "trialdata": {"rt": -1, "stimulus": "<p id=\"stim\">COMPASS</p>", "key_press": -1, "type": "PRES_VIS", "word": "compass", "wordID": 357, "conditions": [18, 1200, "v", 18000], "trial": 1, "serialpos": 16, "trial_type": "single-stim", "trial_index": 71, "time_elapsed": 385256, "internal_node_id": "0.0-53.0"}}, {"uniqueid": "MTK0784:3FE2ERCCZYFS72HFS4G51XHV808OPX", "current_trial": 72, "dateTime": 1512751762600, "trialdata": {"rt": -1, "stimulus": "<p id=\"stim\">YARN</p>", "key_press": -1, "type": "PRES_VIS", "word": "yarn", "wordID": 1630, "conditions": [18, 1200, "v", 18000], "trial": 1, "serialpos": 17, "trial_type": "single-stim", "trial_index": 72, "time_elapsed": 387608, "internal_node_id": "0.0-54.0"}}, {"uniqueid": "MTK0784:3FE2ERCCZYFS72HFS4G51XHV808OPX", "current_trial": 73, "dateTime": 1512751764852, "trialdata": {"rt": -1, "stimulus": "", "key_press": -1, "type": "PRE_RECALL_DELAY", "trial_type": "single-stim", "trial_index": 73, "time_elapsed": 389860, "internal_node_id": "0.0-55.0-0.0"}}, {"uniqueid": "MTK0784:3FE2ERCCZYFS72HFS4G51XHV808OPX", "current_trial": 74, "dateTime": 1512751765357, "trialdata": {"rt": -1000, "stimulus": "/static/audio/400Hz.wav", "key_press": -1, "type": "PRE_RECALL_ALERT", "trial_type": "single-audio", "trial_index": 74, "time_elapsed": 390365, "internal_node_id": "0.0-56.0"}}, {"uniqueid": "MTK0784:3FE2ERCCZYFS72HFS4G51XHV808OPX", "current_trial": 75, "dateTime": 1512751825362, "trialdata": {"rt": [6314, 8816, 10895, 14716, 18616, 22008, 25254, 28662, 33064], "recwords": ["yarn", "compass", "brother", "lover", "parents", "princess", "yaht", "cabin", "ankle"], "type": "FREE_RECALL", "conditions": [18, 1200, "v", 18000], "trial": 1, "trial_type": "free-recall", "trial_index": 75, "time_elapsed": 450367, "internal_node_id": "0.0-57.0-0.0"}}, {"uniqueid": "MTK0784:3FE2ERCCZYFS72HFS4G51XHV808OPX", "current_trial": 76, "dateTime": 1512752018695, "trialdata": {"rt": 191324, "key_press": 13, "type": "INSTRUCTIONS", "trial_type": "text", "trial_index": 76, "time_elapsed": 643695, "internal_node_id": "0.0-58.0"}}, {"uniqueid": "MTK0784:3FE2ERCCZYFS72HFS4G51XHV808OPX", "current_trial": 77, "dateTime": 1512752043733, "trialdata": {"rt": [2969, 6767, 9900, 13249, 15998, 20361], "responses": ["13", "13", "18", "8", "12", "19"], "num1": [4, 2, 5, 4, 1, 9, 7], "num2": [6, 6, 8, 2, 7, 4, 4], "num3": [3, 5, 5, 2, 4, 7, 6], "type": "DISTRACTOR", "conditions": [24, 800, "a", 24000], "trial": 2, "trial_type": "math-distractor", "trial_index": 77, "time_elapsed": 668741, "internal_node_id": "0.0-59.0"}}, {"uniqueid": "MTK0784:3FE2ERCCZYFS72HFS4G51XHV808OPX", "current_trial": 78, "dateTime": 1512752046749, "trialdata": {"rt": -1, "stimulus": "<p id=\"stim\">10</p>", "key_press": -1, "trial_type": "single-stim", "trial_index": 78, "time_elapsed": 671757, "internal_node_id": "0.0-60.0-0.0"}}, {"uniqueid": "MTK0784:3FE2ERCCZYFS72HFS4G51XHV808OPX", "current_trial": 79, "dateTime": 1512752047751, "trialdata": {"rt": -1, "stimulus": "<p id=\"stim\">9</p>", "key_press": -1, "trial_type": "single-stim", "trial_index": 79, "time_elapsed": 672758, "internal_node_id": "0.0-60.0-1.0"}}, {"uniqueid": "MTK0784:3FE2ERCCZYFS72HFS4G51XHV808OPX", "current_trial": 80, "dateTime": 1512752048751, "trialdata": {"rt": -1, "stimulus": "<p id=\"stim\">8</p>", "key_press": -1, "trial_type": "single-stim", "trial_index": 80, "time_elapsed": 673759, "internal_node_id": "0.0-60.0-2.0"}}, {"uniqueid": "MTK0784:3FE2ERCCZYFS72HFS4G51XHV808OPX", "current_trial": 81, "dateTime": 1512752049752, "trialdata": {"rt": -1, "stimulus": "<p id=\"stim\">7</p>", "key_press": -1, "trial_type": "single-stim", "trial_index": 81, "time_elapsed": 674760, "internal_node_id": "0.0-60.0-3.0"}}, {"uniqueid": "MTK0784:3FE2ERCCZYFS72HFS4G51XHV808OPX", "current_trial": 82, "dateTime": 1512752050753, "trialdata": {"rt": -1, "stimulus": "<p id=\"stim\">6</p>", "key_press": -1, "trial_type": "single-stim", "trial_index": 82, "time_elapsed": 675761, "internal_node_id": "0.0-60.0-4.0"}}, {"uniqueid": "MTK0784:3FE2ERCCZYFS72HFS4G51XHV808OPX", "current_trial": 83, "dateTime": 1512752051767, "trialdata": {"rt": -1, "stimulus": "<p id=\"stim\">5</p>", "key_press": -1, "trial_type": "single-stim", "trial_index": 83, "time_elapsed": 676775, "internal_node_id": "0.0-60.0-5.0"}}, {"uniqueid": "MTK0784:3FE2ERCCZYFS72HFS4G51XHV808OPX", "current_trial": 84, "dateTime": 1512752052769, "trialdata": {"rt": -1, "stimulus": "<p id=\"stim\">4</p>", "key_press": -1, "trial_type": "single-stim", "trial_index": 84, "time_elapsed": 677777, "internal_node_id": "0.0-60.0-6.0"}}, {"uniqueid": "MTK0784:3FE2ERCCZYFS72HFS4G51XHV808OPX", "current_trial": 85, "dateTime": 1512752053769, "trialdata": {"rt": -1, "stimulus": "<p id=\"stim\">3</p>", "key_press": -1, "trial_type": "single-stim", "trial_index": 85, "time_elapsed": 678777, "internal_node_id": "0.0-60.0-7.0"}}, {"uniqueid": "MTK0784:3FE2ERCCZYFS72HFS4G51XHV808OPX", "current_trial": 86, "dateTime": 1512752054770, "trialdata": {"rt": -1, "stimulus": "<p id=\"stim\">2</p>", "key_press": -1, "trial_type": "single-stim", "trial_index": 86, "time_elapsed": 679778, "internal_node_id": "0.0-60.0-8.0"}}, {"uniqueid": "MTK0784:3FE2ERCCZYFS72HFS4G51XHV808OPX", "current_trial": 87, "dateTime": 1512752055771, "trialdata": {"rt": -1, "stimulus": "<p id=\"stim\">1</p>", "key_press": -1, "trial_type": "single-stim", "trial_index": 87, "time_elapsed": 680779, "internal_node_id": "0.0-60.0-9.0"}}, {"uniqueid": "MTK0784:3FE2ERCCZYFS72HFS4G51XHV808OPX", "current_trial": 88, "dateTime": 1512752057272, "trialdata": {"rt": -1, "stimulus": "<p id=\"stim\">+</p>", "key_press": -1, "type": "FIXATION", "trial_type": "single-stim", "trial_index": 88, "time_elapsed": 682280, "internal_node_id": "0.0-61.0-0.0"}}, {"uniqueid": "MTK0784:3FE2ERCCZYFS72HFS4G51XHV808OPX", "current_trial": 89, "dateTime": 1512752059035, "trialdata": {"rt": -1000, "stimulus": "/static/audio/wordpool/BALLOON.wav", "key_press": -1, "type": "PRES_AUD", "word": "balloon", "wordID": 74, "conditions": [24, 800, "a", 24000], "trial": 2, "serialpos": 0, "trial_type": "single-audio", "trial_index": 89, "time_elapsed": 684043, "internal_node_id": "0.0-62.0"}}, {"uniqueid": "MTK0784:3FE2ERCCZYFS72HFS4G51XHV808OPX", "current_trial": 90, "dateTime": 1512752060983, "trialdata": {"rt": -1000, "stimulus": "/static/audio/wordpool/WAGON.wav", "key_press": -1, "type": "PRES_AUD", "word": "wagon", "wordID": 1577, "conditions": [24, 800, "a", 24000], "trial": 2, "serialpos": 1, "trial_type": "single-audio", "trial_index": 90, "time_elapsed": 685991, "internal_node_id": "0.0-63.0"}}, {"uniqueid": "MTK0784:3FE2ERCCZYFS72HFS4G51XHV808OPX", "current_trial": 91, "dateTime": 1512752062627, "trialdata": {"rt": -1000, "stimulus": "/static/audio/wordpool/DRIVER.wav", "key_press": -1, "type": "PRES_AUD", "word": "driver", "wordID": 498, "conditions": [24, 800, "a", 24000], "trial": 2, "serialpos": 2, "trial_type": "single-audio", "trial_index": 91, "time_elapsed": 687635, "internal_node_id": "0.0-64.0"}}, {"uniqueid": "MTK0784:3FE2ERCCZYFS72HFS4G51XHV808OPX", "current_trial": 92, "dateTime": 1512752064410, "trialdata": {"rt": -1000, "stimulus": "/static/audio/wordpool/UMPIRE.wav", "key_press": -1, "type": "PRES_AUD", "word": "umpire", "wordID": 1534, "conditions": [24, 800, "a", 24000], "trial": 2, "serialpos": 3, "trial_type": "single-audio", "trial_index": 92, "time_elapsed": 689418, "internal_node_id": "0.0-65.0"}}, {"uniqueid": "MTK0784:3FE2ERCCZYFS72HFS4G51XHV808OPX", "current_trial": 93, "dateTime": 1512752066107, "trialdata": {"rt": -1000, "stimulus": "/static/audio/wordpool/CUPBOARD.wav", "key_press": -1, "type": "PRES_AUD", "word": "cupboard", "wordID": 424, "conditions": [24, 800, "a", 24000], "trial": 2, "serialpos": 4, "trial_type": "single-audio", "trial_index": 93, "time_elapsed": 691115, "internal_node_id": "0.0-66.0"}}, {"uniqueid": "MTK0784:3FE2ERCCZYFS72HFS4G51XHV808OPX", "current_trial": 94, "dateTime": 1512752067834, "trialdata": {"rt": -1000, "stimulus": "/static/audio/wordpool/LIZARD.wav", "key_press": -1, "type": "PRES_AUD", "word": "lizard", "wordID": 833, "conditions": [24, 800, "a", 24000], "trial": 2, "serialpos": 5, "trial_type": "single-audio", "trial_index": 94, "time_elapsed": 692842, "internal_node_id": "0.0-67.0"}}, {"uniqueid": "MTK0784:3FE2ERCCZYFS72HFS4G51XHV808OPX", "current_trial": 95, "dateTime": 1512752069494, "trialdata": {"rt": -1000, "stimulus": "/static/audio/wordpool/COBRA.wav", "key_press": -1, "type": "PRES_AUD", "word": "cobra", "wordID": 335, "conditions": [24, 800, "a", 24000], "trial": 2, "serialpos": 6, "trial_type": "single-audio", "trial_index": 95, "time_elapsed": 694502, "internal_node_id": "0.0-68.0"}}, {"uniqueid": "MTK0784:3FE2ERCCZYFS72HFS4G51XHV808OPX", "current_trial": 96, "dateTime": 1512752071125, "trialdata": {"rt": -1000, "stimulus": "/static/audio/wordpool/BIKE.wav", "key_press": -1, "type": "PRES_AUD", "word": "bike", "wordID": 124, "conditions": [24, 800, "a", 24000], "trial": 2, "serialpos": 7, "trial_type": "single-audio", "trial_index": 96, "time_elapsed": 696133, "internal_node_id": "0.0-69.0"}}, {"uniqueid": "MTK0784:3FE2ERCCZYFS72HFS4G51XHV808OPX", "current_trial": 97, "dateTime": 1512752072894, "trialdata": {"rt": -1000, "stimulus": "/static/audio/wordpool/VICTIM.wav", "key_press": -1, "type": "PRES_AUD", "word": "victim", "wordID": 1561, "conditions": [24, 800, "a", 24000], "trial": 2, "serialpos": 8, "trial_type": "single-audio", "trial_index": 97, "time_elapsed": 697902, "internal_node_id": "0.0-70.0"}}, {"uniqueid": "MTK0784:3FE2ERCCZYFS72HFS4G51XHV808OPX", "current_trial": 98, "dateTime": 1512752074654, "trialdata": {"rt": -1000, "stimulus": "/static/audio/wordpool/OX.wav", "key_press": -1, "type": "PRES_AUD", "word": "ox", "wordID": 993, "conditions": [24, 800, "a", 24000], "trial": 2, "serialpos": 9, "trial_type": "single-audio", "trial_index": 98, "time_elapsed": 699662, "internal_node_id": "0.0-71.0"}}, {"uniqueid": "MTK0784:3FE2ERCCZYFS72HFS4G51XHV808OPX", "current_trial": 99, "dateTime": 1512752076509, "trialdata": {"rt": -1000, "stimulus": "/static/audio/wordpool/ARMY.wav", "key_press": -1, "type": "PRES_AUD", "word": "army", "wordID": 38, "conditions": [24, 800, "a", 24000], "trial": 2, "serialpos": 10, "trial_type": "single-audio", "trial_index": 99, "time_elapsed": 701517, "internal_node_id": "0.0-72.0"}}, {"uniqueid": "MTK0784:3FE2ERCCZYFS72HFS4G51XHV808OPX", "current_trial": 100, "dateTime": 1512752078242, "trialdata": {"rt": -1000, "stimulus": "/static/audio/wordpool/DRESSER.wav", "key_press": -1, "type": "PRES_AUD", "word": "dresser", "wordID": 495, "conditions": [24, 800, "a", 24000], "trial": 2, "serialpos": 11, "trial_type": "single-audio", "trial_index": 100, "time_elapsed": 703249, "internal_node_id": "0.0-73.0"}}, {"uniqueid": "MTK0784:3FE2ERCCZYFS72HFS4G51XHV808OPX", "current_trial": 101, "dateTime": 1512752079979, "trialdata": {"rt": -1000, "stimulus": "/static/audio/wordpool/FLIPPER.wav", "key_press": -1, "type": "PRES_AUD", "word": "flipper", "wordID": 579, "conditions": [24, 800, "a", 24000], "trial": 2, "serialpos": 12, "trial_type": "single-audio", "trial_index": 101, "time_elapsed": 704987, "internal_node_id": "0.0-74.0"}}, {"uniqueid": "MTK0784:3FE2ERCCZYFS72HFS4G51XHV808OPX", "current_trial": 102, "dateTime": 1512752081631, "trialdata": {"rt": -1000, "stimulus": "/static/audio/wordpool/EUROPE.wav", "key_press": -1, "type": "PRES_AUD", "word": "europe", "wordID": 540, "conditions": [24, 800, "a", 24000], "trial": 2, "serialpos": 13, "trial_type": "single-audio", "trial_index": 102, "time_elapsed": 706639, "internal_node_id": "0.0-75.0"}}, {"uniqueid": "MTK0784:3FE2ERCCZYFS72HFS4G51XHV808OPX", "current_trial": 103, "dateTime": 1512752083243, "trialdata": {"rt": -1000, "stimulus": "/static/audio/wordpool/ORCHID.wav", "key_press": -1, "type": "PRES_AUD", "word": "orchid", "wordID": 981, "conditions": [24, 800, "a", 24000], "trial": 2, "serialpos": 14, "trial_type": "single-audio", "trial_index": 103, "time_elapsed": 708251, "internal_node_id": "0.0-76.0"}}, {"uniqueid": "MTK0784:3FE2ERCCZYFS72HFS4G51XHV808OPX", "current_trial": 104, "dateTime": 1512752085245, "trialdata": {"rt": -1000, "stimulus": "/static/audio/wordpool/VALVE.wav", "key_press": -1, "type": "PRES_AUD", "word": "valve", "wordID": 1545, "conditions": [24, 800, "a", 24000], "trial": 2, "serialpos": 15, "trial_type": "single-audio", "trial_index": 104, "time_elapsed": 710253, "internal_node_id": "0.0-77.0"}}, {"uniqueid": "MTK0784:3FE2ERCCZYFS72HFS4G51XHV808OPX", "current_trial": 105, "dateTime": 1512752087198, "trialdata": {"rt": -1000, "stimulus": "/static/audio/wordpool/PISTON.wav", "key_press": -1, "type": "PRES_AUD", "word": "piston", "wordID": 1075, "conditions": [24, 800, "a", 24000], "trial": 2, "serialpos": 16, "trial_type": "single-audio", "trial_index": 105, "time_elapsed": 712206, "internal_node_id": "0.0-78.0"}}, {"uniqueid": "MTK0784:3FE2ERCCZYFS72HFS4G51XHV808OPX", "current_trial": 106, "dateTime": 1512752089104, "trialdata": {"rt": -1000, "stimulus": "/static/audio/wordpool/PEACH.wav", "key_press": -1, "type": "PRES_AUD", "word": "peach", "wordID": 1030, "conditions": [24, 800, "a", 24000], "trial": 2, "serialpos": 17, "trial_type": "single-audio", "trial_index": 106, "time_elapsed": 714112, "internal_node_id": "0.0-79.0"}}, {"uniqueid": "MTK0784:3FE2ERCCZYFS72HFS4G51XHV808OPX", "current_trial": 107, "dateTime": 1512752091065, "trialdata": {"rt": -1000, "stimulus": "/static/audio/wordpool/MAILBOX.wav", "key_press": -1, "type": "PRES_AUD", "word": "mailbox", "wordID": 856, "conditions": [24, 800, "a", 24000], "trial": 2, "serialpos": 18, "trial_type": "single-audio", "trial_index": 107, "time_elapsed": 716073, "internal_node_id": "0.0-80.0"}}, {"uniqueid": "MTK0784:3FE2ERCCZYFS72HFS4G51XHV808OPX", "current_trial": 108, "dateTime": 1512752093035, "trialdata": {"rt": -1000, "stimulus": "/static/audio/wordpool/BUNNY.wav", "key_press": -1, "type": "PRES_AUD", "word": "bunny", "wordID": 197, "conditions": [24, 800, "a", 24000], "trial": 2, "serialpos": 19, "trial_type": "single-audio", "trial_index": 108, "time_elapsed": 718043, "internal_node_id": "0.0-81.0"}}, {"uniqueid": "MTK0784:3FE2ERCCZYFS72HFS4G51XHV808OPX", "current_trial": 109, "dateTime": 1512752094970, "trialdata": {"rt": -1000, "stimulus": "/static/audio/wordpool/PASTRY.wav", "key_press": -1, "type": "PRES_AUD", "word": "pastry", "wordID": 1021, "conditions": [24, 800, "a", 24000], "trial": 2, "serialpos": 20, "trial_type": "single-audio", "trial_index": 109, "time_elapsed": 719978, "internal_node_id": "0.0-82.0"}}, {"uniqueid": "MTK0784:3FE2ERCCZYFS72HFS4G51XHV808OPX", "current_trial": 110, "dateTime": 1512752096936, "trialdata": {"rt": -1000, "stimulus": "/static/audio/wordpool/PLAYGROUND.wav", "key_press": -1, "type": "PRES_AUD", "word": "playground", "wordID": 1086, "conditions": [24, 800, "a", 24000], "trial": 2, "serialpos": 21, "trial_type": "single-audio", "trial_index": 110, "time_elapsed": 721944, "internal_node_id": "0.0-83.0"}}, {"uniqueid": "MTK0784:3FE2ERCCZYFS72HFS4G51XHV808OPX", "current_trial": 111, "dateTime": 1512752098540, "trialdata": {"rt": -1000, "stimulus": "/static/audio/wordpool/WASHER.wav", "key_press": -1, "type": "PRES_AUD", "word": "washer", "wordID": 1591, "conditions": [24, 800, "a", 24000], "trial": 2, "serialpos": 22, "trial_type": "single-audio", "trial_index": 111, "time_elapsed": 723548, "internal_node_id": "0.0-84.0"}}, {"uniqueid": "MTK0784:3FE2ERCCZYFS72HFS4G51XHV808OPX", "current_trial": 112, "dateTime": 1512752100268, "trialdata": {"rt": -1000, "stimulus": "/static/audio/wordpool/CITRUS.wav", "key_press": -1, "type": "PRES_AUD", "word": "citrus", "wordID": 312, "conditions": [24, 800, "a", 24000], "trial": 2, "serialpos": 23, "trial_type": "single-audio", "trial_index": 112, "time_elapsed": 725276, "internal_node_id": "0.0-85.0"}}, {"uniqueid": "MTK0784:3FE2ERCCZYFS72HFS4G51XHV808OPX", "current_trial": 113, "dateTime": 1512752101600, "trialdata": {"rt": -1, "stimulus": "", "key_press": -1, "type": "PRE_RECALL_DELAY", "trial_type": "single-stim", "trial_index": 113, "time_elapsed": 726608, "internal_node_id": "0.0-86.0-0.0"}}, {"uniqueid": "MTK0784:3FE2ERCCZYFS72HFS4G51XHV808OPX", "current_trial": 114, "dateTime": 1512752102110, "trialdata": {"rt": -1000, "stimulus": "/static/audio/400Hz.wav", "key_press": -1, "type": "PRE_RECALL_ALERT", "trial_type": "single-audio", "trial_index": 114, "time_elapsed": 727118, "internal_node_id": "0.0-87.0"}}, {"uniqueid": "MTK0784:3FE2ERCCZYFS72HFS4G51XHV808OPX", "current_trial": 115, "dateTime": 1512752162115, "trialdata": {"rt": [3674, 5054, 8141, 9952, 16278, 20131, 26851, 45491], "recwords": ["citrus", "washer", "valve", "vista", "lizard", "umpire", "europe", "playground"], "type": "FREE_RECALL", "conditions": [24, 800, "a", 24000], "trial": 2, "trial_type": "free-recall", "trial_index": 115, "time_elapsed": 787119, "internal_node_id": "0.0-88.0-0.0"}}, {"uniqueid": "MTK0784:3FE2ERCCZYFS72HFS4G51XHV808OPX", "current_trial": 116, "dateTime": 1512752166610, "trialdata": {"rt": 2494, "key_press": 13, "type": "INSTRUCTIONS", "trial_type": "text", "trial_index": 116, "time_elapsed": 791618, "internal_node_id": "0.0-89.0"}}, {"uniqueid": "MTK0784:3FE2ERCCZYFS72HFS4G51XHV808OPX", "current_trial": 117, "dateTime": 1512752180613, "trialdata": {"rt": [3234, 7091, 11914], "responses": ["7", "18", "16"], "num1": [5, 3, 7, 7], "num2": [1, 7, 6, 9], "num3": [1, 8, 3, 4], "type": "DISTRACTOR", "conditions": [24, 1600, "v", 12000], "trial": 3, "trial_type": "math-distractor", "trial_index": 117, "time_elapsed": 805621, "internal_node_id": "0.0-90.0"}}, {"uniqueid": "MTK0784:3FE2ERCCZYFS72HFS4G51XHV808OPX", "current_trial": 118, "dateTime": 1512752183613, "trialdata": {"rt": -1, "stimulus": "<p id=\"stim\">10</p>", "key_press": -1, "trial_type": "single-stim", "trial_index": 118, "time_elapsed": 808621, "internal_node_id": "0.0-91.0-0.0"}}, {"uniqueid": "MTK0784:3FE2ERCCZYFS72HFS4G51XHV808OPX", "current_trial": 119, "dateTime": 1512752184614, "trialdata": {"rt": -1, "stimulus": "<p id=\"stim\">9</p>", "key_press": -1, "trial_type": "single-stim", "trial_index": 119, "time_elapsed": 809622, "internal_node_id": "0.0-91.0-1.0"}}, {"uniqueid": "MTK0784:3FE2ERCCZYFS72HFS4G51XHV808OPX", "current_trial": 120, "dateTime": 1512752185616, "trialdata": {"rt": -1, "stimulus": "<p id=\"stim\">8</p>", "key_press": -1, "trial_type": "single-stim", "trial_index": 120, "time_elapsed": 810623, "internal_node_id": "0.0-91.0-2.0"}}, {"uniqueid": "MTK0784:3FE2ERCCZYFS72HFS4G51XHV808OPX", "current_trial": 121, "dateTime": 1512752186616, "trialdata": {"rt": -1, "stimulus": "<p id=\"stim\">7</p>", "key_press": -1, "trial_type": "single-stim", "trial_index": 121, "time_elapsed": 811624, "internal_node_id": "0.0-91.0-3.0"}}, {"uniqueid": "MTK0784:3FE2ERCCZYFS72HFS4G51XHV808OPX", "current_trial": 122, "dateTime": 1512752187617, "trialdata": {"rt": -1, "stimulus": "<p id=\"stim\">6</p>", "key_press": -1, "trial_type": "single-stim", "trial_index": 122, "time_elapsed": 812625, "internal_node_id": "0.0-91.0-4.0"}}, {"uniqueid": "MTK0784:3FE2ERCCZYFS72HFS4G51XHV808OPX", "current_trial": 123, "dateTime": 1512752188618, "trialdata": {"rt": -1, "stimulus": "<p id=\"stim\">5</p>", "key_press": -1, "trial_type": "single-stim", "trial_index": 123, "time_elapsed": 813626, "internal_node_id": "0.0-91.0-5.0"}}, {"uniqueid": "MTK0784:3FE2ERCCZYFS72HFS4G51XHV808OPX", "current_trial": 124, "dateTime": 1512752189620, "trialdata": {"rt": -1, "stimulus": "<p id=\"stim\">4</p>", "key_press": -1, "trial_type": "single-stim", "trial_index": 124, "time_elapsed": 814627, "internal_node_id": "0.0-91.0-6.0"}}, {"uniqueid": "MTK0784:3FE2ERCCZYFS72HFS4G51XHV808OPX", "current_trial": 125, "dateTime": 1512752190621, "trialdata": {"rt": -1, "stimulus": "<p id=\"stim\">3</p>", "key_press": -1, "trial_type": "single-stim", "trial_index": 125, "time_elapsed": 815628, "internal_node_id": "0.0-91.0-7.0"}}, {"uniqueid": "MTK0784:3FE2ERCCZYFS72HFS4G51XHV808OPX", "current_trial": 126, "dateTime": 1512752191621, "trialdata": {"rt": -1, "stimulus": "<p id=\"stim\">2</p>", "key_press": -1, "trial_type": "single-stim", "trial_index": 126, "time_elapsed": 816629, "internal_node_id": "0.0-91.0-8.0"}}, {"uniqueid": "MTK0784:3FE2ERCCZYFS72HFS4G51XHV808OPX", "current_trial": 127, "dateTime": 1512752192622, "trialdata": {"rt": -1, "stimulus": "<p id=\"stim\">1</p>", "key_press": -1, "trial_type": "single-stim", "trial_index": 127, "time_elapsed": 817630, "internal_node_id": "0.0-91.0-9.0"}}, {"uniqueid": "MTK0784:3FE2ERCCZYFS72HFS4G51XHV808OPX", "current_trial": 128, "dateTime": 1512752194124, "trialdata": {"rt": -1, "stimulus": "<p id=\"stim\">+</p>", "key_press": -1, "type": "FIXATION", "trial_type": "single-stim", "trial_index": 128, "time_elapsed": 819131, "internal_node_id": "0.0-92.0-0.0"}}, {"uniqueid": "MTK0784:3FE2ERCCZYFS72HFS4G51XHV808OPX", "current_trial": 129, "dateTime": 1512752195724, "trialdata": {"rt": -1, "stimulus": "<p id=\"stim\">BUBBLE</p>", "key_press": -1, "type": "PRES_VIS", "word": "bubble", "wordID": 182, "conditions": [24, 1600, "v", 12000], "trial": 3, "serialpos": 0, "trial_type": "single-stim", "trial_index": 129, "time_elapsed": 820732, "internal_node_id": "0.0-93.0"}}, {"uniqueid": "MTK0784:3FE2ERCCZYFS72HFS4G51XHV808OPX", "current_trial": 130, "dateTime": 1512752198341, "trialdata": {"rt": -1, "stimulus": "<p id=\"stim\">PATROL</p>", "key_press": -1, "type": "PRES_VIS", "word": "patrol", "wordID": 1026, "conditions": [24, 1600, "v", 12000], "trial": 3, "serialpos": 1, "trial_type": "single-stim", "trial_index": 130, "time_elapsed": 823349, "internal_node_id": "0.0-94.0"}}, {"uniqueid": "MTK0784:3FE2ERCCZYFS72HFS4G51XHV808OPX", "current_trial": 131, "dateTime": 1512752200885, "trialdata": {"rt": -1, "stimulus": "<p id=\"stim\">SNACK</p>", "key_press": -1, "type": "PRES_VIS", "word": "snack", "wordID": 1330, "conditions": [24, 1600, "v", 12000], "trial": 3, "serialpos": 2, "trial_type": "single-stim", "trial_index": 131, "time_elapsed": 825893, "internal_node_id": "0.0-95.0"}}, {"uniqueid": "MTK0784:3FE2ERCCZYFS72HFS4G51XHV808OPX", "current_trial": 132, "dateTime": 1512752203681, "trialdata": {"rt": -1, "stimulus": "<p id=\"stim\">LUNCH</p>", "key_press": -1, "type": "PRES_VIS", "word": "lunch", "wordID": 848, "conditions": [24, 1600, "v", 12000], "trial": 3, "serialpos": 3, "trial_type": "single-stim", "trial_index": 132, "time_elapsed": 828688, "internal_node_id": "0.0-96.0"}}, {"uniqueid": "MTK0784:3FE2ERCCZYFS72HFS4G51XHV808OPX", "current_trial": 133, "dateTime": 1512752206441, "trialdata": {"rt": -1, "stimulus": "<p id=\"stim\">WHISKERS</p>", "key_press": -1, "type": "PRES_VIS", "word": "whiskers", "wordID": 1604, "conditions": [24, 1600, "v", 12000], "trial": 3, "serialpos": 4, "trial_type": "single-stim", "trial_index": 133, "time_elapsed": 831449, "internal_node_id": "0.0-97.0"}}, {"uniqueid": "MTK0784:3FE2ERCCZYFS72HFS4G51XHV808OPX", "current_trial": 134, "dateTime": 1512752209188, "trialdata": {"rt": -1, "stimulus": "<p id=\"stim\">PORTRAIT</p>", "key_press": -1, "type": "PRES_VIS", "word": "portrait", "wordID": 1110, "conditions": [24, 1600, "v", 12000], "trial": 3, "serialpos": 5, "trial_type": "single-stim", "trial_index": 134, "time_elapsed": 834196, "internal_node_id": "0.0-98.0"}}, {"uniqueid": "MTK0784:3FE2ERCCZYFS72HFS4G51XHV808OPX", "current_trial": 135, "dateTime": 1512752211932, "trialdata": {"rt": -1, "stimulus": "<p id=\"stim\">SUMMIT</p>", "key_press": -1, "type": "PRES_VIS", "word": "summit", "wordID": 1404, "conditions": [24, 1600, "v", 12000], "trial": 3, "serialpos": 6, "trial_type": "single-stim", "trial_index": 135, "time_elapsed": 836940, "internal_node_id": "0.0-99.0"}}, {"uniqueid": "MTK0784:3FE2ERCCZYFS72HFS4G51XHV808OPX", "current_trial": 136, "dateTime": 1512752214340, "trialdata": {"rt": -1, "stimulus": "<p id=\"stim\">CROSS</p>", "key_press": -1, "type": "PRES_VIS", "word": "cross", "wordID": 412, "conditions": [24, 1600, "v", 12000], "trial": 3, "serialpos": 7, "trial_type": "single-stim", "trial_index": 136, "time_elapsed": 839348, "internal_node_id": "0.0-100.0"}}, {"uniqueid": "MTK0784:3FE2ERCCZYFS72HFS4G51XHV808OPX", "current_trial": 137, "dateTime": 1512752216822, "trialdata": {"rt": -1, "stimulus": "<p id=\"stim\">FARMER</p>", "key_press": -1, "type": "PRES_VIS", "word": "farmer", "wordID": 552, "conditions": [24, 1600, "v", 12000], "trial": 3, "serialpos": 8, "trial_type": "single-stim", "trial_index": 137, "time_elapsed": 841830, "internal_node_id": "0.0-101.0"}}, {"uniqueid": "MTK0784:3FE2ERCCZYFS72HFS4G51XHV808OPX", "current_trial": 138, "dateTime": 1512752219505, "trialdata": {"rt": -1, "stimulus": "<p id=\"stim\">COIN</p>", "key_press": -1, "type": "PRES_VIS", "word": "coin", "wordID": 342, "conditions": [24, 1600, "v", 12000], "trial": 3, "serialpos": 9, "trial_type": "single-stim", "trial_index": 138, "time_elapsed": 844513, "internal_node_id": "0.0-102.0"}}, {"uniqueid": "MTK0784:3FE2ERCCZYFS72HFS4G51XHV808OPX", "current_trial": 139, "dateTime": 1512752221964, "trialdata": {"rt": -1, "stimulus": "<p id=\"stim\">BLUEPRINT</p>", "key_press": -1, "type": "PRES_VIS", "word": "blueprint", "wordID": 141, "conditions": [24, 1600, "v", 12000], "trial": 3, "serialpos": 10, "trial_type": "single-stim", "trial_index": 139, "time_elapsed": 846972, "internal_node_id": "0.0-103.0"}}, {"uniqueid": "MTK0784:3FE2ERCCZYFS72HFS4G51XHV808OPX", "current_trial": 140, "dateTime": 1512752224542, "trialdata": {"rt": -1, "stimulus": "<p id=\"stim\">POLICE</p>", "key_press": -1, "type": "PRES_VIS", "word": "police", "wordID": 1097, "conditions": [24, 1600, "v", 12000], "trial": 3, "serialpos": 11, "trial_type": "single-stim", "trial_index": 140, "time_elapsed": 849550, "internal_node_id": "0.0-104.0"}}, {"uniqueid": "MTK0784:3FE2ERCCZYFS72HFS4G51XHV808OPX", "current_trial": 141, "dateTime": 1512752226971, "trialdata": {"rt": -1, "stimulus": "<p id=\"stim\">PIZZA</p>", "key_press": -1, "type": "PRES_VIS", "word": "pizza", "wordID": 1078, "conditions": [24, 1600, "v", 12000], "trial": 3, "serialpos": 12, "trial_type": "single-stim", "trial_index": 141, "time_elapsed": 851979, "internal_node_id": "0.0-105.0"}}, {"uniqueid": "MTK0784:3FE2ERCCZYFS72HFS4G51XHV808OPX", "current_trial": 142, "dateTime": 1512752229711, "trialdata": {"rt": -1, "stimulus": "<p id=\"stim\">SALAD</p>", "key_press": -1, "type": "PRES_VIS", "word": "salad", "wordID": 1223, "conditions": [24, 1600, "v", 12000], "trial": 3, "serialpos": 13, "trial_type": "single-stim", "trial_index": 142, "time_elapsed": 854719, "internal_node_id": "0.0-106.0"}}, {"uniqueid": "MTK0784:3FE2ERCCZYFS72HFS4G51XHV808OPX", "current_trial": 143, "dateTime": 1512752232222, "trialdata": {"rt": -1, "stimulus": "<p id=\"stim\">MONSTER</p>", "key_press": -1, "type": "PRES_VIS", "word": "monster", "wordID": 911, "conditions": [24, 1600, "v", 12000], "trial": 3, "serialpos": 14, "trial_type": "single-stim", "trial_index": 143, "time_elapsed": 857230, "internal_node_id": "0.0-107.0"}}, {"uniqueid": "MTK0784:3FE2ERCCZYFS72HFS4G51XHV808OPX", "current_trial": 144, "dateTime": 1512752235009, "trialdata": {"rt": -1, "stimulus": "<p id=\"stim\">PASTA</p>", "key_press": -1, "type": "PRES_VIS", "word": "pasta", "wordID": 1020, "conditions": [24, 1600, "v", 12000], "trial": 3, "serialpos": 15, "trial_type": "single-stim", "trial_index": 144, "time_elapsed": 860016, "internal_node_id": "0.0-108.0"}}, {"uniqueid": "MTK0784:3FE2ERCCZYFS72HFS4G51XHV808OPX", "current_trial": 145, "dateTime": 1512752237503, "trialdata": {"rt": -1, "stimulus": "<p id=\"stim\">COOK</p>", "key_press": -1, "type": "PRES_VIS", "word": "cook", "wordID": 371, "conditions": [24, 1600, "v", 12000], "trial": 3, "serialpos": 16, "trial_type": "single-stim", "trial_index": 145, "time_elapsed": 862510, "internal_node_id": "0.0-109.0"}}, {"uniqueid": "MTK0784:3FE2ERCCZYFS72HFS4G51XHV808OPX", "current_trial": 146, "dateTime": 1512752240203, "trialdata": {"rt": -1, "stimulus": "<p id=\"stim\">TURKEY</p>", "key_press": -1, "type": "PRES_VIS", "word": "turkey", "wordID": 1519, "conditions": [24, 1600, "v", 12000], "trial": 3, "serialpos": 17, "trial_type": "single-stim", "trial_index": 146, "time_elapsed": 865210, "internal_node_id": "0.0-110.0"}}, {"uniqueid": "MTK0784:3FE2ERCCZYFS72HFS4G51XHV808OPX", "current_trial": 147, "dateTime": 1512752242866, "trialdata": {"rt": -1, "stimulus": "<p id=\"stim\">PLATE</p>", "key_press": -1, "type": "PRES_VIS", "word": "plate", "wordID": 1085, "conditions": [24, 1600, "v", 12000], "trial": 3, "serialpos": 18, "trial_type": "single-stim", "trial_index": 147, "time_elapsed": 867874, "internal_node_id": "0.0-111.0"}}, {"uniqueid": "MTK0784:3FE2ERCCZYFS72HFS4G51XHV808OPX", "current_trial": 148, "dateTime": 1512752245489, "trialdata": {"rt": -1, "stimulus": "<p id=\"stim\">SWORD</p>", "key_press": -1, "type": "PRES_VIS", "word": "sword", "wordID": 1422, "conditions": [24, 1600, "v", 12000], "trial": 3, "serialpos": 19, "trial_type": "single-stim", "trial_index": 148, "time_elapsed": 870497, "internal_node_id": "0.0-112.0"}}, {"uniqueid": "MTK0784:3FE2ERCCZYFS72HFS4G51XHV808OPX", "current_trial": 149, "dateTime": 1512752247897, "trialdata": {"rt": -1, "stimulus": "<p id=\"stim\">SISTER</p>", "key_press": -1, "type": "PRES_VIS", "word": "sister", "wordID": 1311, "conditions": [24, 1600, "v", 12000], "trial": 3, "serialpos": 20, "trial_type": "single-stim", "trial_index": 149, "time_elapsed": 872905, "internal_node_id": "0.0-113.0"}}, {"uniqueid": "MTK0784:3FE2ERCCZYFS72HFS4G51XHV808OPX", "current_trial": 150, "dateTime": 1512752250543, "trialdata": {"rt": -1, "stimulus": "<p id=\"stim\">UNCLE</p>", "key_press": -1, "type": "PRES_VIS", "word": "uncle", "wordID": 1535, "conditions": [24, 1600, "v", 12000], "trial": 3, "serialpos": 21, "trial_type": "single-stim", "trial_index": 150, "time_elapsed": 875551, "internal_node_id": "0.0-114.0"}}, {"uniqueid": "MTK0784:3FE2ERCCZYFS72HFS4G51XHV808OPX", "current_trial": 151, "dateTime": 1512752253161, "trialdata": {"rt": -1, "stimulus": "<p id=\"stim\">EMPIRE</p>", "key_press": -1, "type": "PRES_VIS", "word": "empire", "wordID": 529, "conditions": [24, 1600, "v", 12000], "trial": 3, "serialpos": 22, "trial_type": "single-stim", "trial_index": 151, "time_elapsed": 878169, "internal_node_id": "0.0-115.0"}}, {"uniqueid": "MTK0784:3FE2ERCCZYFS72HFS4G51XHV808OPX", "current_trial": 152, "dateTime": 1512752255575, "trialdata": {"rt": -1, "stimulus": "<p id=\"stim\">BRACES</p>", "key_press": -1, "type": "PRES_VIS", "word": "braces", "wordID": 163, "conditions": [24, 1600, "v", 12000], "trial": 3, "serialpos": 23, "trial_type": "single-stim", "trial_index": 152, "time_elapsed": 880583, "internal_node_id": "0.0-116.0"}}, {"uniqueid": "MTK0784:3FE2ERCCZYFS72HFS4G51XHV808OPX", "current_trial": 153, "dateTime": 1512752258078, "trialdata": {"rt": -1, "stimulus": "", "key_press": -1, "type": "PRE_RECALL_DELAY", "trial_type": "single-stim", "trial_index": 153, "time_elapsed": 883086, "internal_node_id": "0.0-117.0-0.0"}}, {"uniqueid": "MTK0784:3FE2ERCCZYFS72HFS4G51XHV808OPX", "current_trial": 154, "dateTime": 1512752258583, "trialdata": {"rt": -1000, "stimulus": "/static/audio/400Hz.wav", "key_press": -1, "type": "PRE_RECALL_ALERT", "trial_type": "single-audio", "trial_index": 154, "time_elapsed": 883591, "internal_node_id": "0.0-118.0"}}, {"uniqueid": "MTK0784:3FE2ERCCZYFS72HFS4G51XHV808OPX", "current_trial": 155, "dateTime": 1512752318589, "trialdata": {"rt": [3070, 4541, 6359, 7877, 10509, 11876, 13327, 17555, 19592, 21592, 27203, 30437, 39008], "recwords": ["braces", "sword", "empire", "sister", "uncle", "plate", "turkey", "cook", "pasta", "salad", "police", "summit", "pizza"], "type": "FREE_RECALL", "conditions": [24, 1600, "v", 12000], "trial": 3, "trial_type": "free-recall", "trial_index": 155, "time_elapsed": 943593, "internal_node_id": "0.0-119.0-0.0"}}, {"uniqueid": "MTK0784:3FE2ERCCZYFS72HFS4G51XHV808OPX", "current_trial": 156, "dateTime": 1512752326540, "trialdata": {"rt": 5950, "key_press": 71, "type": "INSTRUCTIONS", "trial_type": "text", "trial_index": 156, "time_elapsed": 951548, "internal_node_id": "0.0-120.0"}}, {"uniqueid": "MTK0784:3FE2ERCCZYFS72HFS4G51XHV808OPX", "current_trial": 157, "dateTime": 1512752340543, "trialdata": {"rt": [3178, 5526, 8763, 11789], "responses": ["15", "22", "13", "15"], "num1": [8, 8, 8, 4, 9], "num2": [1, 8, 3, 5, 8], "num3": [6, 6, 2, 6, 5], "type": "DISTRACTOR", "conditions": [12, 800, "v", 12000], "trial": 4, "trial_type": "math-distractor", "trial_index": 157, "time_elapsed": 965551, "internal_node_id": "0.0-121.0"}}, {"uniqueid": "MTK0784:3FE2ERCCZYFS72HFS4G51XHV808OPX", "current_trial": 158, "dateTime": 1512752343543, "trialdata": {"rt": -1, "stimulus": "<p id=\"stim\">10</p>", "key_press": -1, "trial_type": "single-stim", "trial_index": 158, "time_elapsed": 968551, "internal_node_id": "0.0-122.0-0.0"}}, {"uniqueid": "MTK0784:3FE2ERCCZYFS72HFS4G51XHV808OPX", "current_trial": 159, "dateTime": 1512752344544, "trialdata": {"rt": -1, "stimulus": "<p id=\"stim\">9</p>", "key_press": -1, "trial_type": "single-stim", "trial_index": 159, "time_elapsed": 969552, "internal_node_id": "0.0-122.0-1.0"}}, {"uniqueid": "MTK0784:3FE2ERCCZYFS72HFS4G51XHV808OPX", "current_trial": 160, "dateTime": 1512752345545, "trialdata": {"rt": -1, "stimulus": "<p id=\"stim\">8</p>", "key_press": -1, "trial_type": "single-stim", "trial_index": 160, "time_elapsed": 970553, "internal_node_id": "0.0-122.0-2.0"}}, {"uniqueid": "MTK0784:3FE2ERCCZYFS72HFS4G51XHV808OPX", "current_trial": 161, "dateTime": 1512752346546, "trialdata": {"rt": -1, "stimulus": "<p id=\"stim\">7</p>", "key_press": -1, "trial_type": "single-stim", "trial_index": 161, "time_elapsed": 971554, "internal_node_id": "0.0-122.0-3.0"}}, {"uniqueid": "MTK0784:3FE2ERCCZYFS72HFS4G51XHV808OPX", "current_trial": 162, "dateTime": 1512752347547, "trialdata": {"rt": -1, "stimulus": "<p id=\"stim\">6</p>", "key_press": -1, "trial_type": "single-stim", "trial_index": 162, "time_elapsed": 972555, "internal_node_id": "0.0-122.0-4.0"}}, {"uniqueid": "MTK0784:3FE2ERCCZYFS72HFS4G51XHV808OPX", "current_trial": 163, "dateTime": 1512752348547, "trialdata": {"rt": -1, "stimulus": "<p id=\"stim\">5</p>", "key_press": -1, "trial_type": "single-stim", "trial_index": 163, "time_elapsed": 973555, "internal_node_id": "0.0-122.0-5.0"}}, {"uniqueid": "MTK0784:3FE2ERCCZYFS72HFS4G51XHV808OPX", "current_trial": 164, "dateTime": 1512752349548, "trialdata": {"rt": -1, "stimulus": "<p id=\"stim\">4</p>", "key_press": -1, "trial_type": "single-stim", "trial_index": 164, "time_elapsed": 974556, "internal_node_id": "0.0-122.0-6.0"}}, {"uniqueid": "MTK0784:3FE2ERCCZYFS72HFS4G51XHV808OPX", "current_trial": 165, "dateTime": 1512752350550, "trialdata": {"rt": -1, "stimulus": "<p id=\"stim\">3</p>", "key_press": -1, "trial_type": "single-stim", "trial_index": 165, "time_elapsed": 975557, "internal_node_id": "0.0-122.0-7.0"}}, {"uniqueid": "MTK0784:3FE2ERCCZYFS72HFS4G51XHV808OPX", "current_trial": 166, "dateTime": 1512752351550, "trialdata": {"rt": -1, "stimulus": "<p id=\"stim\">2</p>", "key_press": -1, "trial_type": "single-stim", "trial_index": 166, "time_elapsed": 976558, "internal_node_id": "0.0-122.0-8.0"}}, {"uniqueid": "MTK0784:3FE2ERCCZYFS72HFS4G51XHV808OPX", "current_trial": 167, "dateTime": 1512752352551, "trialdata": {"rt": -1, "stimulus": "<p id=\"stim\">1</p>", "key_press": -1, "trial_type": "single-stim", "trial_index": 167, "time_elapsed": 977559, "internal_node_id": "0.0-122.0-9.0"}}, {"uniqueid": "MTK0784:3FE2ERCCZYFS72HFS4G51XHV808OPX", "current_trial": 168, "dateTime": 1512752354052, "trialdata": {"rt": -1, "stimulus": "<p id=\"stim\">+</p>", "key_press": -1, "type": "FIXATION", "trial_type": "single-stim", "trial_index": 168, "time_elapsed": 979060, "internal_node_id": "0.0-123.0-0.0"}}, {"uniqueid": "MTK0784:3FE2ERCCZYFS72HFS4G51XHV808OPX", "current_trial": 169, "dateTime": 1512752354853, "trialdata": {"rt": -1, "stimulus": "<p id=\"stim\">CLAMP</p>", "key_press": -1, "type": "PRES_VIS", "word": "clamp", "wordID": 315, "conditions": [12, 800, "v", 12000], "trial": 4, "serialpos": 0, "trial_type": "single-stim", "trial_index": 169, "time_elapsed": 979861, "internal_node_id": "0.0-124.0"}}, {"uniqueid": "MTK0784:3FE2ERCCZYFS72HFS4G51XHV808OPX", "current_trial": 170, "dateTime": 1512752356732, "trialdata": {"rt": -1, "stimulus": "<p id=\"stim\">JURY</p>", "key_press": -1, "type": "PRES_VIS", "word": "jury", "wordID": 765, "conditions": [12, 800, "v", 12000], "trial": 4, "serialpos": 1, "trial_type": "single-stim", "trial_index": 170, "time_elapsed": 981739, "internal_node_id": "0.0-125.0"}}, {"uniqueid": "MTK0784:3FE2ERCCZYFS72HFS4G51XHV808OPX", "current_trial": 171, "dateTime": 1512752358714, "trialdata": {"rt": -1, "stimulus": "<p id=\"stim\">BADGE</p>", "key_press": -1, "type": "PRES_VIS", "word": "badge", "wordID": 67, "conditions": [12, 800, "v", 12000], "trial": 4, "serialpos": 2, "trial_type": "single-stim", "trial_index": 171, "time_elapsed": 983722, "internal_node_id": "0.0-126.0"}}, {"uniqueid": "MTK0784:3FE2ERCCZYFS72HFS4G51XHV808OPX", "current_trial": 172, "dateTime": 1512752360501, "trialdata": {"rt": -1, "stimulus": "<p id=\"stim\">STICKER</p>", "key_press": -1, "type": "PRES_VIS", "word": "sticker", "wordID": 1381, "conditions": [12, 800, "v", 12000], "trial": 4, "serialpos": 3, "trial_type": "single-stim", "trial_index": 172, "time_elapsed": 985509, "internal_node_id": "0.0-127.0"}}, {"uniqueid": "MTK0784:3FE2ERCCZYFS72HFS4G51XHV808OPX", "current_trial": 173, "dateTime": 1512752362330, "trialdata": {"rt": -1, "stimulus": "<p id=\"stim\">STAMP</p>", "key_press": -1, "type": "PRES_VIS", "word": "stamp", "wordID": 1369, "conditions": [12, 800, "v", 12000], "trial": 4, "serialpos": 4, "trial_type": "single-stim", "trial_index": 173, "time_elapsed": 987336, "internal_node_id": "0.0-128.0"}}, {"uniqueid": "MTK0784:3FE2ERCCZYFS72HFS4G51XHV808OPX", "current_trial": 174, "dateTime": 1512752364069, "trialdata": {"rt": -1, "stimulus": "<p id=\"stim\">POISON</p>", "key_press": -1, "type": "PRES_VIS", "word": "poison", "wordID": 1095, "conditions": [12, 800, "v", 12000], "trial": 4, "serialpos": 5, "trial_type": "single-stim", "trial_index": 174, "time_elapsed": 989077, "internal_node_id": "0.0-129.0"}}, {"uniqueid": "MTK0784:3FE2ERCCZYFS72HFS4G51XHV808OPX", "current_trial": 175, "dateTime": 1512752365940, "trialdata": {"rt": -1, "stimulus": "<p id=\"stim\">GRAVEL</p>", "key_press": -1, "type": "PRES_VIS", "word": "gravel", "wordID": 658, "conditions": [12, 800, "v", 12000], "trial": 4, "serialpos": 6, "trial_type": "single-stim", "trial_index": 175, "time_elapsed": 990948, "internal_node_id": "0.0-130.0"}}, {"uniqueid": "MTK0784:3FE2ERCCZYFS72HFS4G51XHV808OPX", "current_trial": 176, "dateTime": 1512752367900, "trialdata": {"rt": -1, "stimulus": "<p id=\"stim\">AIRPORT</p>", "key_press": -1, "type": "PRES_VIS", "word": "airport", "wordID": 12, "conditions": [12, 800, "v", 12000], "trial": 4, "serialpos": 7, "trial_type": "single-stim", "trial_index": 176, "time_elapsed": 992907, "internal_node_id": "0.0-131.0"}}, {"uniqueid": "MTK0784:3FE2ERCCZYFS72HFS4G51XHV808OPX", "current_trial": 177, "dateTime": 1512752369645, "trialdata": {"rt": -1, "stimulus": "<p id=\"stim\">PILOT</p>", "key_press": -1, "type": "PRES_VIS", "word": "pilot", "wordID": 1069, "conditions": [12, 800, "v", 12000], "trial": 4, "serialpos": 8, "trial_type": "single-stim", "trial_index": 177, "time_elapsed": 994653, "internal_node_id": "0.0-132.0"}}, {"uniqueid": "MTK0784:3FE2ERCCZYFS72HFS4G51XHV808OPX", "current_trial": 178, "dateTime": 1512752371467, "trialdata": {"rt": -1, "stimulus": "<p id=\"stim\">DRESS</p>", "key_press": -1, "type": "PRES_VIS", "word": "dress", "wordID": 494, "conditions": [12, 800, "v", 12000], "trial": 4, "serialpos": 9, "trial_type": "single-stim", "trial_index": 178, "time_elapsed": 996475, "internal_node_id": "0.0-133.0"}}, {"uniqueid": "MTK0784:3FE2ERCCZYFS72HFS4G51XHV808OPX", "current_trial": 179, "dateTime": 1512752373249, "trialdata": {"rt": -1, "stimulus": "<p id=\"stim\">JUDGE</p>", "key_press": -1, "type": "PRES_VIS", "word": "judge", "wordID": 760, "conditions": [12, 800, "v", 12000], "trial": 4, "serialpos": 10, "trial_type": "single-stim", "trial_index": 179, "time_elapsed": 998257, "internal_node_id": "0.0-134.0"}}, {"uniqueid": "MTK0784:3FE2ERCCZYFS72HFS4G51XHV808OPX", "current_trial": 180, "dateTime": 1512752375021, "trialdata": {"rt": -1, "stimulus": "<p id=\"stim\">OUTLAW</p>", "key_press": -1, "type": "PRES_VIS", "word": "outlaw", "wordID": 988, "conditions": [12, 800, "v", 12000], "trial": 4, "serialpos": 11, "trial_type": "single-stim", "trial_index": 180, "time_elapsed": 1000029, "internal_node_id": "0.0-135.0"}}, {"uniqueid": "MTK0784:3FE2ERCCZYFS72HFS4G51XHV808OPX", "current_trial": 181, "dateTime": 1512752377057, "trialdata": {"rt": -1, "stimulus": "", "key_press": -1, "type": "PRE_RECALL_DELAY", "trial_type": "single-stim", "trial_index": 181, "time_elapsed": 1002065, "internal_node_id": "0.0-136.0-0.0"}}, {"uniqueid": "MTK0784:3FE2ERCCZYFS72HFS4G51XHV808OPX", "current_trial": 182, "dateTime": 1512752377565, "trialdata": {"rt": -1000, "stimulus": "/static/audio/400Hz.wav", "key_press": -1, "type": "PRE_RECALL_ALERT", "trial_type": "single-audio", "trial_index": 182, "time_elapsed": 1002573, "internal_node_id": "0.0-137.0"}}, {"uniqueid": "MTK0784:3FE2ERCCZYFS72HFS4G51XHV808OPX", "current_trial": 183, "dateTime": 1512752437570, "trialdata": {"rt": [3362, 5142, 6943, 9965, 15335], "recwords": ["outlaw", "jury", "judge", "gavel", "dress"], "type": "FREE_RECALL", "conditions": [12, 800, "v", 12000], "trial": 4, "trial_type": "free-recall", "trial_index": 183, "time_elapsed": 1062574, "internal_node_id": "0.0-138.0-0.0"}}, {"uniqueid": "MTK0784:3FE2ERCCZYFS72HFS4G51XHV808OPX", "current_trial": 184, "dateTime": 1512752443098, "trialdata": {"rt": 3528, "key_press": 13, "type": "INSTRUCTIONS", "trial_type": "text", "trial_index": 184, "time_elapsed": 1068106, "internal_node_id": "0.0-139.0"}}, {"uniqueid": "MTK0784:3FE2ERCCZYFS72HFS4G51XHV808OPX", "current_trial": 185, "dateTime": 1512752457101, "trialdata": {"rt": [2783, 5332, 7603, 11760], "responses": ["10", "10", "13", "13"], "num1": [7, 3, 5, 6, 3], "num2": [2, 5, 3, 5, 9], "num3": [1, 2, 5, 2, 5], "type": "DISTRACTOR", "conditions": [12, 1600, "v", 12000], "trial": 5, "trial_type": "math-distractor", "trial_index": 185, "time_elapsed": 1082109, "internal_node_id": "0.0-140.0"}}, {"uniqueid": "MTK0784:3FE2ERCCZYFS72HFS4G51XHV808OPX", "current_trial": 186, "dateTime": 1512752460102, "trialdata": {"rt": -1, "stimulus": "<p id=\"stim\">10</p>", "key_press": -1, "trial_type": "single-stim", "trial_index": 186, "time_elapsed": 1085109, "internal_node_id": "0.0-141.0-0.0"}}, {"uniqueid": "MTK0784:3FE2ERCCZYFS72HFS4G51XHV808OPX", "current_trial": 187, "dateTime": 1512752461102, "trialdata": {"rt": -1, "stimulus": "<p id=\"stim\">9</p>", "key_press": -1, "trial_type": "single-stim", "trial_index": 187, "time_elapsed": 1086110, "internal_node_id": "0.0-141.0-1.0"}}, {"uniqueid": "MTK0784:3FE2ERCCZYFS72HFS4G51XHV808OPX", "current_trial": 188, "dateTime": 1512752462103, "trialdata": {"rt": -1, "stimulus": "<p id=\"stim\">8</p>", "key_press": -1, "trial_type": "single-stim", "trial_index": 188, "time_elapsed": 1087111, "internal_node_id": "0.0-141.0-2.0"}}, {"uniqueid": "MTK0784:3FE2ERCCZYFS72HFS4G51XHV808OPX", "current_trial": 189, "dateTime": 1512752463104, "trialdata": {"rt": -1, "stimulus": "<p id=\"stim\">7</p>", "key_press": -1, "trial_type": "single-stim", "trial_index": 189, "time_elapsed": 1088112, "internal_node_id": "0.0-141.0-3.0"}}, {"uniqueid": "MTK0784:3FE2ERCCZYFS72HFS4G51XHV808OPX", "current_trial": 190, "dateTime": 1512752464105, "trialdata": {"rt": -1, "stimulus": "<p id=\"stim\">6</p>", "key_press": -1, "trial_type": "single-stim", "trial_index": 190, "time_elapsed": 1089113, "internal_node_id": "0.0-141.0-4.0"}}, {"uniqueid": "MTK0784:3FE2ERCCZYFS72HFS4G51XHV808OPX", "current_trial": 191, "dateTime": 1512752465106, "trialdata": {"rt": -1, "stimulus": "<p id=\"stim\">5</p>", "key_press": -1, "trial_type": "single-stim", "trial_index": 191, "time_elapsed": 1090114, "internal_node_id": "0.0-141.0-5.0"}}, {"uniqueid": "MTK0784:3FE2ERCCZYFS72HFS4G51XHV808OPX", "current_trial": 192, "dateTime": 1512752466107, "trialdata": {"rt": -1, "stimulus": "<p id=\"stim\">4</p>", "key_press": -1, "trial_type": "single-stim", "trial_index": 192, "time_elapsed": 1091115, "internal_node_id": "0.0-141.0-6.0"}}, {"uniqueid": "MTK0784:3FE2ERCCZYFS72HFS4G51XHV808OPX", "current_trial": 193, "dateTime": 1512752467108, "trialdata": {"rt": -1, "stimulus": "<p id=\"stim\">3</p>", "key_press": -1, "trial_type": "single-stim", "trial_index": 193, "time_elapsed": 1092116, "internal_node_id": "0.0-141.0-7.0"}}, {"uniqueid": "MTK0784:3FE2ERCCZYFS72HFS4G51XHV808OPX", "current_trial": 194, "dateTime": 1512752468113, "trialdata": {"rt": -1, "stimulus": "<p id=\"stim\">2</p>", "key_press": -1, "trial_type": "single-stim", "trial_index": 194, "time_elapsed": 1093120, "internal_node_id": "0.0-141.0-8.0"}}, {"uniqueid": "MTK0784:3FE2ERCCZYFS72HFS4G51XHV808OPX", "current_trial": 195, "dateTime": 1512752469115, "trialdata": {"rt": -1, "stimulus": "<p id=\"stim\">1</p>", "key_press": -1, "trial_type": "single-stim", "trial_index": 195, "time_elapsed": 1094123, "internal_node_id": "0.0-141.0-9.0"}}, {"uniqueid": "MTK0784:3FE2ERCCZYFS72HFS4G51XHV808OPX", "current_trial": 196, "dateTime": 1512752470617, "trialdata": {"rt": -1, "stimulus": "<p id=\"stim\">+</p>", "key_press": -1, "type": "FIXATION", "trial_type": "single-stim", "trial_index": 196, "time_elapsed": 1095625, "internal_node_id": "0.0-142.0-0.0"}}, {"uniqueid": "MTK0784:3FE2ERCCZYFS72HFS4G51XHV808OPX", "current_trial": 197, "dateTime": 1512752472219, "trialdata": {"rt": -1, "stimulus": "<p id=\"stim\">MARSH</p>", "key_press": -1, "type": "PRES_VIS", "word": "marsh", "wordID": 873, "conditions": [12, 1600, "v", 12000], "trial": 5, "serialpos": 0, "trial_type": "single-stim", "trial_index": 197, "time_elapsed": 1097226, "internal_node_id": "0.0-143.0"}}, {"uniqueid": "MTK0784:3FE2ERCCZYFS72HFS4G51XHV808OPX", "current_trial": 198, "dateTime": 1512752474814, "trialdata": {"rt": -1, "stimulus": "<p id=\"stim\">SEAFOOD</p>", "key_press": -1, "type": "PRES_VIS", "word": "seafood", "wordID": 1259, "conditions": [12, 1600, "v", 12000], "trial": 5, "serialpos": 1, "trial_type": "single-stim", "trial_index": 198, "time_elapsed": 1099822, "internal_node_id": "0.0-144.0"}}, {"uniqueid": "MTK0784:3FE2ERCCZYFS72HFS4G51XHV808OPX", "current_trial": 199, "dateTime": 1512752477521, "trialdata": {"rt": -1, "stimulus": "<p id=\"stim\">CANAL</p>", "key_press": -1, "type": "PRES_VIS", "word": "canal", "wordID": 225, "conditions": [12, 1600, "v", 12000], "trial": 5, "serialpos": 2, "trial_type": "single-stim", "trial_index": 199, "time_elapsed": 1102529, "internal_node_id": "0.0-145.0"}}, {"uniqueid": "MTK0784:3FE2ERCCZYFS72HFS4G51XHV808OPX", "current_trial": 200, "dateTime": 1512752480311, "trialdata": {"rt": -1, "stimulus": "<p id=\"stim\">PUDDLE</p>", "key_press": -1, "type": "PRES_VIS", "word": "puddle", "wordID": 1139, "conditions": [12, 1600, "v", 12000], "trial": 5, "serialpos": 3, "trial_type": "single-stim", "trial_index": 200, "time_elapsed": 1105319, "internal_node_id": "0.0-146.0"}}, {"uniqueid": "MTK0784:3FE2ERCCZYFS72HFS4G51XHV808OPX", "current_trial": 201, "dateTime": 1512752482950, "trialdata": {"rt": -1, "stimulus": "<p id=\"stim\">LAKE</p>", "key_press": -1, "type": "PRES_VIS", "word": "lake", "wordID": 795, "conditions": [12, 1600, "v", 12000], "trial": 5, "serialpos": 4, "trial_type": "single-stim", "trial_index": 201, "time_elapsed": 1107958, "internal_node_id": "0.0-147.0"}}, {"uniqueid": "MTK0784:3FE2ERCCZYFS72HFS4G51XHV808OPX", "current_trial": 202, "dateTime": 1512752485676, "trialdata": {"rt": -1, "stimulus": "<p id=\"stim\">SCARF</p>", "key_press": -1, "type": "PRES_VIS", "word": "scarf", "wordID": 1245, "conditions": [12, 1600, "v", 12000], "trial": 5, "serialpos": 5, "trial_type": "single-stim", "trial_index": 202, "time_elapsed": 1110683, "internal_node_id": "0.0-148.0"}}, {"uniqueid": "MTK0784:3FE2ERCCZYFS72HFS4G51XHV808OPX", "current_trial": 203, "dateTime": 1512752488345, "trialdata": {"rt": -1, "stimulus": "<p id=\"stim\">STUDENT</p>", "key_press": -1, "type": "PRES_VIS", "word": "student", "wordID": 1394, "conditions": [12, 1600, "v", 12000], "trial": 5, "serialpos": 6, "trial_type": "single-stim", "trial_index": 203, "time_elapsed": 1113353, "internal_node_id": "0.0-149.0"}}, {"uniqueid": "MTK0784:3FE2ERCCZYFS72HFS4G51XHV808OPX", "current_trial": 204, "dateTime": 1512752490810, "trialdata": {"rt": -1, "stimulus": "<p id=\"stim\">ORANGE</p>", "key_press": -1, "type": "PRES_VIS", "word": "orange", "wordID": 979, "conditions": [12, 1600, "v", 12000], "trial": 5, "serialpos": 7, "trial_type": "single-stim", "trial_index": 204, "time_elapsed": 1115818, "internal_node_id": "0.0-150.0"}}, {"uniqueid": "MTK0784:3FE2ERCCZYFS72HFS4G51XHV808OPX", "current_trial": 205, "dateTime": 1512752493418, "trialdata": {"rt": -1, "stimulus": "<p id=\"stim\">SNAIL</p>", "key_press": -1, "type": "PRES_VIS", "word": "snail", "wordID": 1331, "conditions": [12, 1600, "v", 12000], "trial": 5, "serialpos": 8, "trial_type": "single-stim", "trial_index": 205, "time_elapsed": 1118426, "internal_node_id": "0.0-151.0"}}, {"uniqueid": "MTK0784:3FE2ERCCZYFS72HFS4G51XHV808OPX", "current_trial": 206, "dateTime": 1512752496127, "trialdata": {"rt": -1, "stimulus": "<p id=\"stim\">CRAYON</p>", "key_press": -1, "type": "PRES_VIS", "word": "crayon", "wordID": 400, "conditions": [12, 1600, "v", 12000], "trial": 5, "serialpos": 9, "trial_type": "single-stim", "trial_index": 206, "time_elapsed": 1121135, "internal_node_id": "0.0-152.0"}}, {"uniqueid": "MTK0784:3FE2ERCCZYFS72HFS4G51XHV808OPX", "current_trial": 207, "dateTime": 1512752498620, "trialdata": {"rt": -1, "stimulus": "<p id=\"stim\">TOASTER</p>", "key_press": -1, "type": "PRES_VIS", "word": "toaster", "wordID": 1471, "conditions": [12, 1600, "v", 12000], "trial": 5, "serialpos": 10, "trial_type": "single-stim", "trial_index": 207, "time_elapsed": 1123628, "internal_node_id": "0.0-153.0"}}, {"uniqueid": "MTK0784:3FE2ERCCZYFS72HFS4G51XHV808OPX", "current_trial": 208, "dateTime": 1512752501333, "trialdata": {"rt": -1, "stimulus": "<p id=\"stim\">STOVE</p>", "key_press": -1, "type": "PRES_VIS", "word": "stove", "wordID": 1387, "conditions": [12, 1600, "v", 12000], "trial": 5, "serialpos": 11, "trial_type": "single-stim", "trial_index": 208, "time_elapsed": 1126341, "internal_node_id": "0.0-154.0"}}, {"uniqueid": "MTK0784:3FE2ERCCZYFS72HFS4G51XHV808OPX", "current_trial": 209, "dateTime": 1512752503738, "trialdata": {"rt": -1, "stimulus": "", "key_press": -1, "type": "PRE_RECALL_DELAY", "trial_type": "single-stim", "trial_index": 209, "time_elapsed": 1128745, "internal_node_id": "0.0-155.0-0.0"}}, {"uniqueid": "MTK0784:3FE2ERCCZYFS72HFS4G51XHV808OPX", "current_trial": 210, "dateTime": 1512752504238, "trialdata": {"rt": -1000, "stimulus": "/static/audio/400Hz.wav", "key_press": -1, "type": "PRE_RECALL_ALERT", "trial_type": "single-audio", "trial_index": 210, "time_elapsed": 1129246, "internal_node_id": "0.0-156.0"}}, {"uniqueid": "MTK0784:3FE2ERCCZYFS72HFS4G51XHV808OPX", "current_trial": 211, "dateTime": 1512752564250, "trialdata": {"rt": [2651, 3791, 6506, 8261, 12475, 21943, 46348, 49556], "recwords": ["toaster", "stove", "crayon", "marsh", "canal", "orange", "puddle", "lake"], "type": "FREE_RECALL", "conditions": [12, 1600, "v", 12000], "trial": 5, "trial_type": "free-recall", "trial_index": 211, "time_elapsed": 1189252, "internal_node_id": "0.0-157.0-0.0"}}, {"uniqueid": "MTK0784:3FE2ERCCZYFS72HFS4G51XHV808OPX", "current_trial": 212, "dateTime": 1512752567475, "trialdata": {"rt": 1224, "key_press": 13, "type": "INSTRUCTIONS", "trial_type": "text", "trial_index": 212, "time_elapsed": 1192483, "internal_node_id": "0.0-158.0"}}, {"uniqueid": "MTK0784:3FE2ERCCZYFS72HFS4G51XHV808OPX", "current_trial": 213, "dateTime": 1512752581478, "trialdata": {"rt": [6184, 8083, 10469], "responses": ["24", "6", "14"], "num1": [7, 1, 3, 1], "num2": [8, 1, 2, 9], "num3": [9, 4, 9, 7], "type": "DISTRACTOR", "conditions": [24, 1600, "a", 12000], "trial": 6, "trial_type": "math-distractor", "trial_index": 213, "time_elapsed": 1206486, "internal_node_id": "0.0-159.0"}}, {"uniqueid": "MTK0784:3FE2ERCCZYFS72HFS4G51XHV808OPX", "current_trial": 214, "dateTime": 1512752584478, "trialdata": {"rt": -1, "stimulus": "<p id=\"stim\">10</p>", "key_press": -1, "trial_type": "single-stim", "trial_index": 214, "time_elapsed": 1209486, "internal_node_id": "0.0-160.0-0.0"}}, {"uniqueid": "MTK0784:3FE2ERCCZYFS72HFS4G51XHV808OPX", "current_trial": 215, "dateTime": 1512752585479, "trialdata": {"rt": -1, "stimulus": "<p id=\"stim\">9</p>", "key_press": -1, "trial_type": "single-stim", "trial_index": 215, "time_elapsed": 1210487, "internal_node_id": "0.0-160.0-1.0"}}, {"uniqueid": "MTK0784:3FE2ERCCZYFS72HFS4G51XHV808OPX", "current_trial": 216, "dateTime": 1512752586480, "trialdata": {"rt": -1, "stimulus": "<p id=\"stim\">8</p>", "key_press": -1, "trial_type": "single-stim", "trial_index": 216, "time_elapsed": 1211488, "internal_node_id": "0.0-160.0-2.0"}}, {"uniqueid": "MTK0784:3FE2ERCCZYFS72HFS4G51XHV808OPX", "current_trial": 217, "dateTime": 1512752587480, "trialdata": {"rt": -1, "stimulus": "<p id=\"stim\">7</p>", "key_press": -1, "trial_type": "single-stim", "trial_index": 217, "time_elapsed": 1212488, "internal_node_id": "0.0-160.0-3.0"}}, {"uniqueid": "MTK0784:3FE2ERCCZYFS72HFS4G51XHV808OPX", "current_trial": 218, "dateTime": 1512752588481, "trialdata": {"rt": -1, "stimulus": "<p id=\"stim\">6</p>", "key_press": -1, "trial_type": "single-stim", "trial_index": 218, "time_elapsed": 1213489, "internal_node_id": "0.0-160.0-4.0"}}, {"uniqueid": "MTK0784:3FE2ERCCZYFS72HFS4G51XHV808OPX", "current_trial": 219, "dateTime": 1512752589482, "trialdata": {"rt": -1, "stimulus": "<p id=\"stim\">5</p>", "key_press": -1, "trial_type": "single-stim", "trial_index": 219, "time_elapsed": 1214490, "internal_node_id": "0.0-160.0-5.0"}}, {"uniqueid": "MTK0784:3FE2ERCCZYFS72HFS4G51XHV808OPX", "current_trial": 220, "dateTime": 1512752590483, "trialdata": {"rt": -1, "stimulus": "<p id=\"stim\">4</p>", "key_press": -1, "trial_type": "single-stim", "trial_index": 220, "time_elapsed": 1215491, "internal_node_id": "0.0-160.0-6.0"}}, {"uniqueid": "MTK0784:3FE2ERCCZYFS72HFS4G51XHV808OPX", "current_trial": 221, "dateTime": 1512752591484, "trialdata": {"rt": -1, "stimulus": "<p id=\"stim\">3</p>", "key_press": -1, "trial_type": "single-stim", "trial_index": 221, "time_elapsed": 1216492, "internal_node_id": "0.0-160.0-7.0"}}, {"uniqueid": "MTK0784:3FE2ERCCZYFS72HFS4G51XHV808OPX", "current_trial": 222, "dateTime": 1512752592485, "trialdata": {"rt": -1, "stimulus": "<p id=\"stim\">2</p>", "key_press": -1, "trial_type": "single-stim", "trial_index": 222, "time_elapsed": 1217493, "internal_node_id": "0.0-160.0-8.0"}}, {"uniqueid": "MTK0784:3FE2ERCCZYFS72HFS4G51XHV808OPX", "current_trial": 223, "dateTime": 1512752593488, "trialdata": {"rt": -1, "stimulus": "<p id=\"stim\">1</p>", "key_press": -1, "trial_type": "single-stim", "trial_index": 223, "time_elapsed": 1218495, "internal_node_id": "0.0-160.0-9.0"}}, {"uniqueid": "MTK0784:3FE2ERCCZYFS72HFS4G51XHV808OPX", "current_trial": 224, "dateTime": 1512752594988, "trialdata": {"rt": -1, "stimulus": "<p id=\"stim\">+</p>", "key_press": -1, "type": "FIXATION", "trial_type": "single-stim", "trial_index": 224, "time_elapsed": 1219996, "internal_node_id": "0.0-161.0-0.0"}}, {"uniqueid": "MTK0784:3FE2ERCCZYFS72HFS4G51XHV808OPX", "current_trial": 225, "dateTime": 1512752597767, "trialdata": {"rt": -1000, "stimulus": "/static/audio/wordpool/LABEL.wav", "key_press": -1, "type": "PRES_AUD", "word": "label", "wordID": 789, "conditions": [24, 1600, "a", 12000], "trial": 6, "serialpos": 0, "trial_type": "single-audio", "trial_index": 225, "time_elapsed": 1222775, "internal_node_id": "0.0-162.0"}}, {"uniqueid": "MTK0784:3FE2ERCCZYFS72HFS4G51XHV808OPX", "current_trial": 226, "dateTime": 1512752600197, "trialdata": {"rt": -1000, "stimulus": "/static/audio/wordpool/KIDNEY.wav", "key_press": -1, "type": "PRES_AUD", "word": "kidney", "wordID": 775, "conditions": [24, 1600, "a", 12000], "trial": 6, "serialpos": 1, "trial_type": "single-audio", "trial_index": 226, "time_elapsed": 1225205, "internal_node_id": "0.0-163.0"}}, {"uniqueid": "MTK0784:3FE2ERCCZYFS72HFS4G51XHV808OPX", "current_trial": 227, "dateTime": 1512752602959, "trialdata": {"rt": -1000, "stimulus": "/static/audio/wordpool/LIVER.wav", "key_press": -1, "type": "PRES_AUD", "word": "liver", "wordID": 832, "conditions": [24, 1600, "a", 12000], "trial": 6, "serialpos": 2, "trial_type": "single-audio", "trial_index": 227, "time_elapsed": 1227967, "internal_node_id": "0.0-164.0"}}, {"uniqueid": "MTK0784:3FE2ERCCZYFS72HFS4G51XHV808OPX", "current_trial": 228, "dateTime": 1512752605635, "trialdata": {"rt": -1000, "stimulus": "/static/audio/wordpool/BUG.wav", "key_press": -1, "type": "PRES_AUD", "word": "bug", "wordID": 186, "conditions": [24, 1600, "a", 12000], "trial": 6, "serialpos": 3, "trial_type": "single-audio", "trial_index": 228, "time_elapsed": 1230643, "internal_node_id": "0.0-165.0"}}, {"uniqueid": "MTK0784:3FE2ERCCZYFS72HFS4G51XHV808OPX", "current_trial": 229, "dateTime": 1512752608133, "trialdata": {"rt": -1000, "stimulus": "/static/audio/wordpool/SCALPEL.wav", "key_press": -1, "type": "PRES_AUD", "word": "scalpel", "wordID": 1242, "conditions": [24, 1600, "a", 12000], "trial": 6, "serialpos": 4, "trial_type": "single-audio", "trial_index": 229, "time_elapsed": 1233141, "internal_node_id": "0.0-166.0"}}, {"uniqueid": "MTK0784:3FE2ERCCZYFS72HFS4G51XHV808OPX", "current_trial": 230, "dateTime": 1512752610699, "trialdata": {"rt": -1000, "stimulus": "/static/audio/wordpool/FRAME.wav", "key_press": -1, "type": "PRES_AUD", "word": "frame", "wordID": 599, "conditions": [24, 1600, "a", 12000], "trial": 6, "serialpos": 5, "trial_type": "single-audio", "trial_index": 230, "time_elapsed": 1235707, "internal_node_id": "0.0-167.0"}}, {"uniqueid": "MTK0784:3FE2ERCCZYFS72HFS4G51XHV808OPX", "current_trial": 231, "dateTime": 1512752613442, "trialdata": {"rt": -1000, "stimulus": "/static/audio/wordpool/CHILD.wav", "key_press": -1, "type": "PRES_AUD", "word": "child", "wordID": 298, "conditions": [24, 1600, "a", 12000], "trial": 6, "serialpos": 6, "trial_type": "single-audio", "trial_index": 231, "time_elapsed": 1238450, "internal_node_id": "0.0-168.0"}}, {"uniqueid": "MTK0784:3FE2ERCCZYFS72HFS4G51XHV808OPX", "current_trial": 232, "dateTime": 1512752616022, "trialdata": {"rt": -1000, "stimulus": "/static/audio/wordpool/VIRUS.wav", "key_press": -1, "type": "PRES_AUD", "word": "virus", "wordID": 1571, "conditions": [24, 1600, "a", 12000], "trial": 6, "serialpos": 7, "trial_type": "single-audio", "trial_index": 232, "time_elapsed": 1241030, "internal_node_id": "0.0-169.0"}}, {"uniqueid": "MTK0784:3FE2ERCCZYFS72HFS4G51XHV808OPX", "current_trial": 233, "dateTime": 1512752618657, "trialdata": {"rt": -1000, "stimulus": "/static/audio/wordpool/WRENCH.wav", "key_press": -1, "type": "PRES_AUD", "word": "wrench", "wordID": 1624, "conditions": [24, 1600, "a", 12000], "trial": 6, "serialpos": 8, "trial_type": "single-audio", "trial_index": 233, "time_elapsed": 1243665, "internal_node_id": "0.0-170.0"}}, {"uniqueid": "MTK0784:3FE2ERCCZYFS72HFS4G51XHV808OPX", "current_trial": 234, "dateTime": 1512752621404, "trialdata": {"rt": -1000, "stimulus": "/static/audio/wordpool/ELBOW.wav", "key_press": -1, "type": "PRES_AUD", "word": "elbow", "wordID": 519, "conditions": [24, 1600, "a", 12000], "trial": 6, "serialpos": 9, "trial_type": "single-audio", "trial_index": 234, "time_elapsed": 1246412, "internal_node_id": "0.0-171.0"}}, {"uniqueid": "MTK0784:3FE2ERCCZYFS72HFS4G51XHV808OPX", "current_trial": 235, "dateTime": 1512752624147, "trialdata": {"rt": -1000, "stimulus": "/static/audio/wordpool/TERMITE.wav", "key_press": -1, "type": "PRES_AUD", "word": "termite", "wordID": 1450, "conditions": [24, 1600, "a", 12000], "trial": 6, "serialpos": 10, "trial_type": "single-audio", "trial_index": 235, "time_elapsed": 1249155, "internal_node_id": "0.0-172.0"}}, {"uniqueid": "MTK0784:3FE2ERCCZYFS72HFS4G51XHV808OPX", "current_trial": 236, "dateTime": 1512752626590, "trialdata": {"rt": -1000, "stimulus": "/static/audio/wordpool/MAMMAL.wav", "key_press": -1, "type": "PRES_AUD", "word": "mammal", "wordID": 860, "conditions": [24, 1600, "a", 12000], "trial": 6, "serialpos": 11, "trial_type": "single-audio", "trial_index": 236, "time_elapsed": 1251598, "internal_node_id": "0.0-173.0"}}, {"uniqueid": "MTK0784:3FE2ERCCZYFS72HFS4G51XHV808OPX", "current_trial": 237, "dateTime": 1512752629038, "trialdata": {"rt": -1000, "stimulus": "/static/audio/wordpool/BOYFRIEND.wav", "key_press": -1, "type": "PRES_AUD", "word": "boyfriend", "wordID": 161, "conditions": [24, 1600, "a", 12000], "trial": 6, "serialpos": 12, "trial_type": "single-audio", "trial_index": 237, "time_elapsed": 1254046, "internal_node_id": "0.0-174.0"}}, {"uniqueid": "MTK0784:3FE2ERCCZYFS72HFS4G51XHV808OPX", "current_trial": 238, "dateTime": 1512752631479, "trialdata": {"rt": -1000, "stimulus": "/static/audio/wordpool/WARDROBE.wav", "key_press": -1, "type": "PRES_AUD", "word": "wardrobe", "wordID": 1586, "conditions": [24, 1600, "a", 12000], "trial": 6, "serialpos": 13, "trial_type": "single-audio", "trial_index": 238, "time_elapsed": 1256487, "internal_node_id": "0.0-175.0"}}, {"uniqueid": "MTK0784:3FE2ERCCZYFS72HFS4G51XHV808OPX", "current_trial": 239, "dateTime": 1512752633949, "trialdata": {"rt": -1000, "stimulus": "/static/audio/wordpool/TRUCK.wav", "key_press": -1, "type": "PRES_AUD", "word": "truck", "wordID": 1511, "conditions": [24, 1600, "a", 12000], "trial": 6, "serialpos": 14, "trial_type": "single-audio", "trial_index": 239, "time_elapsed": 1258957, "internal_node_id": "0.0-176.0"}}, {"uniqueid": "MTK0784:3FE2ERCCZYFS72HFS4G51XHV808OPX", "current_trial": 240, "dateTime": 1512752636695, "trialdata": {"rt": -1000, "stimulus": "/static/audio/wordpool/CURTAIN.wav", "key_press": -1, "type": "PRES_AUD", "word": "curtain", "wordID": 426, "conditions": [24, 1600, "a", 12000], "trial": 6, "serialpos": 15, "trial_type": "single-audio", "trial_index": 240, "time_elapsed": 1261703, "internal_node_id": "0.0-177.0"}}, {"uniqueid": "MTK0784:3FE2ERCCZYFS72HFS4G51XHV808OPX", "current_trial": 241, "dateTime": 1512752639384, "trialdata": {"rt": -1000, "stimulus": "/static/audio/wordpool/FOOT.wav", "key_press": -1, "type": "PRES_AUD", "word": "foot", "wordID": 589, "conditions": [24, 1600, "a", 12000], "trial": 6, "serialpos": 16, "trial_type": "single-audio", "trial_index": 241, "time_elapsed": 1264392, "internal_node_id": "0.0-178.0"}}, {"uniqueid": "MTK0784:3FE2ERCCZYFS72HFS4G51XHV808OPX", "current_trial": 242, "dateTime": 1512752642127, "trialdata": {"rt": -1000, "stimulus": "/static/audio/wordpool/BEAVER.wav", "key_press": -1, "type": "PRES_AUD", "word": "beaver", "wordID": 108, "conditions": [24, 1600, "a", 12000], "trial": 6, "serialpos": 17, "trial_type": "single-audio", "trial_index": 242, "time_elapsed": 1267135, "internal_node_id": "0.0-179.0"}}, {"uniqueid": "MTK0784:3FE2ERCCZYFS72HFS4G51XHV808OPX", "current_trial": 243, "dateTime": 1512752644549, "trialdata": {"rt": -1000, "stimulus": "/static/audio/wordpool/RABBIT.wav", "key_press": -1, "type": "PRES_AUD", "word": "rabbit", "wordID": 1151, "conditions": [24, 1600, "a", 12000], "trial": 6, "serialpos": 18, "trial_type": "single-audio", "trial_index": 243, "time_elapsed": 1269557, "internal_node_id": "0.0-180.0"}}, {"uniqueid": "MTK0784:3FE2ERCCZYFS72HFS4G51XHV808OPX", "current_trial": 244, "dateTime": 1512752647123, "trialdata": {"rt": -1000, "stimulus": "/static/audio/wordpool/TRACTOR.wav", "key_press": -1, "type": "PRES_AUD", "word": "tractor", "wordID": 1492, "conditions": [24, 1600, "a", 12000], "trial": 6, "serialpos": 19, "trial_type": "single-audio", "trial_index": 244, "time_elapsed": 1272131, "internal_node_id": "0.0-181.0"}}, {"uniqueid": "MTK0784:3FE2ERCCZYFS72HFS4G51XHV808OPX", "current_trial": 245, "dateTime": 1512752649808, "trialdata": {"rt": -1000, "stimulus": "/static/audio/wordpool/WAITRESS.wav", "key_press": -1, "type": "PRES_AUD", "word": "waitress", "wordID": 1580, "conditions": [24, 1600, "a", 12000], "trial": 6, "serialpos": 20, "trial_type": "single-audio", "trial_index": 245, "time_elapsed": 1274816, "internal_node_id": "0.0-182.0"}}, {"uniqueid": "MTK0784:3FE2ERCCZYFS72HFS4G51XHV808OPX", "current_trial": 246, "dateTime": 1512752652484, "trialdata": {"rt": -1000, "stimulus": "/static/audio/wordpool/PORK.wav", "key_press": -1, "type": "PRES_AUD", "word": "pork", "wordID": 1107, "conditions": [24, 1600, "a", 12000], "trial": 6, "serialpos": 21, "trial_type": "single-audio", "trial_index": 246, "time_elapsed": 1277492, "internal_node_id": "0.0-183.0"}}, {"uniqueid": "MTK0784:3FE2ERCCZYFS72HFS4G51XHV808OPX", "current_trial": 247, "dateTime": 1512752654959, "trialdata": {"rt": -1000, "stimulus": "/static/audio/wordpool/CRATER.wav", "key_press": -1, "type": "PRES_AUD", "word": "crater", "wordID": 399, "conditions": [24, 1600, "a", 12000], "trial": 6, "serialpos": 22, "trial_type": "single-audio", "trial_index": 247, "time_elapsed": 1279967, "internal_node_id": "0.0-184.0"}}, {"uniqueid": "MTK0784:3FE2ERCCZYFS72HFS4G51XHV808OPX", "current_trial": 248, "dateTime": 1512752657494, "trialdata": {"rt": -1000, "stimulus": "/static/audio/wordpool/BLENDER.wav", "key_press": -1, "type": "PRES_AUD", "word": "blender", "wordID": 135, "conditions": [24, 1600, "a", 12000], "trial": 6, "serialpos": 23, "trial_type": "single-audio", "trial_index": 248, "time_elapsed": 1282502, "internal_node_id": "0.0-185.0"}}, {"uniqueid": "MTK0784:3FE2ERCCZYFS72HFS4G51XHV808OPX", "current_trial": 249, "dateTime": 1512752658740, "trialdata": {"rt": -1, "stimulus": "", "key_press": -1, "type": "PRE_RECALL_DELAY", "trial_type": "single-stim", "trial_index": 249, "time_elapsed": 1283748, "internal_node_id": "0.0-186.0-0.0"}}, {"uniqueid": "MTK0784:3FE2ERCCZYFS72HFS4G51XHV808OPX", "current_trial": 250, "dateTime": 1512752659240, "trialdata": {"rt": -1000, "stimulus": "/static/audio/400Hz.wav", "key_press": -1, "type": "PRE_RECALL_ALERT", "trial_type": "single-audio", "trial_index": 250, "time_elapsed": 1284248, "internal_node_id": "0.0-187.0"}}, {"uniqueid": "MTK0784:3FE2ERCCZYFS72HFS4G51XHV808OPX", "current_trial": 251, "dateTime": 1512752719249, "trialdata": {"rt": [2561, 4228, 5059, 7721, 9507, 16002, 19665, 21639, 24935, 29034], "recwords": ["blender", "pork", "truc", "truck", "curtain", "scalpal", "kidney", "child", "liver", "crater"], "type": "FREE_RECALL", "conditions": [24, 1600, "a", 12000], "trial": 6, "trial_type": "free-recall", "trial_index": 251, "time_elapsed": 1344250, "internal_node_id": "0.0-188.0-0.0"}}, {"uniqueid": "MTK0784:3FE2ERCCZYFS72HFS4G51XHV808OPX", "current_trial": 252, "dateTime": 1512752722719, "trialdata": {"rt": 1468, "key_press": 13, "type": "INSTRUCTIONS", "trial_type": "text", "trial_index": 252, "time_elapsed": 1347727, "internal_node_id": "0.0-189.0"}}, {"uniqueid": "MTK0784:3FE2ERCCZYFS72HFS4G51XHV808OPX", "current_trial": 253, "dateTime": 1512752748722, "trialdata": {"rt": [4065, 8095, 11492, 14157, 17637, 21007, 23786], "responses": ["19", "14", "10", "9", "14", "14", "10"], "num1": [4, 9, 3, 5, 9, 5, 2, 2], "num2": [8, 2, 5, 1, 2, 8, 3, 1], "num3": [7, 3, 2, 3, 3, 1, 5, 5], "type": "DISTRACTOR", "conditions": [12, 1600, "v", 24000], "trial": 7, "trial_type": "math-distractor", "trial_index": 253, "time_elapsed": 1373729, "internal_node_id": "0.0-190.0"}}, {"uniqueid": "MTK0784:3FE2ERCCZYFS72HFS4G51XHV808OPX", "current_trial": 254, "dateTime": 1512752751724, "trialdata": {"rt": -1, "stimulus": "<p id=\"stim\">10</p>", "key_press": -1, "trial_type": "single-stim", "trial_index": 254, "time_elapsed": 1376732, "internal_node_id": "0.0-191.0-0.0"}}, {"uniqueid": "MTK0784:3FE2ERCCZYFS72HFS4G51XHV808OPX", "current_trial": 255, "dateTime": 1512752752725, "trialdata": {"rt": -1, "stimulus": "<p id=\"stim\">9</p>", "key_press": -1, "trial_type": "single-stim", "trial_index": 255, "time_elapsed": 1377733, "internal_node_id": "0.0-191.0-1.0"}}, {"uniqueid": "MTK0784:3FE2ERCCZYFS72HFS4G51XHV808OPX", "current_trial": 256, "dateTime": 1512752753726, "trialdata": {"rt": -1, "stimulus": "<p id=\"stim\">8</p>", "key_press": -1, "trial_type": "single-stim", "trial_index": 256, "time_elapsed": 1378734, "internal_node_id": "0.0-191.0-2.0"}}, {"uniqueid": "MTK0784:3FE2ERCCZYFS72HFS4G51XHV808OPX", "current_trial": 257, "dateTime": 1512752754727, "trialdata": {"rt": -1, "stimulus": "<p id=\"stim\">7</p>", "key_press": -1, "trial_type": "single-stim", "trial_index": 257, "time_elapsed": 1379735, "internal_node_id": "0.0-191.0-3.0"}}, {"uniqueid": "MTK0784:3FE2ERCCZYFS72HFS4G51XHV808OPX", "current_trial": 258, "dateTime": 1512752755728, "trialdata": {"rt": -1, "stimulus": "<p id=\"stim\">6</p>", "key_press": -1, "trial_type": "single-stim", "trial_index": 258, "time_elapsed": 1380736, "internal_node_id": "0.0-191.0-4.0"}}, {"uniqueid": "MTK0784:3FE2ERCCZYFS72HFS4G51XHV808OPX", "current_trial": 259, "dateTime": 1512752756730, "trialdata": {"rt": -1, "stimulus": "<p id=\"stim\">5</p>", "key_press": -1, "trial_type": "single-stim", "trial_index": 259, "time_elapsed": 1381738, "internal_node_id": "0.0-191.0-5.0"}}, {"uniqueid": "MTK0784:3FE2ERCCZYFS72HFS4G51XHV808OPX", "current_trial": 260, "dateTime": 1512752757730, "trialdata": {"rt": -1, "stimulus": "<p id=\"stim\">4</p>", "key_press": -1, "trial_type": "single-stim", "trial_index": 260, "time_elapsed": 1382738, "internal_node_id": "0.0-191.0-6.0"}}, {"uniqueid": "MTK0784:3FE2ERCCZYFS72HFS4G51XHV808OPX", "current_trial": 261, "dateTime": 1512752758731, "trialdata": {"rt": -1, "stimulus": "<p id=\"stim\">3</p>", "key_press": -1, "trial_type": "single-stim", "trial_index": 261, "time_elapsed": 1383739, "internal_node_id": "0.0-191.0-7.0"}}, {"uniqueid": "MTK0784:3FE2ERCCZYFS72HFS4G51XHV808OPX", "current_trial": 262, "dateTime": 1512752759732, "trialdata": {"rt": -1, "stimulus": "<p id=\"stim\">2</p>", "key_press": -1, "trial_type": "single-stim", "trial_index": 262, "time_elapsed": 1384740, "internal_node_id": "0.0-191.0-8.0"}}, {"uniqueid": "MTK0784:3FE2ERCCZYFS72HFS4G51XHV808OPX", "current_trial": 263, "dateTime": 1512752760765, "trialdata": {"rt": -1, "stimulus": "<p id=\"stim\">1</p>", "key_press": -1, "trial_type": "single-stim", "trial_index": 263, "time_elapsed": 1385772, "internal_node_id": "0.0-191.0-9.0"}}, {"uniqueid": "MTK0784:3FE2ERCCZYFS72HFS4G51XHV808OPX", "current_trial": 264, "dateTime": 1512752762265, "trialdata": {"rt": -1, "stimulus": "<p id=\"stim\">+</p>", "key_press": -1, "type": "FIXATION", "trial_type": "single-stim", "trial_index": 264, "time_elapsed": 1387273, "internal_node_id": "0.0-192.0-0.0"}}, {"uniqueid": "MTK0784:3FE2ERCCZYFS72HFS4G51XHV808OPX", "current_trial": 265, "dateTime": 1512752763867, "trialdata": {"rt": -1, "stimulus": "<p id=\"stim\">SUSPECT</p>", "key_press": -1, "type": "PRES_VIS", "word": "suspect", "wordID": 1414, "conditions": [12, 1600, "v", 24000], "trial": 7, "serialpos": 0, "trial_type": "single-stim", "trial_index": 265, "time_elapsed": 1388874, "internal_node_id": "0.0-193.0"}}, {"uniqueid": "MTK0784:3FE2ERCCZYFS72HFS4G51XHV808OPX", "current_trial": 266, "dateTime": 1512752766329, "trialdata": {"rt": -1, "stimulus": "<p id=\"stim\">MILK</p>", "key_press": -1, "type": "PRES_VIS", "word": "milk", "wordID": 894, "conditions": [12, 1600, "v", 24000], "trial": 7, "serialpos": 1, "trial_type": "single-stim", "trial_index": 266, "time_elapsed": 1391336, "internal_node_id": "0.0-194.0"}}, {"uniqueid": "MTK0784:3FE2ERCCZYFS72HFS4G51XHV808OPX", "current_trial": 267, "dateTime": 1512752769046, "trialdata": {"rt": -1, "stimulus": "<p id=\"stim\">LACE</p>", "key_press": -1, "type": "PRES_VIS", "word": "lace", "wordID": 791, "conditions": [12, 1600, "v", 24000], "trial": 7, "serialpos": 2, "trial_type": "single-stim", "trial_index": 267, "time_elapsed": 1394054, "internal_node_id": "0.0-195.0"}}, {"uniqueid": "MTK0784:3FE2ERCCZYFS72HFS4G51XHV808OPX", "current_trial": 268, "dateTime": 1512752771548, "trialdata": {"rt": -1, "stimulus": "<p id=\"stim\">BRICK</p>", "key_press": -1, "type": "PRES_VIS", "word": "brick", "wordID": 171, "conditions": [12, 1600, "v", 24000], "trial": 7, "serialpos": 3, "trial_type": "single-stim", "trial_index": 268, "time_elapsed": 1396556, "internal_node_id": "0.0-196.0"}}, {"uniqueid": "MTK0784:3FE2ERCCZYFS72HFS4G51XHV808OPX", "current_trial": 269, "dateTime": 1512752773992, "trialdata": {"rt": -1, "stimulus": "<p id=\"stim\">DOUGHNUT</p>", "key_press": -1, "type": "PRES_VIS", "word": "doughnut", "wordID": 489, "conditions": [12, 1600, "v", 24000], "trial": 7, "serialpos": 4, "trial_type": "single-stim", "trial_index": 269, "time_elapsed": 1399000, "internal_node_id": "0.0-197.0"}}, {"uniqueid": "MTK0784:3FE2ERCCZYFS72HFS4G51XHV808OPX", "current_trial": 270, "dateTime": 1512752776668, "trialdata": {"rt": -1, "stimulus": "<p id=\"stim\">KITCHEN</p>", "key_press": -1, "type": "PRES_VIS", "word": "kitchen", "wordID": 777, "conditions": [12, 1600, "v", 24000], "trial": 7, "serialpos": 5, "trial_type": "single-stim", "trial_index": 270, "time_elapsed": 1401675, "internal_node_id": "0.0-198.0"}}, {"uniqueid": "MTK0784:3FE2ERCCZYFS72HFS4G51XHV808OPX", "current_trial": 271, "dateTime": 1512752779414, "trialdata": {"rt": -1, "stimulus": "<p id=\"stim\">BLOUSE</p>", "key_press": -1, "type": "PRES_VIS", "word": "blouse", "wordID": 138, "conditions": [12, 1600, "v", 24000], "trial": 7, "serialpos": 6, "trial_type": "single-stim", "trial_index": 271, "time_elapsed": 1404422, "internal_node_id": "0.0-199.0"}}, {"uniqueid": "MTK0784:3FE2ERCCZYFS72HFS4G51XHV808OPX", "current_trial": 272, "dateTime": 1512752782190, "trialdata": {"rt": -1, "stimulus": "<p id=\"stim