{"condition": 0, "counterbalance": 2532, "assignmentId": "34X6J5FLPU5Z63RXC43PT6QJE1CQJX", "workerId": "MTK0758", "hitId": "3UEDKCTP9VXIOLU68OPT5ADH8U2K77", "currenttrial": 626, "bonus": 0, "data": [{"uniqueid": "MTK0758:34X6J5FLPU5Z63RXC43PT6QJE1CQJX", "current_trial": 0, "dateTime": 1512698887133, "trialdata": {"rt": 6012, "key_press": 68, "type": "INSTRUCTIONS", "trial_type": "text", "trial_index": 0, "time_elapsed": 6015, "internal_node_id": "0.0-0.0"}}, {"uniqueid": "MTK0758:34X6J5FLPU5Z63RXC43PT6QJE1CQJX", "current_trial": 1, "dateTime": 1512698910041, "trialdata": {"rt": 22906, "key_press": 70, "type": "INSTRUCTIONS", "trial_type": "text", "trial_index": 1, "time_elapsed": 28924, "internal_node_id": "0.0-1.0"}}, {"uniqueid": "MTK0758:34X6J5FLPU5Z63RXC43PT6QJE1CQJX", "current_trial": 2, "dateTime": 1512698919231, "trialdata": {"rt": [9112], "responses": ["ocean"], "type": "AUDIO_TEST", "trial_type": "audio-test", "trial_index": 2, "time_elapsed": 38114, "internal_node_id": "0.0-2.0"}}, {"uniqueid": "MTK0758:34X6J5FLPU5Z63RXC43PT6QJE1CQJX", "current_trial": 3, "dateTime": 1512698932267, "trialdata": {"rt": [13029], "responses": ["crystal"], "type": "AUDIO_TEST", "trial_type": "audio-test", "trial_index": 3, "time_elapsed": 51151, "internal_node_id": "0.0-3.0"}}, {"uniqueid": "MTK0758:34X6J5FLPU5Z63RXC43PT6QJE1CQJX", "current_trial": 4, "dateTime": 1512698941849, "trialdata": {"rt": [9576], "responses": ["spice"], "type": "AUDIO_TEST", "trial_type": "audio-test", "trial_index": 4, "time_elapsed": 60732, "internal_node_id": "0.0-4.0"}}, {"uniqueid": "MTK0758:34X6J5FLPU5Z63RXC43PT6QJE1CQJX", "current_trial": 5, "dateTime": 1512698960476, "trialdata": {"rt": 17872, "responses": "{\"Q0\":\"1\",\"Q1\":\"6\",\"Q2\":\"4\"}", "type": "SLEEP_SURVEY", "trial_type": "survey-text", "trial_index": 5, "time_elapsed": 79360, "internal_node_id": "0.0-5.0"}}, {"uniqueid": "MTK0758:34X6J5FLPU5Z63RXC43PT6QJE1CQJX", "current_trial": 6, "dateTime": 1512699013055, "trialdata": {"rt": 51576, "key_press": 75, "type": "INSTRUCTIONS", "trial_type": "text", "trial_index": 6, "time_elapsed": 131939, "internal_node_id": "0.0-6.0"}}, {"uniqueid": "MTK0758:34X6J5FLPU5Z63RXC43PT6QJE1CQJX", "current_trial": 7, "dateTime": 1512699027838, "trialdata": {"rt": 14281, "key_press": 75, "type": "INSTRUCTIONS", "trial_type": "text", "trial_index": 7, "time_elapsed": 146722, "internal_node_id": "0.0-7.0"}}, {"uniqueid": "MTK0758:34X6J5FLPU5Z63RXC43PT6QJE1CQJX", "current_trial": 8, "dateTime": 1512699038838, "trialdata": {"rt": 10498, "key_press": 75, "type": "INSTRUCTIONS", "trial_type": "text", "trial_index": 8, "time_elapsed": 157722, "internal_node_id": "0.0-8.0"}}, {"uniqueid": "MTK0758:34X6J5FLPU5Z63RXC43PT6QJE1CQJX", "current_trial": 9, "dateTime": 1512699057846, "trialdata": {"rt": [5337, 9041, 14521], "responses": ["13", "13", "13"], "num1": [6, 7, 6, 8], "num2": [1, 1, 1, 6], "num3": [6, 5, 6, 9], "type": "DISTRACTOR", "conditions": [18, 1200, "a", 18000], "trial": 0, "trial_type": "math-distractor", "trial_index": 9, "time_elapsed": 176730, "internal_node_id": "0.0-9.0"}}, {"uniqueid": "MTK0758:34X6J5FLPU5Z63RXC43PT6QJE1CQJX", "current_trial": 10, "dateTime": 1512699060850, "trialdata": {"rt": -1, "stimulus": "<p id=\"stim\">10</p>", "key_press": -1, "trial_type": "single-stim", "trial_index": 10, "time_elapsed": 179734, "internal_node_id": "0.0-10.0-0.0"}}, {"uniqueid": "MTK0758:34X6J5FLPU5Z63RXC43PT6QJE1CQJX", "current_trial": 11, "dateTime": 1512699061852, "trialdata": {"rt": -1, "stimulus": "<p id=\"stim\">9</p>", "key_press": -1, "trial_type": "single-stim", "trial_index": 11, "time_elapsed": 180736, "internal_node_id": "0.0-10.0-1.0"}}, {"uniqueid": "MTK0758:34X6J5FLPU5Z63RXC43PT6QJE1CQJX", "current_trial": 12, "dateTime": 1512699062854, "trialdata": {"rt": -1, "stimulus": "<p id=\"stim\">8</p>", "key_press": -1, "trial_type": "single-stim", "trial_index": 12, "time_elapsed": 181738, "internal_node_id": "0.0-10.0-2.0"}}, {"uniqueid": "MTK0758:34X6J5FLPU5Z63RXC43PT6QJE1CQJX", "current_trial": 13, "dateTime": 1512699063856, "trialdata": {"rt": -1, "stimulus": "<p id=\"stim\">7</p>", "key_press": -1, "trial_type": "single-stim", "trial_index": 13, "time_elapsed": 182739, "internal_node_id": "0.0-10.0-3.0"}}, {"uniqueid": "MTK0758:34X6J5FLPU5Z63RXC43PT6QJE1CQJX", "current_trial": 14, "dateTime": 1512699064857, "trialdata": {"rt": -1, "stimulus": "<p id=\"stim\">6</p>", "key_press": -1, "trial_type": "single-stim", "trial_index": 14, "time_elapsed": 183741, "internal_node_id": "0.0-10.0-4.0"}}, {"uniqueid": "MTK0758:34X6J5FLPU5Z63RXC43PT6QJE1CQJX", "current_trial": 15, "dateTime": 1512699065859, "trialdata": {"rt": -1, "stimulus": "<p id=\"stim\">5</p>", "key_press": -1, "trial_type": "single-stim", "trial_index": 15, "time_elapsed": 184742, "internal_node_id": "0.0-10.0-5.0"}}, {"uniqueid": "MTK0758:34X6J5FLPU5Z63RXC43PT6QJE1CQJX", "current_trial": 16, "dateTime": 1512699066860, "trialdata": {"rt": -1, "stimulus": "<p id=\"stim\">4</p>", "key_press": -1, "trial_type": "single-stim", "trial_index": 16, "time_elapsed": 185744, "internal_node_id": "0.0-10.0-6.0"}}, {"uniqueid": "MTK0758:34X6J5FLPU5Z63RXC43PT6QJE1CQJX", "current_trial": 17, "dateTime": 1512699067862, "trialdata": {"rt": -1, "stimulus": "<p id=\"stim\">3</p>", "key_press": -1, "trial_type": "single-stim", "trial_index": 17, "time_elapsed": 186746, "internal_node_id": "0.0-10.0-7.0"}}, {"uniqueid": "MTK0758:34X6J5FLPU5Z63RXC43PT6QJE1CQJX", "current_trial": 18, "dateTime": 1512699068863, "trialdata": {"rt": -1, "stimulus": "<p id=\"stim\">2</p>", "key_press": -1, "trial_type": "single-stim", "trial_index": 18, "time_elapsed": 187747, "internal_node_id": "0.0-10.0-8.0"}}, {"uniqueid": "MTK0758:34X6J5FLPU5Z63RXC43PT6QJE1CQJX", "current_trial": 19, "dateTime": 1512699069865, "trialdata": {"rt": -1, "stimulus": "<p id=\"stim\">1</p>", "key_press": -1, "trial_type": "single-stim", "trial_index": 19, "time_elapsed": 188749, "internal_node_id": "0.0-10.0-9.0"}}, {"uniqueid": "MTK0758:34X6J5FLPU5Z63RXC43PT6QJE1CQJX", "current_trial": 20, "dateTime": 1512699071368, "trialdata": {"rt": -1, "stimulus": "<p id=\"stim\">+</p>", "key_press": -1, "type": "FIXATION", "trial_type": "single-stim", "trial_index": 20, "time_elapsed": 190251, "internal_node_id": "0.0-11.0-0.0"}}, {"uniqueid": "MTK0758:34X6J5FLPU5Z63RXC43PT6QJE1CQJX", "current_trial": 21, "dateTime": 1512699073666, "trialdata": {"rt": -1000, "stimulus": "/static/audio/wordpool/DOUGHNUT.wav", "key_press": -1, "type": "PRES_AUD", "word": "doughnut", "wordID": 489, "conditions": [18, 1200, "a", 18000], "trial": 0, "serialpos": 0, "trial_type": "single-audio", "trial_index": 21, "time_elapsed": 192549, "internal_node_id": "0.0-12.0"}}, {"uniqueid": "MTK0758:34X6J5FLPU5Z63RXC43PT6QJE1CQJX", "current_trial": 22, "dateTime": 1512699075753, "trialdata": {"rt": -1000, "stimulus": "/static/audio/wordpool/PERFUME.wav", "key_press": -1, "type": "PRES_AUD", "word": "perfume", "wordID": 1048, "conditions": [18, 1200, "a", 18000], "trial": 0, "serialpos": 1, "trial_type": "single-audio", "trial_index": 22, "time_elapsed": 194637, "internal_node_id": "0.0-13.0"}}, {"uniqueid": "MTK0758:34X6J5FLPU5Z63RXC43PT6QJE1CQJX", "current_trial": 23, "dateTime": 1512699078033, "trialdata": {"rt": -1000, "stimulus": "/static/audio/wordpool/DRIVER.wav", "key_press": -1, "type": "PRES_AUD", "word": "driver", "wordID": 498, "conditions": [18, 1200, "a", 18000], "trial": 0, "serialpos": 2, "trial_type": "single-audio", "trial_index": 23, "time_elapsed": 196916, "internal_node_id": "0.0-14.0"}}, {"uniqueid": "MTK0758:34X6J5FLPU5Z63RXC43PT6QJE1CQJX", "current_trial": 24, "dateTime": 1512699080384, "trialdata": {"rt": -1000, "stimulus": "/static/audio/wordpool/LIGHTNING.wav", "key_press": -1, "type": "PRES_AUD", "word": "lightning", "wordID": 819, "conditions": [18, 1200, "a", 18000], "trial": 0, "serialpos": 3, "trial_type": "single-audio", "trial_index": 24, "time_elapsed": 199268, "internal_node_id": "0.0-15.0"}}, {"uniqueid": "MTK0758:34X6J5FLPU5Z63RXC43PT6QJE1CQJX", "current_trial": 25, "dateTime": 1512699082666, "trialdata": {"rt": -1000, "stimulus": "/static/audio/wordpool/SALAD.wav", "key_press": -1, "type": "PRES_AUD", "word": "salad", "wordID": 1223, "conditions": [18, 1200, "a", 18000], "trial": 0, "serialpos": 4, "trial_type": "single-audio", "trial_index": 25, "time_elapsed": 201549, "internal_node_id": "0.0-16.0"}}, {"uniqueid": "MTK0758:34X6J5FLPU5Z63RXC43PT6QJE1CQJX", "current_trial": 26, "dateTime": 1512699084755, "trialdata": {"rt": -1000, "stimulus": "/static/audio/wordpool/HOUND.wav", "key_press": -1, "type": "PRES_AUD", "word": "hound", "wordID": 723, "conditions": [18, 1200, "a", 18000], "trial": 0, "serialpos": 5, "trial_type": "single-audio", "trial_index": 26, "time_elapsed": 203639, "internal_node_id": "0.0-17.0"}}, {"uniqueid": "MTK0758:34X6J5FLPU5Z63RXC43PT6QJE1CQJX", "current_trial": 27, "dateTime": 1512699086902, "trialdata": {"rt": -1000, "stimulus": "/static/audio/wordpool/CLOUD.wav", "key_press": -1, "type": "PRES_AUD", "word": "cloud", "wordID": 327, "conditions": [18, 1200, "a", 18000], "trial": 0, "serialpos": 6, "trial_type": "single-audio", "trial_index": 27, "time_elapsed": 205785, "internal_node_id": "0.0-18.0"}}, {"uniqueid": "MTK0758:34X6J5FLPU5Z63RXC43PT6QJE1CQJX", "current_trial": 28, "dateTime": 1512699089237, "trialdata": {"rt": -1000, "stimulus": "/static/audio/wordpool/LILY.wav", "key_press": -1, "type": "PRES_AUD", "word": "lily", "wordID": 820, "conditions": [18, 1200, "a", 18000], "trial": 0, "serialpos": 7, "trial_type": "single-audio", "trial_index": 28, "time_elapsed": 208121, "internal_node_id": "0.0-19.0"}}, {"uniqueid": "MTK0758:34X6J5FLPU5Z63RXC43PT6QJE1CQJX", "current_trial": 29, "dateTime": 1512699091566, "trialdata": {"rt": -1000, "stimulus": "/static/audio/wordpool/COOKBOOK.wav", "key_press": -1, "type": "PRES_AUD", "word": "cookbook", "wordID": 372, "conditions": [18, 1200, "a", 18000], "trial": 0, "serialpos": 8, "trial_type": "single-audio", "trial_index": 29, "time_elapsed": 210450, "internal_node_id": "0.0-20.0"}}, {"uniqueid": "MTK0758:34X6J5FLPU5Z63RXC43PT6QJE1CQJX", "current_trial": 30, "dateTime": 1512699093844, "trialdata": {"rt": -1000, "stimulus": "/static/audio/wordpool/CAFE.wav", "key_press": -1, "type": "PRES_AUD", "word": "cafe", "wordID": 215, "conditions": [18, 1200, "a", 18000], "trial": 0, "serialpos": 9, "trial_type": "single-audio", "trial_index": 30, "time_elapsed": 212727, "internal_node_id": "0.0-21.0"}}, {"uniqueid": "MTK0758:34X6J5FLPU5Z63RXC43PT6QJE1CQJX", "current_trial": 31, "dateTime": 1512699095971, "trialdata": {"rt": -1000, "stimulus": "/static/audio/wordpool/POISON.wav", "key_press": -1, "type": "PRES_AUD", "word": "poison", "wordID": 1095, "conditions": [18, 1200, "a", 18000], "trial": 0, "serialpos": 10, "trial_type": "single-audio", "trial_index": 31, "time_elapsed": 214855, "internal_node_id": "0.0-22.0"}}, {"uniqueid": "MTK0758:34X6J5FLPU5Z63RXC43PT6QJE1CQJX", "current_trial": 32, "dateTime": 1512699098218, "trialdata": {"rt": -1000, "stimulus": "/static/audio/wordpool/DENIM.wav", "key_press": -1, "type": "PRES_AUD", "word": "denim", "wordID": 445, "conditions": [18, 1200, "a", 18000], "trial": 0, "serialpos": 11, "trial_type": "single-audio", "trial_index": 32, "time_elapsed": 217102, "internal_node_id": "0.0-23.0"}}, {"uniqueid": "MTK0758:34X6J5FLPU5Z63RXC43PT6QJE1CQJX", "current_trial": 33, "dateTime": 1512699100339, "trialdata": {"rt": -1000, "stimulus": "/static/audio/wordpool/SHORTCAKE.wav", "key_press": -1, "type": "PRES_AUD", "word": "shortcake", "wordID": 1291, "conditions": [18, 1200, "a", 18000], "trial": 0, "serialpos": 12, "trial_type": "single-audio", "trial_index": 33, "time_elapsed": 219223, "internal_node_id": "0.0-24.0"}}, {"uniqueid": "MTK0758:34X6J5FLPU5Z63RXC43PT6QJE1CQJX", "current_trial": 34, "dateTime": 1512699102370, "trialdata": {"rt": -1000, "stimulus": "/static/audio/wordpool/TWISTER.wav", "key_press": -1, "type": "PRES_AUD", "word": "twister", "wordID": 1529, "conditions": [18, 1200, "a", 18000], "trial": 0, "serialpos": 13, "trial_type": "single-audio", "trial_index": 34, "time_elapsed": 221254, "internal_node_id": "0.0-25.0"}}, {"uniqueid": "MTK0758:34X6J5FLPU5Z63RXC43PT6QJE1CQJX", "current_trial": 35, "dateTime": 1512699104494, "trialdata": {"rt": -1000, "stimulus": "/static/audio/wordpool/COD.wav", "key_press": -1, "type": "PRES_AUD", "word": "cod", "wordID": 339, "conditions": [18, 1200, "a", 18000], "trial": 0, "serialpos": 14, "trial_type": "single-audio", "trial_index": 35, "time_elapsed": 223378, "internal_node_id": "0.0-26.0"}}, {"uniqueid": "MTK0758:34X6J5FLPU5Z63RXC43PT6QJE1CQJX", "current_trial": 36, "dateTime": 1512699106721, "trialdata": {"rt": -1000, "stimulus": "/static/audio/wordpool/PLUTO.wav", "key_press": -1, "type": "PRES_AUD", "word": "pluto", "wordID": 1091, "conditions": [18, 1200, "a", 18000], "trial": 0, "serialpos": 15, "trial_type": "single-audio", "trial_index": 36, "time_elapsed": 225605, "internal_node_id": "0.0-27.0"}}, {"uniqueid": "MTK0758:34X6J5FLPU5Z63RXC43PT6QJE1CQJX", "current_trial": 37, "dateTime": 1512699108950, "trialdata": {"rt": -1000, "stimulus": "/static/audio/wordpool/CRAB.wav", "key_press": -1, "type": "PRES_AUD", "word": "crab", "wordID": 396, "conditions": [18, 1200, "a", 18000], "trial": 0, "serialpos": 16, "trial_type": "single-audio", "trial_index": 37, "time_elapsed": 227834, "internal_node_id": "0.0-28.0"}}, {"uniqueid": "MTK0758:34X6J5FLPU5Z63RXC43PT6QJE1CQJX", "current_trial": 38, "dateTime": 1512699111173, "trialdata": {"rt": -1000, "stimulus": "/static/audio/wordpool/MARKET.wav", "key_press": -1, "type": "PRES_AUD", "word": "market", "wordID": 870, "conditions": [18, 1200, "a", 18000], "trial": 0, "serialpos": 17, "trial_type": "single-audio", "trial_index": 38, "time_elapsed": 230057, "internal_node_id": "0.0-29.0"}}, {"uniqueid": "MTK0758:34X6J5FLPU5Z63RXC43PT6QJE1CQJX", "current_trial": 39, "dateTime": 1512699112403, "trialdata": {"rt": -1, "stimulus": "", "key_press": -1, "type": "PRE_RECALL_DELAY", "trial_type": "single-stim", "trial_index": 39, "time_elapsed": 231286, "internal_node_id": "0.0-30.0-0.0"}}, {"uniqueid": "MTK0758:34X6J5FLPU5Z63RXC43PT6QJE1CQJX", "current_trial": 40, "dateTime": 1512699112904, "trialdata": {"rt": -1000, "stimulus": "/static/audio/400Hz.wav", "key_press": -1, "type": "PRE_RECALL_ALERT", "trial_type": "single-audio", "trial_index": 40, "time_elapsed": 231788, "internal_node_id": "0.0-31.0"}}, {"uniqueid": "MTK0758:34X6J5FLPU5Z63RXC43PT6QJE1CQJX", "current_trial": 41, "dateTime": 1512699172917, "trialdata": {"rt": [5246, 7151, 9359, 11511, 13207, 15839, 18959, 22022, 24839, 26847, 31757, 35878, 40686, 59997], "recwords": ["crab", "market", "pluto", "poison", "lily", "cloud", "shortcake", "cookbook", "denim", "salad", "donut", "lightening", "", ""], "type": "FREE_RECALL", "conditions": [18, 1200, "a", 18000], "trial": 0, "trial_type": "free-recall", "trial_index": 41, "time_elapsed": 291792, "internal_node_id": "0.0-32.0-0.0"}}, {"uniqueid": "MTK0758:34X6J5FLPU5Z63RXC43PT6QJE1CQJX", "current_trial": 42, "dateTime": 1512699176665, "trialdata": {"rt": 1746, "key_press": 74, "type": "INSTRUCTIONS", "trial_type": "text", "trial_index": 42, "time_elapsed": 295549, "internal_node_id": "0.0-33.0"}}, {"uniqueid": "MTK0758:34X6J5FLPU5Z63RXC43PT6QJE1CQJX", "current_trial": 43, "dateTime": 1512699196667, "trialdata": {"rt": [3591, 6367, 9271, 13967, 15895], "responses": ["15", "16", "13", "22", "12"], "num1": [8, 3, 7, 9, 4, 9], "num2": [2, 5, 5, 4, 6, 7], "num3": [5, 8, 1, 9, 2, 1], "type": "DISTRACTOR", "conditions": [18, 1200, "v", 18000], "trial": 1, "trial_type": "math-distractor", "trial_index": 43, "time_elapsed": 315551, "internal_node_id": "0.0-34.0"}}, {"uniqueid": "MTK0758:34X6J5FLPU5Z63RXC43PT6QJE1CQJX", "current_trial": 44, "dateTime": 1512699199669, "trialdata": {"rt": -1, "stimulus": "<p id=\"stim\">10</p>", "key_press": -1, "trial_type": "single-stim", "trial_index": 44, "time_elapsed": 318553, "internal_node_id": "0.0-35.0-0.0"}}, {"uniqueid": "MTK0758:34X6J5FLPU5Z63RXC43PT6QJE1CQJX", "current_trial": 45, "dateTime": 1512699200671, "trialdata": {"rt": -1, "stimulus": "<p id=\"stim\">9</p>", "key_press": -1, "trial_type": "single-stim", "trial_index": 45, "time_elapsed": 319555, "internal_node_id": "0.0-35.0-1.0"}}, {"uniqueid": "MTK0758:34X6J5FLPU5Z63RXC43PT6QJE1CQJX", "current_trial": 46, "dateTime": 1512699201672, "trialdata": {"rt": -1, "stimulus": "<p id=\"stim\">8</p>", "key_press": -1, "trial_type": "single-stim", "trial_index": 46, "time_elapsed": 320556, "internal_node_id": "0.0-35.0-2.0"}}, {"uniqueid": "MTK0758:34X6J5FLPU5Z63RXC43PT6QJE1CQJX", "current_trial": 47, "dateTime": 1512699202674, "trialdata": {"rt": -1, "stimulus": "<p id=\"stim\">7</p>", "key_press": -1, "trial_type": "single-stim", "trial_index": 47, "time_elapsed": 321558, "internal_node_id": "0.0-35.0-3.0"}}, {"uniqueid": "MTK0758:34X6J5FLPU5Z63RXC43PT6QJE1CQJX", "current_trial": 48, "dateTime": 1512699203676, "trialdata": {"rt": -1, "stimulus": "<p id=\"stim\">6</p>", "key_press": -1, "trial_type": "single-stim", "trial_index": 48, "time_elapsed": 322560, "internal_node_id": "0.0-35.0-4.0"}}, {"uniqueid": "MTK0758:34X6J5FLPU5Z63RXC43PT6QJE1CQJX", "current_trial": 49, "dateTime": 1512699204677, "trialdata": {"rt": -1, "stimulus": "<p id=\"stim\">5</p>", "key_press": -1, "trial_type": "single-stim", "trial_index": 49, "time_elapsed": 323561, "internal_node_id": "0.0-35.0-5.0"}}, {"uniqueid": "MTK0758:34X6J5FLPU5Z63RXC43PT6QJE1CQJX", "current_trial": 50, "dateTime": 1512699205679, "trialdata": {"rt": -1, "stimulus": "<p id=\"stim\">4</p>", "key_press": -1, "trial_type": "single-stim", "trial_index": 50, "time_elapsed": 324562, "internal_node_id": "0.0-35.0-6.0"}}, {"uniqueid": "MTK0758:34X6J5FLPU5Z63RXC43PT6QJE1CQJX", "current_trial": 51, "dateTime": 1512699206680, "trialdata": {"rt": -1, "stimulus": "<p id=\"stim\">3</p>", "key_press": -1, "trial_type": "single-stim", "trial_index": 51, "time_elapsed": 325564, "internal_node_id": "0.0-35.0-7.0"}}, {"uniqueid": "MTK0758:34X6J5FLPU5Z63RXC43PT6QJE1CQJX", "current_trial": 52, "dateTime": 1512699207682, "trialdata": {"rt": -1, "stimulus": "<p id=\"stim\">2</p>", "key_press": -1, "trial_type": "single-stim", "trial_index": 52, "time_elapsed": 326565, "internal_node_id": "0.0-35.0-8.0"}}, {"uniqueid": "MTK0758:34X6J5FLPU5Z63RXC43PT6QJE1CQJX", "current_trial": 53, "dateTime": 1512699208683, "trialdata": {"rt": -1, "stimulus": "<p id=\"stim\">1</p>", "key_press": -1, "trial_type": "single-stim", "trial_index": 53, "time_elapsed": 327567, "internal_node_id": "0.0-35.0-9.0"}}, {"uniqueid": "MTK0758:34X6J5FLPU5Z63RXC43PT6QJE1CQJX", "current_trial": 54, "dateTime": 1512699210187, "trialdata": {"rt": -1, "stimulus": "<p id=\"stim\">+</p>", "key_press": -1, "type": "FIXATION", "trial_type": "single-stim", "trial_index": 54, "time_elapsed": 329070, "internal_node_id": "0.0-36.0-0.0"}}, {"uniqueid": "MTK0758:34X6J5FLPU5Z63RXC43PT6QJE1CQJX", "current_trial": 55, "dateTime": 1512699211390, "trialdata": {"rt": -1, "stimulus": "<p id=\"stim\">BODY</p>", "key_press": -1, "type": "PRES_VIS", "word": "body", "wordID": 144, "conditions": [18, 1200, "v", 18000], "trial": 1, "serialpos": 0, "trial_type": "single-stim", "trial_index": 55, "time_elapsed": 330272, "internal_node_id": "0.0-37.0"}}, {"uniqueid": "MTK0758:34X6J5FLPU5Z63RXC43PT6QJE1CQJX", "current_trial": 56, "dateTime": 1512699213520, "trialdata": {"rt": -1, "stimulus": "<p id=\"stim\">FOOTBALL</p>", "key_press": -1, "type": "PRES_VIS", "word": "football", "wordID": 590, "conditions": [18, 1200, "v", 18000], "trial": 1, "serialpos": 1, "trial_type": "single-stim", "trial_index": 56, "time_elapsed": 332404, "internal_node_id": "0.0-38.0"}}, {"uniqueid": "MTK0758:34X6J5FLPU5Z63RXC43PT6QJE1CQJX", "current_trial": 57, "dateTime": 1512699215655, "trialdata": {"rt": -1, "stimulus": "<p id=\"stim\">LAVA</p>", "key_press": -1, "type": "PRES_VIS", "word": "lava", "wordID": 803, "conditions": [18, 1200, "v", 18000], "trial": 1, "serialpos": 2, "trial_type": "single-stim", "trial_index": 57, "time_elapsed": 334539, "internal_node_id": "0.0-39.0"}}, {"uniqueid": "MTK0758:34X6J5FLPU5Z63RXC43PT6QJE1CQJX", "current_trial": 58, "dateTime": 1512699217813, "trialdata": {"rt": -1, "stimulus": "<p id=\"stim\">BALLOON</p>", "key_press": -1, "type": "PRES_VIS", "word": "balloon", "wordID": 74, "conditions": [18, 1200, "v", 18000], "trial": 1, "serialpos": 3, "trial_type": "single-stim", "trial_index": 58, "time_elapsed": 336697, "internal_node_id": "0.0-40.0"}}, {"uniqueid": "MTK0758:34X6J5FLPU5Z63RXC43PT6QJE1CQJX", "current_trial": 59, "dateTime": 1512699219878, "trialdata": {"rt": -1, "stimulus": "<p id=\"stim\">ACTOR</p>", "key_press": -1, "type": "PRES_VIS", "word": "actor", "wordID": 4, "conditions": [18, 1200, "v", 18000], "trial": 1, "serialpos": 4, "trial_type": "single-stim", "trial_index": 59, "time_elapsed": 338762, "internal_node_id": "0.0-41.0"}}, {"uniqueid": "MTK0758:34X6J5FLPU5Z63RXC43PT6QJE1CQJX", "current_trial": 60, "dateTime": 1512699222277, "trialdata": {"rt": -1, "stimulus": "<p id=\"stim\">CATCHER</p>", "key_press": -1, "type": "PRES_VIS", "word": "catcher", "wordID": 257, "conditions": [18, 1200, "v", 18000], "trial": 1, "serialpos": 5, "trial_type": "single-stim", "trial_index": 60, "time_elapsed": 341161, "internal_node_id": "0.0-42.0"}}, {"uniqueid": "MTK0758:34X6J5FLPU5Z63RXC43PT6QJE1CQJX", "current_trial": 61, "dateTime": 1512699224511, "trialdata": {"rt": -1, "stimulus": "<p id=\"stim\">BLADE</p>", "key_press": -1, "type": "PRES_VIS", "word": "blade", "wordID": 133, "conditions": [18, 1200, "v", 18000], "trial": 1, "serialpos": 6, "trial_type": "single-stim", "trial_index": 61, "time_elapsed": 343394, "internal_node_id": "0.0-43.0"}}, {"uniqueid": "MTK0758:34X6J5FLPU5Z63RXC43PT6QJE1CQJX", "current_trial": 62, "dateTime": 1512699226523, "trialdata": {"rt": -1, "stimulus": "<p id=\"stim\">PRIMATE</p>", "key_press": -1, "type": "PRES_VIS", "word": "primate", "wordID": 1122, "conditions": [18, 1200, "v", 18000], "trial": 1, "serialpos": 7, "trial_type": "single-stim", "trial_index": 62, "time_elapsed": 345407, "internal_node_id": "0.0-44.0"}}, {"uniqueid": "MTK0758:34X6J5FLPU5Z63RXC43PT6QJE1CQJX", "current_trial": 63, "dateTime": 1512699228603, "trialdata": {"rt": -1, "stimulus": "<p id=\"stim\">BUGGY</p>", "key_press": -1, "type": "PRES_VIS", "word": "buggy", "wordID": 187, "conditions": [18, 1200, "v", 18000], "trial": 1, "serialpos": 8, "trial_type": "single-stim", "trial_index": 63, "time_elapsed": 347487, "internal_node_id": "0.0-45.0"}}, {"uniqueid": "MTK0758:34X6J5FLPU5Z63RXC43PT6QJE1CQJX", "current_trial": 64, "dateTime": 1512699230787, "trialdata": {"rt": -1, "stimulus": "<p id=\"stim\">PASTA</p>", "key_press": -1, "type": "PRES_VIS", "word": "pasta", "wordID": 1020, "conditions": [18, 1200, "v", 18000], "trial": 1, "serialpos": 9, "trial_type": "single-stim", "trial_index": 64, "time_elapsed": 349671, "internal_node_id": "0.0-46.0"}}, {"uniqueid": "MTK0758:34X6J5FLPU5Z63RXC43PT6QJE1CQJX", "current_trial": 65, "dateTime": 1512699232970, "trialdata": {"rt": -1, "stimulus": "<p id=\"stim\">ORCHID</p>", "key_press": -1, "type": "PRES_VIS", "word": "orchid", "wordID": 981, "conditions": [18, 1200, "v", 18000], "trial": 1, "serialpos": 10, "trial_type": "single-stim", "trial_index": 65, "time_elapsed": 351854, "internal_node_id": "0.0-47.0"}}, {"uniqueid": "MTK0758:34X6J5FLPU5Z63RXC43PT6QJE1CQJX", "current_trial": 66, "dateTime": 1512699234987, "trialdata": {"rt": -1, "stimulus": "<p id=\"stim\">CLAMP</p>", "key_press": -1, "type": "PRES_VIS", "word": "clamp", "wordID": 315, "conditions": [18, 1200, "v", 18000], "trial": 1, "serialpos": 11, "trial_type": "single-stim", "trial_index": 66, "time_elapsed": 353871, "internal_node_id": "0.0-48.0"}}, {"uniqueid": "MTK0758:34X6J5FLPU5Z63RXC43PT6QJE1CQJX", "current_trial": 67, "dateTime": 1512699237376, "trialdata": {"rt": -1, "stimulus": "<p id=\"stim\">MONSTER</p>", "key_press": -1, "type": "PRES_VIS", "word": "monster", "wordID": 911, "conditions": [18, 1200, "v", 18000], "trial": 1, "serialpos": 12, "trial_type": "single-stim", "trial_index": 67, "time_elapsed": 356260, "internal_node_id": "0.0-49.0"}}, {"uniqueid": "MTK0758:34X6J5FLPU5Z63RXC43PT6QJE1CQJX", "current_trial": 68, "dateTime": 1512699239742, "trialdata": {"rt": -1, "stimulus": "<p id=\"stim\">SWAMP</p>", "key_press": -1, "type": "PRES_VIS", "word": "swamp", "wordID": 1415, "conditions": [18, 1200, "v", 18000], "trial": 1, "serialpos": 13, "trial_type": "single-stim", "trial_index": 68, "time_elapsed": 358626, "internal_node_id": "0.0-50.0"}}, {"uniqueid": "MTK0758:34X6J5FLPU5Z63RXC43PT6QJE1CQJX", "current_trial": 69, "dateTime": 1512699241947, "trialdata": {"rt": -1, "stimulus": "<p id=\"stim\">FRAGRANCE</p>", "key_press": -1, "type": "PRES_VIS", "word": "fragrance", "wordID": 598, "conditions": [18, 1200, "v", 18000], "trial": 1, "serialpos": 14, "trial_type": "single-stim", "trial_index": 69, "time_elapsed": 360830, "internal_node_id": "0.0-51.0"}}, {"uniqueid": "MTK0758:34X6J5FLPU5Z63RXC43PT6QJE1CQJX", "current_trial": 70, "dateTime": 1512699244337, "trialdata": {"rt": -1, "stimulus": "<p id=\"stim\">JUNGLE</p>", "key_press": -1, "type": "PRES_VIS", "word": "jungle", "wordID": 763, "conditions": [18, 1200, "v", 18000], "trial": 1, "serialpos": 15, "trial_type": "single-stim", "trial_index": 70, "time_elapsed": 363220, "internal_node_id": "0.0-52.0"}}, {"uniqueid": "MTK0758:34X6J5FLPU5Z63RXC43PT6QJE1CQJX", "current_trial": 71, "dateTime": 1512699246382, "trialdata": {"rt": -1, "stimulus": "<p id=\"stim\">FOOT</p>", "key_press": -1, "type": "PRES_VIS", "word": "foot", "wordID": 589, "conditions": [18, 1200, "v", 18000], "trial": 1, "serialpos": 16, "trial_type": "single-stim", "trial_index": 71, "time_elapsed": 365265, "internal_node_id": "0.0-53.0"}}, {"uniqueid": "MTK0758:34X6J5FLPU5Z63RXC43PT6QJE1CQJX", "current_trial": 72, "dateTime": 1512699248484, "trialdata": {"rt": -1, "stimulus": "<p id=\"stim\">SKIRT</p>", "key_press": -1, "type": "PRES_VIS", "word": "skirt", "wordID": 1318, "conditions": [18, 1200, "v", 18000], "trial": 1, "serialpos": 17, "trial_type": "single-stim", "trial_index": 72, "time_elapsed": 367368, "internal_node_id": "0.0-54.0"}}, {"uniqueid": "MTK0758:34X6J5FLPU5Z63RXC43PT6QJE1CQJX", "current_trial": 73, "dateTime": 1512699250747, "trialdata": {"rt": -1, "stimulus": "", "key_press": -1, "type": "PRE_RECALL_DELAY", "trial_type": "single-stim", "trial_index": 73, "time_elapsed": 369631, "internal_node_id": "0.0-55.0-0.0"}}, {"uniqueid": "MTK0758:34X6J5FLPU5Z63RXC43PT6QJE1CQJX", "current_trial": 74, "dateTime": 1512699251249, "trialdata": {"rt": -1000, "stimulus": "/static/audio/400Hz.wav", "key_press": -1, "type": "PRE_RECALL_ALERT", "trial_type": "single-audio", "trial_index": 74, "time_elapsed": 370133, "internal_node_id": "0.0-56.0"}}, {"uniqueid": "MTK0758:34X6J5FLPU5Z63RXC43PT6QJE1CQJX", "current_trial": 75, "dateTime": 1512699311255, "trialdata": {"rt": [4268, 6028, 7403, 9668, 12740, 14748, 16140, 18995, 21036, 32596, 35348, 35875], "recwords": ["skirt", "jungle", "foot", "football", "fragrance", "monster", "body", "lava", "actor", "orchid", "pasta", ""], "type": "FREE_RECALL", "conditions": [18, 1200, "v", 18000], "trial": 1, "trial_type": "free-recall", "trial_index": 75, "time_elapsed": 430135, "internal_node_id": "0.0-57.0-0.0"}}, {"uniqueid": "MTK0758:34X6J5FLPU5Z63RXC43PT6QJE1CQJX", "current_trial": 76, "dateTime": 1512699351840, "trialdata": {"rt": 38574, "key_press": 74, "type": "INSTRUCTIONS", "trial_type": "text", "trial_index": 76, "time_elapsed": 470713, "internal_node_id": "0.0-58.0"}}, {"uniqueid": "MTK0758:34X6J5FLPU5Z63RXC43PT6QJE1CQJX", "current_trial": 77, "dateTime": 1512699364843, "trialdata": {"rt": [2619, 5259, 9379, 11442], "responses": ["15", "18", "16", "6"], "num1": [8, 2, 8, 1, 3], "num2": [6, 9, 7, 4, 5], "num3": [1, 7, 1, 1, 5], "type": "DISTRACTOR", "conditions": [24, 800, "v", 12000], "trial": 2, "trial_type": "math-distractor", "trial_index": 77, "time_elapsed": 483727, "internal_node_id": "0.0-59.0"}}, {"uniqueid": "MTK0758:34X6J5FLPU5Z63RXC43PT6QJE1CQJX", "current_trial": 78, "dateTime": 1512699367845, "trialdata": {"rt": -1, "stimulus": "<p id=\"stim\">10</p>", "key_press": -1, "trial_type": "single-stim", "trial_index": 78, "time_elapsed": 486729, "internal_node_id": "0.0-60.0-0.0"}}, {"uniqueid": "MTK0758:34X6J5FLPU5Z63RXC43PT6QJE1CQJX", "current_trial": 79, "dateTime": 1512699368872, "trialdata": {"rt": -1, "stimulus": "<p id=\"stim\">9</p>", "key_press": -1, "trial_type": "single-stim", "trial_index": 79, "time_elapsed": 487756, "internal_node_id": "0.0-60.0-1.0"}}, {"uniqueid": "MTK0758:34X6J5FLPU5Z63RXC43PT6QJE1CQJX", "current_trial": 80, "dateTime": 1512699369873, "trialdata": {"rt": -1, "stimulus": "<p id=\"stim\">8</p>", "key_press": -1, "trial_type": "single-stim", "trial_index": 80, "time_elapsed": 488757, "internal_node_id": "0.0-60.0-2.0"}}, {"uniqueid": "MTK0758:34X6J5FLPU5Z63RXC43PT6QJE1CQJX", "current_trial": 81, "dateTime": 1512699370875, "trialdata": {"rt": -1, "stimulus": "<p id=\"stim\">7</p>", "key_press": -1, "trial_type": "single-stim", "trial_index": 81, "time_elapsed": 489758, "internal_node_id": "0.0-60.0-3.0"}}, {"uniqueid": "MTK0758:34X6J5FLPU5Z63RXC43PT6QJE1CQJX", "current_trial": 82, "dateTime": 1512699371876, "trialdata": {"rt": -1, "stimulus": "<p id=\"stim\">6</p>", "key_press": -1, "trial_type": "single-stim", "trial_index": 82, "time_elapsed": 490760, "internal_node_id": "0.0-60.0-4.0"}}, {"uniqueid": "MTK0758:34X6J5FLPU5Z63RXC43PT6QJE1CQJX", "current_trial": 83, "dateTime": 1512699372878, "trialdata": {"rt": -1, "stimulus": "<p id=\"stim\">5</p>", "key_press": -1, "trial_type": "single-stim", "trial_index": 83, "time_elapsed": 491761, "internal_node_id": "0.0-60.0-5.0"}}, {"uniqueid": "MTK0758:34X6J5FLPU5Z63RXC43PT6QJE1CQJX", "current_trial": 84, "dateTime": 1512699373879, "trialdata": {"rt": -1, "stimulus": "<p id=\"stim\">4</p>", "key_press": -1, "trial_type": "single-stim", "trial_index": 84, "time_elapsed": 492763, "internal_node_id": "0.0-60.0-6.0"}}, {"uniqueid": "MTK0758:34X6J5FLPU5Z63RXC43PT6QJE1CQJX", "current_trial": 85, "dateTime": 1512699374881, "trialdata": {"rt": -1, "stimulus": "<p id=\"stim\">3</p>", "key_press": -1, "trial_type": "single-stim", "trial_index": 85, "time_elapsed": 493765, "internal_node_id": "0.0-60.0-7.0"}}, {"uniqueid": "MTK0758:34X6J5FLPU5Z63RXC43PT6QJE1CQJX", "current_trial": 86, "dateTime": 1512699375883, "trialdata": {"rt": -1, "stimulus": "<p id=\"stim\">2</p>", "key_press": -1, "trial_type": "single-stim", "trial_index": 86, "time_elapsed": 494766, "internal_node_id": "0.0-60.0-8.0"}}, {"uniqueid": "MTK0758:34X6J5FLPU5Z63RXC43PT6QJE1CQJX", "current_trial": 87, "dateTime": 1512699376884, "trialdata": {"rt": -1, "stimulus": "<p id=\"stim\">1</p>", "key_press": -1, "trial_type": "single-stim", "trial_index": 87, "time_elapsed": 495768, "internal_node_id": "0.0-60.0-9.0"}}, {"uniqueid": "MTK0758:34X6J5FLPU5Z63RXC43PT6QJE1CQJX", "current_trial": 88, "dateTime": 1512699378386, "trialdata": {"rt": -1, "stimulus": "<p id=\"stim\">+</p>", "key_press": -1, "type": "FIXATION", "trial_type": "single-stim", "trial_index": 88, "time_elapsed": 497269, "internal_node_id": "0.0-61.0-0.0"}}, {"uniqueid": "MTK0758:34X6J5FLPU5Z63RXC43PT6QJE1CQJX", "current_trial": 89, "dateTime": 1512699379188, "trialdata": {"rt": -1, "stimulus": "<p id=\"stim\">WAITRESS</p>", "key_press": -1, "type": "PRES_VIS", "word": "waitress", "wordID": 1580, "conditions": [24, 800, "v", 12000], "trial": 2, "serialpos": 0, "trial_type": "single-stim", "trial_index": 89, "time_elapsed": 498071, "internal_node_id": "0.0-62.0"}}, {"uniqueid": "MTK0758:34X6J5FLPU5Z63RXC43PT6QJE1CQJX", "current_trial": 90, "dateTime": 1512699381034, "trialdata": {"rt": -1, "stimulus": "<p id=\"stim\">HATCHET</p>", "key_press": -1, "type": "PRES_VIS", "word": "hatchet", "wordID": 690, "conditions": [24, 800, "v", 12000], "trial": 2, "serialpos": 1, "trial_type": "single-stim", "trial_index": 90, "time_elapsed": 499918, "internal_node_id": "0.0-63.0"}}, {"uniqueid": "MTK0758:34X6J5FLPU5Z63RXC43PT6QJE1CQJX", "current_trial": 91, "dateTime": 1512699382641, "trialdata": {"rt": -1, "stimulus": "<p id=\"stim\">DOLPHIN</p>", "key_press": -1, "type": "PRES_VIS", "word": "dolphin", "wordID": 482, "conditions": [24, 800, "v", 12000], "trial": 2, "serialpos": 2, "trial_type": "single-stim", "trial_index": 91, "time_elapsed": 501525, "internal_node_id": "0.0-64.0"}}, {"uniqueid": "MTK0758:34X6J5FLPU5Z63RXC43PT6QJE1CQJX", "current_trial": 92, "dateTime": 1512699384361, "trialdata": {"rt": -1, "stimulus": "<p id=\"stim\">MAMMAL</p>", "key_press": -1, "type": "PRES_VIS", "word": "mammal", "wordID": 860, "conditions": [24, 800, "v", 12000], "trial": 2, "serialpos": 3, "trial_type": "single-stim", "trial_index": 92, "time_elapsed": 503245, "internal_node_id": "0.0-65.0"}}, {"uniqueid": "MTK0758:34X6J5FLPU5Z63RXC43PT6QJE1CQJX", "current_trial": 93, "dateTime": 1512699386259, "trialdata": {"rt": -1, "stimulus": "<p id=\"stim\">RADISH</p>", "key_press": -1, "type": "PRES_VIS", "word": "radish", "wordID": 1157, "conditions": [24, 800, "v", 12000], "trial": 2, "serialpos": 4, "trial_type": "single-stim", "trial_index": 93, "time_elapsed": 505143, "internal_node_id": "0.0-66.0"}}, {"uniqueid": "MTK0758:34X6J5FLPU5Z63RXC43PT6QJE1CQJX", "current_trial": 94, "dateTime": 1512699388254, "trialdata": {"rt": -1, "stimulus": "<p id=\"stim\">PARROT</p>", "key_press": -1, "type": "PRES_VIS", "word": "parrot", "wordID": 1014, "conditions": [24, 800, "v", 12000], "trial": 2, "serialpos": 5, "trial_type": "single-stim", "trial_index": 94, "time_elapsed": 507137, "internal_node_id": "0.0-67.0"}}, {"uniqueid": "MTK0758:34X6J5FLPU5Z63RXC43PT6QJE1CQJX", "current_trial": 95, "dateTime": 1512699390034, "trialdata": {"rt": -1, "stimulus": "<p id=\"stim\">CATTLE</p>", "key_press": -1, "type": "PRES_VIS", "word": "cattle", "wordID": 260, "conditions": [24, 800, "v", 12000], "trial": 2, "serialpos": 6, "trial_type": "single-stim", "trial_index": 95, "time_elapsed": 508918, "internal_node_id": "0.0-68.0"}}, {"uniqueid": "MTK0758:34X6J5FLPU5Z63RXC43PT6QJE1CQJX", "current_trial": 96, "dateTime": 1512699391798, "trialdata": {"rt": -1, "stimulus": "<p id=\"stim\">PARSLEY</p>", "key_press": -1, "type": "PRES_VIS", "word": "parsley", "wordID": 1015, "conditions": [24, 800, "v", 12000], "trial": 2, "serialpos": 7, "trial_type": "single-stim", "trial_index": 96, "time_elapsed": 510682, "internal_node_id": "0.0-69.0"}}, {"uniqueid": "MTK0758:34X6J5FLPU5Z63RXC43PT6QJE1CQJX", "current_trial": 97, "dateTime": 1512699393767, "trialdata": {"rt": -1, "stimulus": "<p id=\"stim\">CUSTARD</p>", "key_press": -1, "type": "PRES_VIS", "word": "custard", "wordID": 428, "conditions": [24, 800, "v", 12000], "trial": 2, "serialpos": 8, "trial_type": "single-stim", "trial_index": 97, "time_elapsed": 512650, "internal_node_id": "0.0-70.0"}}, {"uniqueid": "MTK0758:34X6J5FLPU5Z63RXC43PT6QJE1CQJX", "current_trial": 98, "dateTime": 1512699395706, "trialdata": {"rt": -1, "stimulus": "<p id=\"stim\">TAXI</p>", "key_press": -1, "type": "PRES_VIS", "word": "taxi", "wordID": 1437, "conditions": [24, 800, "v", 12000], "trial": 2, "serialpos": 9, "trial_type": "single-stim", "trial_index": 98, "time_elapsed": 514590, "internal_node_id": "0.0-71.0"}}, {"uniqueid": "MTK0758:34X6J5FLPU5Z63RXC43PT6QJE1CQJX", "current_trial": 99, "dateTime": 1512699397680, "trialdata": {"rt": -1, "stimulus": "<p id=\"stim\">POET</p>", "key_press": -1, "type": "PRES_VIS", "word": "poet", "wordID": 1094, "conditions": [24, 800, "v", 12000], "trial": 2, "serialpos": 10, "trial_type": "single-stim", "trial_index": 99, "time_elapsed": 516563, "internal_node_id": "0.0-72.0"}}, {"uniqueid": "MTK0758:34X6J5FLPU5Z63RXC43PT6QJE1CQJX", "current_trial": 100, "dateTime": 1512699399441, "trialdata": {"rt": -1, "stimulus": "<p id=\"stim\">ONION</p>", "key_press": -1, "type": "PRES_VIS", "word": "onion", "wordID": 976, "conditions": [24, 800, "v", 12000], "trial": 2, "serialpos": 11, "trial_type": "single-stim", "trial_index": 100, "time_elapsed": 518325, "internal_node_id": "0.0-73.0"}}, {"uniqueid": "MTK0758:34X6J5FLPU5Z63RXC43PT6QJE1CQJX", "current_trial": 101, "dateTime": 1512699401313, "trialdata": {"rt": -1, "stimulus": "<p id=\"stim\">HAMPER</p>", "key_press": -1, "type": "PRES_VIS", "word": "hamper", "wordID": 681, "conditions": [24, 800, "v", 12000], "trial": 2, "serialpos": 12, "trial_type": "single-stim", "trial_index": 101, "time_elapsed": 520197, "internal_node_id": "0.0-74.0"}}, {"uniqueid": "MTK0758:34X6J5FLPU5Z63RXC43PT6QJE1CQJX", "current_trial": 102, "dateTime": 1512699403017, "trialdata": {"rt": -1, "stimulus": "<p id=\"stim\">PACKAGE</p>", "key_press": -1, "type": "PRES_VIS", "word": "package", "wordID": 996, "conditions": [24, 800, "v", 12000], "trial": 2, "serialpos": 13, "trial_type": "single-stim", "trial_index": 102, "time_elapsed": 521901, "internal_node_id": "0.0-75.0"}}, {"uniqueid": "MTK0758:34X6J5FLPU5Z63RXC43PT6QJE1CQJX", "current_trial": 103, "dateTime": 1512699404662, "trialdata": {"rt": -1, "stimulus": "<p id=\"stim\">STICKER</p>", "key_press": -1, "type": "PRES_VIS", "word": "sticker", "wordID": 1381, "conditions": [24, 800, "v", 12000], "trial": 2, "serialpos": 14, "trial_type": "single-stim", "trial_index": 103, "time_elapsed": 523546, "internal_node_id": "0.0-76.0"}}, {"uniqueid": "MTK0758:34X6J5FLPU5Z63RXC43PT6QJE1CQJX", "current_trial": 104, "dateTime": 1512699406525, "trialdata": {"rt": -1, "stimulus": "<p id=\"stim\">GARLIC</p>", "key_press": -1, "type": "PRES_VIS", "word": "garlic", "wordID": 623, "conditions": [24, 800, "v", 12000], "trial": 2, "serialpos": 15, "trial_type": "single-stim", "trial_index": 104, "time_elapsed": 525409, "internal_node_id": "0.0-77.0"}}, {"uniqueid": "MTK0758:34X6J5FLPU5Z63RXC43PT6QJE1CQJX", "current_trial": 105, "dateTime": 1512699408331, "trialdata": {"rt": -1, "stimulus": "<p id=\"stim\">PLIERS</p>", "key_press": -1, "type": "PRES_VIS", "word": "pliers", "wordID": 1088, "conditions": [24, 800, "v", 12000], "trial": 2, "serialpos": 16, "trial_type": "single-stim", "trial_index": 105, "time_elapsed": 527215, "internal_node_id": "0.0-78.0"}}, {"uniqueid": "MTK0758:34X6J5FLPU5Z63RXC43PT6QJE1CQJX", "current_trial": 106, "dateTime": 1512699410027, "trialdata": {"rt": -1, "stimulus": "<p id=\"stim\">BACON</p>", "key_press": -1, "type": "PRES_VIS", "word": "bacon", "wordID": 66, "conditions": [24, 800, "v", 12000], "trial": 2, "serialpos": 17, "trial_type": "single-stim", "trial_index": 106, "time_elapsed": 528910, "internal_node_id": "0.0-79.0"}}, {"uniqueid": "MTK0758:34X6J5FLPU5Z63RXC43PT6QJE1CQJX", "current_trial": 107, "dateTime": 1512699411799, "trialdata": {"rt": -1, "stimulus": "<p id=\"stim\">TRACTOR</p>", "key_press": -1, "type": "PRES_VIS", "word": "tractor", "wordID": 1492, "conditions": [24, 800, "v", 12000], "trial": 2, "serialpos": 18, "trial_type": "single-stim", "trial_index": 107, "time_elapsed": 530683, "internal_node_id": "0.0-80.0"}}, {"uniqueid": "MTK0758:34X6J5FLPU5Z63RXC43PT6QJE1CQJX", "current_trial": 108, "dateTime": 1512699413582, "trialdata": {"rt": -1, "stimulus": "<p id=\"stim\">RATTLE</p>", "key_press": -1, "type": "PRES_VIS", "word": "rattle", "wordID": 1169, "conditions": [24, 800, "v", 12000], "trial": 2, "serialpos": 19, "trial_type": "single-stim", "trial_index": 108, "time_elapsed": 532465, "internal_node_id": "0.0-81.0"}}, {"uniqueid": "MTK0758:34X6J5FLPU5Z63RXC43PT6QJE1CQJX", "current_trial": 109, "dateTime": 1512699415440, "trialdata": {"rt": -1, "stimulus": "<p id=\"stim\">BEAVER</p>", "key_press": -1, "type": "PRES_VIS", "word": "beaver", "wordID": 108, "conditions": [24, 800, "v", 12000], "trial": 2, "serialpos": 20, "trial_type": "single-stim", "trial_index": 109, "time_elapsed": 534323, "internal_node_id": "0.0-82.0"}}, {"uniqueid": "MTK0758:34X6J5FLPU5Z63RXC43PT6QJE1CQJX", "current_trial": 110, "dateTime": 1512699417059, "trialdata": {"rt": -1, "stimulus": "<p id=\"stim\">TRUCK</p>", "key_press": -1, "type": "PRES_VIS", "word": "truck", "wordID": 1511, "conditions": [24, 800, "v", 12000], "trial": 2, "serialpos": 21, "trial_type": "single-stim", "trial_index": 110, "time_elapsed": 535942, "internal_node_id": "0.0-83.0"}}, {"uniqueid": "MTK0758:34X6J5FLPU5Z63RXC43PT6QJE1CQJX", "current_trial": 111, "dateTime": 1512699418909, "trialdata": {"rt": -1, "stimulus": "<p id=\"stim\">ROCKET</p>", "key_press": -1, "type": "PRES_VIS", "word": "rocket", "wordID": 1201, "conditions": [24, 800, "v", 12000], "trial": 2, "serialpos": 22, "trial_type": "single-stim", "trial_index": 111, "time_elapsed": 537792, "internal_node_id": "0.0-84.0"}}, {"uniqueid": "MTK0758:34X6J5FLPU5Z63RXC43PT6QJE1CQJX", "current_trial": 112, "dateTime": 1512699420620, "trialdata": {"rt": -1, "stimulus": "<p id=\"stim\">MISSILE</p>", "key_press": -1, "type": "PRES_VIS", "word": "missile", "wordID": 899, "conditions": [24, 800, "v", 12000], "trial": 2, "serialpos": 23, "trial_type": "single-stim", "trial_index": 112, "time_elapsed": 539503, "internal_node_id": "0.0-85.0"}}, {"uniqueid": "MTK0758:34X6J5FLPU5Z63RXC43PT6QJE1CQJX", "current_trial": 113, "dateTime": 1512699422771, "trialdata": {"rt": -1, "stimulus": "", "key_press": -1, "type": "PRE_RECALL_DELAY", "trial_type": "single-stim", "trial_index": 113, "time_elapsed": 541654, "internal_node_id": "0.0-86.0-0.0"}}, {"uniqueid": "MTK0758:34X6J5FLPU5Z63RXC43PT6QJE1CQJX", "current_trial": 114, "dateTime": 1512699423273, "trialdata": {"rt": -1000, "stimulus": "/static/audio/400Hz.wav", "key_press": -1, "type": "PRE_RECALL_ALERT", "trial_type": "single-audio", "trial_index": 114, "time_elapsed": 542157, "internal_node_id": "0.0-87.0"}}, {"uniqueid": "MTK0758:34X6J5FLPU5Z63RXC43PT6QJE1CQJX", "current_trial": 115, "dateTime": 1512699483279, "trialdata": {"rt": [3112, 4984, 6632, 9255, 11480, 12928, 17008, 24320, 27992, 37223, 50608], "recwords": ["rocket", "missile", "mammal", "dolphin", "radish", "onion", "parsley", "pliers", "ratchet", "garlic", "hatchet"], "type": "FREE_RECALL", "conditions": [24, 800, "v", 12000], "trial": 2, "trial_type": "free-recall", "trial_index": 115, "time_elapsed": 602159, "internal_node_id": "0.0-88.0-0.0"}}, {"uniqueid": "MTK0758:34X6J5FLPU5Z63RXC43PT6QJE1CQJX", "current_trial": 116, "dateTime": 1512699521881, "trialdata": {"rt": 36600, "key_press": 72, "type": "INSTRUCTIONS", "trial_type": "text", "trial_index": 116, "time_elapsed": 640765, "internal_node_id": "0.0-89.0"}}, {"uniqueid": "MTK0758:34X6J5FLPU5Z63RXC43PT6QJE1CQJX", "current_trial": 117, "dateTime": 1512699547884, "trialdata": {"rt": [4012, 6356, 8772, 10717, 12398, 14484, 16693, 18429, 20148, 22197], "responses": ["19", "18", "21", "17", "7", "20", "17", "13", "6", "17"], "num1": [7, 1, 9, 8, 3, 8, 7, 2, 2, 1, 8], "num2": [4, 8, 7, 4, 1, 3, 6, 5, 3, 7, 4], "num3": [8, 9, 5, 5, 3, 9, 4, 6, 1, 9, 7], "type": "DISTRACTOR", "conditions": [24, 1600, "v", 24000], "trial": 3, "trial_type": "math-distractor", "trial_index": 117, "time_elapsed": 666768, "internal_node_id": "0.0-90.0"}}, {"uniqueid": "MTK0758:34X6J5FLPU5Z63RXC43PT6QJE1CQJX", "current_trial": 118, "dateTime": 1512699550886, "trialdata": {"rt": -1, "stimulus": "<p id=\"stim\">10</p>", "key_press": -1, "trial_type": "single-stim", "trial_index": 118, "time_elapsed": 669770, "internal_node_id": "0.0-91.0-0.0"}}, {"uniqueid": "MTK0758:34X6J5FLPU5Z63RXC43PT6QJE1CQJX", "current_trial": 119, "dateTime": 1512699551888, "trialdata": {"rt": -1, "stimulus": "<p id=\"stim\">9</p>", "key_press": -1, "trial_type": "single-stim", "trial_index": 119, "time_elapsed": 670772, "internal_node_id": "0.0-91.0-1.0"}}, {"uniqueid": "MTK0758:34X6J5FLPU5Z63RXC43PT6QJE1CQJX", "current_trial": 120, "dateTime": 1512699552889, "trialdata": {"rt": -1, "stimulus": "<p id=\"stim\">8</p>", "key_press": -1, "trial_type": "single-stim", "trial_index": 120, "time_elapsed": 671773, "internal_node_id": "0.0-91.0-2.0"}}, {"uniqueid": "MTK0758:34X6J5FLPU5Z63RXC43PT6QJE1CQJX", "current_trial": 121, "dateTime": 1512699553891, "trialdata": {"rt": -1, "stimulus": "<p id=\"stim\">7</p>", "key_press": -1, "trial_type": "single-stim", "trial_index": 121, "time_elapsed": 672775, "internal_node_id": "0.0-91.0-3.0"}}, {"uniqueid": "MTK0758:34X6J5FLPU5Z63RXC43PT6QJE1CQJX", "current_trial": 122, "dateTime": 1512699554892, "trialdata": {"rt": -1, "stimulus": "<p id=\"stim\">6</p>", "key_press": -1, "trial_type": "single-stim", "trial_index": 122, "time_elapsed": 673776, "internal_node_id": "0.0-91.0-4.0"}}, {"uniqueid": "MTK0758:34X6J5FLPU5Z63RXC43PT6QJE1CQJX", "current_trial": 123, "dateTime": 1512699555894, "trialdata": {"rt": -1, "stimulus": "<p id=\"stim\">5</p>", "key_press": -1, "trial_type": "single-stim", "trial_index": 123, "time_elapsed": 674777, "internal_node_id": "0.0-91.0-5.0"}}, {"uniqueid": "MTK0758:34X6J5FLPU5Z63RXC43PT6QJE1CQJX", "current_trial": 124, "dateTime": 1512699556895, "trialdata": {"rt": -1, "stimulus": "<p id=\"stim\">4</p>", "key_press": -1, "trial_type": "single-stim", "trial_index": 124, "time_elapsed": 675779, "internal_node_id": "0.0-91.0-6.0"}}, {"uniqueid": "MTK0758:34X6J5FLPU5Z63RXC43PT6QJE1CQJX", "current_trial": 125, "dateTime": 1512699557896, "trialdata": {"rt": -1, "stimulus": "<p id=\"stim\">3</p>", "key_press": -1, "trial_type": "single-stim", "trial_index": 125, "time_elapsed": 676780, "internal_node_id": "0.0-91.0-7.0"}}, {"uniqueid": "MTK0758:34X6J5FLPU5Z63RXC43PT6QJE1CQJX", "current_trial": 126, "dateTime": 1512699558898, "trialdata": {"rt": -1, "stimulus": "<p id=\"stim\">2</p>", "key_press": -1, "trial_type": "single-stim", "trial_index": 126, "time_elapsed": 677781, "internal_node_id": "0.0-91.0-8.0"}}, {"uniqueid": "MTK0758:34X6J5FLPU5Z63RXC43PT6QJE1CQJX", "current_trial": 127, "dateTime": 1512699559899, "trialdata": {"rt": -1, "stimulus": "<p id=\"stim\">1</p>", "key_press": -1, "trial_type": "single-stim", "trial_index": 127, "time_elapsed": 678783, "internal_node_id": "0.0-91.0-9.0"}}, {"uniqueid": "MTK0758:34X6J5FLPU5Z63RXC43PT6QJE1CQJX", "current_trial": 128, "dateTime": 1512699561400, "trialdata": {"rt": -1, "stimulus": "<p id=\"stim\">+</p>", "key_press": -1, "type": "FIXATION", "trial_type": "single-stim", "trial_index": 128, "time_elapsed": 680284, "internal_node_id": "0.0-92.0-0.0"}}, {"uniqueid": "MTK0758:34X6J5FLPU5Z63RXC43PT6QJE1CQJX", "current_trial": 129, "dateTime": 1512699563003, "trialdata": {"rt": -1, "stimulus": "<p id=\"stim\">SNAKE</p>", "key_press": -1, "type": "PRES_VIS", "word": "snake", "wordID": 1332, "conditions": [24, 1600, "v", 24000], "trial": 3, "serialpos": 0, "trial_type": "single-stim", "trial_index": 129, "time_elapsed": 681886, "internal_node_id": "0.0-93.0"}}, {"uniqueid": "MTK0758:34X6J5FLPU5Z63RXC43PT6QJE1CQJX", "current_trial": 130, "dateTime": 1512699565606, "trialdata": {"rt": -1, "stimulus": "<p id=\"stim\">TORTOISE</p>", "key_press": -1, "type": "PRES_VIS", "word": "tortoise", "wordID": 1485, "conditions": [24, 1600, "v", 24000], "trial": 3, "serialpos": 1, "trial_type": "single-stim", "trial_index": 130, "time_elapsed": 684490, "internal_node_id": "0.0-94.0"}}, {"uniqueid": "MTK0758:34X6J5FLPU5Z63RXC43PT6QJE1CQJX", "current_trial": 131, "dateTime": 1512699568355, "trialdata": {"rt": -1, "stimulus": "<p id=\"stim\">DUSTPAN</p>", "key_press": -1, "type": "PRES_VIS", "word": "dustpan", "wordID": 508, "conditions": [24, 1600, "v", 24000], "trial": 3, "serialpos": 2, "trial_type": "single-stim", "trial_index": 131, "time_elapsed": 687236, "internal_node_id": "0.0-95.0"}}, {"uniqueid": "MTK0758:34X6J5FLPU5Z63RXC43PT6QJE1CQJX", "current_trial": 132, "dateTime": 1512699570760, "trialdata": {"rt": -1, "stimulus": "<p id=\"stim\">SCISSORS</p>", "key_press": -1, "type": "PRES_VIS", "word": "scissors", "wordID": 1249, "conditions": [24, 1600, "v", 24000], "trial": 3, "serialpos": 3, "trial_type": "single-stim", "trial_index": 132, "time_elapsed": 689643, "internal_node_id": "0.0-96.0"}}, {"uniqueid": "MTK0758:34X6J5FLPU5Z63RXC43PT6QJE1CQJX", "current_trial": 133, "dateTime": 1512699573473, "trialdata": {"rt": -1, "stimulus": "<p id=\"stim\">ARM</p>", "key_press": -1, "type": "PRES_VIS", "word": "arm", "wordID": 37, "conditions": [24, 1600, "v", 24000], "trial": 3, "serialpos": 4, "trial_type": "single-stim", "trial_index": 133, "time_elapsed": 692356, "internal_node_id": "0.0-97.0"}}, {"uniqueid": "MTK0758:34X6J5FLPU5Z63RXC43PT6QJE1CQJX", "current_trial": 134, "dateTime": 1512699576130, "trialdata": {"rt": -1, "stimulus": "<p id=\"stim\">KLEENEX</p>", "key_press": -1, "type": "PRES_VIS", "word": "kleenex", "wordID": 781, "conditions": [24, 1600, "v", 24000], "trial": 3, "serialpos": 5, "trial_type": "single-stim", "trial_index": 134, "time_elapsed": 695013, "internal_node_id": "0.0-98.0"}}, {"uniqueid": "MTK0758:34X6J5FLPU5Z63RXC43PT6QJE1CQJX", "current_trial": 135, "dateTime": 1512699578808, "trialdata": {"rt": -1, "stimulus": "<p id=\"stim\">DUST</p>", "key_press": -1, "type": "PRES_VIS", "word": "dust", "wordID": 507, "conditions": [24, 1600, "v", 24000], "trial": 3, "serialpos": 6, "trial_type": "single-stim", "trial_index": 135, "time_elapsed": 697692, "internal_node_id": "0.0-99.0"}}, {"uniqueid": "MTK0758:34X6J5FLPU5Z63RXC43PT6QJE1CQJX", "current_trial": 136, "dateTime": 1512699581237, "trialdata": {"rt": -1, "stimulus": "<p id=\"stim\">SHOULDER</p>", "key_press": -1, "type": "PRES_VIS", "word": "shoulder", "wordID": 1293, "conditions": [24, 1600, "v", 24000], "trial": 3, "serialpos": 7, "trial_type": "single-stim", "trial_index": 136, "time_elapsed": 700121, "internal_node_id": "0.0-100.0"}}, {"uniqueid": "MTK0758:34X6J5FLPU5Z63RXC43PT6QJE1CQJX", "current_trial": 137, "dateTime": 1512699584036, "trialdata": {"rt": -1, "stimulus": "<p id=\"stim\">SIBLING</p>", "key_press": -1, "type": "PRES_VIS", "word": "sibling", "wordID": 1300, "conditions": [24, 1600, "v", 24000], "trial": 3, "serialpos": 8, "trial_type": "single-stim", "trial_index": 137, "time_elapsed": 702919, "internal_node_id": "0.0-101.0"}}, {"uniqueid": "MTK0758:34X6J5FLPU5Z63RXC43PT6QJE1CQJX", "current_trial": 138, "dateTime": 1512699586833, "trialdata": {"rt": -1, "stimulus": "<p id=\"stim\">ICEBERG</p>", "key_press": -1, "type": "PRES_VIS", "word": "iceberg", "wordID": 730, "conditions": [24, 1600, "v", 24000], "trial": 3, "serialpos": 9, "trial_type": "single-stim", "trial_index": 138, "time_elapsed": 705717, "internal_node_id": "0.0-102.0"}}, {"uniqueid": "MTK0758:34X6J5FLPU5Z63RXC43PT6QJE1CQJX", "current_trial": 139, "dateTime": 1512699589595, "trialdata": {"rt": -1, "stimulus": "<p id=\"stim\">PASSAGE</p>", "key_press": -1, "type": "PRES_VIS", "word": "passage", "wordID": 1018, "conditions": [24, 1600, "v", 24000], "trial": 3, "serialpos": 10, "trial_type": "single-stim", "trial_index": 139, "time_elapsed": 708478, "internal_node_id": "0.0-103.0"}}, {"uniqueid": "MTK0758:34X6J5FLPU5Z63RXC43PT6QJE1CQJX", "current_trial": 140, "dateTime": 1512699592292, "trialdata": {"rt": -1, "stimulus": "<p id=\"stim\">GAVEL</p>", "key_press": -1, "type": "PRES_VIS", "word": "gavel", "wordID": 626, "conditions": [24, 1600, "v", 24000], "trial": 3, "serialpos": 11, "trial_type": "single-stim", "trial_index": 140, "time_elapsed": 711176, "internal_node_id": "0.0-104.0"}}, {"uniqueid": "MTK0758:34X6J5FLPU5Z63RXC43PT6QJE1CQJX", "current_trial": 141, "dateTime": 1512699594725, "trialdata": {"rt": -1, "stimulus": "<p id=\"stim\">DASHBOARD</p>", "key_press": -1, "type": "PRES_VIS", "word": "dashboard", "wordID": 440, "conditions": [24, 1600, "v", 24000], "trial": 3, "serialpos": 12, "trial_type": "single-stim", "trial_index": 141, "time_elapsed": 713609, "internal_node_id": "0.0-105.0"}}, {"uniqueid": "MTK0758:34X6J5FLPU5Z63RXC43PT6QJE1CQJX", "current_trial": 142, "dateTime": 1512699597275, "trialdata": {"rt": -1, "stimulus": "<p id=\"stim\">IGLOO</p>", "key_press": -1, "type": "PRES_VIS", "word": "igloo", "wordID": 733, "conditions": [24, 1600, "v", 24000], "trial": 3, "serialpos": 13, "trial_type": "single-stim", "trial_index": 142, "time_elapsed": 716159, "internal_node_id": "0.0-106.0"}}, {"uniqueid": "MTK0758:34X6J5FLPU5Z63RXC43PT6QJE1CQJX", "current_trial": 143, "dateTime": 1512699599970, "trialdata": {"rt": -1, "stimulus": "<p id=\"stim\">FINGER</p>", "key_press": -1, "type": "PRES_VIS", "word": "finger", "wordID": 566, "conditions": [24, 1600, "v", 24000], "trial": 3, "serialpos": 14, "trial_type": "single-stim", "trial_index": 143, "time_elapsed": 718853, "internal_node_id": "0.0-107.0"}}, {"uniqueid": "MTK0758:34X6J5FLPU5Z63RXC43PT6QJE1CQJX", "current_trial": 144, "dateTime": 1512699602432, "trialdata": {"rt": -1, "stimulus": "<p id=\"stim\">SNAIL</p>", "key_press": -1, "type": "PRES_VIS", "word": "snail", "wordID": 1331, "conditions": [24, 1600, "v", 24000], "trial": 3, "serialpos": 15, "trial_type": "single-stim", "trial_index": 144, "time_elapsed": 721316, "internal_node_id": "0.0-108.0"}}, {"uniqueid": "MTK0758:34X6J5FLPU5Z63RXC43PT6QJE1CQJX", "current_trial": 145, "dateTime": 1512699605037, "trialdata": {"rt": -1, "stimulus": "<p id=\"stim\">LIZARD</p>", "key_press": -1, "type": "PRES_VIS", "word": "lizard", "wordID": 833, "conditions": [24, 1600, "v", 24000], "trial": 3, "serialpos": 16, "trial_type": "single-stim", "trial_index": 145, "time_elapsed": 723921, "internal_node_id": "0.0-109.0"}}, {"uniqueid": "MTK0758:34X6J5FLPU5Z63RXC43PT6QJE1CQJX", "current_trial": 146, "dateTime": 1512699607457, "trialdata": {"rt": -1, "stimulus": "<p id=\"stim\">WRIST</p>", "key_press": -1, "type": "PRES_VIS", "word": "wrist", "wordID": 1625, "conditions": [24, 1600, "v", 24000], "trial": 3, "serialpos": 17, "trial_type": "single-stim", "trial_index": 146, "time_elapsed": 726341, "internal_node_id": "0.0-110.0"}}, {"uniqueid": "MTK0758:34X6J5FLPU5Z63RXC43PT6QJE1CQJX", "current_trial": 147, "dateTime": 1512699610208, "trialdata": {"rt": -1, "stimulus": "<p id=\"stim\">XEROX</p>", "key_press": -1, "type": "PRES_VIS", "word": "xerox", "wordID": 1627, "conditions": [24, 1600, "v", 24000], "trial": 3, "serialpos": 18, "trial_type": "single-stim", "trial_index": 147, "time_elapsed": 729092, "internal_node_id": "0.0-111.0"}}, {"uniqueid": "MTK0758:34X6J5FLPU5Z63RXC43PT6QJE1CQJX", "current_trial": 148, "dateTime": 1512699612983, "trialdata": {"rt": -1, "stimulus": "<p id=\"stim\">STOVE</p>", "key_press": -1, "type": "PRES_VIS", "word": "stove", "wordID": 1387, "conditions": [24, 1600, "v", 24000], "trial": 3, "serialpos": 19, "trial_type": "single-stim", "trial_index": 148, "time_elapsed": 731867, "internal_node_id": "0.0-112.0"}}, {"uniqueid": "MTK0758:34X6J5FLPU5Z63RXC43PT6QJE1CQJX", "current_trial": 149, "dateTime": 1512699615653, "trialdata": {"rt": -1, "stimulus": "<p id=\"stim\">WITNESS</p>", "key_press": -1, "type": "PRES_VIS", "word": "witness", "wordID": 1617, "conditions": [24, 1600, "v", 24000], "trial": 3, "serialpos": 20, "trial_type": "single-stim", "trial_index": 149, "time_elapsed": 734537, "internal_node_id": "0.0-113.0"}}, {"uniqueid": "MTK0758:34X6J5FLPU5Z63RXC43PT6QJE1CQJX", "current_trial": 150, "dateTime": 1512699618269, "trialdata": {"rt": -1, "stimulus": "<p id=\"stim\">PISTOL</p>", "key_press": -1, "type": "PRES_VIS", "word": "pistol", "wordID": 1074, "conditions": [24, 1600, "v", 24000], "trial": 3, "serialpos": 21, "trial_type": "single-stim", "trial_index": 150, "time_elapsed": 737152, "internal_node_id": "0.0-114.0"}}, {"uniqueid": "MTK0758:34X6J5FLPU5Z63RXC43PT6QJE1CQJX", "current_trial": 151, "dateTime": 1512699620998, "trialdata": {"rt": -1, "stimulus": "<p id=\"stim\">DRESSER</p>", "key_press": -1, "type": "PRES_VIS", "word": "dresser", "wordID": 495, "conditions": [24, 1600, "v", 24000], "trial": 3, "serialpos": 22, "trial_type": "single-stim", "trial_index": 151, "time_elapsed": 739882, "internal_node_id": "0.0-115.0"}}, {"uniqueid": "MTK0758:34X6J5FLPU5Z63RXC43PT6QJE1CQJX", "current_trial": 152, "dateTime": 1512699623414, "trialdata": {"rt": -1, "stimulus": "<p id=\"stim\">INFANT</p>", "key_press": -1, "type": "PRES_VIS", "word": "infant", "wordID": 736, "conditions": [24, 1600, "v", 24000], "trial": 3, "serialpos": 23, "trial_type": "single-stim", "trial_index": 152, "time_elapsed": 742298, "internal_node_id": "0.0-116.0"}}, {"uniqueid": "MTK0758:34X6J5FLPU5Z63RXC43PT6QJE1CQJX", "current_trial": 153, "dateTime": 1512699625499, "trialdata": {"rt": -1, "stimulus": "", "key_press": -1, "type": "PRE_RECALL_DELAY", "trial_type": "single-stim", "trial_index": 153, "time_elapsed": 744383, "internal_node_id": "0.0-117.0-0.0"}}, {"uniqueid": "MTK0758:34X6J5FLPU5Z63RXC43PT6QJE1CQJX", "current_trial": 154, "dateTime": 1512699626001, "trialdata": {"rt": -1000, "stimulus": "/static/audio/400Hz.wav", "key_press": -1, "type": "PRE_RECALL_ALERT", "trial_type": "single-audio", "trial_index": 154, "time_elapsed": 744884, "internal_node_id": "0.0-118.0"}}, {"uniqueid": "MTK0758:34X6J5FLPU5Z63RXC43PT6QJE1CQJX", "current_trial": 155, "dateTime": 1512699686008, "trialdata": {"rt": [3546, 5243, 7099, 9138, 11578, 13354, 15138, 20498, 22866, 23746, 26226, 28322, 30026, 32410, 36586, 38906, 40786], "recwords": ["infant", "sibling", "dresser", "passage", "iceberg", "snake", "snail", "tortoise", "lizard", "arm", "shoulder", "finger", "wrist", "pistol", "dust", "dustpan", "stove"], "type": "FREE_RECALL", "conditions": [24, 1600, "v", 24000], "trial": 3, "trial_type": "free-recall", "trial_index": 155, "time_elapsed": 804887, "internal_node_id": "0.0-119.0-0.0"}}, {"uniqueid": "MTK0758:34X6J5FLPU5Z63RXC43PT6QJE1CQJX", "current_trial": 156, "dateTime": 1512699689357, "trialdata": {"rt": 1347, "key_press": 70, "type": "INSTRUCTIONS", "trial_type": "text", "trial_index": 156, "time_elapsed": 808241, "internal_node_id": "0.0-120.0"}}, {"uniqueid": "MTK0758:34X6J5FLPU5Z63RXC43PT6QJE1CQJX", "current_trial": 157, "dateTime": 1512699715361, "trialdata": {"rt": [2092, 4012, 6052, 7579, 10092, 13139, 16604, 20476, 22163, 23931], "responses": ["22", "11", "18", "15", "18", "15", "21", "25", "13", "9"], "num1": [6, 2, 6, 7, 3, 9, 8, 7, 4, 1, 1], "num2": [8, 4, 5, 7, 8, 2, 6, 8, 6, 4, 4], "num3": [8, 5, 7, 1, 7, 4, 7, 8, 3, 4, 7], "type": "DISTRACTOR", "conditions": [24, 800, "v", 24000], "trial": 4, "trial_type": "math-distractor", "trial_index": 157, "time_elapsed": 834244, "internal_node_id": "0.0-121.0"}}, {"uniqueid": "MTK0758:34X6J5FLPU5Z63RXC43PT6QJE1CQJX", "current_trial": 158, "dateTime": 1512699718363, "trialdata": {"rt": -1, "stimulus": "<p id=\"stim\">10</p>", "key_press": -1, "trial_type": "single-stim", "trial_index": 158, "time_elapsed": 837247, "internal_node_id": "0.0-122.0-0.0"}}, {"uniqueid": "MTK0758:34X6J5FLPU5Z63RXC43PT6QJE1CQJX", "current_trial": 159, "dateTime": 1512699719365, "trialdata": {"rt": -1, "stimulus": "<p id=\"stim\">9</p>", "key_press": -1, "trial_type": "single-stim", "trial_index": 159, "time_elapsed": 838249, "internal_node_id": "0.0-122.0-1.0"}}, {"uniqueid": "MTK0758:34X6J5FLPU5Z63RXC43PT6QJE1CQJX", "current_trial": 160, "dateTime": 1512699720367, "trialdata": {"rt": -1, "stimulus": "<p id=\"stim\">8</p>", "key_press": -1, "trial_type": "single-stim", "trial_index": 160, "time_elapsed": 839250, "internal_node_id": "0.0-122.0-2.0"}}, {"uniqueid": "MTK0758:34X6J5FLPU5Z63RXC43PT6QJE1CQJX", "current_trial": 161, "dateTime": 1512699721369, "trialdata": {"rt": -1, "stimulus": "<p id=\"stim\">7</p>", "key_press": -1, "trial_type": "single-stim", "trial_index": 161, "time_elapsed": 840252, "internal_node_id": "0.0-122.0-3.0"}}, {"uniqueid": "MTK0758:34X6J5FLPU5Z63RXC43PT6QJE1CQJX", "current_trial": 162, "dateTime": 1512699722370, "trialdata": {"rt": -1, "stimulus": "<p id=\"stim\">6</p>", "key_press": -1, "trial_type": "single-stim", "trial_index": 162, "time_elapsed": 841254, "internal_node_id": "0.0-122.0-4.0"}}, {"uniqueid": "MTK0758:34X6J5FLPU5Z63RXC43PT6QJE1CQJX", "current_trial": 163, "dateTime": 1512699723372, "trialdata": {"rt": -1, "stimulus": "<p id=\"stim\">5</p>", "key_press": -1, "trial_type": "single-stim", "trial_index": 163, "time_elapsed": 842256, "internal_node_id": "0.0-122.0-5.0"}}, {"uniqueid": "MTK0758:34X6J5FLPU5Z63RXC43PT6QJE1CQJX", "current_trial": 164, "dateTime": 1512699724374, "trialdata": {"rt": -1, "stimulus": "<p id=\"stim\">4</p>", "key_press": -1, "trial_type": "single-stim", "trial_index": 164, "time_elapsed": 843258, "internal_node_id": "0.0-122.0-6.0"}}, {"uniqueid": "MTK0758:34X6J5FLPU5Z63RXC43PT6QJE1CQJX", "current_trial": 165, "dateTime": 1512699725376, "trialdata": {"rt": -1, "stimulus": "<p id=\"stim\">3</p>", "key_press": -1, "trial_type": "single-stim", "trial_index": 165, "time_elapsed": 844259, "internal_node_id": "0.0-122.0-7.0"}}, {"uniqueid": "MTK0758:34X6J5FLPU5Z63RXC43PT6QJE1CQJX", "current_trial": 166, "dateTime": 1512699726377, "trialdata": {"rt": -1, "stimulus": "<p id=\"stim\">2</p>", "key_press": -1, "trial_type": "single-stim", "trial_index": 166, "time_elapsed": 845261, "internal_node_id": "0.0-122.0-8.0"}}, {"uniqueid": "MTK0758:34X6J5FLPU5Z63RXC43PT6QJE1CQJX", "current_trial": 167, "dateTime": 1512699727379, "trialdata": {"rt": -1, "stimulus": "<p id=\"stim\">1</p>", "key_press": -1, "trial_type": "single-stim", "trial_index": 167, "time_elapsed": 846263, "internal_node_id": "0.0-122.0-9.0"}}, {"uniqueid": "MTK0758:34X6J5FLPU5Z63RXC43PT6QJE1CQJX", "current_trial": 168, "dateTime": 1512699728881, "trialdata": {"rt": -1, "stimulus": "<p id=\"stim\">+</p>", "key_press": -1, "type": "FIXATION", "trial_type": "single-stim", "trial_index": 168, "time_elapsed": 847765, "internal_node_id": "0.0-123.0-0.0"}}, {"uniqueid": "MTK0758:34X6J5FLPU5Z63RXC43PT6QJE1CQJX", "current_trial": 169, "dateTime": 1512699729683, "trialdata": {"rt": -1, "stimulus": "<p id=\"stim\">SHELF</p>", "key_press": -1, "type": "PRES_VIS", "word": "shelf", "wordID": 1279, "conditions": [24, 800, "v", 24000], "trial": 4, "serialpos": 0, "trial_type": "single-stim", "trial_index": 169, "time_elapsed": 848566, "internal_node_id": "0.0-124.0"}}, {"uniqueid": "MTK0758:34X6J5FLPU5Z63RXC43PT6QJE1CQJX", "current_trial": 170, "dateTime": 1512699731624, "trialdata": {"rt": -1, "stimulus": "<p id=\"stim\">DAUGHTER</p>", "key_press": -1, "type": "PRES_VIS", "word": "daughter", "wordID": 441, "conditions": [24, 800, "v", 24000], "trial": 4, "serialpos": 1, "trial_type": "single-stim", "trial_index": 170, "time_elapsed": 850507, "internal_node_id": "0.0-125.0"}}, {"uniqueid": "MTK0758:34X6J5FLPU5Z63RXC43PT6QJE1CQJX", "current_trial": 171, "dateTime": 1512699733473, "trialdata": {"rt": -1, "stimulus": "<p id=\"stim\">BABY</p>", "key_press": -1, "type": "PRES_VIS", "word": "baby", "wordID": 63, "conditions": [24, 800, "v", 24000], "trial": 4, "serialpos": 2, "trial_type": "single-stim", "trial_index": 171, "time_elapsed": 852357, "internal_node_id": "0.0-126.0"}}, {"uniqueid": "MTK0758:34X6J5FLPU5Z63RXC43PT6QJE1CQJX", "current_trial": 172, "dateTime": 1512699735375, "trialdata": {"rt": -1, "stimulus": "<p id=\"stim\">RABBIT</p>", "key_press": -1, "type": "PRES_VIS", "word": "rabbit", "wordID": 1151, "conditions": [24, 800, "v", 24000], "trial": 4, "serialpos": 3, "trial_type": "single-stim", "trial_index": 172, "time_elapsed": 854258, "internal_node_id": "0.0-127.0"}}, {"uniqueid": "MTK0758:34X6J5FLPU5Z63RXC43PT6QJE1CQJX", "current_trial": 173, "dateTime": 1512699737205, "trialdata": {"rt": -1, "stimulus": "<p id=\"stim\">BANK</p>", "key_press": -1, "type": "PRES_VIS", "word": "bank", "wordID": 82, "conditions": [24, 800, "v", 24000], "trial": 4, "serialpos": 4, "trial_type": "single-stim", "trial_index": 173, "time_elapsed": 856089, "internal_node_id": "0.0-128.0"}}, {"uniqueid": "MTK0758:34X6J5FLPU5Z63RXC43PT6QJE1CQJX", "current_trial": 174, "dateTime": 1512699738844, "trialdata": {"rt": -1, "stimulus": "<p id=\"stim\">TYPIST</p>", "key_press": -1, "type": "PRES_VIS", "word": "typist", "wordID": 1531, "conditions": [24, 800, "v", 24000], "trial": 4, "serialpos": 5, "trial_type": "single-stim", "trial_index": 174, "time_elapsed": 857728, "internal_node_id": "0.0-129.0"}}, {"uniqueid": "MTK0758:34X6J5FLPU5Z63RXC43PT6QJE1CQJX", "current_trial": 175, "dateTime": 1512699740601, "trialdata": {"rt": -1, "stimulus": "<p id=\"stim\">POWDER</p>", "key_press": -1, "type": "PRES_VIS", "word": "powder", "wordID": 1116, "conditions": [24, 800, "v", 24000], "trial": 4, "serialpos": 6, "trial_type": "single-stim", "trial_index": 175, "time_elapsed": 859484, "internal_node_id": "0.0-130.0"}}, {"uniqueid": "MTK0758:34X6J5FLPU5Z63RXC43PT6QJE1CQJX", "current_trial": 176, "dateTime": 1512699742230, "trialdata": {"rt": -1, "stimulus": "<p id=\"stim\">MUMMY</p>", "key_press": -1, "type": "PRES_VIS", "word": "mummy", "wordID": 931, "conditions": [24, 800, "v", 24000], "trial": 4, "serialpos": 7, "trial_type": "single-stim", "trial_index": 176, "time_elapsed": 861114, "internal_node_id": "0.0-131.0"}}, {"uniqueid": "MTK0758:34X6J5FLPU5Z63RXC43PT6QJE1CQJX", "current_trial": 177, "dateTime": 1512699743941, "trialdata": {"rt": -1, "stimulus": "<p id=\"stim\">PUPPY</p>", "key_press": -1, "type": "PRES_VIS", "word": "puppy", "wordID": 1143, "conditions": [24, 800, "v", 24000], "trial": 4, "serialpos": 8, "trial_type": "single-stim", "trial_index": 177, "time_elapsed": 862825, "internal_node_id": "0.0-132.0"}}, {"uniqueid": "MTK0758:34X6J5FLPU5Z63RXC43PT6QJE1CQJX", "current_trial": 178, "dateTime": 1512699745714, "trialdata": {"rt": -1, "stimulus": "<p id=\"stim\">PUDDING</p>", "key_press": -1, "type": "PRES_VIS", "word": "pudding", "wordID": 1138, "conditions": [24, 800, "v", 24000], "trial": 4, "serialpos": 9, "trial_type": "single-stim", "trial_index": 178, "time_elapsed": 864597, "internal_node_id": "0.0-133.0"}}, {"uniqueid": "MTK0758:34X6J5FLPU5Z63RXC43PT6QJE1CQJX", "current_trial": 179, "dateTime": 1512699747621, "trialdata": {"rt": -1, "stimulus": "<p id=\"stim\">TWIG</p>", "key_press": -1, "type": "PRES_VIS", "word": "twig", "wordID": 1526, "conditions": [24, 800, "v", 24000], "trial": 4, "serialpos": 10, "trial_type": "single-stim", "trial_index": 179, "time_elapsed": 866504, "internal_node_id": "0.0-134.0"}}, {"uniqueid": "MTK0758:34X6J5FLPU5Z63RXC43PT6QJE1CQJX", "current_trial": 180, "dateTime": 1512699749430, "trialdata": {"rt": -1, "stimulus": "<p id=\"stim\">BANKER</p>", "key_press": -1, "type": "PRES_VIS", "word": "banker", "wordID": 83, "conditions": [24, 800, "v", 24000], "trial": 4, "serialpos": 11, "trial_type": "single-stim", "trial_index": 180, "time_elapsed": 868313, "internal_node_id": "0.0-135.0"}}, {"uniqueid": "MTK0758:34X6J5FLPU5Z63RXC43PT6QJE1CQJX", "current_trial": 181, "dateTime": 1512699751200, "trialdata": {"rt": -1, "stimulus": "<p id=\"stim\">COUCH</p>", "key_press": -1, "type": "PRES_VIS", "word": "couch", "wordID": 385, "conditions": [24, 800, "v", 24000], "trial": 4, "serialpos": 12, "trial_type": "single-stim", "trial_index": 181, "time_elapsed": 870084, "internal_node_id": "0.0-136.0"}}, {"uniqueid": "MTK0758:34X6J5FLPU5Z63RXC43PT6QJE1CQJX", "current_trial": 182, "dateTime": 1512699752976, "trialdata": {"rt": -1, "stimulus": "<p id=\"stim\">TART</p>", "key_press": -1, "type": "PRES_VIS", "word": "tart", "wordID": 1435, "conditions": [24, 800, "v", 24000], "trial": 4, "serialpos": 13, "trial_type": "single-stim", "trial_index": 182, "time_elapsed": 871860, "internal_node_id": "0.0-137.0"}}, {"uniqueid": "MTK0758:34X6J5FLPU5Z63RXC43PT6QJE1CQJX", "current_trial": 183, "dateTime": 1512699754891, "trialdata": {"rt": -1, "stimulus": "<p id=\"stim\">DRINK</p>", "key_press": -1, "type": "PRES_VIS", "word": "drink", "wordID": 497, "conditions": [24, 800, "v", 24000], "trial": 4, "serialpos": 14, "trial_type": "single-stim", "trial_index": 183, "time_elapsed": 873775, "internal_node_id": "0.0-138.0"}}, {"uniqueid": "MTK0758:34X6J5FLPU5Z63RXC43PT6QJE1CQJX", "current_trial": 184, "dateTime": 1512699756618, "trialdata": {"rt": -1, "stimulus": "<p id=\"stim\">GRILL</p>", "key_press": -1, "type": "PRES_VIS", "word": "grill", "wordID": 660, "conditions": [24, 800, "v", 24000], "trial": 4, "serialpos": 15, "trial_type": "single-stim", "trial_index": 184, "time_elapsed": 875502, "internal_node_id": "0.0-139.0"}}, {"uniqueid": "MTK0758:34X6J5FLPU5Z63RXC43PT6QJE1CQJX", "current_trial": 185, "dateTime": 1512699758521, "trialdata": {"rt": -1, "stimulus": "<p id=\"stim\">FLUTE</p>", "key_press": -1, "type": "PRES_VIS", "word": "flute", "wordID": 584, "conditions": [24, 800, "v", 24000], "trial": 4, "serialpos": 16, "trial_type": "single-stim", "trial_index": 185, "time_elapsed": 877405, "internal_node_id": "0.0-140.0"}}, {"uniqueid": "MTK0758:34X6J5FLPU5Z63RXC43PT6QJE1CQJX", "current_trial": 186, "dateTime": 1512699760489, "trialdata": {"rt": -1, "stimulus": "<p id=\"stim\">SHERIFF</p>", "key_press": -1, "type": "PRES_VIS", "word": "sheriff", "wordID": 1283, "conditions": [24, 800, "v", 24000], "trial": 4, "serialpos": 17, "trial_type": "single-stim", "trial_index": 186, "time_elapsed": 879373, "internal_node_id": "0.0-141.0"}}, {"uniqueid": "MTK0758:34X6J5FLPU5Z63RXC43PT6QJE1CQJX", "current_trial": 187, "dateTime": 1512699762444, "trialdata": {"rt": -1, "stimulus": "<p id=\"stim\">MAILMAN</p>", "key_press": -1, "type": "PRES_VIS", "word": "mailman", "wordID": 857, "conditions": [24, 800, "v", 24000], "trial": 4, "serialpos": 18, "trial_type": "single-stim", "trial_index": 187, "time_elapsed": 881328, "internal_node_id": "0.0-142.0"}}, {"uniqueid": "MTK0758:34X6J5FLPU5Z63RXC43PT6QJE1CQJX", "current_trial": 188, "dateTime": 1512699764346, "trialdata": {"rt": -1, "stimulus": "<p id=\"stim\">SODA</p>", "key_press": -1, "type": "PRES_VIS", "word": "soda", "wordID": 1340, "conditions": [24, 800, "v", 24000], "trial": 4, "serialpos": 19, "trial_type": "single-stim", "trial_index": 188, "time_elapsed": 883230, "internal_node_id": "0.0-143.0"}}, {"uniqueid": "MTK0758:34X6J5FLPU5Z63RXC43PT6QJE1CQJX", "current_trial": 189, "dateTime": 1512699766041, "trialdata": {"rt": -1, "stimulus": "<p id=\"stim\">BUTCHER</p>", "key_press": -1, "type": "PRES_VIS", "word": "butcher", "wordID": 202, "conditions": [24, 800, "v", 24000], "trial": 4, "serialpos": 20, "trial_type": "single-stim", "trial_index": 189, "time_elapsed": 884924, "internal_node_id": "0.0-144.0"}}, {"uniqueid": "MTK0758:34X6J5FLPU5Z63RXC43PT6QJE1CQJX", "current_trial": 190, "dateTime": 1512699767727, "trialdata": {"rt": -1, "stimulus": "<p id=\"stim\">GIRL</p>", "key_press": -1, "type": "PRES_VIS", "word": "girl", "wordID": 636, "conditions": [24, 800, "v", 24000], "trial": 4, "serialpos": 21, "trial_type": "single-stim", "trial_index": 190, "time_elapsed": 886611, "internal_node_id": "0.0-145.0"}}, {"uniqueid": "MTK0758:34X6J5FLPU5Z63RXC43PT6QJE1CQJX", "current_trial": 191, "dateTime": 1512699769611, "trialdata": {"rt": -1, "stimulus": "<p id=\"stim\">PRINCESS</p>", "key_press": -1, "type": "PRES_VIS", "word": "princess", "wordID": 1124, "conditions": [24, 800, "v", 24000], "trial": 4, "serialpos": 22, "trial_type": "single-stim", "trial_index": 191, "time_elapsed": 888494, "internal_node_id": "0.0-146.0"}}, {"uniqueid": "MTK0758:34X6J5FLPU5Z63RXC43PT6QJE1CQJX", "current_trial": 192, "dateTime": 1512699771465, "trialdata": {"rt": -1, "stimulus": "<p id=\"stim\">SNACK</p>", "key_press": -1, "type": "PRES_VIS", "word": "snack", "wordID": 1330, "conditions": [24, 800, "v", 24000], "trial": 4, "serialpos": 23, "trial_type": "single-stim", "trial_index": 192, "time_elapsed": 890349, "internal_node_id": "0.0-147.0"}}, {"uniqueid": "MTK0758:34X6J5FLPU5Z63RXC43PT6QJE1CQJX", "current_trial": 193, "dateTime": 1512699773779, "trialdata": {"rt": -1, "stimulus": "", "key_press": -1, "type": "PRE_RECALL_DELAY", "trial_type": "single-stim", "trial_index": 193, "time_elapsed": 892663, "internal_node_id": "0.0-148.0-0.0"}}, {"uniqueid": "MTK0758:34X6J5FLPU5Z63RXC43PT6QJE1CQJX", "current_trial": 194, "dateTime": 1512699774282, "trialdata": {"rt": -1000, "stimulus": "/static/audio/400Hz.wav", "key_press": -1, "type": "PRE_RECALL_ALERT", "trial_type": "single-audio", "trial_index": 194, "time_elapsed": 893165, "internal_node_id": "0.0-149.0"}}, {"uniqueid": "MTK0758:34X6J5FLPU5Z63RXC43PT6QJE1CQJX", "current_trial": 195, "dateTime": 1512699834289, "trialdata": {"rt": [3533, 7038, 8462, 10294, 11622, 13885, 15141, 16645, 18214, 21933, 25213, 29069], "recwords": ["snack", "snack", "girl", "daughter", "baby", "princess", "bank", "banker", "shelf", "rabbit", "puppy", "powder"], "type": "FREE_RECALL", "conditions": [24, 800, "v", 24000], "trial": 4, "trial_type": "free-recall", "trial_index": 195, "time_elapsed": 953168, "internal_node_id": "0.0-150.0-0.0"}}, {"uniqueid": "MTK0758:34X6J5FLPU5Z63RXC43PT6QJE1CQJX", "current_trial": 196, "dateTime": 1512699837639, "trialdata": {"rt": 1349, "key_press": 74, "type": "INSTRUCTIONS", "trial_type": "text", "trial_index": 196, "time_elapsed": 956523, "internal_node_id": "0.0-151.0"}}, {"uniqueid": "MTK0758:34X6J5FLPU5Z63RXC43PT6QJE1CQJX", "current_trial": 197, "dateTime": 1512699851642, "trialdata": {"rt": [4743, 8055, 9959, 11511], "responses": ["25", "13", "9", "11"], "num1": [7, 8, 6, 8, 1], "num2": [8, 3, 2, 2, 3], "num3": [8, 2, 1, 1, 8], "type": "DISTRACTOR", "conditions": [12, 800, "v", 12000], "trial": 5, "trial_type": "math-distractor", "trial_index": 197, "time_elapsed": 970525, "internal_node_id": "0.0-152.0"}}, {"uniqueid": "MTK0758:34X6J5FLPU5Z63RXC43PT6QJE1CQJX", "current_trial": 198, "dateTime": 1512699854643, "trialdata": {"rt": -1, "stimulus": "<p id=\"stim\">10</p>", "key_press": -1, "trial_type": "single-stim", "trial_index": 198, "time_elapsed": 973527, "internal_node_id": "0.0-153.0-0.0"}}, {"uniqueid": "MTK0758:34X6J5FLPU5Z63RXC43PT6QJE1CQJX", "current_trial": 199, "dateTime": 1512699855644, "trialdata": {"rt": -1, "stimulus": "<p id=\"stim\">9</p>", "key_press": -1, "trial_type": "single-stim", "trial_index": 199, "time_elapsed": 974528, "internal_node_id": "0.0-153.0-1.0"}}, {"uniqueid": "MTK0758:34X6J5FLPU5Z63RXC43PT6QJE1CQJX", "current_trial": 200, "dateTime": 1512699856645, "trialdata": {"rt": -1, "stimulus": "<p id=\"stim\">8</p>", "key_press": -1, "trial_type": "single-stim", "trial_index": 200, "time_elapsed": 975529, "internal_node_id": "0.0-153.0-2.0"}}, {"uniqueid": "MTK0758:34X6J5FLPU5Z63RXC43PT6QJE1CQJX", "current_trial": 201, "dateTime": 1512699857646, "trialdata": {"rt": -1, "stimulus": "<p id=\"stim\">7</p>", "key_press": -1, "trial_type": "single-stim", "trial_index": 201, "time_elapsed": 976530, "internal_node_id": "0.0-153.0-3.0"}}, {"uniqueid": "MTK0758:34X6J5FLPU5Z63RXC43PT6QJE1CQJX", "current_trial": 202, "dateTime": 1512699858647, "trialdata": {"rt": -1, "stimulus": "<p id=\"stim\">6</p>", "key_press": -1, "trial_type": "single-stim", "trial_index": 202, "time_elapsed": 977531, "internal_node_id": "0.0-153.0-4.0"}}, {"uniqueid": "MTK0758:34X6J5FLPU5Z63RXC43PT6QJE1CQJX", "current_trial": 203, "dateTime": 1512699859648, "trialdata": {"rt": -1, "stimulus": "<p id=\"stim\">5</p>", "key_press": -1, "trial_type": "single-stim", "trial_index": 203, "time_elapsed": 978532, "internal_node_id": "0.0-153.0-5.0"}}, {"uniqueid": "MTK0758:34X6J5FLPU5Z63RXC43PT6QJE1CQJX", "current_trial": 204, "dateTime": 1512699860650, "trialdata": {"rt": -1, "stimulus": "<p id=\"stim\">4</p>", "key_press": -1, "trial_type": "single-stim", "trial_index": 204, "time_elapsed": 979533, "internal_node_id": "0.0-153.0-6.0"}}, {"uniqueid": "MTK0758:34X6J5FLPU5Z63RXC43PT6QJE1CQJX", "current_trial": 205, "dateTime": 1512699861651, "trialdata": {"rt": -1, "stimulus": "<p id=\"stim\">3</p>", "key_press": -1, "trial_type": "single-stim", "trial_index": 205, "time_elapsed": 980534, "internal_node_id": "0.0-153.0-7.0"}}, {"uniqueid": "MTK0758:34X6J5FLPU5Z63RXC43PT6QJE1CQJX", "current_trial": 206, "dateTime": 1512699862652, "trialdata": {"rt": -1, "stimulus": "<p id=\"stim\">2</p>", "key_press": -1, "trial_type": "single-stim", "trial_index": 206, "time_elapsed": 981536, "internal_node_id": "0.0-153.0-8.0"}}, {"uniqueid": "MTK0758:34X6J5FLPU5Z63RXC43PT6QJE1CQJX", "current_trial": 207, "dateTime": 1512699863653, "trialdata": {"rt": -1, "stimulus": "<p id=\"stim\">1</p>", "key_press": -1, "trial_type": "single-stim", "trial_index": 207, "time_elapsed": 982537, "internal_node_id": "0.0-153.0-9.0"}}, {"uniqueid": "MTK0758:34X6J5FLPU5Z63RXC43PT6QJE1CQJX", "current_trial": 208, "dateTime": 1512699865155, "trialdata": {"rt": -1, "stimulus": "<p id=\"stim\">+</p>", "key_press": -1, "type": "FIXATION", "trial_type": "single-stim", "trial_index": 208, "time_elapsed": 984038, "internal_node_id": "0.0-154.0-0.0"}}, {"uniqueid": "MTK0758:34X6J5FLPU5Z63RXC43PT6QJE1CQJX", "current_trial": 209, "dateTime": 1512699865957, "trialdata": {"rt": -1, "stimulus": "<p id=\"stim\">CABBAGE</p>", "key_press": -1, "type": "PRES_VIS", "word": "cabbage", "wordID": 209, "conditions": [12, 800, "v", 12000], "trial": 5, "serialpos": 0, "trial_type": "single-stim", "trial_index": 209, "time_elapsed": 984841, "internal_node_id": "0.0-155.0"}}, {"uniqueid": "MTK0758:34X6J5FLPU5Z63RXC43PT6QJE1CQJX", "current_trial": 210, "dateTime": 1512699867828, "trialdata": {"rt": -1, "stimulus": "<p id=\"stim\">STONE</p>", "key_press": -1, "type": "PRES_VIS", "word": "stone", "wordID": 1384, "conditions": [12, 800, "v", 12000], "trial": 5, "serialpos": 1, "trial_type": "single-stim", "trial_index": 210, "time_elapsed": 986712, "internal_node_id": "0.0-156.0"}}, {"uniqueid": "MTK0758:34X6J5FLPU5Z63RXC43PT6QJE1CQJX", "current_trial": 211, "dateTime": 1512699869812, "trialdata": {"rt": -1, "stimulus": "<p id=\"stim\">GARBAGE</p>", "key_press": -1, "type": "PRES_VIS", "word": "garbage", "wordID": 621, "conditions": [12, 800, "v", 12000], "trial": 5, "serialpos": 2, "trial_type": "single-stim", "trial_index": 211, "time_elapsed": 988695, "internal_node_id": "0.0-157.0"}}, {"uniqueid": "MTK0758:34X6J5FLPU5Z63RXC43PT6QJE1CQJX", "current_trial": 212, "dateTime": 1512699871762, "trialdata": {"rt": -1, "stimulus": "<p id=\"stim\">CHAUFFEUR</p>", "key_press": -1, "type": "PRES_VIS", "word": "chauffeur", "wordID": 282, "conditions": [12, 800, "v", 12000], "trial": 5, "serialpos": 3, "trial_type": "single-stim", "trial_index": 212, "time_elapsed": 990646, "internal_node_id": "0.0-158.0"}}, {"uniqueid": "MTK0758:34X6J5FLPU5Z63RXC43PT6QJE1CQJX", "current_trial": 213, "dateTime": 1512699873696, "trialdata": {"rt": -1, "stimulus": "<p id=\"stim\">TURNIP</p>", "key_press": -1, "type": "PRES_VIS", "word": "turnip", "wordID": 1520, "conditions": [12, 800, "v", 12000], "trial": 5, "serialpos": 4, "trial_type": "single-stim", "trial_index": 213, "time_elapsed": 992580, "internal_node_id": "0.0-159.0"}}, {"uniqueid": "MTK0758:34X6J5FLPU5Z63RXC43PT6QJE1CQJX", "current_trial": 214, "dateTime": 1512699875632, "trialdata": {"rt": -1, "stimulus": "<p id=\"stim\">CAMEL</p>", "key_press": -1, "type": "PRES_VIS", "word": "camel", "wordID": 222, "conditions": [12, 800, "v", 12000], "trial": 5, "serialpos": 5, "trial_type": "single-stim", "trial_index": 214, "time_elapsed": 994516, "internal_node_id": "0.0-160.0"}}, {"uniqueid": "MTK0758:34X6J5FLPU5Z63RXC43PT6QJE1CQJX", "current_trial": 215, "dateTime": 1512699877455, "trialdata": {"rt": -1, "stimulus": "<p id=\"stim\">TURKEY</p>", "key_press": -1, "type": "PRES_VIS", "word": "turkey", "wordID": 1519, "conditions": [12, 800, "v", 12000], "trial": 5, "serialpos": 6, "trial_type": "single-stim", "trial_index": 215, "time_elapsed": 996338, "internal_node_id": "0.0-161.0"}}, {"uniqueid": "MTK0758:34X6J5FLPU5Z63RXC43PT6QJE1CQJX", "current_trial": 216, "dateTime": 1512699879191, "trialdata": {"rt": -1, "stimulus": "<p id=\"stim\">QUAIL</p>", "key_press": -1, "type": "PRES_VIS", "word": "quail", "wordID": 1146, "conditions": [12, 800, "v", 12000], "trial": 5, "serialpos": 7, "trial_type": "single-stim", "trial_index": 216, "time_elapsed": 998075, "internal_node_id": "0.0-162.0"}}, {"uniqueid": "MTK0758:34X6J5FLPU5Z63RXC43PT6QJE1CQJX", "current_trial": 217, "dateTime": 1512699880796, "trialdata": {"rt": -1, "stimulus": "<p id=\"stim\">NAPKIN</p>", "key_press": -1, "type": "PRES_VIS", "word": "napkin", "wordID": 936, "conditions": [12, 800, "v", 12000], "trial": 5, "serialpos": 8, "trial_type": "single-stim", "trial_index": 217, "time_elapsed": 999679, "internal_node_id": "0.0-163.0"}}, {"uniqueid": "MTK0758:34X6J5FLPU5Z63RXC43PT6QJE1CQJX", "current_trial": 218, "dateTime": 1512699882569, "trialdata": {"rt": -1, "stimulus": "<p id=\"stim\">LOVER</p>", "key_press": -1, "type": "PRES_VIS", "word": "lover", "wordID": 845, "conditions": [12, 800, "v", 12000], "trial": 5, "serialpos": 9, "trial_type": "single-stim", "trial_index": 218, "time_elapsed": 1001452, "internal_node_id": "0.0-164.0"}}, {"uniqueid": "MTK0758:34X6J5FLPU5Z63RXC43PT6QJE1CQJX", "current_trial": 219, "dateTime": 1512699884176, "trialdata": {"rt": -1, "stimulus": "<p id=\"stim\">NECKLACE</p>", "key_press": -1, "type": "PRES_VIS", "word": "necklace", "wordID": 939, "conditions": [12, 800, "v", 12000], "trial": 5, "serialpos": 10, "trial_type": "single-stim", "trial_index": 219, "time_elapsed": 1003059, "internal_node_id": "0.0-165.0"}}, {"uniqueid": "MTK0758:34X6J5FLPU5Z63RXC43PT6QJE1CQJX", "current_trial": 220, "dateTime": 1512699886152, "trialdata": {"rt": -1, "stimulus": "<p id=\"stim\">PLATE</p>", "key_press": -1, "type": "PRES_VIS", "word": "plate", "wordID": 1085, "conditions": [12, 800, "v", 12000], "trial": 5, "serialpos": 11, "trial_type": "single-stim", "trial_index": 220, "time_elapsed": 1005035, "internal_node_id": "0.0-166.0"}}, {"uniqueid": "MTK0758:34X6J5FLPU5Z63RXC43PT6QJE1CQJX", "current_trial": 221, "dateTime": 1512699888620, "trialdata": {"rt": -1, "stimulus": "", "key_press": -1, "type": "PRE_RECALL_DELAY", "trial_type": "single-stim", "trial_index": 221, "time_elapsed": 1007503, "internal_node_id": "0.0-167.0-0.0"}}, {"uniqueid": "MTK0758:34X6J5FLPU5Z63RXC43PT6QJE1CQJX", "current_trial": 222, "dateTime": 1512699889121, "trialdata": {"rt": -1000, "stimulus": "/static/audio/400Hz.wav", "key_press": -1, "type": "PRE_RECALL_ALERT", "trial_type": "single-audio", "trial_index": 222, "time_elapsed": 1008005, "internal_node_id": "0.0-168.0"}}, {"uniqueid": "MTK0758:34X6J5FLPU5Z63RXC43PT6QJE1CQJX", "current_trial": 223, "dateTime": 1512699949128, "trialdata": {"rt": [3172, 4619, 6708, 8796, 11323, 13195, 15428, 20803, 24611, 28395, 32839], "recwords": ["napkin", "lover", "necklace", "plate", "camel", "turkey", "quail", "cabbage", "chauffeur", "turnip", "lover"], "type": "FREE_RECALL", "conditions": [12, 800, "v", 12000], "trial": 5, "trial_type": "free-recall", "trial_index": 223, "time_elapsed": 1068007, "internal_node_id": "0.0-169.0-0.0"}}, {"uniqueid": "MTK0758:34X6J5FLPU5Z63RXC43PT6QJE1CQJX", "current_trial": 224, "dateTime": 1512699952422, "trialdata": {"rt": 1292, "key_press": 75, "type": "INSTRUCTIONS", "trial_type": "text", "trial_index": 224, "time_elapsed": 1071306, "internal_node_id": "0.0-170.0"}}, {"uniqueid": "MTK0758:34X6J5FLPU5Z63RXC43PT6QJE1CQJX", "current_trial": 225, "dateTime": 1512699978426, "trialdata": {"rt": [1571, 3948, 5868, 7812, 9467, 11420, 13755, 15628, 17388, 21331, 23267], "responses": ["5", "15", "16", "13", "11", "17", "14", "18", "18", "213", "12"], "num1": [1, 9, 2, 3, 3, 9, 1, 9, 3, 7, 3, 3], "num2": [2, 3, 9, 1, 1, 7, 5, 7, 6, 8, 8, 3], "num3": [2, 3, 5, 9, 7, 1, 8, 3, 9, 6, 1, 3], "type": "DISTRACTOR", "conditions": [12, 1600, "a", 24000], "trial": 6, "trial_type": "math-distractor", "trial_index": 225, "time_elapsed": 1097310, "internal_node_id": "0.0-171.0"}}, {"uniqueid": "MTK0758:34X6J5FLPU5Z63RXC43PT6QJE1CQJX", "current_trial": 226, "dateTime": 1512699981429, "trialdata": {"rt": -1, "stimulus": "<p id=\"stim\">10</p>", "key_press": -1, "trial_type": "single-stim", "trial_index": 226, "time_elapsed": 1100312, "internal_node_id": "0.0-172.0-0.0"}}, {"uniqueid": "MTK0758:34X6J5FLPU5Z63RXC43PT6QJE1CQJX", "current_trial": 227, "dateTime": 1512699982431, "trialdata": {"rt": -1, "stimulus": "<p id=\"stim\">9</p>", "key_press": -1, "trial_type": "single-stim", "trial_index": 227, "time_elapsed": 1101314, "internal_node_id": "0.0-172.0-1.0"}}, {"uniqueid": "MTK0758:34X6J5FLPU5Z63RXC43PT6QJE1CQJX", "current_trial": 228, "dateTime": 1512699983432, "trialdata": {"rt": -1, "stimulus": "<p id=\"stim\">8</p>", "key_press": -1, "trial_type": "single-stim", "trial_index": 228, "time_elapsed": 1102316, "internal_node_id": "0.0-172.0-2.0"}}, {"uniqueid": "MTK0758:34X6J5FLPU5Z63RXC43PT6QJE1CQJX", "current_trial": 229, "dateTime": 1512699984434, "trialdata": {"rt": -1, "stimulus": "<p id=\"stim\">7</p>", "key_press": -1, "trial_type": "single-stim", "trial_index": 229, "time_elapsed": 1103318, "internal_node_id": "0.0-172.0-3.0"}}, {"uniqueid": "MTK0758:34X6J5FLPU5Z63RXC43PT6QJE1CQJX", "current_trial": 230, "dateTime": 1512699985436, "trialdata": {"rt": -1, "stimulus": "<p id=\"stim\">6</p>", "key_press": -1, "trial_type": "single-stim", "trial_index": 230, "time_elapsed": 1104320, "internal_node_id": "0.0-172.0-4.0"}}, {"uniqueid": "MTK0758:34X6J5FLPU5Z63RXC43PT6QJE1CQJX", "current_trial": 231, "dateTime": 1512699986438, "trialdata": {"rt": -1, "stimulus": "<p id=\"stim\">5</p>", "key_press": -1, "trial_type": "single-stim", "trial_index": 231, "time_elapsed": 1105322, "internal_node_id": "0.0-172.0-5.0"}}, {"uniqueid": "MTK0758:34X6J5FLPU5Z63RXC43PT6QJE1CQJX", "current_trial": 232, "dateTime": 1512699987440, "trialdata": {"rt": -1, "stimulus": "<p id=\"stim\">4</p>", "key_press": -1, "trial_type": "single-stim", "trial_index": 232, "time_elapsed": 1106324, "internal_node_id": "0.0-172.0-6.0"}}, {"uniqueid": "MTK0758:34X6J5FLPU5Z63RXC43PT6QJE1CQJX", "current_trial": 233, "dateTime": 1512699988442, "trialdata": {"rt": -1, "stimulus": "<p id=\"stim\">3</p>", "key_press": -1, "trial_type": "single-stim", "trial_index": 233, "time_elapsed": 1107325, "internal_node_id": "0.0-172.0-7.0"}}, {"uniqueid": "MTK0758:34X6J5FLPU5Z63RXC43PT6QJE1CQJX", "current_trial": 234, "dateTime": 1512699989443, "trialdata": {"rt": -1, "stimulus": "<p id=\"stim\">2</p>", "key_press": -1, "trial_type": "single-stim", "trial_index": 234, "time_elapsed": 1108327, "internal_node_id": "0.0-172.0-8.0"}}, {"uniqueid": "MTK0758:34X6J5FLPU5Z63RXC43PT6QJE1CQJX", "current_trial": 235, "dateTime": 1512699990445, "trialdata": {"rt": -1, "stimulus": "<p id=\"stim\">1</p>", "key_press": -1, "trial_type": "single-stim", "trial_index": 235, "time_elapsed": 1109329, "internal_node_id": "0.0-172.0-9.0"}}, {"uniqueid": "MTK0758:34X6J5FLPU5Z63RXC43PT6QJE1CQJX", "current_trial": 236, "dateTime": 1512699991947, "trialdata": {"rt": -1, "stimulus": "<p id=\"stim\">+</p>", "key_press": -1, "type": "FIXATION", "trial_type": "single-stim", "trial_index": 236, "time_elapsed": 1110830, "internal_node_id": "0.0-173.0-0.0"}}, {"uniqueid": "MTK0758:34X6J5FLPU5Z63RXC43PT6QJE1CQJX", "current_trial": 237, "dateTime": 1512699994600, "trialdata": {"rt": -1000, "stimulus": "/static/audio/wordpool/MARSH.wav", "key_press": -1, "type": "PRES_AUD", "word": "marsh", "wordID": 873, "conditions": [12, 1600, "a", 24000], "trial": 6, "serialpos": 0, "trial_type": "single-audio", "trial_index": 237, "time_elapsed": 1113484, "internal_node_id": "0.0-174.0"}}, {"uniqueid": "MTK0758:34X6J5FLPU5Z63RXC43PT6QJE1CQJX", "current_trial": 238, "dateTime": 1512699997270, "trialdata": {"rt": -1000, "stimulus": "/static/audio/wordpool/FLASK.wav", "key_press": -1, "type": "PRES_AUD", "word": "flask", "wordID": 575, "conditions": [12, 1600, "a", 24000], "trial": 6, "serialpos": 1, "trial_type": "single-audio", "trial_index": 238, "time_elapsed": 1116154, "internal_node_id": "0.0-175.0"}}, {"uniqueid": "MTK0758:34X6J5FLPU5Z63RXC43PT6QJE1CQJX", "current_trial": 239, "dateTime": 1512699999845, "trialdata": {"rt": -1000, "stimulus": "/static/audio/wordpool/CIGAR.wav", "key_press": -1, "type": "PRES_AUD", "word": "cigar", "wordID": 307, "conditions": [12, 1600, "a", 24000], "trial": 6, "serialpos": 2, "trial_type": "single-audio", "trial_index": 239, "time_elapsed": 1118729, "internal_node_id": "0.0-176.0"}}, {"uniqueid": "MTK0758:34X6J5FLPU5Z63RXC43PT6QJE1CQJX", "current_trial": 240, "dateTime": 1512700002388, "trialdata": {"rt": -1000, "stimulus": "/static/audio/wordpool/GUITAR.wav", "key_press": -1, "type": "PRES_AUD", "word": "guitar", "wordID": 669, "conditions": [12, 1600, "a", 24000], "trial": 6, "serialpos": 3, "trial_type": "single-audio", "trial_index": 240, "time_elapsed": 1121272, "internal_node_id": "0.0-177.0"}}, {"uniqueid": "MTK0758:34X6J5FLPU5Z63RXC43PT6QJE1CQJX", "current_trial": 241, "dateTime": 1512700005001, "trialdata": {"rt": -1000, "stimulus": "/static/audio/wordpool/FUNGUS.wav", "key_press": -1, "type": "PRES_AUD", "word": "fungus", "wordID": 613, "conditions": [12, 1600, "a", 24000], "trial": 6, "serialpos": 4, "trial_type": "single-audio", "trial_index": 241, "time_elapsed": 1123884, "internal_node_id": "0.0-178.0"}}, {"uniqueid": "MTK0758:34X6J5FLPU5Z63RXC43PT6QJE1CQJX", "current_trial": 242, "dateTime": 1512700007779, "trialdata": {"rt": -1000, "stimulus": "/static/audio/wordpool/JUDGE.wav", "key_press": -1, "type": "PRES_AUD", "word": "judge", "wordID": 760, "conditions": [12, 1600, "a", 24000], "trial": 6, "serialpos": 5, "trial_type": "single-audio", "trial_index": 242, "time_elapsed": 1126663, "internal_node_id": "0.0-179.0"}}, {"uniqueid": "MTK0758:34X6J5FLPU5Z63RXC43PT6QJE1CQJX", "current_trial": 243, "dateTime": 1512700010320, "trialdata": {"rt": -1000, "stimulus": "/static/audio/wordpool/HERO.wav", "key_press": -1, "type": "PRES_AUD", "word": "hero", "wordID": 705, "conditions": [12, 1600, "a", 24000], "trial": 6, "serialpos": 6, "trial_type": "single-audio", "trial_index": 243, "time_elapsed": 1129203, "internal_node_id": "0.0-180.0"}}, {"uniqueid": "MTK0758:34X6J5FLPU5Z63RXC43PT6QJE1CQJX", "current_trial": 244, "dateTime": 1512700012743, "trialdata": {"rt": -1000, "stimulus": "/static/audio/wordpool/BISON.wav", "key_press": -1, "type": "PRES_AUD", "word": "bison", "wordID": 130, "conditions": [12, 1600, "a", 24000], "trial": 6, "serialpos": 7, "trial_type": "single-audio", "trial_index": 244, "time_elapsed": 1131627, "internal_node_id": "0.0-181.0"}}, {"uniqueid": "MTK0758:34X6J5FLPU5Z63RXC43PT6QJE1CQJX", "current_trial": 245, "dateTime": 1512700015210, "trialdata": {"rt": -1000, "stimulus": "/static/audio/wordpool/SMOG.wav", "key_press": -1, "type": "PRES_AUD", "word": "smog", "wordID": 1329, "conditions": [12, 1600, "a", 24000], "trial": 6, "serialpos": 8, "trial_type": "single-audio", "trial_index": 245, "time_elapsed": 1134093, "internal_node_id": "0.0-182.0"}}, {"uniqueid": "MTK0758:34X6J5FLPU5Z63RXC43PT6QJE1CQJX", "current_trial": 246, "dateTime": 1512700017754, "trialdata": {"rt": -1000, "stimulus": "/static/audio/wordpool/SURVEY.wav", "key_press": -1, "type": "PRES_AUD", "word": "survey", "wordID": 1413, "conditions": [12, 1600, "a", 24000], "trial": 6, "serialpos": 9, "trial_type": "single-audio", "trial_index": 246, "time_elapsed": 1136638, "internal_node_id": "0.0-183.0"}}, {"uniqueid": "MTK0758:34X6J5FLPU5Z63RXC43PT6QJE1CQJX", "current_trial": 247, "dateTime": 1512700020384, "trialdata": {"rt": -1000, "stimulus": "/static/audio/wordpool/REPORT.wav", "key_press": -1, "type": "PRES_AUD", "word": "report", "wordID": 1183, "conditions": [12, 1600, "a", 24000], "trial": 6, "serialpos": 10, "trial_type": "single-audio", "trial_index": 247, "time_elapsed": 1139268, "internal_node_id": "0.0-184.0"}}, {"uniqueid": "MTK0758:34X6J5FLPU5Z63RXC43PT6QJE1CQJX", "current_trial": 248, "dateTime": 1512700023023, "trialdata": {"rt": -1000, "stimulus": "/static/audio/wordpool/WASP.wav", "key_press": -1, "type": "PRES_AUD", "word": "wasp", "wordID": 1592, "conditions": [12, 1600, "a", 24000], "trial": 6, "serialpos": 11, "trial_type": "single-audio", "trial_index": 248, "time_elapsed": 1141906, "internal_node_id": "0.0-185.0"}}, {"uniqueid": "MTK0758:34X6J5FLPU5Z63RXC43PT6QJE1CQJX", "current_trial": 249, "dateTime": 1512700024377, "trialdata": {"rt": -1, "stimulus": "", "key_press": -1, "type": "PRE_RECALL_DELAY", "trial_type": "single-stim", "trial_index": 249, "time_elapsed": 1143260, "internal_node_id": "0.0-186.0-0.0"}}, {"uniqueid": "MTK0758:34X6J5FLPU5Z63RXC43PT6QJE1CQJX", "current_trial": 250, "dateTime": 1512700024878, "trialdata": {"rt": -1000, "stimulus": "/static/audio/400Hz.wav", "key_press": -1, "type": "PRE_RECALL_ALERT", "trial_type": "single-audio", "trial_index": 250, "time_elapsed": 1143762, "internal_node_id": "0.0-187.0"}}, {"uniqueid": "MTK0758:34X6J5FLPU5Z63RXC43PT6QJE1CQJX", "current_trial": 251, "dateTime": 1512700084886, "trialdata": {"rt": [3300, 4859, 6579, 8235, 9643, 11147, 13139, 21339, 28474, 34442], "recwords": ["wasp", "marsh", "survey", "report", "flask", "hero", "cigar", "wasp", "judge", "gavel"], "type": "FREE_RECALL", "conditions": [12, 1600, "a", 24000], "trial": 6, "trial_type": "free-recall", "trial_index": 251, "time_elapsed": 1203764, "internal_node_id": "0.0-188.0-0.0"}}, {"uniqueid": "MTK0758:34X6J5FLPU5Z63RXC43PT6QJE1CQJX", "current_trial": 252, "dateTime": 1512700089010, "trialdata": {"rt": 2122, "key_press": 75, "type": "INSTRUCTIONS", "trial_type": "text", "trial_index": 252, "time_elapsed": 1207894, "internal_node_id": "0.0-189.0"}}, {"uniqueid": "MTK0758:34X6J5FLPU5Z63RXC43PT6QJE1CQJX", "current_trial": 253, "dateTime": 1512700103016, "trialdata": {"rt": [2244, 7091, 9348, 11403], "responses": ["6", "16", "23", "11"], "num1": [2, 5, 8, 7, 5], "num2": [2, 2, 7, 1, 8], "num3": [2, 7, 8, 2, 3], "type": "DISTRACTOR", "conditions": [24, 1600, "a", 12000], "trial": 7, "trial_type": "math-distractor", "trial_index": 253, "time_elapsed": 1221899, "internal_node_id": "0.0-190.0"}}, {"uniqueid": "MTK0758:34X6J5FLPU5Z63RXC43PT6QJE1CQJX", "current_trial": 254, "dateTime": 1512700106018, "trialdata": {"rt": -1, "stimulus": "<p id=\"stim\">10</p>", "key_press": -1, "trial_type": "single-stim", "trial_index": 254, "time_elapsed": 1224902, "internal_node_id": "0.0-191.0-0.0"}}, {"uniqueid": "MTK0758:34X6J5FLPU5Z63RXC43PT6QJE1CQJX", "current_trial": 255, "dateTime": 1512700107020, "trialdata": {"rt": -1, "stimulus": "<p id=\"stim\">9</p>", "key_press": -1, "trial_type": "single-stim", "trial_index": 255, "time_elapsed": 1225904, "internal_node_id": "0.0-191.0-1.0"}}, {"uniqueid": "MTK0758:34X6J5FLPU5Z63RXC43PT6QJE1CQJX", "current_trial": 256, "dateTime": 1512700108022, "trialdata": {"rt": -1, "stimulus": "<p id=\"stim\">8</p>", "key_press": -1, "trial_type": "single-stim", "trial_index": 256, "time_elapsed": 1226905, "internal_node_id": "0.0-191.0-2.0"}}, {"uniqueid": "MTK0758:34X6J5FLPU5Z63RXC43PT6QJE1CQJX", "current_trial": 257, "dateTime": 1512700109023, "trialdata": {"rt": -1, "stimulus": "<p id=\"stim\">7</p>", "key_press": -1, "trial_type": "single-stim", "trial_index": 257, "time_elapsed": 1227907, "internal_node_id": "0.0-191.0-3.0"}}, {"uniqueid": "MTK0758:34X6J5FLPU5Z63RXC43PT6QJE1CQJX", "current_trial": 258, "dateTime": 1512700110025, "trialdata": {"rt": -1, "stimulus": "<p id=\"stim\">6</p>", "key_press": -1, "trial_type": "single-stim", "trial_index": 258, "time_elapsed": 1228909, "internal_node_id": "0.0-191.0-4.0"}}, {"uniqueid": "MTK0758:34X6J5FLPU5Z63RXC43PT6QJE1CQJX", "current_trial": 259, "dateTime": 1512700111027, "trialdata": {"rt": -1, "stimulus": "<p id=\"stim\">5</p>", "key_press": -1, "trial_type": "single-stim", "trial_index": 259, "time_elapsed": 1229911, "internal_node_id": "0.0-191.0-5.0"}}, {"uniqueid": "MTK0758:34X6J5FLPU5Z63RXC43PT6QJE1CQJX", "current_trial": 260, "dateTime": 1512700112029, "trialdata": {"rt": -1, "stimulus": "<p id=\"stim\">4</p>", "key_press": -1, "trial_type": "single-stim", "trial_index": 260, "time_elapsed": 1230913, "internal_node_id": "0.0-191.0-6.0"}}, {"uniqueid": "MTK0758:34X6J5FLPU5Z63RXC43PT6QJE1CQJX", "current_trial": 261, "dateTime": 1512700113031, "trialdata": {"rt": -1, "stimulus": "<p id=\"stim\">3</p>", "key_press": -1, "trial_type": "single-stim", "trial_index": 261, "time_elapsed": 1231915, "internal_node_id": "0.0-191.0-7.0"}}, {"uniqueid": "MTK0758:34X6J5FLPU5Z63RXC43PT6QJE1CQJX", "current_trial": 262, "dateTime": 1512700114033, "trialdata": {"rt": -1, "stimulus": "<p id=\"stim\">2</p>", "key_press": -1, "trial_type": "single-stim", "trial_index": 262, "time_elapsed": 1232916, "internal_node_id": "0.0-191.0-8.0"}}, {"uniqueid": "MTK0758:34X6J5FLPU5Z63RXC43PT6QJE1CQJX", "current_trial": 263, "dateTime": 1512700115035, "trialdata": {"rt": -1, "stimulus": "<p id=\"stim\">1</p>", "key_press": -1, "trial_type": "single-stim", "trial_index": 263, "time_elapsed": 1233919, "internal_node_id": "0.0-191.0-9.0"}}, {"uniqueid": "MTK0758:34X6J5FLPU5Z63RXC43PT6QJE1CQJX", "current_trial": 264, "dateTime": 1512700116537, "trialdata": {"rt": -1, "stimulus": "<p id=\"stim\">+</p>", "key_press": -1, "type": "FIXATION", "trial_type": "single-stim", "trial_index": 264, "time_elapsed": 1235420, "internal_node_id": "0.0-192.0-0.0"}}, {"uniqueid": "MTK0758:34X6J5FLPU5Z63RXC43PT6QJE1CQJX", "current_trial": 265, "dateTime": 1512700119302, "trialdata": {"rt": -1000, "stimulus": "/static/audio/wordpool/LACE.wav", "key_press": -1, "type": "PRES_AUD", "word": "lace", "wordID": 791, "conditions": [24, 1600, "a", 12000], "trial": 7, "serialpos": 0, "trial_type": "single-audio", "trial_index": 265, "time_elapsed": 1238185, "internal_node_id": "0.0-193.0"}}, {"uniqueid": "MTK0758:34X6J5FLPU5Z63RXC43PT6QJE1CQJX", "current_trial": 266, "dateTime": 1512700121828, "trialdata": {"rt": -1000, "stimulus": "/static/audio/wordpool/APPLE.wav", "key_press": -1, "type": "PRES_AUD", "word": "apple", "wordID": 32, "conditions": [24, 1600, "a", 12000], "trial": 7, "serialpos": 1, "trial_type": "single-audio", "trial_index": 266, "time_elapsed": 1240712, "internal_node_id": "0.0-194.0"}}, {"uniqueid": "MTK0758:34X6J5FLPU5Z63RXC43PT6QJE1CQJX", "current_trial": 267, "dateTime": 1512700124279, "trialdata": {"rt": -1000, "stimulus": "/static/audio/wordpool/BUNNY.wav", "key_press": -1, "type": "PRES_AUD", "word": "bunny", "wordID": 197, "conditions": [24, 1600, "a", 12000], "trial": 7, "serialpos": 2, "trial_type": "single-audio", "trial_index": 267, "time_elapsed": 1243162, "internal_node_id": "0.0-195.0"}}, {"uniqueid": "MTK0758:34X6J5FLPU5Z63RXC43PT6QJE1CQJX", "current_trial": 268, "dateTime": 1512700126989, "trialdata": {"rt": -1000, "stimulus": "/static/audio/wordpool/AIRPORT.wav", "key_press": -1, "type": "PRES_AUD", "word": "airport", "wordID": 12, "conditions": [24, 1600, "a", 12000], "trial": 7, "serialpos": 3, "trial_type": "single-audio", "trial_index": 268, "time_elapsed": 1245872, "internal_node_id": "0.0-196.0"}}, {"uniqueid": "MTK0758:34X6J5FLPU5Z63RXC43PT6QJE1CQJX", "current_trial": 269, "dateTime": 1512700129428, "trialdata": {"rt": -1000, "stimulus": "/static/audio/wordpool/PEACH.wav", "key_press": -1, "type": "PRES_AUD", "word": "peach", "wordID": 1030, "conditions": [24, 1600, "a", 12000], "trial": 7, "serialpos": 4, "trial_type": "single-audio", "trial_index": 269, "time_elapsed": 1248312, "internal_node_id": "0.0-197.0"}}, {"uniqueid": "MTK0758:34X6J5FLPU5Z63RXC43PT6QJE1CQJX", "current_trial": 270, "dateTime": 1512700131931, "trialdata": {"rt": -1000, "stimulus": "/static/audio/wordpool/HAND.wav", "key_press": -1, "type": "PRES_AUD", "word": "hand", "wordID": 682, "conditions": [24, 1600, "a", 12000], "trial": 7, "serialpos": 5, "trial_type": "single-audio", "trial_index": 270, "time_elapsed": 1250814, "internal_node_id": "0.0-198.0"}}, {"uniqueid": "MTK0758:34X6J5FLPU5Z63RXC43PT6QJE1CQJX", "current_trial": 271, "dateTime": 1512700134366, "trialdata": {"rt": -1000, "stimulus": "/static/audio/wordpool/PORK.wav", "key_press": -1, "type": "PRES_AUD", "word": "pork", "wo