{"condition": 0, "counterbalance": 517, "assignmentId": "3KXIR214I5NSB26R7MQKRM3XCAO426", "workerId": "MTK0109", "hitId": "3FSEU3P2NR7ET8RG7MWWB3QV3XIRRV", "currenttrial": 625, "bonus": 0, "data": [{"uniqueid": "MTK0109:3KXIR214I5NSB26R7MQKRM3XCAO426", "current_trial": 0, "dateTime": 1509156470850, "trialdata": {"rt": 5952, "key_press": 32, "type": "INSTRUCTIONS", "trial_type": "text", "trial_index": 0, "time_elapsed": 5954, "internal_node_id": "0.0-0.0"}}, {"uniqueid": "MTK0109:3KXIR214I5NSB26R7MQKRM3XCAO426", "current_trial": 1, "dateTime": 1509156490378, "trialdata": {"rt": 19525, "key_press": 32, "type": "INSTRUCTIONS", "trial_type": "text", "trial_index": 1, "time_elapsed": 25482, "internal_node_id": "0.0-1.0"}}, {"uniqueid": "MTK0109:3KXIR214I5NSB26R7MQKRM3XCAO426", "current_trial": 2, "dateTime": 1509156504899, "trialdata": {"rt": [14503], "responses": ["ocean"], "type": "AUDIO_TEST", "trial_type": "audio-test", "trial_index": 2, "time_elapsed": 40003, "internal_node_id": "0.0-2.0"}}, {"uniqueid": "MTK0109:3KXIR214I5NSB26R7MQKRM3XCAO426", "current_trial": 3, "dateTime": 1509156536833, "trialdata": {"rt": [31927], "responses": ["crystal"], "type": "AUDIO_TEST", "trial_type": "audio-test", "trial_index": 3, "time_elapsed": 71938, "internal_node_id": "0.0-3.0"}}, {"uniqueid": "MTK0109:3KXIR214I5NSB26R7MQKRM3XCAO426", "current_trial": 4, "dateTime": 1509156544001, "trialdata": {"rt": [7160], "responses": ["spice"], "type": "AUDIO_TEST", "trial_type": "audio-test", "trial_index": 4, "time_elapsed": 79106, "internal_node_id": "0.0-4.0"}}, {"uniqueid": "MTK0109:3KXIR214I5NSB26R7MQKRM3XCAO426", "current_trial": 5, "dateTime": 1509156548584, "trialdata": {"rt": 3831, "key_press": 32, "type": "INSTRUCTIONS", "trial_type": "text", "trial_index": 5, "time_elapsed": 83689, "internal_node_id": "0.0-5.0"}}, {"uniqueid": "MTK0109:3KXIR214I5NSB26R7MQKRM3XCAO426", "current_trial": 6, "dateTime": 1509157092232, "trialdata": {"rt": 543647, "key_press": 32, "type": "INSTRUCTIONS", "trial_type": "text", "trial_index": 6, "time_elapsed": 627337, "internal_node_id": "0.0-6.0"}}, {"uniqueid": "MTK0109:3KXIR214I5NSB26R7MQKRM3XCAO426", "current_trial": 7, "dateTime": 1509157108120, "trialdata": {"rt": 15886, "key_press": 32, "type": "INSTRUCTIONS", "trial_type": "text", "trial_index": 7, "time_elapsed": 643225, "internal_node_id": "0.0-7.0"}}, {"uniqueid": "MTK0109:3KXIR214I5NSB26R7MQKRM3XCAO426", "current_trial": 8, "dateTime": 1509157175417, "trialdata": {"rt": 67296, "key_press": 32, "type": "INSTRUCTIONS", "trial_type": "text", "trial_index": 8, "time_elapsed": 710522, "internal_node_id": "0.0-8.0"}}, {"uniqueid": "MTK0109:3KXIR214I5NSB26R7MQKRM3XCAO426", "current_trial": 9, "dateTime": 1509157194424, "trialdata": {"rt": [8081, 11096, 16864], "responses": ["12", "8", "22"], "num1": [4, 1, 9, 4], "num2": [6, 5, 5, 6], "num3": [2, 2, 8, 4], "type": "DISTRACTOR", "conditions": [18, 1200, "v", 18000], "trial": 0, "trial_type": "math-distractor", "trial_index": 9, "time_elapsed": 729529, "internal_node_id": "0.0-9.0"}}, {"uniqueid": "MTK0109:3KXIR214I5NSB26R7MQKRM3XCAO426", "current_trial": 10, "dateTime": 1509157197428, "trialdata": {"rt": -1, "stimulus": "<p id=\"stim\">10</p>", "key_press": -1, "trial_type": "single-stim", "trial_index": 10, "time_elapsed": 732533, "internal_node_id": "0.0-10.0-0.0"}}, {"uniqueid": "MTK0109:3KXIR214I5NSB26R7MQKRM3XCAO426", "current_trial": 11, "dateTime": 1509157198429, "trialdata": {"rt": -1, "stimulus": "<p id=\"stim\">9</p>", "key_press": -1, "trial_type": "single-stim", "trial_index": 11, "time_elapsed": 733533, "internal_node_id": "0.0-10.0-1.0"}}, {"uniqueid": "MTK0109:3KXIR214I5NSB26R7MQKRM3XCAO426", "current_trial": 12, "dateTime": 1509157199429, "trialdata": {"rt": -1, "stimulus": "<p id=\"stim\">8</p>", "key_press": -1, "trial_type": "single-stim", "trial_index": 12, "time_elapsed": 734534, "internal_node_id": "0.0-10.0-2.0"}}, {"uniqueid": "MTK0109:3KXIR214I5NSB26R7MQKRM3XCAO426", "current_trial": 13, "dateTime": 1509157200431, "trialdata": {"rt": -1, "stimulus": "<p id=\"stim\">7</p>", "key_press": -1, "trial_type": "single-stim", "trial_index": 13, "time_elapsed": 735535, "internal_node_id": "0.0-10.0-3.0"}}, {"uniqueid": "MTK0109:3KXIR214I5NSB26R7MQKRM3XCAO426", "current_trial": 14, "dateTime": 1509157201431, "trialdata": {"rt": -1, "stimulus": "<p id=\"stim\">6</p>", "key_press": -1, "trial_type": "single-stim", "trial_index": 14, "time_elapsed": 736536, "internal_node_id": "0.0-10.0-4.0"}}, {"uniqueid": "MTK0109:3KXIR214I5NSB26R7MQKRM3XCAO426", "current_trial": 15, "dateTime": 1509157202432, "trialdata": {"rt": -1, "stimulus": "<p id=\"stim\">5</p>", "key_press": -1, "trial_type": "single-stim", "trial_index": 15, "time_elapsed": 737537, "internal_node_id": "0.0-10.0-5.0"}}, {"uniqueid": "MTK0109:3KXIR214I5NSB26R7MQKRM3XCAO426", "current_trial": 16, "dateTime": 1509157203433, "trialdata": {"rt": -1, "stimulus": "<p id=\"stim\">4</p>", "key_press": -1, "trial_type": "single-stim", "trial_index": 16, "time_elapsed": 738538, "internal_node_id": "0.0-10.0-6.0"}}, {"uniqueid": "MTK0109:3KXIR214I5NSB26R7MQKRM3XCAO426", "current_trial": 17, "dateTime": 1509157204435, "trialdata": {"rt": -1, "stimulus": "<p id=\"stim\">3</p>", "key_press": -1, "trial_type": "single-stim", "trial_index": 17, "time_elapsed": 739539, "internal_node_id": "0.0-10.0-7.0"}}, {"uniqueid": "MTK0109:3KXIR214I5NSB26R7MQKRM3XCAO426", "current_trial": 18, "dateTime": 1509157205436, "trialdata": {"rt": -1, "stimulus": "<p id=\"stim\">2</p>", "key_press": -1, "trial_type": "single-stim", "trial_index": 18, "time_elapsed": 740540, "internal_node_id": "0.0-10.0-8.0"}}, {"uniqueid": "MTK0109:3KXIR214I5NSB26R7MQKRM3XCAO426", "current_trial": 19, "dateTime": 1509157206437, "trialdata": {"rt": -1, "stimulus": "<p id=\"stim\">1</p>", "key_press": -1, "trial_type": "single-stim", "trial_index": 19, "time_elapsed": 741541, "internal_node_id": "0.0-10.0-9.0"}}, {"uniqueid": "MTK0109:3KXIR214I5NSB26R7MQKRM3XCAO426", "current_trial": 20, "dateTime": 1509157207938, "trialdata": {"rt": -1, "stimulus": "<p id=\"stim\">+</p>", "key_press": -1, "type": "FIXATION", "trial_type": "single-stim", "trial_index": 20, "time_elapsed": 743042, "internal_node_id": "0.0-11.0-0.0"}}, {"uniqueid": "MTK0109:3KXIR214I5NSB26R7MQKRM3XCAO426", "current_trial": 21, "dateTime": 1509157209139, "trialdata": {"rt": -1, "stimulus": "<p id=\"stim\">GARDEN</p>", "key_press": -1, "type": "PRES_VIS", "word": "garden", "wordID": 622, "conditions": [18, 1200, "v", 18000], "trial": 0, "serialpos": 0, "trial_type": "single-stim", "trial_index": 21, "time_elapsed": 744244, "internal_node_id": "0.0-12.0"}}, {"uniqueid": "MTK0109:3KXIR214I5NSB26R7MQKRM3XCAO426", "current_trial": 22, "dateTime": 1509157211263, "trialdata": {"rt": -1, "stimulus": "<p id=\"stim\">PISTON</p>", "key_press": -1, "type": "PRES_VIS", "word": "piston", "wordID": 1075, "conditions": [18, 1200, "v", 18000], "trial": 0, "serialpos": 1, "trial_type": "single-stim", "trial_index": 22, "time_elapsed": 746368, "internal_node_id": "0.0-13.0"}}, {"uniqueid": "MTK0109:3KXIR214I5NSB26R7MQKRM3XCAO426", "current_trial": 23, "dateTime": 1509157213649, "trialdata": {"rt": -1, "stimulus": "<p id=\"stim\">BARLEY</p>", "key_press": -1, "type": "PRES_VIS", "word": "barley", "wordID": 87, "conditions": [18, 1200, "v", 18000], "trial": 0, "serialpos": 2, "trial_type": "single-stim", "trial_index": 23, "time_elapsed": 748753, "internal_node_id": "0.0-14.0"}}, {"uniqueid": "MTK0109:3KXIR214I5NSB26R7MQKRM3XCAO426", "current_trial": 24, "dateTime": 1509157215847, "trialdata": {"rt": -1, "stimulus": "<p id=\"stim\">BABY</p>", "key_press": -1, "type": "PRES_VIS", "word": "baby", "wordID": 63, "conditions": [18, 1200, "v", 18000], "trial": 0, "serialpos": 3, "trial_type": "single-stim", "trial_index": 24, "time_elapsed": 750952, "internal_node_id": "0.0-15.0"}}, {"uniqueid": "MTK0109:3KXIR214I5NSB26R7MQKRM3XCAO426", "current_trial": 25, "dateTime": 1509157217937, "trialdata": {"rt": -1, "stimulus": "<p id=\"stim\">SHORTS</p>", "key_press": -1, "type": "PRES_VIS", "word": "shorts", "wordID": 1292, "conditions": [18, 1200, "v", 18000], "trial": 0, "serialpos": 4, "trial_type": "single-stim", "trial_index": 25, "time_elapsed": 753041, "internal_node_id": "0.0-16.0"}}, {"uniqueid": "MTK0109:3KXIR214I5NSB26R7MQKRM3XCAO426", "current_trial": 26, "dateTime": 1509157220092, "trialdata": {"rt": -1, "stimulus": "<p id=\"stim\">POSSUM</p>", "key_press": -1, "type": "PRES_VIS", "word": "possum", "wordID": 1111, "conditions": [18, 1200, "v", 18000], "trial": 0, "serialpos": 5, "trial_type": "single-stim", "trial_index": 26, "time_elapsed": 755196, "internal_node_id": "0.0-17.0"}}, {"uniqueid": "MTK0109:3KXIR214I5NSB26R7MQKRM3XCAO426", "current_trial": 27, "dateTime": 1509157222397, "trialdata": {"rt": -1, "stimulus": "<p id=\"stim\">FUNGUS</p>", "key_press": -1, "type": "PRES_VIS", "word": "fungus", "wordID": 613, "conditions": [18, 1200, "v", 18000], "trial": 0, "serialpos": 6, "trial_type": "single-stim", "trial_index": 27, "time_elapsed": 757501, "internal_node_id": "0.0-18.0"}}, {"uniqueid": "MTK0109:3KXIR214I5NSB26R7MQKRM3XCAO426", "current_trial": 28, "dateTime": 1509157224427, "trialdata": {"rt": -1, "stimulus": "<p id=\"stim\">GLOBE</p>", "key_press": -1, "type": "PRES_VIS", "word": "globe", "wordID": 640, "conditions": [18, 1200, "v", 18000], "trial": 0, "serialpos": 7, "trial_type": "single-stim", "trial_index": 28, "time_elapsed": 759531, "internal_node_id": "0.0-19.0"}}, {"uniqueid": "MTK0109:3KXIR214I5NSB26R7MQKRM3XCAO426", "current_trial": 29, "dateTime": 1509157226643, "trialdata": {"rt": -1, "stimulus": "<p id=\"stim\">ROBOT</p>", "key_press": -1, "type": "PRES_VIS", "word": "robot", "wordID": 1199, "conditions": [18, 1200, "v", 18000], "trial": 0, "serialpos": 8, "trial_type": "single-stim", "trial_index": 29, "time_elapsed": 761747, "internal_node_id": "0.0-20.0"}}, {"uniqueid": "MTK0109:3KXIR214I5NSB26R7MQKRM3XCAO426", "current_trial": 30, "dateTime": 1509157229008, "trialdata": {"rt": -1, "stimulus": "<p id=\"stim\">VIRUS</p>", "key_press": -1, "type": "PRES_VIS", "word": "virus", "wordID": 1571, "conditions": [18, 1200, "v", 18000], "trial": 0, "serialpos": 9, "trial_type": "single-stim", "trial_index": 30, "time_elapsed": 764112, "internal_node_id": "0.0-21.0"}}, {"uniqueid": "MTK0109:3KXIR214I5NSB26R7MQKRM3XCAO426", "current_trial": 31, "dateTime": 1509157231076, "trialdata": {"rt": -1, "stimulus": "<p id=\"stim\">FLUTE</p>", "key_press": -1, "type": "PRES_VIS", "word": "flute", "wordID": 584, "conditions": [18, 1200, "v", 18000], "trial": 0, "serialpos": 10, "trial_type": "single-stim", "trial_index": 31, "time_elapsed": 766180, "internal_node_id": "0.0-22.0"}}, {"uniqueid": "MTK0109:3KXIR214I5NSB26R7MQKRM3XCAO426", "current_trial": 32, "dateTime": 1509157233272, "trialdata": {"rt": -1, "stimulus": "<p id=\"stim\">BUGGY</p>", "key_press": -1, "type": "PRES_VIS", "word": "buggy", "wordID": 187, "conditions": [18, 1200, "v", 18000], "trial": 0, "serialpos": 11, "trial_type": "single-stim", "trial_index": 32, "time_elapsed": 768376, "internal_node_id": "0.0-23.0"}}, {"uniqueid": "MTK0109:3KXIR214I5NSB26R7MQKRM3XCAO426", "current_trial": 33, "dateTime": 1509157235456, "trialdata": {"rt": -1, "stimulus": "<p id=\"stim\">PERCH</p>", "key_press": -1, "type": "PRES_VIS", "word": "perch", "wordID": 1047, "conditions": [18, 1200, "v", 18000], "trial": 0, "serialpos": 12, "trial_type": "single-stim", "trial_index": 33, "time_elapsed": 770560, "internal_node_id": "0.0-24.0"}}, {"uniqueid": "MTK0109:3KXIR214I5NSB26R7MQKRM3XCAO426", "current_trial": 34, "dateTime": 1509157237848, "trialdata": {"rt": -1, "stimulus": "<p id=\"stim\">DONKEY</p>", "key_press": -1, "type": "PRES_VIS", "word": "donkey", "wordID": 483, "conditions": [18, 1200, "v", 18000], "trial": 0, "serialpos": 13, "trial_type": "single-stim", "trial_index": 34, "time_elapsed": 772953, "internal_node_id": "0.0-25.0"}}, {"uniqueid": "MTK0109:3KXIR214I5NSB26R7MQKRM3XCAO426", "current_trial": 35, "dateTime": 1509157240131, "trialdata": {"rt": -1, "stimulus": "<p id=\"stim\">WINDOW</p>", "key_press": -1, "type": "PRES_VIS", "word": "window", "wordID": 1610, "conditions": [18, 1200, "v", 18000], "trial": 0, "serialpos": 14, "trial_type": "single-stim", "trial_index": 35, "time_elapsed": 775235, "internal_node_id": "0.0-26.0"}}, {"uniqueid": "MTK0109:3KXIR214I5NSB26R7MQKRM3XCAO426", "current_trial": 36, "dateTime": 1509157242175, "trialdata": {"rt": -1, "stimulus": "<p id=\"stim\">LACE</p>", "key_press": -1, "type": "PRES_VIS", "word": "lace", "wordID": 791, "conditions": [18, 1200, "v", 18000], "trial": 0, "serialpos": 15, "trial_type": "single-stim", "trial_index": 36, "time_elapsed": 777279, "internal_node_id": "0.0-27.0"}}, {"uniqueid": "MTK0109:3KXIR214I5NSB26R7MQKRM3XCAO426", "current_trial": 37, "dateTime": 1509157244249, "trialdata": {"rt": -1, "stimulus": "<p id=\"stim\">RIFLE</p>", "key_press": -1, "type": "PRES_VIS", "word": "rifle", "wordID": 1191, "conditions": [18, 1200, "v", 18000], "trial": 0, "serialpos": 16, "trial_type": "single-stim", "trial_index": 37, "time_elapsed": 779353, "internal_node_id": "0.0-28.0"}}, {"uniqueid": "MTK0109:3KXIR214I5NSB26R7MQKRM3XCAO426", "current_trial": 38, "dateTime": 1509157246322, "trialdata": {"rt": -1, "stimulus": "<p id=\"stim\">BEAKER</p>", "key_press": -1, "type": "PRES_VIS", "word": "beaker", "wordID": 103, "conditions": [18, 1200, "v", 18000], "trial": 0, "serialpos": 17, "trial_type": "single-stim", "trial_index": 38, "time_elapsed": 781426, "internal_node_id": "0.0-29.0"}}, {"uniqueid": "MTK0109:3KXIR214I5NSB26R7MQKRM3XCAO426", "current_trial": 39, "dateTime": 1509157248640, "trialdata": {"rt": -1, "stimulus": "", "key_press": -1, "type": "PRE_RECALL_DELAY", "trial_type": "single-stim", "trial_index": 39, "time_elapsed": 783744, "internal_node_id": "0.0-30.0-0.0"}}, {"uniqueid": "MTK0109:3KXIR214I5NSB26R7MQKRM3XCAO426", "current_trial": 40, "dateTime": 1509157249142, "trialdata": {"rt": -1000, "stimulus": "/static/audio/400Hz.wav", "key_press": -1, "type": "PRE_RECALL_ALERT", "trial_type": "single-audio", "trial_index": 40, "time_elapsed": 784246, "internal_node_id": "0.0-31.0"}}, {"uniqueid": "MTK0109:3KXIR214I5NSB26R7MQKRM3XCAO426", "current_trial": 41, "dateTime": 1509157309150, "trialdata": {"rt": [6487, 8679, 12959, 15567, 18319, 21615, 27087], "recwords": ["garden", "baby", "pistol", "robot", "shorts", "possum", "beaker"], "type": "FREE_RECALL", "conditions": [18, 1200, "v", 18000], "trial": 0, "trial_type": "free-recall", "trial_index": 41, "time_elapsed": 844251, "internal_node_id": "0.0-32.0-0.0"}}, {"uniqueid": "MTK0109:3KXIR214I5NSB26R7MQKRM3XCAO426", "current_trial": 42, "dateTime": 1509157332536, "trialdata": {"rt": 21386, "key_press": 32, "type": "INSTRUCTIONS", "trial_type": "text", "trial_index": 42, "time_elapsed": 867641, "internal_node_id": "0.0-33.0"}}, {"uniqueid": "MTK0109:3KXIR214I5NSB26R7MQKRM3XCAO426", "current_trial": 43, "dateTime": 1509157352539, "trialdata": {"rt": [5638, 10381, 14837], "responses": ["17", "22", "15"], "num1": [3, 7, 3, 4], "num2": [6, 6, 9, 7], "num3": [8, 9, 3, 9], "type": "DISTRACTOR", "conditions": [18, 1200, "a", 18000], "trial": 1, "trial_type": "math-distractor", "trial_index": 43, "time_elapsed": 887644, "internal_node_id": "0.0-34.0"}}, {"uniqueid": "MTK0109:3KXIR214I5NSB26R7MQKRM3XCAO426", "current_trial": 44, "dateTime": 1509157355541, "trialdata": {"rt": -1, "stimulus": "<p id=\"stim\">10</p>", "key_press": -1, "trial_type": "single-stim", "trial_index": 44, "time_elapsed": 890645, "internal_node_id": "0.0-35.0-0.0"}}, {"uniqueid": "MTK0109:3KXIR214I5NSB26R7MQKRM3XCAO426", "current_trial": 45, "dateTime": 1509157356542, "trialdata": {"rt": -1, "stimulus": "<p id=\"stim\">9</p>", "key_press": -1, "trial_type": "single-stim", "trial_index": 45, "time_elapsed": 891646, "internal_node_id": "0.0-35.0-1.0"}}, {"uniqueid": "MTK0109:3KXIR214I5NSB26R7MQKRM3XCAO426", "current_trial": 46, "dateTime": 1509157357543, "trialdata": {"rt": -1, "stimulus": "<p id=\"stim\">8</p>", "key_press": -1, "trial_type": "single-stim", "trial_index": 46, "time_elapsed": 892647, "internal_node_id": "0.0-35.0-2.0"}}, {"uniqueid": "MTK0109:3KXIR214I5NSB26R7MQKRM3XCAO426", "current_trial": 47, "dateTime": 1509157358544, "trialdata": {"rt": -1, "stimulus": "<p id=\"stim\">7</p>", "key_press": -1, "trial_type": "single-stim", "trial_index": 47, "time_elapsed": 893648, "internal_node_id": "0.0-35.0-3.0"}}, {"uniqueid": "MTK0109:3KXIR214I5NSB26R7MQKRM3XCAO426", "current_trial": 48, "dateTime": 1509157359545, "trialdata": {"rt": -1, "stimulus": "<p id=\"stim\">6</p>", "key_press": -1, "trial_type": "single-stim", "trial_index": 48, "time_elapsed": 894649, "internal_node_id": "0.0-35.0-4.0"}}, {"uniqueid": "MTK0109:3KXIR214I5NSB26R7MQKRM3XCAO426", "current_trial": 49, "dateTime": 1509157360546, "trialdata": {"rt": -1, "stimulus": "<p id=\"stim\">5</p>", "key_press": -1, "trial_type": "single-stim", "trial_index": 49, "time_elapsed": 895650, "internal_node_id": "0.0-35.0-5.0"}}, {"uniqueid": "MTK0109:3KXIR214I5NSB26R7MQKRM3XCAO426", "current_trial": 50, "dateTime": 1509157361547, "trialdata": {"rt": -1, "stimulus": "<p id=\"stim\">4</p>", "key_press": -1, "trial_type": "single-stim", "trial_index": 50, "time_elapsed": 896651, "internal_node_id": "0.0-35.0-6.0"}}, {"uniqueid": "MTK0109:3KXIR214I5NSB26R7MQKRM3XCAO426", "current_trial": 51, "dateTime": 1509157362548, "trialdata": {"rt": -1, "stimulus": "<p id=\"stim\">3</p>", "key_press": -1, "trial_type": "single-stim", "trial_index": 51, "time_elapsed": 897652, "internal_node_id": "0.0-35.0-7.0"}}, {"uniqueid": "MTK0109:3KXIR214I5NSB26R7MQKRM3XCAO426", "current_trial": 52, "dateTime": 1509157363549, "trialdata": {"rt": -1, "stimulus": "<p id=\"stim\">2</p>", "key_press": -1, "trial_type": "single-stim", "trial_index": 52, "time_elapsed": 898653, "internal_node_id": "0.0-35.0-8.0"}}, {"uniqueid": "MTK0109:3KXIR214I5NSB26R7MQKRM3XCAO426", "current_trial": 53, "dateTime": 1509157364550, "trialdata": {"rt": -1, "stimulus": "<p id=\"stim\">1</p>", "key_press": -1, "trial_type": "single-stim", "trial_index": 53, "time_elapsed": 899654, "internal_node_id": "0.0-35.0-9.0"}}, {"uniqueid": "MTK0109:3KXIR214I5NSB26R7MQKRM3XCAO426", "current_trial": 54, "dateTime": 1509157366051, "trialdata": {"rt": -1, "stimulus": "<p id=\"stim\">+</p>", "key_press": -1, "type": "FIXATION", "trial_type": "single-stim", "trial_index": 54, "time_elapsed": 901155, "internal_node_id": "0.0-36.0-0.0"}}, {"uniqueid": "MTK0109:3KXIR214I5NSB26R7MQKRM3XCAO426", "current_trial": 55, "dateTime": 1509157368198, "trialdata": {"rt": -1000, "stimulus": "/static/audio/wordpool/GUITAR.wav", "key_press": -1, "type": "PRES_AUD", "word": "guitar", "wordID": 669, "conditions": [18, 1200, "a", 18000], "trial": 1, "serialpos": 0, "trial_type": "single-audio", "trial_index": 55, "time_elapsed": 903303, "internal_node_id": "0.0-37.0"}}, {"uniqueid": "MTK0109:3KXIR214I5NSB26R7MQKRM3XCAO426", "current_trial": 56, "dateTime": 1509157370359, "trialdata": {"rt": -1000, "stimulus": "/static/audio/wordpool/BULLET.wav", "key_press": -1, "type": "PRES_AUD", "word": "bullet", "wordID": 193, "conditions": [18, 1200, "a", 18000], "trial": 1, "serialpos": 1, "trial_type": "single-audio", "trial_index": 56, "time_elapsed": 905464, "internal_node_id": "0.0-38.0"}}, {"uniqueid": "MTK0109:3KXIR214I5NSB26R7MQKRM3XCAO426", "current_trial": 57, "dateTime": 1509157372428, "trialdata": {"rt": -1000, "stimulus": "/static/audio/wordpool/BANJO.wav", "key_press": -1, "type": "PRES_AUD", "word": "banjo", "wordID": 81, "conditions": [18, 1200, "a", 18000], "trial": 1, "serialpos": 2, "trial_type": "single-audio", "trial_index": 57, "time_elapsed": 907533, "internal_node_id": "0.0-39.0"}}, {"uniqueid": "MTK0109:3KXIR214I5NSB26R7MQKRM3XCAO426", "current_trial": 58, "dateTime": 1509157374722, "trialdata": {"rt": -1000, "stimulus": "/static/audio/wordpool/STATUE.wav", "key_press": -1, "type": "PRES_AUD", "word": "statue", "wordID": 1373, "conditions": [18, 1200, "a", 18000], "trial": 1, "serialpos": 3, "trial_type": "single-audio", "trial_index": 58, "time_elapsed": 909827, "internal_node_id": "0.0-40.0"}}, {"uniqueid": "MTK0109:3KXIR214I5NSB26R7MQKRM3XCAO426", "current_trial": 59, "dateTime": 1509157377074, "trialdata": {"rt": -1000, "stimulus": "/static/audio/wordpool/POPCORN.wav", "key_press": -1, "type": "PRES_AUD", "word": "popcorn", "wordID": 1103, "conditions": [18, 1200, "a", 18000], "trial": 1, "serialpos": 4, "trial_type": "single-audio", "trial_index": 59, "time_elapsed": 912179, "internal_node_id": "0.0-41.0"}}, {"uniqueid": "MTK0109:3KXIR214I5NSB26R7MQKRM3XCAO426", "current_trial": 60, "dateTime": 1509157379307, "trialdata": {"rt": -1000, "stimulus": "/static/audio/wordpool/BROOK.wav", "key_press": -1, "type": "PRES_AUD", "word": "brook", "wordID": 176, "conditions": [18, 1200, "a", 18000], "trial": 1, "serialpos": 5, "trial_type": "single-audio", "trial_index": 60, "time_elapsed": 914412, "internal_node_id": "0.0-42.0"}}, {"uniqueid": "MTK0109:3KXIR214I5NSB26R7MQKRM3XCAO426", "current_trial": 61, "dateTime": 1509157381463, "trialdata": {"rt": -1000, "stimulus": "/static/audio/wordpool/BACKBONE.wav", "key_press": -1, "type": "PRES_AUD", "word": "backbone", "wordID": 65, "conditions": [18, 1200, "a", 18000], "trial": 1, "serialpos": 6, "trial_type": "single-audio", "trial_index": 61, "time_elapsed": 916568, "internal_node_id": "0.0-43.0"}}, {"uniqueid": "MTK0109:3KXIR214I5NSB26R7MQKRM3XCAO426", "current_trial": 62, "dateTime": 1509157383669, "trialdata": {"rt": -1000, "stimulus": "/static/audio/wordpool/LILY.wav", "key_press": -1, "type": "PRES_AUD", "word": "lily", "wordID": 820, "conditions": [18, 1200, "a", 18000], "trial": 1, "serialpos": 7, "trial_type": "single-audio", "trial_index": 62, "time_elapsed": 918774, "internal_node_id": "0.0-44.0"}}, {"uniqueid": "MTK0109:3KXIR214I5NSB26R7MQKRM3XCAO426", "current_trial": 63, "dateTime": 1509157385791, "trialdata": {"rt": -1000, "stimulus": "/static/audio/wordpool/KITCHEN.wav", "key_press": -1, "type": "PRES_AUD", "word": "kitchen", "wordID": 777, "conditions": [18, 1200, "a", 18000], "trial": 1, "serialpos": 8, "trial_type": "single-audio", "trial_index": 63, "time_elapsed": 920896, "internal_node_id": "0.0-45.0"}}, {"uniqueid": "MTK0109:3KXIR214I5NSB26R7MQKRM3XCAO426", "current_trial": 64, "dateTime": 1509157388048, "trialdata": {"rt": -1000, "stimulus": "/static/audio/wordpool/TART.wav", "key_press": -1, "type": "PRES_AUD", "word": "tart", "wordID": 1435, "conditions": [18, 1200, "a", 18000], "trial": 1, "serialpos": 9, "trial_type": "single-audio", "trial_index": 64, "time_elapsed": 923153, "internal_node_id": "0.0-46.0"}}, {"uniqueid": "MTK0109:3KXIR214I5NSB26R7MQKRM3XCAO426", "current_trial": 65, "dateTime": 1509157390062, "trialdata": {"rt": -1000, "stimulus": "/static/audio/wordpool/NOMAD.wav", "key_press": -1, "type": "PRES_AUD", "word": "nomad", "wordID": 954, "conditions": [18, 1200, "a", 18000], "trial": 1, "serialpos": 10, "trial_type": "single-audio", "trial_index": 65, "time_elapsed": 925167, "internal_node_id": "0.0-47.0"}}, {"uniqueid": "MTK0109:3KXIR214I5NSB26R7MQKRM3XCAO426", "current_trial": 66, "dateTime": 1509157392215, "trialdata": {"rt": -1000, "stimulus": "/static/audio/wordpool/TRANSPLANT.wav", "key_press": -1, "type": "PRES_AUD", "word": "transplant", "wordID": 1495, "conditions": [18, 1200, "a", 18000], "trial": 1, "serialpos": 11, "trial_type": "single-audio", "trial_index": 66, "time_elapsed": 927320, "internal_node_id": "0.0-48.0"}}, {"uniqueid": "MTK0109:3KXIR214I5NSB26R7MQKRM3XCAO426", "current_trial": 67, "dateTime": 1509157394269, "trialdata": {"rt": -1000, "stimulus": "/static/audio/wordpool/STAPLE.wav", "key_press": -1, "type": "PRES_AUD", "word": "staple", "wordID": 1370, "conditions": [18, 1200, "a", 18000], "trial": 1, "serialpos": 12, "trial_type": "single-audio", "trial_index": 67, "time_elapsed": 929374, "internal_node_id": "0.0-49.0"}}, {"uniqueid": "MTK0109:3KXIR214I5NSB26R7MQKRM3XCAO426", "current_trial": 68, "dateTime": 1509157396520, "trialdata": {"rt": -1000, "stimulus": "/static/audio/wordpool/VALVE.wav", "key_press": -1, "type": "PRES_AUD", "word": "valve", "wordID": 1545, "conditions": [18, 1200, "a", 18000], "trial": 1, "serialpos": 13, "trial_type": "single-audio", "trial_index": 68, "time_elapsed": 931622, "internal_node_id": "0.0-50.0"}}, {"uniqueid": "MTK0109:3KXIR214I5NSB26R7MQKRM3XCAO426", "current_trial": 69, "dateTime": 1509157398707, "trialdata": {"rt": -1000, "stimulus": "/static/audio/wordpool/FOREHEAD.wav", "key_press": -1, "type": "PRES_AUD", "word": "forehead", "wordID": 591, "conditions": [18, 1200, "a", 18000], "trial": 1, "serialpos": 14, "trial_type": "single-audio", "trial_index": 69, "time_elapsed": 933812, "internal_node_id": "0.0-51.0"}}, {"uniqueid": "MTK0109:3KXIR214I5NSB26R7MQKRM3XCAO426", "current_trial": 70, "dateTime": 1509157401049, "trialdata": {"rt": -1000, "stimulus": "/static/audio/wordpool/SCULPTURE.wav", "key_press": -1, "type": "PRES_AUD", "word": "sculpture", "wordID": 1257, "conditions": [18, 1200, "a", 18000], "trial": 1, "serialpos": 15, "trial_type": "single-audio", "trial_index": 70, "time_elapsed": 936154, "internal_node_id": "0.0-52.0"}}, {"uniqueid": "MTK0109:3KXIR214I5NSB26R7MQKRM3XCAO426", "current_trial": 71, "dateTime": 1509157403386, "trialdata": {"rt": -1000, "stimulus": "/static/audio/wordpool/RAFT.wav", "key_press": -1, "type": "PRES_AUD", "word": "raft", "wordID": 1158, "conditions": [18, 1200, "a", 18000], "trial": 1, "serialpos": 16, "trial_type": "single-audio", "trial_index": 71, "time_elapsed": 938491, "internal_node_id": "0.0-53.0"}}, {"uniqueid": "MTK0109:3KXIR214I5NSB26R7MQKRM3XCAO426", "current_trial": 72, "dateTime": 1509157405390, "trialdata": {"rt": -1000, "stimulus": "/static/audio/wordpool/POLICE.wav", "key_press": -1, "type": "PRES_AUD", "word": "police", "wordID": 1097, "conditions": [18, 1200, "a", 18000], "trial": 1, "serialpos": 17, "trial_type": "single-audio", "trial_index": 72, "time_elapsed": 940495, "internal_node_id": "0.0-54.0"}}, {"uniqueid": "MTK0109:3KXIR214I5NSB26R7MQKRM3XCAO426", "current_trial": 73, "dateTime": 1509157406751, "trialdata": {"rt": -1, "stimulus": "", "key_press": -1, "type": "PRE_RECALL_DELAY", "trial_type": "single-stim", "trial_index": 73, "time_elapsed": 941855, "internal_node_id": "0.0-55.0-0.0"}}, {"uniqueid": "MTK0109:3KXIR214I5NSB26R7MQKRM3XCAO426", "current_trial": 74, "dateTime": 1509157407251, "trialdata": {"rt": -1000, "stimulus": "/static/audio/400Hz.wav", "key_press": -1, "type": "PRE_RECALL_ALERT", "trial_type": "single-audio", "trial_index": 74, "time_elapsed": 942356, "internal_node_id": "0.0-56.0"}}, {"uniqueid": "MTK0109:3KXIR214I5NSB26R7MQKRM3XCAO426", "current_trial": 75, "dateTime": 1509157467259, "trialdata": {"rt": [4851, 7362, 11883, 15370, 20186, 28170], "recwords": ["statue", "police", "raft", "nomad", "bullet", "kitchen"], "type": "FREE_RECALL", "conditions": [18, 1200, "a", 18000], "trial": 1, "trial_type": "free-recall", "trial_index": 75, "time_elapsed": 1002359, "internal_node_id": "0.0-57.0-0.0"}}, {"uniqueid": "MTK0109:3KXIR214I5NSB26R7MQKRM3XCAO426", "current_trial": 76, "dateTime": 1509157481913, "trialdata": {"rt": 12653, "key_press": 32, "type": "INSTRUCTIONS", "trial_type": "text", "trial_index": 76, "time_elapsed": 1017018, "internal_node_id": "0.0-58.0"}}, {"uniqueid": "MTK0109:3KXIR214I5NSB26R7MQKRM3XCAO426", "current_trial": 77, "dateTime": 1509157506916, "trialdata": {"rt": [5813, 10285, 14997, 18101, 21101], "responses": ["22", "11", "18", "12", "14"], "num1": [9, 5, 3, 2, 3, 9], "num2": [9, 3, 9, 7, 2, 2], "num3": [4, 3, 6, 3, 9, 9], "type": "DISTRACTOR", "conditions": [12, 1600, "a", 24000], "trial": 2, "trial_type": "math-distractor", "trial_index": 77, "time_elapsed": 1042021, "internal_node_id": "0.0-59.0"}}, {"uniqueid": "MTK0109:3KXIR214I5NSB26R7MQKRM3XCAO426", "current_trial": 78, "dateTime": 1509157509917, "trialdata": {"rt": -1, "stimulus": "<p id=\"stim\">10</p>", "key_press": -1, "trial_type": "single-stim", "trial_index": 78, "time_elapsed": 1045021, "internal_node_id": "0.0-60.0-0.0"}}, {"uniqueid": "MTK0109:3KXIR214I5NSB26R7MQKRM3XCAO426", "current_trial": 79, "dateTime": 1509157510918, "trialdata": {"rt": -1, "stimulus": "<p id=\"stim\">9</p>", "key_press": -1, "trial_type": "single-stim", "trial_index": 79, "time_elapsed": 1046022, "internal_node_id": "0.0-60.0-1.0"}}, {"uniqueid": "MTK0109:3KXIR214I5NSB26R7MQKRM3XCAO426", "current_trial": 80, "dateTime": 1509157511918, "trialdata": {"rt": -1, "stimulus": "<p id=\"stim\">8</p>", "key_press": -1, "trial_type": "single-stim", "trial_index": 80, "time_elapsed": 1047023, "internal_node_id": "0.0-60.0-2.0"}}, {"uniqueid": "MTK0109:3KXIR214I5NSB26R7MQKRM3XCAO426", "current_trial": 81, "dateTime": 1509157512920, "trialdata": {"rt": -1, "stimulus": "<p id=\"stim\">7</p>", "key_press": -1, "trial_type": "single-stim", "trial_index": 81, "time_elapsed": 1048024, "internal_node_id": "0.0-60.0-3.0"}}, {"uniqueid": "MTK0109:3KXIR214I5NSB26R7MQKRM3XCAO426", "current_trial": 82, "dateTime": 1509157513921, "trialdata": {"rt": -1, "stimulus": "<p id=\"stim\">6</p>", "key_press": -1, "trial_type": "single-stim", "trial_index": 82, "time_elapsed": 1049025, "internal_node_id": "0.0-60.0-4.0"}}, {"uniqueid": "MTK0109:3KXIR214I5NSB26R7MQKRM3XCAO426", "current_trial": 83, "dateTime": 1509157514929, "trialdata": {"rt": -1, "stimulus": "<p id=\"stim\">5</p>", "key_press": -1, "trial_type": "single-stim", "trial_index": 83, "time_elapsed": 1050034, "internal_node_id": "0.0-60.0-5.0"}}, {"uniqueid": "MTK0109:3KXIR214I5NSB26R7MQKRM3XCAO426", "current_trial": 84, "dateTime": 1509157515930, "trialdata": {"rt": -1, "stimulus": "<p id=\"stim\">4</p>", "key_press": -1, "trial_type": "single-stim", "trial_index": 84, "time_elapsed": 1051034, "internal_node_id": "0.0-60.0-6.0"}}, {"uniqueid": "MTK0109:3KXIR214I5NSB26R7MQKRM3XCAO426", "current_trial": 85, "dateTime": 1509157516930, "trialdata": {"rt": -1, "stimulus": "<p id=\"stim\">3</p>", "key_press": -1, "trial_type": "single-stim", "trial_index": 85, "time_elapsed": 1052035, "internal_node_id": "0.0-60.0-7.0"}}, {"uniqueid": "MTK0109:3KXIR214I5NSB26R7MQKRM3XCAO426", "current_trial": 86, "dateTime": 1509157517932, "trialdata": {"rt": -1, "stimulus": "<p id=\"stim\">2</p>", "key_press": -1, "trial_type": "single-stim", "trial_index": 86, "time_elapsed": 1053036, "internal_node_id": "0.0-60.0-8.0"}}, {"uniqueid": "MTK0109:3KXIR214I5NSB26R7MQKRM3XCAO426", "current_trial": 87, "dateTime": 1509157518933, "trialdata": {"rt": -1, "stimulus": "<p id=\"stim\">1</p>", "key_press": -1, "trial_type": "single-stim", "trial_index": 87, "time_elapsed": 1054037, "internal_node_id": "0.0-60.0-9.0"}}, {"uniqueid": "MTK0109:3KXIR214I5NSB26R7MQKRM3XCAO426", "current_trial": 88, "dateTime": 1509157520434, "trialdata": {"rt": -1, "stimulus": "<p id=\"stim\">+</p>", "key_press": -1, "type": "FIXATION", "trial_type": "single-stim", "trial_index": 88, "time_elapsed": 1055538, "internal_node_id": "0.0-61.0-0.0"}}, {"uniqueid": "MTK0109:3KXIR214I5NSB26R7MQKRM3XCAO426", "current_trial": 89, "dateTime": 1509157523118, "trialdata": {"rt": -1000, "stimulus": "/static/audio/wordpool/LIZARD.wav", "key_press": -1, "type": "PRES_AUD", "word": "lizard", "wordID": 833, "conditions": [12, 1600, "a", 24000], "trial": 2, "serialpos": 0, "trial_type": "single-audio", "trial_index": 89, "time_elapsed": 1058223, "internal_node_id": "0.0-62.0"}}, {"uniqueid": "MTK0109:3KXIR214I5NSB26R7MQKRM3XCAO426", "current_trial": 90, "dateTime": 1509157525912, "trialdata": {"rt": -1000, "stimulus": "/static/audio/wordpool/CHEMIST.wav", "key_press": -1, "type": "PRES_AUD", "word": "chemist", "wordID": 291, "conditions": [12, 1600, "a", 24000], "trial": 2, "serialpos": 1, "trial_type": "single-audio", "trial_index": 90, "time_elapsed": 1061017, "internal_node_id": "0.0-63.0"}}, {"uniqueid": "MTK0109:3KXIR214I5NSB26R7MQKRM3XCAO426", "current_trial": 91, "dateTime": 1509157528347, "trialdata": {"rt": -1000, "stimulus": "/static/audio/wordpool/MISTER.wav", "key_press": -1, "type": "PRES_AUD", "word": "mister", "wordID": 900, "conditions": [12, 1600, "a", 24000], "trial": 2, "serialpos": 2, "trial_type": "single-audio", "trial_index": 91, "time_elapsed": 1063452, "internal_node_id": "0.0-64.0"}}, {"uniqueid": "MTK0109:3KXIR214I5NSB26R7MQKRM3XCAO426", "current_trial": 92, "dateTime": 1509157531118, "trialdata": {"rt": -1000, "stimulus": "/static/audio/wordpool/PIGEON.wav", "key_press": -1, "type": "PRES_AUD", "word": "pigeon", "wordID": 1064, "conditions": [12, 1600, "a", 24000], "trial": 2, "serialpos": 3, "trial_type": "single-audio", "trial_index": 92, "time_elapsed": 1066223, "internal_node_id": "0.0-65.0"}}, {"uniqueid": "MTK0109:3KXIR214I5NSB26R7MQKRM3XCAO426", "current_trial": 93, "dateTime": 1509157533807, "trialdata": {"rt": -1000, "stimulus": "/static/audio/wordpool/DANDRUFF.wav", "key_press": -1, "type": "PRES_AUD", "word": "dandruff", "wordID": 438, "conditions": [12, 1600, "a", 24000], "trial": 2, "serialpos": 4, "trial_type": "single-audio", "trial_index": 93, "time_elapsed": 1068912, "internal_node_id": "0.0-66.0"}}, {"uniqueid": "MTK0109:3KXIR214I5NSB26R7MQKRM3XCAO426", "current_trial": 94, "dateTime": 1509157536476, "trialdata": {"rt": -1000, "stimulus": "/static/audio/wordpool/TUTU.wav", "key_press": -1, "type": "PRES_AUD", "word": "tutu", "wordID": 1523, "conditions": [12, 1600, "a", 24000], "trial": 2, "serialpos": 5, "trial_type": "single-audio", "trial_index": 94, "time_elapsed": 1071581, "internal_node_id": "0.0-67.0"}}, {"uniqueid": "MTK0109:3KXIR214I5NSB26R7MQKRM3XCAO426", "current_trial": 95, "dateTime": 1509157539168, "trialdata": {"rt": -1000, "stimulus": "/static/audio/wordpool/CIGAR.wav", "key_press": -1, "type": "PRES_AUD", "word": "cigar", "wordID": 307, "conditions": [12, 1600, "a", 24000], "trial": 2, "serialpos": 6, "trial_type": "single-audio", "trial_index": 95, "time_elapsed": 1074273, "internal_node_id": "0.0-68.0"}}, {"uniqueid": "MTK0109:3KXIR214I5NSB26R7MQKRM3XCAO426", "current_trial": 96, "dateTime": 1509157541581, "trialdata": {"rt": -1000, "stimulus": "/static/audio/wordpool/BANQUET.wav", "key_press": -1, "type": "PRES_AUD", "word": "banquet", "wordID": 85, "conditions": [12, 1600, "a", 24000], "trial": 2, "serialpos": 7, "trial_type": "single-audio", "trial_index": 96, "time_elapsed": 1076686, "internal_node_id": "0.0-69.0"}}, {"uniqueid": "MTK0109:3KXIR214I5NSB26R7MQKRM3XCAO426", "current_trial": 97, "dateTime": 1509157544379, "trialdata": {"rt": -1000, "stimulus": "/static/audio/wordpool/RABBIT.wav", "key_press": -1, "type": "PRES_AUD", "word": "rabbit", "wordID": 1151, "conditions": [12, 1600, "a", 24000], "trial": 2, "serialpos": 8, "trial_type": "single-audio", "trial_index": 97, "time_elapsed": 1079484, "internal_node_id": "0.0-70.0"}}, {"uniqueid": "MTK0109:3KXIR214I5NSB26R7MQKRM3XCAO426", "current_trial": 98, "dateTime": 1509157546984, "trialdata": {"rt": -1000, "stimulus": "/static/audio/wordpool/SWIMMER.wav", "key_press": -1, "type": "PRES_AUD", "word": "swimmer", "wordID": 1419, "conditions": [12, 1600, "a", 24000], "trial": 2, "serialpos": 9, "trial_type": "single-audio", "trial_index": 98, "time_elapsed": 1082089, "internal_node_id": "0.0-71.0"}}, {"uniqueid": "MTK0109:3KXIR214I5NSB26R7MQKRM3XCAO426", "current_trial": 99, "dateTime": 1509157549614, "trialdata": {"rt": -1000, "stimulus": "/static/audio/wordpool/DIVER.wav", "key_press": -1, "type": "PRES_AUD", "word": "diver", "wordID": 475, "conditions": [12, 1600, "a", 24000], "trial": 2, "serialpos": 10, "trial_type": "single-audio", "trial_index": 99, "time_elapsed": 1084719, "internal_node_id": "0.0-72.0"}}, {"uniqueid": "MTK0109:3KXIR214I5NSB26R7MQKRM3XCAO426", "current_trial": 100, "dateTime": 1509157552146, "trialdata": {"rt": -1000, "stimulus": "/static/audio/wordpool/POISON.wav", "key_press": -1, "type": "PRES_AUD", "word": "poison", "wordID": 1095, "conditions": [12, 1600, "a", 24000], "trial": 2, "serialpos": 11, "trial_type": "single-audio", "trial_index": 100, "time_elapsed": 1087251, "internal_node_id": "0.0-73.0"}}, {"uniqueid": "MTK0109:3KXIR214I5NSB26R7MQKRM3XCAO426", "current_trial": 101, "dateTime": 1509157553374, "trialdata": {"rt": -1, "stimulus": "", "key_press": -1, "type": "PRE_RECALL_DELAY", "trial_type": "single-stim", "trial_index": 101, "time_elapsed": 1088478, "internal_node_id": "0.0-74.0-0.0"}}, {"uniqueid": "MTK0109:3KXIR214I5NSB26R7MQKRM3XCAO426", "current_trial": 102, "dateTime": 1509157553874, "trialdata": {"rt": -1000, "stimulus": "/static/audio/400Hz.wav", "key_press": -1, "type": "PRE_RECALL_ALERT", "trial_type": "single-audio", "trial_index": 102, "time_elapsed": 1088979, "internal_node_id": "0.0-75.0"}}, {"uniqueid": "MTK0109:3KXIR214I5NSB26R7MQKRM3XCAO426", "current_trial": 103, "dateTime": 1509157613880, "trialdata": {"rt": [5172, 7811, 9931, 15067, 17587, 20419], "recwords": ["poison", "diver", "swimmer", "mister", "chemist", "cigar"], "type": "FREE_RECALL", "conditions": [12, 1600, "a", 24000], "trial": 2, "trial_type": "free-recall", "trial_index": 103, "time_elapsed": 1148981, "internal_node_id": "0.0-76.0-0.0"}}, {"uniqueid": "MTK0109:3KXIR214I5NSB26R7MQKRM3XCAO426", "current_trial": 104, "dateTime": 1509157638161, "trialdata": {"rt": 22280, "key_press": 32, "type": "INSTRUCTIONS", "trial_type": "text", "trial_index": 104, "time_elapsed": 1173266, "internal_node_id": "0.0-77.0"}}, {"uniqueid": "MTK0109:3KXIR214I5NSB26R7MQKRM3XCAO426", "current_trial": 105, "dateTime": 1509157652164, "trialdata": {"rt": [2653, 5029, 5085, 9261], "responses": ["12", "11", "", "18"], "num1": [2, 4, 9, 9, 1], "num2": [3, 4, 8, 7, 4], "num3": [7, 3, 5, 2, 4], "type": "DISTRACTOR", "conditions": [12, 800, "a", 12000], "trial": 3, "trial_type": "math-distractor", "trial_index": 105, "time_elapsed": 1187269, "internal_node_id": "0.0-78.0"}}, {"uniqueid": "MTK0109:3KXIR214I5NSB26R7MQKRM3XCAO426", "current_trial": 106, "dateTime": 1509157655165, "trialdata": {"rt": -1, "stimulus": "<p id=\"stim\">10</p>", "key_press": -1, "trial_type": "single-stim", "trial_index": 106, "time_elapsed": 1190269, "internal_node_id": "0.0-79.0-0.0"}}, {"uniqueid": "MTK0109:3KXIR214I5NSB26R7MQKRM3XCAO426", "current_trial": 107, "dateTime": 1509157656166, "trialdata": {"rt": -1, "stimulus": "<p id=\"stim\">9</p>", "key_press": -1, "trial_type": "single-stim", "trial_index": 107, "time_elapsed": 1191270, "internal_node_id": "0.0-79.0-1.0"}}, {"uniqueid": "MTK0109:3KXIR214I5NSB26R7MQKRM3XCAO426", "current_trial": 108, "dateTime": 1509157657166, "trialdata": {"rt": -1, "stimulus": "<p id=\"stim\">8</p>", "key_press": -1, "trial_type": "single-stim", "trial_index": 108, "time_elapsed": 1192271, "internal_node_id": "0.0-79.0-2.0"}}, {"uniqueid": "MTK0109:3KXIR214I5NSB26R7MQKRM3XCAO426", "current_trial": 109, "dateTime": 1509157658168, "trialdata": {"rt": -1, "stimulus": "<p id=\"stim\">7</p>", "key_press": -1, "trial_type": "single-stim", "trial_index": 109, "time_elapsed": 1193272, "internal_node_id": "0.0-79.0-3.0"}}, {"uniqueid": "MTK0109:3KXIR214I5NSB26R7MQKRM3XCAO426", "current_trial": 110, "dateTime": 1509157659169, "trialdata": {"rt": -1, "stimulus": "<p id=\"stim\">6</p>", "key_press": -1, "trial_type": "single-stim", "trial_index": 110, "time_elapsed": 1194273, "internal_node_id": "0.0-79.0-4.0"}}, {"uniqueid": "MTK0109:3KXIR214I5NSB26R7MQKRM3XCAO426", "current_trial": 111, "dateTime": 1509157660170, "trialdata": {"rt": -1, "stimulus": "<p id=\"stim\">5</p>", "key_press": -1, "trial_type": "single-stim", "trial_index": 111, "time_elapsed": 1195274, "internal_node_id": "0.0-79.0-5.0"}}, {"uniqueid": "MTK0109:3KXIR214I5NSB26R7MQKRM3XCAO426", "current_trial": 112, "dateTime": 1509157661171, "trialdata": {"rt": -1, "stimulus": "<p id=\"stim\">4</p>", "key_press": -1, "trial_type": "single-stim", "trial_index": 112, "time_elapsed": 1196275, "internal_node_id": "0.0-79.0-6.0"}}, {"uniqueid": "MTK0109:3KXIR214I5NSB26R7MQKRM3XCAO426", "current_trial": 113, "dateTime": 1509157662172, "trialdata": {"rt": -1, "stimulus": "<p id=\"stim\">3</p>", "key_press": -1, "trial_type": "single-stim", "trial_index": 113, "time_elapsed": 1197276, "internal_node_id": "0.0-79.0-7.0"}}, {"uniqueid": "MTK0109:3KXIR214I5NSB26R7MQKRM3XCAO426", "current_trial": 114, "dateTime": 1509157663174, "trialdata": {"rt": -1, "stimulus": "<p id=\"stim\">2</p>", "key_press": -1, "trial_type": "single-stim", "trial_index": 114, "time_elapsed": 1198278, "internal_node_id": "0.0-79.0-8.0"}}, {"uniqueid": "MTK0109:3KXIR214I5NSB26R7MQKRM3XCAO426", "current_trial": 115, "dateTime": 1509157664175, "trialdata": {"rt": -1, "stimulus": "<p id=\"stim\">1</p>", "key_press": -1, "trial_type": "single-stim", "trial_index": 115, "time_elapsed": 1199279, "internal_node_id": "0.0-79.0-9.0"}}, {"uniqueid": "MTK0109:3KXIR214I5NSB26R7MQKRM3XCAO426", "current_trial": 116, "dateTime": 1509157665676, "trialdata": {"rt": -1, "stimulus": "<p id=\"stim\">+</p>", "key_press": -1, "type": "FIXATION", "trial_type": "single-stim", "trial_index": 116, "time_elapsed": 1200780, "internal_node_id": "0.0-80.0-0.0"}}, {"uniqueid": "MTK0109:3KXIR214I5NSB26R7MQKRM3XCAO426", "current_trial": 117, "dateTime": 1509157667294, "trialdata": {"rt": -1000, "stimulus": "/static/audio/wordpool/MAILBOX.wav", "key_press": -1, "type": "PRES_AUD", "word": "mailbox", "wordID": 856, "conditions": [12, 800, "a", 12000], "trial": 3, "serialpos": 0, "trial_type": "single-audio", "trial_index": 117, "time_elapsed": 1202399, "internal_node_id": "0.0-81.0"}}, {"uniqueid": "MTK0109:3KXIR214I5NSB26R7MQKRM3XCAO426", "current_trial": 118, "dateTime": 1509157668899, "trialdata": {"rt": -1000, "stimulus": "/static/audio/wordpool/FLEET.wav", "key_press": -1, "type": "PRES_AUD", "word": "fleet", "wordID": 577, "conditions": [12, 800, "a", 12000], "trial": 3, "serialpos": 1, "trial_type": "single-audio", "trial_index": 118, "time_elapsed": 1204004, "internal_node_id": "0.0-82.0"}}, {"uniqueid": "MTK0109:3KXIR214I5NSB26R7MQKRM3XCAO426", "current_trial": 119, "dateTime": 1509157670586, "trialdata": {"rt": -1000, "stimulus": "/static/audio/wordpool/SEAFOOD.wav", "key_press": -1, "type": "PRES_AUD", "word": "seafood", "wordID": 1259, "conditions": [12, 800, "a", 12000], "trial": 3, "serialpos": 2, "trial_type": "single-audio", "trial_index": 119, "time_elapsed": 1205691, "internal_node_id": "0.0-83.0"}}, {"uniqueid": "MTK0109:3KXIR214I5NSB26R7MQKRM3XCAO426", "current_trial": 120, "dateTime": 1509157672264, "trialdata": {"rt": -1000, "stimulus": "/static/audio/wordpool/CRICKET.wav", "key_press": -1, "type": "PRES_AUD", "word": "cricket", "wordID": 407, "conditions": [12, 800, "a", 12000], "trial": 3, "serialpos": 3, "trial_type": "single-audio", "trial_index": 120, "time_elapsed": 1207369, "internal_node_id": "0.0-84.0"}}, {"uniqueid": "MTK0109:3KXIR214I5NSB26R7MQKRM3XCAO426", "current_trial": 121, "dateTime": 1509157674152, "trialdata": {"rt": -1000, "stimulus": "/static/audio/wordpool/SHARK.wav", "key_press": -1, "type": "PRES_AUD", "word": "shark", "wordID": 1274, "conditions": [12, 800, "a", 12000], "trial": 3, "serialpos": 4, "trial_type": "single-audio", "trial_index": 121, "time_elapsed": 1209257, "internal_node_id": "0.0-85.0"}}, {"uniqueid": "MTK0109:3KXIR214I5NSB26R7MQKRM3XCAO426", "current_trial": 122, "dateTime": 1509157675958, "trialdata": {"rt": -1000, "stimulus": "/static/audio/wordpool/MAILMAN.wav", "key_press": -1, "type": "PRES_AUD", "word": "mailman", "wordID": 857, "conditions": [12, 800, "a", 12000], "trial": 3, "serialpos": 5, "trial_type": "single-audio", "trial_index": 122, "time_elapsed": 1211063, "internal_node_id": "0.0-86.0"}}, {"uniqueid": "MTK0109:3KXIR214I5NSB26R7MQKRM3XCAO426", "current_trial": 123, "dateTime": 1509157677600, "trialdata": {"rt": -1000, "stimulus": "/static/audio/wordpool/DOUGHNUT.wav", "key_press": -1, "type": "PRES_AUD", "word": "doughnut", "wordID": 489, "conditions": [12, 800, "a", 12000], "trial": 3, "serialpos": 6, "trial_type": "single-audio", "trial_index": 123, "time_elapsed": 1212705, "internal_node_id": "0.0-87.0"}}, {"uniqueid": "MTK0109:3KXIR214I5NSB26R7MQKRM3XCAO426", "current_trial": 124, "dateTime": 1509157679315, "trialdata": {"rt": -1000, "stimulus": "/static/audio/wordpool/BUBBLE.wav", "key_press": -1, "type": "PRES_AUD", "word": "bubble", "wordID": 182, "conditions": [12, 800, "a", 12000], "trial": 3, "serialpos": 7, "trial_type": "single-audio", "trial_index": 124, "time_elapsed": 1214420, "internal_node_id": "0.0-88.0"}}, {"uniqueid": "MTK0109:3KXIR214I5NSB26R7MQKRM3XCAO426", "current_trial": 125, "dateTime": 1509157681034, "trialdata": {"rt": -1000, "stimulus": "/static/audio/wordpool/FLIPPER.wav", "key_press": -1, "type": "PRES_AUD", "word": "flipper", "wordID": 579, "conditions": [12, 800, "a", 12000], "trial": 3, "serialpos": 8, "trial_type": "single-audio", "trial_index": 125, "time_elapsed": 1216139, "internal_node_id": "0.0-89.0"}}, {"uniqueid": "MTK0109:3KXIR214I5NSB26R7MQKRM3XCAO426", "current_trial": 126, "dateTime": 1509157682760, "trialdata": {"rt": -1000, "stimulus": "/static/audio/wordpool/PROTON.wav", "key_press": -1, "type": "PRES_AUD", "word": "proton", "wordID": 1131, "conditions": [12, 800, "a", 12000], "trial": 3, "serialpos": 9, "trial_type": "single-audio", "trial_index": 126, "time_elapsed": 1217865, "internal_node_id": "0.0-90.0"}}, {"uniqueid": "MTK0109:3KXIR214I5NSB26R7MQKRM3XCAO426", "current_trial": 127, "dateTime": 1509157684598, "trialdata": {"rt": -1000, "stimulus": "/static/audio/wordpool/HONEY.wav", "key_press": -1, "type": "PRES_AUD", "word": "honey", "wordID": 712, "conditions": [12, 800, "a", 12000], "trial": 3, "serialpos": 10, "trial_type": "single-audio", "trial_index": 127, "time_elapsed": 1219703, "internal_node_id": "0.0-91.0"}}, {"uniqueid": "MTK0109:3KXIR214I5NSB26R7MQKRM3XCAO426", "current_trial": 128, "dateTime": 1509157686488, "trialdata": {"rt": -1000, "stimulus": "/static/audio/wordpool/MILK.wav", "key_press": -1, "type": "PRES_AUD", "word": "milk", "wordID": 894, "conditions": [12, 800, "a", 12000], "trial": 3, "serialpos": 11, "trial_type": "single-audio", "trial_index": 128, "time_elapsed": 1221593, "internal_node_id": "0.0-92.0"}}, {"uniqueid": "MTK0109:3KXIR214I5NSB26R7MQKRM3XCAO426", "current_trial": 129, "dateTime": 1509157687718, "trialdata": {"rt": -1, "stimulus": "", "key_press": -1, "type": "PRE_RECALL_DELAY", "trial_type": "single-stim", "trial_index": 129, "time_elapsed": 1222822, "internal_node_id": "0.0-93.0-0.0"}}, {"uniqueid": "MTK0109:3KXIR214I5NSB26R7MQKRM3XCAO426", "current_trial": 130, "dateTime": 1509157688219, "trialdata": {"rt": -1000, "stimulus": "/static/audio/400Hz.wav", "key_press": -1, "type": "PRE_RECALL_ALERT", "trial_type": "single-audio", "trial_index": 130, "time_elapsed": 1223323, "internal_node_id": "0.0-94.0"}}, {"uniqueid": "MTK0109:3KXIR214I5NSB26R7MQKRM3XCAO426", "current_trial": 131, "dateTime": 1509157748242, "trialdata": {"rt": [4291, 6692, 8523, 11357, 14547, 22683, 24972], "recwords": ["milk", "proton", "honey", "mailman", "malbox", "cricket", "food"], "type": "FREE_RECALL", "conditions": [12, 800, "a", 12000], "trial": 3, "trial_type": "free-recall", "trial_index": 131, "time_elapsed": 1283338, "internal_node_id": "0.0-95.0-0.0"}}, {"uniqueid": "MTK0109:3KXIR214I5NSB26R7MQKRM3XCAO426", "current_trial": 132, "dateTime": 1509157752601, "trialdata": {"rt": 2358, "key_press": 32, "type": "INSTRUCTIONS", "trial_type": "text", "trial_index": 132, "time_elapsed": 1287706, "internal_node_id": "0.0-96.0"}}, {"uniqueid": "MTK0109:3KXIR214I5NSB26R7MQKRM3XCAO426", "current_trial": 133, "dateTime": 1509157766604, "trialdata": {"rt": [3301, 8789, 11197], "responses": ["15", "23", "14"], "num1": [2, 8, 3, 2], "num2": [8, 6, 2, 6], "num3": [5, 9, 9, 2], "type": "DISTRACTOR", "conditions": [24, 800, "a", 12000], "trial": 4, "trial_type": "math-distractor", "trial_index": 133, "time_elapsed": 1301709, "internal_node_id": "0.0-97.0"}}, {"uniqueid": "MTK0109:3KXIR214I5NSB26R7MQKRM3XCAO426", "current_trial": 134, "dateTime": 1509157769605, "trialdata": {"rt": -1, "stimulus": "<p id=\"stim\">10</p>", "key_press": -1, "trial_type": "single-stim", "trial_index": 134, "time_elapsed": 1304709, "internal_node_id": "0.0-98.0-0.0"}}, {"uniqueid": "MTK0109:3KXIR214I5NSB26R7MQKRM3XCAO426", "current_trial": 135, "dateTime": 1509157770606, "trialdata": {"rt": -1, "stimulus": "<p id=\"stim\">9</p>", "key_press": -1, "trial_type": "single-stim", "trial_index": 135, "time_elapsed": 1305710, "internal_node_id": "0.0-98.0-1.0"}}, {"uniqueid": "MTK0109:3KXIR214I5NSB26R7MQKRM3XCAO426", "current_trial": 136, "dateTime": 1509157771607, "trialdata": {"rt": -1, "stimulus": "<p id=\"stim\">8</p>", "key_press": -1, "trial_type": "single-stim", "trial_index": 136, "time_elapsed": 1306711, "internal_node_id": "0.0-98.0-2.0"}}, {"uniqueid": "MTK0109:3KXIR214I5NSB26R7MQKRM3XCAO426", "current_trial": 137, "dateTime": 1509157772607, "trialdata": {"rt": -1, "stimulus": "<p id=\"stim\">7</p>", "key_press": -1, "trial_type": "single-stim", "trial_index": 137, "time_elapsed": 1307712, "internal_node_id": "0.0-98.0-3.0"}}, {"uniqueid": "MTK0109:3KXIR214I5NSB26R7MQKRM3XCAO426", "current_trial": 138, "dateTime": 1509157773609, "trialdata": {"rt": -1, "stimulus": "<p id=\"stim\">6</p>", "key_press": -1, "trial_type": "single-stim", "trial_index": 138, "time_elapsed": 1308713, "internal_node_id": "0.0-98.0-4.0"}}, {"uniqueid": "MTK0109:3KXIR214I5NSB26R7MQKRM3XCAO426", "current_trial": 139, "dateTime": 1509157774618, "trialdata": {"rt": -1, "stimulus": "<p id=\"stim\">5</p>", "key_press": -1, "trial_type": "single-stim", "trial_index": 139, "time_elapsed": 1309723, "internal_node_id": "0.0-98.0-5.0"}}, {"uniqueid": "MTK0109:3KXIR214I5NSB26R7MQKRM3XCAO426", "current_trial": 140, "dateTime": 1509157775619, "trialdata": {"rt": -1, "stimulus": "<p id=\"stim\">4</p>", "key_press": -1, "trial_type": "single-stim", "trial_index": 140, "time_elapsed": 1310723, "internal_node_id": "0.0-98.0-6.0"}}, {"uniqueid": "MTK0109:3KXIR214I5NSB26R7MQKRM3XCAO426", "current_trial": 141, "dateTime": 1509157776620, "trialdata": {"rt": -1, "stimulus": "<p id=\"stim\">3</p>", "key_press": -1, "trial_type": "single-stim", "trial_index": 141, "time_elapsed": 1311724, "internal_node_id": "0.0-98.0-7.0"}}, {"uniqueid": "MTK0109:3KXIR214I5NSB26R7MQKRM3XCAO426", "current_trial": 142, "dateTime": 1509157777621, "trialdata": {"rt": -1, "stimulus": "<p id=\"stim\">2</p>", "key_press": -1, "trial_type": "single-stim", "trial_index": 142, "time_elapsed": 1312725, "internal_node_id": "0.0-98.0-8.0"}}, {"uniqueid": "MTK0109:3KXIR214I5NSB26R7MQKRM3XCAO426", "current_trial": 143, "dateTime": 1509157778622, "trialdata": {"rt": -1, "stimulus": "<p id=\"stim\">1</p>", "key_press": -1, "trial_type": "single-stim", "trial_index": 143, "time_elapsed": 1313726, "internal_node_id": "0.0-98.0-9.0"}}, {"uniqueid": "MTK0109:3KXIR214I5NSB26R7MQKRM3XCAO426", "current_trial": 144, "dateTime": 1509157780123, "trialdata": {"rt": -1, "stimulus": "<p id=\"stim\">+</p>", "key_press": -1, "type": "FIXATION", "trial_type": "single-stim", "trial_index": 144, "time_elapsed": 1315227, "internal_node_id": "0.0-99.0-0.0"}}, {"uniqueid": "MTK0109:3KXIR214I5NSB26R7MQKRM3XCAO426", "current_trial": 145, "dateTime": 1509157781907, "trialdata": {"rt": -1000, "stimulus": "/static/audio/wordpool/SERVANT.wav", "key_press": -1, "type": "PRES_AUD", "word": "servant", "wordID": 1270, "conditions": [24, 800, "a", 12000], "trial": 4, "serialpos": 0, "trial_type": "single-audio", "trial_index": 145, "time_elapsed": 1317012, "internal_node_id": "0.0-100.0"}}, {"uniqueid": "MTK0109:3KXIR214I5NSB26R7MQKRM3XCAO426", "current_trial": 146, "dateTime": 1509157783849, "trialdata": {"rt": -1000, "stimulus": "/static/audio/wordpool/COCOON.wav", "key_press": -1, "type": "PRES_AUD", "word": "cocoon", "wordID": 338, "conditions": [24, 800, "a", 12000], "trial": 4, "serialpos": 1, "trial_type": "single-audio", "trial_index": 146, "time_elapsed": 1318954, "internal_node_id": "0.0-101.0"}}, {"uniqueid": "MTK0109:3KXIR214I5NSB26R7MQKRM3XCAO426", "current_trial": 147, "dateTime": 1509157785528, "trialdata": {"rt": -1000, "stimulus": "/static/audio/wordpool/DENTIST.wav", "key_press": -1, "type": "PRES_AUD", "word": "dentist", "wordID": 446, "conditions": [24, 800, "a", 12000], "trial": 4, "serialpos": 2, "trial_type": "single-audio", "trial_index": 147, "time_elapsed": 1320633, "internal_node_id": "0.0-102.0"}}, {"uniqueid": "MTK0109:3KXIR214I5NSB26R7MQKRM3XCAO426", "current_trial": 148, "dateTime": 1509157787273, "trialdata": {"rt": -1000, "stimulus": "/static/audio/wordpool/CLAM.wav", "key_press": -1, "type": "PRES_AUD", "word": "clam", "wordID": 314, "conditions": [24, 800, "a", 12000], "trial": 4, "serialpos": 3, "trial_type": "single-audio", "trial_index": 148, "time_elapsed": 1322378, "internal_node_id": "0.0-103.0"}}, {"uniqueid": "MTK0109:3KXIR214I5NSB26R7MQKRM3XCAO426", "current_trial": 149, "dateTime": 1509157789153, "trialdata": {"rt": -1000, "stimulus": "/static/audio/wordpool/BALLOON.wav", "key_press": -1, "type": "PRES_AUD", "word": "balloon", "wordID": 74, "conditions": [24, 800, "a", 12000], "trial": 4, "serialpos": 4, "trial_type": "single-audio", "trial_index": 149, "time_elapsed": 1324258, "internal_node_id": "0.0-104.0"}}, {"uniqueid": "MTK0109:3KXIR214I5NSB26R7MQKRM3XCAO426", "current_trial": 150, "dateTime": 1509157791021, "trialdata": {"rt": -1000, "stimulus": "/static/audio/wordpool/UNCLE.wav", "key_press": -1, "type": "PRES_AUD", "word": "uncle", "wordID": 1535, "conditions": [24, 800, "a", 12000], "trial": 4, "serialpos": 5, "trial_type": "single-audio", "trial_index": 150, "time_elapsed": 1326126, "internal_node_id": "0.0-105.0"}}, {"uniqueid": "MTK0109:3KXIR214I5NSB26R7MQKRM3XCAO426", "current_trial": 151, "dateTime": 1509157793006, "trialdata": {"rt": -1000, "stimulus": "/static/audio/wordpool/LETTUCE.wav", "key_press": -1, "type": "PRES_AUD", "word": "lettuce", "wordID": 813, "conditions": [24, 800, "a", 12000], "trial": 4, "serialpos": 6, "trial_type": "single-audio", "trial_index": 151, "time_elapsed": 1328110, "internal_node_id": "0.0-106.0"}}, {"uniqueid": "MTK0109:3KXIR214I5NSB26R7MQKRM3XCAO426", "current_trial": 152, "dateTime": 1509157794996, "trialdata": {"rt": -1000, "stimulus": "/static/audio/wordpool/FRUIT.wav", "key_press": -1, "type": "PRES_AUD", "word": "fruit", "wordID": 609, "conditions": [24, 800, "a", 12000], "trial": 4, "serialpos": 7, "trial_type": "single-audio", "trial_index": 152, "time_elapsed": 1330101, "internal_node_id": "0.0-107.0"}}, {"uniqueid": "MTK0109:3KXIR214I5NSB26R7MQKRM3XCAO426", "current_trial": 153, "dateTime": 1509157796681, "trialdata": {"rt": -1000, "stimulus": "/static/audio/wordpool/CLOCK.wav", "key_press": -1, "type": "PRES_AUD", "word": "clock", "wordID": 324, "conditions": [24, 800, "a", 12000], "trial": 4, "serialpos": 8, "trial_type": "single-audio", "trial_index": 153, "time_elapsed": 1331786, "internal_node_id": "0.0-108.0"}}, {"uniqueid": "MTK0109:3KXIR214I5NSB26R7MQKRM3XCAO426", "current_trial": 154, "dateTime": 1509157798308, "trialdata": {"rt": -1000, "stimulus": "/static/audio/wordpool/SPOOL.wav", "key_press": -1, "type": "PRES_AUD", "word": "spool", "wordID": 1355, "conditions": [24, 800, "a", 12000], "trial": 4, "serialpos": 9, "trial_type": "single-audio", "trial_index": 154, "time_elapsed": 1333413, "internal_node_id": "0.0-109.0"}}, {"uniqueid": "MTK0109:3KXIR214I5NSB26R7MQKRM3XCAO426", "current_trial": 155, "dateTime": 1509157800094, "trialdata": {"rt": -1000, "stimulus": "/static/audio/wordpool/WIFE.wav", "key_press": -1, "type": "PRES_AUD", "word": "wife", "wordID": 1608, "conditions": [24, 800, "a", 12000], "trial": 4, "serialpos": 10, "trial_type": "single-audio", "trial_index": 155, "time_elapsed": 1335199, "internal_node_id": "0.0-110.0"}}, {"uniqueid": "MTK0109:3KXIR214I5NSB26R7MQKRM3XCAO426", "current_trial": 156, "dateTime": 1509157801840, "trialdata": {"rt": -1000, "stimulus": "/static/audio/wordpool/MUFFIN.wav", "key_press": -1, "type": "PRES_AUD", "word": "muffin", "wordID": 928, "conditions": [24, 800, "a", 12000], "trial": 4, "serialpos": 11, "trial_type": "single-audio", "trial_index": 156, "time_elapsed": 1336945, "internal_node_id": "0.0-111.0"}}, {"uniqueid": "MTK0109:3KXIR214I5NSB26R7MQKRM3XCAO426", "current_trial": 157, "dateTime": 1509157803720, "trialdata": {"rt": -1000, "stimulus": "/static/audio/wordpool/STOVE.wav", "key_press": -1, "type": "PRES_AUD", "word": "stove", "wordID": 1387, "conditions": [24, 800, "a", 12000], "trial": 4, "serialpos": 12, "trial_type": "single-audio", "trial_index": 157, "time_elapsed": 1338825, "internal_node_id": "0.0-112.0"}}, {"uniqueid": "MTK0109:3KXIR214I5NSB26R7MQKRM3XCAO426", "current_trial": 158, "dateTime": 1509157805701, "trialdata": {"rt": -1000, "stimulus": "/static/audio/wordpool/ASIA.wav", "key_press": -1, "type": "PRES_AUD", "word": "asia", "wordID": 45, "conditions": [24, 800, "a", 12000], "trial": 4, "serialpos": 13, "trial_type": "single-audio", "trial_index": 158, "time_elapsed": 1340806, "internal_node_id": "0.0-113.0"}}, {"uniqueid": "MTK0109:3KXIR214I5NSB26R7MQKRM3XCAO426", "current_trial": 159, "dateTime": 1509157807537, "trialdata": {"rt": -1000, "stimulus": "/static/audio/wordpool/ATOM.wav", "key_press": -1, "type": "PRES_AUD", "word": "atom", "wordID": 54, "conditions": [24, 800, "a", 12000], "trial": 4, "serialpos": 14, "trial_type": "single-audio", "trial_index": 159, "time_elapsed": 1342642, "internal_node_id": "0.0-114.0"}}, {"uniqueid": "MTK0109:3KXIR214I5NSB26R7MQKRM3XCAO426", "current_trial": 160, "dateTime": 1509157809212, "trialdata": {"rt": -1000, "stimulus": "/static/audio/wordpool/BINDER.wav", "key_press": -1, "type": "PRES_AUD", "word": "binder", "wordID": 126, "conditions": [24, 800, "a", 12000], "trial": 4, "serialpos": 15, "trial_type": "single-audio", "trial_index": 160, "time_elapsed": 1344317, "internal_node_id": "0.0-115.0"}}, {"uniqueid": "MTK0109:3KXIR214I5NSB26R7MQKRM3XCAO426", "current_trial": 161, "dateTime": 1509157810886, "trialdata": {"rt": -1000, "stimulus": "/static/audio/wordpool/GRILL.wav", "key_press": -1, "type": "PRES_AUD", "word": "grill", "wordID": 660, "conditions": [24, 800, "a", 12000], "trial": 4, "serialpos": 16, "trial_type": "single-audio", "trial_index": 161, "time_elapsed": 1345991, "internal_node_id": "0.0-116.0"}}, {"uniqueid": "MTK0109:3KXIR214I5NSB26R7MQKRM3XCAO426", "current_trial": 162, "dateTime": 1509157812717, "trialdata": {"rt": -1000, "stimulus": "/static/audio/wordpool/WASHER.wav", "key_press": -1, "type": "PRES_AUD", "word": "washer", "wordID": 1591, "conditions": [24, 800, "a", 12000], "trial": 4, "serialpos": 17, "trial_type": "single-audio", "trial_index": 162, "time_elapsed": 1347822, "internal_node_id": "0.0-117.0"}}, {"uniqueid": "MTK0109:3KXIR214I5NSB26R7MQKRM3XCAO426", "current_trial": 163, "dateTime": 1509157814712, "trialdata": {"rt": -1000, "stimulus": "/static/audio/wordpool/COUNTRY.wav", "key_press": -1, "type": "PRES_AUD", "word": "country", "wordID": 387, "conditions": [24, 800, "a", 12000], "trial": 4, "serialpos": 18, "trial_type": "single-audio", "trial_index": 163, "time_elapsed": 1349817, "internal_node_id": "0.0-118.0"}}, {"uniqueid": "MTK0109:3KXIR214I5NSB26R7MQKRM3XCAO426", "current_trial": 164, "dateTime": 1509157816350, "trialdata": {"rt": -1000, "stimulus": "/static/audio/wordpool/CAPTIVE.wav", "key_press": -1, "type": "PRES_AUD", "word": "captive", "wordID": 239, "conditions": [24, 800, "a", 12000], "trial": 4, "serialpos": 19, "trial_type": "single-audio", "trial_index": 164, "time_elapsed": 1351455, "internal_node_id": "0.0-119.0"}}, {"uniqueid": "MTK0109:3KXIR214I5NSB26R7MQKRM3XCAO426", "current_trial": 165, "dateTime": 1509157818312, "trialdata": {"rt": -1000, "stimulus": "/static/audio/wordpool/ROBBER.wav", "key_press": -1, "type": "PRES_AUD", "word": "robber", "wordID": 1196, "conditions": [24, 800, "a", 12000], "trial": 4, "serialpos": 20, "trial_type": "single-audio", "trial_index": 165, "time_elapsed": 1353417, "internal_node_id": "0.0-120.0"}}, {"uniqueid": "MTK0109:3KXIR214I5NSB26R7MQKRM3XCAO426", "current_trial": 166, "dateTime": 1509157820018, "trialdata": {"rt": -1000, "stimulus": "/static/audio/wordpool/THIEF.wav", "key_press": -1, "type": "PRES_AUD", "word": "thief", "wordID": 1455, "conditions": [24, 800, "a", 12000], "trial": 4, "serialpos": 21, "trial_type": "single-audio", "trial_index": 166, "time_elapsed": 1355123, "internal_node_id": "0.0-121.0"}}, {"uniqueid": "MTK0109:3KXIR214I5NSB26R7MQKRM3XCAO426", "current_trial": 167, "dateTime": 1509157822002, "trialdata": {"rt": -1000, "stimulus": "/static/audio/wordpool/BOX.wav", "key_press": -1, "type": "PRES_AUD", "word": "box", "wordID": 158, "conditions": [24, 800, "a", 12000], "trial": 4, "serialpos": 22, "trial_type": "single-audio", "trial_index": 167, "time_elapsed": 1357107, "internal_node_id": "0.0-122.0"}}, {"uniqueid": "MTK0109:3KXIR214I5NSB26R7MQKRM3XCAO426", "current_trial": 168, "dateTime": 1509157823812, "trialdata": {"rt": -1000, "stimulus": "/static/audio/wordpool/EUROPE.wav", "key_press": -1, "type": "PRES_AUD", "word": "europe", "wordID": 540, "conditions": [24, 800, "a", 12000], "trial": 4, "serialpos": 23, "trial_type": "single-audio", "trial_index": 168, "time_elapsed": 1358917, "internal_node_id": "0.0-123.0"}}, {"uniqueid": "MTK0109:3KXIR214I5NSB26R7MQKRM3XCAO426", "current_trial": 169, "dateTime": 1509157825067, "trialdata": {"rt": -1, "stimulus": "", "key_press": -1, "type": "PRE_RECALL_DELAY", "trial_type": "single-stim", "trial_index": 169, "time_elapsed": 1360172, "internal_node_id": "0.0-124.0-0.0"}}, {"uniqueid": "MTK0109:3KXIR214I5NSB26R7MQKRM3XCAO426", "current_trial": 170, "dateTime": 1509157825567, "trialdata": {"rt": -1000, "stimulus": "/static/audio/400Hz.wav", "key_press": -1, "type": "PRE_RECALL_ALERT", "trial_type": "single-audio", "trial_index": 170, "time_elapsed": 1360672, "internal_node_id": "0.0-125.0"}}, {"uniqueid": "MTK0109:3KXIR214I5NSB26R7MQKRM3XCAO426", "current_trial": 171, "dateTime": 1509157885618, "trialdata": {"rt": [5894, 8030, 10958, 13198, 15238, 15982, 18486, 27278, 32174, 34254, 36806], "recwords": ["europe", "country", "thief", "asia", "wife", "", "uncle", "dentist", "stove", "grill", "washer"], "type": "FREE_RECALL", "conditions": [24, 800, "a", 12000], "trial": 4, "trial_type": "free-recall", "trial_index": 171, "time_elapsed": 1420713, "internal_node_id": "0.0-126.0-0.0"}}, {"uniqueid": "MTK0109:3KXIR214I5NSB26R7MQKRM3XCAO426", "current_trial": 172, "dateTime": 1509157889081, "trialdata": {"rt": 1462, "key_press": 32, "type": "INSTRUCTIONS", "trial_type": "text", "trial_index": 172, "time_elapsed": 1424186, "internal_node_id": "0.0-127.0"}}, {"uniqueid": "MTK0109:3KXIR214I5NSB26R7MQKRM3XCAO426", "current_trial": 173, "dateTime": 1509157903083, "trialdata": {"rt": [2021, 5661, 7820, 10894], "responses": ["8", "21", "17", "16"], "num1": [5, 7, 9, 8, 1], "num2": [1, 8, 1, 6, 3], "num3": [2, 6, 7, 2, 5], "type": "DISTRACTOR", "conditions": [24, 1600, "v", 12000], "trial": 5, "trial_type": "math-distractor", "trial_index": 173, "time_elapsed": 1438188, "internal_node_id": "0.0-128.0"}}, {"uniqueid": "MTK0109:3KXIR214I5NSB26R7MQKRM3XCAO426", "current_trial": 174, "dateTime": 1509157906084, "trialdata": {"rt": -1, "stimulus": "<p id=\"stim\">10</p>", "key_press": -1, "trial_type": "single-stim", "trial_index": 174, "time_elapsed": 1441189, "internal_node_id": "0.0-129.0-0.0"}}, {"uniqueid": "MTK0109:3KXIR214I5NSB26R7MQKRM3XCAO426", "current_trial": 175, "dateTime": 1509157907085, "trialdata": {"rt": -1, "stimulus": "<p id=\"stim\">9</p>", "key_press": -1, "trial_type": "single-stim", "trial_index": 175, "time_elapsed": 1442189, "internal_node_id": "0.0-129.0-1.0"}}, {"uniqueid": "MTK0109:3KXIR214I5NSB26R7MQKRM3XCAO426", "current_trial": 176, "dateTime": 1509157908086, "trialdata": {"rt": -1, "stimulus": "<p id=\"stim\">8</p>", "key_press": -1, "trial_type": "single-stim", "trial_index": 176, "time_elapsed": 1443190, "internal_node_id": "0.0-129.0-2.0"}}, {"uniqueid": "MTK0109:3KXIR214I5NSB26R7MQKRM3XCAO426", "current_trial": 177, "dateTime": 1509157909087, "trialdata": {"rt": -1, "stimulus": "<p id=\"stim\">7</p>", "key_press": -1, "trial_type": "single-stim", "trial_index": 177, "time_elapsed": 1444191, "internal_node_id": "0.0-129.0-3.0"}}, {"uniqueid": "MTK0109:3KXIR214I5NSB26R7MQKRM3XCAO426", "current_trial": 178, "dateTime": 1509157910088, "trialdata": {"rt": -1, "stimulus": "<p id=\"stim\">6</p>", "key_press": -1, "trial_type": "single-stim", "trial_index": 178, "time_elapsed": 1445192, "internal_node_id": "0.0-129.0-4.0"}}, {"uniqueid": "MTK0109:3KXIR214I5NSB26R7MQKRM3XCAO426", "current_trial": 179, "dateTime": 1509157911089, "trialdata": {"rt": -1, "stimulus": "<p id=\"stim\">5</p>", "key_press": -1, "trial_type": "single-stim", "trial_index": 179, "time_elapsed": 1446193, "internal_node_id": "0.0-129.0-5.0"}}, {"uniqueid": "MTK0109:3KXIR214I5NSB26R7MQKRM3XCAO426", "current_trial": 180, "dateTime": 1509157912090, "trialdata": {"rt": -1, "stimulus": "<p id=\"stim\">4</p>", "key_press": -1, "trial_type": "single-stim", "trial_index": 180, "time_elapsed": 1447194, "internal_node_id": "0.0-129.0-6.0"}}, {"uniqueid": "MTK0109:3KXIR214I5NSB26R7MQKRM3XCAO426", "current_trial": 181, "dateTime": 1509157913091, "trialdata": {"rt": -1, "stimulus": "<p id=\"stim\">3</p>", "key_press": -1, "trial_type": "single-stim", "trial_index": 181, "time_elapsed": 1448195, "internal_node_id": "0.0-129.0-7.0"}}, {"uniqueid": "MTK0109:3KXIR214I5NSB26R7MQKRM3XCAO426", "current_trial": 182, "dateTime": 1509157914091, "trialdata": {"rt": -1, "stimulus": "<p id=\"stim\">2</p>", "key_press": -1, "trial_type": "single-stim", "trial_index": 182, "time_elapsed": 1449196, "internal_node_id": "0.0-129.0-8.0"}}, {"uniqueid": "MTK0109:3KXIR214I5NSB26R7MQKRM3XCAO426", "current_trial": 183, "dateTime": 1509157915093, "trialdata": {"rt": -1, "stimulus": "<p id=\"stim\">1</p>", "key_press": -1, "trial_type": "single-stim", "trial_index": 183, "time_elapsed": 1450197, "internal_node_id": "0.0-129.0-9.0"}}, {"uniqueid": "MTK0109:3KXIR214I5NSB26R7MQKRM3XCAO426", "current_trial": 184, "dateTime": 1509157916594, "trialdata": {"rt": -1, "stimulus": "<p id=\"stim\">+</p>", "key_press": -1, "type": "FIXATION", "trial_type": "single-stim", "trial_index": 184, "time_elapsed": 1451698, "internal_node_id": "0.0-130.0-0.0"}}, {"uniqueid": "MTK0109:3KXIR214I5NSB26R7MQKRM3XCAO426", "current_trial": 185, "dateTime": 1509157918195, "trialdata": {"rt": -1, "stimulus": "<p id=\"stim\">REPORT</p>", "key_press": -1, "type": "PRES_VIS", "word": "report", "wordID": 1183, "conditions": [24, 1600, "v", 12000], "trial": 5, "serialpos": 0, "trial_type": "single-stim", "trial_index": 185, "time_elapsed": 1453299, "internal_node_id": "0.0-131.0"}}, {"uniqueid": "MTK0109:3KXIR214I5NSB26R7MQKRM3XCAO426", "current_trial": 186, "dateTime": 1509157920690, "trialdata": {"rt": -1, "stimulus": "<p id=\"stim\">CHEST</p>", "key_press": -1, "type": "PRES_VIS", "word": "chest", "wordID": 294, "conditions": [24, 1600, "v", 12000], "trial": 5, "serialpos": 1, "trial_type": "single-stim", "trial_index": 186, "time_elapsed": 1455794, "internal_node_id": "0.0-132.0"}}, {"uniqueid": "MTK0109:3KXIR214I5NSB26R7MQKRM3XCAO426", "current_trial": 187, "dateTime": 1509157923478, "trialdata": {"rt": -1, "stimulus": "<p id=\"stim\">LIGHTNING</p>", "key_press": -1, "type": "PRES_VIS", "word": "lightning", "wordID": 819, "conditions": [24, 1600, "v", 12000], "trial": 5, "serialpos": 2, "trial_type": "single-stim", "trial_index": 187, "time_elapsed": 1458582, "internal_node_id": "0.0-133.0"}}, {"uniqueid": "MTK0109:3KXIR214I5NSB26R7MQKRM3XCAO426", "current_trial": 188, "dateTime": 1509157925905, "trialdata": {"rt": -1, "stimulus": "<p id=\"stim\">SLOPE</p>", "key_press": -1, "type": "PRES_VIS", "word": "slope", "wordID": 1327, "conditions": [24, 1600, "v", 12000], "trial": 5, "serialpos": 3, "trial_type": "single-stim", "trial_index": 188, "time_elapsed": 1461009, "internal_node_id": "0.0-134.0"}}, {"uniqueid": "MTK0109:3KXIR214I5NSB26R7MQKRM3XCAO426", "current_trial": 189, "dateTime": 1509157928457, "trialdata": {"rt": -1, "stimulus": "<p id=\"stim\">PAPER</p>", "key_press": -1, "type": "PRES_VIS", "word": "paper", "wordID": 1010, "conditions": [24, 1600, "v", 12000], "trial": 5, "serialpos": 4, "trial_type": "single-stim", "trial_index": 189, "time_elapsed": 1463561, "internal_node_id": "0.0-135.0"}}, {"uniqueid": "MTK0109:3KXIR214I5NSB26R7MQKRM3XCAO426", "current_trial": 190, "dateTime": 1509157931057, "trialdata": {"rt": -1, "stimulus": "<p id=\"stim\">GIRL</p>", "key_press": -1, "type": "PRES_VIS", "word": "girl", "wordID": 636, "conditions": [24, 1600, "v", 12000], "trial": 5, "serialpos": 5, "trial_type": "single-stim", "trial_index": 190, "time_elapsed": 1466161, "internal_node_id": "0.0-136.0"}}, {"uniqueid": "MTK0109:3KXIR214I5NSB26R7MQKRM3XCAO426", "current_trial": 191, "dateTime": 1509157933750, "trialdata": {"rt": -1, "stimulus": "<p id=\"stim\">COUCH</p>", "key_press": -1, "type": "PRES_VIS", "word": "couch", "wordID": 385, "conditions": [24, 1600, "v", 12000], "trial": 5, "serialpos": 6, "trial_type": "single-stim", "trial_index": 191, "time_elapsed": 1468854, "internal_node_id": "0.0-137.0"}}, {"uniqueid": "MTK0109:3KXIR214I5NSB26R7MQKRM3XCAO426", "current_trial": 192, "dateTime": 1509157936166, "trialdata": {"rt": -1, "stimulus": "<p id=\"stim\">PUDDLE</p>", "key_press": -1, "type": "PRES_VIS", "word": "puddle", "wordID": 1139, "conditions": [24, 1600, "v", 12000], "trial": 5, "serialpos": 7, "trial_type": "single-stim", "trial_index": 192, "time_elapsed": 1471270, "internal_node_id": "0.0-138.0"}}, {"uniqueid": "MTK0109:3KXIR214I5NSB26R7MQKRM3XCAO426", "current_trial": 193, "dateTime": 1509157938650, "trialdata": {"rt": -1, "stimulus": "<p id=\"stim\">POCKET</p>", "key_press": -1, "type": "PRES_VIS", "word": "pocket", "wordID": 1092, "conditions": [24, 1600, "v", 12000], "trial": 5, "serialpos": 8, "trial_type": "single-stim", "trial_index": 193, "time_elapsed": 1473754, "internal_node_id": "0.0-139.0"}}, {"uniqueid": "MTK0109:3KXIR214I5NSB26R7MQKRM3XCAO426", "current_trial": 194, "dateTime": 1509157941318, "trialdata": {"rt": -1, "stimulus": "<p id=\"stim\">BRIEFCASE</p>", "key_press": -1, "type": "PRES_VIS", "word": "briefcase", "wordID": 174, "conditions": [24, 1600, "v", 12000], "trial": 5, "serialpos": 9, "trial_type": "single-stim", "trial_index": 194, "time_elapsed": 1476422, "internal_node_id": "0.0-140.0"}}, {"uniqueid": "MTK0109:3KXIR214I5NSB26R7MQKRM3XCAO426", "current_trial": 195, "dateTime": 1509157943938, "trialdata": {"rt": -1, "stimulus": "<p id=\"stim\">STOMACH</p>", "key_press": -1, "type": "PRES_VIS", "word": "stomach", "wordID": 1383, "conditions": [24, 1600, "v", 12000], "trial": 5, "serialpos": 10, "trial_type": "single-stim", "trial_index": 195, "time_elapsed": 1479042, "internal_node_id": "0.0-141.0"}}, {"uniqueid": "MTK0109:3KXIR214I5NSB26R7MQKRM3XCAO426", "current_trial": 196, "dateTime": 1509157946502, "trialdata": {"rt": -1, "stimulus": "<p id=\"stim\">FRAME</p>", "key_press": -1, "type": "PRES_VIS", "word": "frame", "wordID": 599, "conditions": [24, 1600, "v", 12000], "trial": 5, "serialpos": 11, "trial_type": "single-stim", "trial_index": 196, "time_elapsed": 1481607, "internal_node_id": "0.0-142.0"}}, {"uniqueid": "MTK0109:3KXIR214I5NSB26R7MQKRM3XCAO426", "current_trial": 197, "dateTime": 1509157948937, "trialdata": {"rt": -1, "stimulus": "<p id=\"stim\">STUDENT</p>", "key_press": -1, "type": "PRES_VIS", "word": "student", "wordID": 1394, "conditions": [24, 1600, "v", 12000], "trial": 5, "serialpos": 12, "trial_type": "single-stim", "trial_index": 197, "time_elapsed": 1484041, "internal_node_id": "0.0-143.0"}}, {"uniqueid": "MTK0109:3KXIR214I5NSB26R7MQKRM3XCAO426", "current_trial": 198, "dateTime": 1509157951711, "trialdata": {"rt": -1, "stimulus": "<p id=\"stim\">COLLEGE</p>", "key_press": -1, "type": "PRES_VIS", "word": "college", "wordID": 345, "conditions": [24, 1600, "v", 12000], "trial": 5, "serialpos": 13, "trial_type": "single-stim", "trial_index": 198, "time_elapsed": 1486815, "internal_node_id": "0.0-144.0"}}, {"uniqueid": "MTK0109:3KXIR214I5NSB26R7MQKRM3XCAO426", "current_trial": 199, "dateTime": 1509157954484, "trialdata": {"rt": -1, "stimulus": "<p id=\"stim\">CABBAGE</p>", "key_press": -1, "type": "PRES_VIS", "word": "cabbage", "wordID": 209, "conditions": [24, 1600, "v", 12000], "trial": 5, "serialpos": 14, "trial_type": "single-stim", "trial_index": 199, "time_elapsed": 1489588, "internal_node_id": "0.0-145.0"}}, {"uniqueid": "MTK0109:3KXIR214I5NSB26R7MQKRM3XCAO426", "current_trial": 200, "dateTime": 1509157957005, "trialdata": {"rt": -1, "stimulus": "<p id=\"stim\">CRAYON</p>", "key_press": -1, "type": "PRES_VIS", "word": "crayon", "wordID": 400, "conditions": [24, 1600, "v", 12000], "trial": 5, "serialpos": 15, "trial_type": "single-stim", "trial_index": 200, "time_elapsed": 1492109, "internal_node_id": "0.0-146.0"}}, {"uniqueid": "MTK0109:3KXIR214I5NSB26R7MQKRM3XCAO426", "current_trial": 201, "dateTime": 1509157959687, "trialdata": {"rt": -1, "stimulus": "<p id=\"stim\">GIFT</p>", "key_press": -1, "type": "PRES_VIS", "word": "gift", "wordID": 634, "conditions": [24, 1600, "v", 12000], "trial": 5, "serialpos": 16, "trial_type": "single-stim", "trial_index": 201, "time_elapsed": 1494792, "internal_node_id": "0.0-147.0"}}, {"uniqueid": "MTK0109:3KXIR214I5NSB26R7MQKRM3XCAO426", "current_trial": 202, "dateTime": 1509157962378, "trialdata": {"rt": -1, "stimulus": "<p id=\"stim\">PERMIT</p>", "key_press": -1, "type": "PRES_VIS", "word": "permit", "wordID": 1050, "conditions": [24, 1600, "v", 12000], "trial": 5, "serialpos": 17, "trial_type": "single-stim", "trial_index": 202, "time_elapsed": 1497483, "internal_node_id": "0.0-148.0"}}, {"uniqueid": "MTK0109:3KXIR214I5NSB26R7MQKRM3XCAO426", "current_trial": 203, "dateTime": 1509157965149, "trialdata": {"rt": -1, "stimulus": "<p id=\"stim\">FRAGRANCE</p>", "key_press": -1, "type": "PRES_VIS", "word": "fragrance", "wordID": 598, "conditions": [24, 1600, "v", 12000], "trial": 5, "serialpos": 18, "trial_type": "single-stim", "trial_index": 203, "time_elapsed": 1500253, "internal_node_id": "0.0-149.0"}}, {"uniqueid": "MTK0109:3KXIR214I5NSB26R7MQKRM3XCAO426", "current_trial": 204, "dateTime": 1509157967929, "trialdata": {"rt": -1, "stimulus": "<p id=\"stim\">FIDDLE</p>", "key_press": -1, "type": "PRES_VIS", "word": "fiddle", "wordID": 560, "conditions": [24, 1600, "v", 12000], "trial": 5, "serialpos": 19, "trial_type": "single-stim", "trial_index": 204, "time_elapsed": 1503033, "internal_node_id": "0.0-150.0"}}, {"uniqueid": "MTK0109:3KXIR214I5NSB26R7MQKRM3XCAO426", "current_trial": 205, "dateTime": 1509157970369, "trialdata": {"rt": -1, "stimulus": "<p id=\"stim\">ICEBERG</p>", "key_press": -1, "type": "PRES_VIS", "word": "iceberg", "wordID": 730, "conditions": [24, 1600, "v", 12000], "trial": 5, "serialpos": 20, "trial_type": "single-stim", "trial_index": 205, "time_elapsed": 1505474, "internal_node_id": "0.0-151.0"}}, {"uniqueid": "MTK0109:3KXIR214I5NSB26R7MQKRM3XCAO426", "current_trial": 206, "dateTime": 1509157973031, "trialdata": {"rt": -1, "stimulus": "<p id=\"stim\">RECEIPT</p>", "key_press": -1, "type": "PRES_VIS", "word": "receipt", "wordID": 1172, "conditions": [24, 1600, "v", 12000], "trial": 5, "serialpos": 21, "trial_type": "single-stim", "trial_index": 206, "time_elapsed": 1508135, "internal_node_id": "0.0-152.0"}}, {"uniqueid": "MTK0109:3KXIR214I5NSB26R7MQKRM3XCAO426", "current_trial": 207, "dateTime": 1509157975731, "trialdata": {"rt": -1, "stimulus": "<p id=\"stim\">ONION</p>", "key_press": -1, "type": "PRES_VIS", "word": "onion", "wordID": 976, "conditions": [24, 1600, "v", 12000], "trial": 5, "serialpos": 22, "trial_type": "single-stim", "trial_index": 207, "time_elapsed": 1510835, "internal_node_id": "0.0-153.0"}}, {"uniqueid": "MTK0109:3KXIR214I5NSB26R7MQKRM3XCAO426", "current_trial": 208, "dateTime": 1509157978368, "trialdata": {"rt": -1, "stimulus": "<p id=\"stim\">EGYPT</p>", "key_press": -1, "type": "PRES_VIS", "word": "egypt", "wordID": 518, "conditions": [24, 1600, "v", 12000], "trial": 5, "serialpos": 23, "trial_type": "single-stim", "trial_index": 208, "time_elapsed": 1513473, "internal_node_id": "0.0-154.0"}}, {"uniqueid": "MTK0109:3KXIR214I5NSB26R7MQKRM3XCAO426", "current_trial": 209, "dateTime": 1509157980858, "trialdata": {"rt": -1, "stimulus": "", "key_press": -1, "type": "PRE_RECALL_DELAY", "trial_type": "single-stim", "trial_index": 209, "time_elapsed": 1515962, "internal_node_id": "0.0-155.0-0.0"}}, {"uniqueid": "MTK0109:3KXIR214I5NSB26R7MQKRM3XCAO426", "current_trial": 210, "dateTime": 1509157981358, "trialdata": {"rt": -1000, "stimulus": "/static/audio/400Hz.wav", "key_press": -1, "type": "PRE_RECALL_ALERT", "trial_type": "single-audio", "trial_index": 210, "time_elapsed": 1516463, "internal_node_id": "0.0-156.0"}}, {"uniqueid": "MTK0109:3KXIR214I5NSB26R7MQKRM3XCAO426", "current_trial": 211, "dateTime": 1509158041367, "trialdata": {"rt": [4544, 8127, 12911, 14271, 16783, 19543, 21672, 23440, 25751, 30823], "recwords": ["onion", "egypt", "frame", "girl", "student", "report", "college", "couch", "paper", "frame"], "type": "FREE_RECALL", "conditions": [24, 1600, "v", 12000], "trial": 5, "trial_type": "free-recall", "trial_index": 211, "time_elapsed": 1576466, "internal_node_id": "0.0-157.0-0.0"}}, {"uniqueid": "MTK0109:3KXIR214I5NSB26R7MQKRM3XCAO426", "current_trial": 212, "dateTime": 1509158129601, "trialdata": {"rt": 86233, "key_press": 32, "type": "INSTRUCTIONS", "trial_type": "text", "trial_index": 212, "time_elapsed": 1664706, "internal_node_id": "0.0-158.0"}}, {"uniqueid": "MTK0109:3KXIR214I5NSB26R7MQKRM3XCAO426", "current_trial": 213, "dateTime": 1509158143604, "trialdata": {"rt": [3460, 8428], "responses": ["17", "21"], "num1": [3, 7, 5], "num2": [7, 9, 7], "num3": [7, 5, 4], "type": "DISTRACTOR", "conditions": [12, 1600, "a", 12000], "trial": 6, "trial_type": "math-distractor", "trial_index": 213, "time_elapsed": 1678709, "internal_node_id": "0.0-159.0"}}, {"uniqueid": "MTK0109:3KXIR214I5NSB26R7MQKRM3XCAO426", "current_trial": 214, "dateTime": 1509158146613, "trialdata": {"rt": -1, "stimulus": "<p id=\"stim\">10</p>", "key_press": -1, "trial_type": "single-stim", "trial_index": 214, "time_elapsed": 1681718, "internal_node_id": "0.0-160.0-0.0"}}, {"uniqueid": "MTK0109:3KXIR214I5NSB26R7MQKRM3XCAO426", "current_trial": 215, "dateTime": 1509158147614, "trialdata": {"rt": -1, "stimulus": "<p id=\"stim\">9</p>", "key_press": -1, "trial_type": "single-stim", "trial_index": 215, "time_elapsed": 1682718, "internal_node_id": "0.0-160.0-1.0"}}, {"uniqueid": "MTK0109:3KXIR214I5NSB26R7MQKRM3XCAO426", "current_trial": 216, "dateTime": 1509158148615, "trialdata": {"rt": -1, "stimulus": "<p id=\"stim\">8</p>", "key_press": -1, "trial_type": "single-stim", "trial_index": 216, "time_elapsed": 1683719, "internal_node_id": "0.0-160.0-2.0"}}, {"uniqueid": "MTK0109:3KXIR214I5NSB26R7MQKRM3XCAO426", "current_trial": 217, "dateTime": 1509158149616, "trialdata": {"rt": -1, "stimulus": "<p id=\"stim\">7</p>", "key_press": -1, "trial_type": "single-stim", "trial_index": 217, "time_elapsed": 1684720, "internal_node_id": "0.0-160.0-3.0"}}, {"uniqueid": "MTK0109:3KXIR214I5NSB26R7MQKRM3XCAO426", "current_trial": 218, "dateTime": 1509158150619, "trialdata": {"rt": -1, "stimulus": "<p id=\"stim\">6</p>", "key_press": -1, "trial_type": "single-stim", "trial_index": 218, "time_elapsed": 1685723, "internal_node_id": "0.0-160.0-4.0"}}, {"uniqueid": "MTK0109:3KXIR214I5NSB26R7MQKRM3XCAO426", "current_trial": 219, "dateTime": 1509158151620, "trialdata": {"rt": -1, "stimulus": "<p id=\"stim\">5</p>", "key_press": -1, "trial_type": "single-stim", "trial_index": 219, "time_elapsed": 1686724, "internal_node_id": "0.0-160.0-5.0"}}, {"uniqueid": "MTK0109:3KXIR214I5NSB26R7MQKRM3XCAO426", "current_trial": 220, "dateTime": 1509158152621, "trialdata": {"rt": -1, "stimulus": "<p id=\"stim\">4</p>", "key_press": -1, "trial_type": "single-stim", "trial_index": 220, "time_elapsed": 1687725, "internal_node_id": "0.0-160.0-6.0"}}, {"uniqueid": "MTK0109:3KXIR214I5NSB26R7MQKRM3XCAO426", "current_trial": 221, "dateTime": 1509158153622, "trialdata": {"rt": -1, "stimulus": "<p id=\"stim\">3</p>", "key_press": -1, "trial_type": "single-stim", "trial_index": 221, "time_elapsed": 1688726, "internal_node_id": "0.0-160.0-7.0"}}, {"uniqueid": "MTK0109:3KXIR214I5NSB26R7MQKRM3XCAO426", "current_trial": 222, "dateTime": 1509158154623, "trialdata": {"rt": -1, "stimulus": "<p id=\"stim\">2</p>", "key_press": -1, "trial_type": "single-stim", "trial_index": 222, "time_elapsed": 1689727, "internal_node_id": "0.0-160.0-8.0"}}, {"uniqueid": "MTK0109:3KXIR214I5NSB26R7MQKRM3XCAO426", "current_trial": 223, "dateTime": 1509158155623, "trialdata": {"rt": -1, "stimulus": "<p id=\"stim\">1</p>", "key_press": -1, "trial_type": "single-stim", "trial_index": 223, "time_elapsed": 1690728, "internal_node_id": "0.0-160.0-9.0"}}, {"uniqueid": "MTK0109:3KXIR214I5NSB26R7MQKRM3XCAO426", "current_trial": 224, "dateTime": 1509158157125, "trialdata": {"rt": -1, "stimulus": "<p id=\"stim\">+</p>", "key_press": -1, "type": "FIXATION", "trial_type": "single-stim", "trial_index": 224, "time_elapsed": 1692229, "internal_node_id": "0.0-161.0-0.0"}}, {"uniqueid": "MTK0109:3KXIR214I5NSB26R7MQKRM3XCAO426", "current_trial": 225, "dateTime": 1509158159912, "trialdata": {"rt": -1000, "stimulus": "/static/audio/wordpool/ROBIN.wav", "key_press": -1, "type": "PRES_AUD", "word": "robin", "wordID": 1198, "conditions": [12, 1600, "a", 12000], "trial": 6, "serialpos": 0, "trial_type": "single-audio", "trial_index": 225, "time_elapsed": 1695017, "internal_node_id": "0.0-162.0"}}, {"uniqueid": "MTK0109:3KXIR214I5NSB26R7MQKRM3XCAO426", "current_trial": 226, "dateTime": 1509158162453, "trialdata": {"rt": -1000, "stimulus": "/static/audio/wordpool/CHAUFFEUR.wav", "key_press": -1, "type": "PRES_AUD", "word": "chauffeur", "wordID": 282, "conditions": [12, 1600, "a", 12000], "trial": 6, "serialpos": 1, "trial_type": "single-audio", "trial_index": 226, "time_elapsed": 1697558, "internal_node_id": "0.0-163.0"}}, {"uniqueid": "MTK0109:3KXIR214I5NSB26R7MQKRM3XCAO426", "current_trial": 227, "dateTime": 1509158165151, "trialdata": {"rt": -1000, "stimulus": "/static/audio/wordpool/PLAYGROUND.wav", "key_press": -1, "type": "PRES_AUD", "word": "playground", "wordID": 1086, "conditions": [12, 1600, "a", 12000], "trial": 6, "serialpos": 2, "trial_type": "single-audio", "trial_index": 227, "time_elapsed": 1700256, "internal_node_id": "0.0-164.0"}}, {"uniqueid": "MTK0109:3KXIR214I5NSB26R7MQKRM3XCAO426", "current_trial": 228, "dateTime": 1509158167818, "trialdata": {"rt": -1000, "stimulus": "/static/audio/wordpool/YACHT.wav", "key_press": -1, "type": "PRES_AUD", "word": "yacht", "wordID": 1628, "conditions": [12, 1600, "a", 12000], "trial": 6, "serialpos": 3, "trial_type": "single-audio", "trial_index": 228, "time_elapsed": 1702923, "internal_node_id": "0.0-165.0"}}, {"uniqueid": "MTK0109:3KXIR214I5NSB26R7MQKRM3XCAO426", "current_trial": 229, "dateTime": 1509158170511, "trialdata": {"rt": -1000, "stimulus": "/static/audio/wordpool/BLACKBOARD.wav", "key_press": -1, "type": "PRES_AUD", "word": "blackboard", "wordID": 132, "conditions": [12, 1600, "a", 12000], "trial": 6, "serialpos": 4, "trial_type": "single-audio", "trial_index": 229, "time_elapsed": 1705616, "internal_node_id": "0.0-166.0"}}, {"uniqueid": "MTK0109:3KXIR214I5NSB26R7MQKRM3XCAO426", "current_trial": 230, "dateTime": 1509158173004, "trialdata": {"rt": -1000, "stimulus": "/static/audio/wordpool/SLIME.wav", "key_press": -1, "type": "PRES_AUD", "word": "slime", "wordID": 1326, "conditions": [12, 1600, "a", 12000], "trial": 6, "serialpos": 5, "trial_type": "single-audio", "trial_index": 230, "time_elapsed": 1708109, "internal_node_id": "0.0-167.0"}}, {"uniqueid": "MTK0109:3KXIR214I5NSB26R7MQKRM3XCAO426", "current_trial": 231, "dateTime": 1509158175459, "trialdata": {"rt": -1000, "stimulus": "/static/audio/wordpool/SKIRT.wav", "key_press": -1, "type": "PRES_AUD", "word": "skirt", "wordID": 1318, "conditions": [12, 1600, "a", 12000], "trial": 6, "serialpos": 6, "trial_type": "single-audio", "trial_index": 231, "time_elapsed": 1710564, "internal_node_id": "0.0-168.0"}}, {"uniqueid": "MTK0109:3KXIR214I5NSB26R7MQKRM3XCAO426", "current_trial": 232, "dateTime": 1509158178191, "trialdata": {"rt": -1000, "stimulus": "/static/audio/wordpool/DRESS.wav", "key_press": -1, "type": "PRES_AUD", "word": "dress", "wordID": 494, "conditions": [12, 1600, "a", 12000], "trial": 6, "serialpos": 7, "trial_type": "single-audio", "trial_index": 232, "time_elapsed": 1713296, "internal_node_id": "0.0-169.0"}}, {"uniqueid": "MTK0109:3KXIR214I5NSB26R7MQKRM3XCAO426", "current_trial": 233, "dateTime": 1509158180675, "trialdata": {"rt": -1000, "stimulus": "/static/audio/wordpool/OMELET.wav", "key_press": -1, "type": "PRES_AUD", "word": "omelet", "wordID": 975, "conditions": [12, 1600, "a", 12000], "trial": 6, "serialpos": 8, "trial_type": "single-audio", "trial_index": 233, "time_elapsed": 1715780, "internal_node_id": "0.0-170.0"}}, {"uniqueid": "MTK0109:3KXIR214I5NSB26R7MQKRM3XCAO426", "current_trial": 234, "dateTime": 1509158183431, "trialdata": {"rt": -1000, "stimulus": "/static/audio/wordpool/SPARROW.wav", "key_press": -1, "type": "PRES_AUD", "word": "sparrow", "wordID": 1346, "conditions": [12, 1600, "a", 12000], "trial": 6, "serialpos": 9, "trial_type": "single-audio", "trial_index": 234, "time_elapsed": 1718536, "internal_node_id": "0.0-171.0"}}, {"uniqueid": "MTK0109:3KXIR214I5NSB26R7MQKRM3XCAO426", "current_trial": 235, "dateTime": 1509158186140, "trialdata": {"rt": -1000, "stimulus": "/static/audio/wordpool/TWIG.wav", "key_press": -1, "type": "PRES_AUD", "word": "twig", "wordID": 1526, "conditions": [12, 1600, "a", 12000], "trial": 6, "serialpos": 10, "trial_type": "single-audio", "trial_index": 235, "time_elapsed": 1721245, "internal_node_id": "0.0-172.0"}}, {"uniqueid": "MTK0109:3KXIR214I5NSB26R7MQKRM3XCAO426", "current_trial": 236, "dateTime": 1509158188666, "trialdata": {"rt": -1000, "stimulus": "/static/audio/wordpool/MILDEW.wav", "key_press": -1, "type": "PRES_AUD", "word": "mildew", "wordID": 892, "conditions": [12, 1600, "a", 12000], "trial": 6, "serialpos": 11, "trial_type": "single-audio", "trial_index": 236, "time_elapsed": 1723770, "internal_node_id": "0.0-173.0"}}, {"uniqueid": "MTK0109:3KXIR214I5NSB26R7MQKRM3XCAO426", "current_trial": 237, "dateTime": 1509158189971, "trialdata": {"rt": -1, "stimulus": "", "key_press": -1, "type": "PRE_RECALL_DELAY", "trial_type": "single-stim", "trial_index": 237, "time_elapsed": 1725076, "internal_node_id": "0.0-174.0-0.0"}}, {"uniqueid": "MTK0109:3KXIR214I5NSB26R7MQKRM3XCAO426", "current_trial": 238, "dateTime": 1509158190471, "trialdata": {"rt": -1000, "stimulus": "/static/audio/400Hz.wav", "key_press": -1, "type": "PRE_RECALL_ALERT", "trial_type": "single-audio", "trial_index": 238, "time_elapsed": 1725576, "internal_node_id": "0.0-175.0"}}, {"uniqueid": "MTK0109:3KXIR214I5NSB26R7MQKRM3XCAO426", "current_trial": 239, "dateTime": 1509158250482, "trialdata": {"rt": [5007, 10614, 13414, 17334], "recwords": ["twig", "mildow", "chef", "omelet"], "type": "FREE_RECALL", "conditions": [12, 1600, "a", 12000], "trial": 6, "trial_type": "free-recall", "trial_index": 239, "time_elapsed": 1785579, "internal_node_id": "0.0-176.0-0.0"}}, {"uniqueid": "MTK0109:3KXIR214I5NSB26R7MQKRM3XCAO426", "current_trial": 240, "dateTime": 1509158271841, "trialdata": {"rt": 19358, "key_press": 32, "type": "INSTRUCTIONS", "trial_type": "text", "trial_index": 240, "time_elapsed": 1806946, "internal_node_id": "0.0-177.0"}}, {"uniqueid": "MTK0109:3KXIR214I5NSB26R7MQKRM3XCAO426", "current_trial": 241, "dateTime": 1509158285844, "trialdata": {"rt": [3733, 6062, 9445, 11877], "responses": ["29", "12", "10", "14"], "num1": [9, 9, 4, 4, 9], "num2": [5, 1, 2, 2, 8], "num3": [5, 2, 4, 8, 8], "type": "DISTRACTOR", "conditions": [12, 1600, "v", 12000], "trial": 7, "trial_type": "math-distractor", "trial_index": 241, "time_elapsed": 1820949, "internal_node_id": "0.0-178.0"}}, {"uniqueid": "MTK0109:3KXIR214I5NSB26R7MQKRM3XCAO426", "current_trial": 242, "dateTime": 1509158288845, "trialdata": {"rt": -1, "stimulus": "<p id=\"stim\">10</p>", "key_press": -1, "trial_type": "single-stim", "trial_index": 242, "time_elapsed": 1823949, "internal_node_id": "0.0-179.0-0.0"}}, {"uniqueid": "MTK0109:3KXIR214I5NSB26R7MQKRM3XCAO426", "current_trial": 243, "dateTime": 1509158289845, "trialdata": {"rt": -1, "stimulus": "<p id=\"stim\">9</p>", "key_press": -1, "trial_type": "single-stim", "trial_index": 243, "time_elapsed": 1824950, "internal_node_id": "0.0-179.0-1.0"}}, {"uniqueid": "MTK0109:3KXIR214I5NSB26R7MQKRM3XCAO426", "current_trial": 244, "dateTime": 1509158290847, "trialdata": {"rt": -1, "stimulus": "<p id=\"stim\">8</p>", "key_press": -1, "trial_type": "single-stim", "trial_index": 244, "time_elapsed": 1825952, "internal_node_id": "0.0-179.0-2.0"}}, {"uniqueid": "MTK0109:3KXIR214I5NSB26R7MQKRM3XCAO426", "current_trial": 245, "dateTime": 1509158291848, "trialdata": {"rt": -1, "stimulus": "<p id=\"stim\">7</p>", "key_press": -1, "trial_type": "single-stim", "trial_index": 245, "time_elapsed": 1826952, "internal_node_id": "0.0-179.0-3.0"}}, {"uniqueid": "MTK0109:3KXIR214I5NSB26R7MQKRM3XCAO426", "current_trial": 246, "dateTime": 1509158292849, "trialdata": {"rt": -1, "stimulus": "<p id=\"stim\">6</p>", "key_press": -1, "trial_type": "single-stim", "trial_index": 246, "time_elapsed": 1827953, "internal_node_id": "0.0-179.0-4.0"}}, {"uniqueid": "MTK0109:3KXIR214I5NSB26R7MQKRM3XCAO426", "current_trial": 247, "dateTime": 1509158293850, "trialdata": {"rt": -1, "stimulus": "<p id=\"stim\">5</p>", "key_press": -1, "trial_type": "single-stim", "trial_index": 247, "time_elapsed": 1828954, "internal_node_id": "0.0-179.0-5.0"}}, {"uniqueid": "MTK0109:3KXIR214I5NSB26R7MQKRM3XCAO426", "current_trial": 248, "dateTime": 1509158294851, "trialdata": {"rt": -1, "stimulus": "<p id=\"stim\">4</p>", "key_press": -1, "trial_type": "single-stim", "trial_index": 248, "time_elapsed": 1829955, "internal_node_id": "0.0-179.0-6.0"}}, {"uniqueid": "MTK0109:3KXIR214I5NSB26R7MQKRM3XCAO426", "current_trial": 249, "dateTime": 1509158295852, "trialdata": {"rt": -1, "stimulus": "<p id=\"stim\">3</p>", "key_press": -1, "trial_type": "single-stim", "trial_index": 249, "time_elapsed": 1830956, "internal_node_id": "0.0-179.0-7.0"}}, {"uniqueid": "MTK0109:3KXIR214I5NSB26R7MQKRM3XCAO426", "current_trial": 250, "dateTime": 1509158296853, "trialdata": {"rt": -1, "stimulus": "<p id=\"stim\">2</p>", "key_press": -1, "trial_type": "single-stim", "trial_index": 250, "time_elapsed": 1831957, "internal_node_id": "0.0-179.0-8.0"}}, {"uniqueid": "MTK0109:3KXIR214I5NSB26R7MQKRM3XCAO426", "current_trial": 251, "dateTime": 1509158297854, "trialdata": {"rt": -1, "stimulus": "<p id=\"stim\">1</p>", "key_press": -1, "trial_type": "single-stim", "trial_index": 251, "time_elapsed": 1832958, "internal_node_id": "0.0-179.0-9.0"}}, {"uniqueid": "MTK0109:3KXIR214I5NSB26R7MQKRM3XCAO426", "current_trial": 252, "dateTime": 1509158299355, "trialdata": {"rt": -1, "stimulus": "<p id=\"stim\">+</p>", "key_press": -1, "type": "FIXATION", "trial_type": "single-stim", "trial_index": 252, "time_elapsed": 1834459, "internal_node_id": "0.0-180.0-0.0"}}, {"uniqueid": "MTK0109:3KXIR214I5NSB26R7MQKRM3XCAO426", "current_trial": 253, "dateTime": 1509158300956, "trialdata": {"rt": -1, "stimulus": "<p id=\"stim\">PRIMATE</p>", "key_press": -1, "type": "PRES_VIS", "word": "primate", "wordID": 1122, "conditions": [12, 1600, "v", 12000], "trial": 7, "serialpos": 0, "trial_type": "single-stim", "trial_index": 253, "time_elapsed": 1836060, "internal_node_id": "0.0-181.0"}}, {"uniqueid": "MTK0109:3KXIR214I5NSB26R7MQKRM3XCAO426", "current_trial": 254, "dateTime": 1509158303658, "trialdata": {"rt": -1, "stimulus": "<p id=\"stim\">FEMALE</p>", "key_press": -1, "type": "PRES_VIS", "word": "female", "wordID": 558, "conditions": [12, 1600, "v", 12000], "trial": 7, "serialpos": 1, "trial_type": "single-stim", "trial_index": 254, "time_elapsed": 1838762, "internal_node_id": "0.0-182.0"}}, {"uniqueid": "MTK0109:3KXIR214I5NSB26R7MQKRM3XCAO426", "current_trial": 255, "dateTime": 1509158306375, "trialdata": {"rt": -1, "stimulus": "<p id=\"stim\">MAMMAL</p>", "key_press": -1, "type": "PRES_VIS", "word": "mammal", "wordID": 860, "conditions": [12, 1600, "v", 12000], "trial": 7, "serialpos": 2, "trial_type": "single-stim", "trial_index": 255, "time_elapsed": 1841479, "internal_node_id": "0.0-183.0"}}, {"uniqueid": "MTK0109:3KXIR214I5NSB26R7MQKRM3XCAO426", "current_trial": 256, "dateTime": 1509158308862, "trialdata": {"rt": -1, "stimulus": "<p id=\"stim\">INFANT</p>", "key_press": -1, "type": "PRES_VIS", "word": "infant", "wordID": 736, "conditions": [12, 1600, "v", 12000], "trial": 7, "serialpos": 3, "trial_type": "single-stim", "trial_index": 256, "time_elapsed": 1843966, "internal_node_id": "0.0-184.0"}}, {"uniqueid": "MTK0109:3KXIR214I5NSB26R7MQKRM3XCAO426", "current_trial": 257, "dateTime": 1509158311558, "trialdata": {"rt": -1, "stimulus": "<p id=\"stim\">TOMBSTONE</p>", "key_press": -1, "type": "PRES_VIS", "word": "tombstone", "wordID": 1477, "conditions": [12, 1600, "v", 12000], "trial": 7, "serialpos": 4, "trial_type": "single-stim", "trial_index": 257, "time_elapsed": 1846662, "internal_node_id": "0.0-185.0"}}, {"uniqueid": "MTK0109:3KXIR214I5NSB26R7MQKRM3XCAO426", "current_trial": 258, "dateTime": 1509158314126, "trialdata": {"rt": -1, "stimulus": "<p id=\"stim\">CASKET</p>", "key_press": -1, "type": "PRES_VIS", "word": "casket", "wordID": 254, "conditions": [12, 1600, "v", 12000], "trial": 7, "serialpos": 5, "trial_type": "single-stim", "trial_index": 258, "time_elapsed": 1849230, "internal_node_id": "0.0-186.0"}}, {"uniqueid": "MTK0109:3KXIR214I5NSB26R7MQKRM3XCAO426", "current_trial": 259, "dateTime": 1509158316603, "trialdata": {"rt": -1, "stimulus": "<p id=\"stim\">BODY</p>", "key_press": -1, "type": "PRES_VIS", "word": "body", "wordID": 144, "conditions": [12, 1600, "v", 12000], "trial": 7, "serialpos": 6, "trial_type": "single-stim", "trial_index": 259, "time_elapsed": 1851707, "internal_node_id": "0.0-187.0"}}, {"uniqueid": "MTK0109:3KXIR214I5NSB26R7MQKRM3XCAO426", "current_trial": 260, "dateTime": 1509158319248, "trialdata": {"rt": -1, "stimulus": "<p id=\"stim\">WRENCH</p>", "key_press": -1, "type": "PRES_VIS", "word": "wrench", "wordID": 1624, "conditions": [12, 1600, "v", 12000], "trial": 7, "serialpos": 7, "trial_type": "single-stim", "trial_index": 260, "time_elapsed": 1854352, "internal_node_id": "0.0-188.0"}}, {"uniqueid": "MTK0109:3KXIR214I5NSB26R7MQKRM3XCAO426", "current_trial": 261, "dateTime": 1509158321988, "trialdata": {"rt": -1, "stimulus": "<p id=\"stim\">SWITCH</p>", "key_press": -1, "type": "PRES_VIS", "word": "switch", "wordID": 1421, "conditions": [12, 1600, "v", 12000], "trial": 7, "serialpos": 8, "trial_type": "single-stim", "trial_index": 261, "time_elapsed": 1857092, "internal_node_id": "0.0-189.0"}}, {"uniqueid": "MTK0109:3KXIR214I5NSB26R7MQKRM3XCAO426", "current_trial": 262, "dateTime": 1509158324732, "trialdata": {"rt": -1, "stimulus": "<p id=\"stim\">PENGUIN</p>", "key_press": -1, "type": "PRES_VIS", "word": "penguin", "wordID": 1043, "conditions": [12, 1600, "v", 12000], "trial": 7, "serialpos": 9, "trial_type": "single-stim", "trial_index": 262, "time_elapsed": 1859836, "internal_node_id": "0.0-190.0"}}, {"uniqueid": "MTK0109:3KXIR214I5NSB26R7MQKRM3XCAO426", "current_trial": 263, "dateTime": 1509158327230, "trialdata": {"rt": -1, "stimulus": "<p id=\"stim\">HERO</p>", "key_press": -1, "type": "PRES_VIS", "word": "hero", "wordID": 705, "conditions": [12, 1600, "v", 12000], "trial": 7, "serialpos": 10, "trial_type": "single-stim", "trial_index": 263, "time_elapsed": 1862334, "internal_node_id": "0.0-191.0"}}, {"uniqueid": "MTK0109:3KXIR214I5NSB26R7MQKRM3XCAO426", "current_trial": 264, "dateTime": 1509158329898, "trialdata": {"rt": -1, "stimulus": "<p id=\"stim\">SNAIL</p>", "key_press": -1, "type": "PRES_VIS", "word": "snail", "wordID": 1331, "conditions": [12, 1600, "v", 12000], "trial": 7, "serialpos": 11, "trial_type": "single-stim", "trial_index": 264, "time_elapsed": 1865002, "internal_node_id": "0.0-192.0"}}, {"uniqueid": "MTK0109:3KXIR214I5NSB26R7MQKRM3XCAO426", "current_trial": 265, "dateTime": 1509158332217, "trialdata": {"rt": -1, "stimulus": "", "key_press": -1, "type": "PRE_RECALL_DELAY", "trial_type": "single-stim", "trial_index": 265, "time_elapsed": 1867321, "internal_node_id": "0.0-193.0-0.0"}}, {"uniqueid": "MTK0109:3KXIR214I5NSB26R7MQKRM3XCAO426", "current_trial": 266, "dateTime": 1509158332717, "trialdata": {"rt": -1000, "stimulus": "/static/audio/400Hz.wav", "key_press": -1, "type": "PRE_RECALL_ALERT", "trial_type": "single-audio", "trial_index": 266, "time_elapsed": 1867822, "internal_node_id": "0.0-194.0"}}, {"uniqueid": "MTK0109:3KXIR214I5NSB26R7MQKRM3XCAO426", "current_trial": 267, "dateTime": 1509158392727, "trialdata": {"rt": [7487, 10823, 15256, 19169, 21519, 25847, 28055], "recwords": ["mammal", "primate", "casket", "hero", "female", "tombstone", "snail"], "type": "FREE_RECALL", "conditions": [12, 1600, "v", 12000], "trial": 7, "trial_type": "free-recall", "trial_index": 267, "time_elapsed": 1927825, "internal_node_id": "0.0-195.0-0.0"}}, {"uniqueid": "MTK0109:3KXIR214I5NSB26R7MQKRM3XCAO426", "current_trial": 268, "dateTime": 1509158402344, "trialdata": {"rt": 7616, "key_press": 32, "type": "INSTRUCTIONS", "trial_type": "text", "trial_index": 268, "time_elapsed": 1937449, "internal_node_id": "0.0-196.0"}}, {"uniqueid": "MTK0109:3KXIR214I5NSB26R7MQKRM3XCAO426", "current_trial": 269, "dateTime": 1509158428347, "trialdata": {"rt": [4141, 7573, 10966, 13006, 15685, 21383], "responses": ["27", "11", "12", "12", "13", "20"], "num1": [9, 2, 1, 1, 7, 6, 8], "num2": [9, 4, 6, 5, 3, 8, 1], "num3": [9, 5, 5, 6, 3, 6, 9], "type": "DISTRACTOR", "conditions": [24, 1600, "a", 24000], "trial": 8, "trial_type": "math-distractor", "trial_index": 269, "time_elapsed": 1963452, "internal_node_id": "0.0-197.0"}}, {"uniqueid": "MTK0109:3KXIR214I5NSB26R7MQKRM3XCAO426", "current_trial": 270, "dateTime": 1509158431348, "trialdata": {"rt": -1, "stimulus": "<p id=\"stim\">10</p>", "key_press": -1, "trial_type": "single-stim", "trial_index": 270, "time_elapsed": 1966452, "internal_node_id": "0.0-198.0-0.0"}}, {"uniqueid": "MTK0109:3KXIR214I5NSB26R7MQKRM3XCAO426", "current_trial": 271, "dateTime": 1509158432349, "trialdata": {"rt": -1, "stimulus": "<p id=\"stim\">9</p>", "key_press": -1, "trial_type": "single-stim", "trial_index": 271, "time_elapsed": 1967453, "internal_node_id": "0.0-198.0-1.0"}}, {"uniqueid": "MTK0109:3KXIR214I5NSB26R7MQKRM3XCAO426", "current_trial": 272, "dateTime": 1509158433350, "trialdata": {"rt": -1, "stimulus": "<p id=\"stim\">8</p>", "key_press": -1, "trial_type": "single-stim", "trial_index": 272, "time_elapsed": 1968455, "internal_node_id": "0.0-198.0-2.0"}}, {"uniqueid": "MTK0109:3KXIR214I5NSB26R7MQKRM3XCAO426", "current_trial": 273, "dateTime": 1509158434351, "trialdata": {"rt": -1, "stimulus": "<p id=\"stim\">7</p>", "key_press": -1, "trial_type": "single-stim", "trial_index": 273, "time_elapsed": 1969455, "internal_node_id": "0.0-198.0-3.0"}}, {"uniqueid": "MTK0109:3KXIR214I5NSB26R7MQKRM3XCAO426", "current_trial": 274, "dateTime": 1509158435352, "trialdata": {"rt": -1, "stimulus": "<p id