{"condition": 0, "counterbalance": 1803, "assignmentId": "33F859I567KGBRUI5M3EM4F5E4XBHG", "workerId": "MTK0647", "hitId": "34OWYT6U3WOVW9SBNI216QPABF5I98", "currenttrial": 626, "bonus": 0, "data": [{"uniqueid": "MTK0647:33F859I567KGBRUI5M3EM4F5E4XBHG", "current_trial": 0, "dateTime": 1512579138030, "trialdata": {"rt": 1836, "key_press": 32, "type": "INSTRUCTIONS", "trial_type": "text", "trial_index": 0, "time_elapsed": 1838, "internal_node_id": "0.0-0.0"}}, {"uniqueid": "MTK0647:33F859I567KGBRUI5M3EM4F5E4XBHG", "current_trial": 1, "dateTime": 1512579139189, "trialdata": {"rt": 1157, "key_press": 32, "type": "INSTRUCTIONS", "trial_type": "text", "trial_index": 1, "time_elapsed": 2998, "internal_node_id": "0.0-1.0"}}, {"uniqueid": "MTK0647:33F859I567KGBRUI5M3EM4F5E4XBHG", "current_trial": 2, "dateTime": 1512579146213, "trialdata": {"rt": [7012], "responses": ["ocean"], "type": "AUDIO_TEST", "trial_type": "audio-test", "trial_index": 2, "time_elapsed": 10021, "internal_node_id": "0.0-2.0"}}, {"uniqueid": "MTK0647:33F859I567KGBRUI5M3EM4F5E4XBHG", "current_trial": 3, "dateTime": 1512579155677, "trialdata": {"rt": [9458], "responses": ["crystal"], "type": "AUDIO_TEST", "trial_type": "audio-test", "trial_index": 3, "time_elapsed": 19486, "internal_node_id": "0.0-3.0"}}, {"uniqueid": "MTK0647:33F859I567KGBRUI5M3EM4F5E4XBHG", "current_trial": 4, "dateTime": 1512579162284, "trialdata": {"rt": [6603], "responses": ["spice"], "type": "AUDIO_TEST", "trial_type": "audio-test", "trial_index": 4, "time_elapsed": 26093, "internal_node_id": "0.0-4.0"}}, {"uniqueid": "MTK0647:33F859I567KGBRUI5M3EM4F5E4XBHG", "current_trial": 5, "dateTime": 1512579178478, "trialdata": {"rt": 15441, "responses": "{\"Q0\":\"10;00pm\",\"Q1\":\"5:30am\",\"Q2\":\"4\"}", "type": "SLEEP_SURVEY", "trial_type": "survey-text", "trial_index": 5, "time_elapsed": 42287, "internal_node_id": "0.0-5.0"}}, {"uniqueid": "MTK0647:33F859I567KGBRUI5M3EM4F5E4XBHG", "current_trial": 6, "dateTime": 1512579202312, "trialdata": {"rt": 22832, "key_press": 68, "type": "INSTRUCTIONS", "trial_type": "text", "trial_index": 6, "time_elapsed": 66120, "internal_node_id": "0.0-6.0"}}, {"uniqueid": "MTK0647:33F859I567KGBRUI5M3EM4F5E4XBHG", "current_trial": 7, "dateTime": 1512579207919, "trialdata": {"rt": 5105, "key_press": 65, "type": "INSTRUCTIONS", "trial_type": "text", "trial_index": 7, "time_elapsed": 71728, "internal_node_id": "0.0-7.0"}}, {"uniqueid": "MTK0647:33F859I567KGBRUI5M3EM4F5E4XBHG", "current_trial": 8, "dateTime": 1512579219279, "trialdata": {"rt": 10859, "key_press": 65, "type": "INSTRUCTIONS", "trial_type": "text", "trial_index": 8, "time_elapsed": 83088, "internal_node_id": "0.0-8.0"}}, {"uniqueid": "MTK0647:33F859I567KGBRUI5M3EM4F5E4XBHG", "current_trial": 9, "dateTime": 1512579238289, "trialdata": {"rt": [3210, 5338, 6786, 8826, 10322, 11922, 13829], "responses": ["12", "10", "11", "14", "6", "12", "14"], "num1": [7, 2, 9, 3, 1, 1, 6, 7], "num2": [3, 3, 5, 3, 4, 6, 7, 9], "num3": [2, 5, 1, 8, 1, 5, 1, 7], "type": "DISTRACTOR", "conditions": [18, 1200, "v", 18000], "trial": 0, "trial_type": "math-distractor", "trial_index": 9, "time_elapsed": 102098, "internal_node_id": "0.0-9.0"}}, {"uniqueid": "MTK0647:33F859I567KGBRUI5M3EM4F5E4XBHG", "current_trial": 10, "dateTime": 1512579241292, "trialdata": {"rt": -1, "stimulus": "<p id=\"stim\">10</p>", "key_press": -1, "trial_type": "single-stim", "trial_index": 10, "time_elapsed": 105100, "internal_node_id": "0.0-10.0-0.0"}}, {"uniqueid": "MTK0647:33F859I567KGBRUI5M3EM4F5E4XBHG", "current_trial": 11, "dateTime": 1512579242293, "trialdata": {"rt": -1, "stimulus": "<p id=\"stim\">9</p>", "key_press": -1, "trial_type": "single-stim", "trial_index": 11, "time_elapsed": 106102, "internal_node_id": "0.0-10.0-1.0"}}, {"uniqueid": "MTK0647:33F859I567KGBRUI5M3EM4F5E4XBHG", "current_trial": 12, "dateTime": 1512579243294, "trialdata": {"rt": -1, "stimulus": "<p id=\"stim\">8</p>", "key_press": -1, "trial_type": "single-stim", "trial_index": 12, "time_elapsed": 107103, "internal_node_id": "0.0-10.0-2.0"}}, {"uniqueid": "MTK0647:33F859I567KGBRUI5M3EM4F5E4XBHG", "current_trial": 13, "dateTime": 1512579244296, "trialdata": {"rt": -1, "stimulus": "<p id=\"stim\">7</p>", "key_press": -1, "trial_type": "single-stim", "trial_index": 13, "time_elapsed": 108105, "internal_node_id": "0.0-10.0-3.0"}}, {"uniqueid": "MTK0647:33F859I567KGBRUI5M3EM4F5E4XBHG", "current_trial": 14, "dateTime": 1512579245297, "trialdata": {"rt": -1, "stimulus": "<p id=\"stim\">6</p>", "key_press": -1, "trial_type": "single-stim", "trial_index": 14, "time_elapsed": 109106, "internal_node_id": "0.0-10.0-4.0"}}, {"uniqueid": "MTK0647:33F859I567KGBRUI5M3EM4F5E4XBHG", "current_trial": 15, "dateTime": 1512579246298, "trialdata": {"rt": -1, "stimulus": "<p id=\"stim\">5</p>", "key_press": -1, "trial_type": "single-stim", "trial_index": 15, "time_elapsed": 110107, "internal_node_id": "0.0-10.0-5.0"}}, {"uniqueid": "MTK0647:33F859I567KGBRUI5M3EM4F5E4XBHG", "current_trial": 16, "dateTime": 1512579247299, "trialdata": {"rt": -1, "stimulus": "<p id=\"stim\">4</p>", "key_press": -1, "trial_type": "single-stim", "trial_index": 16, "time_elapsed": 111108, "internal_node_id": "0.0-10.0-6.0"}}, {"uniqueid": "MTK0647:33F859I567KGBRUI5M3EM4F5E4XBHG", "current_trial": 17, "dateTime": 1512579248300, "trialdata": {"rt": -1, "stimulus": "<p id=\"stim\">3</p>", "key_press": -1, "trial_type": "single-stim", "trial_index": 17, "time_elapsed": 112109, "internal_node_id": "0.0-10.0-7.0"}}, {"uniqueid": "MTK0647:33F859I567KGBRUI5M3EM4F5E4XBHG", "current_trial": 18, "dateTime": 1512579249301, "trialdata": {"rt": -1, "stimulus": "<p id=\"stim\">2</p>", "key_press": -1, "trial_type": "single-stim", "trial_index": 18, "time_elapsed": 113110, "internal_node_id": "0.0-10.0-8.0"}}, {"uniqueid": "MTK0647:33F859I567KGBRUI5M3EM4F5E4XBHG", "current_trial": 19, "dateTime": 1512579250302, "trialdata": {"rt": -1, "stimulus": "<p id=\"stim\">1</p>", "key_press": -1, "trial_type": "single-stim", "trial_index": 19, "time_elapsed": 114111, "internal_node_id": "0.0-10.0-9.0"}}, {"uniqueid": "MTK0647:33F859I567KGBRUI5M3EM4F5E4XBHG", "current_trial": 20, "dateTime": 1512579251804, "trialdata": {"rt": -1, "stimulus": "<p id=\"stim\">+</p>", "key_press": -1, "type": "FIXATION", "trial_type": "single-stim", "trial_index": 20, "time_elapsed": 115613, "internal_node_id": "0.0-11.0-0.0"}}, {"uniqueid": "MTK0647:33F859I567KGBRUI5M3EM4F5E4XBHG", "current_trial": 21, "dateTime": 1512579253005, "trialdata": {"rt": -1, "stimulus": "<p id=\"stim\">SPOOL</p>", "key_press": -1, "type": "PRES_VIS", "word": "spool", "wordID": 1355, "conditions": [18, 1200, "v", 18000], "trial": 0, "serialpos": 0, "trial_type": "single-stim", "trial_index": 21, "time_elapsed": 116814, "internal_node_id": "0.0-12.0"}}, {"uniqueid": "MTK0647:33F859I567KGBRUI5M3EM4F5E4XBHG", "current_trial": 22, "dateTime": 1512579255390, "trialdata": {"rt": -1, "stimulus": "<p id=\"stim\">SNAKE</p>", "key_press": -1, "type": "PRES_VIS", "word": "snake", "wordID": 1332, "conditions": [18, 1200, "v", 18000], "trial": 0, "serialpos": 1, "trial_type": "single-stim", "trial_index": 22, "time_elapsed": 119199, "internal_node_id": "0.0-13.0"}}, {"uniqueid": "MTK0647:33F859I567KGBRUI5M3EM4F5E4XBHG", "current_trial": 23, "dateTime": 1512579257633, "trialdata": {"rt": -1, "stimulus": "<p id=\"stim\">GUARD</p>", "key_press": -1, "type": "PRES_VIS", "word": "guard", "wordID": 666, "conditions": [18, 1200, "v", 18000], "trial": 0, "serialpos": 2, "trial_type": "single-stim", "trial_index": 23, "time_elapsed": 121442, "internal_node_id": "0.0-14.0"}}, {"uniqueid": "MTK0647:33F859I567KGBRUI5M3EM4F5E4XBHG", "current_trial": 24, "dateTime": 1512579260017, "trialdata": {"rt": -1, "stimulus": "<p id=\"stim\">ATLAS</p>", "key_press": -1, "type": "PRES_VIS", "word": "atlas", "wordID": 52, "conditions": [18, 1200, "v", 18000], "trial": 0, "serialpos": 3, "trial_type": "single-stim", "trial_index": 24, "time_elapsed": 123826, "internal_node_id": "0.0-15.0"}}, {"uniqueid": "MTK0647:33F859I567KGBRUI5M3EM4F5E4XBHG", "current_trial": 25, "dateTime": 1512579262163, "trialdata": {"rt": -1, "stimulus": "<p id=\"stim\">SUBWAY</p>", "key_press": -1, "type": "PRES_VIS", "word": "subway", "wordID": 1399, "conditions": [18, 1200, "v", 18000], "trial": 0, "serialpos": 4, "trial_type": "single-stim", "trial_index": 25, "time_elapsed": 125972, "internal_node_id": "0.0-16.0"}}, {"uniqueid": "MTK0647:33F859I567KGBRUI5M3EM4F5E4XBHG", "current_trial": 26, "dateTime": 1512579264203, "trialdata": {"rt": -1, "stimulus": "<p id=\"stim\">CHIPMUNK</p>", "key_press": -1, "type": "PRES_VIS", "word": "chipmunk", "wordID": 303, "conditions": [18, 1200, "v", 18000], "trial": 0, "serialpos": 5, "trial_type": "single-stim", "trial_index": 26, "time_elapsed": 128012, "internal_node_id": "0.0-17.0"}}, {"uniqueid": "MTK0647:33F859I567KGBRUI5M3EM4F5E4XBHG", "current_trial": 27, "dateTime": 1512579266557, "trialdata": {"rt": -1, "stimulus": "<p id=\"stim\">CHILD</p>", "key_press": -1, "type": "PRES_VIS", "word": "child", "wordID": 298, "conditions": [18, 1200, "v", 18000], "trial": 0, "serialpos": 6, "trial_type": "single-stim", "trial_index": 27, "time_elapsed": 130366, "internal_node_id": "0.0-18.0"}}, {"uniqueid": "MTK0647:33F859I567KGBRUI5M3EM4F5E4XBHG", "current_trial": 28, "dateTime": 1512579268918, "trialdata": {"rt": -1, "stimulus": "<p id=\"stim\">RELISH</p>", "key_press": -1, "type": "PRES_VIS", "word": "relish", "wordID": 1182, "conditions": [18, 1200, "v", 18000], "trial": 0, "serialpos": 7, "trial_type": "single-stim", "trial_index": 28, "time_elapsed": 132727, "internal_node_id": "0.0-19.0"}}, {"uniqueid": "MTK0647:33F859I567KGBRUI5M3EM4F5E4XBHG", "current_trial": 29, "dateTime": 1512579271313, "trialdata": {"rt": -1, "stimulus": "<p id=\"stim\">TROMBONE</p>", "key_press": -1, "type": "PRES_VIS", "word": "trombone", "wordID": 1507, "conditions": [18, 1200, "v", 18000], "trial": 0, "serialpos": 8, "trial_type": "single-stim", "trial_index": 29, "time_elapsed": 135122, "internal_node_id": "0.0-20.0"}}, {"uniqueid": "MTK0647:33F859I567KGBRUI5M3EM4F5E4XBHG", "current_trial": 30, "dateTime": 1512579273360, "trialdata": {"rt": -1, "stimulus": "<p id=\"stim\">FLEET</p>", "key_press": -1, "type": "PRES_VIS", "word": "fleet", "wordID": 577, "conditions": [18, 1200, "v", 18000], "trial": 0, "serialpos": 9, "trial_type": "single-stim", "trial_index": 30, "time_elapsed": 137169, "internal_node_id": "0.0-21.0"}}, {"uniqueid": "MTK0647:33F859I567KGBRUI5M3EM4F5E4XBHG", "current_trial": 31, "dateTime": 1512579275557, "trialdata": {"rt": -1, "stimulus": "<p id=\"stim\">WAITER</p>", "key_press": -1, "type": "PRES_VIS", "word": "waiter", "wordID": 1579, "conditions": [18, 1200, "v", 18000], "trial": 0, "serialpos": 10, "trial_type": "single-stim", "trial_index": 31, "time_elapsed": 139366, "internal_node_id": "0.0-22.0"}}, {"uniqueid": "MTK0647:33F859I567KGBRUI5M3EM4F5E4XBHG", "current_trial": 32, "dateTime": 1512579277873, "trialdata": {"rt": -1, "stimulus": "<p id=\"stim\">SERVER</p>", "key_press": -1, "type": "PRES_VIS", "word": "server", "wordID": 1271, "conditions": [18, 1200, "v", 18000], "trial": 0, "serialpos": 11, "trial_type": "single-stim", "trial_index": 32, "time_elapsed": 141682, "internal_node_id": "0.0-23.0"}}, {"uniqueid": "MTK0647:33F859I567KGBRUI5M3EM4F5E4XBHG", "current_trial": 33, "dateTime": 1512579280061, "trialdata": {"rt": -1, "stimulus": "<p id=\"stim\">WOMAN</p>", "key_press": -1, "type": "PRES_VIS", "word": "woman", "wordID": 1619, "conditions": [18, 1200, "v", 18000], "trial": 0, "serialpos": 12, "trial_type": "single-stim", "trial_index": 33, "time_elapsed": 143870, "internal_node_id": "0.0-24.0"}}, {"uniqueid": "MTK0647:33F859I567KGBRUI5M3EM4F5E4XBHG", "current_trial": 34, "dateTime": 1512579282134, "trialdata": {"rt": -1, "stimulus": "<p id=\"stim\">BRANCH</p>", "key_press": -1, "type": "PRES_VIS", "word": "branch", "wordID": 167, "conditions": [18, 1200, "v", 18000], "trial": 0, "serialpos": 13, "trial_type": "single-stim", "trial_index": 34, "time_elapsed": 145943, "internal_node_id": "0.0-25.0"}}, {"uniqueid": "MTK0647:33F859I567KGBRUI5M3EM4F5E4XBHG", "current_trial": 35, "dateTime": 1512579284168, "trialdata": {"rt": -1, "stimulus": "<p id=\"stim\">YARN</p>", "key_press": -1, "type": "PRES_VIS", "word": "yarn", "wordID": 1630, "conditions": [18, 1200, "v", 18000], "trial": 0, "serialpos": 14, "trial_type": "single-stim", "trial_index": 35, "time_elapsed": 147977, "internal_node_id": "0.0-26.0"}}, {"uniqueid": "MTK0647:33F859I567KGBRUI5M3EM4F5E4XBHG", "current_trial": 36, "dateTime": 1512579286466, "trialdata": {"rt": -1, "stimulus": "<p id=\"stim\">TYPIST</p>", "key_press": -1, "type": "PRES_VIS", "word": "typist", "wordID": 1531, "conditions": [18, 1200, "v", 18000], "trial": 0, "serialpos": 15, "trial_type": "single-stim", "trial_index": 36, "time_elapsed": 150275, "internal_node_id": "0.0-27.0"}}, {"uniqueid": "MTK0647:33F859I567KGBRUI5M3EM4F5E4XBHG", "current_trial": 37, "dateTime": 1512579288594, "trialdata": {"rt": -1, "stimulus": "<p id=\"stim\">LION</p>", "key_press": -1, "type": "PRES_VIS", "word": "lion", "wordID": 826, "conditions": [18, 1200, "v", 18000], "trial": 0, "serialpos": 16, "trial_type": "single-stim", "trial_index": 37, "time_elapsed": 152403, "internal_node_id": "0.0-28.0"}}, {"uniqueid": "MTK0647:33F859I567KGBRUI5M3EM4F5E4XBHG", "current_trial": 38, "dateTime": 1512579290954, "trialdata": {"rt": -1, "stimulus": "<p id=\"stim\">LACE</p>", "key_press": -1, "type": "PRES_VIS", "word": "lace", "wordID": 791, "conditions": [18, 1200, "v", 18000], "trial": 0, "serialpos": 17, "trial_type": "single-stim", "trial_index": 38, "time_elapsed": 154763, "internal_node_id": "0.0-29.0"}}, {"uniqueid": "MTK0647:33F859I567KGBRUI5M3EM4F5E4XBHG", "current_trial": 39, "dateTime": 1512579293128, "trialdata": {"rt": -1, "stimulus": "", "key_press": -1, "type": "PRE_RECALL_DELAY", "trial_type": "single-stim", "trial_index": 39, "time_elapsed": 156937, "internal_node_id": "0.0-30.0-0.0"}}, {"uniqueid": "MTK0647:33F859I567KGBRUI5M3EM4F5E4XBHG", "current_trial": 40, "dateTime": 1512579293630, "trialdata": {"rt": -1000, "stimulus": "/static/audio/400Hz.wav", "key_press": -1, "type": "PRE_RECALL_ALERT", "trial_type": "single-audio", "trial_index": 40, "time_elapsed": 157439, "internal_node_id": "0.0-31.0"}}, {"uniqueid": "MTK0647:33F859I567KGBRUI5M3EM4F5E4XBHG", "current_trial": 41, "dateTime": 1512579353640, "trialdata": {"rt": [2123, 3155, 4067, 5907, 6915, 11716, 23931, 31627, 37243, 58596], "recwords": ["spool", "snake", "water", "branch", "woman", "speech", "trombone", "atlas", "speech", ""], "type": "FREE_RECALL", "conditions": [18, 1200, "v", 18000], "trial": 0, "trial_type": "free-recall", "trial_index": 41, "time_elapsed": 217446, "internal_node_id": "0.0-32.0-0.0"}}, {"uniqueid": "MTK0647:33F859I567KGBRUI5M3EM4F5E4XBHG", "current_trial": 42, "dateTime": 1512579356862, "trialdata": {"rt": 1220, "key_press": 70, "type": "INSTRUCTIONS", "trial_type": "text", "trial_index": 42, "time_elapsed": 220671, "internal_node_id": "0.0-33.0"}}, {"uniqueid": "MTK0647:33F859I567KGBRUI5M3EM4F5E4XBHG", "current_trial": 43, "dateTime": 1512579376865, "trialdata": {"rt": [4069, 7269, 9197, 11165, 13933, 16285], "responses": ["7", "17", "15", "12", "18", "18"], "num1": [2, 7, 3, 6, 5, 4, 7], "num2": [2, 8, 6, 1, 7, 5, 6], "num3": [3, 2, 6, 5, 6, 9, 5], "type": "DISTRACTOR", "conditions": [18, 1200, "a", 18000], "trial": 1, "trial_type": "math-distractor", "trial_index": 43, "time_elapsed": 240674, "internal_node_id": "0.0-34.0"}}, {"uniqueid": "MTK0647:33F859I567KGBRUI5M3EM4F5E4XBHG", "current_trial": 44, "dateTime": 1512579379867, "trialdata": {"rt": -1, "stimulus": "<p id=\"stim\">10</p>", "key_press": -1, "trial_type": "single-stim", "trial_index": 44, "time_elapsed": 243676, "internal_node_id": "0.0-35.0-0.0"}}, {"uniqueid": "MTK0647:33F859I567KGBRUI5M3EM4F5E4XBHG", "current_trial": 45, "dateTime": 1512579380868, "trialdata": {"rt": -1, "stimulus": "<p id=\"stim\">9</p>", "key_press": -1, "trial_type": "single-stim", "trial_index": 45, "time_elapsed": 244677, "internal_node_id": "0.0-35.0-1.0"}}, {"uniqueid": "MTK0647:33F859I567KGBRUI5M3EM4F5E4XBHG", "current_trial": 46, "dateTime": 1512579381869, "trialdata": {"rt": -1, "stimulus": "<p id=\"stim\">8</p>", "key_press": -1, "trial_type": "single-stim", "trial_index": 46, "time_elapsed": 245678, "internal_node_id": "0.0-35.0-2.0"}}, {"uniqueid": "MTK0647:33F859I567KGBRUI5M3EM4F5E4XBHG", "current_trial": 47, "dateTime": 1512579382870, "trialdata": {"rt": -1, "stimulus": "<p id=\"stim\">7</p>", "key_press": -1, "trial_type": "single-stim", "trial_index": 47, "time_elapsed": 246679, "internal_node_id": "0.0-35.0-3.0"}}, {"uniqueid": "MTK0647:33F859I567KGBRUI5M3EM4F5E4XBHG", "current_trial": 48, "dateTime": 1512579383871, "trialdata": {"rt": -1, "stimulus": "<p id=\"stim\">6</p>", "key_press": -1, "trial_type": "single-stim", "trial_index": 48, "time_elapsed": 247680, "internal_node_id": "0.0-35.0-4.0"}}, {"uniqueid": "MTK0647:33F859I567KGBRUI5M3EM4F5E4XBHG", "current_trial": 49, "dateTime": 1512579384872, "trialdata": {"rt": -1, "stimulus": "<p id=\"stim\">5</p>", "key_press": -1, "trial_type": "single-stim", "trial_index": 49, "time_elapsed": 248681, "internal_node_id": "0.0-35.0-5.0"}}, {"uniqueid": "MTK0647:33F859I567KGBRUI5M3EM4F5E4XBHG", "current_trial": 50, "dateTime": 1512579385873, "trialdata": {"rt": -1, "stimulus": "<p id=\"stim\">4</p>", "key_press": -1, "trial_type": "single-stim", "trial_index": 50, "time_elapsed": 249682, "internal_node_id": "0.0-35.0-6.0"}}, {"uniqueid": "MTK0647:33F859I567KGBRUI5M3EM4F5E4XBHG", "current_trial": 51, "dateTime": 1512579386874, "trialdata": {"rt": -1, "stimulus": "<p id=\"stim\">3</p>", "key_press": -1, "trial_type": "single-stim", "trial_index": 51, "time_elapsed": 250683, "internal_node_id": "0.0-35.0-7.0"}}, {"uniqueid": "MTK0647:33F859I567KGBRUI5M3EM4F5E4XBHG", "current_trial": 52, "dateTime": 1512579387875, "trialdata": {"rt": -1, "stimulus": "<p id=\"stim\">2</p>", "key_press": -1, "trial_type": "single-stim", "trial_index": 52, "time_elapsed": 251684, "internal_node_id": "0.0-35.0-8.0"}}, {"uniqueid": "MTK0647:33F859I567KGBRUI5M3EM4F5E4XBHG", "current_trial": 53, "dateTime": 1512579388876, "trialdata": {"rt": -1, "stimulus": "<p id=\"stim\">1</p>", "key_press": -1, "trial_type": "single-stim", "trial_index": 53, "time_elapsed": 252685, "internal_node_id": "0.0-35.0-9.0"}}, {"uniqueid": "MTK0647:33F859I567KGBRUI5M3EM4F5E4XBHG", "current_trial": 54, "dateTime": 1512579390377, "trialdata": {"rt": -1, "stimulus": "<p id=\"stim\">+</p>", "key_press": -1, "type": "FIXATION", "trial_type": "single-stim", "trial_index": 54, "time_elapsed": 254186, "internal_node_id": "0.0-36.0-0.0"}}, {"uniqueid": "MTK0647:33F859I567KGBRUI5M3EM4F5E4XBHG", "current_trial": 55, "dateTime": 1512579392706, "trialdata": {"rt": -1000, "stimulus": "/static/audio/wordpool/SHORTCAKE.wav", "key_press": -1, "type": "PRES_AUD", "word": "shortcake", "wordID": 1291, "conditions": [18, 1200, "a", 18000], "trial": 1, "serialpos": 0, "trial_type": "single-audio", "trial_index": 55, "time_elapsed": 256515, "internal_node_id": "0.0-37.0"}}, {"uniqueid": "MTK0647:33F859I567KGBRUI5M3EM4F5E4XBHG", "current_trial": 56, "dateTime": 1512579394843, "trialdata": {"rt": -1000, "stimulus": "/static/audio/wordpool/TABLET.wav", "key_press": -1, "type": "PRES_AUD", "word": "tablet", "wordID": 1426, "conditions": [18, 1200, "a", 18000], "trial": 1, "serialpos": 1, "trial_type": "single-audio", "trial_index": 56, "time_elapsed": 258652, "internal_node_id": "0.0-38.0"}}, {"uniqueid": "MTK0647:33F859I567KGBRUI5M3EM4F5E4XBHG", "current_trial": 57, "dateTime": 1512579396910, "trialdata": {"rt": -1000, "stimulus": "/static/audio/wordpool/MOTEL.wav", "key_press": -1, "type": "PRES_AUD", "word": "motel", "wordID": 918, "conditions": [18, 1200, "a", 18000], "trial": 1, "serialpos": 2, "trial_type": "single-audio", "trial_index": 57, "time_elapsed": 260719, "internal_node_id": "0.0-39.0"}}, {"uniqueid": "MTK0647:33F859I567KGBRUI5M3EM4F5E4XBHG", "current_trial": 58, "dateTime": 1512579399136, "trialdata": {"rt": -1000, "stimulus": "/static/audio/wordpool/NECKLACE.wav", "key_press": -1, "type": "PRES_AUD", "word": "necklace", "wordID": 939, "conditions": [18, 1200, "a", 18000], "trial": 1, "serialpos": 3, "trial_type": "single-audio", "trial_index": 58, "time_elapsed": 262945, "internal_node_id": "0.0-40.0"}}, {"uniqueid": "MTK0647:33F859I567KGBRUI5M3EM4F5E4XBHG", "current_trial": 59, "dateTime": 1512579401502, "trialdata": {"rt": -1000, "stimulus": "/static/audio/wordpool/HERO.wav", "key_press": -1, "type": "PRES_AUD", "word": "hero", "wordID": 705, "conditions": [18, 1200, "a", 18000], "trial": 1, "serialpos": 4, "trial_type": "single-audio", "trial_index": 59, "time_elapsed": 265311, "internal_node_id": "0.0-41.0"}}, {"uniqueid": "MTK0647:33F859I567KGBRUI5M3EM4F5E4XBHG", "current_trial": 60, "dateTime": 1512579403652, "trialdata": {"rt": -1000, "stimulus": "/static/audio/wordpool/UNCLE.wav", "key_press": -1, "type": "PRES_AUD", "word": "uncle", "wordID": 1535, "conditions": [18, 1200, "a", 18000], "trial": 1, "serialpos": 5, "trial_type": "single-audio", "trial_index": 60, "time_elapsed": 267461, "internal_node_id": "0.0-42.0"}}, {"uniqueid": "MTK0647:33F859I567KGBRUI5M3EM4F5E4XBHG", "current_trial": 61, "dateTime": 1512579405881, "trialdata": {"rt": -1000, "stimulus": "/static/audio/wordpool/KETCHUP.wav", "key_press": -1, "type": "PRES_AUD", "word": "ketchup", "wordID": 770, "conditions": [18, 1200, "a", 18000], "trial": 1, "serialpos": 6, "trial_type": "single-audio", "trial_index": 61, "time_elapsed": 269690, "internal_node_id": "0.0-43.0"}}, {"uniqueid": "MTK0647:33F859I567KGBRUI5M3EM4F5E4XBHG", "current_trial": 62, "dateTime": 1512579407936, "trialdata": {"rt": -1000, "stimulus": "/static/audio/wordpool/SWIMMER.wav", "key_press": -1, "type": "PRES_AUD", "word": "swimmer", "wordID": 1419, "conditions": [18, 1200, "a", 18000], "trial": 1, "serialpos": 7, "trial_type": "single-audio", "trial_index": 62, "time_elapsed": 271745, "internal_node_id": "0.0-44.0"}}, {"uniqueid": "MTK0647:33F859I567KGBRUI5M3EM4F5E4XBHG", "current_trial": 63, "dateTime": 1512579409945, "trialdata": {"rt": -1000, "stimulus": "/static/audio/wordpool/NAPKIN.wav", "key_press": -1, "type": "PRES_AUD", "word": "napkin", "wordID": 936, "conditions": [18, 1200, "a", 18000], "trial": 1, "serialpos": 8, "trial_type": "single-audio", "trial_index": 63, "time_elapsed": 273754, "internal_node_id": "0.0-45.0"}}, {"uniqueid": "MTK0647:33F859I567KGBRUI5M3EM4F5E4XBHG", "current_trial": 64, "dateTime": 1512579412040, "trialdata": {"rt": -1000, "stimulus": "/static/audio/wordpool/STOVE.wav", "key_press": -1, "type": "PRES_AUD", "word": "stove", "wordID": 1387, "conditions": [18, 1200, "a", 18000], "trial": 1, "serialpos": 9, "trial_type": "single-audio", "trial_index": 64, "time_elapsed": 275849, "internal_node_id": "0.0-46.0"}}, {"uniqueid": "MTK0647:33F859I567KGBRUI5M3EM4F5E4XBHG", "current_trial": 65, "dateTime": 1512579414391, "trialdata": {"rt": -1000, "stimulus": "/static/audio/wordpool/HOUND.wav", "key_press": -1, "type": "PRES_AUD", "word": "hound", "wordID": 723, "conditions": [18, 1200, "a", 18000], "trial": 1, "serialpos": 10, "trial_type": "single-audio", "trial_index": 65, "time_elapsed": 278200, "internal_node_id": "0.0-47.0"}}, {"uniqueid": "MTK0647:33F859I567KGBRUI5M3EM4F5E4XBHG", "current_trial": 66, "dateTime": 1512579416691, "trialdata": {"rt": -1000, "stimulus": "/static/audio/wordpool/COTTAGE.wav", "key_press": -1, "type": "PRES_AUD", "word": "cottage", "wordID": 383, "conditions": [18, 1200, "a", 18000], "trial": 1, "serialpos": 11, "trial_type": "single-audio", "trial_index": 66, "time_elapsed": 280500, "internal_node_id": "0.0-48.0"}}, {"uniqueid": "MTK0647:33F859I567KGBRUI5M3EM4F5E4XBHG", "current_trial": 67, "dateTime": 1512579418878, "trialdata": {"rt": -1000, "stimulus": "/static/audio/wordpool/CANAL.wav", "key_press": -1, "type": "PRES_AUD", "word": "canal", "wordID": 225, "conditions": [18, 1200, "a", 18000], "trial": 1, "serialpos": 12, "trial_type": "single-audio", "trial_index": 67, "time_elapsed": 282687, "internal_node_id": "0.0-49.0"}}, {"uniqueid": "MTK0647:33F859I567KGBRUI5M3EM4F5E4XBHG", "current_trial": 68, "dateTime": 1512579421071, "trialdata": {"rt": -1000, "stimulus": "/static/audio/wordpool/CRAYON.wav", "key_press": -1, "type": "PRES_AUD", "word": "crayon", "wordID": 400, "conditions": [18, 1200, "a", 18000], "trial": 1, "serialpos": 13, "trial_type": "single-audio", "trial_index": 68, "time_elapsed": 284879, "internal_node_id": "0.0-50.0"}}, {"uniqueid": "MTK0647:33F859I567KGBRUI5M3EM4F5E4XBHG", "current_trial": 69, "dateTime": 1512579423134, "trialdata": {"rt": -1000, "stimulus": "/static/audio/wordpool/ASIA.wav", "key_press": -1, "type": "PRES_AUD", "word": "asia", "wordID": 45, "conditions": [18, 1200, "a", 18000], "trial": 1, "serialpos": 14, "trial_type": "single-audio", "trial_index": 69, "time_elapsed": 286943, "internal_node_id": "0.0-51.0"}}, {"uniqueid": "MTK0647:33F859I567KGBRUI5M3EM4F5E4XBHG", "current_trial": 70, "dateTime": 1512579425398, "trialdata": {"rt": -1000, "stimulus": "/static/audio/wordpool/FOOT.wav", "key_press": -1, "type": "PRES_AUD", "word": "foot", "wordID": 589, "conditions": [18, 1200, "a", 18000], "trial": 1, "serialpos": 15, "trial_type": "single-audio", "trial_index": 70, "time_elapsed": 289207, "internal_node_id": "0.0-52.0"}}, {"uniqueid": "MTK0647:33F859I567KGBRUI5M3EM4F5E4XBHG", "current_trial": 71, "dateTime": 1512579427635, "trialdata": {"rt": -1000, "stimulus": "/static/audio/wordpool/DRAWING.wav", "key_press": -1, "type": "PRES_AUD", "word": "drawing", "wordID": 493, "conditions": [18, 1200, "a", 18000], "trial": 1, "serialpos": 16, "trial_type": "single-audio", "trial_index": 71, "time_elapsed": 291444, "internal_node_id": "0.0-53.0"}}, {"uniqueid": "MTK0647:33F859I567KGBRUI5M3EM4F5E4XBHG", "current_trial": 72, "dateTime": 1512579429873, "trialdata": {"rt": -1000, "stimulus": "/static/audio/wordpool/COD.wav", "key_press": -1, "type": "PRES_AUD", "word": "cod", "wordID": 339, "conditions": [18, 1200, "a", 18000], "trial": 1, "serialpos": 17, "trial_type": "single-audio", "trial_index": 72, "time_elapsed": 293682, "internal_node_id": "0.0-54.0"}}, {"uniqueid": "MTK0647:33F859I567KGBRUI5M3EM4F5E4XBHG", "current_trial": 73, "dateTime": 1512579431090, "trialdata": {"rt": -1, "stimulus": "", "key_press": -1, "type": "PRE_RECALL_DELAY", "trial_type": "single-stim", "trial_index": 73, "time_elapsed": 294899, "internal_node_id": "0.0-55.0-0.0"}}, {"uniqueid": "MTK0647:33F859I567KGBRUI5M3EM4F5E4XBHG", "current_trial": 74, "dateTime": 1512579431591, "trialdata": {"rt": -1000, "stimulus": "/static/audio/400Hz.wav", "key_press": -1, "type": "PRE_RECALL_ALERT", "trial_type": "single-audio", "trial_index": 74, "time_elapsed": 295400, "internal_node_id": "0.0-56.0"}}, {"uniqueid": "MTK0647:33F859I567KGBRUI5M3EM4F5E4XBHG", "current_trial": 75, "dateTime": 1512579491599, "trialdata": {"rt": [2206, 3838, 5398, 11750, 19686, 24302], "recwords": ["foot", "drawing", "cod", "flashlight", "tablet", "wrench"], "type": "FREE_RECALL", "conditions": [18, 1200, "a", 18000], "trial": 1, "trial_type": "free-recall", "trial_index": 75, "time_elapsed": 355406, "internal_node_id": "0.0-57.0-0.0"}}, {"uniqueid": "MTK0647:33F859I567KGBRUI5M3EM4F5E4XBHG", "current_trial": 76, "dateTime": 1512579499915, "trialdata": {"rt": 6314, "key_press": 70, "type": "INSTRUCTIONS", "trial_type": "text", "trial_index": 76, "time_elapsed": 363722, "internal_node_id": "0.0-58.0"}}, {"uniqueid": "MTK0647:33F859I567KGBRUI5M3EM4F5E4XBHG", "current_trial": 77, "dateTime": 1512579524917, "trialdata": {"rt": [3525, 6500, 8333, 9532, 16917, 19445, 21773, 23701], "responses": ["13", "21", "16", "15", "21", "20", "22", "12"], "num1": [1, 9, 2, 7, 6, 6, 8, 4, 3], "num2": [4, 5, 6, 7, 6, 5, 6, 1, 8], "num3": [8, 7, 8, 1, 9, 8, 7, 7, 4], "type": "DISTRACTOR", "conditions": [12, 1600, "v", 24000], "trial": 2, "trial_type": "math-distractor", "trial_index": 77, "time_elapsed": 388726, "internal_node_id": "0.0-59.0"}}, {"uniqueid": "MTK0647:33F859I567KGBRUI5M3EM4F5E4XBHG", "current_trial": 78, "dateTime": 1512579527919, "trialdata": {"rt": -1, "stimulus": "<p id=\"stim\">10</p>", "key_press": -1, "trial_type": "single-stim", "trial_index": 78, "time_elapsed": 391728, "internal_node_id": "0.0-60.0-0.0"}}, {"uniqueid": "MTK0647:33F859I567KGBRUI5M3EM4F5E4XBHG", "current_trial": 79, "dateTime": 1512579528920, "trialdata": {"rt": -1, "stimulus": "<p id=\"stim\">9</p>", "key_press": -1, "trial_type": "single-stim", "trial_index": 79, "time_elapsed": 392729, "internal_node_id": "0.0-60.0-1.0"}}, {"uniqueid": "MTK0647:33F859I567KGBRUI5M3EM4F5E4XBHG", "current_trial": 80, "dateTime": 1512579529921, "trialdata": {"rt": -1, "stimulus": "<p id=\"stim\">8</p>", "key_press": -1, "trial_type": "single-stim", "trial_index": 80, "time_elapsed": 393730, "internal_node_id": "0.0-60.0-2.0"}}, {"uniqueid": "MTK0647:33F859I567KGBRUI5M3EM4F5E4XBHG", "current_trial": 81, "dateTime": 1512579530922, "trialdata": {"rt": -1, "stimulus": "<p id=\"stim\">7</p>", "key_press": -1, "trial_type": "single-stim", "trial_index": 81, "time_elapsed": 394731, "internal_node_id": "0.0-60.0-3.0"}}, {"uniqueid": "MTK0647:33F859I567KGBRUI5M3EM4F5E4XBHG", "current_trial": 82, "dateTime": 1512579531924, "trialdata": {"rt": -1, "stimulus": "<p id=\"stim\">6</p>", "key_press": -1, "trial_type": "single-stim", "trial_index": 82, "time_elapsed": 395733, "internal_node_id": "0.0-60.0-4.0"}}, {"uniqueid": "MTK0647:33F859I567KGBRUI5M3EM4F5E4XBHG", "current_trial": 83, "dateTime": 1512579532927, "trialdata": {"rt": -1, "stimulus": "<p id=\"stim\">5</p>", "key_press": -1, "trial_type": "single-stim", "trial_index": 83, "time_elapsed": 396736, "internal_node_id": "0.0-60.0-5.0"}}, {"uniqueid": "MTK0647:33F859I567KGBRUI5M3EM4F5E4XBHG", "current_trial": 84, "dateTime": 1512579533928, "trialdata": {"rt": -1, "stimulus": "<p id=\"stim\">4</p>", "key_press": -1, "trial_type": "single-stim", "trial_index": 84, "time_elapsed": 397737, "internal_node_id": "0.0-60.0-6.0"}}, {"uniqueid": "MTK0647:33F859I567KGBRUI5M3EM4F5E4XBHG", "current_trial": 85, "dateTime": 1512579534929, "trialdata": {"rt": -1, "stimulus": "<p id=\"stim\">3</p>", "key_press": -1, "trial_type": "single-stim", "trial_index": 85, "time_elapsed": 398738, "internal_node_id": "0.0-60.0-7.0"}}, {"uniqueid": "MTK0647:33F859I567KGBRUI5M3EM4F5E4XBHG", "current_trial": 86, "dateTime": 1512579535930, "trialdata": {"rt": -1, "stimulus": "<p id=\"stim\">2</p>", "key_press": -1, "trial_type": "single-stim", "trial_index": 86, "time_elapsed": 399739, "internal_node_id": "0.0-60.0-8.0"}}, {"uniqueid": "MTK0647:33F859I567KGBRUI5M3EM4F5E4XBHG", "current_trial": 87, "dateTime": 1512579536931, "trialdata": {"rt": -1, "stimulus": "<p id=\"stim\">1</p>", "key_press": -1, "trial_type": "single-stim", "trial_index": 87, "time_elapsed": 400740, "internal_node_id": "0.0-60.0-9.0"}}, {"uniqueid": "MTK0647:33F859I567KGBRUI5M3EM4F5E4XBHG", "current_trial": 88, "dateTime": 1512579538432, "trialdata": {"rt": -1, "stimulus": "<p id=\"stim\">+</p>", "key_press": -1, "type": "FIXATION", "trial_type": "single-stim", "trial_index": 88, "time_elapsed": 402241, "internal_node_id": "0.0-61.0-0.0"}}, {"uniqueid": "MTK0647:33F859I567KGBRUI5M3EM4F5E4XBHG", "current_trial": 89, "dateTime": 1512579540033, "trialdata": {"rt": -1, "stimulus": "<p id=\"stim\">KNIFE</p>", "key_press": -1, "type": "PRES_VIS", "word": "knife", "wordID": 784, "conditions": [12, 1600, "v", 24000], "trial": 2, "serialpos": 0, "trial_type": "single-stim", "trial_index": 89, "time_elapsed": 403842, "internal_node_id": "0.0-62.0"}}, {"uniqueid": "MTK0647:33F859I567KGBRUI5M3EM4F5E4XBHG", "current_trial": 90, "dateTime": 1512579542615, "trialdata": {"rt": -1, "stimulus": "<p id=\"stim\">XEROX</p>", "key_press": -1, "type": "PRES_VIS", "word": "xerox", "wordID": 1627, "conditions": [12, 1600, "v", 24000], "trial": 2, "serialpos": 1, "trial_type": "single-stim", "trial_index": 90, "time_elapsed": 406424, "internal_node_id": "0.0-63.0"}}, {"uniqueid": "MTK0647:33F859I567KGBRUI5M3EM4F5E4XBHG", "current_trial": 91, "dateTime": 1512579545187, "trialdata": {"rt": -1, "stimulus": "<p id=\"stim\">SPONGE</p>", "key_press": -1, "type": "PRES_VIS", "word": "sponge", "wordID": 1354, "conditions": [12, 1600, "v", 24000], "trial": 2, "serialpos": 2, "trial_type": "single-stim", "trial_index": 91, "time_elapsed": 408996, "internal_node_id": "0.0-64.0"}}, {"uniqueid": "MTK0647:33F859I567KGBRUI5M3EM4F5E4XBHG", "current_trial": 92, "dateTime": 1512579547909, "trialdata": {"rt": -1, "stimulus": "<p id=\"stim\">KITCHEN</p>", "key_press": -1, "type": "PRES_VIS", "word": "kitchen", "wordID": 777, "conditions": [12, 1600, "v", 24000], "trial": 2, "serialpos": 3, "trial_type": "single-stim", "trial_index": 92, "time_elapsed": 411718, "internal_node_id": "0.0-65.0"}}, {"uniqueid": "MTK0647:33F859I567KGBRUI5M3EM4F5E4XBHG", "current_trial": 93, "dateTime": 1512579550521, "trialdata": {"rt": -1, "stimulus": "<p id=\"stim\">WRIST</p>", "key_press": -1, "type": "PRES_VIS", "word": "wrist", "wordID": 1625, "conditions": [12, 1600, "v", 24000], "trial": 2, "serialpos": 4, "trial_type": "single-stim", "trial_index": 93, "time_elapsed": 414330, "internal_node_id": "0.0-66.0"}}, {"uniqueid": "MTK0647:33F859I567KGBRUI5M3EM4F5E4XBHG", "current_trial": 94, "dateTime": 1512579553203, "trialdata": {"rt": -1, "stimulus": "<p id=\"stim\">ELBOW</p>", "key_press": -1, "type": "PRES_VIS", "word": "elbow", "wordID": 519, "conditions": [12, 1600, "v", 24000], "trial": 2, "serialpos": 5, "trial_type": "single-stim", "trial_index": 94, "time_elapsed": 417012, "internal_node_id": "0.0-67.0"}}, {"uniqueid": "MTK0647:33F859I567KGBRUI5M3EM4F5E4XBHG", "current_trial": 95, "dateTime": 1512579555904, "trialdata": {"rt": -1, "stimulus": "<p id=\"stim\">GAZELLE</p>", "key_press": -1, "type": "PRES_VIS", "word": "gazelle", "wordID": 627, "conditions": [12, 1600, "v", 24000], "trial": 2, "serialpos": 6, "trial_type": "single-stim", "trial_index": 95, "time_elapsed": 419713, "internal_node_id": "0.0-68.0"}}, {"uniqueid": "MTK0647:33F859I567KGBRUI5M3EM4F5E4XBHG", "current_trial": 96, "dateTime": 1512579558546, "trialdata": {"rt": -1, "stimulus": "<p id=\"stim\">BLADE</p>", "key_press": -1, "type": "PRES_VIS", "word": "blade", "wordID": 133, "conditions": [12, 1600, "v", 24000], "trial": 2, "serialpos": 7, "trial_type": "single-stim", "trial_index": 96, "time_elapsed": 422355, "internal_node_id": "0.0-69.0"}}, {"uniqueid": "MTK0647:33F859I567KGBRUI5M3EM4F5E4XBHG", "current_trial": 97, "dateTime": 1512579561275, "trialdata": {"rt": -1, "stimulus": "<p id=\"stim\">UMPIRE</p>", "key_press": -1, "type": "PRES_VIS", "word": "umpire", "wordID": 1534, "conditions": [12, 1600, "v", 24000], "trial": 2, "serialpos": 8, "trial_type": "single-stim", "trial_index": 97, "time_elapsed": 425084, "internal_node_id": "0.0-70.0"}}, {"uniqueid": "MTK0647:33F859I567KGBRUI5M3EM4F5E4XBHG", "current_trial": 98, "dateTime": 1512579564013, "trialdata": {"rt": -1, "stimulus": "<p id=\"stim\">CREVICE</p>", "key_press": -1, "type": "PRES_VIS", "word": "crevice", "wordID": 404, "conditions": [12, 1600, "v", 24000], "trial": 2, "serialpos": 9, "trial_type": "single-stim", "trial_index": 98, "time_elapsed": 427822, "internal_node_id": "0.0-71.0"}}, {"uniqueid": "MTK0647:33F859I567KGBRUI5M3EM4F5E4XBHG", "current_trial": 99, "dateTime": 1512579566454, "trialdata": {"rt": -1, "stimulus": "<p id=\"stim\">LAPEL</p>", "key_press": -1, "type": "PRES_VIS", "word": "lapel", "wordID": 799, "conditions": [12, 1600, "v", 24000], "trial": 2, "serialpos": 10, "trial_type": "single-stim", "trial_index": 99, "time_elapsed": 430263, "internal_node_id": "0.0-72.0"}}, {"uniqueid": "MTK0647:33F859I567KGBRUI5M3EM4F5E4XBHG", "current_trial": 100, "dateTime": 1512579568871, "trialdata": {"rt": -1, "stimulus": "<p id=\"stim\">SHRUB</p>", "key_press": -1, "type": "PRES_VIS", "word": "shrub", "wordID": 1298, "conditions": [12, 1600, "v", 24000], "trial": 2, "serialpos": 11, "trial_type": "single-stim", "trial_index": 100, "time_elapsed": 432680, "internal_node_id": "0.0-73.0"}}, {"uniqueid": "MTK0647:33F859I567KGBRUI5M3EM4F5E4XBHG", "current_trial": 101, "dateTime": 1512579571031, "trialdata": {"rt": -1, "stimulus": "", "key_press": -1, "type": "PRE_RECALL_DELAY", "trial_type": "single-stim", "trial_index": 101, "time_elapsed": 434840, "internal_node_id": "0.0-74.0-0.0"}}, {"uniqueid": "MTK0647:33F859I567KGBRUI5M3EM4F5E4XBHG", "current_trial": 102, "dateTime": 1512579571532, "trialdata": {"rt": -1000, "stimulus": "/static/audio/400Hz.wav", "key_press": -1, "type": "PRE_RECALL_ALERT", "trial_type": "single-audio", "trial_index": 102, "time_elapsed": 435341, "internal_node_id": "0.0-75.0"}}, {"uniqueid": "MTK0647:33F859I567KGBRUI5M3EM4F5E4XBHG", "current_trial": 103, "dateTime": 1512579631540, "trialdata": {"rt": [3700, 5804, 8228, 10860, 12756, 14789, 17573, 21903, 23839], "recwords": ["wrist", "elbow", "gazelle", "blade", "umpire", "crevice", "lapel", "shrub", "napkin"], "type": "FREE_RECALL", "conditions": [12, 1600, "v", 24000], "trial": 2, "trial_type": "free-recall", "trial_index": 103, "time_elapsed": 495347, "internal_node_id": "0.0-76.0-0.0"}}, {"uniqueid": "MTK0647:33F859I567KGBRUI5M3EM4F5E4XBHG", "current_trial": 104, "dateTime": 1512579635189, "trialdata": {"rt": 1649, "key_press": 70, "type": "INSTRUCTIONS", "trial_type": "text", "trial_index": 104, "time_elapsed": 498998, "internal_node_id": "0.0-77.0"}}, {"uniqueid": "MTK0647:33F859I567KGBRUI5M3EM4F5E4XBHG", "current_trial": 105, "dateTime": 1512579649193, "trialdata": {"rt": [2589, 3781, 5181, 6941, 8477], "responses": ["13", "14", "14", "11", "15"], "num1": [1, 1, 6, 3, 3, 9], "num2": [8, 6, 1, 5, 6, 7], "num3": [4, 7, 7, 3, 6, 7], "type": "DISTRACTOR", "conditions": [12, 1600, "v", 12000], "trial": 3, "trial_type": "math-distractor", "trial_index": 105, "time_elapsed": 513002, "internal_node_id": "0.0-78.0"}}, {"uniqueid": "MTK0647:33F859I567KGBRUI5M3EM4F5E4XBHG", "current_trial": 106, "dateTime": 1512579652195, "trialdata": {"rt": -1, "stimulus": "<p id=\"stim\">10</p>", "key_press": -1, "trial_type": "single-stim", "trial_index": 106, "time_elapsed": 516004, "internal_node_id": "0.0-79.0-0.0"}}, {"uniqueid": "MTK0647:33F859I567KGBRUI5M3EM4F5E4XBHG", "current_trial": 107, "dateTime": 1512579653199, "trialdata": {"rt": -1, "stimulus": "<p id=\"stim\">9</p>", "key_press": -1, "trial_type": "single-stim", "trial_index": 107, "time_elapsed": 517008, "internal_node_id": "0.0-79.0-1.0"}}, {"uniqueid": "MTK0647:33F859I567KGBRUI5M3EM4F5E4XBHG", "current_trial": 108, "dateTime": 1512579654201, "trialdata": {"rt": -1, "stimulus": "<p id=\"stim\">8</p>", "key_press": -1, "trial_type": "single-stim", "trial_index": 108, "time_elapsed": 518010, "internal_node_id": "0.0-79.0-2.0"}}, {"uniqueid": "MTK0647:33F859I567KGBRUI5M3EM4F5E4XBHG", "current_trial": 109, "dateTime": 1512579655202, "trialdata": {"rt": -1, "stimulus": "<p id=\"stim\">7</p>", "key_press": -1, "trial_type": "single-stim", "trial_index": 109, "time_elapsed": 519011, "internal_node_id": "0.0-79.0-3.0"}}, {"uniqueid": "MTK0647:33F859I567KGBRUI5M3EM4F5E4XBHG", "current_trial": 110, "dateTime": 1512579656204, "trialdata": {"rt": -1, "stimulus": "<p id=\"stim\">6</p>", "key_press": -1, "trial_type": "single-stim", "trial_index": 110, "time_elapsed": 520012, "internal_node_id": "0.0-79.0-4.0"}}, {"uniqueid": "MTK0647:33F859I567KGBRUI5M3EM4F5E4XBHG", "current_trial": 111, "dateTime": 1512579657205, "trialdata": {"rt": -1, "stimulus": "<p id=\"stim\">5</p>", "key_press": -1, "trial_type": "single-stim", "trial_index": 111, "time_elapsed": 521014, "internal_node_id": "0.0-79.0-5.0"}}, {"uniqueid": "MTK0647:33F859I567KGBRUI5M3EM4F5E4XBHG", "current_trial": 112, "dateTime": 1512579658206, "trialdata": {"rt": -1, "stimulus": "<p id=\"stim\">4</p>", "key_press": -1, "trial_type": "single-stim", "trial_index": 112, "time_elapsed": 522015, "internal_node_id": "0.0-79.0-6.0"}}, {"uniqueid": "MTK0647:33F859I567KGBRUI5M3EM4F5E4XBHG", "current_trial": 113, "dateTime": 1512579659207, "trialdata": {"rt": -1, "stimulus": "<p id=\"stim\">3</p>", "key_press": -1, "trial_type": "single-stim", "trial_index": 113, "time_elapsed": 523016, "internal_node_id": "0.0-79.0-7.0"}}, {"uniqueid": "MTK0647:33F859I567KGBRUI5M3EM4F5E4XBHG", "current_trial": 114, "dateTime": 1512579660208, "trialdata": {"rt": -1, "stimulus": "<p id=\"stim\">2</p>", "key_press": -1, "trial_type": "single-stim", "trial_index": 114, "time_elapsed": 524017, "internal_node_id": "0.0-79.0-8.0"}}, {"uniqueid": "MTK0647:33F859I567KGBRUI5M3EM4F5E4XBHG", "current_trial": 115, "dateTime": 1512579661209, "trialdata": {"rt": -1, "stimulus": "<p id=\"stim\">1</p>", "key_press": -1, "trial_type": "single-stim", "trial_index": 115, "time_elapsed": 525018, "internal_node_id": "0.0-79.0-9.0"}}, {"uniqueid": "MTK0647:33F859I567KGBRUI5M3EM4F5E4XBHG", "current_trial": 116, "dateTime": 1512579662710, "trialdata": {"rt": -1, "stimulus": "<p id=\"stim\">+</p>", "key_press": -1, "type": "FIXATION", "trial_type": "single-stim", "trial_index": 116, "time_elapsed": 526519, "internal_node_id": "0.0-80.0-0.0"}}, {"uniqueid": "MTK0647:33F859I567KGBRUI5M3EM4F5E4XBHG", "current_trial": 117, "dateTime": 1512579664311, "trialdata": {"rt": -1, "stimulus": "<p id=\"stim\">CANDY</p>", "key_press": -1, "type": "PRES_VIS", "word": "candy", "wordID": 229, "conditions": [12, 1600, "v", 12000], "trial": 3, "serialpos": 0, "trial_type": "single-stim", "trial_index": 117, "time_elapsed": 528120, "internal_node_id": "0.0-81.0"}}, {"uniqueid": "MTK0647:33F859I567KGBRUI5M3EM4F5E4XBHG", "current_trial": 118, "dateTime": 1512579667081, "trialdata": {"rt": -1, "stimulus": "<p id=\"stim\">KNAPSACK</p>", "key_press": -1, "type": "PRES_VIS", "word": "knapsack", "wordID": 782, "conditions": [12, 1600, "v", 12000], "trial": 3, "serialpos": 1, "trial_type": "single-stim", "trial_index": 118, "time_elapsed": 530890, "internal_node_id": "0.0-82.0"}}, {"uniqueid": "MTK0647:33F859I567KGBRUI5M3EM4F5E4XBHG", "current_trial": 119, "dateTime": 1512579669555, "trialdata": {"rt": -1, "stimulus": "<p id=\"stim\">VIKING</p>", "key_press": -1, "type": "PRES_VIS", "word": "viking", "wordID": 1564, "conditions": [12, 1600, "v", 12000], "trial": 3, "serialpos": 2, "trial_type": "single-stim", "trial_index": 119, "time_elapsed": 533364, "internal_node_id": "0.0-83.0"}}, {"uniqueid": "MTK0647:33F859I567KGBRUI5M3EM4F5E4XBHG", "current_trial": 120, "dateTime": 1512579672202, "trialdata": {"rt": -1, "stimulus": "<p id=\"stim\">STOMACH</p>", "key_press": -1, "type": "PRES_VIS", "word": "stomach", "wordID": 1383, "conditions": [12, 1600, "v", 12000], "trial": 3, "serialpos": 3, "trial_type": "single-stim", "trial_index": 120, "time_elapsed": 536011, "internal_node_id": "0.0-84.0"}}, {"uniqueid": "MTK0647:33F859I567KGBRUI5M3EM4F5E4XBHG", "current_trial": 121, "dateTime": 1512579674963, "trialdata": {"rt": -1, "stimulus": "<p id=\"stim\">LIVER</p>", "key_press": -1, "type": "PRES_VIS", "word": "liver", "wordID": 832, "conditions": [12, 1600, "v", 12000], "trial": 3, "serialpos": 4, "trial_type": "single-stim", "trial_index": 121, "time_elapsed": 538772, "internal_node_id": "0.0-85.0"}}, {"uniqueid": "MTK0647:33F859I567KGBRUI5M3EM4F5E4XBHG", "current_trial": 122, "dateTime": 1512579677597, "trialdata": {"rt": -1, "stimulus": "<p id=\"stim\">BOYFRIEND</p>", "key_press": -1, "type": "PRES_VIS", "word": "boyfriend", "wordID": 161, "conditions": [12, 1600, "v", 12000], "trial": 3, "serialpos": 5, "trial_type": "single-stim", "trial_index": 122, "time_elapsed": 541406, "internal_node_id": "0.0-86.0"}}, {"uniqueid": "MTK0647:33F859I567KGBRUI5M3EM4F5E4XBHG", "current_trial": 123, "dateTime": 1512579680015, "trialdata": {"rt": -1, "stimulus": "<p id=\"stim\">COUSIN</p>", "key_press": -1, "type": "PRES_VIS", "word": "cousin", "wordID": 391, "conditions": [12, 1600, "v", 12000], "trial": 3, "serialpos": 6, "trial_type": "single-stim", "trial_index": 123, "time_elapsed": 543824, "internal_node_id": "0.0-87.0"}}, {"uniqueid": "MTK0647:33F859I567KGBRUI5M3EM4F5E4XBHG", "current_trial": 124, "dateTime": 1512579682527, "trialdata": {"rt": -1, "stimulus": "<p id=\"stim\">SODA</p>", "key_press": -1, "type": "PRES_VIS", "word": "soda", "wordID": 1340, "conditions": [12, 1600, "v", 12000], "trial": 3, "serialpos": 7, "trial_type": "single-stim", "trial_index": 124, "time_elapsed": 546336, "internal_node_id": "0.0-88.0"}}, {"uniqueid": "MTK0647:33F859I567KGBRUI5M3EM4F5E4XBHG", "current_trial": 125, "dateTime": 1512579684936, "trialdata": {"rt": -1, "stimulus": "<p id=\"stim\">CRATER</p>", "key_press": -1, "type": "PRES_VIS", "word": "crater", "wordID": 399, "conditions": [12, 1600, "v", 12000], "trial": 3, "serialpos": 8, "trial_type": "single-stim", "trial_index": 125, "time_elapsed": 548745, "internal_node_id": "0.0-89.0"}}, {"uniqueid": "MTK0647:33F859I567KGBRUI5M3EM4F5E4XBHG", "current_trial": 126, "dateTime": 1512579687577, "trialdata": {"rt": -1, "stimulus": "<p id=\"stim\">BRICK</p>", "key_press": -1, "type": "PRES_VIS", "word": "brick", "wordID": 171, "conditions": [12, 1600, "v", 12000], "trial": 3, "serialpos": 9, "trial_type": "single-stim", "trial_index": 126, "time_elapsed": 551386, "internal_node_id": "0.0-90.0"}}, {"uniqueid": "MTK0647:33F859I567KGBRUI5M3EM4F5E4XBHG", "current_trial": 127, "dateTime": 1512579690054, "trialdata": {"rt": -1, "stimulus": "<p id=\"stim\">SADDLE</p>", "key_press": -1, "type": "PRES_VIS", "word": "saddle", "wordID": 1220, "conditions": [12, 1600, "v", 12000], "trial": 3, "serialpos": 10, "trial_type": "single-stim", "trial_index": 127, "time_elapsed": 553863, "internal_node_id": "0.0-91.0"}}, {"uniqueid": "MTK0647:33F859I567KGBRUI5M3EM4F5E4XBHG", "current_trial": 128, "dateTime": 1512579692666, "trialdata": {"rt": -1, "stimulus": "<p id=\"stim\">EGYPT</p>", "key_press": -1, "type": "PRES_VIS", "word": "egypt", "wordID": 518, "conditions": [12, 1600, "v", 12000], "trial": 3, "serialpos": 11, "trial_type": "single-stim", "trial_index": 128, "time_elapsed": 556475, "internal_node_id": "0.0-92.0"}}, {"uniqueid": "MTK0647:33F859I567KGBRUI5M3EM4F5E4XBHG", "current_trial": 129, "dateTime": 1512579694924, "trialdata": {"rt": -1, "stimulus": "", "key_press": -1, "type": "PRE_RECALL_DELAY", "trial_type": "single-stim", "trial_index": 129, "time_elapsed": 558733, "internal_node_id": "0.0-93.0-0.0"}}, {"uniqueid": "MTK0647:33F859I567KGBRUI5M3EM4F5E4XBHG", "current_trial": 130, "dateTime": 1512579695425, "trialdata": {"rt": -1000, "stimulus": "/static/audio/400Hz.wav", "key_press": -1, "type": "PRE_RECALL_ALERT", "trial_type": "single-audio", "trial_index": 130, "time_elapsed": 559234, "internal_node_id": "0.0-94.0"}}, {"uniqueid": "MTK0647:33F859I567KGBRUI5M3EM4F5E4XBHG", "current_trial": 131, "dateTime": 1512579755433, "trialdata": {"rt": [2828, 5820, 8292, 10556, 11525, 13165, 14853, 16741, 17918, 19998, 21671, 25582], "recwords": ["candy", "knapsack", "vikikng", "stomach", "liver", "boyfriend", "cousin", "soda", "crater", "brick", "saddle", "egypt"], "type": "FREE_RECALL", "conditions": [12, 1600, "v", 12000], "trial": 3, "trial_type": "free-recall", "trial_index": 131, "time_elapsed": 619240, "internal_node_id": "0.0-95.0-0.0"}}, {"uniqueid": "MTK0647:33F859I567KGBRUI5M3EM4F5E4XBHG", "current_trial": 132, "dateTime": 1512579847431, "trialdata": {"rt": 89996, "key_press": 32, "type": "INSTRUCTIONS", "trial_type": "text", "trial_index": 132, "time_elapsed": 711240, "internal_node_id": "0.0-96.0"}}, {"uniqueid": "MTK0647:33F859I567KGBRUI5M3EM4F5E4XBHG", "current_trial": 133, "dateTime": 1512579861434, "trialdata": {"rt": [2396, 4180, 7452, 10164], "responses": ["11", "10", "12", "7"], "num1": [1, 2, 2, 1, 6], "num2": [5, 5, 1, 3, 3], "num3": [5, 3, 9, 3, 7], "type": "DISTRACTOR", "conditions": [24, 800, "v", 12000], "trial": 4, "trial_type": "math-distractor", "trial_index": 133, "time_elapsed": 725243, "internal_node_id": "0.0-97.0"}}, {"uniqueid": "MTK0647:33F859I567KGBRUI5M3EM4F5E4XBHG", "current_trial": 134, "dateTime": 1512579864437, "trialdata": {"rt": -1, "stimulus": "<p id=\"stim\">10</p>", "key_press": -1, "trial_type": "single-stim", "trial_index": 134, "time_elapsed": 728246, "internal_node_id": "0.0-98.0-0.0"}}, {"uniqueid": "MTK0647:33F859I567KGBRUI5M3EM4F5E4XBHG", "current_trial": 135, "dateTime": 1512579865438, "trialdata": {"rt": -1, "stimulus": "<p id=\"stim\">9</p>", "key_press": -1, "trial_type": "single-stim", "trial_index": 135, "time_elapsed": 729247, "internal_node_id": "0.0-98.0-1.0"}}, {"uniqueid": "MTK0647:33F859I567KGBRUI5M3EM4F5E4XBHG", "current_trial": 136, "dateTime": 1512579866439, "trialdata": {"rt": -1, "stimulus": "<p id=\"stim\">8</p>", "key_press": -1, "trial_type": "single-stim", "trial_index": 136, "time_elapsed": 730248, "internal_node_id": "0.0-98.0-2.0"}}, {"uniqueid": "MTK0647:33F859I567KGBRUI5M3EM4F5E4XBHG", "current_trial": 137, "dateTime": 1512579867440, "trialdata": {"rt": -1, "stimulus": "<p id=\"stim\">7</p>", "key_press": -1, "trial_type": "single-stim", "trial_index": 137, "time_elapsed": 731249, "internal_node_id": "0.0-98.0-3.0"}}, {"uniqueid": "MTK0647:33F859I567KGBRUI5M3EM4F5E4XBHG", "current_trial": 138, "dateTime": 1512579868441, "trialdata": {"rt": -1, "stimulus": "<p id=\"stim\">6</p>", "key_press": -1, "trial_type": "single-stim", "trial_index": 138, "time_elapsed": 732250, "internal_node_id": "0.0-98.0-4.0"}}, {"uniqueid": "MTK0647:33F859I567KGBRUI5M3EM4F5E4XBHG", "current_trial": 139, "dateTime": 1512579869442, "trialdata": {"rt": -1, "stimulus": "<p id=\"stim\">5</p>", "key_press": -1, "trial_type": "single-stim", "trial_index": 139, "time_elapsed": 733251, "internal_node_id": "0.0-98.0-5.0"}}, {"uniqueid": "MTK0647:33F859I567KGBRUI5M3EM4F5E4XBHG", "current_trial": 140, "dateTime": 1512579870443, "trialdata": {"rt": -1, "stimulus": "<p id=\"stim\">4</p>", "key_press": -1, "trial_type": "single-stim", "trial_index": 140, "time_elapsed": 734252, "internal_node_id": "0.0-98.0-6.0"}}, {"uniqueid": "MTK0647:33F859I567KGBRUI5M3EM4F5E4XBHG", "current_trial": 141, "dateTime": 1512579871444, "trialdata": {"rt": -1, "stimulus": "<p id=\"stim\">3</p>", "key_press": -1, "trial_type": "single-stim", "trial_index": 141, "time_elapsed": 735253, "internal_node_id": "0.0-98.0-7.0"}}, {"uniqueid": "MTK0647:33F859I567KGBRUI5M3EM4F5E4XBHG", "current_trial": 142, "dateTime": 1512579872445, "trialdata": {"rt": -1, "stimulus": "<p id=\"stim\">2</p>", "key_press": -1, "trial_type": "single-stim", "trial_index": 142, "time_elapsed": 736254, "internal_node_id": "0.0-98.0-8.0"}}, {"uniqueid": "MTK0647:33F859I567KGBRUI5M3EM4F5E4XBHG", "current_trial": 143, "dateTime": 1512579873446, "trialdata": {"rt": -1, "stimulus": "<p id=\"stim\">1</p>", "key_press": -1, "trial_type": "single-stim", "trial_index": 143, "time_elapsed": 737255, "internal_node_id": "0.0-98.0-9.0"}}, {"uniqueid": "MTK0647:33F859I567KGBRUI5M3EM4F5E4XBHG", "current_trial": 144, "dateTime": 1512579874947, "trialdata": {"rt": -1, "stimulus": "<p id=\"stim\">+</p>", "key_press": -1, "type": "FIXATION", "trial_type": "single-stim", "trial_index": 144, "time_elapsed": 738756, "internal_node_id": "0.0-99.0-0.0"}}, {"uniqueid": "MTK0647:33F859I567KGBRUI5M3EM4F5E4XBHG", "current_trial": 145, "dateTime": 1512579875750, "trialdata": {"rt": -1, "stimulus": "<p id=\"stim\">LUNCH</p>", "key_press": -1, "type": "PRES_VIS", "word": "lunch", "wordID": 848, "conditions": [24, 800, "v", 12000], "trial": 4, "serialpos": 0, "trial_type": "single-stim", "trial_index": 145, "time_elapsed": 739559, "internal_node_id": "0.0-100.0"}}, {"uniqueid": "MTK0647:33F859I567KGBRUI5M3EM4F5E4XBHG", "current_trial": 146, "dateTime": 1512579877627, "trialdata": {"rt": -1, "stimulus": "<p id=\"stim\">CASHEW</p>", "key_press": -1, "type": "PRES_VIS", "word": "cashew", "wordID": 252, "conditions": [24, 800, "v", 12000], "trial": 4, "serialpos": 1, "trial_type": "single-stim", "trial_index": 146, "time_elapsed": 741436, "internal_node_id": "0.0-101.0"}}, {"uniqueid": "MTK0647:33F859I567KGBRUI5M3EM4F5E4XBHG", "current_trial": 147, "dateTime": 1512579879445, "trialdata": {"rt": -1, "stimulus": "<p id=\"stim\">VIRUS</p>", "key_press": -1, "type": "PRES_VIS", "word": "virus", "wordID": 1571, "conditions": [24, 800, "v", 12000], "trial": 4, "serialpos": 2, "trial_type": "single-stim", "trial_index": 147, "time_elapsed": 743254, "internal_node_id": "0.0-102.0"}}, {"uniqueid": "MTK0647:33F859I567KGBRUI5M3EM4F5E4XBHG", "current_trial": 148, "dateTime": 1512579881149, "trialdata": {"rt": -1, "stimulus": "<p id=\"stim\">WHISTLE</p>", "key_press": -1, "type": "PRES_VIS", "word": "whistle", "wordID": 1605, "conditions": [24, 800, "v", 12000], "trial": 4, "serialpos": 3, "trial_type": "single-stim", "trial_index": 148, "time_elapsed": 744958, "internal_node_id": "0.0-103.0"}}, {"uniqueid": "MTK0647:33F859I567KGBRUI5M3EM4F5E4XBHG", "current_trial": 149, "dateTime": 1512579882997, "trialdata": {"rt": -1, "stimulus": "<p id=\"stim\">DUST</p>", "key_press": -1, "type": "PRES_VIS", "word": "dust", "wordID": 507, "conditions": [24, 800, "v", 12000], "trial": 4, "serialpos": 4, "trial_type": "single-stim", "trial_index": 149, "time_elapsed": 746806, "internal_node_id": "0.0-104.0"}}, {"uniqueid": "MTK0647:33F859I567KGBRUI5M3EM4F5E4XBHG", "current_trial": 150, "dateTime": 1512579884697, "trialdata": {"rt": -1, "stimulus": "<p id=\"stim\">SKIRT</p>", "key_press": -1, "type": "PRES_VIS", "word": "skirt", "wordID": 1318, "conditions": [24, 800, "v", 12000], "trial": 4, "serialpos": 5, "trial_type": "single-stim", "trial_index": 150, "time_elapsed": 748506, "internal_node_id": "0.0-105.0"}}, {"uniqueid": "MTK0647:33F859I567KGBRUI5M3EM4F5E4XBHG", "current_trial": 151, "dateTime": 1512579886378, "trialdata": {"rt": -1, "stimulus": "<p id=\"stim\">DRESS</p>", "key_press": -1, "type": "PRES_VIS", "word": "dress", "wordID": 494, "conditions": [24, 800, "v", 12000], "trial": 4, "serialpos": 6, "trial_type": "single-stim", "trial_index": 151, "time_elapsed": 750187, "internal_node_id": "0.0-106.0"}}, {"uniqueid": "MTK0647:33F859I567KGBRUI5M3EM4F5E4XBHG", "current_trial": 152, "dateTime": 1512579888175, "trialdata": {"rt": -1, "stimulus": "<p id=\"stim\">BUG</p>", "key_press": -1, "type": "PRES_VIS", "word": "bug", "wordID": 186, "conditions": [24, 800, "v", 12000], "trial": 4, "serialpos": 7, "trial_type": "single-stim", "trial_index": 152, "time_elapsed": 751984, "internal_node_id": "0.0-107.0"}}, {"uniqueid": "MTK0647:33F859I567KGBRUI5M3EM4F5E4XBHG", "current_trial": 153, "dateTime": 1512579890039, "trialdata": {"rt": -1, "stimulus": "<p id=\"stim\">TRACTOR</p>", "key_press": -1, "type": "PRES_VIS", "word": "tractor", "wordID": 1492, "conditions": [24, 800, "v", 12000], "trial": 4, "serialpos": 8, "trial_type": "single-stim", "trial_index": 153, "time_elapsed": 753848, "internal_node_id": "0.0-108.0"}}, {"uniqueid": "MTK0647:33F859I567KGBRUI5M3EM4F5E4XBHG", "current_trial": 154, "dateTime": 1512579891815, "trialdata": {"rt": -1, "stimulus": "<p id=\"stim\">PISTON</p>", "key_press": -1, "type": "PRES_VIS", "word": "piston", "wordID": 1075, "conditions": [24, 800, "v", 12000], "trial": 4, "serialpos": 9, "trial_type": "single-stim", "trial_index": 154, "time_elapsed": 755624, "internal_node_id": "0.0-109.0"}}, {"uniqueid": "MTK0647:33F859I567KGBRUI5M3EM4F5E4XBHG", "current_trial": 155, "dateTime": 1512579893508, "trialdata": {"rt": -1, "stimulus": "<p id=\"stim\">COCKTAIL</p>", "key_press": -1, "type": "PRES_VIS", "word": "cocktail", "wordID": 337, "conditions": [24, 800, "v", 12000], "trial": 4, "serialpos": 10, "trial_type": "single-stim", "trial_index": 155, "time_elapsed": 757317, "internal_node_id": "0.0-110.0"}}, {"uniqueid": "MTK0647:33F859I567KGBRUI5M3EM4F5E4XBHG", "current_trial": 156, "dateTime": 1512579895297, "trialdata": {"rt": -1, "stimulus": "<p id=\"stim\">SEAGULL</p>", "key_press": -1, "type": "PRES_VIS", "word": "seagull", "wordID": 1260, "conditions": [24, 800, "v", 12000], "trial": 4, "serialpos": 11, "trial_type": "single-stim", "trial_index": 156, "time_elapsed": 759106, "internal_node_id": "0.0-111.0"}}, {"uniqueid": "MTK0647:33F859I567KGBRUI5M3EM4F5E4XBHG", "current_trial": 157, "dateTime": 1512579897014, "trialdata": {"rt": -1, "stimulus": "<p id=\"stim\">PICNIC</p>", "key_press": -1, "type": "PRES_VIS", "word": "picnic", "wordID": 1059, "conditions": [24, 800, "v", 12000], "trial": 4, "serialpos": 12, "trial_type": "single-stim", "trial_index": 157, "time_elapsed": 760823, "internal_node_id": "0.0-112.0"}}, {"uniqueid": "MTK0647:33F859I567KGBRUI5M3EM4F5E4XBHG", "current_trial": 158, "dateTime": 1512579898984, "trialdata": {"rt": -1, "stimulus": "<p id=\"stim\">MISTER</p>", "key_press": -1, "type": "PRES_VIS", "word": "mister", "wordID": 900, "conditions": [24, 800, "v", 12000], "trial": 4, "serialpos": 13, "trial_type": "single-stim", "trial_index": 158, "time_elapsed": 762793, "internal_node_id": "0.0-113.0"}}, {"uniqueid": "MTK0647:33F859I567KGBRUI5M3EM4F5E4XBHG", "current_trial": 159, "dateTime": 1512579900649, "trialdata": {"rt": -1, "stimulus": "<p id=\"stim\">FIREPLACE</p>", "key_press": -1, "type": "PRES_VIS", "word": "fireplace", "wordID": 569, "conditions": [24, 800, "v", 12000], "trial": 4, "serialpos": 14, "trial_type": "single-stim", "trial_index": 159, "time_elapsed": 764458, "internal_node_id": "0.0-114.0"}}, {"uniqueid": "MTK0647:33F859I567KGBRUI5M3EM4F5E4XBHG", "current_trial": 160, "dateTime": 1512579902260, "trialdata": {"rt": -1, "stimulus": "<p id=\"stim\">HIGHWAY</p>", "key_press": -1, "type": "PRES_VIS", "word": "highway", "wordID": 706, "conditions": [24, 800, "v", 12000], "trial": 4, "serialpos": 15, "trial_type": "single-stim", "trial_index": 160, "time_elapsed": 766069, "internal_node_id": "0.0-115.0"}}, {"uniqueid": "MTK0647:33F859I567KGBRUI5M3EM4F5E4XBHG", "current_trial": 161, "dateTime": 1512579904237, "trialdata": {"rt": -1, "stimulus": "<p id=\"stim\">MATTRESS</p>", "key_press": -1, "type": "PRES_VIS", "word": "mattress", "wordID": 878, "conditions": [24, 800, "v", 12000], "trial": 4, "serialpos": 16, "trial_type": "single-stim", "trial_index": 161, "time_elapsed": 768046, "internal_node_id": "0.0-116.0"}}, {"uniqueid": "MTK0647:33F859I567KGBRUI5M3EM4F5E4XBHG", "current_trial": 162, "dateTime": 1512579906084, "trialdata": {"rt": -1, "stimulus": "<p id=\"stim\">MAMMAL</p>", "key_press": -1, "type": "PRES_VIS", "word": "mammal", "wordID": 860, "conditions": [24, 800, "v", 12000], "trial": 4, "serialpos": 17, "trial_type": "single-stim", "trial_index": 162, "time_elapsed": 769893, "internal_node_id": "0.0-117.0"}}, {"uniqueid": "MTK0647:33F859I567KGBRUI5M3EM4F5E4XBHG", "current_trial": 163, "dateTime": 1512579907909, "trialdata": {"rt": -1, "stimulus": "<p id=\"stim\">LIZARD</p>", "key_press": -1, "type": "PRES_VIS", "word": "lizard", "wordID": 833, "conditions": [24, 800, "v", 12000], "trial": 4, "serialpos": 18, "trial_type": "single-stim", "trial_index": 163, "time_elapsed": 771718, "internal_node_id": "0.0-118.0"}}, {"uniqueid": "MTK0647:33F859I567KGBRUI5M3EM4F5E4XBHG", "current_trial": 164, "dateTime": 1512579909667, "trialdata": {"rt": -1, "stimulus": "<p id=\"stim\">PASSAGE</p>", "key_press": -1, "type": "PRES_VIS", "word": "passage", "wordID": 1018, "conditions": [24, 800, "v", 12000], "trial": 4, "serialpos": 19, "trial_type": "single-stim", "trial_index": 164, "time_elapsed": 773476, "internal_node_id": "0.0-119.0"}}, {"uniqueid": "MTK0647:33F859I567KGBRUI5M3EM4F5E4XBHG", "current_trial": 165, "dateTime": 1512579911293, "trialdata": {"rt": -1, "stimulus": "<p id=\"stim\">VENUS</p>", "key_press": -1, "type": "PRES_VIS", "word": "venus", "wordID": 1556, "conditions": [24, 800, "v", 12000], "trial": 4, "serialpos": 20, "trial_type": "single-stim", "trial_index": 165, "time_elapsed": 775102, "internal_node_id": "0.0-120.0"}}, {"uniqueid": "MTK0647:33F859I567KGBRUI5M3EM4F5E4XBHG", "current_trial": 166, "dateTime": 1512579912984, "trialdata": {"rt": -1, "stimulus": "<p id=\"stim\">CREATURE</p>", "key_press": -1, "type": "PRES_VIS", "word": "creature", "wordID": 402, "conditions": [24, 800, "v", 12000], "trial": 4, "serialpos": 21, "trial_type": "single-stim", "trial_index": 166, "time_elapsed": 776793, "internal_node_id": "0.0-121.0"}}, {"uniqueid": "MTK0647:33F859I567KGBRUI5M3EM4F5E4XBHG", "current_trial": 167, "dateTime": 1512579914693, "trialdata": {"rt": -1, "stimulus": "<p id=\"stim\">BANJO</p>", "key_press": -1, "type": "PRES_VIS", "word": "banjo", "wordID": 81, "conditions": [24, 800, "v", 12000], "trial": 4, "serialpos": 22, "trial_type": "single-stim", "trial_index": 167, "time_elapsed": 778502, "internal_node_id": "0.0-122.0"}}, {"uniqueid": "MTK0647:33F859I567KGBRUI5M3EM4F5E4XBHG", "current_trial": 168, "dateTime": 1512579916381, "trialdata": {"rt": -1, "stimulus": "<p id=\"stim\">GUITAR</p>", "key_press": -1, "type": "PRES_VIS", "word": "guitar", "wordID": 669, "conditions": [24, 800, "v", 12000], "trial": 4, "serialpos": 23, "trial_type": "single-stim", "trial_index": 168, "time_elapsed": 780190, "internal_node_id": "0.0-123.0"}}, {"uniqueid": "MTK0647:33F859I567KGBRUI5M3EM4F5E4XBHG", "current_trial": 169, "dateTime": 1512579918534, "trialdata": {"rt": -1, "stimulus": "", "key_press": -1, "type": "PRE_RECALL_DELAY", "trial_type": "single-stim", "trial_index": 169, "time_elapsed": 782343, "internal_node_id": "0.0-124.0-0.0"}}, {"uniqueid": "MTK0647:33F859I567KGBRUI5M3EM4F5E4XBHG", "current_trial": 170, "dateTime": 1512579919035, "trialdata": {"rt": -1000, "stimulus": "/static/audio/400Hz.wav", "key_press": -1, "type": "PRE_RECALL_ALERT", "trial_type": "single-audio", "trial_index": 170, "time_elapsed": 782844, "internal_node_id": "0.0-125.0"}}, {"uniqueid": "MTK0647:33F859I567KGBRUI5M3EM4F5E4XBHG", "current_trial": 171, "dateTime": 1512579979043, "trialdata": {"rt": [3924, 5228, 7740, 9460, 13627, 16268, 18468, 20068, 21532, 24316, 25740, 26932, 28620, 30123, 31388, 32404, 34022, 35382, 38902, 39382, 42510, 44518], "recwords": ["banjo", "guitar", "venus", "lizzard", "animal", "mamal", "mattress", "highway", "mister", "seagull", "piston", "engine", "tractor", "bug", "dress", "skirt", "dust", "whistle", "virus", "", "cashew", "lunch"], "type": "FREE_RECALL", "conditions": [24, 800, "v", 12000], "trial": 4, "trial_type": "free-recall", "trial_index": 171, "time_elapsed": 842849, "internal_node_id": "0.0-126.0-0.0"}}, {"uniqueid": "MTK0647:33F859I567KGBRUI5M3EM4F5E4XBHG", "current_trial": 172, "dateTime": 1512579982290, "trialdata": {"rt": 1245, "key_press": 68, "type": "INSTRUCTIONS", "trial_type": "text", "trial_index": 172, "time_elapsed": 846099, "internal_node_id": "0.0-127.0"}}, {"uniqueid": "MTK0647:33F859I567KGBRUI5M3EM4F5E4XBHG", "current_trial": 173, "dateTime": 1512580008294, "trialdata": {"rt": [2566, 7454, 9422, 11709, 14597, 16797, 19662, 21302], "responses": ["16", "17", "13", "21", "18", "13", "16", "11"], "num1": [4, 2, 2, 8, 9, 3, 6, 8, 4], "num2": [8, 7, 2, 5, 6, 3, 1, 2, 8], "num3": [5, 8, 9, 8, 3, 7, 9, 1, 9], "type": "DISTRACTOR", "conditions": [24, 800, "a", 24000], "trial": 5, "trial_type": "math-distractor", "trial_index": 173, "time_elapsed": 872103, "internal_node_id": "0.0-128.0"}}, {"uniqueid": "MTK0647:33F859I567KGBRUI5M3EM4F5E4XBHG", "current_trial": 174, "dateTime": 1512580011296, "trialdata": {"rt": -1, "stimulus": "<p id=\"stim\">10</p>", "key_press": -1, "trial_type": "single-stim", "trial_index": 174, "time_elapsed": 875105, "internal_node_id": "0.0-129.0-0.0"}}, {"uniqueid": "MTK0647:33F859I567KGBRUI5M3EM4F5E4XBHG", "current_trial": 175, "dateTime": 1512580012297, "trialdata": {"rt": -1, "stimulus": "<p id=\"stim\">9</p>", "key_press": -1, "trial_type": "single-stim", "trial_index": 175, "time_elapsed": 876106, "internal_node_id": "0.0-129.0-1.0"}}, {"uniqueid": "MTK0647:33F859I567KGBRUI5M3EM4F5E4XBHG", "current_trial": 176, "dateTime": 1512580013301, "trialdata": {"rt": -1, "stimulus": "<p id=\"stim\">8</p>", "key_press": -1, "trial_type": "single-stim", "trial_index": 176, "time_elapsed": 877110, "internal_node_id": "0.0-129.0-2.0"}}, {"uniqueid": "MTK0647:33F859I567KGBRUI5M3EM4F5E4XBHG", "current_trial": 177, "dateTime": 1512580014302, "trialdata": {"rt": -1, "stimulus": "<p id=\"stim\">7</p>", "key_press": -1, "trial_type": "single-stim", "trial_index": 177, "time_elapsed": 878111, "internal_node_id": "0.0-129.0-3.0"}}, {"uniqueid": "MTK0647:33F859I567KGBRUI5M3EM4F5E4XBHG", "current_trial": 178, "dateTime": 1512580015303, "trialdata": {"rt": -1, "stimulus": "<p id=\"stim\">6</p>", "key_press": -1, "trial_type": "single-stim", "trial_index": 178, "time_elapsed": 879112, "internal_node_id": "0.0-129.0-4.0"}}, {"uniqueid": "MTK0647:33F859I567KGBRUI5M3EM4F5E4XBHG", "current_trial": 179, "dateTime": 1512580016304, "trialdata": {"rt": -1, "stimulus": "<p id=\"stim\">5</p>", "key_press": -1, "trial_type": "single-stim", "trial_index": 179, "time_elapsed": 880113, "internal_node_id": "0.0-129.0-5.0"}}, {"uniqueid": "MTK0647:33F859I567KGBRUI5M3EM4F5E4XBHG", "current_trial": 180, "dateTime": 1512580017305, "trialdata": {"rt": -1, "stimulus": "<p id=\"stim\">4</p>", "key_press": -1, "trial_type": "single-stim", "trial_index": 180, "time_elapsed": 881114, "internal_node_id": "0.0-129.0-6.0"}}, {"uniqueid": "MTK0647:33F859I567KGBRUI5M3EM4F5E4XBHG", "current_trial": 181, "dateTime": 1512580018306, "trialdata": {"rt": -1, "stimulus": "<p id=\"stim\">3</p>", "key_press": -1, "trial_type": "single-stim", "trial_index": 181, "time_elapsed": 882115, "internal_node_id": "0.0-129.0-7.0"}}, {"uniqueid": "MTK0647:33F859I567KGBRUI5M3EM4F5E4XBHG", "current_trial": 182, "dateTime": 1512580019307, "trialdata": {"rt": -1, "stimulus": "<p id=\"stim\">2</p>", "key_press": -1, "trial_type": "single-stim", "trial_index": 182, "time_elapsed": 883116, "internal_node_id": "0.0-129.0-8.0"}}, {"uniqueid": "MTK0647:33F859I567KGBRUI5M3EM4F5E4XBHG", "current_trial": 183, "dateTime": 1512580020308, "trialdata": {"rt": -1, "stimulus": "<p id=\"stim\">1</p>", "key_press": -1, "trial_type": "single-stim", "trial_index": 183, "time_elapsed": 884117, "internal_node_id": "0.0-129.0-9.0"}}, {"uniqueid": "MTK0647:33F859I567KGBRUI5M3EM4F5E4XBHG", "current_trial": 184, "dateTime": 1512580021810, "trialdata": {"rt": -1, "stimulus": "<p id=\"stim\">+</p>", "key_press": -1, "type": "FIXATION", "trial_type": "single-stim", "trial_index": 184, "time_elapsed": 885619, "internal_node_id": "0.0-130.0-0.0"}}, {"uniqueid": "MTK0647:33F859I567KGBRUI5M3EM4F5E4XBHG", "current_trial": 185, "dateTime": 1512580023580, "trialdata": {"rt": -1000, "stimulus": "/static/audio/wordpool/FOX.wav", "key_press": -1, "type": "PRES_AUD", "word": "fox", "wordID": 597, "conditions": [24, 800, "a", 24000], "trial": 5, "serialpos": 0, "trial_type": "single-audio", "trial_index": 185, "time_elapsed": 887389, "internal_node_id": "0.0-131.0"}}, {"uniqueid": "MTK0647:33F859I567KGBRUI5M3EM4F5E4XBHG", "current_trial": 186, "dateTime": 1512580025462, "trialdata": {"rt": -1000, "stimulus": "/static/audio/wordpool/ZIPPER.wav", "key_press": -1, "type": "PRES_AUD", "word": "zipper", "wordID": 1635, "conditions": [24, 800, "a", 24000], "trial": 5, "serialpos": 1, "trial_type": "single-audio", "trial_index": 186, "time_elapsed": 889271, "internal_node_id": "0.0-132.0"}}, {"uniqueid": "MTK0647:33F859I567KGBRUI5M3EM4F5E4XBHG", "current_trial": 187, "dateTime": 1512580027305, "trialdata": {"rt": -1000, "stimulus": "/static/audio/wordpool/SOFTBALL.wav", "key_press": -1, "type": "PRES_AUD", "word": "softball", "wordID": 1342, "conditions": [24, 800, "a", 24000], "trial": 5, "serialpos": 2, "trial_type": "single-audio", "trial_index": 187, "time_elapsed": 891114, "internal_node_id": "0.0-133.0"}}, {"uniqueid": "MTK0647:33F859I567KGBRUI5M3EM4F5E4XBHG", "current_trial": 188, "dateTime": 1512580029013, "trialdata": {"rt": -1000, "stimulus": "/static/audio/wordpool/TOURIST.wav", "key_press": -1, "type": "PRES_AUD", "word": "tourist", "wordID": 1487, "conditions": [24, 800, "a", 24000], "trial": 5, "serialpos": 3, "trial_type": "single-audio", "trial_index": 188, "time_elapsed": 892822, "internal_node_id": "0.0-134.0"}}, {"uniqueid": "MTK0647:33F859I567KGBRUI5M3EM4F5E4XBHG", "current_trial": 189, "dateTime": 1512580030994, "trialdata": {"rt": -1000, "stimulus": "/static/audio/wordpool/CHAUFFEUR.wav", "key_press": -1, "type": "PRES_AUD", "word": "chauffeur", "wordID": 282, "conditions": [24, 800, "a", 24000], "trial": 5, "serialpos": 4, "trial_type": "single-audio", "trial_index": 189, "time_elapsed": 894803, "internal_node_id": "0.0-135.0"}}, {"uniqueid": "MTK0647:33F859I567KGBRUI5M3EM4F5E4XBHG", "current_trial": 190, "dateTime": 1512580032946, "trialdata": {"rt": -1000, "stimulus": "/static/audio/wordpool/MAILMAN.wav", "key_press": -1, "type": "PRES_AUD", "word": "mailman", "wordID": 857, "conditions": [24, 800, "a", 24000], "trial": 5, "serialpos": 5, "trial_type": "single-audio", "trial_index": 190, "time_elapsed": 896755, "internal_node_id": "0.0-136.0"}}, {"uniqueid": "MTK0647:33F859I567KGBRUI5M3EM4F5E4XBHG", "current_trial": 191, "dateTime": 1512580034575, "trialdata": {"rt": -1000, "stimulus": "/static/audio/wordpool/PATROL.wav", "key_press": -1, "type": "PRES_AUD", "word": "patrol", "wordID": 1026, "conditions": [24, 800, "a", 24000], "trial": 5, "serialpos": 6, "trial_type": "single-audio", "trial_index": 191, "time_elapsed": 898384, "internal_node_id": "0.0-137.0"}}, {"uniqueid": "MTK0647:33F859I567KGBRUI5M3EM4F5E4XBHG", "current_trial": 192, "dateTime": 1512580036356, "trialdata": {"rt": -1000, "stimulus": "/static/audio/wordpool/BEAST.wav", "key_press": -1, "type": "PRES_AUD", "word": "beast", "wordID": 107, "conditions": [24, 800, "a", 24000], "trial": 5, "serialpos": 7, "trial_type": "single-audio", "trial_index": 192, "time_elapsed": 900165, "internal_node_id": "0.0-138.0"}}, {"uniqueid": "MTK0647:33F859I567KGBRUI5M3EM4F5E4XBHG", "current_trial": 193, "dateTime": 1512580037975, "trialdata": {"rt": -1000, "stimulus": "/static/audio/wordpool/MONSTER.wav", "key_press": -1, "type": "PRES_AUD", "word": "monster", "wordID": 911, "conditions": [24, 800, "a", 24000], "trial": 5, "serialpos": 8, "trial_type": "single-audio", "trial_index": 193, "time_elapsed": 901784, "internal_node_id": "0.0-139.0"}}, {"uniqueid": "MTK0647:33F859I567KGBRUI5M3EM4F5E4XBHG", "current_trial": 194, "dateTime": 1512580039881, "trialdata": {"rt": -1000, "stimulus": "/static/audio/wordpool/ROBIN.wav", "key_press": -1, "type": "PRES_AUD", "word": "robin", "wordID": 1198, "conditions": [24, 800, "a", 24000], "trial": 5, "serialpos": 9, "trial_type": "single-audio", "trial_index": 194, "time_elapsed": 903690, "internal_node_id": "0.0-140.0"}}, {"uniqueid": "MTK0647:33F859I567KGBRUI5M3EM4F5E4XBHG", "current_trial": 195, "dateTime": 1512580041873, "trialdata": {"rt": -1000, "stimulus": "/static/audio/wordpool/SUNSET.wav", "key_press": -1, "type": "PRES_AUD", "word": "sunset", "wordID": 1407, "conditions": [24, 800, "a", 24000], "trial": 5, "serialpos": 10, "trial_type": "single-audio", "trial_index": 195, "time_elapsed": 905682, "internal_node_id": "0.0-141.0"}}, {"uniqueid": "MTK0647:33F859I567KGBRUI5M3EM4F5E4XBHG", "current_trial": 196, "dateTime": 1512580043494, "trialdata": {"rt": -1000, "stimulus": "/static/audio/wordpool/SIDEWALK.wav", "key_press": -1, "type": "PRES_AUD", "word": "sidewalk", "wordID": 1302, "conditions": [24, 800, "a", 24000], "trial": 5, "serialpos": 11, "trial_type": "single-audio", "trial_index": 196, "time_elapsed": 907303, "internal_node_id": "0.0-142.0"}}, {"uniqueid": "MTK0647:33F859I567KGBRUI5M3EM4F5E4XBHG", "current_trial": 197, "dateTime": 1512580045110, "trialdata": {"rt": -1000, "stimulus": "/static/audio/wordpool/WASHER.wav", "key_press": -1, "type": "PRES_AUD", "word": "washer", "wordID": 1591, "conditions": [24, 800, "a", 24000], "trial": 5, "serialpos": 12, "trial_type": "single-audio", "trial_index": 197, "time_elapsed": 908919, "internal_node_id": "0.0-143.0"}}, {"uniqueid": "MTK0647:33F859I567KGBRUI5M3EM4F5E4XBHG", "current_trial": 198, "dateTime": 1512580046841, "trialdata": {"rt": -1000, "stimulus": "/static/audio/wordpool/CATTLE.wav", "key_press": -1, "type": "PRES_AUD", "word": "cattle", "wordID": 260, "conditions": [24, 800, "a", 24000], "trial": 5, "serialpos": 13, "trial_type": "single-audio", "trial_index": 198, "time_elapsed": 910650, "internal_node_id": "0.0-144.0"}}, {"uniqueid": "MTK0647:33F859I567KGBRUI5M3EM4F5E4XBHG", "current_trial": 199, "dateTime": 1512580048746, "trialdata": {"rt": -1000, "stimulus": "/static/audio/wordpool/HAMPER.wav", "key_press": -1, "type": "PRES_AUD", "word": "hamper", "wordID": 681, "conditions": [24, 800, "a", 24000], "trial": 5, "serialpos": 14, "trial_type": "single-audio", "trial_index": 199, "time_elapsed": 912555, "internal_node_id": "0.0-145.0"}}, {"uniqueid": "MTK0647:33F859I567KGBRUI5M3EM4F5E4XBHG", "current_trial": 200, "dateTime": 1512580050628, "trialdata": {"rt": -1000, "stimulus": "/static/audio/wordpool/BRACES.wav", "key_press": -1, "type": "PRES_AUD", "word": "braces", "wordID": 163, "conditions": [24, 800, "a", 24000], "trial": 5, "serialpos": 15, "trial_type": "single-audio", "trial_index": 200, "time_elapsed": 914437, "internal_node_id": "0.0-146.0"}}, {"uniqueid": "MTK0647:33F859I567KGBRUI5M3EM4F5E4XBHG", "current_trial": 201, "dateTime": 1512580052417, "trialdata": {"rt": -1000, "stimulus": "/static/audio/wordpool/BISON.wav", "key_press": -1, "type": "PRES_AUD", "word": "bison", "wordID": 130, "conditions": [24, 800, "a", 24000], "trial": 5, "serialpos": 16, "trial_type": "single-audio", "trial_index": 201, "time_elapsed": 916226, "internal_node_id": "0.0-147.0"}}, {"uniqueid": "MTK0647:33F859I567KGBRUI5M3EM4F5E4XBHG", "current_trial": 202, "dateTime": 1512580054402, "trialdata": {"rt": -1000, "stimulus": "/static/audio/wordpool/FLUTE.wav", "key_press": -1, "type": "PRES_AUD", "word": "flute", "wordID": 584, "conditions": [24, 800, "a", 24000], "trial": 5, "serialpos": 17, "trial_type": "single-audio", "trial_index": 202, "time_elapsed": 918211, "internal_node_id": "0.0-148.0"}}, {"uniqueid": "MTK0647:33F859I567KGBRUI5M3EM4F5E4XBHG", "current_trial": 203, "dateTime": 1512580056050, "trialdata": {"rt": -1000, "stimulus": "/static/audio/wordpool/PIZZA.wav", "key_press": -1, "type": "PRES_AUD", "word": "pizza", "wordID": 1078, "conditions": [24, 800, "a", 24000], "trial": 5, "serialpos": 18, "trial_type": "single-audio", "trial_index": 203, "time_elapsed": 919859, "internal_node_id": "0.0-149.0"}}, {"uniqueid": "MTK0647:33F859I567KGBRUI5M3EM4F5E4XBHG", "current_trial": 204, "dateTime": 1512580057925, "trialdata": {"rt": -1000, "stimulus": "/static/audio/wordpool/PASTA.wav", "key_press": -1, "type": "PRES_AUD", "word": "pasta", "wordID": 1020, "conditions": [24, 800, "a", 24000], "trial": 5, "serialpos": 19, "trial_type": "single-audio", "trial_index": 204, "time_elapsed": 921734, "internal_node_id": "0.0-150.0"}}, {"uniqueid": "MTK0647:33F859I567KGBRUI5M3EM4F5E4XBHG", "current_trial": 205, "dateTime": 1512580059709, "trialdata": {"rt": -1000, "stimulus": "/static/audio/wordpool/POWDER.wav", "key_press": -1, "type": "PRES_AUD", "word": "powder", "wordID": 1116, "conditions": [24, 800, "a", 24000], "trial": 5, "serialpos": 20, "trial_type": "single-audio", "trial_index": 205, "time_elapsed": 923518, "internal_node_id": "0.0-151.0"}}, {"uniqueid": "MTK0647:33F859I567KGBRUI5M3EM4F5E4XBHG", "current_trial": 206, "dateTime": 1512580061446, "trialdata": {"rt": -1000, "stimulus": "/static/audio/wordpool/NOTEBOOK.wav", "key_press": -1, "type": "PRES_AUD", "word": "notebook", "wordID": 958, "conditions": [24, 800, "a", 24000], "trial": 5, "serialpos": 21, "trial_type": "single-audio", "trial_index": 206, "time_elapsed": 925255, "internal_node_id": "0.0-152.0"}}, {"uniqueid": "MTK0647:33F859I567KGBRUI5M3EM4F5E4XBHG", "current_trial": 207, "dateTime": 1512580063210, "trialdata": {"rt": -1000, "stimulus": "/static/audio/wordpool/PEPPER.wav", "key_press": -1, "type": "PRES_AUD", "word": "pepper", "wordID": 1046, "conditions": [24, 800, "a", 24000], "trial": 5, "serialpos": 22, "trial_type": "single-audio", "trial_index": 207, "time_elapsed": 927019, "internal_node_id": "0.0-153.0"}}, {"uniqueid": "MTK0647:33F859I567KGBRUI5M3EM4F5E4XBHG", "current_trial": 208, "dateTime": 1512580065033, "trialdata": {"rt": -1000, "stimulus": "/static/audio/wordpool/TEACHER.wav", "key_press": -1, "type": "PRES_AUD", "word": "teacher", "wordID": 1439, "conditions": [24, 800, "a", 24000], "trial": 5, "serialpos": 23, "trial_type": "single-audio", "trial_index": 208, "time_elapsed": 928842, "internal_node_id": "0.0-154.0"}}, {"uniqueid": "MTK0647:33F859I567KGBRUI5M3EM4F5E4XBHG", "current_trial": 209, "dateTime": 1512580066351, "trialdata": {"rt": -1, "stimulus": "", "key_press": -1, "type": "PRE_RECALL_DELAY", "trial_type": "single-stim", "trial_index": 209, "time_elapsed": 930160, "internal_node_id": "0.0-155.0-0.0"}}, {"uniqueid": "MTK0647:33F859I567KGBRUI5M3EM4F5E4XBHG", "current_trial": 210, "dateTime": 1512580066852, "trialdata": {"rt": -1000, "stimulus": "/static/audio/400Hz.wav", "key_press": -1, "type": "PRE_RECALL_ALERT", "trial_type": "single-audio", "trial_index": 210, "time_elapsed": 930661, "internal_node_id": "0.0-156.0"}}, {"uniqueid": "MTK0647:33F859I567KGBRUI5M3EM4F5E4XBHG", "current_trial": 211, "dateTime": 1512580126865, "trialdata": {"rt": [3045, 4676, 7576, 10024, 14440, 16608, 17768, 19520, 22279, 25768, 33672, 35728, 38751, 40079, 44312, 46032, 47296, 51056, 52831], "recwords": ["fox", "zipper", "softball", "tourist", "chaufer", "beast", "monster", "robin", "sunset", "washer", "hamper", "braces", "bison", "flute", "pastor", "pasta", "pizza", "notebook", "teacher"], "type": "FREE_RECALL", "conditions": [24, 800, "a", 24000], "trial": 5, "trial_type": "free-recall", "trial_index": 211, "time_elapsed": 990670, "internal_node_id": "0.0-157.0-0.0"}}, {"uniqueid": "MTK0647:33F859I567KGBRUI5M3EM4F5E4XBHG", "current_trial": 212, "dateTime": 1512580207004, "trialdata": {"rt": 78137, "key_press": 70, "type": "INSTRUCTIONS", "trial_type": "text", "trial_index": 212, "time_elapsed": 1070812, "internal_node_id": "0.0-158.0"}}, {"uniqueid": "MTK0647:33F859I567KGBRUI5M3EM4F5E4XBHG", "current_trial": 213, "dateTime": 1512580221008, "trialdata": {"rt": [2269, 3533, 5581, 7181, 8733, 9917], "responses": ["18", "7", "14", "9", "14", "1"], "num1": [5, 5, 3, 1, 2, 4, 8], "num2": [7, 1, 3, 1, 7, 1, 3], "num3": [6, 1, 5, 7, 5, 8, 7], "type": "DISTRACTOR", "conditions": [12, 800, "a", 12000], "trial": 6, "trial_type": "math-distractor", "trial_index": 213, "time_elapsed": 1084816, "internal_node_id": "0.0-159.0"}}, {"uniqueid": "MTK0647:33F859I567KGBRUI5M3EM4F5E4XBHG", "current_trial": 214, "dateTime": 1512580224009, "trialdata": {"rt": -1, "stimulus": "<p id=\"stim\">10</p>", "key_press": -1, "trial_type": "single-stim", "trial_index": 214, "time_elapsed": 1087818, "internal_node_id": "0.0-160.0-0.0"}}, {"uniqueid": "MTK0647:33F859I567KGBRUI5M3EM4F5E4XBHG", "current_trial": 215, "dateTime": 1512580225010, "trialdata": {"rt": -1, "stimulus": "<p id=\"stim\">9</p>", "key_press": -1, "trial_type": "single-stim", "trial_index": 215, "time_elapsed": 1088819, "internal_node_id": "0.0-160.0-1.0"}}, {"uniqueid": "MTK0647:33F859I567KGBRUI5M3EM4F5E4XBHG", "current_trial": 216, "dateTime": 1512580226011, "trialdata": {"rt": -1, "stimulus": "<p id=\"stim\">8</p>", "key_press": -1, "trial_type": "single-stim", "trial_index": 216, "time_elapsed": 1089820, "internal_node_id": "0.0-160.0-2.0"}}, {"uniqueid": "MTK0647:33F859I567KGBRUI5M3EM4F5E4XBHG", "current_trial": 217, "dateTime": 1512580227012, "trialdata": {"rt": -1, "stimulus": "<p id=\"stim\">7</p>", "key_press": -1, "trial_type": "single-stim", "trial_index": 217, "time_elapsed": 1090821, "internal_node_id": "0.0-160.0-3.0"}}, {"uniqueid": "MTK0647:33F859I567KGBRUI5M3EM4F5E4XBHG", "current_trial": 218, "dateTime": 1512580228013, "trialdata": {"rt": -1, "stimulus": "<p id=\"stim\">6</p>", "key_press": -1, "trial_type": "single-stim", "trial_index": 218, "time_elapsed": 1091822, "internal_node_id": "0.0-160.0-4.0"}}, {"uniqueid": "MTK0647:33F859I567KGBRUI5M3EM4F5E4XBHG", "current_trial": 219, "dateTime": 1512580229014, "trialdata": {"rt": -1, "stimulus": "<p id=\"stim\">5</p>", "key_press": -1, "trial_type": "single-stim", "trial_index": 219, "time_elapsed": 1092823, "internal_node_id": "0.0-160.0-5.0"}}, {"uniqueid": "MTK0647:33F859I567KGBRUI5M3EM4F5E4XBHG", "current_trial": 220, "dateTime": 1512580230015, "trialdata": {"rt": -1, "stimulus": "<p id=\"stim\">4</p>", "key_press": -1, "trial_type": "single-stim", "trial_index": 220, "time_elapsed": 1093824, "internal_node_id": "0.0-160.0-6.0"}}, {"uniqueid": "MTK0647:33F859I567KGBRUI5M3EM4F5E4XBHG", "current_trial": 221, "dateTime": 1512580231017, "trialdata": {"rt": -1, "stimulus": "<p id=\"stim\">3</p>", "key_press": -1, "trial_type": "single-stim", "trial_index": 221, "time_elapsed": 1094826, "internal_node_id": "0.0-160.0-7.0"}}, {"uniqueid": "MTK0647:33F859I567KGBRUI5M3EM4F5E4XBHG", "current_trial": 222, "dateTime": 1512580232018, "trialdata": {"rt": -1, "stimulus": "<p id=\"stim\">2</p>", "key_press": -1, "trial_type": "single-stim", "trial_index": 222, "time_elapsed": 1095827, "internal_node_id": "0.0-160.0-8.0"}}, {"uniqueid": "MTK0647:33F859I567KGBRUI5M3EM4F5E4XBHG", "current_trial": 223, "dateTime": 1512580233019, "trialdata": {"rt": -1, "stimulus": "<p id=\"stim\">1</p>", "key_press": -1, "trial_type": "single-stim", "trial_index": 223, "time_elapsed": 1096828, "internal_node_id": "0.0-160.0-9.0"}}, {"uniqueid": "MTK0647:33F859I567KGBRUI5M3EM4F5E4XBHG", "current_trial": 224, "dateTime": 1512580234520, "trialdata": {"rt": -1, "stimulus": "<p id=\"stim\">+</p>", "key_press": -1, "type": "FIXATION", "trial_type": "single-stim", "trial_index": 224, "time_elapsed": 1098329, "internal_node_id": "0.0-161.0-0.0"}}, {"uniqueid": "MTK0647:33F859I567KGBRUI5M3EM4F5E4XBHG", "current_trial": 225, "dateTime": 1512580236129, "trialdata": {"rt": -1000, "stimulus": "/static/audio/wordpool/MISSILE.wav", "key_press": -1, "type": "PRES_AUD", "word": "missile", "wordID": 899, "conditions": [12, 800, "a", 12000], "trial": 6, "serialpos": 0, "trial_type": "single-audio", "trial_index": 225, "time_elapsed": 1099938, "internal_node_id": "0.0-162.0"}}, {"uniqueid": "MTK0647:33F859I567KGBRUI5M3EM4F5E4XBHG", "current_trial": 226, "dateTime": 1512580237903, "trialdata": {"rt": -1000, "stimulus": "/static/audio/wordpool/BEAVER.wav", "key_press": -1, "type": "PRES_AUD", "word": "beaver", "wordID": 108, "conditions": [12, 800, "a", 12000], "trial": 6, "serialpos": 1, "trial_type": "single-audio", "trial_index": 226, "time_elapsed": 1101712, "internal_node_id": "0.0-163.0"}}, {"uniqueid": "MTK0647:33F859I567KGBRUI5M3EM4F5E4XBHG", "current_trial": 227, "dateTime": 1512580239674, "trialdata": {"rt": -1000, "stimulus": "/static/audio/wordpool/RABBIT.wav", "key_press": -1, "type": "PRES_AUD", "word": "rabbit", "wordID": 1151, "conditions": [12, 800, "a", 12000], "trial": 6, "serialpos": 2, "trial_type": "single-audio", "trial_index": 227, "time_elapsed": 1103483, "internal_node_id": "0.0-164.0"}}, {"uniqueid": "MTK0647:33F859I567KGBRUI5M3EM4F5E4XBHG", "current_trial": 228, "dateTime": 1512580241381, "trialdata": {"rt": -1000, "stimulus": "/static/audio/wordpool/LEOPARD.wav", "key_press": -1, "type": "PRES_AUD", "word": "leopard", "wordID": 811, "conditions": [12, 800, "a", 12000], "trial": 6, "serialpos": 3, "trial_type": "single-audio", "trial_index": 228, "time_elapsed": 1105190, "internal_node_id": "0.0-165.0"}}, {"uniqueid": "MTK0647:33F859I567KGBRUI5M3EM4F5E4XBHG", "current_trial": 229, "dateTime": 1512580243035, "trialdata": {"rt": -1000, "stimulus": "/static/audio/wordpool/SWORD.wav", "key_press": -1, "type": "PRES_AUD", "word": "sword", "wordID": 1422, "conditions": [12, 800, "a", 12000], "trial": 6, "serialpos": 4, "trial_type": "single-audio", "trial_index": 229, "time_elapsed": 1106844, "internal_node_id": "0.0-166.0"}}, {"uniqueid": "MTK0647:33F859I567KGBRUI5M3EM4F5E4XBHG", "current_trial": 230, "dateTime": 1512580244724, "trialdata": {"rt": -1000, "stimulus": "/static/audio/wordpool/GARDEN.wav", "key_press": -1, "type": "PRES_AUD", "word": "garden", "wordID": 622, "conditions": [12, 800, "a", 12000], "trial": 6, "serialpos": 5, "trial_type": "single-audio", "trial_index": 230, "time_elapsed": 1108533, "internal_node_id": "0.0-167.0"}}, {"uniqueid": "MTK0647:33F859I567KGBRUI5M3EM4F5E4XBHG", "current_trial": 231, "dateTime": 1512580246555, "trialdata": {"rt": -1000, "stimulus": "/static/audio/wordpool/MILK.wav", "key_press": -1, "type": "PRES_AUD", "word": "milk", "wordID": 894, "conditions": [12, 800, "a", 12000], "trial": 6, "serialpos": 6, "trial_type": "single-audio", "trial_index": 231, "time_elapsed": 1110364, "internal_node_id": "0.0-168.0"}}, {"uniqueid": "MTK0647:33F859I567KGBRUI5M3EM4F5E4XBHG", "current_trial": 232, "dateTime": 1512580248445, "trialdata": {"rt": -1000, "stimulus": "/static/audio/wordpool/CAMEL.wav", "key_press": -1, "type": "PRES_AUD", "word": "camel", "wordID": 222, "conditions": [12, 800, "a", 12000], "trial": 6, "serialpos": 7, "trial_type": "single-audio", "trial_index": 232, "time_elapsed": 1112254, "internal_node_id": "0.0-169.0"}}, {"uniqueid": "MTK0647:33F859I567KGBRUI5M3EM4F5E4XBHG", "current_trial": 233, "dateTime": 1512580250406, "trialdata": {"rt": -1000, "stimulus": "/static/audio/wordpool/SCISSORS.wav", "key_press": -1, "type": "PRES_AUD", "word": "scissors", "wordID": 1249, "conditions": [12, 800, "a", 12000], "trial": 6, "serialpos": 8, "trial_type": "single-audio", "trial_index": 233, "time_elapsed": 1114215, "internal_node_id": "0.0-170.0"}}, {"uniqueid": "MTK0647:33F859I567KGBRUI5M3EM4F5E4XBHG", "current_trial": 234, "dateTime": 1512580252291, "trialdata": {"rt": -1000, "stimulus": "/static/audio/wordpool/RAZOR.wav", "key_press": -1, "type": "PRES_AUD", "word": "razor", "wordID": 1170, "conditions": [12, 800, "a", 12000], "trial": 6, "serialpos": 9, "trial_type": "single-audio", "trial_index": 234, "time_elapsed": 1116100, "internal_node_id": "0.0-171.0"}}, {"uniqueid": "MTK0647:33F859I567KGBRUI5M3EM4F5E4XBHG", "current_trial": 235, "dateTime": 1512580254077, "trialdata": {"rt": -1000, "stimulus": "/static/audio/wordpool/FEMALE.wav", "key_press": -1, "type": "PRES_AUD", "word": "female", "wordID": 558, "conditions": [12, 800, "a", 12000], "trial": 6, "serialpos": 10, "trial_type": "single-audio", "trial_index": 235, "time_elapsed": 1117886, "internal_node_id": "0.0-172.0"}}, {"uniqueid": "MTK0647:33F859I567KGBRUI5M3EM4F5E4XBHG", "current_trial": 236, "dateTime": 1512580255965, "trialdata": {"rt": -1000, "stimulus": "/static/audio/wordpool/FLOWER.wav", "key_press": -1, "type": "PRES_AUD", "word": "flower", "wordID": 583, "conditions": [12, 800, "a", 12000], "trial": 6, "serialpos": 11, "trial_type": "single-audio", "trial_index": 236, "time_elapsed": 1119774, "internal_node_id": "0.0-173.0"}}, {"uniqueid": "MTK0647:33F859I567KGBRUI5M3EM4F5E4XBHG", "current_trial": 237, "dateTime": 1512580257221, "trialdata": {"rt": -1, "stimulus": "", "key_press": -1, "type": "PRE_RECALL_DELAY", "trial_type": "single-stim", "trial_index": 237, "time_elapsed": 1121030, "internal_node_id": "0.0-174.0-0.0"}}, {"uniqueid": "MTK0647:33F859I567KGBRUI5M3EM4F5E4XBHG", "current_trial": 238, "dateTime": 1512580257722, "trialdata": {"rt": -1000, "stimulus": "/static/audio/400Hz.wav", "key_press": -1, "type": "PRE_RECALL_ALERT", "trial_type": "single-audio", "trial_index": 238, "time_elapsed": 1121531, "internal_node_id": "0.0-175.0"}}, {"uniqueid": "MTK0647:33F859I567KGBRUI5M3EM4F5E4XBHG", "current_trial": 239, "dateTime": 1512580317732, "trialdata": {"rt": [3600, 6240, 9513, 11690, 13345, 14409, 18336, 20744, 23736, 26553, 28001], "recwords": ["missle", "fever", "rabbit", "sword", "garden", "milk", "camel", "milk", "scissors", "female", "flower"], "type": "FREE_RECALL", "conditions": [12, 800, "a", 12000], "trial": 6, "trial_type": "free-recall", "trial_index": 239, "time_elapsed": 1181538, "internal_node_id": "0.0-176.0-0.0"}}, {"uniqueid": "MTK0647:33F859I567KGBRUI5M3EM4F5E4XBHG", "current_trial": 240, "dateTime": 1512580320896, "trialdata": {"rt": 1162, "key_press": 68, "type": "INSTRUCTIONS", "trial_type": "text", "trial_index": 240, "time_elapsed": 1184705, "internal_node_id": "0.0-177.0"}}, {"uniqueid": "MTK0647:33F859I567KGBRUI5M3EM4F5E4XBHG", "current_trial": 241, "dateTime": 1512580334898, "trialdata": {"rt": [2581, 4973, 8149, 10869], "responses": ["16", "13", "23", "9"], "num1": [7, 4, 7, 2, 1], "num2": [5, 7, 8, 5, 1], "num3": [4, 1, 8, 2, 3], "type": "DISTRACTOR", "conditions": [12, 800, "v", 12000], "trial": 7, "trial_type": "math-distractor", "trial_index": 241, "time_elapsed": 1198707, "internal_node_id": "0.0-178.0"}}, {"uniqueid": "MTK0647:33F859I567KGBRUI5M3EM4F5E4XBHG", "current_trial": 242, "dateTime": 1512580337901, "trialdata": {"rt": -1, "stimulus": "<p id=\"stim\">10</p>", "key_press": -1, "trial_type": "single-stim", "trial_index": 242, "time_elapsed": 1201710, "internal_node_id": "0.0-179.0-0.0"}}, {"uniqueid": "MTK0647:33F859I567KGBRUI5M3EM4F5E4XBHG", "current_trial": 243, "dateTime": 1512580338902, "trialdata": {"rt": -1, "stimulus": "<p id=\"stim\">9</p>", "key_press": -1, "trial_type": "single-stim", "trial_index": 243, "time_elapsed": 1202711, "internal_node_id": "0.0-179.0-1.0"}}, {"uniqueid": "MTK0647:33F859I567KGBRUI5M3EM4F5E4XBHG", "current_trial": 244, "dateTime": 1512580339903, "trialdata": {"rt": -1, "stimulus": "<p id=\"stim\">8</p>", "key_press": -1, "trial_type": "single-stim", "trial_index": 244, "time_elapsed": 1203712, "internal_node_id": "0.0-179.0-2.0"}}, {"uniqueid": "MTK0647:33F859I567KGBRUI5M3EM4F5E4XBHG", "current_trial": 245, "dateTime": 1512580340905, "trialdata": {"rt": -1, "stimulus": "<p id=\"stim\">7</p>", "key_press": -1, "trial_type": "single-stim", "trial_index": 245, "time_elapsed": 1204713, "internal_node_id": "0.0-179.0-3.0"}}, {"uniqueid": "MTK0647:33F859I567KGBRUI5M3EM4F5E4XBHG", "current_trial": 246, "dateTime": 1512580341906, "trialdata": {"rt": -1, "stimulus": "<p id=\"stim\">6</p>", "key_press": -1, "trial_type": "single-stim", "trial_index": 246, "time_elapsed": 1205715, "internal_node_id": "0.0-179.0-4.0"}}, {"uniqueid": "MTK0647:33F859I567KGBRUI5M3EM4F5E4XBHG", "current_trial": 247, "dateTime": 1512580342907, "trialdata": {"rt": -1, "stimulus": "<p id=\"stim\">5</p>", "key_press": -1, "trial_type": "single-stim", "trial_index": 247, "time_elapsed": 1206716, "internal_node_id": "0.0-179.0-5.0"}}, {"uniqueid": "MTK0647:33F859I567KGBRUI5M3EM4F5E4XBHG", "current_trial": 248, "dateTime": 1512580343908, "trialdata": {"rt": -1, "stimulus": "<p id=\"stim\">4</p>", "key_press": -1, "trial_type": "single-stim", "trial_index": 248, "time_elapsed": 1207717, "internal_node_id": "0.0-179.0-6.0"}}, {"uniqueid": "MTK0647:33F859I567KGBRUI5M3EM4F5E4XBHG", "current_trial": 249, "dateTime": 1512580344909, "trialdata": {"rt": -1, "stimulus": "<p id=\"stim\">3</p>", "key_press": -1, "trial_type": "single-stim", "trial_index": 249, "time_elapsed": 1208718, "internal_node_id": "0.0-179.0-7.0"}}, {"uniqueid": "MTK0647:33F859I567KGBRUI5M3EM4F5E4XBHG", "current_trial": 250, "dateTime": 1512580345910, "trialdata": {"rt": -1, "stimulus": "<p id=\"stim\">2</p>", "key_press": -1, "trial_type": "single-stim", "trial_index": 250, "time_elapsed": 1209719, "internal_node_id": "0.0-179.0-8.0"}}, {"uniqueid": "MTK0647:33F859I567KGBRUI5M3EM4F5E4XBHG", "current_trial": 251, "dateTime": 1512580346911, "trialdata": {"rt": -1, "stimulus": "<p id=\"stim\">1</p>", "key_press": -1, "trial_type": "single-stim", "trial_index": 251, "time_elapsed": 1210720, "internal_node_id": "0.0-179.0-9.0"}}, {"uniqueid": "MTK0647:33F859I567KGBRUI5M3EM4F5E4XBHG", "current_trial": 252, "dateTime": 1512580348412, "trialdata": {"rt": -1, "stimulus": "<p id=\"stim\">+</p>", "key_press": -1, "type": "FIXATION", "trial_type": "single-stim", "trial_index": 252, "time_elapsed": 1212221, "internal_node_id": "0.0-180.0-0.0"}}, {"uniqueid": "MTK0647:33F859I567KGBRUI5M3EM4F5E4XBHG", "current_trial": 253, "dateTime": 1512580349213, "trialdata": {"rt": -1, "stimulus": "<p id=\"stim\">MAILBOX</p>", "key_press": -1, "type": "PRES_VIS", "word": "mailbox", "wordID": 856, "conditions": [12, 800, "v", 12000], "trial": 7, "serialpos": 0, "trial_type": "single-stim", "trial_index": 253, "time_elapsed": 1213022, "internal_node_id": "0.0-181.0"}}, {"uniqueid": "MTK0647:33F859I567KGBRUI5M3EM4F5E4XBHG", "current_trial": 254, "dateTime": 1512580350829, "trialdata": {"rt": -1, "stimulus": "<p id=\"stim\">HATCHET</p>", "key_press": -1, "type": "PRES_VIS", "word": "hatchet", "wordID": 690, "conditions": [12, 800, "v", 12000], "trial": 7, "serialpos": 1, "trial_type": "single-stim", "trial_index": 254, "time_elapsed": 1214638, "internal_node_id": "0.0-182.0"}}, {"uniqueid": "MTK0647:33F859I567KGBRUI5M3EM4F5E4XBHG", "current_trial": 255, "dateTime": 1512580352562, "trialdata": {"rt": -1, "stimulus": "<p id=\"stim\">STUDENT</p>", "key_press": -1, "type": "PRES_VIS", "word": "student", "wordID": 1394, "conditions": [12, 800, "v", 12000], "trial": 7, "serialpos": 2, "trial_type": "single-stim", "trial_index": 255, "time_elapsed": 1216371, "internal_node_id": "0.0-183.0"}}, {"uniqueid": "MTK0647:33F859I567KGBRUI5M3EM4F5E4XBHG", "current_trial": 256, "dateTime": 1512580354422, "trialdata": {"rt": -1, "stimulus": "<p id=\"stim\">GAVEL</p>", "key_press": -1, "type": "PRES_VIS", "word": "gavel", "wordID": 626, "conditions": [12, 800, "v", 12000], "trial": 7, "serialpos": 3, "trial_type": "single-stim", "trial_index": 256, "time_elapsed": 1218231, "internal_node_id": "0.0-184.0"}}, {"uniqueid": "MTK0647:33F859I567KGBRUI5M3EM4F5E4XBHG", "current_trial": 257, "dateTime": 1512580356259, "trialdata": {"rt": -1, "stimulus": "<p id=\"stim\">TOMBSTONE</p>", "key_press": -1, "type": "PRES_VIS", "word": "tombstone", "wordID": 1477, "conditions": [12, 800, "v", 12000], "trial": 7, "serialpos": 4, "trial_type": "single-stim", "trial_index": 257, "time_elapsed": 1220068, "internal_node_id": "0.0-185.0"}}, {"uniqueid": "MTK0647:33F859I567KGBRUI5M3EM4F5E4XBHG", "current_trial": 258, "dateTime": 1512580357982, "trialdata": {"rt": -1, "stimulus": "<p id=\"stim\">TERMITE</p>", "key_press": -1, "type": "PRES_VIS", "word": "termite", "wordID": 1450, "conditions": [12, 800, "v", 12000], "trial": 7, "serialpos": 5, "trial_type": "single-stim", "trial_index": 258, "time_elapsed": 1221791, "internal_node_id": "0.0-186.0"}}, {"uniqueid": "MTK0647:33F859I567KGBRUI5M3EM4F5E4XBHG", "current_trial": 259, "dateTime": 1512580359882, "trialdata": {"rt": -1, "stimulus": "<p id=\"stim\">WASP</p>", "key_press": -1, "type": "PRES_VIS", "word": "wasp", "wordID": 1592, "conditions": [12, 800, "v", 12000], "trial": 7, "serialpos": 6, "trial_type": "single-stim", "trial_index": 259, "time_elapsed": 1223691, "internal_node_id": "0.0-187.0"}}, {"uniqueid": "MTK0647:33F859I567KGBRUI5M3EM4F5E4XBHG", "current_trial": 260, "dateTime": 1512580361816, "trialdata": {"rt": -1, "stimulus": "<p id=\"stim\">OUTDOORS</p>", "key_press": -1, "type": "PRES_VIS", "word": "outdoors", "wordID": 986, "conditions": [12, 800, "v", 12000], "trial": 7, "serialpos": 7, "trial_type": "single-stim", "trial_index": 260, "time_elapsed": 1225625, "internal_node_id": "0.0-188.0"}}, {"uniqueid": "MTK0647:33F859I567KGBRUI5M3EM4F5E4XBHG", "current_trial": 261, "dateTime": 1512580363553, "trialdata": {"rt": -1, "stimulus": "<p id=\"stim\">MILDEW</p>", "key_press": -1, "type": "PRES_VIS", "word": "mildew", "wordID": 892, "conditions": [12, 800, "v", 12000], "trial": 7, "serialpos": 8, "trial_type": "single-stim", "trial_index": 261, "time_elapsed": 1227362, "internal_node_id": "0.0-189.0"}}, {"uniqueid": "MTK0647:33F859I567KGBRUI5M3EM4F5E4XBHG", "current_trial": 262, "dateTime": 1512580365407, "trialdata": {"rt": -1, "stimulus": "<p id=\"stim\">HORNET</p>", "key_press": -1, "type": "PRES_VIS", "word": "hornet", "wordID": 717, "conditions": [12, 800, "v", 12000], "trial": 7, "serialpos": 9, "trial_type": "single-stim", "trial_index": 262, "time_elapsed": 1229216, "internal_node_id": "0.0-190.0"}}, {"uniqueid": "MTK0647:33F859I567KGBRUI5M3EM4F5E4XBHG", "current_trial": 263, "dateTime": 1512580367091, "trialdata": {"rt": -1, "stimulus": "<p id=\"stim\">SNAIL</p>", "key_press": -1, "type": "PRES_VIS", "word": "snail", "wordID": 1331, "conditions": [12, 800, "v", 12000], "trial": 7, "serialpos": 10, "trial_type": "single-stim", "trial_index": 263, "time_elapsed": 1230900, "internal_node_id": "0.0-191.0"}}, {"uniqueid": "MTK0647:33F859I567KGBRUI5M3EM4F5E4XBHG", "current_trial": 264, "dateTime": 1512580369081, "trialdata": {"rt": -1, "stimulus": "<p id=\"stim\">TORTOISE</p>", "key_press": -1, "type": "PRES_VIS", "word": "tortoise", "wordID": 1485, "conditions": [12, 800, "v", 12000], "trial": 7, "serialpos": 11, "trial_type": "single-stim", "trial_index": 264, "time_elapsed": 1232890, "internal_node_id": "0.0-192.0"}}, {"uniqueid": "MTK0647:33F859I567KGBRUI5M3EM4F5E4XBHG", "current_trial": 265, "dateTime": 1512580371441, "trialdata": {"rt": -1, "stimulus": "", "key_press": -1, "type": "PRE_RECALL_DELAY", "trial_type": "single-stim", "trial_index": 265, "time_elapsed": 1235250, "internal_node_id": "0.0-193.0-0.0"}}, {"uniqueid": "MTK0647:33F859I567KGBRUI5M3EM4F5E4XBHG", "current_trial": 266, "dateTime": 1512580371942, "trialdata": {"rt": -1000, "stimulus": "/static/audio/400Hz.wav", "key_press": -1, "type": "PRE_RECALL_ALERT", "trial_type": "single-audio", "trial_index": 266, "time_elapsed": 1235751, "internal_node_id": "0.0-194.0"}}, {"uniqueid": "MTK0647:33F859I567KGBRUI5M3EM4F5E4XBHG", "current_trial": 267, "dateTime": 1512580431953, "trialdata": {"rt": [2098, 3834, 6554, 7714, 11058, 12625, 14409, 16882, 18858, 21938], "recwords": ["hornet", "mailbox", "hatchet", "gavel", "tombstone", "wasp", "outdoors", "snail", "mildew", "hornet"], "type": "FREE_RECALL", "conditions": [12, 800, "v", 12000], "trial": 7, "trial_type": "free-recall", "trial_index": 267, "time_elapsed": 1295756, "internal_node_id": "0.0-195.0-0.0"}}, {"uniqueid": "MTK0647:33F859I567KGBRUI5M3EM4F5E4XBHG", "current_trial": 268, "dateTime": 1512580435868, "trialdata": {"rt": 1910, "key_press": 67, "type": "INSTRUCTIONS", "trial_type": "text", "trial_index": 268, "time_elapsed": 1299677, "internal_node_id": "0.0-196.0"}}, {"uniqueid": "MTK0647:33F859I567KGBRUI5M3EM4F5E4XBHG", "current_trial": 269, "dateTime": 1512580461872, "trialdata": {"rt": [2758, 5310, 6662, 10181, 12085, 15189, 17725, 19429, 21038, 22614], "responses": ["9", "16", "13", "18", "11", "14", "13", "8", "13", "15"], "num1": [2, 2, 1, 6, 3, 8, 2, 2, 8, 8, 2], "num2": [5, 6, 8, 5, 3, 4, 3, 1, 2, 2, 3], "num3": [2, 6, 4, 7, 5, 2, 8, 5, 3, 5, 5], "type": "DISTRACTOR", "conditions": [24, 1600, "v", 24000], "trial": 8, "trial_type": "math-distractor", "trial_index": 269, "time_elapsed": 1325681, "internal_node_id": "0.0-197.0"}}, {"uniqueid": "MTK0647:33F859I567KGBRUI5M3EM4F5E4XBHG", "current_trial": 270, "dateTime": 1512580464874, "trialdata": {"rt": -1, "stimulus": "<p id=\"stim\">10</p>", "key_press": -1, "trial_type": "single-stim", "trial_index": 270, "time_elapsed": 1328683, "internal_node_id": "0.0-198.0-0.0"}}, {"uniqueid": "MTK0647:33F859I567KGBRUI5M3EM4F5E4XBHG", "current_trial": 271, "dateTime": 1512580465875, "trialdata": {"rt": -1, "stimulus": "<p id=\"stim\">9</p>", "key_press": -1, "trial_type": "single-stim", "trial_index": 271, "time_