{"condition": 0, "counterbalance": 549, "assignmentId": "39GAF6DQWS7KGU7A8ERTVTT5ZXJV1O", "workerId": "MTK0509", "hitId": "306W7JMRYY5LVWVVCG46K7QMW8PB83", "currenttrial": 626, "bonus": 0, "data": [{"uniqueid": "MTK0509:39GAF6DQWS7KGU7A8ERTVTT5ZXJV1O", "current_trial": 0, "dateTime": 1511192600176, "trialdata": {"rt": 457440, "key_press": 32, "type": "INSTRUCTIONS", "trial_type": "text", "trial_index": 0, "time_elapsed": 457442, "internal_node_id": "0.0-0.0"}}, {"uniqueid": "MTK0509:39GAF6DQWS7KGU7A8ERTVTT5ZXJV1O", "current_trial": 1, "dateTime": 1511193754061, "trialdata": {"rt": 1153883, "key_press": 32, "type": "INSTRUCTIONS", "trial_type": "text", "trial_index": 1, "time_elapsed": 1611328, "internal_node_id": "0.0-1.0"}}, {"uniqueid": "MTK0509:39GAF6DQWS7KGU7A8ERTVTT5ZXJV1O", "current_trial": 2, "dateTime": 1511193771038, "trialdata": {"rt": [16964], "responses": ["ocean"], "type": "AUDIO_TEST", "trial_type": "audio-test", "trial_index": 2, "time_elapsed": 1628305, "internal_node_id": "0.0-2.0"}}, {"uniqueid": "MTK0509:39GAF6DQWS7KGU7A8ERTVTT5ZXJV1O", "current_trial": 3, "dateTime": 1511193778965, "trialdata": {"rt": [7920], "responses": ["crystal"], "type": "AUDIO_TEST", "trial_type": "audio-test", "trial_index": 3, "time_elapsed": 1636232, "internal_node_id": "0.0-3.0"}}, {"uniqueid": "MTK0509:39GAF6DQWS7KGU7A8ERTVTT5ZXJV1O", "current_trial": 4, "dateTime": 1511193783317, "trialdata": {"rt": [4346], "responses": ["spice"], "type": "AUDIO_TEST", "trial_type": "audio-test", "trial_index": 4, "time_elapsed": 1640584, "internal_node_id": "0.0-4.0"}}, {"uniqueid": "MTK0509:39GAF6DQWS7KGU7A8ERTVTT5ZXJV1O", "current_trial": 5, "dateTime": 1511193806583, "trialdata": {"rt": 22507, "responses": "{\"Q0\":\"11\",\"Q1\":\"7\",\"Q2\":\"5\"}", "type": "SLEEP_SURVEY", "trial_type": "survey-text", "trial_index": 5, "time_elapsed": 1663850, "internal_node_id": "0.0-5.0"}}, {"uniqueid": "MTK0509:39GAF6DQWS7KGU7A8ERTVTT5ZXJV1O", "current_trial": 6, "dateTime": 1511193885740, "trialdata": {"rt": 78150, "key_press": 32, "type": "INSTRUCTIONS", "trial_type": "text", "trial_index": 6, "time_elapsed": 1743007, "internal_node_id": "0.0-6.0"}}, {"uniqueid": "MTK0509:39GAF6DQWS7KGU7A8ERTVTT5ZXJV1O", "current_trial": 7, "dateTime": 1511193907872, "trialdata": {"rt": 21627, "key_press": 32, "type": "INSTRUCTIONS", "trial_type": "text", "trial_index": 7, "time_elapsed": 1765139, "internal_node_id": "0.0-7.0"}}, {"uniqueid": "MTK0509:39GAF6DQWS7KGU7A8ERTVTT5ZXJV1O", "current_trial": 8, "dateTime": 1511194745573, "trialdata": {"rt": 837198, "key_press": 32, "type": "INSTRUCTIONS", "trial_type": "text", "trial_index": 8, "time_elapsed": 2602840, "internal_node_id": "0.0-8.0"}}, {"uniqueid": "MTK0509:39GAF6DQWS7KGU7A8ERTVTT5ZXJV1O", "current_trial": 9, "dateTime": 1511194764588, "trialdata": {"rt": [3925, 7325, 10845, 15375], "responses": ["21", "14", "15", "25"], "num1": [9, 3, 7, 9, 7], "num2": [3, 4, 4, 9, 4], "num3": [9, 7, 4, 7, 5], "type": "DISTRACTOR", "conditions": [18, 1200, "v", 18000], "trial": 0, "trial_type": "math-distractor", "trial_index": 9, "time_elapsed": 2621854, "internal_node_id": "0.0-9.0"}}, {"uniqueid": "MTK0509:39GAF6DQWS7KGU7A8ERTVTT5ZXJV1O", "current_trial": 10, "dateTime": 1511194767599, "trialdata": {"rt": -1, "stimulus": "<p id=\"stim\">10</p>", "key_press": -1, "trial_type": "single-stim", "trial_index": 10, "time_elapsed": 2624866, "internal_node_id": "0.0-10.0-0.0"}}, {"uniqueid": "MTK0509:39GAF6DQWS7KGU7A8ERTVTT5ZXJV1O", "current_trial": 11, "dateTime": 1511194768603, "trialdata": {"rt": -1, "stimulus": "<p id=\"stim\">9</p>", "key_press": -1, "trial_type": "single-stim", "trial_index": 11, "time_elapsed": 2625870, "internal_node_id": "0.0-10.0-1.0"}}, {"uniqueid": "MTK0509:39GAF6DQWS7KGU7A8ERTVTT5ZXJV1O", "current_trial": 12, "dateTime": 1511194769609, "trialdata": {"rt": -1, "stimulus": "<p id=\"stim\">8</p>", "key_press": -1, "trial_type": "single-stim", "trial_index": 12, "time_elapsed": 2626875, "internal_node_id": "0.0-10.0-2.0"}}, {"uniqueid": "MTK0509:39GAF6DQWS7KGU7A8ERTVTT5ZXJV1O", "current_trial": 13, "dateTime": 1511194770617, "trialdata": {"rt": -1, "stimulus": "<p id=\"stim\">7</p>", "key_press": -1, "trial_type": "single-stim", "trial_index": 13, "time_elapsed": 2627884, "internal_node_id": "0.0-10.0-3.0"}}, {"uniqueid": "MTK0509:39GAF6DQWS7KGU7A8ERTVTT5ZXJV1O", "current_trial": 14, "dateTime": 1511194771621, "trialdata": {"rt": -1, "stimulus": "<p id=\"stim\">6</p>", "key_press": -1, "trial_type": "single-stim", "trial_index": 14, "time_elapsed": 2628888, "internal_node_id": "0.0-10.0-4.0"}}, {"uniqueid": "MTK0509:39GAF6DQWS7KGU7A8ERTVTT5ZXJV1O", "current_trial": 15, "dateTime": 1511194772625, "trialdata": {"rt": -1, "stimulus": "<p id=\"stim\">5</p>", "key_press": -1, "trial_type": "single-stim", "trial_index": 15, "time_elapsed": 2629892, "internal_node_id": "0.0-10.0-5.0"}}, {"uniqueid": "MTK0509:39GAF6DQWS7KGU7A8ERTVTT5ZXJV1O", "current_trial": 16, "dateTime": 1511194773630, "trialdata": {"rt": -1, "stimulus": "<p id=\"stim\">4</p>", "key_press": -1, "trial_type": "single-stim", "trial_index": 16, "time_elapsed": 2630897, "internal_node_id": "0.0-10.0-6.0"}}, {"uniqueid": "MTK0509:39GAF6DQWS7KGU7A8ERTVTT5ZXJV1O", "current_trial": 17, "dateTime": 1511194774635, "trialdata": {"rt": -1, "stimulus": "<p id=\"stim\">3</p>", "key_press": -1, "trial_type": "single-stim", "trial_index": 17, "time_elapsed": 2631901, "internal_node_id": "0.0-10.0-7.0"}}, {"uniqueid": "MTK0509:39GAF6DQWS7KGU7A8ERTVTT5ZXJV1O", "current_trial": 18, "dateTime": 1511194775638, "trialdata": {"rt": -1, "stimulus": "<p id=\"stim\">2</p>", "key_press": -1, "trial_type": "single-stim", "trial_index": 18, "time_elapsed": 2632905, "internal_node_id": "0.0-10.0-8.0"}}, {"uniqueid": "MTK0509:39GAF6DQWS7KGU7A8ERTVTT5ZXJV1O", "current_trial": 19, "dateTime": 1511194776642, "trialdata": {"rt": -1, "stimulus": "<p id=\"stim\">1</p>", "key_press": -1, "trial_type": "single-stim", "trial_index": 19, "time_elapsed": 2633908, "internal_node_id": "0.0-10.0-9.0"}}, {"uniqueid": "MTK0509:39GAF6DQWS7KGU7A8ERTVTT5ZXJV1O", "current_trial": 20, "dateTime": 1511194778144, "trialdata": {"rt": -1, "stimulus": "<p id=\"stim\">+</p>", "key_press": -1, "type": "FIXATION", "trial_type": "single-stim", "trial_index": 20, "time_elapsed": 2635411, "internal_node_id": "0.0-11.0-0.0"}}, {"uniqueid": "MTK0509:39GAF6DQWS7KGU7A8ERTVTT5ZXJV1O", "current_trial": 21, "dateTime": 1511194779346, "trialdata": {"rt": -1, "stimulus": "<p id=\"stim\">BANJO</p>", "key_press": -1, "type": "PRES_VIS", "word": "banjo", "wordID": 81, "conditions": [18, 1200, "v", 18000], "trial": 0, "serialpos": 0, "trial_type": "single-stim", "trial_index": 21, "time_elapsed": 2636613, "internal_node_id": "0.0-12.0"}}, {"uniqueid": "MTK0509:39GAF6DQWS7KGU7A8ERTVTT5ZXJV1O", "current_trial": 22, "dateTime": 1511194781392, "trialdata": {"rt": -1, "stimulus": "<p id=\"stim\">DIME</p>", "key_press": -1, "type": "PRES_VIS", "word": "dime", "wordID": 465, "conditions": [18, 1200, "v", 18000], "trial": 0, "serialpos": 1, "trial_type": "single-stim", "trial_index": 22, "time_elapsed": 2638658, "internal_node_id": "0.0-13.0"}}, {"uniqueid": "MTK0509:39GAF6DQWS7KGU7A8ERTVTT5ZXJV1O", "current_trial": 23, "dateTime": 1511194783460, "trialdata": {"rt": -1, "stimulus": "<p id=\"stim\">CROWN</p>", "key_press": -1, "type": "PRES_VIS", "word": "crown", "wordID": 414, "conditions": [18, 1200, "v", 18000], "trial": 0, "serialpos": 2, "trial_type": "single-stim", "trial_index": 23, "time_elapsed": 2640727, "internal_node_id": "0.0-14.0"}}, {"uniqueid": "MTK0509:39GAF6DQWS7KGU7A8ERTVTT5ZXJV1O", "current_trial": 24, "dateTime": 1511194785600, "trialdata": {"rt": -1, "stimulus": "<p id=\"stim\">RIVER</p>", "key_press": -1, "type": "PRES_VIS", "word": "river", "wordID": 1193, "conditions": [18, 1200, "v", 18000], "trial": 0, "serialpos": 3, "trial_type": "single-stim", "trial_index": 24, "time_elapsed": 2642867, "internal_node_id": "0.0-15.0"}}, {"uniqueid": "MTK0509:39GAF6DQWS7KGU7A8ERTVTT5ZXJV1O", "current_trial": 25, "dateTime": 1511194787942, "trialdata": {"rt": -1, "stimulus": "<p id=\"stim\">ITEM</p>", "key_press": -1, "type": "PRES_VIS", "word": "item", "wordID": 745, "conditions": [18, 1200, "v", 18000], "trial": 0, "serialpos": 4, "trial_type": "single-stim", "trial_index": 25, "time_elapsed": 2645208, "internal_node_id": "0.0-16.0"}}, {"uniqueid": "MTK0509:39GAF6DQWS7KGU7A8ERTVTT5ZXJV1O", "current_trial": 26, "dateTime": 1511194790181, "trialdata": {"rt": -1, "stimulus": "<p id=\"stim\">TORTOISE</p>", "key_press": -1, "type": "PRES_VIS", "word": "tortoise", "wordID": 1485, "conditions": [18, 1200, "v", 18000], "trial": 0, "serialpos": 5, "trial_type": "single-stim", "trial_index": 26, "time_elapsed": 2647448, "internal_node_id": "0.0-17.0"}}, {"uniqueid": "MTK0509:39GAF6DQWS7KGU7A8ERTVTT5ZXJV1O", "current_trial": 27, "dateTime": 1511194792346, "trialdata": {"rt": -1, "stimulus": "<p id=\"stim\">PARTNER</p>", "key_press": -1, "type": "PRES_VIS", "word": "partner", "wordID": 1016, "conditions": [18, 1200, "v", 18000], "trial": 0, "serialpos": 6, "trial_type": "single-stim", "trial_index": 27, "time_elapsed": 2649613, "internal_node_id": "0.0-18.0"}}, {"uniqueid": "MTK0509:39GAF6DQWS7KGU7A8ERTVTT5ZXJV1O", "current_trial": 28, "dateTime": 1511194794749, "trialdata": {"rt": -1, "stimulus": "<p id=\"stim\">AIRPORT</p>", "key_press": -1, "type": "PRES_VIS", "word": "airport", "wordID": 12, "conditions": [18, 1200, "v", 18000], "trial": 0, "serialpos": 7, "trial_type": "single-stim", "trial_index": 28, "time_elapsed": 2652016, "internal_node_id": "0.0-19.0"}}, {"uniqueid": "MTK0509:39GAF6DQWS7KGU7A8ERTVTT5ZXJV1O", "current_trial": 29, "dateTime": 1511194796984, "trialdata": {"rt": -1, "stimulus": "<p id=\"stim\">FRUIT</p>", "key_press": -1, "type": "PRES_VIS", "word": "fruit", "wordID": 609, "conditions": [18, 1200, "v", 18000], "trial": 0, "serialpos": 8, "trial_type": "single-stim", "trial_index": 29, "time_elapsed": 2654250, "internal_node_id": "0.0-20.0"}}, {"uniqueid": "MTK0509:39GAF6DQWS7KGU7A8ERTVTT5ZXJV1O", "current_trial": 30, "dateTime": 1511194799009, "trialdata": {"rt": -1, "stimulus": "<p id=\"stim\">WASHER</p>", "key_press": -1, "type": "PRES_VIS", "word": "washer", "wordID": 1591, "conditions": [18, 1200, "v", 18000], "trial": 0, "serialpos": 9, "trial_type": "single-stim", "trial_index": 30, "time_elapsed": 2656276, "internal_node_id": "0.0-21.0"}}, {"uniqueid": "MTK0509:39GAF6DQWS7KGU7A8ERTVTT5ZXJV1O", "current_trial": 31, "dateTime": 1511194801197, "trialdata": {"rt": -1, "stimulus": "<p id=\"stim\">LAVA</p>", "key_press": -1, "type": "PRES_VIS", "word": "lava", "wordID": 803, "conditions": [18, 1200, "v", 18000], "trial": 0, "serialpos": 10, "trial_type": "single-stim", "trial_index": 31, "time_elapsed": 2658464, "internal_node_id": "0.0-22.0"}}, {"uniqueid": "MTK0509:39GAF6DQWS7KGU7A8ERTVTT5ZXJV1O", "current_trial": 32, "dateTime": 1511194803525, "trialdata": {"rt": -1, "stimulus": "<p id=\"stim\">RAFT</p>", "key_press": -1, "type": "PRES_VIS", "word": "raft", "wordID": 1158, "conditions": [18, 1200, "v", 18000], "trial": 0, "serialpos": 11, "trial_type": "single-stim", "trial_index": 32, "time_elapsed": 2660791, "internal_node_id": "0.0-23.0"}}, {"uniqueid": "MTK0509:39GAF6DQWS7KGU7A8ERTVTT5ZXJV1O", "current_trial": 33, "dateTime": 1511194805724, "trialdata": {"rt": -1, "stimulus": "<p id=\"stim\">SLUG</p>", "key_press": -1, "type": "PRES_VIS", "word": "slug", "wordID": 1328, "conditions": [18, 1200, "v", 18000], "trial": 0, "serialpos": 12, "trial_type": "single-stim", "trial_index": 33, "time_elapsed": 2662991, "internal_node_id": "0.0-24.0"}}, {"uniqueid": "MTK0509:39GAF6DQWS7KGU7A8ERTVTT5ZXJV1O", "current_trial": 34, "dateTime": 1511194807951, "trialdata": {"rt": -1, "stimulus": "<p id=\"stim\">TRUCK</p>", "key_press": -1, "type": "PRES_VIS", "word": "truck", "wordID": 1511, "conditions": [18, 1200, "v", 18000], "trial": 0, "serialpos": 13, "trial_type": "single-stim", "trial_index": 34, "time_elapsed": 2665217, "internal_node_id": "0.0-25.0"}}, {"uniqueid": "MTK0509:39GAF6DQWS7KGU7A8ERTVTT5ZXJV1O", "current_trial": 35, "dateTime": 1511194809996, "trialdata": {"rt": -1, "stimulus": "<p id=\"stim\">WRENCH</p>", "key_press": -1, "type": "PRES_VIS", "word": "wrench", "wordID": 1624, "conditions": [18, 1200, "v", 18000], "trial": 0, "serialpos": 14, "trial_type": "single-stim", "trial_index": 35, "time_elapsed": 2667263, "internal_node_id": "0.0-26.0"}}, {"uniqueid": "MTK0509:39GAF6DQWS7KGU7A8ERTVTT5ZXJV1O", "current_trial": 36, "dateTime": 1511194812085, "trialdata": {"rt": -1, "stimulus": "<p id=\"stim\">SURVEY</p>", "key_press": -1, "type": "PRES_VIS", "word": "survey", "wordID": 1413, "conditions": [18, 1200, "v", 18000], "trial": 0, "serialpos": 15, "trial_type": "single-stim", "trial_index": 36, "time_elapsed": 2669352, "internal_node_id": "0.0-27.0"}}, {"uniqueid": "MTK0509:39GAF6DQWS7KGU7A8ERTVTT5ZXJV1O", "current_trial": 37, "dateTime": 1511194814111, "trialdata": {"rt": -1, "stimulus": "<p id=\"stim\">SCALPEL</p>", "key_press": -1, "type": "PRES_VIS", "word": "scalpel", "wordID": 1242, "conditions": [18, 1200, "v", 18000], "trial": 0, "serialpos": 16, "trial_type": "single-stim", "trial_index": 37, "time_elapsed": 2671378, "internal_node_id": "0.0-28.0"}}, {"uniqueid": "MTK0509:39GAF6DQWS7KGU7A8ERTVTT5ZXJV1O", "current_trial": 38, "dateTime": 1511194816427, "trialdata": {"rt": -1, "stimulus": "<p id=\"stim\">SWAMP</p>", "key_press": -1, "type": "PRES_VIS", "word": "swamp", "wordID": 1415, "conditions": [18, 1200, "v", 18000], "trial": 0, "serialpos": 17, "trial_type": "single-stim", "trial_index": 38, "time_elapsed": 2673693, "internal_node_id": "0.0-29.0"}}, {"uniqueid": "MTK0509:39GAF6DQWS7KGU7A8ERTVTT5ZXJV1O", "current_trial": 39, "dateTime": 1511194818481, "trialdata": {"rt": -1, "stimulus": "", "key_press": -1, "type": "PRE_RECALL_DELAY", "trial_type": "single-stim", "trial_index": 39, "time_elapsed": 2675748, "internal_node_id": "0.0-30.0-0.0"}}, {"uniqueid": "MTK0509:39GAF6DQWS7KGU7A8ERTVTT5ZXJV1O", "current_trial": 40, "dateTime": 1511194818985, "trialdata": {"rt": -1000, "stimulus": "/static/audio/400Hz.wav", "key_press": -1, "type": "PRE_RECALL_ALERT", "trial_type": "single-audio", "trial_index": 40, "time_elapsed": 2676252, "internal_node_id": "0.0-31.0"}}, {"uniqueid": "MTK0509:39GAF6DQWS7KGU7A8ERTVTT5ZXJV1O", "current_trial": 41, "dateTime": 1511194878997, "trialdata": {"rt": [5357, 8301, 12085, 15333, 18149, 19941, 24581, 26365, 46288, 57879, 58999], "recwords": ["banjo", "dime", "river", "airport", "partner", "lava", "swamp", "survey", "", "river", "raft"], "type": "FREE_RECALL", "conditions": [18, 1200, "v", 18000], "trial": 0, "trial_type": "free-recall", "trial_index": 41, "time_elapsed": 2736261, "internal_node_id": "0.0-32.0-0.0"}}, {"uniqueid": "MTK0509:39GAF6DQWS7KGU7A8ERTVTT5ZXJV1O", "current_trial": 42, "dateTime": 1511194882692, "trialdata": {"rt": 1690, "key_press": 32, "type": "INSTRUCTIONS", "trial_type": "text", "trial_index": 42, "time_elapsed": 2739958, "internal_node_id": "0.0-33.0"}}, {"uniqueid": "MTK0509:39GAF6DQWS7KGU7A8ERTVTT5ZXJV1O", "current_trial": 43, "dateTime": 1511194902703, "trialdata": {"rt": [2962, 4794, 6826, 8930, 10738, 13529, 15633, 17417], "responses": ["16", "10", "17", "9", "20", "14", "14", "11"], "num1": [6, 6, 7, 3, 9, 3, 9, 1, 1], "num2": [1, 3, 3, 5, 2, 9, 2, 2, 2], "num3": [9, 1, 7, 1, 9, 2, 3, 8, 6], "type": "DISTRACTOR", "conditions": [18, 1200, "a", 18000], "trial": 1, "trial_type": "math-distractor", "trial_index": 43, "time_elapsed": 2759969, "internal_node_id": "0.0-34.0"}}, {"uniqueid": "MTK0509:39GAF6DQWS7KGU7A8ERTVTT5ZXJV1O", "current_trial": 44, "dateTime": 1511194905708, "trialdata": {"rt": -1, "stimulus": "<p id=\"stim\">10</p>", "key_press": -1, "trial_type": "single-stim", "trial_index": 44, "time_elapsed": 2762975, "internal_node_id": "0.0-35.0-0.0"}}, {"uniqueid": "MTK0509:39GAF6DQWS7KGU7A8ERTVTT5ZXJV1O", "current_trial": 45, "dateTime": 1511194906712, "trialdata": {"rt": -1, "stimulus": "<p id=\"stim\">9</p>", "key_press": -1, "trial_type": "single-stim", "trial_index": 45, "time_elapsed": 2763979, "internal_node_id": "0.0-35.0-1.0"}}, {"uniqueid": "MTK0509:39GAF6DQWS7KGU7A8ERTVTT5ZXJV1O", "current_trial": 46, "dateTime": 1511194907716, "trialdata": {"rt": -1, "stimulus": "<p id=\"stim\">8</p>", "key_press": -1, "trial_type": "single-stim", "trial_index": 46, "time_elapsed": 2764983, "internal_node_id": "0.0-35.0-2.0"}}, {"uniqueid": "MTK0509:39GAF6DQWS7KGU7A8ERTVTT5ZXJV1O", "current_trial": 47, "dateTime": 1511194908721, "trialdata": {"rt": -1, "stimulus": "<p id=\"stim\">7</p>", "key_press": -1, "trial_type": "single-stim", "trial_index": 47, "time_elapsed": 2765988, "internal_node_id": "0.0-35.0-3.0"}}, {"uniqueid": "MTK0509:39GAF6DQWS7KGU7A8ERTVTT5ZXJV1O", "current_trial": 48, "dateTime": 1511194909725, "trialdata": {"rt": -1, "stimulus": "<p id=\"stim\">6</p>", "key_press": -1, "trial_type": "single-stim", "trial_index": 48, "time_elapsed": 2766992, "internal_node_id": "0.0-35.0-4.0"}}, {"uniqueid": "MTK0509:39GAF6DQWS7KGU7A8ERTVTT5ZXJV1O", "current_trial": 49, "dateTime": 1511194910729, "trialdata": {"rt": -1, "stimulus": "<p id=\"stim\">5</p>", "key_press": -1, "trial_type": "single-stim", "trial_index": 49, "time_elapsed": 2767995, "internal_node_id": "0.0-35.0-5.0"}}, {"uniqueid": "MTK0509:39GAF6DQWS7KGU7A8ERTVTT5ZXJV1O", "current_trial": 50, "dateTime": 1511194911733, "trialdata": {"rt": -1, "stimulus": "<p id=\"stim\">4</p>", "key_press": -1, "trial_type": "single-stim", "trial_index": 50, "time_elapsed": 2769000, "internal_node_id": "0.0-35.0-6.0"}}, {"uniqueid": "MTK0509:39GAF6DQWS7KGU7A8ERTVTT5ZXJV1O", "current_trial": 51, "dateTime": 1511194912739, "trialdata": {"rt": -1, "stimulus": "<p id=\"stim\">3</p>", "key_press": -1, "trial_type": "single-stim", "trial_index": 51, "time_elapsed": 2770006, "internal_node_id": "0.0-35.0-7.0"}}, {"uniqueid": "MTK0509:39GAF6DQWS7KGU7A8ERTVTT5ZXJV1O", "current_trial": 52, "dateTime": 1511194913744, "trialdata": {"rt": -1, "stimulus": "<p id=\"stim\">2</p>", "key_press": -1, "trial_type": "single-stim", "trial_index": 52, "time_elapsed": 2771011, "internal_node_id": "0.0-35.0-8.0"}}, {"uniqueid": "MTK0509:39GAF6DQWS7KGU7A8ERTVTT5ZXJV1O", "current_trial": 53, "dateTime": 1511194914751, "trialdata": {"rt": -1, "stimulus": "<p id=\"stim\">1</p>", "key_press": -1, "trial_type": "single-stim", "trial_index": 53, "time_elapsed": 2772018, "internal_node_id": "0.0-35.0-9.0"}}, {"uniqueid": "MTK0509:39GAF6DQWS7KGU7A8ERTVTT5ZXJV1O", "current_trial": 54, "dateTime": 1511194916254, "trialdata": {"rt": -1, "stimulus": "<p id=\"stim\">+</p>", "key_press": -1, "type": "FIXATION", "trial_type": "single-stim", "trial_index": 54, "time_elapsed": 2773521, "internal_node_id": "0.0-36.0-0.0"}}, {"uniqueid": "MTK0509:39GAF6DQWS7KGU7A8ERTVTT5ZXJV1O", "current_trial": 55, "dateTime": 1511194918434, "trialdata": {"rt": -1000, "stimulus": "/static/audio/wordpool/ROOSTER.wav", "key_press": -1, "type": "PRES_AUD", "word": "rooster", "wordID": 1208, "conditions": [18, 1200, "a", 18000], "trial": 1, "serialpos": 0, "trial_type": "single-audio", "trial_index": 55, "time_elapsed": 2775698, "internal_node_id": "0.0-37.0"}}, {"uniqueid": "MTK0509:39GAF6DQWS7KGU7A8ERTVTT5ZXJV1O", "current_trial": 56, "dateTime": 1511194920607, "trialdata": {"rt": -1000, "stimulus": "/static/audio/wordpool/LEG.wav", "key_press": -1, "type": "PRES_AUD", "word": "leg", "wordID": 808, "conditions": [18, 1200, "a", 18000], "trial": 1, "serialpos": 1, "trial_type": "single-audio", "trial_index": 56, "time_elapsed": 2777874, "internal_node_id": "0.0-38.0"}}, {"uniqueid": "MTK0509:39GAF6DQWS7KGU7A8ERTVTT5ZXJV1O", "current_trial": 57, "dateTime": 1511194922982, "trialdata": {"rt": -1000, "stimulus": "/static/audio/wordpool/LONDON.wav", "key_press": -1, "type": "PRES_AUD", "word": "london", "wordID": 842, "conditions": [18, 1200, "a", 18000], "trial": 1, "serialpos": 2, "trial_type": "single-audio", "trial_index": 57, "time_elapsed": 2780249, "internal_node_id": "0.0-39.0"}}, {"uniqueid": "MTK0509:39GAF6DQWS7KGU7A8ERTVTT5ZXJV1O", "current_trial": 58, "dateTime": 1511194925020, "trialdata": {"rt": -1000, "stimulus": "/static/audio/wordpool/FOX.wav", "key_press": -1, "type": "PRES_AUD", "word": "fox", "wordID": 597, "conditions": [18, 1200, "a", 18000], "trial": 1, "serialpos": 3, "trial_type": "single-audio", "trial_index": 58, "time_elapsed": 2782287, "internal_node_id": "0.0-40.0"}}, {"uniqueid": "MTK0509:39GAF6DQWS7KGU7A8ERTVTT5ZXJV1O", "current_trial": 59, "dateTime": 1511194927162, "trialdata": {"rt": -1000, "stimulus": "/static/audio/wordpool/FLEET.wav", "key_press": -1, "type": "PRES_AUD", "word": "fleet", "wordID": 577, "conditions": [18, 1200, "a", 18000], "trial": 1, "serialpos": 4, "trial_type": "single-audio", "trial_index": 59, "time_elapsed": 2784429, "internal_node_id": "0.0-41.0"}}, {"uniqueid": "MTK0509:39GAF6DQWS7KGU7A8ERTVTT5ZXJV1O", "current_trial": 60, "dateTime": 1511194929233, "trialdata": {"rt": -1000, "stimulus": "/static/audio/wordpool/XEROX.wav", "key_press": -1, "type": "PRES_AUD", "word": "xerox", "wordID": 1627, "conditions": [18, 1200, "a", 18000], "trial": 1, "serialpos": 5, "trial_type": "single-audio", "trial_index": 60, "time_elapsed": 2786500, "internal_node_id": "0.0-42.0"}}, {"uniqueid": "MTK0509:39GAF6DQWS7KGU7A8ERTVTT5ZXJV1O", "current_trial": 61, "dateTime": 1511194931521, "trialdata": {"rt": -1000, "stimulus": "/static/audio/wordpool/SPHINX.wav", "key_press": -1, "type": "PRES_AUD", "word": "sphinx", "wordID": 1348, "conditions": [18, 1200, "a", 18000], "trial": 1, "serialpos": 6, "trial_type": "single-audio", "trial_index": 61, "time_elapsed": 2788788, "internal_node_id": "0.0-43.0"}}, {"uniqueid": "MTK0509:39GAF6DQWS7KGU7A8ERTVTT5ZXJV1O", "current_trial": 62, "dateTime": 1511194933872, "trialdata": {"rt": -1000, "stimulus": "/static/audio/wordpool/PRINCESS.wav", "key_press": -1, "type": "PRES_AUD", "word": "princess", "wordID": 1124, "conditions": [18, 1200, "a", 18000], "trial": 1, "serialpos": 7, "trial_type": "single-audio", "trial_index": 62, "time_elapsed": 2791139, "internal_node_id": "0.0-44.0"}}, {"uniqueid": "MTK0509:39GAF6DQWS7KGU7A8ERTVTT5ZXJV1O", "current_trial": 63, "dateTime": 1511194935988, "trialdata": {"rt": -1000, "stimulus": "/static/audio/wordpool/SPOOL.wav", "key_press": -1, "type": "PRES_AUD", "word": "spool", "wordID": 1355, "conditions": [18, 1200, "a", 18000], "trial": 1, "serialpos": 8, "trial_type": "single-audio", "trial_index": 63, "time_elapsed": 2793255, "internal_node_id": "0.0-45.0"}}, {"uniqueid": "MTK0509:39GAF6DQWS7KGU7A8ERTVTT5ZXJV1O", "current_trial": 64, "dateTime": 1511194938063, "trialdata": {"rt": -1000, "stimulus": "/static/audio/wordpool/RECEIPT.wav", "key_press": -1, "type": "PRES_AUD", "word": "receipt", "wordID": 1172, "conditions": [18, 1200, "a", 18000], "trial": 1, "serialpos": 9, "trial_type": "single-audio", "trial_index": 64, "time_elapsed": 2795330, "internal_node_id": "0.0-46.0"}}, {"uniqueid": "MTK0509:39GAF6DQWS7KGU7A8ERTVTT5ZXJV1O", "current_trial": 65, "dateTime": 1511194940244, "trialdata": {"rt": -1000, "stimulus": "/static/audio/wordpool/PARROT.wav", "key_press": -1, "type": "PRES_AUD", "word": "parrot", "wordID": 1014, "conditions": [18, 1200, "a", 18000], "trial": 1, "serialpos": 10, "trial_type": "single-audio", "trial_index": 65, "time_elapsed": 2797511, "internal_node_id": "0.0-47.0"}}, {"uniqueid": "MTK0509:39GAF6DQWS7KGU7A8ERTVTT5ZXJV1O", "current_trial": 66, "dateTime": 1511194942632, "trialdata": {"rt": -1000, "stimulus": "/static/audio/wordpool/RIFLE.wav", "key_press": -1, "type": "PRES_AUD", "word": "rifle", "wordID": 1191, "conditions": [18, 1200, "a", 18000], "trial": 1, "serialpos": 11, "trial_type": "single-audio", "trial_index": 66, "time_elapsed": 2799899, "internal_node_id": "0.0-48.0"}}, {"uniqueid": "MTK0509:39GAF6DQWS7KGU7A8ERTVTT5ZXJV1O", "current_trial": 67, "dateTime": 1511194944820, "trialdata": {"rt": -1000, "stimulus": "/static/audio/wordpool/STATUE.wav", "key_press": -1, "type": "PRES_AUD", "word": "statue", "wordID": 1373, "conditions": [18, 1200, "a", 18000], "trial": 1, "serialpos": 12, "trial_type": "single-audio", "trial_index": 67, "time_elapsed": 2802087, "internal_node_id": "0.0-49.0"}}, {"uniqueid": "MTK0509:39GAF6DQWS7KGU7A8ERTVTT5ZXJV1O", "current_trial": 68, "dateTime": 1511194947131, "trialdata": {"rt": -1000, "stimulus": "/static/audio/wordpool/LIPSTICK.wav", "key_press": -1, "type": "PRES_AUD", "word": "lipstick", "wordID": 828, "conditions": [18, 1200, "a", 18000], "trial": 1, "serialpos": 13, "trial_type": "single-audio", "trial_index": 68, "time_elapsed": 2804398, "internal_node_id": "0.0-50.0"}}, {"uniqueid": "MTK0509:39GAF6DQWS7KGU7A8ERTVTT5ZXJV1O", "current_trial": 69, "dateTime": 1511194949255, "trialdata": {"rt": -1000, "stimulus": "/static/audio/wordpool/VALLEY.wav", "key_press": -1, "type": "PRES_AUD", "word": "valley", "wordID": 1544, "conditions": [18, 1200, "a", 18000], "trial": 1, "serialpos": 14, "trial_type": "single-audio", "trial_index": 69, "time_elapsed": 2806522, "internal_node_id": "0.0-51.0"}}, {"uniqueid": "MTK0509:39GAF6DQWS7KGU7A8ERTVTT5ZXJV1O", "current_trial": 70, "dateTime": 1511194951438, "trialdata": {"rt": -1000, "stimulus": "/static/audio/wordpool/TYPIST.wav", "key_press": -1, "type": "PRES_AUD", "word": "typist", "wordID": 1531, "conditions": [18, 1200, "a", 18000], "trial": 1, "serialpos": 15, "trial_type": "single-audio", "trial_index": 70, "time_elapsed": 2808705, "internal_node_id": "0.0-52.0"}}, {"uniqueid": "MTK0509:39GAF6DQWS7KGU7A8ERTVTT5ZXJV1O", "current_trial": 71, "dateTime": 1511194953684, "trialdata": {"rt": -1000, "stimulus": "/static/audio/wordpool/PANTHER.wav", "key_press": -1, "type": "PRES_AUD", "word": "panther", "wordID": 1008, "conditions": [18, 1200, "a", 18000], "trial": 1, "serialpos": 16, "trial_type": "single-audio", "trial_index": 71, "time_elapsed": 2810951, "internal_node_id": "0.0-53.0"}}, {"uniqueid": "MTK0509:39GAF6DQWS7KGU7A8ERTVTT5ZXJV1O", "current_trial": 72, "dateTime": 1511194956059, "trialdata": {"rt": -1000, "stimulus": "/static/audio/wordpool/WIFE.wav", "key_press": -1, "type": "PRES_AUD", "word": "wife", "wordID": 1608, "conditions": [18, 1200, "a", 18000], "trial": 1, "serialpos": 17, "trial_type": "single-audio", "trial_index": 72, "time_elapsed": 2813325, "internal_node_id": "0.0-54.0"}}, {"uniqueid": "MTK0509:39GAF6DQWS7KGU7A8ERTVTT5ZXJV1O", "current_trial": 73, "dateTime": 1511194957330, "trialdata": {"rt": -1, "stimulus": "", "key_press": -1, "type": "PRE_RECALL_DELAY", "trial_type": "single-stim", "trial_index": 73, "time_elapsed": 2814597, "internal_node_id": "0.0-55.0-0.0"}}, {"uniqueid": "MTK0509:39GAF6DQWS7KGU7A8ERTVTT5ZXJV1O", "current_trial": 74, "dateTime": 1511194957832, "trialdata": {"rt": -1000, "stimulus": "/static/audio/400Hz.wav", "key_press": -1, "type": "PRE_RECALL_ALERT", "trial_type": "single-audio", "trial_index": 74, "time_elapsed": 2815099, "internal_node_id": "0.0-56.0"}}, {"uniqueid": "MTK0509:39GAF6DQWS7KGU7A8ERTVTT5ZXJV1O", "current_trial": 75, "dateTime": 1511195017840, "trialdata": {"rt": [4457, 6504, 10073, 13473, 17873, 23401, 42497, 51440], "recwords": ["rooster", "leg", "sphynx", "princess", "xerox", "london", "person", "plane"], "type": "FREE_RECALL", "conditions": [18, 1200, "a", 18000], "trial": 1, "trial_type": "free-recall", "trial_index": 75, "time_elapsed": 2875103, "internal_node_id": "0.0-57.0-0.0"}}, {"uniqueid": "MTK0509:39GAF6DQWS7KGU7A8ERTVTT5ZXJV1O", "current_trial": 76, "dateTime": 1511195022445, "trialdata": {"rt": 2596, "key_press": 32, "type": "INSTRUCTIONS", "trial_type": "text", "trial_index": 76, "time_elapsed": 2879706, "internal_node_id": "0.0-58.0"}}, {"uniqueid": "MTK0509:39GAF6DQWS7KGU7A8ERTVTT5ZXJV1O", "current_trial": 77, "dateTime": 1511195047453, "trialdata": {"rt": [1925, 3445, 5669, 9741, 12133, 14021, 16556, 20045, 23549], "responses": ["15", "11", "14", "12", "12", "10", "8", "17", "17"], "num1": [8, 1, 1, 6, 1, 1, 2, 8, 6, 1], "num2": [2, 8, 4, 1, 6, 8, 4, 5, 7, 4], "num3": [5, 2, 9, 5, 5, 1, 2, 4, 4, 5], "type": "DISTRACTOR", "conditions": [24, 1600, "a", 24000], "trial": 2, "trial_type": "math-distractor", "trial_index": 77, "time_elapsed": 2904720, "internal_node_id": "0.0-59.0"}}, {"uniqueid": "MTK0509:39GAF6DQWS7KGU7A8ERTVTT5ZXJV1O", "current_trial": 78, "dateTime": 1511195050460, "trialdata": {"rt": -1, "stimulus": "<p id=\"stim\">10</p>", "key_press": -1, "trial_type": "single-stim", "trial_index": 78, "time_elapsed": 2907727, "internal_node_id": "0.0-60.0-0.0"}}, {"uniqueid": "MTK0509:39GAF6DQWS7KGU7A8ERTVTT5ZXJV1O", "current_trial": 79, "dateTime": 1511195051463, "trialdata": {"rt": -1, "stimulus": "<p id=\"stim\">9</p>", "key_press": -1, "trial_type": "single-stim", "trial_index": 79, "time_elapsed": 2908730, "internal_node_id": "0.0-60.0-1.0"}}, {"uniqueid": "MTK0509:39GAF6DQWS7KGU7A8ERTVTT5ZXJV1O", "current_trial": 80, "dateTime": 1511195052468, "trialdata": {"rt": -1, "stimulus": "<p id=\"stim\">8</p>", "key_press": -1, "trial_type": "single-stim", "trial_index": 80, "time_elapsed": 2909734, "internal_node_id": "0.0-60.0-2.0"}}, {"uniqueid": "MTK0509:39GAF6DQWS7KGU7A8ERTVTT5ZXJV1O", "current_trial": 81, "dateTime": 1511195053472, "trialdata": {"rt": -1, "stimulus": "<p id=\"stim\">7</p>", "key_press": -1, "trial_type": "single-stim", "trial_index": 81, "time_elapsed": 2910738, "internal_node_id": "0.0-60.0-3.0"}}, {"uniqueid": "MTK0509:39GAF6DQWS7KGU7A8ERTVTT5ZXJV1O", "current_trial": 82, "dateTime": 1511195054476, "trialdata": {"rt": -1, "stimulus": "<p id=\"stim\">6</p>", "key_press": -1, "trial_type": "single-stim", "trial_index": 82, "time_elapsed": 2911742, "internal_node_id": "0.0-60.0-4.0"}}, {"uniqueid": "MTK0509:39GAF6DQWS7KGU7A8ERTVTT5ZXJV1O", "current_trial": 83, "dateTime": 1511195055479, "trialdata": {"rt": -1, "stimulus": "<p id=\"stim\">5</p>", "key_press": -1, "trial_type": "single-stim", "trial_index": 83, "time_elapsed": 2912746, "internal_node_id": "0.0-60.0-5.0"}}, {"uniqueid": "MTK0509:39GAF6DQWS7KGU7A8ERTVTT5ZXJV1O", "current_trial": 84, "dateTime": 1511195056485, "trialdata": {"rt": -1, "stimulus": "<p id=\"stim\">4</p>", "key_press": -1, "trial_type": "single-stim", "trial_index": 84, "time_elapsed": 2913752, "internal_node_id": "0.0-60.0-6.0"}}, {"uniqueid": "MTK0509:39GAF6DQWS7KGU7A8ERTVTT5ZXJV1O", "current_trial": 85, "dateTime": 1511195057488, "trialdata": {"rt": -1, "stimulus": "<p id=\"stim\">3</p>", "key_press": -1, "trial_type": "single-stim", "trial_index": 85, "time_elapsed": 2914755, "internal_node_id": "0.0-60.0-7.0"}}, {"uniqueid": "MTK0509:39GAF6DQWS7KGU7A8ERTVTT5ZXJV1O", "current_trial": 86, "dateTime": 1511195058492, "trialdata": {"rt": -1, "stimulus": "<p id=\"stim\">2</p>", "key_press": -1, "trial_type": "single-stim", "trial_index": 86, "time_elapsed": 2915759, "internal_node_id": "0.0-60.0-8.0"}}, {"uniqueid": "MTK0509:39GAF6DQWS7KGU7A8ERTVTT5ZXJV1O", "current_trial": 87, "dateTime": 1511195059496, "trialdata": {"rt": -1, "stimulus": "<p id=\"stim\">1</p>", "key_press": -1, "trial_type": "single-stim", "trial_index": 87, "time_elapsed": 2916763, "internal_node_id": "0.0-60.0-9.0"}}, {"uniqueid": "MTK0509:39GAF6DQWS7KGU7A8ERTVTT5ZXJV1O", "current_trial": 88, "dateTime": 1511195060999, "trialdata": {"rt": -1, "stimulus": "<p id=\"stim\">+</p>", "key_press": -1, "type": "FIXATION", "trial_type": "single-stim", "trial_index": 88, "time_elapsed": 2918266, "internal_node_id": "0.0-61.0-0.0"}}, {"uniqueid": "MTK0509:39GAF6DQWS7KGU7A8ERTVTT5ZXJV1O", "current_trial": 89, "dateTime": 1511195063750, "trialdata": {"rt": -1000, "stimulus": "/static/audio/wordpool/TWIG.wav", "key_press": -1, "type": "PRES_AUD", "word": "twig", "wordID": 1526, "conditions": [24, 1600, "a", 24000], "trial": 2, "serialpos": 0, "trial_type": "single-audio", "trial_index": 89, "time_elapsed": 2921017, "internal_node_id": "0.0-62.0"}}, {"uniqueid": "MTK0509:39GAF6DQWS7KGU7A8ERTVTT5ZXJV1O", "current_trial": 90, "dateTime": 1511195066165, "trialdata": {"rt": -1000, "stimulus": "/static/audio/wordpool/LAPEL.wav", "key_press": -1, "type": "PRES_AUD", "word": "lapel", "wordID": 799, "conditions": [24, 1600, "a", 24000], "trial": 2, "serialpos": 1, "trial_type": "single-audio", "trial_index": 90, "time_elapsed": 2923432, "internal_node_id": "0.0-63.0"}}, {"uniqueid": "MTK0509:39GAF6DQWS7KGU7A8ERTVTT5ZXJV1O", "current_trial": 91, "dateTime": 1511195068786, "trialdata": {"rt": -1000, "stimulus": "/static/audio/wordpool/UNCLE.wav", "key_press": -1, "type": "PRES_AUD", "word": "uncle", "wordID": 1535, "conditions": [24, 1600, "a", 24000], "trial": 2, "serialpos": 2, "trial_type": "single-audio", "trial_index": 91, "time_elapsed": 2926053, "internal_node_id": "0.0-64.0"}}, {"uniqueid": "MTK0509:39GAF6DQWS7KGU7A8ERTVTT5ZXJV1O", "current_trial": 92, "dateTime": 1511195071227, "trialdata": {"rt": -1000, "stimulus": "/static/audio/wordpool/GIFT.wav", "key_press": -1, "type": "PRES_AUD", "word": "gift", "wordID": 634, "conditions": [24, 1600, "a", 24000], "trial": 2, "serialpos": 3, "trial_type": "single-audio", "trial_index": 92, "time_elapsed": 2928494, "internal_node_id": "0.0-65.0"}}, {"uniqueid": "MTK0509:39GAF6DQWS7KGU7A8ERTVTT5ZXJV1O", "current_trial": 93, "dateTime": 1511195073712, "trialdata": {"rt": -1000, "stimulus": "/static/audio/wordpool/PASTRY.wav", "key_press": -1, "type": "PRES_AUD", "word": "pastry", "wordID": 1021, "conditions": [24, 1600, "a", 24000], "trial": 2, "serialpos": 4, "trial_type": "single-audio", "trial_index": 93, "time_elapsed": 2930979, "internal_node_id": "0.0-66.0"}}, {"uniqueid": "MTK0509:39GAF6DQWS7KGU7A8ERTVTT5ZXJV1O", "current_trial": 94, "dateTime": 1511195076457, "trialdata": {"rt": -1000, "stimulus": "/static/audio/wordpool/BOYFRIEND.wav", "key_press": -1, "type": "PRES_AUD", "word": "boyfriend", "wordID": 161, "conditions": [24, 1600, "a", 24000], "trial": 2, "serialpos": 5, "trial_type": "single-audio", "trial_index": 94, "time_elapsed": 2933724, "internal_node_id": "0.0-67.0"}}, {"uniqueid": "MTK0509:39GAF6DQWS7KGU7A8ERTVTT5ZXJV1O", "current_trial": 95, "dateTime": 1511195078913, "trialdata": {"rt": -1000, "stimulus": "/static/audio/wordpool/SWIMMER.wav", "key_press": -1, "type": "PRES_AUD", "word": "swimmer", "wordID": 1419, "conditions": [24, 1600, "a", 24000], "trial": 2, "serialpos": 6, "trial_type": "single-audio", "trial_index": 95, "time_elapsed": 2936180, "internal_node_id": "0.0-68.0"}}, {"uniqueid": "MTK0509:39GAF6DQWS7KGU7A8ERTVTT5ZXJV1O", "current_trial": 96, "dateTime": 1511195081528, "trialdata": {"rt": -1000, "stimulus": "/static/audio/wordpool/DIVER.wav", "key_press": -1, "type": "PRES_AUD", "word": "diver", "wordID": 475, "conditions": [24, 1600, "a", 24000], "trial": 2, "serialpos": 7, "trial_type": "single-audio", "trial_index": 96, "time_elapsed": 2938795, "internal_node_id": "0.0-69.0"}}, {"uniqueid": "MTK0509:39GAF6DQWS7KGU7A8ERTVTT5ZXJV1O", "current_trial": 97, "dateTime": 1511195084135, "trialdata": {"rt": -1000, "stimulus": "/static/audio/wordpool/SCALLOP.wav", "key_press": -1, "type": "PRES_AUD", "word": "scallop", "wordID": 1241, "conditions": [24, 1600, "a", 24000], "trial": 2, "serialpos": 8, "trial_type": "single-audio", "trial_index": 97, "time_elapsed": 2941402, "internal_node_id": "0.0-70.0"}}, {"uniqueid": "MTK0509:39GAF6DQWS7KGU7A8ERTVTT5ZXJV1O", "current_trial": 98, "dateTime": 1511195086835, "trialdata": {"rt": -1000, "stimulus": "/static/audio/wordpool/CATCHER.wav", "key_press": -1, "type": "PRES_AUD", "word": "catcher", "wordID": 257, "conditions": [24, 1600, "a", 24000], "trial": 2, "serialpos": 9, "trial_type": "single-audio", "trial_index": 98, "time_elapsed": 2944102, "internal_node_id": "0.0-71.0"}}, {"uniqueid": "MTK0509:39GAF6DQWS7KGU7A8ERTVTT5ZXJV1O", "current_trial": 99, "dateTime": 1511195089454, "trialdata": {"rt": -1000, "stimulus": "/static/audio/wordpool/SKILLET.wav", "key_press": -1, "type": "PRES_AUD", "word": "skillet", "wordID": 1316, "conditions": [24, 1600, "a", 24000], "trial": 2, "serialpos": 10, "trial_type": "single-audio", "trial_index": 99, "time_elapsed": 2946721, "internal_node_id": "0.0-72.0"}}, {"uniqueid": "MTK0509:39GAF6DQWS7KGU7A8ERTVTT5ZXJV1O", "current_trial": 100, "dateTime": 1511195091875, "trialdata": {"rt": -1000, "stimulus": "/static/audio/wordpool/SANDWICH.wav", "key_press": -1, "type": "PRES_AUD", "word": "sandwich", "wordID": 1231, "conditions": [24, 1600, "a", 24000], "trial": 2, "serialpos": 11, "trial_type": "single-audio", "trial_index": 100, "time_elapsed": 2949142, "internal_node_id": "0.0-73.0"}}, {"uniqueid": "MTK0509:39GAF6DQWS7KGU7A8ERTVTT5ZXJV1O", "current_trial": 101, "dateTime": 1511195094295, "trialdata": {"rt": -1000, "stimulus": "/static/audio/wordpool/HOOK.wav", "key_press": -1, "type": "PRES_AUD", "word": "hook", "wordID": 714, "conditions": [24, 1600, "a", 24000], "trial": 2, "serialpos": 12, "trial_type": "single-audio", "trial_index": 101, "time_elapsed": 2951562, "internal_node_id": "0.0-74.0"}}, {"uniqueid": "MTK0509:39GAF6DQWS7KGU7A8ERTVTT5ZXJV1O", "current_trial": 102, "dateTime": 1511195096920, "trialdata": {"rt": -1000, "stimulus": "/static/audio/wordpool/APPLE.wav", "key_press": -1, "type": "PRES_AUD", "word": "apple", "wordID": 32, "conditions": [24, 1600, "a", 24000], "trial": 2, "serialpos": 13, "trial_type": "single-audio", "trial_index": 102, "time_elapsed": 2954186, "internal_node_id": "0.0-75.0"}}, {"uniqueid": "MTK0509:39GAF6DQWS7KGU7A8ERTVTT5ZXJV1O", "current_trial": 103, "dateTime": 1511195099683, "trialdata": {"rt": -1000, "stimulus": "/static/audio/wordpool/BINDER.wav", "key_press": -1, "type": "PRES_AUD", "word": "binder", "wordID": 126, "conditions": [24, 1600, "a", 24000], "trial": 2, "serialpos": 14, "trial_type": "single-audio", "trial_index": 103, "time_elapsed": 2956950, "internal_node_id": "0.0-76.0"}}, {"uniqueid": "MTK0509:39GAF6DQWS7KGU7A8ERTVTT5ZXJV1O", "current_trial": 104, "dateTime": 1511195102353, "trialdata": {"rt": -1000, "stimulus": "/static/audio/wordpool/PARSLEY.wav", "key_press": -1, "type": "PRES_AUD", "word": "parsley", "wordID": 1015, "conditions": [24, 1600, "a", 24000], "trial": 2, "serialpos": 15, "trial_type": "single-audio", "trial_index": 104, "time_elapsed": 2959620, "internal_node_id": "0.0-77.0"}}, {"uniqueid": "MTK0509:39GAF6DQWS7KGU7A8ERTVTT5ZXJV1O", "current_trial": 105, "dateTime": 1511195104796, "trialdata": {"rt": -1000, "stimulus": "/static/audio/wordpool/MONSTER.wav", "key_press": -1, "type": "PRES_AUD", "word": "monster", "wordID": 911, "conditions": [24, 1600, "a", 24000], "trial": 2, "serialpos": 16, "trial_type": "single-audio", "trial_index": 105, "time_elapsed": 2962063, "internal_node_id": "0.0-78.0"}}, {"uniqueid": "MTK0509:39GAF6DQWS7KGU7A8ERTVTT5ZXJV1O", "current_trial": 106, "dateTime": 1511195107474, "trialdata": {"rt": -1000, "stimulus": "/static/audio/wordpool/MAILMAN.wav", "key_press": -1, "type": "PRES_AUD", "word": "mailman", "wordID": 857, "conditions": [24, 1600, "a", 24000], "trial": 2, "serialpos": 17, "trial_type": "single-audio", "trial_index": 106, "time_elapsed": 2964741, "internal_node_id": "0.0-79.0"}}, {"uniqueid": "MTK0509:39GAF6DQWS7KGU7A8ERTVTT5ZXJV1O", "current_trial": 107, "dateTime": 1511195110097, "trialdata": {"rt": -1000, "stimulus": "/static/audio/wordpool/HANDBAG.wav", "key_press": -1, "type": "PRES_AUD", "word": "handbag", "wordID": 683, "conditions": [24, 1600, "a", 24000], "trial": 2, "serialpos": 18, "trial_type": "single-audio", "trial_index": 107, "time_elapsed": 2967363, "internal_node_id": "0.0-80.0"}}, {"uniqueid": "MTK0509:39GAF6DQWS7KGU7A8ERTVTT5ZXJV1O", "current_trial": 108, "dateTime": 1511195112726, "trialdata": {"rt": -1000, "stimulus": "/static/audio/wordpool/GANGSTER.wav", "key_press": -1, "type": "PRES_AUD", "word": "gangster", "wordID": 619, "conditions": [24, 1600, "a", 24000], "trial": 2, "serialpos": 19, "trial_type": "single-audio", "trial_index": 108, "time_elapsed": 2969993, "internal_node_id": "0.0-81.0"}}, {"uniqueid": "MTK0509:39GAF6DQWS7KGU7A8ERTVTT5ZXJV1O", "current_trial": 109, "dateTime": 1511195115322, "trialdata": {"rt": -1000, "stimulus": "/static/audio/wordpool/TWISTER.wav", "key_press": -1, "type": "PRES_AUD", "word": "twister", "wordID": 1529, "conditions": [24, 1600, "a", 24000], "trial": 2, "serialpos": 20, "trial_type": "single-audio", "trial_index": 109, "time_elapsed": 2972589, "internal_node_id": "0.0-82.0"}}, {"uniqueid": "MTK0509:39GAF6DQWS7KGU7A8ERTVTT5ZXJV1O", "current_trial": 110, "dateTime": 1511195118067, "trialdata": {"rt": -1000, "stimulus": "/static/audio/wordpool/GARLIC.wav", "key_press": -1, "type": "PRES_AUD", "word": "garlic", "wordID": 623, "conditions": [24, 1600, "a", 24000], "trial": 2, "serialpos": 21, "trial_type": "single-audio", "trial_index": 110, "time_elapsed": 2975333, "internal_node_id": "0.0-83.0"}}, {"uniqueid": "MTK0509:39GAF6DQWS7KGU7A8ERTVTT5ZXJV1O", "current_trial": 111, "dateTime": 1511195128720, "trialdata": {"rt": -1000, "stimulus": "/static/audio/wordpool/GRAPE.wav", "key_press": -1, "type": "PRES_AUD", "word": "grape", "wordID": 653, "conditions": [24, 1600, "a", 24000], "trial": 2, "serialpos": 22, "trial_type": "single-audio", "trial_index": 111, "time_elapsed": 2985987, "internal_node_id": "0.0-84.0"}}, {"uniqueid": "MTK0509:39GAF6DQWS7KGU7A8ERTVTT5ZXJV1O", "current_trial": 112, "dateTime": 1511195131151, "trialdata": {"rt": -1000, "stimulus": "/static/audio/wordpool/BARLEY.wav", "key_press": -1, "type": "PRES_AUD", "word": "barley", "wordID": 87, "conditions": [24, 1600, "a", 24000], "trial": 2, "serialpos": 23, "trial_type": "single-audio", "trial_index": 112, "time_elapsed": 2988418, "internal_node_id": "0.0-85.0"}}, {"uniqueid": "MTK0509:39GAF6DQWS7KGU7A8ERTVTT5ZXJV1O", "current_trial": 113, "dateTime": 1511195132547, "trialdata": {"rt": -1, "stimulus": "", "key_press": -1, "type": "PRE_RECALL_DELAY", "trial_type": "single-stim", "trial_index": 113, "time_elapsed": 2989814, "internal_node_id": "0.0-86.0-0.0"}}, {"uniqueid": "MTK0509:39GAF6DQWS7KGU7A8ERTVTT5ZXJV1O", "current_trial": 114, "dateTime": 1511195133049, "trialdata": {"rt": -1000, "stimulus": "/static/audio/400Hz.wav", "key_press": -1, "type": "PRE_RECALL_ALERT", "trial_type": "single-audio", "trial_index": 114, "time_elapsed": 2990316, "internal_node_id": "0.0-87.0"}}, {"uniqueid": "MTK0509:39GAF6DQWS7KGU7A8ERTVTT5ZXJV1O", "current_trial": 115, "dateTime": 1511195193060, "trialdata": {"rt": [2767, 4644, 9591, 10847, 12143, 20720, 22920, 25200, 26679, 28455, 29935, 31983, 34295], "recwords": ["stick", "lapel", "notebook", "binder", "uncle", "cook", "boyfriend", "swimmer", "diver", "apple", "hook", "scallop", "parsley"], "type": "FREE_RECALL", "conditions": [24, 1600, "a", 24000], "trial": 2, "trial_type": "free-recall", "trial_index": 115, "time_elapsed": 3050323, "internal_node_id": "0.0-88.0-0.0"}}, {"uniqueid": "MTK0509:39GAF6DQWS7KGU7A8ERTVTT5ZXJV1O", "current_trial": 116, "dateTime": 1511195198989, "trialdata": {"rt": 3925, "key_press": 32, "type": "INSTRUCTIONS", "trial_type": "text", "trial_index": 116, "time_elapsed": 3056255, "internal_node_id": "0.0-89.0"}}, {"uniqueid": "MTK0509:39GAF6DQWS7KGU7A8ERTVTT5ZXJV1O", "current_trial": 117, "dateTime": 1511195212998, "trialdata": {"rt": [5307, 7587, 11533], "responses": ["20", "18", "20"], "num1": [8, 9, 4, 2], "num2": [7, 1, 7, 6], "num3": [5, 8, 9, 5], "type": "DISTRACTOR", "conditions": [12, 1600, "a", 12000], "trial": 3, "trial_type": "math-distractor", "trial_index": 117, "time_elapsed": 3070265, "internal_node_id": "0.0-90.0"}}, {"uniqueid": "MTK0509:39GAF6DQWS7KGU7A8ERTVTT5ZXJV1O", "current_trial": 118, "dateTime": 1511195216002, "trialdata": {"rt": -1, "stimulus": "<p id=\"stim\">10</p>", "key_press": -1, "trial_type": "single-stim", "trial_index": 118, "time_elapsed": 3073268, "internal_node_id": "0.0-91.0-0.0"}}, {"uniqueid": "MTK0509:39GAF6DQWS7KGU7A8ERTVTT5ZXJV1O", "current_trial": 119, "dateTime": 1511195217008, "trialdata": {"rt": -1, "stimulus": "<p id=\"stim\">9</p>", "key_press": -1, "trial_type": "single-stim", "trial_index": 119, "time_elapsed": 3074275, "internal_node_id": "0.0-91.0-1.0"}}, {"uniqueid": "MTK0509:39GAF6DQWS7KGU7A8ERTVTT5ZXJV1O", "current_trial": 120, "dateTime": 1511195218012, "trialdata": {"rt": -1, "stimulus": "<p id=\"stim\">8</p>", "key_press": -1, "trial_type": "single-stim", "trial_index": 120, "time_elapsed": 3075279, "internal_node_id": "0.0-91.0-2.0"}}, {"uniqueid": "MTK0509:39GAF6DQWS7KGU7A8ERTVTT5ZXJV1O", "current_trial": 121, "dateTime": 1511195219016, "trialdata": {"rt": -1, "stimulus": "<p id=\"stim\">7</p>", "key_press": -1, "trial_type": "single-stim", "trial_index": 121, "time_elapsed": 3076283, "internal_node_id": "0.0-91.0-3.0"}}, {"uniqueid": "MTK0509:39GAF6DQWS7KGU7A8ERTVTT5ZXJV1O", "current_trial": 122, "dateTime": 1511195220021, "trialdata": {"rt": -1, "stimulus": "<p id=\"stim\">6</p>", "key_press": -1, "trial_type": "single-stim", "trial_index": 122, "time_elapsed": 3077287, "internal_node_id": "0.0-91.0-4.0"}}, {"uniqueid": "MTK0509:39GAF6DQWS7KGU7A8ERTVTT5ZXJV1O", "current_trial": 123, "dateTime": 1511195221024, "trialdata": {"rt": -1, "stimulus": "<p id=\"stim\">5</p>", "key_press": -1, "trial_type": "single-stim", "trial_index": 123, "time_elapsed": 3078291, "internal_node_id": "0.0-91.0-5.0"}}, {"uniqueid": "MTK0509:39GAF6DQWS7KGU7A8ERTVTT5ZXJV1O", "current_trial": 124, "dateTime": 1511195222029, "trialdata": {"rt": -1, "stimulus": "<p id=\"stim\">4</p>", "key_press": -1, "trial_type": "single-stim", "trial_index": 124, "time_elapsed": 3079295, "internal_node_id": "0.0-91.0-6.0"}}, {"uniqueid": "MTK0509:39GAF6DQWS7KGU7A8ERTVTT5ZXJV1O", "current_trial": 125, "dateTime": 1511195223033, "trialdata": {"rt": -1, "stimulus": "<p id=\"stim\">3</p>", "key_press": -1, "trial_type": "single-stim", "trial_index": 125, "time_elapsed": 3080300, "internal_node_id": "0.0-91.0-7.0"}}, {"uniqueid": "MTK0509:39GAF6DQWS7KGU7A8ERTVTT5ZXJV1O", "current_trial": 126, "dateTime": 1511195224037, "trialdata": {"rt": -1, "stimulus": "<p id=\"stim\">2</p>", "key_press": -1, "trial_type": "single-stim", "trial_index": 126, "time_elapsed": 3081304, "internal_node_id": "0.0-91.0-8.0"}}, {"uniqueid": "MTK0509:39GAF6DQWS7KGU7A8ERTVTT5ZXJV1O", "current_trial": 127, "dateTime": 1511195225041, "trialdata": {"rt": -1, "stimulus": "<p id=\"stim\">1</p>", "key_press": -1, "trial_type": "single-stim", "trial_index": 127, "time_elapsed": 3082308, "internal_node_id": "0.0-91.0-9.0"}}, {"uniqueid": "MTK0509:39GAF6DQWS7KGU7A8ERTVTT5ZXJV1O", "current_trial": 128, "dateTime": 1511195226544, "trialdata": {"rt": -1, "stimulus": "<p id=\"stim\">+</p>", "key_press": -1, "type": "FIXATION", "trial_type": "single-stim", "trial_index": 128, "time_elapsed": 3083811, "internal_node_id": "0.0-92.0-0.0"}}, {"uniqueid": "MTK0509:39GAF6DQWS7KGU7A8ERTVTT5ZXJV1O", "current_trial": 129, "dateTime": 1511195229063, "trialdata": {"rt": -1000, "stimulus": "/static/audio/wordpool/CRUTCH.wav", "key_press": -1, "type": "PRES_AUD", "word": "crutch", "wordID": 416, "conditions": [12, 1600, "a", 12000], "trial": 3, "serialpos": 0, "trial_type": "single-audio", "trial_index": 129, "time_elapsed": 3086330, "internal_node_id": "0.0-93.0"}}, {"uniqueid": "MTK0509:39GAF6DQWS7KGU7A8ERTVTT5ZXJV1O", "current_trial": 130, "dateTime": 1511195231704, "trialdata": {"rt": -1000, "stimulus": "/static/audio/wordpool/JUDGE.wav", "key_press": -1, "type": "PRES_AUD", "word": "judge", "wordID": 760, "conditions": [12, 1600, "a", 12000], "trial": 3, "serialpos": 1, "trial_type": "single-audio", "trial_index": 130, "time_elapsed": 3088971, "internal_node_id": "0.0-94.0"}}, {"uniqueid": "MTK0509:39GAF6DQWS7KGU7A8ERTVTT5ZXJV1O", "current_trial": 131, "dateTime": 1511195234440, "trialdata": {"rt": -1000, "stimulus": "/static/audio/wordpool/LIGHTNING.wav", "key_press": -1, "type": "PRES_AUD", "word": "lightning", "wordID": 819, "conditions": [12, 1600, "a", 12000], "trial": 3, "serialpos": 2, "trial_type": "single-audio", "trial_index": 131, "time_elapsed": 3091707, "internal_node_id": "0.0-95.0"}}, {"uniqueid": "MTK0509:39GAF6DQWS7KGU7A8ERTVTT5ZXJV1O", "current_trial": 132, "dateTime": 1511195237056, "trialdata": {"rt": -1000, "stimulus": "/static/audio/wordpool/BASEMENT.wav", "key_press": -1, "type": "PRES_AUD", "word": "basement", "wordID": 93, "conditions": [12, 1600, "a", 12000], "trial": 3, "serialpos": 3, "trial_type": "single-audio", "trial_index": 132, "time_elapsed": 3094323, "internal_node_id": "0.0-96.0"}}, {"uniqueid": "MTK0509:39GAF6DQWS7KGU7A8ERTVTT5ZXJV1O", "current_trial": 133, "dateTime": 1511195239712, "trialdata": {"rt": -1000, "stimulus": "/static/audio/wordpool/CELLAR.wav", "key_press": -1, "type": "PRES_AUD", "word": "cellar", "wordID": 266, "conditions": [12, 1600, "a", 12000], "trial": 3, "serialpos": 4, "trial_type": "single-audio", "trial_index": 133, "time_elapsed": 3096979, "internal_node_id": "0.0-97.0"}}, {"uniqueid": "MTK0509:39GAF6DQWS7KGU7A8ERTVTT5ZXJV1O", "current_trial": 134, "dateTime": 1511195242228, "trialdata": {"rt": -1000, "stimulus": "/static/audio/wordpool/CABIN.wav", "key_press": -1, "type": "PRES_AUD", "word": "cabin", "wordID": 210, "conditions": [12, 1600, "a", 12000], "trial": 3, "serialpos": 5, "trial_type": "single-audio", "trial_index": 134, "time_elapsed": 3099495, "internal_node_id": "0.0-98.0"}}, {"uniqueid": "MTK0509:39GAF6DQWS7KGU7A8ERTVTT5ZXJV1O", "current_trial": 135, "dateTime": 1511195244736, "trialdata": {"rt": -1000, "stimulus": "/static/audio/wordpool/BROOK.wav", "key_press": -1, "type": "PRES_AUD", "word": "brook", "wordID": 176, "conditions": [12, 1600, "a", 12000], "trial": 3, "serialpos": 6, "trial_type": "single-audio", "trial_index": 135, "time_elapsed": 3102003, "internal_node_id": "0.0-99.0"}}, {"uniqueid": "MTK0509:39GAF6DQWS7KGU7A8ERTVTT5ZXJV1O", "current_trial": 136, "dateTime": 1511195247453, "trialdata": {"rt": -1000, "stimulus": "/static/audio/wordpool/SWORD.wav", "key_press": -1, "type": "PRES_AUD", "word": "sword", "wordID": 1422, "conditions": [12, 1600, "a", 12000], "trial": 3, "serialpos": 7, "trial_type": "single-audio", "trial_index": 136, "time_elapsed": 3104719, "internal_node_id": "0.0-100.0"}}, {"uniqueid": "MTK0509:39GAF6DQWS7KGU7A8ERTVTT5ZXJV1O", "current_trial": 137, "dateTime": 1511195249960, "trialdata": {"rt": -1000, "stimulus": "/static/audio/wordpool/JURY.wav", "key_press": -1, "type": "PRES_AUD", "word": "jury", "wordID": 765, "conditions": [12, 1600, "a", 12000], "trial": 3, "serialpos": 8, "trial_type": "single-audio", "trial_index": 137, "time_elapsed": 3107227, "internal_node_id": "0.0-101.0"}}, {"uniqueid": "MTK0509:39GAF6DQWS7KGU7A8ERTVTT5ZXJV1O", "current_trial": 138, "dateTime": 1511195252590, "trialdata": {"rt": -1000, "stimulus": "/static/audio/wordpool/SUPPER.wav", "key_press": -1, "type": "PRES_AUD", "word": "supper", "wordID": 1410, "conditions": [12, 1600, "a", 12000], "trial": 3, "serialpos": 9, "trial_type": "single-audio", "trial_index": 138, "time_elapsed": 3109857, "internal_node_id": "0.0-102.0"}}, {"uniqueid": "MTK0509:39GAF6DQWS7KGU7A8ERTVTT5ZXJV1O", "current_trial": 139, "dateTime": 1511195255127, "trialdata": {"rt": -1000, "stimulus": "/static/audio/wordpool/LUNCH.wav", "key_press": -1, "type": "PRES_AUD", "word": "lunch", "wordID": 848, "conditions": [12, 1600, "a", 12000], "trial": 3, "serialpos": 10, "trial_type": "single-audio", "trial_index": 139, "time_elapsed": 3112393, "internal_node_id": "0.0-103.0"}}, {"uniqueid": "MTK0509:39GAF6DQWS7KGU7A8ERTVTT5ZXJV1O", "current_trial": 140, "dateTime": 1511195257531, "trialdata": {"rt": -1000, "stimulus": "/static/audio/wordpool/LEOPARD.wav", "key_press": -1, "type": "PRES_AUD", "word": "leopard", "wordID": 811, "conditions": [12, 1600, "a", 12000], "trial": 3, "serialpos": 11, "trial_type": "single-audio", "trial_index": 140, "time_elapsed": 3114798, "internal_node_id": "0.0-104.0"}}, {"uniqueid": "MTK0509:39GAF6DQWS7KGU7A8ERTVTT5ZXJV1O", "current_trial": 141, "dateTime": 1511195258759, "trialdata": {"rt": -1, "stimulus": "", "key_press": -1, "type": "PRE_RECALL_DELAY", "trial_type": "single-stim", "trial_index": 141, "time_elapsed": 3116025, "internal_node_id": "0.0-105.0-0.0"}}, {"uniqueid": "MTK0509:39GAF6DQWS7KGU7A8ERTVTT5ZXJV1O", "current_trial": 142, "dateTime": 1511195259260, "trialdata": {"rt": -1000, "stimulus": "/static/audio/400Hz.wav", "key_press": -1, "type": "PRE_RECALL_ALERT", "trial_type": "single-audio", "trial_index": 142, "time_elapsed": 3116526, "internal_node_id": "0.0-106.0"}}, {"uniqueid": "MTK0509:39GAF6DQWS7KGU7A8ERTVTT5ZXJV1O", "current_trial": 143, "dateTime": 1511195319266, "trialdata": {"rt": [5252, 7302, 9630, 13726, 15174, 20973, 28829, 30421, 32301, 34557, 44946, 47906], "recwords": ["basement", "cellar", "cabin", "brook", "sword", "leper", "judge", "jury", "lightning", "crutches", "stream", "river"], "type": "FREE_RECALL", "conditions": [12, 1600, "a", 12000], "trial": 3, "trial_type": "free-recall", "trial_index": 143, "time_elapsed": 3176528, "internal_node_id": "0.0-107.0-0.0"}}, {"uniqueid": "MTK0509:39GAF6DQWS7KGU7A8ERTVTT5ZXJV1O", "current_trial": 144, "dateTime": 1511195322949, "trialdata": {"rt": 1680, "key_press": 32, "type": "INSTRUCTIONS", "trial_type": "text", "trial_index": 144, "time_elapsed": 3180216, "internal_node_id": "0.0-108.0"}}, {"uniqueid": "MTK0509:39GAF6DQWS7KGU7A8ERTVTT5ZXJV1O", "current_trial": 145, "dateTime": 1511195336958, "trialdata": {"rt": [2456, 4800, 6912, 9703, 11695], "responses": ["18", "11", "17", "15", "6"], "num1": [4, 3, 1, 5, 1, 4], "num2": [7, 2, 7, 6, 3, 4], "num3": [7, 6, 9, 4, 2, 2], "type": "DISTRACTOR", "conditions": [24, 800, "v", 12000], "trial": 4, "trial_type": "math-distractor", "trial_index": 145, "time_elapsed": 3194224, "internal_node_id": "0.0-109.0"}}, {"uniqueid": "MTK0509:39GAF6DQWS7KGU7A8ERTVTT5ZXJV1O", "current_trial": 146, "dateTime": 1511195339962, "trialdata": {"rt": -1, "stimulus": "<p id=\"stim\">10</p>", "key_press": -1, "trial_type": "single-stim", "trial_index": 146, "time_elapsed": 3197229, "internal_node_id": "0.0-110.0-0.0"}}, {"uniqueid": "MTK0509:39GAF6DQWS7KGU7A8ERTVTT5ZXJV1O", "current_trial": 147, "dateTime": 1511195340967, "trialdata": {"rt": -1, "stimulus": "<p id=\"stim\">9</p>", "key_press": -1, "trial_type": "single-stim", "trial_index": 147, "time_elapsed": 3198234, "internal_node_id": "0.0-110.0-1.0"}}, {"uniqueid": "MTK0509:39GAF6DQWS7KGU7A8ERTVTT5ZXJV1O", "current_trial": 148, "dateTime": 1511195341972, "trialdata": {"rt": -1, "stimulus": "<p id=\"stim\">8</p>", "key_press": -1, "trial_type": "single-stim", "trial_index": 148, "time_elapsed": 3199238, "internal_node_id": "0.0-110.0-2.0"}}, {"uniqueid": "MTK0509:39GAF6DQWS7KGU7A8ERTVTT5ZXJV1O", "current_trial": 149, "dateTime": 1511195342975, "trialdata": {"rt": -1, "stimulus": "<p id=\"stim\">7</p>", "key_press": -1, "trial_type": "single-stim", "trial_index": 149, "time_elapsed": 3200242, "internal_node_id": "0.0-110.0-3.0"}}, {"uniqueid": "MTK0509:39GAF6DQWS7KGU7A8ERTVTT5ZXJV1O", "current_trial": 150, "dateTime": 1511195343980, "trialdata": {"rt": -1, "stimulus": "<p id=\"stim\">6</p>", "key_press": -1, "trial_type": "single-stim", "trial_index": 150, "time_elapsed": 3201246, "internal_node_id": "0.0-110.0-4.0"}}, {"uniqueid": "MTK0509:39GAF6DQWS7KGU7A8ERTVTT5ZXJV1O", "current_trial": 151, "dateTime": 1511195344984, "trialdata": {"rt": -1, "stimulus": "<p id=\"stim\">5</p>", "key_press": -1, "trial_type": "single-stim", "trial_index": 151, "time_elapsed": 3202250, "internal_node_id": "0.0-110.0-5.0"}}, {"uniqueid": "MTK0509:39GAF6DQWS7KGU7A8ERTVTT5ZXJV1O", "current_trial": 152, "dateTime": 1511195345988, "trialdata": {"rt": -1, "stimulus": "<p id=\"stim\">4</p>", "key_press": -1, "trial_type": "single-stim", "trial_index": 152, "time_elapsed": 3203255, "internal_node_id": "0.0-110.0-6.0"}}, {"uniqueid": "MTK0509:39GAF6DQWS7KGU7A8ERTVTT5ZXJV1O", "current_trial": 153, "dateTime": 1511195346992, "trialdata": {"rt": -1, "stimulus": "<p id=\"stim\">3</p>", "key_press": -1, "trial_type": "single-stim", "trial_index": 153, "time_elapsed": 3204259, "internal_node_id": "0.0-110.0-7.0"}}, {"uniqueid": "MTK0509:39GAF6DQWS7KGU7A8ERTVTT5ZXJV1O", "current_trial": 154, "dateTime": 1511195347996, "trialdata": {"rt": -1, "stimulus": "<p id=\"stim\">2</p>", "key_press": -1, "trial_type": "single-stim", "trial_index": 154, "time_elapsed": 3205263, "internal_node_id": "0.0-110.0-8.0"}}, {"uniqueid": "MTK0509:39GAF6DQWS7KGU7A8ERTVTT5ZXJV1O", "current_trial": 155, "dateTime": 1511195349000, "trialdata": {"rt": -1, "stimulus": "<p id=\"stim\">1</p>", "key_press": -1, "trial_type": "single-stim", "trial_index": 155, "time_elapsed": 3206267, "internal_node_id": "0.0-110.0-9.0"}}, {"uniqueid": "MTK0509:39GAF6DQWS7KGU7A8ERTVTT5ZXJV1O", "current_trial": 156, "dateTime": 1511195350503, "trialdata": {"rt": -1, "stimulus": "<p id=\"stim\">+</p>", "key_press": -1, "type": "FIXATION", "trial_type": "single-stim", "trial_index": 156, "time_elapsed": 3207770, "internal_node_id": "0.0-111.0-0.0"}}, {"uniqueid": "MTK0509:39GAF6DQWS7KGU7A8ERTVTT5ZXJV1O", "current_trial": 157, "dateTime": 1511195351310, "trialdata": {"rt": -1, "stimulus": "<p id=\"stim\">ACTOR</p>", "key_press": -1, "type": "PRES_VIS", "word": "actor", "wordID": 4, "conditions": [24, 800, "v", 12000], "trial": 4, "serialpos": 0, "trial_type": "single-stim", "trial_index": 157, "time_elapsed": 3208577, "internal_node_id": "0.0-112.0"}}, {"uniqueid": "MTK0509:39GAF6DQWS7KGU7A8ERTVTT5ZXJV1O", "current_trial": 158, "dateTime": 1511195353086, "trialdata": {"rt": -1, "stimulus": "<p id=\"stim\">PERFUME</p>", "key_press": -1, "type": "PRES_VIS", "word": "perfume", "wordID": 1048, "conditions": [24, 800, "v", 12000], "trial": 4, "serialpos": 1, "trial_type": "single-stim", "trial_index": 158, "time_elapsed": 3210353, "internal_node_id": "0.0-113.0"}}, {"uniqueid": "MTK0509:39GAF6DQWS7KGU7A8ERTVTT5ZXJV1O", "current_trial": 159, "dateTime": 1511195354798, "trialdata": {"rt": -1, "stimulus": "<p id=\"stim\">ANTLER</p>", "key_press": -1, "type": "PRES_VIS", "word": "antler", "wordID": 28, "conditions": [24, 800, "v", 12000], "trial": 4, "serialpos": 2, "trial_type": "single-stim", "trial_index": 159, "time_elapsed": 3212065, "internal_node_id": "0.0-114.0"}}, {"uniqueid": "MTK0509:39GAF6DQWS7KGU7A8ERTVTT5ZXJV1O", "current_trial": 160, "dateTime": 1511195356580, "trialdata": {"rt": -1, "stimulus": "<p id=\"stim\">MESSAGE</p>", "key_press": -1, "type": "PRES_VIS", "word": "message", "wordID": 887, "conditions": [24, 800, "v", 12000], "trial": 4, "serialpos": 3, "trial_type": "single-stim", "trial_index": 160, "time_elapsed": 3213847, "internal_node_id": "0.0-115.0"}}, {"uniqueid": "MTK0509:39GAF6DQWS7KGU7A8ERTVTT5ZXJV1O", "current_trial": 161, "dateTime": 1511195358309, "trialdata": {"rt": -1, "stimulus": "<p id=\"stim\">COSTUME</p>", "key_press": -1, "type": "PRES_VIS", "word": "costume", "wordID": 382, "conditions": [24, 800, "v", 12000], "trial": 4, "serialpos": 4, "trial_type": "single-stim", "trial_index": 161, "time_elapsed": 3215576, "internal_node_id": "0.0-116.0"}}, {"uniqueid": "MTK0509:39GAF6DQWS7KGU7A8ERTVTT5ZXJV1O", "current_trial": 162, "dateTime": 1511195360301, "trialdata": {"rt": -1, "stimulus": "<p id=\"stim\">RELISH</p>", "key_press": -1, "type": "PRES_VIS", "word": "relish", "wordID": 1182, "conditions": [24, 800, "v", 12000], "trial": 4, "serialpos": 5, "trial_type": "single-stim", "trial_index": 162, "time_elapsed": 3217567, "internal_node_id": "0.0-117.0"}}, {"uniqueid": "MTK0509:39GAF6DQWS7KGU7A8ERTVTT5ZXJV1O", "current_trial": 163, "dateTime": 1511195362084, "trialdata": {"rt": -1, "stimulus": "<p id=\"stim\">TERMITE</p>", "key_press": -1, "type": "PRES_VIS", "word": "termite", "wordID": 1450, "conditions": [24, 800, "v", 12000], "trial": 4, "serialpos": 6, "trial_type": "single-stim", "trial_index": 163, "time_elapsed": 3219348, "internal_node_id": "0.0-118.0"}}, {"uniqueid": "MTK0509:39GAF6DQWS7KGU7A8ERTVTT5ZXJV1O", "current_trial": 164, "dateTime": 1511195363748, "trialdata": {"rt": -1, "stimulus": "<p id=\"stim\">FUNGUS</p>", "key_press": -1, "type": "PRES_VIS", "word": "fungus", "wordID": 613, "conditions": [24, 800, "v", 12000], "trial": 4, "serialpos": 7, "trial_type": "single-stim", "trial_index": 164, "time_elapsed": 3221014, "internal_node_id": "0.0-119.0"}}, {"uniqueid": "MTK0509:39GAF6DQWS7KGU7A8ERTVTT5ZXJV1O", "current_trial": 165, "dateTime": 1511195365531, "trialdata": {"rt": -1, "stimulus": "<p id=\"stim\">DONKEY</p>", "key_press": -1, "type": "PRES_VIS", "word": "donkey", "wordID": 483, "conditions": [24, 800, "v", 12000], "trial": 4, "serialpos": 8, "trial_type": "single-stim", "trial_index": 165, "time_elapsed": 3222797, "internal_node_id": "0.0-120.0"}}, {"uniqueid": "MTK0509:39GAF6DQWS7KGU7A8ERTVTT5ZXJV1O", "current_trial": 166, "dateTime": 1511195367404, "trialdata": {"rt": -1, "stimulus": "<p id=\"stim\">ACTRESS</p>", "key_press": -1, "type": "PRES_VIS", "word": "actress", "wordID": 5, "conditions": [24, 800, "v", 12000], "trial": 4, "serialpos": 9, "trial_type": "single-stim", "trial_index": 166, "time_elapsed": 3224671, "internal_node_id": "0.0-121.0"}}, {"uniqueid": "MTK0509:39GAF6DQWS7KGU7A8ERTVTT5ZXJV1O", "current_trial": 167, "dateTime": 1511195369354, "trialdata": {"rt": -1, "stimulus": "<p id=\"stim\">POLICE</p>", "key_press": -1, "type": "PRES_VIS", "word": "police", "wordID": 1097, "conditions": [24, 800, "v", 12000], "trial": 4, "serialpos": 10, "trial_type": "single-stim", "trial_index": 167, "time_elapsed": 3226621, "internal_node_id": "0.0-122.0"}}, {"uniqueid": "MTK0509:39GAF6DQWS7KGU7A8ERTVTT5ZXJV1O", "current_trial": 168, "dateTime": 1511195371341, "trialdata": {"rt": -1, "stimulus": "<p id=\"stim\">WAITRESS</p>", "key_press": -1, "type": "PRES_VIS", "word": "waitress", "wordID": 1580, "conditions": [24, 800, "v", 12000], "trial": 4, "serialpos": 11, "trial_type": "single-stim", "trial_index": 168, "time_elapsed": 3228606, "internal_node_id": "0.0-123.0"}}, {"uniqueid": "MTK0509:39GAF6DQWS7KGU7A8ERTVTT5ZXJV1O", "current_trial": 169, "dateTime": 1511195373161, "trialdata": {"rt": -1, "stimulus": "<p id=\"stim\">DANCER</p>", "key_press": -1, "type": "PRES_VIS", "word": "dancer", "wordID": 436, "conditions": [24, 800, "v", 12000], "trial": 4, "serialpos": 12, "trial_type": "single-stim", "trial_index": 169, "time_elapsed": 3230428, "internal_node_id": "0.0-124.0"}}, {"uniqueid": "MTK0509:39GAF6DQWS7KGU7A8ERTVTT5ZXJV1O", "current_trial": 170, "dateTime": 1511195375135, "trialdata": {"rt": -1, "stimulus": "<p id=\"stim\">BEAKER</p>", "key_press": -1, "type": "PRES_VIS", "word": "beaker", "wordID": 103, "conditions": [24, 800, "v", 12000], "trial": 4, "serialpos": 13, "trial_type": "single-stim", "trial_index": 170, "time_elapsed": 3232402, "internal_node_id": "0.0-125.0"}}, {"uniqueid": "MTK0509:39GAF6DQWS7KGU7A8ERTVTT5ZXJV1O", "current_trial": 171, "dateTime": 1511195376882, "trialdata": {"rt": -1, "stimulus": "<p id=\"stim\">FLASK</p>", "key_press": -1, "type": "PRES_VIS", "word": "flask", "wordID": 575, "conditions": [24, 800, "v", 12000], "trial": 4, "serialpos": 14, "trial_type": "single-stim", "trial_index": 171, "time_elapsed": 3234148, "internal_node_id": "0.0-126.0"}}, {"uniqueid": "MTK0509:39GAF6DQWS7KGU7A8ERTVTT5ZXJV1O", "current_trial": 172, "dateTime": 1511195378588, "trialdata": {"rt": -1, "stimulus": "<p id=\"stim\">CARRIAGE</p>", "key_press": -1, "type": "PRES_VIS", "word": "carriage", "wordID": 247, "conditions": [24, 800, "v", 12000], "trial": 4, "serialpos": 15, "trial_type": "single-stim", "trial_index": 172, "time_elapsed": 3235855, "internal_node_id": "0.0-127.0"}}, {"uniqueid": "MTK0509:39GAF6DQWS7KGU7A8ERTVTT5ZXJV1O", "current_trial": 173, "dateTime": 1511195380561, "trialdata": {"rt": -1, "stimulus": "<p id=\"stim\">COOKBOOK</p>", "key_press": -1, "type": "PRES_VIS", "word": "cookbook", "wordID": 372, "conditions": [24, 800, "v", 12000], "trial": 4, "serialpos": 16, "trial_type": "single-stim", "trial_index": 173, "time_elapsed": 3237828, "internal_node_id": "0.0-128.0"}}, {"uniqueid": "MTK0509:39GAF6DQWS7KGU7A8ERTVTT5ZXJV1O", "current_trial": 174, "dateTime": 1511195382279, "trialdata": {"rt": -1, "stimulus": "<p id=\"stim\">STUDENT</p>", "key_press": -1, "type": "PRES_VIS", "word": "student", "wordID": 1394, "conditions": [24, 800, "v", 12000], "trial": 4, "serialpos": 17, "trial_type": "single-stim", "trial_index": 174, "time_elapsed": 3239546, "internal_node_id": "0.0-129.0"}}, {"uniqueid": "MTK0509:39GAF6DQWS7KGU7A8ERTVTT5ZXJV1O", "current_trial": 175, "dateTime": 1511195383945, "trialdata": {"rt": -1, "stimulus": "<p id=\"stim\">LAGOON</p>", "key_press": -1, "type": "PRES_VIS", "word": "lagoon", "wordID": 794, "conditions": [24, 800, "v", 12000], "trial": 4, "serialpos": 18, "trial_type": "single-stim", "trial_index": 175, "time_elapsed": 3241212, "internal_node_id": "0.0-130.0"}}, {"uniqueid": "MTK0509:39GAF6DQWS7KGU7A8ERTVTT5ZXJV1O", "current_trial": 176, "dateTime": 1511195385851, "trialdata": {"rt": -1, "stimulus": "<p id=\"stim\">SUNSET</p>", "key_press": -1, "type": "PRES_VIS", "word": "sunset", "wordID": 1407, "conditions": [24, 800, "v", 12000], "trial": 4, "serialpos": 19, "trial_type": "single-stim", "trial_index": 176, "time_elapsed": 3243118, "internal_node_id": "0.0-131.0"}}, {"uniqueid": "MTK0509:39GAF6DQWS7KGU7A8ERTVTT5ZXJV1O", "current_trial": 177, "dateTime": 1511195387779, "trialdata": {"rt": -1, "stimulus": "<p id=\"stim\">SPARROW</p>", "key_press": -1, "type": "PRES_VIS", "word": "sparrow", "wordID": 1346, "conditions": [24, 800, "v", 12000], "trial": 4, "serialpos": 20, "trial_type": "single-stim", "trial_index": 177, "time_elapsed": 3245046, "internal_node_id": "0.0-132.0"}}, {"uniqueid": "MTK0509:39GAF6DQWS7KGU7A8ERTVTT5ZXJV1O", "current_trial": 178, "dateTime": 1511195389588, "trialdata": {"rt": -1, "stimulus": "<p id=\"stim\">DUSTPAN</p>", "key_press": -1, "type": "PRES_VIS", "word": "dustpan", "wordID": 508, "conditions": [24, 800, "v", 12000], "trial": 4, "serialpos": 21, "trial_type": "single-stim", "trial_index": 178, "time_elapsed": 3246853, "internal_node_id": "0.0-133.0"}}, {"uniqueid": "MTK0509:39GAF6DQWS7KGU7A8ERTVTT5ZXJV1O", "current_trial": 179, "dateTime": 1511195391246, "trialdata": {"rt": -1, "stimulus": "<p id=\"stim\">BLENDER</p>", "key_press": -1, "type": "PRES_VIS", "word": "blender", "wordID": 135, "conditions": [24, 800, "v", 12000], "trial": 4, "serialpos": 22, "trial_type": "single-stim", "trial_index": 179, "time_elapsed": 3248513, "internal_node_id": "0.0-134.0"}}, {"uniqueid": "MTK0509:39GAF6DQWS7KGU7A8ERTVTT5ZXJV1O", "current_trial": 180, "dateTime": 1511195392918, "trialdata": {"rt": -1, "stimulus": "<p id=\"stim\">TEACHER</p>", "key_press": -1, "type": "PRES_VIS", "word": "teacher", "wordID": 1439, "conditions": [24, 800, "v", 12000], "trial": 4, "serialpos": 23, "trial_type": "single-stim", "trial_index": 180, "time_elapsed": 3250185, "internal_node_id": "0.0-135.0"}}, {"uniqueid": "MTK0509:39GAF6DQWS7KGU7A8ERTVTT5ZXJV1O", "current_trial": 181, "dateTime": 1511195395268, "trialdata": {"rt": -1, "stimulus": "", "key_press": -1, "type": "PRE_RECALL_DELAY", "trial_type": "single-stim", "trial_index": 181, "time_elapsed": 3252535, "internal_node_id": "0.0-136.0-0.0"}}, {"uniqueid": "MTK0509:39GAF6DQWS7KGU7A8ERTVTT5ZXJV1O", "current_trial": 182, "dateTime": 1511195395770, "trialdata": {"rt": -1000, "stimulus": "/static/audio/400Hz.wav", "key_press": -1, "type": "PRE_RECALL_ALERT", "trial_type": "single-audio", "trial_index": 182, "time_elapsed": 3253037, "internal_node_id": "0.0-137.0"}}, {"uniqueid": "MTK0509:39GAF6DQWS7KGU7A8ERTVTT5ZXJV1O", "current_trial": 183, "dateTime": 1511195456255, "trialdata": {"rt": [3230, 5487, 7599, 16025, 17905, 20977, 23721, 34993, 36976, 38881], "recwords": ["dustpan", "blender", "teacher", "donkey", "fungus", "termite", "relish", "actor", "perfume", "actress"], "type": "FREE_RECALL", "conditions": [24, 800, "v", 12000], "trial": 4, "trial_type": "free-recall", "trial_index": 183, "time_elapsed": 3313516, "internal_node_id": "0.0-138.0-0.0"}}, {"uniqueid": "MTK0509:39GAF6DQWS7KGU7A8ERTVTT5ZXJV1O", "current_trial": 184, "dateTime": 1511195503777, "trialdata": {"rt": 45518, "key_press": 32, "type": "INSTRUCTIONS", "trial_type": "text", "trial_index": 184, "time_elapsed": 3361044, "internal_node_id": "0.0-139.0"}}, {"uniqueid": "MTK0509:39GAF6DQWS7KGU7A8ERTVTT5ZXJV1O", "current_trial": 185, "dateTime": 1511195517788, "trialdata": {"rt": [1697, 3617, 6945, 8688, 11041], "responses": ["14", "21", "25", "13", "19"], "num1": [2, 9, 9, 5, 6, 9], "num2": [8, 9, 7, 3, 4, 5], "num3": [4, 3, 9, 5, 9, 5], "type": "DISTRACTOR", "conditions": [12, 800, "a", 12000], "trial": 5, "trial_type": "math-distractor", "trial_index": 185, "time_elapsed": 3375055, "internal_node_id": "0.0-140.0"}}, {"uniqueid": "MTK0509:39GAF6DQWS7KGU7A8ERTVTT5ZXJV1O", "current_trial": 186, "dateTime": 1511195520795, "trialdata": {"rt": -1, "stimulus": "<p id=\"stim\">10</p>", "key_press": -1, "trial_type": "single-stim", "trial_index": 186, "time_elapsed": 3378062, "internal_node_id": "0.0-141.0-0.0"}}, {"uniqueid": "MTK0509:39GAF6DQWS7KGU7A8ERTVTT5ZXJV1O", "current_trial": 187, "dateTime": 1511195521799, "trialdata": {"rt": -1, "stimulus": "<p id=\"stim\">9</p>", "key_press": -1, "trial_type": "single-stim", "trial_index": 187, "time_elapsed": 3379066, "internal_node_id": "0.0-141.0-1.0"}}, {"uniqueid": "MTK0509:39GAF6DQWS7KGU7A8ERTVTT5ZXJV1O", "current_trial": 188, "dateTime": 1511195522803, "trialdata": {"rt": -1, "stimulus": "<p id=\"stim\">8</p>", "key_press": -1, "trial_type": "single-stim", "trial_index": 188, "time_elapsed": 3380070, "internal_node_id": "0.0-141.0-2.0"}}, {"uniqueid": "MTK0509:39GAF6DQWS7KGU7A8ERTVTT5ZXJV1O", "current_trial": 189, "dateTime": 1511195523807, "trialdata": {"rt": -1, "stimulus": "<p id=\"stim\">7</p>", "key_press": -1, "trial_type": "single-stim", "trial_index": 189, "time_elapsed": 3381074, "internal_node_id": "0.0-141.0-3.0"}}, {"uniqueid": "MTK0509:39GAF6DQWS7KGU7A8ERTVTT5ZXJV1O", "current_trial": 190, "dateTime": 1511195524811, "trialdata": {"rt": -1, "stimulus": "<p id=\"stim\">6</p>", "key_press": -1, "trial_type": "single-stim", "trial_index": 190, "time_elapsed": 3382078, "internal_node_id": "0.0-141.0-4.0"}}, {"uniqueid": "MTK0509:39GAF6DQWS7KGU7A8ERTVTT5ZXJV1O", "current_trial": 191, "dateTime": 1511195525817, "trialdata": {"rt": -1, "stimulus": "<p id=\"stim\">5</p>", "key_press": -1, "trial_type": "single-stim", "trial_index": 191, "time_elapsed": 3383084, "internal_node_id": "0.0-141.0-5.0"}}, {"uniqueid": "MTK0509:39GAF6DQWS7KGU7A8ERTVTT5ZXJV1O", "current_trial": 192, "dateTime": 1511195526824, "trialdata": {"rt": -1, "stimulus": "<p id=\"stim\">4</p>", "key_press": -1, "trial_type": "single-stim", "trial_index": 192, "time_elapsed": 3384091, "internal_node_id": "0.0-141.0-6.0"}}, {"uniqueid": "MTK0509:39GAF6DQWS7KGU7A8ERTVTT5ZXJV1O", "current_trial": 193, "dateTime": 1511195527829, "trialdata": {"rt": -1, "stimulus": "<p id=\"stim\">3</p>", "key_press": -1, "trial_type": "single-stim", "trial_index": 193, "time_elapsed": 3385096, "internal_node_id": "0.0-141.0-7.0"}}, {"uniqueid": "MTK0509:39GAF6DQWS7KGU7A8ERTVTT5ZXJV1O", "current_trial": 194, "dateTime": 1511195528833, "trialdata": {"rt": -1, "stimulus": "<p id=\"stim\">2</p>", "key_press": -1, "trial_type": "single-stim", "trial_index": 194, "time_elapsed": 3386100, "internal_node_id": "0.0-141.0-8.0"}}, {"uniqueid": "MTK0509:39GAF6DQWS7KGU7A8ERTVTT5ZXJV1O", "current_trial": 195, "dateTime": 1511195529844, "trialdata": {"rt": -1, "stimulus": "<p id=\"stim\">1</p>", "key_press": -1, "trial_type": "single-stim", "trial_index": 195, "time_elapsed": 3387111, "internal_node_id": "0.0-141.0-9.0"}}, {"uniqueid": "MTK0509:39GAF6DQWS7KGU7A8ERTVTT5ZXJV1O", "current_trial": 196, "dateTime": 1511195531346, "trialdata": {"rt": -1, "stimulus": "<p id=\"stim\">+</p>", "key_press": -1, "type": "FIXATION", "trial_type": "single-stim", "trial_index": 196, "time_elapsed": 3388613, "internal_node_id": "0.0-142.0-0.0"}}, {"uniqueid": "MTK0509:39GAF6DQWS7KGU7A8ERTVTT5ZXJV1O", "current_trial": 197, "dateTime": 1511195533280, "trialdata": {"rt": -1000, "stimulus": "/static/audio/wordpool/MAMMAL.wav", "key_press": -1, "type": "PRES_AUD", "word": "mammal", "wordID": 860, "conditions": [12, 800, "a", 12000], "trial": 5, "serialpos": 0, "trial_type": "single-audio", "trial_index": 197, "time_elapsed": 3390547, "internal_node_id": "0.0-143.0"}}, {"uniqueid": "MTK0509:39GAF6DQWS7KGU7A8ERTVTT5ZXJV1O", "current_trial": 198, "dateTime": 1511195535022, "trialdata": {"rt": -1000, "stimulus": "/static/audio/wordpool/DOLPHIN.wav", "key_press": -1, "type": "PRES_AUD", "word": "dolphin", "wordID": 482, "conditions": [12, 800, "a", 12000], "trial": 5, "serialpos": 1, "trial_type": "single-audio", "trial_index": 198, "time_elapsed": 3392288, "internal_node_id": "0.0-144.0"}}, {"uniqueid": "MTK0509:39GAF6DQWS7KGU7A8ERTVTT5ZXJV1O", "current_trial": 199, "dateTime": 1511195536734, "trialdata": {"rt": -1000, "stimulus": "/static/audio/wordpool/NOMAD.wav", "key_press": -1, "type": "PRES_AUD", "word": "nomad", "wordID": 954, "conditions": [12, 800, "a", 12000], "trial": 5, "serialpos": 2, "trial_type": "single-audio", "trial_index": 199, "time_elapsed": 3394001, "internal_node_id": "0.0-145.0"}}, {"uniqueid": "MTK0509:39GAF6DQWS7KGU7A8ERTVTT5ZXJV1O", "current_trial": 200, "dateTime": 1511195538517, "trialdata": {"rt": -1000, "stimulus": "/static/audio/wordpool/CAFE.wav", "key_press": -1, "type": "PRES_AUD", "word": "cafe", "wordID": 215, "conditions": [12, 800, "a", 12000], "trial": 5, "serialpos": 3, "trial_type": "single-audio", "trial_index": 200, "time_elapsed": 3395783, "internal_node_id": "0.0-146.0"}}, {"uniqueid": "MTK0509:39GAF6DQWS7KGU7A8ERTVTT5ZXJV1O", "current_trial": 201, "dateTime": 1511195540207, "trialdata": {"rt": -1000, "stimulus": "/static/audio/wordpool/OX.wav", "key_press": -1, "type": "PRES_AUD", "word": "ox", "wordID": 993, "conditions": [12, 800, "a", 12000], "trial": 5, "serialpos": 4, "trial_type": "single-audio", "trial_index": 201, "time_elapsed": 3397472, "internal_node_id": "0.0-147.0"}}, {"uniqueid": "MTK0509:39GAF6DQWS7KGU7A8ERTVTT5ZXJV1O", "current_trial": 202, "dateTime": 1511195542109, "trialdata": {"rt": -1000, "stimulus": "/static/audio/wordpool/COBRA.wav", "key_press": -1, "type": "PRES_AUD", "word": "cobra", "wordID": 335, "conditions": [12, 800, "a", 12000], "trial": 5, "serialpos": 5, "trial_type": "single-audio", "trial_index": 202, "time_elapsed": 3399376, "internal_node_id": "0.0-148.0"}}, {"uniqueid": "MTK0509:39GAF6DQWS7KGU7A8ERTVTT5ZXJV1O", "current_trial": 203, "dateTime": 1511195543793, "trialdata": {"rt": -1000, "stimulus": "/static/audio/wordpool/ULCER.wav", "key_press": -1, "type": "PRES_AUD", "word": "ulcer", "wordID": 1532, "conditions": [12, 800, "a", 12000], "trial": 5, "serialpos": 6, "trial_type": "single-audio", "trial_index": 203, "time_elapsed": 3401060, "internal_node_id": "0.0-149.0"}}, {"uniqueid": "MTK0509:39GAF6DQWS7KGU7A8ERTVTT5ZXJV1O", "current_trial": 204, "dateTime": 1511195545557, "trialdata": {"rt": -1000, "stimulus": "/static/audio/wordpool/VALVE.wav", "key_press": -1, "type": "PRES_AUD", "word": "valve", "wordID": 1545, "conditions": [12, 800, "a", 12000], "trial": 5, "serialpos": 7, "trial_type": "single-audio", "trial_index": 204, "time_elapsed": 3402824, "internal_node_id": "0.0-150.0"}}, {"uniqueid": "MTK0509:39GAF6DQWS7KGU7A8ERTVTT5ZXJV1O", "current_trial": 205, "dateTime": 1511195547531, "trialdata": {"rt": -1000, "stimulus": "/static/audio/wordpool/CANDY.wav", "key_press": -1, "type": "PRES_AUD", "word": "candy", "wordID": 229, "conditions": [12, 800, "a", 12000], "trial": 5, "serialpos": 8, "trial_type": "single-audio", "trial_index": 205, "time_elapsed": 3404798, "internal_node_id": "0.0-151.0"}}, {"uniqueid": "MTK0509:39GAF6DQWS7KGU7A8ERTVTT5ZXJV1O", "current_trial": 206, "dateTime": 1511195549348, "trialdata": {"rt": -1000, "stimulus": "/static/audio/wordpool/YARN.wav", "key_press": -1, "type": "PRES_AUD", "word": "yarn", "wordID": 1630, "conditions": [12, 800, "a", 12000], "trial": 5, "serialpos": 9, "trial_type": "single-audio", "trial_index": 206, "time_elapsed": 3406615, "internal_node_id": "0.0-152.0"}}, {"uniqueid": "MTK0509:39GAF6DQWS7KGU7A8ERTVTT5ZXJV1O", "current_trial": 207, "dateTime": 1511195550979, "trialdata": {"rt": -1000, "stimulus": "/static/audio/wordpool/PISTON.wav", "key_press": -1, "type": "PRES_AUD", "word": "piston", "wordID": 1075, "conditions": [12, 800, "a", 12000], "trial": 5, "serialpos": 10, "trial_type": "single-audio", "trial_index": 207, "time_elapsed": 3408246, "internal_node_id": "0.0-153.0"}}, {"uniqueid": "MTK0509:39GAF6DQWS7KGU7A8ERTVTT5ZXJV1O", "current_trial": 208, "dateTime": 1511195552715, "trialdata": {"rt": -1000, "stimulus": "/static/audio/wordpool/CHURCH.wav", "key_press": -1, "type": "PRES_AUD", "word": "church", "wordID": 306, "conditions": [12, 800, "a", 12000], "trial": 5, "serialpos": 11, "trial_type": "single-audio", "trial_index": 208, "time_elapsed": 3409982, "internal_node_id": "0.0-154.0"}}, {"uniqueid": "MTK0509:39GAF6DQWS7KGU7A8ERTVTT5ZXJV1O", "current_trial": 209, "dateTime": 1511195553953, "trialdata": {"rt": -1, "stimulus": "", "key_press": -1, "type": "PRE_RECALL_DELAY", "trial_type": "single-stim", "trial_index": 209, "time_elapsed": 3411220, "internal_node_id": "0.0-155.0-0.0"}}, {"uniqueid": "MTK0509:39GAF6DQWS7KGU7A8ERTVTT5ZXJV1O", "current_trial": 210, "dateTime": 1511195554456, "trialdata": {"rt": -1000, "stimulus": "/static/audio/400Hz.wav", "key_press": -1, "type": "PRE_RECALL_ALERT", "trial_type": "single-audio", "trial_index": 210, "time_elapsed": 3411723, "internal_node_id": "0.0-156.0"}}, {"uniqueid": "MTK0509:39GAF6DQWS7KGU7A8ERTVTT5ZXJV1O", "current_trial": 211, "dateTime": 1511195614465, "trialdata": {"rt": [6105, 8737, 10129, 12137, 15234, 17241, 19873, 22640, 25865, 28520, 29664, 33856, 42696, 47832, 51152, 53240, 59480], "recwords": ["piston", "church", "yarn", "candy", "valve", "ulcer", "cobra", "moose", "cafe", "dolphin", "mammal", "nomad", "mammoth", "snake", "elcer", "ulcer", "string"], "type": "FREE_RECALL", "conditions": [12, 800, "a", 12000], "trial": 5, "trial_type": "free-recall", "trial_index": 211, "time_elapsed": 3471728, "internal_node_id": "0.0-157.0-0.0"}}, {"uniqueid": "MTK0509:39GAF6DQWS7KGU7A8ERTVTT5ZXJV1O", "current_trial": 212, "dateTime": 1511195682429, "trialdata": {"rt": 65957, "key_press": 32, "type": "INSTRUCTIONS", "trial_type": "text", "trial_index": 212, "time_elapsed": 3539696, "internal_node_id": "0.0-158.0"}}, {"uniqueid": "MTK0509:39GAF6DQWS7KGU7A8ERTVTT5ZXJV1O", "current_trial": 213, "dateTime": 1511195696438, "trialdata": {"rt": [2881, 5185, 6913, 9385, 11689], "responses": ["17", "16", "18", "14", "17"], "num1": [5, 7, 1, 5, 8, 7], "num2": [3, 3, 9, 7, 1, 1], "num3": [9, 6, 8, 2, 8, 6], "type": "DISTRACTOR", "conditions": [24, 800, "a", 12000], "trial": 6, "trial_type": "math-distractor", "trial_index": 213, "time_elapsed": 3553705, "internal_node_id": "0.0-159.0"}}, {"uniqueid": "MTK0509:39GAF6DQWS7KGU7A8ERTVTT5ZXJV1O", "current_trial": 214, "dateTime": 1511195699444, "trialdata": {"rt": -1, "stimulus": "<p id=\"stim\">10</p>", "key_press": -1, "trial_type": "single-stim", "trial_index": 214, "time_elapsed": 3556710, "internal_node_id": "0.0-160.0-0.0"}}, {"uniqueid": "MTK0509:39GAF6DQWS7KGU7A8ERTVTT5ZXJV1O", "current_trial": 215, "dateTime": 1511195700448, "trialdata": {"rt": -1, "stimulus": "<p id=\"stim\">9</p>", "key_press": -1, "trial_type": "single-stim", "trial_index": 215, "time_elapsed": 3557714, "internal_node_id": "0.0-160.0-1.0"}}, {"uniqueid": "MTK0509:39GAF6DQWS7KGU7A8ERTVTT5ZXJV1O", "current_trial": 216, "dateTime": 1511195701452, "trialdata": {"rt": -1, "stimulus": "<p id=\"stim\">8</p>", "key_press": -1, "trial_type": "single-stim", "trial_index": 216, "time_elapsed": 3558719, "internal_node_id": "0.0-160.0-2.0"}}, {"uniqueid": "MTK0509:39GAF6DQWS7KGU7A8ERTVTT5ZXJV1O", "current_trial": 217, "dateTime": 1511195702456, "trialdata": {"rt": -1, "stimulus": "<p id=\"stim\">7</p>", "key_press": -1, "trial_type": "single-stim", "trial_index": 217, "time_elapsed": 3559723, "internal_node_id": "0.0-160.0-3.0"}}, {"uniqueid": "MTK0509:39GAF6DQWS7KGU7A8ERTVTT5ZXJV1O", "current_trial": 218, "dateTime": 1511195703459, "trialdata": {"rt": -1, "stimulus": "<p id=\"stim\">6</p>", "key_press": -1, "trial_type": "single-stim", "trial_index": 218, "time_elapsed": 3560726, "internal_node_id": "0.0-160.0-4.0"}}, {"uniqueid": "MTK0509:39GAF6DQWS7KGU7A8ERTVTT5ZXJV1O", "current_trial": 219, "dateTime": 1511195704464, "trialdata": {"rt": -1, "stimulus": "<p id=\"stim\">5</p>", "key_press": -1, "trial_type": "single-stim", "trial_index": 219, "time_elapsed": 3561731, "internal_node_id": "0.0-160.0-5.0"}}, {"uniqueid": "MTK0509:39GAF6DQWS7KGU7A8ERTVTT5ZXJV1O", "current_trial": 220, "dateTime": 1511195705467, "trialdata": {"rt": -1, "stimulus": "<p id=\"stim\">4</p>", "key_press": -1, "trial_type": "single-stim", "trial_index": 220, "time_elapsed": 3562734, "internal_node_id": "0.0-160.0-6.0"}}, {"uniqueid": "MTK0509:39GAF6DQWS7KGU7A8ERTVTT5ZXJV1O", "current_trial": 221, "dateTime": 1511195706472, "trialdata": {"rt": -1, "stimulus": "<p id=\"stim\">3</p>", "key_press": -1, "trial_type": "single-stim", "trial_index": 221, "time_elapsed": 3563739, "internal_node_id": "0.0-160.0-7.0"}}, {"uniqueid": "MTK0509:39GAF6DQWS7KGU7A8ERTVTT5ZXJV1O", "current_trial": 222, "dateTime": 1511195707476, "trialdata": {"rt": -1, "stimulus": "<p id=\"stim\">2</p>", "key_press": -1, "trial_type": "single-stim", "trial_index": 222, "time_elapsed": 3564743, "internal_node_id": "0.0-160.0-8.0"}}, {"uniqueid": "MTK0509:39GAF6DQWS7KGU7A8ERTVTT5ZXJV1O", "current_trial": 223, "dateTime": 1511195708480, "trialdata": {"rt": -1, "stimulus": "<p id=\"stim\">1</p>", "key_press": -1, "trial_type": "single-stim", "trial_index": 223, "time_elapsed": 3565747, "internal_node_id": "0.0-160.0-9.0"}}, {"uniqueid": "MTK0509:39GAF6DQWS7KGU7A8ERTVTT5ZXJV1O", "current_trial": 224, "dateTime": 1511195709983, "trialdata": {"rt": -1, "stimulus": "<p id=\"stim\">+</p>", "key_press": -1, "type": "FIXATION", "trial_type": "single-stim", "trial_index": 224, "time_elapsed": 3567250, "internal_node_id": "0.0-161.0-0.0"}}, {"uniqueid": "MTK0509:39GAF6DQWS7KGU7A8ERTVTT5ZXJV1O", "current_trial": 225, "dateTime": 1511195711906, "trialdata": {"rt": -1000, "stimulus": "/static/audio/wordpool/YACHT.wav", "key_press": -1, "type": "PRES_AUD", "word": "yacht", "wordID": 1628, "conditions": [24, 800, "a", 12000], "trial": 6, "serialpos": 0, "trial_type": "single-audio", "trial_index": 225, "time_elapsed": 3569172, "internal_node_id": "0.0-162.0"}}, {"uniqueid": "MTK0509:39GAF6DQWS7KGU7A8ERTVTT5ZXJV1O", "current_trial": 226, "dateTime": 1511195713649, "trialdata": {"rt": -1000, "stimulus": "/static/audio/wordpool/RATTLE.wav", "key_press": -1, "type": "PRES_AUD", "word": "rattle", "wordID": 1169, "conditions": [24, 800, "a", 12000], "trial": 6, "serialpos": 1, "trial_type": "single-audio", "trial_index": 226, "time_elapsed": 3570916, "internal_node_id": "0.0-163.0"}}, {"uniqueid": "MTK0509:39GAF6DQWS7KGU7A8ERTVTT5ZXJV1O", "current_trial": 227, "dateTime": 1511195715371, "trialdata": {"rt": -1000, "stimulus": "/static/audio/wordpool/PIANO.wav", "key_press": -1, "type": "PRES_AUD", "word": "piano", "wordID": 1056, "conditions": [24, 800, "a", 12000], "trial": 6, "serialpos": 2, "trial_type": "single-audio", "trial_index": 227, "time_elapsed": 3572638, "internal_node_id": "0.0-164.0"}}, {"uniqueid": "MTK0509:39GAF6DQWS7KGU7A8ERTVTT5ZXJV1O", "current_trial": 228, "dateTime": 1511195717272, "trialdata": {"rt": -1000, "stimulus": "/static/audio/wordpool/SLOPE.wav", "key_press": -1, "type": "PRES_AUD", "word": "slope", "wordID": 1327, "conditions": [24, 800, "a", 12000], "trial": 6, "serialpos": 3, "trial_type": "single-audio", "trial_index": 228, "time_elapsed": 3574538, "internal_node_id": "0.0-165.0"}}, {"uniqueid": "MTK0509:39GAF6DQWS7KGU7A8ERTVTT5ZXJV1O", "current_trial": 229, "dateTime": 1511195719011, "trialdata": {"rt": -1000, "stimulus": "/static/audio/wordpool/PORK.wav", "key_press": -1, "type": "PRES_AUD", "word": "pork", "wordID": 1107, "conditions": [24, 800, "a", 12000], "trial": 6, "serialpos": 4, "trial_type": "single-audio", "trial_index": 229, "time_elapsed": 3576277, "internal_node_id": "0.0-166.0"}}, {"uniqueid": "MTK0509:39GAF6DQWS7KGU7A8ERTVTT5ZXJV1O", "current_trial": 230, "dateTime": 1511195720975, "trialdata": {"rt": -1000, "stimulus": "/static/audio/wordpool/WARDROBE.wav", "key_press": -1, "type": "PRES_AUD", "word": "wardrobe", "wordID": 1586, "conditions": [24, 800, "a", 12000], "trial": 6, "serialpos": 5, "trial_type": "single-audio", "trial_index": 230, "time_elapsed": 3578242, "internal_node_id": "0.0-167.0"}}, {"uniqueid": "MTK0509:39GAF6DQWS7KGU7A8ERTVTT5ZXJV1O", "current_trial": 231, "dateTime": 1511195722877, "trialdata": {"rt": -1000, "stimulus": "/static/audio/wordpool/CLOTHES.wav", "key_press": -1, "type": "PRES_AUD", "word": "clothes", "wordID": 326, "conditions": [24, 800, "a", 12000], "trial": 6, "serialpos": 6, "trial_type": "single-audio", "trial_index": 231, "time_elapsed": 3580144, "internal_node_id": "0.0-168.0"}}, {"uniqueid": "MTK0509:39GAF6DQWS7KGU7A8ERTVTT5ZXJV1O", "current_trial": 232, "dateTime": 1511195724543, "trialdata": {"rt": -1000, "stimulus": "/static/audio/wordpool/PUDDING.wav", "key_press": -1, "type": "PRES_AUD", "word": "pudding", "wordID": 1138, "conditions": [24, 800, "a", 12000], "trial": 6, "serialpos": 7, "trial_type": "single-audio", "trial_index": 232, "time_elapsed": 3581810, "internal_node_id": "0.0-169.0"}}, {"uniqueid": "MTK0509:39GAF6DQWS7KGU7A8ERTVTT5ZXJV1O", "current_trial": 233, "dateTime": 1511195726499, "trialdata": {"rt": -1000, "stimulus": "/static/audio/wordpool/BEEF.wav", "key_press": -1, "type": "PRES_AUD", "word": "beef", "wordID": 112, "conditions": [24, 800, "a", 12000], "trial": 6, "serialpos": 8, "trial_type": "single-audio", "trial_index": 233, "time_elapsed": 3583766, "internal_node_id": "0.0-170.0"}}, {"uniqueid": "MTK0509:39GAF6DQWS7KGU7A8ERTVTT5ZXJV1O", "current_trial": 234, "dateTime": 1511195728113, "trialdata": {"rt": -1000, "stimulus": "/static/audio/wordpool/SEAFOOD.wav", "key_press": -1, "type": "PRES_AUD", "word": "seafood", "wordID": 1259, "conditions": [24, 800, "a", 12000], "trial": 6, "serialpos": 9, "trial_type": "single-audio", "trial_index": 234, "time_elapsed": 3585380, "internal_node_id": "0.0-171.0"}}, {"uniqueid": "MTK0509:39GAF6DQWS7KGU7A8ERTVTT5ZXJV1O", "current_trial": 235, "dateTime": 1511195729953, "trialdata": {"rt": -1000, "stimulus": "/static/audio/wordpool/VELVET.wav", "key_press": -1, "type": "PRES_AUD", "word": "velvet", "wordID": 1554, "conditions": [24, 800, "a", 12000], "trial": 6, "serialpos": 10, "trial_type": "single-audio", "trial_index": 235, "time_elapsed": 3587220, "internal_node_id": "0.0-172.0"}}, {"uniqueid": "MTK0509:39GAF6DQWS7KGU7A8ERTVTT5ZXJV1O", "current_trial": 236, "dateTime": 1511195731608, "trialdata": {"rt": -1000, "stimulus": "/static/audio/wordpool/DRIVER.wav", "key_press": -1, "type": "PRES_AUD", "word": "driver", "wordID": 498, "conditions": [24, 800, "a", 12000], "trial": 6, "serialpos": 11, "trial_type": "single-audio", "trial_index": 236, "time_elapsed": 3588875, "internal_node_id": "0.0-173.0"}}, {"uniqueid": "MTK0509:39GAF6DQWS7KGU7A8ERTVTT5ZXJV1O", "current_trial": 237, "dateTime": 1511195733271, "trialdata": {"rt": -1000, "stimulus": "/static/audio/wordpool/TOMBSTONE.wav", "key_press": -1, "type": "PRES_AUD", "word": "tombstone", "wordID": 1477, "conditions": [24, 800, "a", 12000], "trial": 6, "serialpos": 12, "trial_type": "single-audio", "trial_index": 237, "time_elapsed": 3590538, "internal_node_id": "0.0-174.0"}}, {"uniqueid": "MTK0509:39GAF6DQWS7KGU7A8ERTVTT5ZXJV1O", "current_trial": 238, "dateTime": 1511195735148, "trialdata": {"rt": -1000, "stimulus": "/static/audio/wordpool/COUCH.wav", "key_press": -1, "type": "PRES_AUD", "word": "couch", "wordID": 385, "conditions": [24, 800, "a", 12000], "trial": 6, "serialpos": 13, "trial_type": "single-audio", "trial_index": 238, "time_elapsed": 3592415, "internal_node_id": "0.0-175.0"}}, {"uniqueid": "MTK0509:39GAF6DQWS7KGU7A8ERTVTT5ZXJV1O", "current_trial": 239, "dateTime": 1511195736917, "trialdata": {"rt": -1000, "stimulus": "/static/audio/wordpool/SHOVEL.wav", "key_press": -1, "type": "PRES_AUD", "word": "shovel", "wordID": 1294, "conditions": [24, 800, "a", 12000], "trial": 6, "serialpos": 14, "trial_type": "single-audio", "trial_index": 239, "time_elapsed": 3594184, "internal_node_id": "0.0-176.0"}}, {"uniqueid": "MTK0509:39GAF6DQWS7KGU7A8ERTVTT5ZXJV1O", "current_trial": 240, "dateTime": 1511195738736, "trialdata": {"rt": -1000, "stimulus": "/static/audio/wordpool/CHIPMUNK.wav", "key_press": -1, "type": "PRES_AUD", "word": "chipmunk", "wordID": 303, "conditions": [24, 800, "a", 12000], "trial": 6, "serialpos": 15, "trial_type": "single-audio", "trial_index": 240, "time_elapsed": 3596002, "internal_node_id": "0.0-177.0"}}, {"uniqueid": "MTK0509:39GAF6DQWS7KGU7A8ERTVTT5ZXJV1O", "current_trial": 241, "dateTime": 1511195740442, "trialdata": {"rt": -1000, "stimulus": "/static/audio/wordpool/RABBIT.wav", "key_press": -1, "type": "PRES_AUD", "word": "rabbit", "wordID": 1151, "conditions": [24, 800, "a", 12000], "trial": 6, "serialpos": 16, "trial_type": "single-audio", "trial_index": 241, "time_elapsed": 3597709, "internal_node_id": "0.0-178.0"}}, {"uniqueid": "MTK0509:39GAF6DQWS7KGU7A8ERTVTT5ZXJV1O", "current_trial": 242, "dateTime": 1511195742265, "trialdata": {"rt": -1000, "stimulus": "/static/audio/wordpool/SIDEWALK.wav", "key_press": -1, "type": "PRES_AUD", "word": "sidewalk", "wordID": 1302, "conditions": [24, 800, "a", 12000], "trial": 6, "serialpos": 17, "trial_type": "single-audio", "trial_index": 242, "time_elapsed": 3599532, "internal_node_id": "0.0-179.0"}}, {"uniqueid": "MTK0509:39GAF6DQWS7KGU7A8ERTVTT5ZXJV1O", "current_trial": 243, "dateTime": 1511195743896, "trialdata": {"rt": -1000, "stimulus": "/static/audio/wordpool/ANKLE.wav", "key_press": -1, "type": "PRES_AUD", "word": "ankle", "wordID": 23, "conditions": [24, 800, "a", 12000], "trial": 6, "serialpos": 18, "trial_type": "single-audio", "trial_index": 243, "time_elapsed": 3601163, "internal_node_id": "0.0-180.0"}}, {"uniqueid": "MTK0509:39GAF6DQWS7KGU7A8ERTVTT5ZXJV1O", "current_trial": 244, "dateTime": 1511195745874, "trialdata": {"rt": -1000, "stimulus": "/static/audio/wordpool/BRANCH.wav", "key_press": -1, "type": "PRES_AUD", "word": "branch", "wordID": 167, "conditions": [24, 800, "a", 12000], "trial": 6, "serialpos": 19, "trial_type": "single-audio", "trial_index": 244, "time_elapsed": 3603140, "internal_node_id": "0.0-181.0"}}, {"uniqueid": "MTK0509:39GAF6DQWS7KGU7A8ERTVTT5ZXJV1O", "current_trial": 245, "dateTime": 1511195747727, "trialdata": {"rt": -1000, "stimulus": "/static/audio/wordpool/SUBWAY.wav", "key_press": -1, "type": "PRES_AUD", "word": "subway", "wordID": 1399, "conditions": [24, 800, "a", 12000], "trial": 6, "serialpos": 20, "trial_type": "single-audio", "trial_index": 245, "time_elapsed": 3604994, "internal_node_id": "0.0-182.0"}}, {"uniqueid": "MTK0509:39GAF6DQWS7KGU7A8ERTVTT5ZXJV1O", "current_trial": 246, "dateTime": 1511195749678, "trialdata": {"rt": -1000, "stimulus": "/static/audio/wordpool/CHILD.wav", "key_press": -1, "type": "PRES_AUD", "word": "child", "wordID": 298, "conditions": [24, 800, "a", 12000], "trial": 6, "serialpos": 21, "trial_type": "single-audio", "trial_index": 246, "time_elapsed": 3606945, "internal_node_id": "0.0-183.0"}}, {"uniqueid": "MTK0509:39GAF6DQWS7KGU7A8ERTVTT5ZXJV1O", "current_trial": 247, "dateTime": 1511195751489, "trialdata": {"rt": -1000, "stimulus": "/static/audio/wordpool/COLLEGE.wav", "key_press": -1, "type": "PRES_AUD", "word": "college", "wordID": 345, "conditions": [24, 800, "a", 12000], "trial": 6, "serialpos": 22, "trial_type": "single-audio", "trial_index": 247, "time_elapsed": 3608756, "internal_node_id": "0.0-184.0"}}, {"uniqueid": "MTK0509:39GAF6DQWS7KGU7A8ERTVTT5ZXJV1O", "current_trial": 248, "dateTime": 1511195753283, "trialdata": {"rt": -1000, "stimulus": "/static/audio/wordpool/MATTRESS.wav", "key_press": -1, "type": "PRES_AUD", "word": "mattress", "wordID": 878, "conditions": [24, 800, "a", 12000], "trial": 6, "serialpos": 23, "trial_type": "single-audio", "trial_index": 248, "time_elapsed": 3610549, "internal_node_id": "0.0-185.0"}}, {"uniqueid": "MTK0509:39GAF6DQWS7KGU7A8ERTVTT5ZXJV1O", "current_trial": 249, "dateTime": 1511195754533, "trialdata": {"rt": -1, "stimulus": "", "key_press": -1, "type": "PRE_RECALL_DELAY", "trial_type": "single-stim", "trial_index": 249, "time_elapsed": 3611800, "internal_node_id": "0.0-186.0-0.0"}}, {"uniqueid": "MTK0509:39GAF6DQWS7KGU7A8ERTVTT5ZXJV1O", "current_trial": 250, "dateTime": 1511195755036, "trialdata": {"rt": -1000, "stimulus": "/static/audio/400Hz.wav", "key_press": -1, "type": "PRE_RECALL_ALERT", "trial_type": "single-audio", "trial_index": 250, "time_elapsed": 3612303, "internal_node_id": "0.0-187.0"}}, {"uniqueid": "MTK0509:39GAF6DQWS7KGU7A8ERTVTT5ZXJV1O", "current_trial": 251, "dateTime": 1511195815049, "trialdata": {"rt": [2011, 4098, 6578, 8250, 10522, 12946, 14570, 15786, 18618, 20978, 22754, 25970, 27890, 37345, 41625, 43193, 45891, 53065, 59209], "recwords": ["couch", "mattress", "shovel", "driver", "headstone", "velvet", "seafood", "beef", "pork", "slope", "piano", "yacht", "rattle", "seafood", "child", "college", "subway", "grave", "rabbit"], "type": "FREE_RECALL", "conditions": [24, 800, "a", 12000], "trial": 6, "trial_type": "free-recall", "trial_index": 251, "time_elapsed": 3672310, "internal_node_id": "0.0-188.0-0.0"}}, {"uniqueid": "MTK0509:39GAF6DQWS7KGU7A8ERTVTT5ZXJV1O", "current_trial": 252, "dateTime": 1511195818256, "trialdata": {"rt": 1205, "key_press": 32, "type": "INSTRUCTIONS", "trial_type": "text", "trial_index": 252, "time_elapsed": 3675522, "internal_node_id": "0.0-189.0"}}, {"uniqueid": "MTK0509:39GAF6DQWS7KGU7A8ERTVTT5ZXJV1O", "current_trial": 253, "dateTime": 1511195832264, "trialdata": {"rt": [6065, 8441, 10833], "responses": ["21", "12", "14"], "num1": [6, 6, 8, 3], "num2": [8, 5, 3, 4], "num3": [7, 1, 3, 9], "type": "DISTRACTOR", "conditions": [24, 1600, "v", 12000], "trial": 7, "trial_type": "math-distractor", "trial_index": 253, "time_elapsed": 3689531, "internal_node_id": "0.0-190.0"}}, {"uniqueid": "MTK0509:39GAF6DQWS7KGU7A8ERTVTT5ZXJV1O", "current_trial": 254, "dateTime": 1511195835275, "trialdata": {"rt": -1, "stimulus": "<p id=\"stim\">10</p>", "key_press": -1, "trial_type": "single-stim", "trial_index": 254, "time_elapsed": 3692541, "internal_node_id": "0.0-191.0-0.0"}}, {"uniqueid": "MTK0509:39GAF6DQWS7KGU7A8ERTVTT5ZXJV1O", "current_trial": 255, "dateTime": 1511195836279, "trialdata": {"rt": -1, "stimulus": "<p id=\"stim\">9</p>", "key_press": -1, "trial_type": "single-stim", "trial_index": 255, "time_elapsed": 3693546, "internal_node_id": "0.0-191.0-1.0"}}, {"uniqueid": "MTK0509:39GAF6DQWS7KGU7A8ERTVTT5ZXJV1O", "current_trial": 256, "dateTime": 1511195837283, "trialdata": {"rt": -1, "stimulus": "<p id=\"stim\">8</p>", "key_press": -1, "trial_type": "single-stim", "trial_index": 256, "time_elapsed": 3694550, "internal_node_id": "0.0-191.0-2.0"}}, {"uniqueid": "MTK0509:39GAF6DQWS7KGU7A8ERTVTT5ZXJV1O", "current_trial": 257, "dateTime": 1511195838287, "trialdata": {"rt": -1, "stimulus": "<p id=\"stim\">7</p>", "key_press": -1, "trial_type": "single-stim", "trial_index": 257, "time_elapsed": 3695554, "internal_node_id": "0.0-191.0-3.0"}}, {"uniqueid": "MTK0509:39GAF6DQWS7KGU7A8ERTVTT5ZXJV1O", "current_trial": 258, "dateTime": 1511195839291, "trialdata": {"rt": -1, "stimulus": "<p id=\"stim\">6</p>", "key_press": -1, "trial_type": "single-stim", "trial_index": 258, "time_elapsed": 3696558, "internal_node_id": "0.0-191.0-4.0"}}, {"uniqueid": "MTK0509:39GAF6DQWS7KGU7A8ERTVTT5ZXJV1O", "current_trial": 259, "dateTime": 1511195840295, "trialdata": {"rt": -1, "stimulus": "<p id=\"stim\">5</p>", "key_press": -1, "trial_type": "single-stim", "trial_index": 259, "time_elapsed": 3697562, "internal_node_id": "0.0-191.0-5.0"}}, {"uniqueid": "MTK0509:39GAF6DQWS7KGU7A8ERTVTT5ZXJV1O", "current_trial": 260, "dateTime": 1511195841299, "trialdata": {"rt": -1, "stimulus": "<p id=\"stim\">4</p>", "key_press": -1, "trial_type": "single-stim", "trial_index": 260, "time_elapsed": 3698566, "internal_node_id": "0.0-191.0-6.0"}}, {"uniqueid": "MTK0509:39GAF6DQWS7KGU7A8ERTVTT5ZXJV1O", "current_trial": 261, "dateTime": 1511195842304, "trialdata": {"rt": -1, "stimulus": "<p id=\"stim\">3</p>", "key_press": -1, "trial_type": "single-stim", "trial_index": 261, "time_elapsed": 3699570, "internal_node_id": "0.0-191.0-7.0"}}, {"uniqueid": "MTK0509:39GAF6DQWS7KGU7A8ERTVTT5ZXJV1O", "current_trial": 262, "dateTime": 1511195843308, "trialdata": {"rt": -1, "stimulus": "<p id=\"stim\">2</p>", "key_press": -1, "trial_type": "single-stim", "trial_index": 262, "time_elapsed": 3700574, "internal_node_id": "0.0-191.0-8.0"}}, {"uniqueid": "MTK0509:39GAF6DQWS7KGU7A8ERTVTT5ZXJV1O", "current_trial": 263, "dateTime": 1511195844312, "trialdata": {"rt": -1, "stimulus": "<p id=\"stim\">1</p>", "key_press": -1, "trial_type": "single-stim", "trial_index": 263, "time_elapsed": 3701578, "internal_node_id": "0.0-191.0-9.0"}}, {"uniqueid": "MTK0509:39GAF6DQWS7KGU7A8ERTVTT5ZXJV1O", "current_trial": 264, "dateTime": 1511195845814, "trialdata": {"rt": -1, "stimulus": "<p id=\"stim\">+</p>", "key_press": -1, "type": "FIXATION", "trial_type": "single-stim", "trial_index": 264, "time_elapsed": 3703081, "internal_node_id": "0.0-192.0-0.0"}}, {"uniqueid": "MTK0509:39GAF6DQWS7KGU7A8ERTVTT5ZXJV1O", "current_trial": 265, "dateTime": 1511195847419, "trialdata": {"rt": -1, "stimulus": "<p id=\"stim\">BANQUET</p>", "key_press": -1, "type": "PRES_VIS", "word": "banquet", "wordID": 85, "conditions": [24, 1600, "v", 12000], "trial": 7, "serialpos": 0, "trial_type": "single-stim", "trial_index": 265, "time_elapsed": 3704686, "internal_node_id": "0.0-193.0"}}, {"uniqueid": "MTK0509:39GAF6DQWS7KGU7A8ERTVTT5ZXJV1O", "current_trial": 266, "dateTime": 1511195849849, "trialdata": {"rt": -1, "stimulus": "<p id=\"stim\">PASTA</p>", "key_press": -1, "type": "PRES_VIS", "word": "pasta", "wordID": 1020, "conditions": [24, 1600, "v", 12000], "trial": 7, "serialpos": 1, "trial_type": "single-stim", "trial_index": 266, "time_elapsed": 3707116, "internal_node_id": "0.0-194.0"}}, {"uniqueid": "MTK0509:39GAF6DQWS7KGU7A8ERTVTT5ZXJV1O", "current_trial": 267, "dateTime": 1511195852489, "trialdata": {"rt": -1, "stimulus": "<p id=\"stim\">CITRUS</p>", "key_press": -1, "type": "PRES_VIS", "word": "citrus", "wordID": 312, "conditions": [24, 1600, "v", 12000], "trial": 7, "serialpos": 2, "trial_type": "single-stim", "trial_index": 267, "time_elapsed": 3709756, "internal_node_id": "0.0-195.0"}}, {"uniqueid": "MTK0509:39GAF6DQWS7KGU7A8ERTVTT5ZXJV1O", "current_trial": 268, "dateTime": 1511195855240, "trialdata": {"rt": -1, "stimulus": "<p id=\"stim\">COIN</p>", "key_press": -1, "type": "PRES_VIS", "word": "coin", "wordID": 342, "conditions": [24, 1600, "v", 12000], "trial": 7, "serialpos": 3, "trial_type": "single-stim", "trial_index": 268, "time_elapsed": 3712507, "internal_node_id": "0.0-196.0"}}, {"uniqueid": "MTK0509:39GAF6DQWS7KGU7A8ERTVTT5ZXJV1O", "current_trial": 269, "dateTime": 1511195857864, "trialdata": {"rt": -1, "stimulus": "<p id=\"stim\">SHORTCAKE</p>", "key_press": -1, "type": "PRES_VIS", "word": "shortcake", "wordID": 1291, "conditions": [24, 1600, 