{"condition": 0, "counterbalance": 142, "assignmentId": "3G5F9DBFOQ4VK5SOA3UENG9CI4XVH7", "workerId": "MTK0863", "hitId": "3HFWPF5AK9QYBL6RBLV5JFSBKN1S31", "currenttrial": 626, "bonus": 0, "data": [{"uniqueid": "MTK0863:3G5F9DBFOQ4VK5SOA3UENG9CI4XVH7", "current_trial": 0, "dateTime": 1512852904416, "trialdata": {"rt": 46513, "key_press": 71, "type": "INSTRUCTIONS", "trial_type": "text", "trial_index": 0, "time_elapsed": 46523, "internal_node_id": "0.0-0.0"}}, {"uniqueid": "MTK0863:3G5F9DBFOQ4VK5SOA3UENG9CI4XVH7", "current_trial": 1, "dateTime": 1512852964310, "trialdata": {"rt": 59892, "key_press": 32, "type": "INSTRUCTIONS", "trial_type": "text", "trial_index": 1, "time_elapsed": 106418, "internal_node_id": "0.0-1.0"}}, {"uniqueid": "MTK0863:3G5F9DBFOQ4VK5SOA3UENG9CI4XVH7", "current_trial": 2, "dateTime": 1512852989150, "trialdata": {"rt": [24828], "responses": ["ocean"], "type": "AUDIO_TEST", "trial_type": "audio-test", "trial_index": 2, "time_elapsed": 131258, "internal_node_id": "0.0-2.0"}}, {"uniqueid": "MTK0863:3G5F9DBFOQ4VK5SOA3UENG9CI4XVH7", "current_trial": 3, "dateTime": 1512852996306, "trialdata": {"rt": [7151], "responses": ["crystal"], "type": "AUDIO_TEST", "trial_type": "audio-test", "trial_index": 3, "time_elapsed": 138414, "internal_node_id": "0.0-3.0"}}, {"uniqueid": "MTK0863:3G5F9DBFOQ4VK5SOA3UENG9CI4XVH7", "current_trial": 4, "dateTime": 1512853002105, "trialdata": {"rt": [5795], "responses": ["spice"], "type": "AUDIO_TEST", "trial_type": "audio-test", "trial_index": 4, "time_elapsed": 144213, "internal_node_id": "0.0-4.0"}}, {"uniqueid": "MTK0863:3G5F9DBFOQ4VK5SOA3UENG9CI4XVH7", "current_trial": 5, "dateTime": 1512853035699, "trialdata": {"rt": 32842, "responses": "{\"Q0\":\"10:00\",\"Q1\":\"5:15\",\"Q2\":\"5\"}", "type": "SLEEP_SURVEY", "trial_type": "survey-text", "trial_index": 5, "time_elapsed": 177806, "internal_node_id": "0.0-5.0"}}, {"uniqueid": "MTK0863:3G5F9DBFOQ4VK5SOA3UENG9CI4XVH7", "current_trial": 6, "dateTime": 1512853070873, "trialdata": {"rt": 34173, "key_press": 32, "type": "INSTRUCTIONS", "trial_type": "text", "trial_index": 6, "time_elapsed": 212981, "internal_node_id": "0.0-6.0"}}, {"uniqueid": "MTK0863:3G5F9DBFOQ4VK5SOA3UENG9CI4XVH7", "current_trial": 7, "dateTime": 1512853094216, "trialdata": {"rt": 22841, "key_press": 75, "type": "INSTRUCTIONS", "trial_type": "text", "trial_index": 7, "time_elapsed": 236324, "internal_node_id": "0.0-7.0"}}, {"uniqueid": "MTK0863:3G5F9DBFOQ4VK5SOA3UENG9CI4XVH7", "current_trial": 8, "dateTime": 1512853098248, "trialdata": {"rt": 3531, "key_press": 32, "type": "INSTRUCTIONS", "trial_type": "text", "trial_index": 8, "time_elapsed": 240356, "internal_node_id": "0.0-8.0"}}, {"uniqueid": "MTK0863:3G5F9DBFOQ4VK5SOA3UENG9CI4XVH7", "current_trial": 9, "dateTime": 1512853117256, "trialdata": {"rt": [5274, 7711, 10061, 12420, 14248, 16625], "responses": ["17", "19", "16", "12", "12", "19"], "num1": [9, 2, 3, 5, 9, 8, 3], "num2": [4, 8, 6, 5, 2, 4, 5], "num3": [4, 9, 7, 2, 1, 7, 3], "type": "DISTRACTOR", "conditions": [18, 1200, "v", 18000], "trial": 0, "trial_type": "math-distractor", "trial_index": 9, "time_elapsed": 259364, "internal_node_id": "0.0-9.0"}}, {"uniqueid": "MTK0863:3G5F9DBFOQ4VK5SOA3UENG9CI4XVH7", "current_trial": 10, "dateTime": 1512853120260, "trialdata": {"rt": -1, "stimulus": "<p id=\"stim\">10</p>", "key_press": -1, "trial_type": "single-stim", "trial_index": 10, "time_elapsed": 262368, "internal_node_id": "0.0-10.0-0.0"}}, {"uniqueid": "MTK0863:3G5F9DBFOQ4VK5SOA3UENG9CI4XVH7", "current_trial": 11, "dateTime": 1512853121262, "trialdata": {"rt": -1, "stimulus": "<p id=\"stim\">9</p>", "key_press": -1, "trial_type": "single-stim", "trial_index": 11, "time_elapsed": 263369, "internal_node_id": "0.0-10.0-1.0"}}, {"uniqueid": "MTK0863:3G5F9DBFOQ4VK5SOA3UENG9CI4XVH7", "current_trial": 12, "dateTime": 1512853122263, "trialdata": {"rt": -1, "stimulus": "<p id=\"stim\">8</p>", "key_press": -1, "trial_type": "single-stim", "trial_index": 12, "time_elapsed": 264371, "internal_node_id": "0.0-10.0-2.0"}}, {"uniqueid": "MTK0863:3G5F9DBFOQ4VK5SOA3UENG9CI4XVH7", "current_trial": 13, "dateTime": 1512853123265, "trialdata": {"rt": -1, "stimulus": "<p id=\"stim\">7</p>", "key_press": -1, "trial_type": "single-stim", "trial_index": 13, "time_elapsed": 265373, "internal_node_id": "0.0-10.0-3.0"}}, {"uniqueid": "MTK0863:3G5F9DBFOQ4VK5SOA3UENG9CI4XVH7", "current_trial": 14, "dateTime": 1512853124266, "trialdata": {"rt": -1, "stimulus": "<p id=\"stim\">6</p>", "key_press": -1, "trial_type": "single-stim", "trial_index": 14, "time_elapsed": 266374, "internal_node_id": "0.0-10.0-4.0"}}, {"uniqueid": "MTK0863:3G5F9DBFOQ4VK5SOA3UENG9CI4XVH7", "current_trial": 15, "dateTime": 1512853125267, "trialdata": {"rt": -1, "stimulus": "<p id=\"stim\">5</p>", "key_press": -1, "trial_type": "single-stim", "trial_index": 15, "time_elapsed": 267375, "internal_node_id": "0.0-10.0-5.0"}}, {"uniqueid": "MTK0863:3G5F9DBFOQ4VK5SOA3UENG9CI4XVH7", "current_trial": 16, "dateTime": 1512853126269, "trialdata": {"rt": -1, "stimulus": "<p id=\"stim\">4</p>", "key_press": -1, "trial_type": "single-stim", "trial_index": 16, "time_elapsed": 268377, "internal_node_id": "0.0-10.0-6.0"}}, {"uniqueid": "MTK0863:3G5F9DBFOQ4VK5SOA3UENG9CI4XVH7", "current_trial": 17, "dateTime": 1512853127270, "trialdata": {"rt": -1, "stimulus": "<p id=\"stim\">3</p>", "key_press": -1, "trial_type": "single-stim", "trial_index": 17, "time_elapsed": 269378, "internal_node_id": "0.0-10.0-7.0"}}, {"uniqueid": "MTK0863:3G5F9DBFOQ4VK5SOA3UENG9CI4XVH7", "current_trial": 18, "dateTime": 1512853128271, "trialdata": {"rt": -1, "stimulus": "<p id=\"stim\">2</p>", "key_press": -1, "trial_type": "single-stim", "trial_index": 18, "time_elapsed": 270379, "internal_node_id": "0.0-10.0-8.0"}}, {"uniqueid": "MTK0863:3G5F9DBFOQ4VK5SOA3UENG9CI4XVH7", "current_trial": 19, "dateTime": 1512853129272, "trialdata": {"rt": -1, "stimulus": "<p id=\"stim\">1</p>", "key_press": -1, "trial_type": "single-stim", "trial_index": 19, "time_elapsed": 271380, "internal_node_id": "0.0-10.0-9.0"}}, {"uniqueid": "MTK0863:3G5F9DBFOQ4VK5SOA3UENG9CI4XVH7", "current_trial": 20, "dateTime": 1512853130773, "trialdata": {"rt": -1, "stimulus": "<p id=\"stim\">+</p>", "key_press": -1, "type": "FIXATION", "trial_type": "single-stim", "trial_index": 20, "time_elapsed": 272881, "internal_node_id": "0.0-11.0-0.0"}}, {"uniqueid": "MTK0863:3G5F9DBFOQ4VK5SOA3UENG9CI4XVH7", "current_trial": 21, "dateTime": 1512853131975, "trialdata": {"rt": -1, "stimulus": "<p id=\"stim\">BATHTUB</p>", "key_press": -1, "type": "PRES_VIS", "word": "bathtub", "wordID": 99, "conditions": [18, 1200, "v", 18000], "trial": 0, "serialpos": 0, "trial_type": "single-stim", "trial_index": 21, "time_elapsed": 274083, "internal_node_id": "0.0-12.0"}}, {"uniqueid": "MTK0863:3G5F9DBFOQ4VK5SOA3UENG9CI4XVH7", "current_trial": 22, "dateTime": 1512853134198, "trialdata": {"rt": -1, "stimulus": "<p id=\"stim\">CHEST</p>", "key_press": -1, "type": "PRES_VIS", "word": "chest", "wordID": 294, "conditions": [18, 1200, "v", 18000], "trial": 0, "serialpos": 1, "trial_type": "single-stim", "trial_index": 22, "time_elapsed": 276306, "internal_node_id": "0.0-13.0"}}, {"uniqueid": "MTK0863:3G5F9DBFOQ4VK5SOA3UENG9CI4XVH7", "current_trial": 23, "dateTime": 1512853136262, "trialdata": {"rt": -1, "stimulus": "<p id=\"stim\">SUSPECT</p>", "key_press": -1, "type": "PRES_VIS", "word": "suspect", "wordID": 1414, "conditions": [18, 1200, "v", 18000], "trial": 0, "serialpos": 2, "trial_type": "single-stim", "trial_index": 23, "time_elapsed": 278370, "internal_node_id": "0.0-14.0"}}, {"uniqueid": "MTK0863:3G5F9DBFOQ4VK5SOA3UENG9CI4XVH7", "current_trial": 24, "dateTime": 1512853138461, "trialdata": {"rt": -1, "stimulus": "<p id=\"stim\">DUST</p>", "key_press": -1, "type": "PRES_VIS", "word": "dust", "wordID": 507, "conditions": [18, 1200, "v", 18000], "trial": 0, "serialpos": 3, "trial_type": "single-stim", "trial_index": 24, "time_elapsed": 280569, "internal_node_id": "0.0-15.0"}}, {"uniqueid": "MTK0863:3G5F9DBFOQ4VK5SOA3UENG9CI4XVH7", "current_trial": 25, "dateTime": 1512853140831, "trialdata": {"rt": -1, "stimulus": "<p id=\"stim\">RUST</p>", "key_press": -1, "type": "PRES_VIS", "word": "rust", "wordID": 1218, "conditions": [18, 1200, "v", 18000], "trial": 0, "serialpos": 4, "trial_type": "single-stim", "trial_index": 25, "time_elapsed": 282939, "internal_node_id": "0.0-16.0"}}, {"uniqueid": "MTK0863:3G5F9DBFOQ4VK5SOA3UENG9CI4XVH7", "current_trial": 26, "dateTime": 1512853142950, "trialdata": {"rt": -1, "stimulus": "<p id=\"stim\">MARKER</p>", "key_press": -1, "type": "PRES_VIS", "word": "marker", "wordID": 869, "conditions": [18, 1200, "v", 18000], "trial": 0, "serialpos": 5, "trial_type": "single-stim", "trial_index": 26, "time_elapsed": 285058, "internal_node_id": "0.0-17.0"}}, {"uniqueid": "MTK0863:3G5F9DBFOQ4VK5SOA3UENG9CI4XVH7", "current_trial": 27, "dateTime": 1512853145109, "trialdata": {"rt": -1, "stimulus": "<p id=\"stim\">SURVEY</p>", "key_press": -1, "type": "PRES_VIS", "word": "survey", "wordID": 1413, "conditions": [18, 1200, "v", 18000], "trial": 0, "serialpos": 6, "trial_type": "single-stim", "trial_index": 27, "time_elapsed": 287217, "internal_node_id": "0.0-18.0"}}, {"uniqueid": "MTK0863:3G5F9DBFOQ4VK5SOA3UENG9CI4XVH7", "current_trial": 28, "dateTime": 1512853147502, "trialdata": {"rt": -1, "stimulus": "<p id=\"stim\">XEROX</p>", "key_press": -1, "type": "PRES_VIS", "word": "xerox", "wordID": 1627, "conditions": [18, 1200, "v", 18000], "trial": 0, "serialpos": 7, "trial_type": "single-stim", "trial_index": 28, "time_elapsed": 289610, "internal_node_id": "0.0-19.0"}}, {"uniqueid": "MTK0863:3G5F9DBFOQ4VK5SOA3UENG9CI4XVH7", "current_trial": 29, "dateTime": 1512853149730, "trialdata": {"rt": -1, "stimulus": "<p id=\"stim\">ORCHID</p>", "key_press": -1, "type": "PRES_VIS", "word": "orchid", "wordID": 981, "conditions": [18, 1200, "v", 18000], "trial": 0, "serialpos": 8, "trial_type": "single-stim", "trial_index": 29, "time_elapsed": 291838, "internal_node_id": "0.0-20.0"}}, {"uniqueid": "MTK0863:3G5F9DBFOQ4VK5SOA3UENG9CI4XVH7", "current_trial": 30, "dateTime": 1512853151934, "trialdata": {"rt": -1, "stimulus": "<p id=\"stim\">PRINCESS</p>", "key_press": -1, "type": "PRES_VIS", "word": "princess", "wordID": 1124, "conditions": [18, 1200, "v", 18000], "trial": 0, "serialpos": 9, "trial_type": "single-stim", "trial_index": 30, "time_elapsed": 294042, "internal_node_id": "0.0-21.0"}}, {"uniqueid": "MTK0863:3G5F9DBFOQ4VK5SOA3UENG9CI4XVH7", "current_trial": 31, "dateTime": 1512853153978, "trialdata": {"rt": -1, "stimulus": "<p id=\"stim\">BALLOON</p>", "key_press": -1, "type": "PRES_VIS", "word": "balloon", "wordID": 74, "conditions": [18, 1200, "v", 18000], "trial": 0, "serialpos": 10, "trial_type": "single-stim", "trial_index": 31, "time_elapsed": 296086, "internal_node_id": "0.0-22.0"}}, {"uniqueid": "MTK0863:3G5F9DBFOQ4VK5SOA3UENG9CI4XVH7", "current_trial": 32, "dateTime": 1512853156031, "trialdata": {"rt": -1, "stimulus": "<p id=\"stim\">CYCLONE</p>", "key_press": -1, "type": "PRES_VIS", "word": "cyclone", "wordID": 430, "conditions": [18, 1200, "v", 18000], "trial": 0, "serialpos": 11, "trial_type": "single-stim", "trial_index": 32, "time_elapsed": 298139, "internal_node_id": "0.0-23.0"}}, {"uniqueid": "MTK0863:3G5F9DBFOQ4VK5SOA3UENG9CI4XVH7", "current_trial": 33, "dateTime": 1512853158201, "trialdata": {"rt": -1, "stimulus": "<p id=\"stim\">CLAM</p>", "key_press": -1, "type": "PRES_VIS", "word": "clam", "wordID": 314, "conditions": [18, 1200, "v", 18000], "trial": 0, "serialpos": 12, "trial_type": "single-stim", "trial_index": 33, "time_elapsed": 300308, "internal_node_id": "0.0-24.0"}}, {"uniqueid": "MTK0863:3G5F9DBFOQ4VK5SOA3UENG9CI4XVH7", "current_trial": 34, "dateTime": 1512853160549, "trialdata": {"rt": -1, "stimulus": "<p id=\"stim\">SWITCH</p>", "key_press": -1, "type": "PRES_VIS", "word": "switch", "wordID": 1421, "conditions": [18, 1200, "v", 18000], "trial": 0, "serialpos": 13, "trial_type": "single-stim", "trial_index": 34, "time_elapsed": 302656, "internal_node_id": "0.0-25.0"}}, {"uniqueid": "MTK0863:3G5F9DBFOQ4VK5SOA3UENG9CI4XVH7", "current_trial": 35, "dateTime": 1512853162619, "trialdata": {"rt": -1, "stimulus": "<p id=\"stim\">FOREHEAD</p>", "key_press": -1, "type": "PRES_VIS", "word": "forehead", "wordID": 591, "conditions": [18, 1200, "v", 18000], "trial": 0, "serialpos": 14, "trial_type": "single-stim", "trial_index": 35, "time_elapsed": 304727, "internal_node_id": "0.0-26.0"}}, {"uniqueid": "MTK0863:3G5F9DBFOQ4VK5SOA3UENG9CI4XVH7", "current_trial": 36, "dateTime": 1512853164827, "trialdata": {"rt": -1, "stimulus": "<p id=\"stim\">CRAB</p>", "key_press": -1, "type": "PRES_VIS", "word": "crab", "wordID": 396, "conditions": [18, 1200, "v", 18000], "trial": 0, "serialpos": 15, "trial_type": "single-stim", "trial_index": 36, "time_elapsed": 306935, "internal_node_id": "0.0-27.0"}}, {"uniqueid": "MTK0863:3G5F9DBFOQ4VK5SOA3UENG9CI4XVH7", "current_trial": 37, "dateTime": 1512853166888, "trialdata": {"rt": -1, "stimulus": "<p id=\"stim\">FILM</p>", "key_press": -1, "type": "PRES_VIS", "word": "film", "wordID": 564, "conditions": [18, 1200, "v", 18000], "trial": 0, "serialpos": 16, "trial_type": "single-stim", "trial_index": 37, "time_elapsed": 308996, "internal_node_id": "0.0-28.0"}}, {"uniqueid": "MTK0863:3G5F9DBFOQ4VK5SOA3UENG9CI4XVH7", "current_trial": 38, "dateTime": 1512853169089, "trialdata": {"rt": -1, "stimulus": "<p id=\"stim\">LEADER</p>", "key_press": -1, "type": "PRES_VIS", "word": "leader", "wordID": 806, "conditions": [18, 1200, "v", 18000], "trial": 0, "serialpos": 17, "trial_type": "single-stim", "trial_index": 38, "time_elapsed": 311197, "internal_node_id": "0.0-29.0"}}, {"uniqueid": "MTK0863:3G5F9DBFOQ4VK5SOA3UENG9CI4XVH7", "current_trial": 39, "dateTime": 1512853171475, "trialdata": {"rt": -1, "stimulus": "", "key_press": -1, "type": "PRE_RECALL_DELAY", "trial_type": "single-stim", "trial_index": 39, "time_elapsed": 313583, "internal_node_id": "0.0-30.0-0.0"}}, {"uniqueid": "MTK0863:3G5F9DBFOQ4VK5SOA3UENG9CI4XVH7", "current_trial": 40, "dateTime": 1512853171977, "trialdata": {"rt": -1000, "stimulus": "/static/audio/400Hz.wav", "key_press": -1, "type": "PRE_RECALL_ALERT", "trial_type": "single-audio", "trial_index": 40, "time_elapsed": 314085, "internal_node_id": "0.0-31.0"}}, {"uniqueid": "MTK0863:3G5F9DBFOQ4VK5SOA3UENG9CI4XVH7", "current_trial": 41, "dateTime": 1512853231990, "trialdata": {"rt": [2454, 3862, 4738, 5564, 6874, 8754, 15547, 24984, 34002, 42929], "recwords": ["bathtub", "princess", "dust", "rust", "clam", "cyclone", "suspect", "princess", "orchid", ""], "type": "FREE_RECALL", "conditions": [18, 1200, "v", 18000], "trial": 0, "trial_type": "free-recall", "trial_index": 41, "time_elapsed": 374095, "internal_node_id": "0.0-32.0-0.0"}}, {"uniqueid": "MTK0863:3G5F9DBFOQ4VK5SOA3UENG9CI4XVH7", "current_trial": 42, "dateTime": 1512853235349, "trialdata": {"rt": 1358, "key_press": 32, "type": "INSTRUCTIONS", "trial_type": "text", "trial_index": 42, "time_elapsed": 377457, "internal_node_id": "0.0-33.0"}}, {"uniqueid": "MTK0863:3G5F9DBFOQ4VK5SOA3UENG9CI4XVH7", "current_trial": 43, "dateTime": 1512853255355, "trialdata": {"rt": [3821, 6397, 8787, 11451, 13123, 16116], "responses": ["14", "12", "20", "20", "15", "17"], "num1": [3, 1, 7, 7, 9, 4, 1], "num2": [7, 4, 6, 7, 5, 9, 1], "num3": [4, 7, 7, 6, 1, 4, 9], "type": "DISTRACTOR", "conditions": [18, 1200, "a", 18000], "trial": 1, "trial_type": "math-distractor", "trial_index": 43, "time_elapsed": 397463, "internal_node_id": "0.0-34.0"}}, {"uniqueid": "MTK0863:3G5F9DBFOQ4VK5SOA3UENG9CI4XVH7", "current_trial": 44, "dateTime": 1512853258357, "trialdata": {"rt": -1, "stimulus": "<p id=\"stim\">10</p>", "key_press": -1, "trial_type": "single-stim", "trial_index": 44, "time_elapsed": 400465, "internal_node_id": "0.0-35.0-0.0"}}, {"uniqueid": "MTK0863:3G5F9DBFOQ4VK5SOA3UENG9CI4XVH7", "current_trial": 45, "dateTime": 1512853259359, "trialdata": {"rt": -1, "stimulus": "<p id=\"stim\">9</p>", "key_press": -1, "trial_type": "single-stim", "trial_index": 45, "time_elapsed": 401467, "internal_node_id": "0.0-35.0-1.0"}}, {"uniqueid": "MTK0863:3G5F9DBFOQ4VK5SOA3UENG9CI4XVH7", "current_trial": 46, "dateTime": 1512853260360, "trialdata": {"rt": -1, "stimulus": "<p id=\"stim\">8</p>", "key_press": -1, "trial_type": "single-stim", "trial_index": 46, "time_elapsed": 402468, "internal_node_id": "0.0-35.0-2.0"}}, {"uniqueid": "MTK0863:3G5F9DBFOQ4VK5SOA3UENG9CI4XVH7", "current_trial": 47, "dateTime": 1512853261361, "trialdata": {"rt": -1, "stimulus": "<p id=\"stim\">7</p>", "key_press": -1, "trial_type": "single-stim", "trial_index": 47, "time_elapsed": 403469, "internal_node_id": "0.0-35.0-3.0"}}, {"uniqueid": "MTK0863:3G5F9DBFOQ4VK5SOA3UENG9CI4XVH7", "current_trial": 48, "dateTime": 1512853262362, "trialdata": {"rt": -1, "stimulus": "<p id=\"stim\">6</p>", "key_press": -1, "trial_type": "single-stim", "trial_index": 48, "time_elapsed": 404470, "internal_node_id": "0.0-35.0-4.0"}}, {"uniqueid": "MTK0863:3G5F9DBFOQ4VK5SOA3UENG9CI4XVH7", "current_trial": 49, "dateTime": 1512853263364, "trialdata": {"rt": -1, "stimulus": "<p id=\"stim\">5</p>", "key_press": -1, "trial_type": "single-stim", "trial_index": 49, "time_elapsed": 405472, "internal_node_id": "0.0-35.0-5.0"}}, {"uniqueid": "MTK0863:3G5F9DBFOQ4VK5SOA3UENG9CI4XVH7", "current_trial": 50, "dateTime": 1512853264365, "trialdata": {"rt": -1, "stimulus": "<p id=\"stim\">4</p>", "key_press": -1, "trial_type": "single-stim", "trial_index": 50, "time_elapsed": 406473, "internal_node_id": "0.0-35.0-6.0"}}, {"uniqueid": "MTK0863:3G5F9DBFOQ4VK5SOA3UENG9CI4XVH7", "current_trial": 51, "dateTime": 1512853265367, "trialdata": {"rt": -1, "stimulus": "<p id=\"stim\">3</p>", "key_press": -1, "trial_type": "single-stim", "trial_index": 51, "time_elapsed": 407475, "internal_node_id": "0.0-35.0-7.0"}}, {"uniqueid": "MTK0863:3G5F9DBFOQ4VK5SOA3UENG9CI4XVH7", "current_trial": 52, "dateTime": 1512853266369, "trialdata": {"rt": -1, "stimulus": "<p id=\"stim\">2</p>", "key_press": -1, "trial_type": "single-stim", "trial_index": 52, "time_elapsed": 408477, "internal_node_id": "0.0-35.0-8.0"}}, {"uniqueid": "MTK0863:3G5F9DBFOQ4VK5SOA3UENG9CI4XVH7", "current_trial": 53, "dateTime": 1512853267370, "trialdata": {"rt": -1, "stimulus": "<p id=\"stim\">1</p>", "key_press": -1, "trial_type": "single-stim", "trial_index": 53, "time_elapsed": 409478, "internal_node_id": "0.0-35.0-9.0"}}, {"uniqueid": "MTK0863:3G5F9DBFOQ4VK5SOA3UENG9CI4XVH7", "current_trial": 54, "dateTime": 1512853268871, "trialdata": {"rt": -1, "stimulus": "<p id=\"stim\">+</p>", "key_press": -1, "type": "FIXATION", "trial_type": "single-stim", "trial_index": 54, "time_elapsed": 410979, "internal_node_id": "0.0-36.0-0.0"}}, {"uniqueid": "MTK0863:3G5F9DBFOQ4VK5SOA3UENG9CI4XVH7", "current_trial": 55, "dateTime": 1512853271099, "trialdata": {"rt": -1000, "stimulus": "/static/audio/wordpool/TABLE.wav", "key_press": -1, "type": "PRES_AUD", "word": "table", "wordID": 1425, "conditions": [18, 1200, "a", 18000], "trial": 1, "serialpos": 0, "trial_type": "single-audio", "trial_index": 55, "time_elapsed": 413207, "internal_node_id": "0.0-37.0"}}, {"uniqueid": "MTK0863:3G5F9DBFOQ4VK5SOA3UENG9CI4XVH7", "current_trial": 56, "dateTime": 1512853273450, "trialdata": {"rt": -1000, "stimulus": "/static/audio/wordpool/ICEBERG.wav", "key_press": -1, "type": "PRES_AUD", "word": "iceberg", "wordID": 730, "conditions": [18, 1200, "a", 18000], "trial": 1, "serialpos": 1, "trial_type": "single-audio", "trial_index": 56, "time_elapsed": 415558, "internal_node_id": "0.0-38.0"}}, {"uniqueid": "MTK0863:3G5F9DBFOQ4VK5SOA3UENG9CI4XVH7", "current_trial": 57, "dateTime": 1512853275665, "trialdata": {"rt": -1000, "stimulus": "/static/audio/wordpool/STREAM.wav", "key_press": -1, "type": "PRES_AUD", "word": "stream", "wordID": 1391, "conditions": [18, 1200, "a", 18000], "trial": 1, "serialpos": 2, "trial_type": "single-audio", "trial_index": 57, "time_elapsed": 417772, "internal_node_id": "0.0-39.0"}}, {"uniqueid": "MTK0863:3G5F9DBFOQ4VK5SOA3UENG9CI4XVH7", "current_trial": 58, "dateTime": 1512853277766, "trialdata": {"rt": -1000, "stimulus": "/static/audio/wordpool/SWIMMER.wav", "key_press": -1, "type": "PRES_AUD", "word": "swimmer", "wordID": 1419, "conditions": [18, 1200, "a", 18000], "trial": 1, "serialpos": 3, "trial_type": "single-audio", "trial_index": 58, "time_elapsed": 419874, "internal_node_id": "0.0-40.0"}}, {"uniqueid": "MTK0863:3G5F9DBFOQ4VK5SOA3UENG9CI4XVH7", "current_trial": 59, "dateTime": 1512853280154, "trialdata": {"rt": -1000, "stimulus": "/static/audio/wordpool/SERVANT.wav", "key_press": -1, "type": "PRES_AUD", "word": "servant", "wordID": 1270, "conditions": [18, 1200, "a", 18000], "trial": 1, "serialpos": 4, "trial_type": "single-audio", "trial_index": 59, "time_elapsed": 422262, "internal_node_id": "0.0-41.0"}}, {"uniqueid": "MTK0863:3G5F9DBFOQ4VK5SOA3UENG9CI4XVH7", "current_trial": 60, "dateTime": 1512853282181, "trialdata": {"rt": -1000, "stimulus": "/static/audio/wordpool/TROUT.wav", "key_press": -1, "type": "PRES_AUD", "word": "trout", "wordID": 1510, "conditions": [18, 1200, "a", 18000], "trial": 1, "serialpos": 5, "trial_type": "single-audio", "trial_index": 60, "time_elapsed": 424289, "internal_node_id": "0.0-42.0"}}, {"uniqueid": "MTK0863:3G5F9DBFOQ4VK5SOA3UENG9CI4XVH7", "current_trial": 61, "dateTime": 1512853284481, "trialdata": {"rt": -1000, "stimulus": "/static/audio/wordpool/ISLAND.wav", "key_press": -1, "type": "PRES_AUD", "word": "island", "wordID": 744, "conditions": [18, 1200, "a", 18000], "trial": 1, "serialpos": 6, "trial_type": "single-audio", "trial_index": 61, "time_elapsed": 426589, "internal_node_id": "0.0-43.0"}}, {"uniqueid": "MTK0863:3G5F9DBFOQ4VK5SOA3UENG9CI4XVH7", "current_trial": 62, "dateTime": 1512853286587, "trialdata": {"rt": -1000, "stimulus": "/static/audio/wordpool/GAVEL.wav", "key_press": -1, "type": "PRES_AUD", "word": "gavel", "wordID": 626, "conditions": [18, 1200, "a", 18000], "trial": 1, "serialpos": 7, "trial_type": "single-audio", "trial_index": 62, "time_elapsed": 428695, "internal_node_id": "0.0-44.0"}}, {"uniqueid": "MTK0863:3G5F9DBFOQ4VK5SOA3UENG9CI4XVH7", "current_trial": 63, "dateTime": 1512853288858, "trialdata": {"rt": -1000, "stimulus": "/static/audio/wordpool/ROOSTER.wav", "key_press": -1, "type": "PRES_AUD", "word": "rooster", "wordID": 1208, "conditions": [18, 1200, "a", 18000], "trial": 1, "serialpos": 8, "trial_type": "single-audio", "trial_index": 63, "time_elapsed": 430966, "internal_node_id": "0.0-45.0"}}, {"uniqueid": "MTK0863:3G5F9DBFOQ4VK5SOA3UENG9CI4XVH7", "current_trial": 64, "dateTime": 1512853290941, "trialdata": {"rt": -1000, "stimulus": "/static/audio/wordpool/TAXI.wav", "key_press": -1, "type": "PRES_AUD", "word": "taxi", "wordID": 1437, "conditions": [18, 1200, "a", 18000], "trial": 1, "serialpos": 9, "trial_type": "single-audio", "trial_index": 64, "time_elapsed": 433049, "internal_node_id": "0.0-46.0"}}, {"uniqueid": "MTK0863:3G5F9DBFOQ4VK5SOA3UENG9CI4XVH7", "current_trial": 65, "dateTime": 1512853293323, "trialdata": {"rt": -1000, "stimulus": "/static/audio/wordpool/SKETCH.wav", "key_press": -1, "type": "PRES_AUD", "word": "sketch", "wordID": 1314, "conditions": [18, 1200, "a", 18000], "trial": 1, "serialpos": 10, "trial_type": "single-audio", "trial_index": 65, "time_elapsed": 435431, "internal_node_id": "0.0-47.0"}}, {"uniqueid": "MTK0863:3G5F9DBFOQ4VK5SOA3UENG9CI4XVH7", "current_trial": 66, "dateTime": 1512853295454, "trialdata": {"rt": -1000, "stimulus": "/static/audio/wordpool/SCARF.wav", "key_press": -1, "type": "PRES_AUD", "word": "scarf", "wordID": 1245, "conditions": [18, 1200, "a", 18000], "trial": 1, "serialpos": 11, "trial_type": "single-audio", "trial_index": 66, "time_elapsed": 437562, "internal_node_id": "0.0-48.0"}}, {"uniqueid": "MTK0863:3G5F9DBFOQ4VK5SOA3UENG9CI4XVH7", "current_trial": 67, "dateTime": 1512853297466, "trialdata": {"rt": -1000, "stimulus": "/static/audio/wordpool/CLIMBER.wav", "key_press": -1, "type": "PRES_AUD", "word": "climber", "wordID": 322, "conditions": [18, 1200, "a", 18000], "trial": 1, "serialpos": 12, "trial_type": "single-audio", "trial_index": 67, "time_elapsed": 439574, "internal_node_id": "0.0-49.0"}}, {"uniqueid": "MTK0863:3G5F9DBFOQ4VK5SOA3UENG9CI4XVH7", "current_trial": 68, "dateTime": 1512853299513, "trialdata": {"rt": -1000, "stimulus": "/static/audio/wordpool/NOMAD.wav", "key_press": -1, "type": "PRES_AUD", "word": "nomad", "wordID": 954, "conditions": [18, 1200, "a", 18000], "trial": 1, "serialpos": 13, "trial_type": "single-audio", "trial_index": 68, "time_elapsed": 441617, "internal_node_id": "0.0-50.0"}}, {"uniqueid": "MTK0863:3G5F9DBFOQ4VK5SOA3UENG9CI4XVH7", "current_trial": 69, "dateTime": 1512853301796, "trialdata": {"rt": -1000, "stimulus": "/static/audio/wordpool/CRUTCH.wav", "key_press": -1, "type": "PRES_AUD", "word": "crutch", "wordID": 416, "conditions": [18, 1200, "a", 18000], "trial": 1, "serialpos": 14, "trial_type": "single-audio", "trial_index": 69, "time_elapsed": 443904, "internal_node_id": "0.0-51.0"}}, {"uniqueid": "MTK0863:3G5F9DBFOQ4VK5SOA3UENG9CI4XVH7", "current_trial": 70, "dateTime": 1512853304010, "trialdata": {"rt": -1000, "stimulus": "/static/audio/wordpool/TRUCK.wav", "key_press": -1, "type": "PRES_AUD", "word": "truck", "wordID": 1511, "conditions": [18, 1200, "a", 18000], "trial": 1, "serialpos": 15, "trial_type": "single-audio", "trial_index": 70, "time_elapsed": 446118, "internal_node_id": "0.0-52.0"}}, {"uniqueid": "MTK0863:3G5F9DBFOQ4VK5SOA3UENG9CI4XVH7", "current_trial": 71, "dateTime": 1512853306282, "trialdata": {"rt": -1000, "stimulus": "/static/audio/wordpool/SPONGE.wav", "key_press": -1, "type": "PRES_AUD", "word": "sponge", "wordID": 1354, "conditions": [18, 1200, "a", 18000], "trial": 1, "serialpos": 16, "trial_type": "single-audio", "trial_index": 71, "time_elapsed": 448390, "internal_node_id": "0.0-53.0"}}, {"uniqueid": "MTK0863:3G5F9DBFOQ4VK5SOA3UENG9CI4XVH7", "current_trial": 72, "dateTime": 1512853308284, "trialdata": {"rt": -1000, "stimulus": "/static/audio/wordpool/RECEIPT.wav", "key_press": -1, "type": "PRES_AUD", "word": "receipt", "wordID": 1172, "conditions": [18, 1200, "a", 18000], "trial": 1, "serialpos": 17, "trial_type": "single-audio", "trial_index": 72, "time_elapsed": 450392, "internal_node_id": "0.0-54.0"}}, {"uniqueid": "MTK0863:3G5F9DBFOQ4VK5SOA3UENG9CI4XVH7", "current_trial": 73, "dateTime": 1512853309605, "trialdata": {"rt": -1, "stimulus": "", "key_press": -1, "type": "PRE_RECALL_DELAY", "trial_type": "single-stim", "trial_index": 73, "time_elapsed": 451713, "internal_node_id": "0.0-55.0-0.0"}}, {"uniqueid": "MTK0863:3G5F9DBFOQ4VK5SOA3UENG9CI4XVH7", "current_trial": 74, "dateTime": 1512853310106, "trialdata": {"rt": -1000, "stimulus": "/static/audio/400Hz.wav", "key_press": -1, "type": "PRE_RECALL_ALERT", "trial_type": "single-audio", "trial_index": 74, "time_elapsed": 452214, "internal_node_id": "0.0-56.0"}}, {"uniqueid": "MTK0863:3G5F9DBFOQ4VK5SOA3UENG9CI4XVH7", "current_trial": 75, "dateTime": 1512853370115, "trialdata": {"rt": [1428, 3145, 5448, 7299, 8639, 11442, 13453, 18428, 22747, 28837, 51380], "recwords": ["gavel", "swimmer", "crutch", "receive", "nomad", "sponge", "climber", "truck", "ice", "island", "gavel"], "type": "FREE_RECALL", "conditions": [18, 1200, "a", 18000], "trial": 1, "trial_type": "free-recall", "trial_index": 75, "time_elapsed": 512221, "internal_node_id": "0.0-57.0-0.0"}}, {"uniqueid": "MTK0863:3G5F9DBFOQ4VK5SOA3UENG9CI4XVH7", "current_trial": 76, "dateTime": 1512853373926, "trialdata": {"rt": 1804, "key_press": 74, "type": "INSTRUCTIONS", "trial_type": "text", "trial_index": 76, "time_elapsed": 516029, "internal_node_id": "0.0-58.0"}}, {"uniqueid": "MTK0863:3G5F9DBFOQ4VK5SOA3UENG9CI4XVH7", "current_trial": 77, "dateTime": 1512853398931, "trialdata": {"rt": [2741, 4794, 7492, 9658, 11287, 12845, 14768, 16123, 18823, 20913, 22536], "responses": ["12", "15", "17", "12", "12", "11", "9", "10", "18", "17", "14"], "num1": [6, 5, 8, 2, 2, 4, 6, 8, 4, 8, 7, 6], "num2": [1, 7, 3, 4, 3, 1, 1, 1, 5, 6, 3, 5], "num3": [5, 3, 6, 6, 7, 6, 2, 1, 9, 3, 4, 8], "type": "DISTRACTOR", "conditions": [24, 1600, "v", 24000], "trial": 2, "trial_type": "math-distractor", "trial_index": 77, "time_elapsed": 541039, "internal_node_id": "0.0-59.0"}}, {"uniqueid": "MTK0863:3G5F9DBFOQ4VK5SOA3UENG9CI4XVH7", "current_trial": 78, "dateTime": 1512853401933, "trialdata": {"rt": -1, "stimulus": "<p id=\"stim\">10</p>", "key_press": -1, "trial_type": "single-stim", "trial_index": 78, "time_elapsed": 544041, "internal_node_id": "0.0-60.0-0.0"}}, {"uniqueid": "MTK0863:3G5F9DBFOQ4VK5SOA3UENG9CI4XVH7", "current_trial": 79, "dateTime": 1512853402934, "trialdata": {"rt": -1, "stimulus": "<p id=\"stim\">9</p>", "key_press": -1, "trial_type": "single-stim", "trial_index": 79, "time_elapsed": 545042, "internal_node_id": "0.0-60.0-1.0"}}, {"uniqueid": "MTK0863:3G5F9DBFOQ4VK5SOA3UENG9CI4XVH7", "current_trial": 80, "dateTime": 1512853403935, "trialdata": {"rt": -1, "stimulus": "<p id=\"stim\">8</p>", "key_press": -1, "trial_type": "single-stim", "trial_index": 80, "time_elapsed": 546043, "internal_node_id": "0.0-60.0-2.0"}}, {"uniqueid": "MTK0863:3G5F9DBFOQ4VK5SOA3UENG9CI4XVH7", "current_trial": 81, "dateTime": 1512853404936, "trialdata": {"rt": -1, "stimulus": "<p id=\"stim\">7</p>", "key_press": -1, "trial_type": "single-stim", "trial_index": 81, "time_elapsed": 547044, "internal_node_id": "0.0-60.0-3.0"}}, {"uniqueid": "MTK0863:3G5F9DBFOQ4VK5SOA3UENG9CI4XVH7", "current_trial": 82, "dateTime": 1512853405937, "trialdata": {"rt": -1, "stimulus": "<p id=\"stim\">6</p>", "key_press": -1, "trial_type": "single-stim", "trial_index": 82, "time_elapsed": 548045, "internal_node_id": "0.0-60.0-4.0"}}, {"uniqueid": "MTK0863:3G5F9DBFOQ4VK5SOA3UENG9CI4XVH7", "current_trial": 83, "dateTime": 1512853406938, "trialdata": {"rt": -1, "stimulus": "<p id=\"stim\">5</p>", "key_press": -1, "trial_type": "single-stim", "trial_index": 83, "time_elapsed": 549046, "internal_node_id": "0.0-60.0-5.0"}}, {"uniqueid": "MTK0863:3G5F9DBFOQ4VK5SOA3UENG9CI4XVH7", "current_trial": 84, "dateTime": 1512853407939, "trialdata": {"rt": -1, "stimulus": "<p id=\"stim\">4</p>", "key_press": -1, "trial_type": "single-stim", "trial_index": 84, "time_elapsed": 550047, "internal_node_id": "0.0-60.0-6.0"}}, {"uniqueid": "MTK0863:3G5F9DBFOQ4VK5SOA3UENG9CI4XVH7", "current_trial": 85, "dateTime": 1512853408940, "trialdata": {"rt": -1, "stimulus": "<p id=\"stim\">3</p>", "key_press": -1, "trial_type": "single-stim", "trial_index": 85, "time_elapsed": 551048, "internal_node_id": "0.0-60.0-7.0"}}, {"uniqueid": "MTK0863:3G5F9DBFOQ4VK5SOA3UENG9CI4XVH7", "current_trial": 86, "dateTime": 1512853409942, "trialdata": {"rt": -1, "stimulus": "<p id=\"stim\">2</p>", "key_press": -1, "trial_type": "single-stim", "trial_index": 86, "time_elapsed": 552050, "internal_node_id": "0.0-60.0-8.0"}}, {"uniqueid": "MTK0863:3G5F9DBFOQ4VK5SOA3UENG9CI4XVH7", "current_trial": 87, "dateTime": 1512853410943, "trialdata": {"rt": -1, "stimulus": "<p id=\"stim\">1</p>", "key_press": -1, "trial_type": "single-stim", "trial_index": 87, "time_elapsed": 553051, "internal_node_id": "0.0-60.0-9.0"}}, {"uniqueid": "MTK0863:3G5F9DBFOQ4VK5SOA3UENG9CI4XVH7", "current_trial": 88, "dateTime": 1512853412444, "trialdata": {"rt": -1, "stimulus": "<p id=\"stim\">+</p>", "key_press": -1, "type": "FIXATION", "trial_type": "single-stim", "trial_index": 88, "time_elapsed": 554552, "internal_node_id": "0.0-61.0-0.0"}}, {"uniqueid": "MTK0863:3G5F9DBFOQ4VK5SOA3UENG9CI4XVH7", "current_trial": 89, "dateTime": 1512853414048, "trialdata": {"rt": -1, "stimulus": "<p id=\"stim\">THIEF</p>", "key_press": -1, "type": "PRES_VIS", "word": "thief", "wordID": 1455, "conditions": [24, 1600, "v", 24000], "trial": 2, "serialpos": 0, "trial_type": "single-stim", "trial_index": 89, "time_elapsed": 556156, "internal_node_id": "0.0-62.0"}}, {"uniqueid": "MTK0863:3G5F9DBFOQ4VK5SOA3UENG9CI4XVH7", "current_trial": 90, "dateTime": 1512853416710, "trialdata": {"rt": -1, "stimulus": "<p id=\"stim\">CAPTIVE</p>", "key_press": -1, "type": "PRES_VIS", "word": "captive", "wordID": 239, "conditions": [24, 1600, "v", 24000], "trial": 2, "serialpos": 1, "trial_type": "single-stim", "trial_index": 90, "time_elapsed": 558818, "internal_node_id": "0.0-63.0"}}, {"uniqueid": "MTK0863:3G5F9DBFOQ4VK5SOA3UENG9CI4XVH7", "current_trial": 91, "dateTime": 1512853419167, "trialdata": {"rt": -1, "stimulus": "<p id=\"stim\">SPOOL</p>", "key_press": -1, "type": "PRES_VIS", "word": "spool", "wordID": 1355, "conditions": [24, 1600, "v", 24000], "trial": 2, "serialpos": 2, "trial_type": "single-stim", "trial_index": 91, "time_elapsed": 561275, "internal_node_id": "0.0-64.0"}}, {"uniqueid": "MTK0863:3G5F9DBFOQ4VK5SOA3UENG9CI4XVH7", "current_trial": 92, "dateTime": 1512853421619, "trialdata": {"rt": -1, "stimulus": "<p id=\"stim\">CREATURE</p>", "key_press": -1, "type": "PRES_VIS", "word": "creature", "wordID": 402, "conditions": [24, 1600, "v", 24000], "trial": 2, "serialpos": 3, "trial_type": "single-stim", "trial_index": 92, "time_elapsed": 563727, "internal_node_id": "0.0-65.0"}}, {"uniqueid": "MTK0863:3G5F9DBFOQ4VK5SOA3UENG9CI4XVH7", "current_trial": 93, "dateTime": 1512853424139, "trialdata": {"rt": -1, "stimulus": "<p id=\"stim\">SPHINX</p>", "key_press": -1, "type": "PRES_VIS", "word": "sphinx", "wordID": 1348, "conditions": [24, 1600, "v", 24000], "trial": 2, "serialpos": 4, "trial_type": "single-stim", "trial_index": 93, "time_elapsed": 566247, "internal_node_id": "0.0-66.0"}}, {"uniqueid": "MTK0863:3G5F9DBFOQ4VK5SOA3UENG9CI4XVH7", "current_trial": 94, "dateTime": 1512853426836, "trialdata": {"rt": -1, "stimulus": "<p id=\"stim\">FRIEND</p>", "key_press": -1, "type": "PRES_VIS", "word": "friend", "wordID": 605, "conditions": [24, 1600, "v", 24000], "trial": 2, "serialpos": 5, "trial_type": "single-stim", "trial_index": 94, "time_elapsed": 568944, "internal_node_id": "0.0-67.0"}}, {"uniqueid": "MTK0863:3G5F9DBFOQ4VK5SOA3UENG9CI4XVH7", "current_trial": 95, "dateTime": 1512853429343, "trialdata": {"rt": -1, "stimulus": "<p id=\"stim\">SNAKE</p>", "key_press": -1, "type": "PRES_VIS", "word": "snake", "wordID": 1332, "conditions": [24, 1600, "v", 24000], "trial": 2, "serialpos": 6, "trial_type": "single-stim", "trial_index": 95, "time_elapsed": 571451, "internal_node_id": "0.0-68.0"}}, {"uniqueid": "MTK0863:3G5F9DBFOQ4VK5SOA3UENG9CI4XVH7", "current_trial": 96, "dateTime": 1512853431951, "trialdata": {"rt": -1, "stimulus": "<p id=\"stim\">PLIERS</p>", "key_press": -1, "type": "PRES_VIS", "word": "pliers", "wordID": 1088, "conditions": [24, 1600, "v", 24000], "trial": 2, "serialpos": 7, "trial_type": "single-stim", "trial_index": 96, "time_elapsed": 574059, "internal_node_id": "0.0-69.0"}}, {"uniqueid": "MTK0863:3G5F9DBFOQ4VK5SOA3UENG9CI4XVH7", "current_trial": 97, "dateTime": 1512853434689, "trialdata": {"rt": -1, "stimulus": "<p id=\"stim\">TWEEZERS</p>", "key_press": -1, "type": "PRES_VIS", "word": "tweezers", "wordID": 1525, "conditions": [24, 1600, "v", 24000], "trial": 2, "serialpos": 8, "trial_type": "single-stim", "trial_index": 97, "time_elapsed": 576797, "internal_node_id": "0.0-70.0"}}, {"uniqueid": "MTK0863:3G5F9DBFOQ4VK5SOA3UENG9CI4XVH7", "current_trial": 98, "dateTime": 1512853437204, "trialdata": {"rt": -1, "stimulus": "<p id=\"stim\">BURGLAR</p>", "key_press": -1, "type": "PRES_VIS", "word": "burglar", "wordID": 199, "conditions": [24, 1600, "v", 24000], "trial": 2, "serialpos": 9, "trial_type": "single-stim", "trial_index": 98, "time_elapsed": 579312, "internal_node_id": "0.0-71.0"}}, {"uniqueid": "MTK0863:3G5F9DBFOQ4VK5SOA3UENG9CI4XVH7", "current_trial": 99, "dateTime": 1512853439799, "trialdata": {"rt": -1, "stimulus": "<p id=\"stim\">CASHEW</p>", "key_press": -1, "type": "PRES_VIS", "word": "cashew", "wordID": 252, "conditions": [24, 1600, "v", 24000], "trial": 2, "serialpos": 10, "trial_type": "single-stim", "trial_index": 99, "time_elapsed": 581906, "internal_node_id": "0.0-72.0"}}, {"uniqueid": "MTK0863:3G5F9DBFOQ4VK5SOA3UENG9CI4XVH7", "current_trial": 100, "dateTime": 1512853442487, "trialdata": {"rt": -1, "stimulus": "<p id=\"stim\">DRESSER</p>", "key_press": -1, "type": "PRES_VIS", "word": "dresser", "wordID": 495, "conditions": [24, 1600, "v", 24000], "trial": 2, "serialpos": 11, "trial_type": "single-stim", "trial_index": 100, "time_elapsed": 584595, "internal_node_id": "0.0-73.0"}}, {"uniqueid": "MTK0863:3G5F9DBFOQ4VK5SOA3UENG9CI4XVH7", "current_trial": 101, "dateTime": 1512853444939, "trialdata": {"rt": -1, "stimulus": "<p id=\"stim\">TORTOISE</p>", "key_press": -1, "type": "PRES_VIS", "word": "tortoise", "wordID": 1485, "conditions": [24, 1600, "v", 24000], "trial": 2, "serialpos": 12, "trial_type": "single-stim", "trial_index": 101, "time_elapsed": 587047, "internal_node_id": "0.0-74.0"}}, {"uniqueid": "MTK0863:3G5F9DBFOQ4VK5SOA3UENG9CI4XVH7", "current_trial": 102, "dateTime": 1512853447553, "trialdata": {"rt": -1, "stimulus": "<p id=\"stim\">PILOT</p>", "key_press": -1, "type": "PRES_VIS", "word": "pilot", "wordID": 1069, "conditions": [24, 1600, "v", 24000], "trial": 2, "serialpos": 13, "trial_type": "single-stim", "trial_index": 102, "time_elapsed": 589661, "internal_node_id": "0.0-75.0"}}, {"uniqueid": "MTK0863:3G5F9DBFOQ4VK5SOA3UENG9CI4XVH7", "current_trial": 103, "dateTime": 1512853450091, "trialdata": {"rt": -1, "stimulus": "<p id=\"stim\">MASK</p>", "key_press": -1, "type": "PRES_VIS", "word": "mask", "wordID": 875, "conditions": [24, 1600, "v", 24000], "trial": 2, "serialpos": 14, "trial_type": "single-stim", "trial_index": 103, "time_elapsed": 592198, "internal_node_id": "0.0-76.0"}}, {"uniqueid": "MTK0863:3G5F9DBFOQ4VK5SOA3UENG9CI4XVH7", "current_trial": 104, "dateTime": 1512853452571, "trialdata": {"rt": -1, "stimulus": "<p id=\"stim\">KLEENEX</p>", "key_press": -1, "type": "PRES_VIS", "word": "kleenex", "wordID": 781, "conditions": [24, 1600, "v", 24000], "trial": 2, "serialpos": 15, "trial_type": "single-stim", "trial_index": 104, "time_elapsed": 594679, "internal_node_id": "0.0-77.0"}}, {"uniqueid": "MTK0863:3G5F9DBFOQ4VK5SOA3UENG9CI4XVH7", "current_trial": 105, "dateTime": 1512853454976, "trialdata": {"rt": -1, "stimulus": "<p id=\"stim\">TROMBONE</p>", "key_press": -1, "type": "PRES_VIS", "word": "trombone", "wordID": 1507, "conditions": [24, 1600, "v", 24000], "trial": 2, "serialpos": 16, "trial_type": "single-stim", "trial_index": 105, "time_elapsed": 597083, "internal_node_id": "0.0-78.0"}}, {"uniqueid": "MTK0863:3G5F9DBFOQ4VK5SOA3UENG9CI4XVH7", "current_trial": 106, "dateTime": 1512853457447, "trialdata": {"rt": -1, "stimulus": "<p id=\"stim\">LUGGAGE</p>", "key_press": -1, "type": "PRES_VIS", "word": "luggage", "wordID": 846, "conditions": [24, 1600, "v", 24000], "trial": 2, "serialpos": 17, "trial_type": "single-stim", "trial_index": 106, "time_elapsed": 599555, "internal_node_id": "0.0-79.0"}}, {"uniqueid": "MTK0863:3G5F9DBFOQ4VK5SOA3UENG9CI4XVH7", "current_trial": 107, "dateTime": 1512853460251, "trialdata": {"rt": -1, "stimulus": "<p id=\"stim\">FRAME</p>", "key_press": -1, "type": "PRES_VIS", "word": "frame", "wordID": 599, "conditions": [24, 1600, "v", 24000], "trial": 2, "serialpos": 18, "trial_type": "single-stim", "trial_index": 107, "time_elapsed": 602359, "internal_node_id": "0.0-80.0"}}, {"uniqueid": "MTK0863:3G5F9DBFOQ4VK5SOA3UENG9CI4XVH7", "current_trial": 108, "dateTime": 1512853463027, "trialdata": {"rt": -1, "stimulus": "<p id=\"stim\">GIRL</p>", "key_press": -1, "type": "PRES_VIS", "word": "girl", "wordID": 636, "conditions": [24, 1600, "v", 24000], "trial": 2, "serialpos": 19, "trial_type": "single-stim", "trial_index": 108, "time_elapsed": 605135, "internal_node_id": "0.0-81.0"}}, {"uniqueid": "MTK0863:3G5F9DBFOQ4VK5SOA3UENG9CI4XVH7", "current_trial": 109, "dateTime": 1512853465700, "trialdata": {"rt": -1, "stimulus": "<p id=\"stim\">ZEBRA</p>", "key_press": -1, "type": "PRES_VIS", "word": "zebra", "wordID": 1634, "conditions": [24, 1600, "v", 24000], "trial": 2, "serialpos": 20, "trial_type": "single-stim", "trial_index": 109, "time_elapsed": 607808, "internal_node_id": "0.0-82.0"}}, {"uniqueid": "MTK0863:3G5F9DBFOQ4VK5SOA3UENG9CI4XVH7", "current_trial": 110, "dateTime": 1512853468355, "trialdata": {"rt": -1, "stimulus": "<p id=\"stim\">FLUTE</p>", "key_press": -1, "type": "PRES_VIS", "word": "flute", "wordID": 584, "conditions": [24, 1600, "v", 24000], "trial": 2, "serialpos": 21, "trial_type": "single-stim", "trial_index": 110, "time_elapsed": 610463, "internal_node_id": "0.0-83.0"}}, {"uniqueid": "MTK0863:3G5F9DBFOQ4VK5SOA3UENG9CI4XVH7", "current_trial": 111, "dateTime": 1512853470884, "trialdata": {"rt": -1, "stimulus": "<p id=\"stim\">STOVE</p>", "key_press": -1, "type": "PRES_VIS", "word": "stove", "wordID": 1387, "conditions": [24, 1600, "v", 24000], "trial": 2, "serialpos": 22, "trial_type": "single-stim", "trial_index": 111, "time_elapsed": 612992, "internal_node_id": "0.0-84.0"}}, {"uniqueid": "MTK0863:3G5F9DBFOQ4VK5SOA3UENG9CI4XVH7", "current_trial": 112, "dateTime": 1512853473302, "trialdata": {"rt": -1, "stimulus": "<p id=\"stim\">TOASTER</p>", "key_press": -1, "type": "PRES_VIS", "word": "toaster", "wordID": 1471, "conditions": [24, 1600, "v", 24000], "trial": 2, "serialpos": 23, "trial_type": "single-stim", "trial_index": 112, "time_elapsed": 615410, "internal_node_id": "0.0-85.0"}}, {"uniqueid": "MTK0863:3G5F9DBFOQ4VK5SOA3UENG9CI4XVH7", "current_trial": 113, "dateTime": 1512853475831, "trialdata": {"rt": -1, "stimulus": "", "key_press": -1, "type": "PRE_RECALL_DELAY", "trial_type": "single-stim", "trial_index": 113, "time_elapsed": 617939, "internal_node_id": "0.0-86.0-0.0"}}, {"uniqueid": "MTK0863:3G5F9DBFOQ4VK5SOA3UENG9CI4XVH7", "current_trial": 114, "dateTime": 1512853476333, "trialdata": {"rt": -1000, "stimulus": "/static/audio/400Hz.wav", "key_press": -1, "type": "PRE_RECALL_ALERT", "trial_type": "single-audio", "trial_index": 114, "time_elapsed": 618441, "internal_node_id": "0.0-87.0"}}, {"uniqueid": "MTK0863:3G5F9DBFOQ4VK5SOA3UENG9CI4XVH7", "current_trial": 115, "dateTime": 1512853536342, "trialdata": {"rt": [1406, 2879, 3921, 6451, 8387, 11491, 36040], "recwords": ["thief", "burglar", "frame", "stove", "kleenex", "stove", "girl"], "type": "FREE_RECALL", "conditions": [24, 1600, "v", 24000], "trial": 2, "trial_type": "free-recall", "trial_index": 115, "time_elapsed": 678448, "internal_node_id": "0.0-88.0-0.0"}}, {"uniqueid": "MTK0863:3G5F9DBFOQ4VK5SOA3UENG9CI4XVH7", "current_trial": 116, "dateTime": 1512853539326, "trialdata": {"rt": 982, "key_press": 74, "type": "INSTRUCTIONS", "trial_type": "text", "trial_index": 116, "time_elapsed": 681434, "internal_node_id": "0.0-89.0"}}, {"uniqueid": "MTK0863:3G5F9DBFOQ4VK5SOA3UENG9CI4XVH7", "current_trial": 117, "dateTime": 1512853553330, "trialdata": {"rt": [2668, 4284, 6026, 7887, 10219], "responses": ["17", "9", "16", "19", "11"], "num1": [6, 6, 9, 4, 4, 8], "num2": [3, 2, 6, 8, 3, 9], "num3": [8, 1, 1, 7, 4, 6], "type": "DISTRACTOR", "conditions": [24, 800, "v", 12000], "trial": 3, "trial_type": "math-distractor", "trial_index": 117, "time_elapsed": 695438, "internal_node_id": "0.0-90.0"}}, {"uniqueid": "MTK0863:3G5F9DBFOQ4VK5SOA3UENG9CI4XVH7", "current_trial": 118, "dateTime": 1512853556334, "trialdata": {"rt": -1, "stimulus": "<p id=\"stim\">10</p>", "key_press": -1, "trial_type": "single-stim", "trial_index": 118, "time_elapsed": 698442, "internal_node_id": "0.0-91.0-0.0"}}, {"uniqueid": "MTK0863:3G5F9DBFOQ4VK5SOA3UENG9CI4XVH7", "current_trial": 119, "dateTime": 1512853557338, "trialdata": {"rt": -1, "stimulus": "<p id=\"stim\">9</p>", "key_press": -1, "trial_type": "single-stim", "trial_index": 119, "time_elapsed": 699446, "internal_node_id": "0.0-91.0-1.0"}}, {"uniqueid": "MTK0863:3G5F9DBFOQ4VK5SOA3UENG9CI4XVH7", "current_trial": 120, "dateTime": 1512853558340, "trialdata": {"rt": -1, "stimulus": "<p id=\"stim\">8</p>", "key_press": -1, "trial_type": "single-stim", "trial_index": 120, "time_elapsed": 700448, "internal_node_id": "0.0-91.0-2.0"}}, {"uniqueid": "MTK0863:3G5F9DBFOQ4VK5SOA3UENG9CI4XVH7", "current_trial": 121, "dateTime": 1512853559341, "trialdata": {"rt": -1, "stimulus": "<p id=\"stim\">7</p>", "key_press": -1, "trial_type": "single-stim", "trial_index": 121, "time_elapsed": 701449, "internal_node_id": "0.0-91.0-3.0"}}, {"uniqueid": "MTK0863:3G5F9DBFOQ4VK5SOA3UENG9CI4XVH7", "current_trial": 122, "dateTime": 1512853560342, "trialdata": {"rt": -1, "stimulus": "<p id=\"stim\">6</p>", "key_press": -1, "trial_type": "single-stim", "trial_index": 122, "time_elapsed": 702450, "internal_node_id": "0.0-91.0-4.0"}}, {"uniqueid": "MTK0863:3G5F9DBFOQ4VK5SOA3UENG9CI4XVH7", "current_trial": 123, "dateTime": 1512853561343, "trialdata": {"rt": -1, "stimulus": "<p id=\"stim\">5</p>", "key_press": -1, "trial_type": "single-stim", "trial_index": 123, "time_elapsed": 703451, "internal_node_id": "0.0-91.0-5.0"}}, {"uniqueid": "MTK0863:3G5F9DBFOQ4VK5SOA3UENG9CI4XVH7", "current_trial": 124, "dateTime": 1512853562344, "trialdata": {"rt": -1, "stimulus": "<p id=\"stim\">4</p>", "key_press": -1, "trial_type": "single-stim", "trial_index": 124, "time_elapsed": 704452, "internal_node_id": "0.0-91.0-6.0"}}, {"uniqueid": "MTK0863:3G5F9DBFOQ4VK5SOA3UENG9CI4XVH7", "current_trial": 125, "dateTime": 1512853563345, "trialdata": {"rt": -1, "stimulus": "<p id=\"stim\">3</p>", "key_press": -1, "trial_type": "single-stim", "trial_index": 125, "time_elapsed": 705453, "internal_node_id": "0.0-91.0-7.0"}}, {"uniqueid": "MTK0863:3G5F9DBFOQ4VK5SOA3UENG9CI4XVH7", "current_trial": 126, "dateTime": 1512853564346, "trialdata": {"rt": -1, "stimulus": "<p id=\"stim\">2</p>", "key_press": -1, "trial_type": "single-stim", "trial_index": 126, "time_elapsed": 706454, "internal_node_id": "0.0-91.0-8.0"}}, {"uniqueid": "MTK0863:3G5F9DBFOQ4VK5SOA3UENG9CI4XVH7", "current_trial": 127, "dateTime": 1512853565347, "trialdata": {"rt": -1, "stimulus": "<p id=\"stim\">1</p>", "key_press": -1, "trial_type": "single-stim", "trial_index": 127, "time_elapsed": 707455, "internal_node_id": "0.0-91.0-9.0"}}, {"uniqueid": "MTK0863:3G5F9DBFOQ4VK5SOA3UENG9CI4XVH7", "current_trial": 128, "dateTime": 1512853566848, "trialdata": {"rt": -1, "stimulus": "<p id=\"stim\">+</p>", "key_press": -1, "type": "FIXATION", "trial_type": "single-stim", "trial_index": 128, "time_elapsed": 708956, "internal_node_id": "0.0-92.0-0.0"}}, {"uniqueid": "MTK0863:3G5F9DBFOQ4VK5SOA3UENG9CI4XVH7", "current_trial": 129, "dateTime": 1512853567652, "trialdata": {"rt": -1, "stimulus": "<p id=\"stim\">TYPIST</p>", "key_press": -1, "type": "PRES_VIS", "word": "typist", "wordID": 1531, "conditions": [24, 800, "v", 12000], "trial": 3, "serialpos": 0, "trial_type": "single-stim", "trial_index": 129, "time_elapsed": 709760, "internal_node_id": "0.0-93.0"}}, {"uniqueid": "MTK0863:3G5F9DBFOQ4VK5SOA3UENG9CI4XVH7", "current_trial": 130, "dateTime": 1512853569565, "trialdata": {"rt": -1, "stimulus": "<p id=\"stim\">CUSTARD</p>", "key_press": -1, "type": "PRES_VIS", "word": "custard", "wordID": 428, "conditions": [24, 800, "v", 12000], "trial": 3, "serialpos": 1, "trial_type": "single-stim", "trial_index": 130, "time_elapsed": 711673, "internal_node_id": "0.0-94.0"}}, {"uniqueid": "MTK0863:3G5F9DBFOQ4VK5SOA3UENG9CI4XVH7", "current_trial": 131, "dateTime": 1512853571461, "trialdata": {"rt": -1, "stimulus": "<p id=\"stim\">GYMNAST</p>", "key_press": -1, "type": "PRES_VIS", "word": "gymnast", "wordID": 674, "conditions": [24, 800, "v", 12000], "trial": 3, "serialpos": 2, "trial_type": "single-stim", "trial_index": 131, "time_elapsed": 713569, "internal_node_id": "0.0-95.0"}}, {"uniqueid": "MTK0863:3G5F9DBFOQ4VK5SOA3UENG9CI4XVH7", "current_trial": 132, "dateTime": 1512853573331, "trialdata": {"rt": -1, "stimulus": "<p id=\"stim\">POLICE</p>", "key_press": -1, "type": "PRES_VIS", "word": "police", "wordID": 1097, "conditions": [24, 800, "v", 12000], "trial": 3, "serialpos": 3, "trial_type": "single-stim", "trial_index": 132, "time_elapsed": 715439, "internal_node_id": "0.0-96.0"}}, {"uniqueid": "MTK0863:3G5F9DBFOQ4VK5SOA3UENG9CI4XVH7", "current_trial": 133, "dateTime": 1512853575073, "trialdata": {"rt": -1, "stimulus": "<p id=\"stim\">BUREAU</p>", "key_press": -1, "type": "PRES_VIS", "word": "bureau", "wordID": 198, "conditions": [24, 800, "v", 12000], "trial": 3, "serialpos": 4, "trial_type": "single-stim", "trial_index": 133, "time_elapsed": 717181, "internal_node_id": "0.0-97.0"}}, {"uniqueid": "MTK0863:3G5F9DBFOQ4VK5SOA3UENG9CI4XVH7", "current_trial": 134, "dateTime": 1512853576883, "trialdata": {"rt": -1, "stimulus": "<p id=\"stim\">SAUSAGE</p>", "key_press": -1, "type": "PRES_VIS", "word": "sausage", "wordID": 1237, "conditions": [24, 800, "v", 12000], "trial": 3, "serialpos": 5, "trial_type": "single-stim", "trial_index": 134, "time_elapsed": 718991, "internal_node_id": "0.0-98.0"}}, {"uniqueid": "MTK0863:3G5F9DBFOQ4VK5SOA3UENG9CI4XVH7", "current_trial": 135, "dateTime": 1512853578845, "trialdata": {"rt": -1, "stimulus": "<p id=\"stim\">CHAPEL</p>", "key_press": -1, "type": "PRES_VIS", "word": "chapel", "wordID": 279, "conditions": [24, 800, "v", 12000], "trial": 3, "serialpos": 6, "trial_type": "single-stim", "trial_index": 135, "time_elapsed": 720953, "internal_node_id": "0.0-99.0"}}, {"uniqueid": "MTK0863:3G5F9DBFOQ4VK5SOA3UENG9CI4XVH7", "current_trial": 136, "dateTime": 1512853580675, "trialdata": {"rt": -1, "stimulus": "<p id=\"stim\">STAR</p>", "key_press": -1, "type": "PRES_VIS", "word": "star", "wordID": 1372, "conditions": [24, 800, "v", 12000], "trial": 3, "serialpos": 7, "trial_type": "single-stim", "trial_index": 136, "time_elapsed": 722782, "internal_node_id": "0.0-100.0"}}, {"uniqueid": "MTK0863:3G5F9DBFOQ4VK5SOA3UENG9CI4XVH7", "current_trial": 137, "dateTime": 1512853582530, "trialdata": {"rt": -1, "stimulus": "<p id=\"stim\">CATCHER</p>", "key_press": -1, "type": "PRES_VIS", "word": "catcher", "wordID": 257, "conditions": [24, 800, "v", 12000], "trial": 3, "serialpos": 8, "trial_type": "single-stim", "trial_index": 137, "time_elapsed": 724638, "internal_node_id": "0.0-101.0"}}, {"uniqueid": "MTK0863:3G5F9DBFOQ4VK5SOA3UENG9CI4XVH7", "current_trial": 138, "dateTime": 1512853584180, "trialdata": {"rt": -1, "stimulus": "<p id=\"stim\">TERMITE</p>", "key_press": -1, "type": "PRES_VIS", "word": "termite", "wordID": 1450, "conditions": [24, 800, "v", 12000], "trial": 3, "serialpos": 9, "trial_type": "single-stim", "trial_index": 138, "time_elapsed": 726288, "internal_node_id": "0.0-102.0"}}, {"uniqueid": "MTK0863:3G5F9DBFOQ4VK5SOA3UENG9CI4XVH7", "current_trial": 139, "dateTime": 1512853586090, "trialdata": {"rt": -1, "stimulus": "<p id=\"stim\">FUNGUS</p>", "key_press": -1, "type": "PRES_VIS", "word": "fungus", "wordID": 613, "conditions": [24, 800, "v", 12000], "trial": 3, "serialpos": 10, "trial_type": "single-stim", "trial_index": 139, "time_elapsed": 728198, "internal_node_id": "0.0-103.0"}}, {"uniqueid": "MTK0863:3G5F9DBFOQ4VK5SOA3UENG9CI4XVH7", "current_trial": 140, "dateTime": 1512853588070, "trialdata": {"rt": -1, "stimulus": "<p id=\"stim\">TRIBE</p>", "key_press": -1, "type": "PRES_VIS", "word": "tribe", "wordID": 1504, "conditions": [24, 800, "v", 12000], "trial": 3, "serialpos": 11, "trial_type": "single-stim", "trial_index": 140, "time_elapsed": 730178, "internal_node_id": "0.0-104.0"}}, {"uniqueid": "MTK0863:3G5F9DBFOQ4VK5SOA3UENG9CI4XVH7", "current_trial": 141, "dateTime": 1512853589932, "trialdata": {"rt": -1, "stimulus": "<p id=\"stim\">FLESH</p>", "key_press": -1, "type": "PRES_VIS", "word": "flesh", "wordID": 578, "conditions": [24, 800, "v", 12000], "trial": 3, "serialpos": 12, "trial_type": "single-stim", "trial_index": 141, "time_elapsed": 732040, "internal_node_id": "0.0-105.0"}}, {"uniqueid": "MTK0863:3G5F9DBFOQ4VK5SOA3UENG9CI4XVH7", "current_trial": 142, "dateTime": 1512853591775, "trialdata": {"rt": -1, "stimulus": "<p id=\"stim\">KIDNEY</p>", "key_press": -1, "type": "PRES_VIS", "word": "kidney", "wordID": 775, "conditions": [24, 800, "v", 12000], "trial": 3, "serialpos": 13, "trial_type": "single-stim", "trial_index": 142, "time_elapsed": 733883, "internal_node_id": "0.0-106.0"}}, {"uniqueid": "MTK0863:3G5F9DBFOQ4VK5SOA3UENG9CI4XVH7", "current_trial": 143, "dateTime": 1512853593666, "trialdata": {"rt": -1, "stimulus": "<p id=\"stim\">OMELET</p>", "key_press": -1, "type": "PRES_VIS", "word": "omelet", "wordID": 975, "conditions": [24, 800, "v", 12000], "trial": 3, "serialpos": 14, "trial_type": "single-stim", "trial_index": 143, "time_elapsed": 735774, "internal_node_id": "0.0-107.0"}}, {"uniqueid": "MTK0863:3G5F9DBFOQ4VK5SOA3UENG9CI4XVH7", "current_trial": 144, "dateTime": 1512853595365, "trialdata": {"rt": -1, "stimulus": "<p id=\"stim\">ELBOW</p>", "key_press": -1, "type": "PRES_VIS", "word": "elbow", "wordID": 519, "conditions": [24, 800, "v", 12000], "trial": 3, "serialpos": 15, "trial_type": "single-stim", "trial_index": 144, "time_elapsed": 737473, "internal_node_id": "0.0-108.0"}}, {"uniqueid": "MTK0863:3G5F9DBFOQ4VK5SOA3UENG9CI4XVH7", "current_trial": 145, "dateTime": 1512853597052, "trialdata": {"rt": -1, "stimulus": "<p id=\"stim\">WRIST</p>", "key_press": -1, "type": "PRES_VIS", "word": "wrist", "wordID": 1625, "conditions": [24, 800, "v", 12000], "trial": 3, "serialpos": 16, "trial_type": "single-stim", "trial_index": 145, "time_elapsed": 739160, "internal_node_id": "0.0-109.0"}}, {"uniqueid": "MTK0863:3G5F9DBFOQ4VK5SOA3UENG9CI4XVH7", "current_trial": 146, "dateTime": 1512853598901, "trialdata": {"rt": -1, "stimulus": "<p id=\"stim\">JELLO</p>", "key_press": -1, "type": "PRES_VIS", "word": "jello", "wordID": 753, "conditions": [24, 800, "v", 12000], "trial": 3, "serialpos": 17, "trial_type": "single-stim", "trial_index": 146, "time_elapsed": 741009, "internal_node_id": "0.0-110.0"}}, {"uniqueid": "MTK0863:3G5F9DBFOQ4VK5SOA3UENG9CI4XVH7", "current_trial": 147, "dateTime": 1512853600730, "trialdata": {"rt": -1, "stimulus": "<p id=\"stim\">RABBIT</p>", "key_press": -1, "type": "PRES_VIS", "word": "rabbit", "wordID": 1151, "conditions": [24, 800, "v", 12000], "trial": 3, "serialpos": 18, "trial_type": "single-stim", "trial_index": 147, "time_elapsed": 742838, "internal_node_id": "0.0-111.0"}}, {"uniqueid": "MTK0863:3G5F9DBFOQ4VK5SOA3UENG9CI4XVH7", "current_trial": 148, "dateTime": 1512853602445, "trialdata": {"rt": -1, "stimulus": "<p id=\"stim\">OYSTER</p>", "key_press": -1, "type": "PRES_VIS", "word": "oyster", "wordID": 994, "conditions": [24, 800, "v", 12000], "trial": 3, "serialpos": 19, "trial_type": "single-stim", "trial_index": 148, "time_elapsed": 744553, "internal_node_id": "0.0-112.0"}}, {"uniqueid": "MTK0863:3G5F9DBFOQ4VK5SOA3UENG9CI4XVH7", "current_trial": 149, "dateTime": 1512853604326, "trialdata": {"rt": -1, "stimulus": "<p id=\"stim\">COOKBOOK</p>", "key_press": -1, "type": "PRES_VIS", "word": "cookbook", "wordID": 372, "conditions": [24, 800, "v", 12000], "trial": 3, "serialpos": 20, "trial_type": "single-stim", "trial_index": 149, "time_elapsed": 746434, "internal_node_id": "0.0-113.0"}}, {"uniqueid": "MTK0863:3G5F9DBFOQ4VK5SOA3UENG9CI4XVH7", "current_trial": 150, "dateTime": 1512853605960, "trialdata": {"rt": -1, "stimulus": "<p id=\"stim\">LIVER</p>", "key_press": -1, "type": "PRES_VIS", "word": "liver", "wordID": 832, "conditions": [24, 800, "v", 12000], "trial": 3, "serialpos": 21, "trial_type": "single-stim", "trial_index": 150, "time_elapsed": 748067, "internal_node_id": "0.0-114.0"}}, {"uniqueid": "MTK0863:3G5F9DBFOQ4VK5SOA3UENG9CI4XVH7", "current_trial": 151, "dateTime": 1512853607775, "trialdata": {"rt": -1, "stimulus": "<p id=\"stim\">GLASS</p>", "key_press": -1, "type": "PRES_VIS", "word": "glass", "wordID": 638, "conditions": [24, 800, "v", 12000], "trial": 3, "serialpos": 22, "trial_type": "single-stim", "trial_index": 151, "time_elapsed": 749883, "internal_node_id": "0.0-115.0"}}, {"uniqueid": "MTK0863:3G5F9DBFOQ4VK5SOA3UENG9CI4XVH7", "current_trial": 152, "dateTime": 1512853609765, "trialdata": {"rt": -1, "stimulus": "<p id=\"stim\">ORANGE</p>", "key_press": -1, "type": "PRES_VIS", "word": "orange", "wordID": 979, "conditions": [24, 800, "v", 12000], "trial": 3, "serialpos": 23, "trial_type": "single-stim", "trial_index": 152, "time_elapsed": 751873, "internal_node_id": "0.0-116.0"}}, {"uniqueid": "MTK0863:3G5F9DBFOQ4VK5SOA3UENG9CI4XVH7", "current_trial": 153, "dateTime": 1512853611798, "trialdata": {"rt": -1, "stimulus": "", "key_press": -1, "type": "PRE_RECALL_DELAY", "trial_type": "single-stim", "trial_index": 153, "time_elapsed": 753906, "internal_node_id": "0.0-117.0-0.0"}}, {"uniqueid": "MTK0863:3G5F9DBFOQ4VK5SOA3UENG9CI4XVH7", "current_trial": 154, "dateTime": 1512853612299, "trialdata": {"rt": -1000, "stimulus": "/static/audio/400Hz.wav", "key_press": -1, "type": "PRE_RECALL_ALERT", "trial_type": "single-audio", "trial_index": 154, "time_elapsed": 754407, "internal_node_id": "0.0-118.0"}}, {"uniqueid": "MTK0863:3G5F9DBFOQ4VK5SOA3UENG9CI4XVH7", "current_trial": 155, "dateTime": 1512853672308, "trialdata": {"rt": [2749, 3799, 5081, 6958, 8437, 9625, 10875, 13575, 17007, 24835], "recwords": ["orange", "typist", "custard", "gymnast", "police", "wrist", "elbow", "cookbook", "oyster", "bureau"], "type": "FREE_RECALL", "conditions": [24, 800, "v", 12000], "trial": 3, "trial_type": "free-recall", "trial_index": 155, "time_elapsed": 814414, "internal_node_id": "0.0-119.0-0.0"}}, {"uniqueid": "MTK0863:3G5F9DBFOQ4VK5SOA3UENG9CI4XVH7", "current_trial": 156, "dateTime": 1512853674951, "trialdata": {"rt": 641, "key_press": 32, "type": "INSTRUCTIONS", "trial_type": "text", "trial_index": 156, "time_elapsed": 817059, "internal_node_id": "0.0-120.0"}}, {"uniqueid": "MTK0863:3G5F9DBFOQ4VK5SOA3UENG9CI4XVH7", "current_trial": 157, "dateTime": 1512853688955, "trialdata": {"rt": [2141, 5069, 7161, 9341, 10622], "responses": ["12", "23", "19", "17", "5"], "num1": [2, 8, 2, 9, 1, 6], "num2": [3, 6, 9, 4, 2, 5], "num3": [7, 9, 8, 4, 2, 5], "type": "DISTRACTOR", "conditions": [24, 1600, "v", 12000], "trial": 4, "trial_type": "math-distractor", "trial_index": 157, "time_elapsed": 831063, "internal_node_id": "0.0-121.0"}}, {"uniqueid": "MTK0863:3G5F9DBFOQ4VK5SOA3UENG9CI4XVH7", "current_trial": 158, "dateTime": 1512853691959, "trialdata": {"rt": -1, "stimulus": "<p id=\"stim\">10</p>", "key_press": -1, "trial_type": "single-stim", "trial_index": 158, "time_elapsed": 834066, "internal_node_id": "0.0-122.0-0.0"}}, {"uniqueid": "MTK0863:3G5F9DBFOQ4VK5SOA3UENG9CI4XVH7", "current_trial": 159, "dateTime": 1512853692960, "trialdata": {"rt": -1, "stimulus": "<p id=\"stim\">9</p>", "key_press": -1, "trial_type": "single-stim", "trial_index": 159, "time_elapsed": 835068, "internal_node_id": "0.0-122.0-1.0"}}, {"uniqueid": "MTK0863:3G5F9DBFOQ4VK5SOA3UENG9CI4XVH7", "current_trial": 160, "dateTime": 1512853693961, "trialdata": {"rt": -1, "stimulus": "<p id=\"stim\">8</p>", "key_press": -1, "trial_type": "single-stim", "trial_index": 160, "time_elapsed": 836069, "internal_node_id": "0.0-122.0-2.0"}}, {"uniqueid": "MTK0863:3G5F9DBFOQ4VK5SOA3UENG9CI4XVH7", "current_trial": 161, "dateTime": 1512853694964, "trialdata": {"rt": -1, "stimulus": "<p id=\"stim\">7</p>", "key_press": -1, "trial_type": "single-stim", "trial_index": 161, "time_elapsed": 837072, "internal_node_id": "0.0-122.0-3.0"}}, {"uniqueid": "MTK0863:3G5F9DBFOQ4VK5SOA3UENG9CI4XVH7", "current_trial": 162, "dateTime": 1512853695965, "trialdata": {"rt": -1, "stimulus": "<p id=\"stim\">6</p>", "key_press": -1, "trial_type": "single-stim", "trial_index": 162, "time_elapsed": 838073, "internal_node_id": "0.0-122.0-4.0"}}, {"uniqueid": "MTK0863:3G5F9DBFOQ4VK5SOA3UENG9CI4XVH7", "current_trial": 163, "dateTime": 1512853696970, "trialdata": {"rt": -1, "stimulus": "<p id=\"stim\">5</p>", "key_press": -1, "trial_type": "single-stim", "trial_index": 163, "time_elapsed": 839078, "internal_node_id": "0.0-122.0-5.0"}}, {"uniqueid": "MTK0863:3G5F9DBFOQ4VK5SOA3UENG9CI4XVH7", "current_trial": 164, "dateTime": 1512853697971, "trialdata": {"rt": -1, "stimulus": "<p id=\"stim\">4</p>", "key_press": -1, "trial_type": "single-stim", "trial_index": 164, "time_elapsed": 840079, "internal_node_id": "0.0-122.0-6.0"}}, {"uniqueid": "MTK0863:3G5F9DBFOQ4VK5SOA3UENG9CI4XVH7", "current_trial": 165, "dateTime": 1512853698973, "trialdata": {"rt": -1, "stimulus": "<p id=\"stim\">3</p>", "key_press": -1, "trial_type": "single-stim", "trial_index": 165, "time_elapsed": 841081, "internal_node_id": "0.0-122.0-7.0"}}, {"uniqueid": "MTK0863:3G5F9DBFOQ4VK5SOA3UENG9CI4XVH7", "current_trial": 166, "dateTime": 1512853699974, "trialdata": {"rt": -1, "stimulus": "<p id=\"stim\">2</p>", "key_press": -1, "trial_type": "single-stim", "trial_index": 166, "time_elapsed": 842082, "internal_node_id": "0.0-122.0-8.0"}}, {"uniqueid": "MTK0863:3G5F9DBFOQ4VK5SOA3UENG9CI4XVH7", "current_trial": 167, "dateTime": 1512853700975, "trialdata": {"rt": -1, "stimulus": "<p id=\"stim\">1</p>", "key_press": -1, "trial_type": "single-stim", "trial_index": 167, "time_elapsed": 843083, "internal_node_id": "0.0-122.0-9.0"}}, {"uniqueid": "MTK0863:3G5F9DBFOQ4VK5SOA3UENG9CI4XVH7", "current_trial": 168, "dateTime": 1512853702477, "trialdata": {"rt": -1, "stimulus": "<p id=\"stim\">+</p>", "key_press": -1, "type": "FIXATION", "trial_type": "single-stim", "trial_index": 168, "time_elapsed": 844584, "internal_node_id": "0.0-123.0-0.0"}}, {"uniqueid": "MTK0863:3G5F9DBFOQ4VK5SOA3UENG9CI4XVH7", "current_trial": 169, "dateTime": 1512853704078, "trialdata": {"rt": -1, "stimulus": "<p id=\"stim\">CAMEL</p>", "key_press": -1, "type": "PRES_VIS", "word": "camel", "wordID": 222, "conditions": [24, 1600, "v", 12000], "trial": 4, "serialpos": 0, "trial_type": "single-stim", "trial_index": 169, "time_elapsed": 846186, "internal_node_id": "0.0-124.0"}}, {"uniqueid": "MTK0863:3G5F9DBFOQ4VK5SOA3UENG9CI4XVH7", "current_trial": 170, "dateTime": 1512853706747, "trialdata": {"rt": -1, "stimulus": "<p id=\"stim\">FEMALE</p>", "key_press": -1, "type": "PRES_VIS", "word": "female", "wordID": 558, "conditions": [24, 1600, "v", 12000], "trial": 4, "serialpos": 1, "trial_type": "single-stim", "trial_index": 170, "time_elapsed": 848855, "internal_node_id": "0.0-125.0"}}, {"uniqueid": "MTK0863:3G5F9DBFOQ4VK5SOA3UENG9CI4XVH7", "current_trial": 171, "dateTime": 1512853709461, "trialdata": {"rt": -1, "stimulus": "<p id=\"stim\">BUNNY</p>", "key_press": -1, "type": "PRES_VIS", "word": "bunny", "wordID": 197, "conditions": [24, 1600, "v", 12000], "trial": 4, "serialpos": 2, "trial_type": "single-stim", "trial_index": 171, "time_elapsed": 851569, "internal_node_id": "0.0-126.0"}}, {"uniqueid": "MTK0863:3G5F9DBFOQ4VK5SOA3UENG9CI4XVH7", "current_trial": 172, "dateTime": 1512853711950, "trialdata": {"rt": -1, "stimulus": "<p id=\"stim\">BRIEFCASE</p>", "key_press": -1, "type": "PRES_VIS", "word": "briefcase", "wordID": 174, "conditions": [24, 1600, "v", 12000], "trial": 4, "serialpos": 3, "trial_type": "single-stim", "trial_index": 172, "time_elapsed": 854058, "internal_node_id": "0.0-127.0"}}, {"uniqueid": "MTK0863:3G5F9DBFOQ4VK5SOA3UENG9CI4XVH7", "current_trial": 173, "dateTime": 1512853714647, "trialdata": {"rt": -1, "stimulus": "<p id=\"stim\">HANDBAG</p>", "key_press": -1, "type": "PRES_VIS", "word": "handbag", "wordID": 683, "conditions": [24, 1600, "v", 12000], "trial": 4, "serialpos": 4, "trial_type": "single-stim", "trial_index": 173, "time_elapsed": 856755, "internal_node_id": "0.0-128.0"}}, {"uniqueid": "MTK0863:3G5F9DBFOQ4VK5SOA3UENG9CI4XVH7", "current_trial": 174, "dateTime": 1512853717376, "trialdata": {"rt": -1, "stimulus": "<p id=\"stim\">CHIPMUNK</p>", "key_press": -1, "type": "PRES_VIS", "word": "chipmunk", "wordID": 303, "conditions": [24, 1600, "v", 12000], "trial": 4, "serialpos": 5, "trial_type": "single-stim", "trial_index": 174, "time_elapsed": 859484, "internal_node_id": "0.0-129.0"}}, {"uniqueid": "MTK0863:3G5F9DBFOQ4VK5SOA3UENG9CI4XVH7", "current_trial": 175, "dateTime": 1512853719967, "trialdata": {"rt": -1, "stimulus": "<p id=\"stim\">DONKEY</p>", "key_press": -1, "type": "PRES_VIS", "word": "donkey", "wordID": 483, "conditions": [24, 1600, "v", 12000], "trial": 4, "serialpos": 6, "trial_type": "single-stim", "trial_index": 175, "time_elapsed": 862075, "internal_node_id": "0.0-130.0"}}, {"uniqueid": "MTK0863:3G5F9DBFOQ4VK5SOA3UENG9CI4XVH7", "current_trial": 176, "dateTime": 1512853722662, "trialdata": {"rt": -1, "stimulus": "<p id=\"stim\">HONEY</p>", "key_press": -1, "type": "PRES_VIS", "word": "honey", "wordID": 712, "conditions": [24, 1600, "v", 12000], "trial": 4, "serialpos": 7, "trial_type": "single-stim", "trial_index": 176, "time_elapsed": 864770, "internal_node_id": "0.0-131.0"}}, {"uniqueid": "MTK0863:3G5F9DBFOQ4VK5SOA3UENG9CI4XVH7", "current_trial": 177, "dateTime": 1512853725128, "trialdata": {"rt": -1, "stimulus": "<p id=\"stim\">SANDWICH</p>", "key_press": -1, "type": "PRES_VIS", "word": "sandwich", "wordID": 1231, "conditions": [24, 1600, "v", 12000], "trial": 4, "serialpos": 8, "trial_type": "single-stim", "trial_index": 177, "time_elapsed": 867236, "internal_node_id": "0.0-132.0"}}, {"uniqueid": "MTK0863:3G5F9DBFOQ4VK5SOA3UENG9CI4XVH7", "current_trial": 178, "dateTime": 1512853727678, "trialdata": {"rt": -1, "stimulus": "<p id=\"stim\">ATLAS</p>", "key_press": -1, "type": "PRES_VIS", "word": "atlas", "wordID": 52, "conditions": [24, 1600, "v", 12000], "trial": 4, "serialpos": 9, "trial_type": "single-stim", "trial_index": 178, "time_elapsed": 869786, "internal_node_id": "0.0-133.0"}}, {"uniqueid": "MTK0863:3G5F9DBFOQ4VK5SOA3UENG9CI4XVH7", "current_trial": 179, "dateTime": 1512853730246, "trialdata": {"rt": -1, "stimulus": "<p id=\"stim\">PADDLE</p>", "key_press": -1, "type": "PRES_VIS", "word": "paddle", "wordID": 999, "conditions": [24, 1600, "v", 12000], "trial": 4, "serialpos": 10, "trial_type": "single-stim", "trial_index": 179, "time_elapsed": 872354, "internal_node_id": "0.0-134.0"}}, {"uniqueid": "MTK0863:3G5F9DBFOQ4VK5SOA3UENG9CI4XVH7", "current_trial": 180, "dateTime": 1512853733013, "trialdata": {"rt": -1, "stimulus": "<p id=\"stim\">SCARECROW</p>", "key_press": -1, "type": "PRES_VIS", "word": "scarecrow", "wordID": 1244, "conditions": [24, 1600, "v", 12000], "trial": 4, "serialpos": 11, "trial_type": "single-stim", "trial_index": 180, "time_elapsed": 875120, "internal_node_id": "0.0-135.0"}}, {"uniqueid": "MTK0863:3G5F9DBFOQ4VK5SOA3UENG9CI4XVH7", "current_trial": 181, "dateTime": 1512853735710, "trialdata": {"rt": -1, "stimulus": "<p id=\"stim\">BREAST</p>", "key_press": -1, "type": "PRES_VIS", "word": "breast", "wordID": 170, "conditions": [24, 1600, "v", 12000], "trial": 4, "serialpos": 12, "trial_type": "single-stim", "trial_index": 181, "time_elapsed": 877818, "internal_node_id": "0.0-136.0"}}, {"uniqueid": "MTK0863:3G5F9DBFOQ4VK5SOA3UENG9CI4XVH7", "current_trial": 182, "dateTime": 1512853738206, "trialdata": {"rt": -1, "stimulus": "<p id=\"stim\">MISSILE</p>", "key_press": -1, "type": "PRES_VIS", "word": "missile", "wordID": 899, "conditions": [24, 1600, "v", 12000], "trial": 4, "serialpos": 13, "trial_type": "single-stim", "trial_index": 182, "time_elapsed": 880314, "internal_node_id": "0.0-137.0"}}, {"uniqueid": "MTK0863:3G5F9DBFOQ4VK5SOA3UENG9CI4XVH7", "current_trial": 183, "dateTime": 1512853740615, "trialdata": {"rt": -1, "stimulus": "<p id=\"stim\">ROCKET</p>", "key_press": -1, "type": "PRES_VIS", "word": "rocket", "wordID": 1201, "conditions": [24, 1600, "v", 12000], "trial": 4, "serialpos": 14, "trial_type": "single-stim", "trial_index": 183, "time_elapsed": 882723, "internal_node_id": "0.0-138.0"}}, {"uniqueid": "MTK0863:3G5F9DBFOQ4VK5SOA3UENG9CI4XVH7", "current_trial": 184, "dateTime": 1512853743019, "trialdata": {"rt": -1, "stimulus": "<p id=\"stim\">WOMAN</p>", "key_press": -1, "type": "PRES_VIS", "word": "woman", "wordID": 1619, "conditions": [24, 1600, "v", 12000], "trial": 4, "serialpos": 15, "trial_type": "single-stim", "trial_index": 184, "time_elapsed": 885127, "internal_node_id": "0.0-139.0"}}, {"uniqueid": "MTK0863:3G5F9DBFOQ4VK5SOA3UENG9CI4XVH7", "current_trial": 185, "dateTime": 1512853745565, "trialdata": {"rt": -1, "stimulus": "<p id=\"stim\">DINER</p>", "key_press": -1, "type": "PRES_VIS", "word": "diner", "wordID": 466, "conditions": [24, 1600, "v", 12000], "trial": 4, "serialpos": 16, "trial_type": "single-stim", "trial_index": 185, "time_elapsed": 887672, "internal_node_id": "0.0-140.0"}}, {"uniqueid": "MTK0863:3G5F9DBFOQ4VK5SOA3UENG9CI4XVH7", "current_trial": 186, "dateTime": 1512853748069, "trialdata": {"rt": -1, "stimulus": "<p id=\"stim\">NOVEL</p>", "key_press": -1, "type": "PRES_VIS", "word": "novel", "wordID": 959, "conditions": [24, 1600, "v", 12000], "trial": 4, "serialpos": 17, "trial_type": "single-stim", "trial_index": 186, "time_elapsed": 890177, "internal_node_id": "0.0-141.0"}}, {"uniqueid": "MTK0863:3G5F9DBFOQ4VK5SOA3UENG9CI4XVH7", "current_trial": 187, "dateTime": 1512853750738, "trialdata": {"rt": -1, "stimulus": "<p id=\"stim\">DIVER</p>", "key_press": -1, "type": "PRES_VIS", "word": "diver", "wordID": 475, "conditions": [24, 1600, "v", 12000], "trial": 4, "serialpos": 18, "trial_type": "single-stim", "trial_index": 187, "time_elapsed": 892846, "internal_node_id": "0.0-142.0"}}, {"uniqueid": "MTK0863:3G5F9DBFOQ4VK5SOA3UENG9CI4XVH7", "current_trial": 188, "dateTime": 1512853753217, "trialdata": {"rt": -1, "stimulus": "<p id=\"stim\">FOREST</p>", "key_press": -1, "type": "PRES_VIS", "word": "forest", "wordID": 592, "conditions": [24, 1600, "v", 12000], "trial": 4, "serialpos": 19, "trial_type": "single-stim", "trial_index": 188, "time_elapsed": 895325, "internal_node_id": "0.0-143.0"}}, {"uniqueid": "MTK0863:3G5F9DBFOQ4VK5SOA3UENG9CI4XVH7", "current_trial": 189, "dateTime": 1512853755953, "trialdata": {"rt": -1, "stimulus": "<p id=\"stim\">CHEMIST</p>", "key_press": -1, "type": "PRES_VIS", "word": "chemist", "wordID": 291, "conditions": [24, 1600, "v", 12000], "trial": 4, "serialpos": 20, "trial_type": "single-stim", "trial_index": 189, "time_elapsed": 898061, "internal_node_id": "0.0-144.0"}}, {"uniqueid": "MTK0863:3G5F9DBFOQ4VK5SOA3UENG9CI4XVH7", "current_trial": 190, "dateTime": 1512853758587, "trialdata": {"rt": -1, "stimulus": "<p id=\"stim\">TEACHER</p>", "key_press": -1, "type": "PRES_VIS", "word": "teacher", "wordID": 1439, "conditions": [24, 1600, "v", 12000], "trial": 4, "serialpos": 21, "trial_type": "single-stim", "trial_index": 190, "time_elapsed": 900695, "internal_node_id": "0.0-145.0"}}, {"uniqueid": "MTK0863:3G5F9DBFOQ4VK5SOA3UENG9CI4XVH7", "current_trial": 191, "dateTime": 1512853761297, "trialdata": {"rt": -1, "stimulus": "<p id=\"stim\">DRIVER</p>", "key_press": -1, "type": "PRES_VIS", "word": "driver", "wordID": 498, "conditions": [24, 1600, "v", 12000], "trial": 4, "serialpos": 22, "trial_type": "single-stim", "trial_index": 191, "time_elapsed": 903405, "internal_node_id": "0.0-146.0"}}, {"uniqueid": "MTK0863:3G5F9DBFOQ4VK5SOA3UENG9CI4XVH7", "current_trial": 192, "dateTime": 1512853764009, "trialdata": {"rt": -1, "stimulus": "<p id=\"stim\">LADY</p>", "key_press": -1, "type": "PRES_VIS", "word": "lady", "wordID": 793, "conditions": [24, 1600, "v", 12000], "trial": 4, "serialpos": 23, "trial_type": "single-stim", "trial_index": 192, "time_elapsed": 906117, "internal_node_id": "0.0-147.0"}}, {"uniqueid": "MTK0863:3G5F9DBFOQ4VK5SOA3UENG9CI4XVH7", "current_trial": 193, "dateTime": 1512853766429, "trialdata": {"rt": -1, "stimulus": "", "key_press": -1, "type": "PRE_RECALL_DELAY", "trial_type": "single-stim", "trial_index": 193, "time_elapsed": 908537, "internal_node_id": "0.0-148.0-0.0"}}, {"uniqueid": "MTK0863:3G5F9DBFOQ4VK5SOA3UENG9CI4XVH7", "current_trial": 194, "dateTime": 1512853766931, "trialdata": {"rt": -1000, "stimulus": "/static/audio/400Hz.wav", "key_press": -1, "type": "PRE_RECALL_ALERT", "trial_type": "single-audio", "trial_index": 194, "time_elapsed": 909039, "internal_node_id": "0.0-149.0"}}, {"uniqueid": "MTK0863:3G5F9DBFOQ4VK5SOA3UENG9CI4XVH7", "current_trial": 195, "dateTime": 1512853826943, "trialdata": {"rt": [1554, 2706, 3670, 5407, 6498, 8180, 9563, 11895, 13325, 15531, 18285, 19858, 51380, 54699, 59908], "recwords": ["female", "bunny", "camel", "chipmunk", "donkey", "lady", "woman", "missile", "rocket", "briefcase", "handbag", "diner", "sandwich", "paddle", "canoe"], "type": "FREE_RECALL", "conditions": [24, 1600, "v", 12000], "trial": 4, "trial_type": "free-recall", "trial_index": 195, "time_elapsed": 969046, "internal_node_id": "0.0-150.0-0.0"}}, {"uniqueid": "MTK0863:3G5F9DBFOQ4VK5SOA3UENG9CI4XVH7", "current_trial": 196, "dateTime": 1512853830107, "trialdata": {"rt": 1162, "key_press": 74, "type": "INSTRUCTIONS", "trial_type": "text", "trial_index": 196, "time_elapsed": 972214, "internal_node_id": "0.0-151.0"}}, {"uniqueid": "MTK0863:3G5F9DBFOQ4VK5SOA3UENG9CI4XVH7", "current_trial": 197, "dateTime": 1512853844112, "trialdata": {"rt": [1972, 3887, 6046, 7534, 8695, 10981], "responses": ["17", "13", "15", "7", "5", "17"], "num1": [7, 8, 7, 1, 2, 6, 7], "num2": [8, 4, 2, 1, 2, 8, 4], "num3": [2, 1, 6, 5, 1, 3, 3], "type": "DISTRACTOR", "conditions": [12, 1600, "v", 12000], "trial": 5, "trial_type": "math-distractor", "trial_index": 197, "time_elapsed": 986220, "internal_node_id": "0.0-152.0"}}, {"uniqueid": "MTK0863:3G5F9DBFOQ4VK5SOA3UENG9CI4XVH7", "current_trial": 198, "dateTime": 1512853847115, "trialdata": {"rt": -1, "stimulus": "<p id=\"stim\">10</p>", "key_press": -1, "trial_type": "single-stim", "trial_index": 198, "time_elapsed": 989222, "internal_node_id": "0.0-153.0-0.0"}}, {"uniqueid": "MTK0863:3G5F9DBFOQ4VK5SOA3UENG9CI4XVH7", "current_trial": 199, "dateTime": 1512853848116, "trialdata": {"rt": -1, "stimulus": "<p id=\"stim\">9</p>", "key_press": -1, "trial_type": "single-stim", "trial_index": 199, "time_elapsed": 990224, "internal_node_id": "0.0-153.0-1.0"}}, {"uniqueid": "MTK0863:3G5F9DBFOQ4VK5SOA3UENG9CI4XVH7", "current_trial": 200, "dateTime": 1512853849117, "trialdata": {"rt": -1, "stimulus": "<p id=\"stim\">8</p>", "key_press": -1, "trial_type": "single-stim", "trial_index": 200, "time_elapsed": 991225, "internal_node_id": "0.0-153.0-2.0"}}, {"uniqueid": "MTK0863:3G5F9DBFOQ4VK5SOA3UENG9CI4XVH7", "current_trial": 201, "dateTime": 1512853850118, "trialdata": {"rt": -1, "stimulus": "<p id=\"stim\">7</p>", "key_press": -1, "trial_type": "single-stim", "trial_index": 201, "time_elapsed": 992226, "internal_node_id": "0.0-153.0-3.0"}}, {"uniqueid": "MTK0863:3G5F9DBFOQ4VK5SOA3UENG9CI4XVH7", "current_trial": 202, "dateTime": 1512853851119, "trialdata": {"rt": -1, "stimulus": "<p id=\"stim\">6</p>", "key_press": -1, "trial_type": "single-stim", "trial_index": 202, "time_elapsed": 993227, "internal_node_id": "0.0-153.0-4.0"}}, {"uniqueid": "MTK0863:3G5F9DBFOQ4VK5SOA3UENG9CI4XVH7", "current_trial": 203, "dateTime": 1512853852120, "trialdata": {"rt": -1, "stimulus": "<p id=\"stim\">5</p>", "key_press": -1, "trial_type": "single-stim", "trial_index": 203, "time_elapsed": 994228, "internal_node_id": "0.0-153.0-5.0"}}, {"uniqueid": "MTK0863:3G5F9DBFOQ4VK5SOA3UENG9CI4XVH7", "current_trial": 204, "dateTime": 1512853853122, "trialdata": {"rt": -1, "stimulus": "<p id=\"stim\">4</p>", "key_press": -1, "trial_type": "single-stim", "trial_index": 204, "time_elapsed": 995230, "internal_node_id": "0.0-153.0-6.0"}}, {"uniqueid": "MTK0863:3G5F9DBFOQ4VK5SOA3UENG9CI4XVH7", "current_trial": 205, "dateTime": 1512853854123, "trialdata": {"rt": -1, "stimulus": "<p id=\"stim\">3</p>", "key_press": -1, "trial_type": "single-stim", "trial_index": 205, "time_elapsed": 996231, "internal_node_id": "0.0-153.0-7.0"}}, {"uniqueid": "MTK0863:3G5F9DBFOQ4VK5SOA3UENG9CI4XVH7", "current_trial": 206, "dateTime": 1512853855126, "trialdata": {"rt": -1, "stimulus": "<p id=\"stim\">2</p>", "key_press": -1, "trial_type": "single-stim", "trial_index": 206, "time_elapsed": 997233, "internal_node_id": "0.0-153.0-8.0"}}, {"uniqueid": "MTK0863:3G5F9DBFOQ4VK5SOA3UENG9CI4XVH7", "current_trial": 207, "dateTime": 1512853856127, "trialdata": {"rt": -1, "stimulus": "<p id=\"stim\">1</p>", "key_press": -1, "trial_type": "single-stim", "trial_index": 207, "time_elapsed": 998235, "internal_node_id": "0.0-153.0-9.0"}}, {"uniqueid": "MTK0863:3G5F9DBFOQ4VK5SOA3UENG9CI4XVH7", "current_trial": 208, "dateTime": 1512853857629, "trialdata": {"rt": -1, "stimulus": "<p id=\"stim\">+</p>", "key_press": -1, "type": "FIXATION", "trial_type": "single-stim", "trial_index": 208, "time_elapsed": 999737, "internal_node_id": "0.0-154.0-0.0"}}, {"uniqueid": "MTK0863:3G5F9DBFOQ4VK5SOA3UENG9CI4XVH7", "current_trial": 209, "dateTime": 1512853859231, "trialdata": {"rt": -1, "stimulus": "<p id=\"stim\">COMET</p>", "key_press": -1, "type": "PRES_VIS", "word": "comet", "wordID": 352, "conditions": [12, 1600, "v", 12000], "trial": 5, "serialpos": 0, "trial_type": "single-stim", "trial_index": 209, "time_elapsed": 1001338, "internal_node_id": "0.0-155.0"}}, {"uniqueid": "MTK0863:3G5F9DBFOQ4VK5SOA3UENG9CI4XVH7", "current_trial": 210, "dateTime": 1512853861772, "trialdata": {"rt": -1, "stimulus": "<p id=\"stim\">LIZARD</p>", "key_press": -1, "type": "PRES_VIS", "word": "lizard", "wordID": 833, "conditions": [12, 1600, "v", 12000], "trial": 5, "serialpos": 1, "trial_type": "single-stim", "trial_index": 210, "time_elapsed": 1003880, "internal_node_id": "0.0-156.0"}}, {"uniqueid": "MTK0863:3G5F9DBFOQ4VK5SOA3UENG9CI4XVH7", "current_trial": 211, "dateTime": 1512853864291, "trialdata": {"rt": -1, "stimulus": "<p id=\"stim\">DRAGON</p>", "key_press": -1, "type": "PRES_VIS", "word": "dragon", "wordID": 491, "conditions": [12, 1600, "v", 12000], "trial": 5, "serialpos": 2, "trial_type": "single-stim", "trial_index": 211, "time_elapsed": 1006399, "internal_node_id": "0.0-157.0"}}, {"uniqueid": "MTK0863:3G5F9DBFOQ4VK5SOA3UENG9CI4XVH7", "current_trial": 212, "dateTime": 1512853866747, "trialdata": {"rt": -1, "stimulus": "<p id=\"stim\">BRANDY</p>", "key_press": -1, "type": "PRES_VIS", "word": "brandy", "wordID": 168, "conditions": [12, 1600, "v", 12000], "trial": 5, "serialpos": 3, "trial_type": "single-stim", "trial_index": 212, "time_elapsed": 1008855, "internal_node_id": "0.0-158.0"}}, {"uniqueid": "MTK0863:3G5F9DBFOQ4VK5SOA3UENG9CI4XVH7", "current_trial": 213, "dateTime": 1512853869426, "trialdata": {"rt": -1, "stimulus": "<p id=\"stim\">HARP</p>", "key_press": -1, "type": "PRES_VIS", "word": "harp", "wordID": 688, "conditions": [12, 1600, "v", 12000], "trial": 5, "serialpos": 4, "trial_type": "single-stim", "trial_index": 213, "time_elapsed": 1011534, "internal_node_id": "0.0-159.0"}}, {"uniqueid": "MTK0863:3G5F9DBFOQ4VK5SOA3UENG9CI4XVH7", "current_trial": 214, "dateTime": 1512853871978, "trialdata": {"rt": -1, "stimulus": "<p id=\"stim\">FIREMAN</p>", "key_press": -1, "type": "PRES_VIS", "word": "fireman", "wordID": 568, "conditions": [12, 1600, "v", 12000], "trial": 5, "serialpos": 5, "trial_type": "single-stim", "trial_index": 214, "time_elapsed": 1014086, "internal_node_id": "0.0-160.0"}}, {"uniqueid": "MTK0863:3G5F9DBFOQ4VK5SOA3UENG9CI4XVH7", "current_trial": 215, "dateTime": 1512853874573, "trialdata": {"rt": -1, "stimulus": "<p id=\"stim\">COSTUME</p>", "key_press": -1, "type": "PRES_VIS", "word": "costume", "wordID": 382, "conditions": [12, 1600, "v", 12000], "trial": 5, "serialpos": 6, "trial_type": "single-stim", "trial_index": 215, "time_elapsed": 1016681, "internal_node_id": "0.0-161.0"}}, {"uniqueid": "MTK0863:3G5F9DBFOQ4VK5SOA3UENG9CI4XVH7", "current_trial": 216, "dateTime": 1512853877083, "trialdata": {"rt": -1, "stimulus": "<p id=\"stim\">BADGE</p>", "key_press": -1, "type": "PRES_VIS", "word": "badge", "wordID": 67, "conditions": [12, 1600, "v", 12000], "trial": 5, "serialpos": 7, "trial_type": "single-stim", "trial_index": 216, "time_elapsed": 1019191, "internal_node_id": "0.0-162.0"}}, {"uniqueid": "MTK0863:3G5F9DBFOQ4VK5SOA3UENG9CI4XVH7", "current_trial": 217, "dateTime": 1512853879607, "trialdata": {"rt": -1, "stimulus": "<p id=\"stim\">CELLAR</p>", "key_press": -1, "type": "PRES_VIS", "word": "cellar", "wordID": 266, "conditions": [12, 1600, "v", 12000], "trial": 5, "serialpos": 8, "trial_type": "single-stim", "trial_index": 217, "time_elapsed": 1021715, "internal_node_id": "0.0-163.0"}}, {"uniqueid": "MTK0863:3G5F9DBFOQ4VK5SOA3UENG9CI4XVH7", "current_trial": 218, "dateTime": 1512853882311, "trialdata": {"rt": -1, "stimulus": "<p id=\"stim\">TUBA</p>", "key_press": -1, "type": "PRES_VIS", "word": "tuba", "wordID": 1514, "conditions": [12, 1600, "v", 12000], "trial": 5, "serialpos": 9, "trial_type": "single-stim", "trial_index": 218, "time_elapsed": 1024419, "internal_node_id": "0.0-164.0"}}, {"uniqueid": "MTK0863:3G5F9DBFOQ4VK5SOA3UENG9CI4XVH7", "current_trial": 219, "dateTime": 1512853884980, "trialdata": {"rt": -1, "stimulus": "<p id=\"stim\">FIREPLACE</p>", "key_press": -1, "type": "PRES_VIS", "word": "fireplace", "wordID": 569, "conditions": [12, 1600, "v", 12000], "trial": 5, "serialpos": 10, "trial_type": "single-stim", "trial_index": 219, "time_elapsed": 1027088, "internal_node_id": "0.0-165.0"}}, {"uniqueid": "MTK0863:3G5F9DBFOQ4VK5SOA3UENG9CI4XVH7", "current_trial": 220, "dateTime": 1512853887431, "trialdata": {"rt": -1, "stimulus": "<p id=\"stim\">KITCHEN</p>", "key_press": -1, "type": "PRES_VIS", "word": "kitchen", "wordID": 777, "conditions": [12, 1600, "v", 12000], "trial": 5, "serialpos": 11, "trial_type": "single-stim", "trial_index": 220, "time_elapsed": 1029539, "internal_node_id": "0.0-166.0"}}, {"uniqueid": "MTK0863:3G5F9DBFOQ4VK5SOA3UENG9CI4XVH7", "current_trial": 221, "dateTime": 1512853889964, "trialdata": {"rt": -1, "stimulus": "", "key_press": -1, "type": "PRE_RECALL_DELAY", "trial_type": "single-stim", "trial_index": 221, "time_elapsed": 1032072, "internal_node_id": "0.0-167.0-0.0"}}, {"uniqueid": "MTK0863:3G5F9DBFOQ4VK5SOA3UENG9CI4XVH7", "current_trial": 222, "dateTime": 1512853890466, "trialdata": {"rt": -1000, "stimulus": "/static/audio/400Hz.wav", "key_press": -1, "type": "PRE_RECALL_ALERT", "trial_type": "single-audio", "trial_index": 222, "time_elapsed": 1032573, "internal_node_id": "0.0-168.0"}}, {"uniqueid": "MTK0863:3G5F9DBFOQ4VK5SOA3UENG9CI4XVH7", "current_trial": 223, "dateTime": 1512853950484, "trialdata": {"rt": [1397, 2216, 3469, 4581, 6459, 9195, 12663], "recwords": ["brandy", "comet", "lizard", "dragon", "costume", "fireman", "kitchen"], "type": "FREE_RECALL", "conditions": [12, 1600, "v", 12000], "trial": 5, "trial_type": "free-recall", "trial_index": 223, "time_elapsed": 1092586, "internal_node_id": "0.0-169.0-0.0"}}, {"uniqueid": "MTK0863:3G5F9DBFOQ4VK5SOA3UENG9CI4XVH7", "current_trial": 224, "dateTime": 1512853953112, "trialdata": {"rt": 627, "key_press": 74, "type": "INSTRUCTIONS", "trial_type": "text", "trial_index": 224, "time_elapsed": 1095220, "internal_node_id": "0.0-170.0"}}, {"uniqueid": "MTK0863:3G5F9DBFOQ4VK5SOA3UENG9CI4XVH7", "current_trial": 225, "dateTime": 1512853979117, "trialdata": {"rt": [3688, 5447, 8071, 10566, 13310, 14722, 16887, 18763, 21291, 22939], "responses": ["22", "12", "15", "15", "11", "6", "17", "16", "21", "10"], "num1": [9, 3, 6, 3, 6, 1, 7, 6, 8, 3, 6], "num2": [7, 3, 2, 9, 2, 1, 2, 6, 6, 6, 2], "num3": [6, 6, 7, 3, 3, 4, 8, 4, 7, 1, 1], "type": "DISTRACTOR", "conditions": [24, 800, "a", 24000], "trial": 6, "trial_type": "math-distractor", "trial_index": 225, "time_elapsed": 1121225, "internal_node_id": "0.0-171.0"}}, {"uniqueid": "MTK0863:3G5F9DBFOQ4VK5SOA3UENG9CI4XVH7", "current_trial": 226, "dateTime": 1512853982119, "trialdata": {"rt": -1, "stimulus": "<p id=\"stim\">10</p>", "key_press": -1, "trial_type": "single-stim", "trial_index": 226, "time_elapsed": 1124227, "internal_node_id": "0.0-172.0-0.0"}}, {"uniqueid": "MTK0863:3G5F9DBFOQ4VK5SOA3UENG9CI4XVH7", "current_trial": 227, "dateTime": 1512853983120, "trialdata": {"rt": -1, "stimulus": "<p id=\"stim\">9</p>", "key_press": -1, "trial_type": "single-stim", "trial_index": 227, "time_elapsed": 1125228, "internal_node_id": "0.0-172.0-1.0"}}, {"uniqueid": "MTK0863:3G5F9DBFOQ4VK5SOA3UENG9CI4XVH7", "current_trial": 228, "dateTime": 1512853984121, "trialdata": {"rt": -1, "stimulus": "<p id=\"stim\">8</p>", "key_press": -1, "trial_type": "single-stim", "trial_index": 228, "time_elapsed": 1126229, "internal_node_id": "0.0-172.0-2.0"}}, {"uniqueid": "MTK0863:3G5F9DBFOQ4VK5SOA3UENG9CI4XVH7", "current_trial": 229, "dateTime": 1512853985122, "trialdata": {"rt": -1, "stimulus": "<p id=\"stim\">7</p>", "key_press": -1, "trial_type": "single-stim", "trial_index": 229, "time_elapsed": 1127230, "internal_node_id": "0.0-172.0-3.0"}}, {"uniqueid": "MTK0863:3G5F9DBFOQ4VK5SOA3UENG9CI4XVH7", "current_trial": 230, "dateTime": 1512853986123, "trialdata": {"rt": -1, "stimulus": "<p id=\"stim\">6</p>", "key_press": -1, "trial_type": "single-stim", "trial_index": 230, "time_elapsed": 1128231, "internal_node_id": "0.0-172.0-4.0"}}, {"uniqueid": "MTK0863:3G5F9DBFOQ4VK5SOA3UENG9CI4XVH7", "current_trial": 231, "dateTime": 1512853987125, "trialdata": {"rt": -1, "stimulus": "<p id=\"stim\">5</p>", "key_press": -1, "trial_type": "single-stim", "trial_index": 231, "time_elapsed": 1129233, "internal_node_id": "0.0-172.0-5.0"}}, {"uniqueid": "MTK0863:3G5F9DBFOQ4VK5SOA3UENG9CI4XVH7", "current_trial": 232, "dateTime": 1512853988126, "trialdata": {"rt": -1, "stimulus": "<p id=\"stim\">4</p>", "key_press": -1, "trial_type": "single-stim", "trial_index": 232, "time_elapsed": 1130234, "internal_node_id": "0.0-172.0-6.0"}}, {"uniqueid": "MTK0863:3G5F9DBFOQ4VK5SOA3UENG9CI4XVH7", "current_trial": 233, "dateTime": 1512853989127, "trialdata": {"rt": -1, "stimulus": "<p id=\"stim\">3</p>", "key_press": -1, "trial_type": "single-stim", "trial_index": 233, "time_elapsed": 1131235, "internal_node_id": "0.0-172.0-7.0"}}, {"uniqueid": "MTK0863:3G5F9DBFOQ4VK5SOA3UENG9CI4XVH7", "current_trial": 234, "dateTime": 1512853990128, "trialdata": {"rt": -1, "stimulus": "<p id=\"stim\">2</p>", "key_press": -1, "trial_type": "single-stim", "trial_index": 234, "time_elapsed": 1132236, "internal_node_id": "0.0-172.0-8.0"}}, {"uniqueid": "MTK0863:3G5F9DBFOQ4VK5SOA3UENG9CI4XVH7", "current_trial": 235, "dateTime": 1512853991129, "trialdata": {"rt": -1, "stimulus": "<p id=\"stim\">1</p>", "key_press": -1, "trial_type": "single-stim", "trial_index": 235, "time_elapsed": 1133237, "internal_node_id": "0.0-172.0-9.0"}}, {"uniqueid": "MTK0863:3G5F9DBFOQ4VK5SOA3UENG9CI4XVH7", "current_trial": 236, "dateTime": 1512853992631, "trialdata": {"rt": -1, "stimulus": "<p id=\"stim\">+</p>", "key_press": -1, "type": "FIXATION", "trial_type": "single-stim", "trial_index": 236, "time_elapsed": 1134739, "internal_node_id": "0.0-173.0-0.0"}}, {"uniqueid": "MTK0863:3G5F9DBFOQ4VK5SOA3UENG9CI4XVH7", "current_trial": 237, "dateTime": 1512853994332, "trialdata": {"rt": -1000, "stimulus": "/static/audio/wordpool/PARSLEY.wav", "key_press": -1, "type": "PRES_AUD", "word": "parsley", "wordID": 1015, "conditions": [24, 800, "a", 24000], "trial": 6, "serialpos": 0, "trial_type": "single-audio", "trial_index": 237, "time_elapsed": 1136440, "internal_node_id": "0.0-174.0"}}, {"uniqueid": "MTK0863:3G5F9DBFOQ4VK5SOA3UENG9CI4XVH7", "current_trial": 238, "dateTime": 1512853996016, "trialdata": {"rt": -1000, "stimulus": "/static/audio/wordpool/GIFT.wav", "key_press": -1, "type": "PRES_AUD", "word": "gift", "wordID": 634, "conditions": [24, 800, "a", 24000], "trial": 6, "serialpos": 1, "trial_type": "single-audio", "trial_index": 238, "time_elapsed": 1138124, "internal_node_id": "0.0-175.0"}}, {"uniqueid": "MTK0863:3G5F9DBFOQ4VK5SOA3UENG9CI4XVH7", "current_trial": 239, "dateTime": 1512853997927, "trialdata": {"rt": -1000, "stimulus": "/static/audio/wordpool/TRANSPLANT.wav", "key_press": -1, "type": "PRES_AUD", "word": "transplant", "wordID": 1495, "conditions": [24, 800, "a", 24000], "trial": 6, "serialpos": 2, "trial_type": "single-audio", "trial_index": 239, "time_elapsed": 1140035, "internal_node_id": "0.0-176.0"}}, {"uniqueid": "MTK0863:3G5F9DBFOQ4VK5SOA3UENG9CI4XVH7", "current_trial": 240, "dateTime": 1512853999540, "trialdata": {"rt": -1000, "stimulus": "/static/audio/wordpool/WHISTLE.wav", "key_press": -1, "type": "PRES_AUD", "word": "whistle", "wordID": 1605, "conditions": [24, 800, "a", 24000], "trial": 6, "serialpos": 3, "trial_type": "single-audio", "trial_index": 240, "time_elapsed": 1141648, "internal_node_id": "0.0-177.0"}}, {"uniqueid": "MTK0863:3G5F9DBFOQ4VK5SOA3UENG9CI4XVH7", "current_trial": 241, "dateTime": 1512854001500, "trialdata": {"rt": -1000, "stimulus": "/static/audio/wordpool/MARINE.wav", "key_press": -1, "type": "PRES_AUD", "word": "marine", "wordID": 868, "conditions": [24, 800, "a", 24000], "trial": 6, "serialpos": 4, "trial_type": "single-audio", "trial_index": 241, "time_elapsed": 1143608, "internal_node_id": "0.0-178.0"}}, {"uniqueid": "MTK0863:3G5F9DBFOQ4VK5SOA3UENG9CI4XVH7", "current_trial": 242, "dateTime": 1512854003212, "trialdata": {"rt": -1000, "stimulus": "/static/audio/wordpool/PIGMENT.wav", "key_press": -1, "type": "PRES_AUD", "word": "pigment", "wordID": 1065, "conditions": [24, 800, "a", 24000], "trial": 6, "serialpos": 5, "trial_type": "single-audio", "trial_index": 242, "time_elapsed": 1145320, "internal_node_id": "0.0-179.0"}}, {"uniqueid": "MTK0863:3G5F9DBFOQ4VK5SOA3UENG9CI4XVH7", "current_trial": 243, "dateTime": 1512854004873, "trialdata": {"rt": -1000, "stimulus": "/static/audio/wordpool/PENGUIN.wav", "key_press": -1, "type": "PRES_AUD", "word": "penguin", "wordID": 1043, "conditions": [24, 800, "a", 24000], "trial": 6, "serialpos": 6, "trial_type": "single-audio", "trial_index": 243, "time_elapsed": 1146981, "internal_node_id": "0.0-180.0"}}, {"uniqueid": "MTK0863:3G5F9DBFOQ4VK5SOA3UENG9CI4XVH7", "current_trial": 244, "dateTime": 1512854006762, "trialdata": {"rt": -1000, "stimulus": "/static/audio/wordpool/CABIN.wav", "key_press": -1, "type": "PRES_AUD", "word": "cabin", "wordID": 210, "conditions": [24, 800, "a", 24000], "trial": 6, "serialpos": 7, "trial_type": "single-audio", "trial_index": 244, "time_elapsed": 1148870, "internal_node_id": "0.0-181.0"}}, {"uniqueid": "MTK0863:3G5F9DBFOQ4VK5SOA3UENG9CI4XVH7", "current_trial": 245, "dateTime": 1512854008632, "trialdata": {"rt": -1000, "stimulus": "/static/audio/wordpool/GARLIC.wav", "key_press": -1, "type": "PRES_AUD", "word": "garlic", "wordID": 623, "conditions": [24, 800, "a", 24000], "trial": 6, "serialpos": 8, "trial_type": "single-audio", "trial_index": 245, "time_elapsed": 1150740, "internal_node_id": "0.0-182.0"}}, {"uniqueid": "MTK0863:3G5F9DBFOQ4VK5SOA3UENG9CI4XVH7", "current_trial": 246, "dateTime": 1512854010372, "trialdata": {"rt": -1000, "stimulus": "/static/audio/wordpool/JELLY.wav", "key_press": -1, "type": "PRES_AUD", "word": "jelly", "wordID": 754, "conditions": [24, 800, "a", 24000], "trial": 6, "serialpos": 9, "trial_type": "single-audio", "trial_index": 246, "time_elapsed": 1152480, "internal_node_id": "0.0-183.0"}}, {"uniqueid": "MTK0863:3G5F9DBFOQ4VK5SOA3UENG9CI4XVH7", "current_trial": 247, "dateTime": 1512854012211, "trialdata": {"rt": -1000, "stimulus": "/static/audio/wordpool/PISTOL.wav", "key_press": -1, "type": "PRES_AUD", "word": "pistol", "wordID": 1074, "conditions": [24, 800, "a", 24000], "trial": 6, "serialpos": 10, "trial_type": "single-audio", "trial_index": 247, "time_elapsed": 1154319, "internal_node_id": "0.0-184.0"}}, {"uniqueid": "MTK0863:3G5F9DBFOQ4VK5SOA3UENG9CI4XVH7", "current_trial": 248, "dateTime": 1512854013948, "trialdata": {"rt": -1000, "stimulus": "/static/audio/wordpool/KNIFE.wav", "key_press": -1, "type": "PRES_AUD", "word": "knife", "wordID": 784, "conditions": [24, 800, "a", 24000], "trial": 6, "serialpos": 11, "trial_type": "single-audio", "trial_index": 248, "time_elapsed": 1156056, "internal_node_id": "0.0-185.0"}}, {"uniqueid": "MTK0863:3G5F9DBFOQ4VK5SOA3UENG9CI4XVH7", "current_trial": 249, "dateTime": 1512854015879, "trialdata": {"rt": -1000, "stimulus": "/static/audio/wordpool/ANKLE.wav", "key_press": -1, "type": "PRES_AUD", "word": "ankle", "wordID": 23, "conditions": [24, 800, "a", 24000], "trial": 6, "serialpos": 12, "trial_type": "single-audio", "trial_index": 249, "time_elapsed": 1157987, "internal_node_id": "0.0-186.0"}}, {"uniqueid": "MTK0863:3G5F9DBFOQ4VK5SOA3UENG9CI4XVH7", "current_trial": 250, "dateTime": 1512854017815, "trialdata": {"rt": -1000, "stimulus": "/static/audio/wordpool/LONDON.wav", "key_press": -1, "type": "PRES_AUD", "word": "london", "wordID": 842, "conditions": [24, 800, "a", 24000], "trial": 6, "serialpos": 13, "trial_type": "single-audio", "trial_index": 250, "time_elapsed": 1159923, "internal_node_id": "0.0-187.0"}}, {"uniqueid": "MTK0863:3G5F9DBFOQ4VK5SOA3UENG9CI4XVH7", "current_trial": 251, "dateTime": 1512854019679, "trialdata": {"rt": -1000, "stimulus": "/static/audio/wordpool/SUMMIT.wav", "key_press": -1, "type": "PRES_AUD", "word": "summit", "wordID": 1404, "conditions": [24, 800, "a", 24000], "trial": 6, "serialpos": 14, "trial_type": "single-audio", "trial_index": 251, "time_elapsed": 1161787, "internal_node_id": "0.0-188.0"}}, {"uniqueid": "MTK0863:3G5F9DBFOQ4VK5SOA3UENG9CI4XVH7", "current_trial": 252, "dateTime": 1512854021481, "trialdata": {"rt": -1000, "stimulus": "/static/audio/wordpool/RAZOR.wav", "key_press": -1, "type": "PRES_AUD", "word": "razor", "wordID": 1170, "conditions": [24, 800, "a", 24000], "trial": 6, "serialpos": 15, "trial_type": "single-audio", "trial_index": 252, "time_elapsed": 1163589, "internal_node_id": "0.0-189.0"}}, {"uniqueid": "MTK0863:3G5F9DBFOQ4VK5SOA3UENG9CI4XVH7", "current_trial": 253, "dateTime": 1512854023203, "trialdata": {"rt": -1000, "stimulus": "/static/audio/wordpool/PECAN.wav", "key_press": -1, "type": "PRES_AUD", "word": "pecan", "wordID": 1035, "conditions": [24, 800, "a", 24000], "trial": 6, "serialpos": 16, "trial_type": "single-audio", "trial_index": 253, "time_elapsed": 1165311, "internal_node_id": "0.0-190.0"}}, {"uniqueid": "MTK0863:3G5F9DBFOQ4VK5SOA3UENG9CI4XVH7", "current_trial": 254, "dateTime": 1512854024815, "trialdata": {"rt": -1000, "stimulus": "/static/audio/wordpool/LION.wav", "key_press": -1, "type": "PRES_AUD", "word": "lion", "wordID": 826, "conditions": [24, 800, "a", 24000], "trial": 6, "serialpos": 17, "trial_type": "single-audio", "trial_index": 254, "time_elapsed": 1166923, "internal_node_id": "0.0-191.0"}}, {"uniqueid": "MTK0863:3G5F9DBFOQ4VK5SOA3UENG9CI4XVH7", "current_trial": 255, "dateTime": 1512854026471, "trialdata": {"rt": -1000, "stimulus": "/static/audio/wordpool/BANKER.wav", "key_press": -1, "type": "PRES_AUD", "word": "banker", "wordID": 83, "conditions": [24, 800, "a", 24000], "trial": 6, "serialpos": 18, "trial_type": "single-audio", "trial_index": 255, "time_elapsed": 1168579, "internal_node_id": "0.0-192.0"}}, {"uniqueid": "MTK0863:3G5F9DBFOQ4VK5SOA3UENG9CI4XVH7", "current_trial": 256, "dateTime": 1512854028109, "trialdata": {"rt": -1000, "stimulus": "/static/audio/wordpool/BANK.wav", "key_press": -1, "type": "PRES_AUD", "word": "bank", "wordID": 82, "conditions": [24, 800, "a", 24000], "trial": 6, "serialpos": 19, "trial_type": "single-audio", "trial_index": 256, "time_elapsed": 1170216, "internal_node_id": "0.0-193.0"}}, {"uniqueid": "MTK0863:3G5F9DBFOQ4VK5SOA3UENG9CI4XVH7", "current_trial": 257, "dateTime": 1512854029727, "trialdata": {"rt": -1000, "stimulus": "/static/audio/wordpool/SCISSORS.wav", "key_press": -1, "type": "PRES_AUD", "word": "scissors", "wordID": 1249, "conditions": [24, 800, "a", 24000], "trial": 6, "serialpos": 20, "trial_type": "single-audio", "trial_index": 257, "time_elapsed": 1171835, "internal_node_id": "0.0-194.0"}}, {"uniqueid": "MTK0863:3G5F9DBFOQ4VK5SOA3UENG9CI4XVH7", "current_trial": 258, "dateTime": 1512854031602, "trialdata": {"rt": -1000, "stimulus": "/static/audio/wordpool/LEG.wav", "key_press": -1, "type": "PRES_AUD", "word": "leg", "wordID": 808, "conditions": [24, 800, "a", 24000], "trial": 6, "serialpos": 21, "trial_type": "single-audio", "trial_index": 258, "time_elapsed": 1173710, "internal_node_id": "0.0-195.0"}}, {"uniqueid": "MTK0863:3G5F9DBFOQ4VK5SOA3UENG9CI4XVH7", "current_trial": 259, "dateTime": 1512854033252, "trialdata": {"rt": -1000, "stimulus": "/static/audio/wordpool/BULLET.wav", "key_press": -1, "type": "PRES_AUD", "word": "bullet", "wordID": 193, "conditions": [24, 800, "a", 24000], "trial": 6, "serialpos": 22, "trial_type": "single-audio", "trial_index": 259, "time_elapsed": 1175359, "internal_node_id": "0.0-196.0"}}, {"uniqueid": "MTK0863:3G5F9DBFOQ4VK5SOA3UENG9CI4XVH7", "current_trial": 260, "dateTime": 1512854034867, "trialdata": {"rt": -1000, "stimulus": "/static/audio/wordpool/SALMON.wav", "key_press": -1, "type": "PRES_AUD", "word": "salmon", "wordID": 1226, "conditions": [24, 800, "a", 24000], "trial": 6, "serialpos": 23, "trial_type": "single-audio", "trial_index": 260, "time_elapsed": 1176975, "internal_node_id": "0.0-197.0"}}, {"uniqueid": "MTK0863:3G5F9DBFOQ4VK5SOA3UENG9CI4XVH7", "current_trial": 261, "dateTime": 1512854036202, "trialdata": {"rt": -1, "stimulus": "", "key_press": -1, "type": "PRE_RECALL_DELAY", "trial_type": "single-stim", "trial_index": 261, "time_elapsed": 1178309, "internal_node_id": "0.0-198.0-0.0"}}, {"uniqueid": "MTK0863:3G5F9DBFOQ4VK5SOA3UENG9CI4XVH7", "current_trial": 262, "dateTime": 1512854036703, "trialdata": {"rt": -1000, "stimulus": "/static/audio/400Hz.wav", "key_press": -1, "type": "PRE_RECALL_ALERT", "trial_type": "single-audio", "trial_index": 262, "time_elapsed": 1178811, "internal_node_id": "0.0-199.0"}}, {"uniqueid": "MTK0863:3G5F9DBFOQ4VK5SOA3UENG9CI4XVH7", "current_trial": 263, "dateTime": 1512854096716, "trialdata": {"rt": [1393, 2398, 3304, 5811, 6950, 8432, 11146, 19338, 20200, 22105, 23538, 33850, 37047], "recwords": ["salmon", "banker", "gift", "parsley", "lion", "salmon", "transplant", "ankle", "leg", "pistol", "bullet", "pecan", "knife"], "type": "FREE_RECALL", "conditions": [24, 800, "a", 24000], "trial": 6, "trial_type": "free-recall", "trial_index": 263, "time_elapsed": 1238819, "internal_node_id": "0.0-200.0-0.0"}}, {"uniqueid": "MTK0863:3G5F9DBFOQ4VK5SOA3UENG9CI4XVH7", "current_trial": 264, "dateTime": 1512854099345, "trialdata": {"rt": 627, "key_press": 74, "type": "INSTRUCTIONS", "trial_type": "text", "trial_index": 264, "time_elapsed": 1241453, "internal_node_id": "0.0-201.0"}}, {"uniqueid": "MTK0863:3G5F9DBFOQ4VK5SOA3UENG9CI4XVH7", "current_trial": 265, "dateTime": 1512854125349, "trialdata": {"rt": [1426, 3438, 5420, 7574, 8984, 10825, 12638, 15452, 17967, 19752, 21862, 23800], "responses": ["9", "14", "13", "9", "8", "17", "13", "18", "16", "17", "14", "17"], "num1": [1, 4, 7, 4, 4, 2, 9, 9, 8, 7, 5, 4, 5], "num2": [1, 3, 5, 3, 2, 8, 3, 8, 7, 8, 1, 8, 3], "num3": [7, 7, 1, 2, 2, 7, 1, 1, 1, 2, 8, 5, 8], "type": "DISTRACTOR", "conditions": [24, 800, "v", 24000], "trial": 7, "trial_type": "math-distractor", "trial_index": 265, "time_elapsed": 1267457, "internal_node_id": "0.0-202.0"}}, {"uniqueid": "MTK0863:3G5F9DBFOQ4VK5SOA3UENG9CI4XVH7", "current_trial": 266, "dateTime": 1512854128352, "trialdata": {"rt": -1, "stimulus": "<p id=\"stim\">10</p>", "key_press": -1, "trial_type": "single-stim", "trial_index": 266, "time_elapsed": 1270460, "internal_node_id": "0.0-203.0-0.0"}}, {"uniqueid": "MTK0863:3G5F9DBFOQ4VK5SOA3UENG9CI4XVH7", "current_trial": 267, "dateTime": 1512854129354, "trialdata": {"rt": -1, "stimulus": "<p id=\"stim\">9</p>", "key_press": -1, "trial_type": "single-stim", "trial_index": 267, "time_elapsed": 1271462, "internal_node_id": "0.0-203.0-1.0"}}, {"uniqueid": "MTK0863:3G5F9DBFOQ4VK5SOA3UENG9CI4XVH7", "current_trial": 268, "dateTime": 1512854130355, "trialdata": {"rt": -1, "stimulus": "<p id=\"stim\">8</p>", "key_press": -1, "trial_type": "single-stim", "trial_index": 268, "time_elapsed": 1272463, "internal_node_id": "0.0-20