{"condition": 0, "counterbalance": 717, "assignmentId": "3BWI6RSP7HGHP50Q24JSWZWW289E7V", "workerId": "MTK0404", "hitId": "388CL5C1RJUQ1GI06XN6BNFQBHVLH9", "currenttrial": 626, "bonus": 0, "data": [{"uniqueid": "MTK0404:3BWI6RSP7HGHP50Q24JSWZWW289E7V", "current_trial": 0, "dateTime": 1510857079829, "trialdata": {"rt": 3602, "key_press": 72, "type": "INSTRUCTIONS", "trial_type": "text", "trial_index": 0, "time_elapsed": 3604, "internal_node_id": "0.0-0.0"}}, {"uniqueid": "MTK0404:3BWI6RSP7HGHP50Q24JSWZWW289E7V", "current_trial": 1, "dateTime": 1510857089865, "trialdata": {"rt": 10033, "key_press": 70, "type": "INSTRUCTIONS", "trial_type": "text", "trial_index": 1, "time_elapsed": 13641, "internal_node_id": "0.0-1.0"}}, {"uniqueid": "MTK0404:3BWI6RSP7HGHP50Q24JSWZWW289E7V", "current_trial": 2, "dateTime": 1510857101814, "trialdata": {"rt": [11934], "responses": ["ocean"], "type": "AUDIO_TEST", "trial_type": "audio-test", "trial_index": 2, "time_elapsed": 25590, "internal_node_id": "0.0-2.0"}}, {"uniqueid": "MTK0404:3BWI6RSP7HGHP50Q24JSWZWW289E7V", "current_trial": 3, "dateTime": 1510857126366, "trialdata": {"rt": [18794, 24545], "responses": ["crysta", "crystal"], "type": "AUDIO_TEST", "trial_type": "audio-test", "trial_index": 3, "time_elapsed": 50141, "internal_node_id": "0.0-3.0"}}, {"uniqueid": "MTK0404:3BWI6RSP7HGHP50Q24JSWZWW289E7V", "current_trial": 4, "dateTime": 1510857131911, "trialdata": {"rt": [5538], "responses": ["spice"], "type": "AUDIO_TEST", "trial_type": "audio-test", "trial_index": 4, "time_elapsed": 55687, "internal_node_id": "0.0-4.0"}}, {"uniqueid": "MTK0404:3BWI6RSP7HGHP50Q24JSWZWW289E7V", "current_trial": 5, "dateTime": 1510857152203, "trialdata": {"rt": 19539, "responses": "{\"Q0\":\"11pm\",\"Q1\":\"7:30am\",\"Q2\":\"4\"}", "type": "SLEEP_SURVEY", "trial_type": "survey-text", "trial_index": 5, "time_elapsed": 75979, "internal_node_id": "0.0-5.0"}}, {"uniqueid": "MTK0404:3BWI6RSP7HGHP50Q24JSWZWW289E7V", "current_trial": 6, "dateTime": 1510857185796, "trialdata": {"rt": 32592, "key_press": 78, "type": "INSTRUCTIONS", "trial_type": "text", "trial_index": 6, "time_elapsed": 109572, "internal_node_id": "0.0-6.0"}}, {"uniqueid": "MTK0404:3BWI6RSP7HGHP50Q24JSWZWW289E7V", "current_trial": 7, "dateTime": 1510857198304, "trialdata": {"rt": 12007, "key_press": 78, "type": "INSTRUCTIONS", "trial_type": "text", "trial_index": 7, "time_elapsed": 122080, "internal_node_id": "0.0-7.0"}}, {"uniqueid": "MTK0404:3BWI6RSP7HGHP50Q24JSWZWW289E7V", "current_trial": 8, "dateTime": 1510857206430, "trialdata": {"rt": 7625, "key_press": 78, "type": "INSTRUCTIONS", "trial_type": "text", "trial_index": 8, "time_elapsed": 130206, "internal_node_id": "0.0-8.0"}}, {"uniqueid": "MTK0404:3BWI6RSP7HGHP50Q24JSWZWW289E7V", "current_trial": 9, "dateTime": 1510857225438, "trialdata": {"rt": [6206, 8560, 10734, 13764, 15959], "responses": ["18", "14", "13", "18", "11"], "num1": [5, 2, 2, 9, 8, 6], "num2": [6, 3, 8, 7, 1, 4], "num3": [7, 9, 3, 2, 2, 8], "type": "DISTRACTOR", "conditions": [18, 1200, "a", 18000], "trial": 0, "trial_type": "math-distractor", "trial_index": 9, "time_elapsed": 149214, "internal_node_id": "0.0-9.0"}}, {"uniqueid": "MTK0404:3BWI6RSP7HGHP50Q24JSWZWW289E7V", "current_trial": 10, "dateTime": 1510857228440, "trialdata": {"rt": -1, "stimulus": "<p id=\"stim\">10</p>", "key_press": -1, "trial_type": "single-stim", "trial_index": 10, "time_elapsed": 152216, "internal_node_id": "0.0-10.0-0.0"}}, {"uniqueid": "MTK0404:3BWI6RSP7HGHP50Q24JSWZWW289E7V", "current_trial": 11, "dateTime": 1510857229440, "trialdata": {"rt": -1, "stimulus": "<p id=\"stim\">9</p>", "key_press": -1, "trial_type": "single-stim", "trial_index": 11, "time_elapsed": 153216, "internal_node_id": "0.0-10.0-1.0"}}, {"uniqueid": "MTK0404:3BWI6RSP7HGHP50Q24JSWZWW289E7V", "current_trial": 12, "dateTime": 1510857230441, "trialdata": {"rt": -1, "stimulus": "<p id=\"stim\">8</p>", "key_press": -1, "trial_type": "single-stim", "trial_index": 12, "time_elapsed": 154217, "internal_node_id": "0.0-10.0-2.0"}}, {"uniqueid": "MTK0404:3BWI6RSP7HGHP50Q24JSWZWW289E7V", "current_trial": 13, "dateTime": 1510857231442, "trialdata": {"rt": -1, "stimulus": "<p id=\"stim\">7</p>", "key_press": -1, "trial_type": "single-stim", "trial_index": 13, "time_elapsed": 155218, "internal_node_id": "0.0-10.0-3.0"}}, {"uniqueid": "MTK0404:3BWI6RSP7HGHP50Q24JSWZWW289E7V", "current_trial": 14, "dateTime": 1510857232443, "trialdata": {"rt": -1, "stimulus": "<p id=\"stim\">6</p>", "key_press": -1, "trial_type": "single-stim", "trial_index": 14, "time_elapsed": 156219, "internal_node_id": "0.0-10.0-4.0"}}, {"uniqueid": "MTK0404:3BWI6RSP7HGHP50Q24JSWZWW289E7V", "current_trial": 15, "dateTime": 1510857233444, "trialdata": {"rt": -1, "stimulus": "<p id=\"stim\">5</p>", "key_press": -1, "trial_type": "single-stim", "trial_index": 15, "time_elapsed": 157220, "internal_node_id": "0.0-10.0-5.0"}}, {"uniqueid": "MTK0404:3BWI6RSP7HGHP50Q24JSWZWW289E7V", "current_trial": 16, "dateTime": 1510857234444, "trialdata": {"rt": -1, "stimulus": "<p id=\"stim\">4</p>", "key_press": -1, "trial_type": "single-stim", "trial_index": 16, "time_elapsed": 158220, "internal_node_id": "0.0-10.0-6.0"}}, {"uniqueid": "MTK0404:3BWI6RSP7HGHP50Q24JSWZWW289E7V", "current_trial": 17, "dateTime": 1510857235445, "trialdata": {"rt": -1, "stimulus": "<p id=\"stim\">3</p>", "key_press": -1, "trial_type": "single-stim", "trial_index": 17, "time_elapsed": 159220, "internal_node_id": "0.0-10.0-7.0"}}, {"uniqueid": "MTK0404:3BWI6RSP7HGHP50Q24JSWZWW289E7V", "current_trial": 18, "dateTime": 1510857236445, "trialdata": {"rt": -1, "stimulus": "<p id=\"stim\">2</p>", "key_press": -1, "trial_type": "single-stim", "trial_index": 18, "time_elapsed": 160221, "internal_node_id": "0.0-10.0-8.0"}}, {"uniqueid": "MTK0404:3BWI6RSP7HGHP50Q24JSWZWW289E7V", "current_trial": 19, "dateTime": 1510857237447, "trialdata": {"rt": -1, "stimulus": "<p id=\"stim\">1</p>", "key_press": -1, "trial_type": "single-stim", "trial_index": 19, "time_elapsed": 161222, "internal_node_id": "0.0-10.0-9.0"}}, {"uniqueid": "MTK0404:3BWI6RSP7HGHP50Q24JSWZWW289E7V", "current_trial": 20, "dateTime": 1510857238948, "trialdata": {"rt": -1, "stimulus": "<p id=\"stim\">+</p>", "key_press": -1, "type": "FIXATION", "trial_type": "single-stim", "trial_index": 20, "time_elapsed": 162724, "internal_node_id": "0.0-11.0-0.0"}}, {"uniqueid": "MTK0404:3BWI6RSP7HGHP50Q24JSWZWW289E7V", "current_trial": 21, "dateTime": 1510857241034, "trialdata": {"rt": -1000, "stimulus": "/static/audio/wordpool/COFFEE.wav", "key_press": -1, "type": "PRES_AUD", "word": "coffee", "wordID": 340, "conditions": [18, 1200, "a", 18000], "trial": 0, "serialpos": 0, "trial_type": "single-audio", "trial_index": 21, "time_elapsed": 164810, "internal_node_id": "0.0-12.0"}}, {"uniqueid": "MTK0404:3BWI6RSP7HGHP50Q24JSWZWW289E7V", "current_trial": 22, "dateTime": 1510857243086, "trialdata": {"rt": -1000, "stimulus": "/static/audio/wordpool/SPOON.wav", "key_press": -1, "type": "PRES_AUD", "word": "spoon", "wordID": 1356, "conditions": [18, 1200, "a", 18000], "trial": 0, "serialpos": 1, "trial_type": "single-audio", "trial_index": 22, "time_elapsed": 166862, "internal_node_id": "0.0-13.0"}}, {"uniqueid": "MTK0404:3BWI6RSP7HGHP50Q24JSWZWW289E7V", "current_trial": 23, "dateTime": 1510857245285, "trialdata": {"rt": -1000, "stimulus": "/static/audio/wordpool/SWAMP.wav", "key_press": -1, "type": "PRES_AUD", "word": "swamp", "wordID": 1415, "conditions": [18, 1200, "a", 18000], "trial": 0, "serialpos": 2, "trial_type": "single-audio", "trial_index": 23, "time_elapsed": 169061, "internal_node_id": "0.0-14.0"}}, {"uniqueid": "MTK0404:3BWI6RSP7HGHP50Q24JSWZWW289E7V", "current_trial": 24, "dateTime": 1510857247510, "trialdata": {"rt": -1000, "stimulus": "/static/audio/wordpool/MATTRESS.wav", "key_press": -1, "type": "PRES_AUD", "word": "mattress", "wordID": 878, "conditions": [18, 1200, "a", 18000], "trial": 0, "serialpos": 3, "trial_type": "single-audio", "trial_index": 24, "time_elapsed": 171286, "internal_node_id": "0.0-15.0"}}, {"uniqueid": "MTK0404:3BWI6RSP7HGHP50Q24JSWZWW289E7V", "current_trial": 25, "dateTime": 1510857249859, "trialdata": {"rt": -1000, "stimulus": "/static/audio/wordpool/MARKET.wav", "key_press": -1, "type": "PRES_AUD", "word": "market", "wordID": 870, "conditions": [18, 1200, "a", 18000], "trial": 0, "serialpos": 4, "trial_type": "single-audio", "trial_index": 25, "time_elapsed": 173635, "internal_node_id": "0.0-16.0"}}, {"uniqueid": "MTK0404:3BWI6RSP7HGHP50Q24JSWZWW289E7V", "current_trial": 26, "dateTime": 1510857252107, "trialdata": {"rt": -1000, "stimulus": "/static/audio/wordpool/BANQUET.wav", "key_press": -1, "type": "PRES_AUD", "word": "banquet", "wordID": 85, "conditions": [18, 1200, "a", 18000], "trial": 0, "serialpos": 5, "trial_type": "single-audio", "trial_index": 26, "time_elapsed": 175883, "internal_node_id": "0.0-17.0"}}, {"uniqueid": "MTK0404:3BWI6RSP7HGHP50Q24JSWZWW289E7V", "current_trial": 27, "dateTime": 1510857254407, "trialdata": {"rt": -1000, "stimulus": "/static/audio/wordpool/CRITIC.wav", "key_press": -1, "type": "PRES_AUD", "word": "critic", "wordID": 409, "conditions": [18, 1200, "a", 18000], "trial": 0, "serialpos": 6, "trial_type": "single-audio", "trial_index": 27, "time_elapsed": 178183, "internal_node_id": "0.0-18.0"}}, {"uniqueid": "MTK0404:3BWI6RSP7HGHP50Q24JSWZWW289E7V", "current_trial": 28, "dateTime": 1510857256468, "trialdata": {"rt": -1000, "stimulus": "/static/audio/wordpool/CHAPEL.wav", "key_press": -1, "type": "PRES_AUD", "word": "chapel", "wordID": 279, "conditions": [18, 1200, "a", 18000], "trial": 0, "serialpos": 7, "trial_type": "single-audio", "trial_index": 28, "time_elapsed": 180244, "internal_node_id": "0.0-19.0"}}, {"uniqueid": "MTK0404:3BWI6RSP7HGHP50Q24JSWZWW289E7V", "current_trial": 29, "dateTime": 1510857258779, "trialdata": {"rt": -1000, "stimulus": "/static/audio/wordpool/DRESSER.wav", "key_press": -1, "type": "PRES_AUD", "word": "dresser", "wordID": 495, "conditions": [18, 1200, "a", 18000], "trial": 0, "serialpos": 8, "trial_type": "single-audio", "trial_index": 29, "time_elapsed": 182555, "internal_node_id": "0.0-20.0"}}, {"uniqueid": "MTK0404:3BWI6RSP7HGHP50Q24JSWZWW289E7V", "current_trial": 30, "dateTime": 1510857261144, "trialdata": {"rt": -1000, "stimulus": "/static/audio/wordpool/SHELF.wav", "key_press": -1, "type": "PRES_AUD", "word": "shelf", "wordID": 1279, "conditions": [18, 1200, "a", 18000], "trial": 0, "serialpos": 9, "trial_type": "single-audio", "trial_index": 30, "time_elapsed": 184920, "internal_node_id": "0.0-21.0"}}, {"uniqueid": "MTK0404:3BWI6RSP7HGHP50Q24JSWZWW289E7V", "current_trial": 31, "dateTime": 1510857263477, "trialdata": {"rt": -1000, "stimulus": "/static/audio/wordpool/POLICE.wav", "key_press": -1, "type": "PRES_AUD", "word": "police", "wordID": 1097, "conditions": [18, 1200, "a", 18000], "trial": 0, "serialpos": 10, "trial_type": "single-audio", "trial_index": 31, "time_elapsed": 187253, "internal_node_id": "0.0-22.0"}}, {"uniqueid": "MTK0404:3BWI6RSP7HGHP50Q24JSWZWW289E7V", "current_trial": 32, "dateTime": 1510857265734, "trialdata": {"rt": -1000, "stimulus": "/static/audio/wordpool/GALLON.wav", "key_press": -1, "type": "PRES_AUD", "word": "gallon", "wordID": 617, "conditions": [18, 1200, "a", 18000], "trial": 0, "serialpos": 11, "trial_type": "single-audio", "trial_index": 32, "time_elapsed": 189510, "internal_node_id": "0.0-23.0"}}, {"uniqueid": "MTK0404:3BWI6RSP7HGHP50Q24JSWZWW289E7V", "current_trial": 33, "dateTime": 1510857268043, "trialdata": {"rt": -1000, "stimulus": "/static/audio/wordpool/SWIMMER.wav", "key_press": -1, "type": "PRES_AUD", "word": "swimmer", "wordID": 1419, "conditions": [18, 1200, "a", 18000], "trial": 0, "serialpos": 12, "trial_type": "single-audio", "trial_index": 33, "time_elapsed": 191819, "internal_node_id": "0.0-24.0"}}, {"uniqueid": "MTK0404:3BWI6RSP7HGHP50Q24JSWZWW289E7V", "current_trial": 34, "dateTime": 1510857270430, "trialdata": {"rt": -1000, "stimulus": "/static/audio/wordpool/ROBIN.wav", "key_press": -1, "type": "PRES_AUD", "word": "robin", "wordID": 1198, "conditions": [18, 1200, "a", 18000], "trial": 0, "serialpos": 13, "trial_type": "single-audio", "trial_index": 34, "time_elapsed": 194206, "internal_node_id": "0.0-25.0"}}, {"uniqueid": "MTK0404:3BWI6RSP7HGHP50Q24JSWZWW289E7V", "current_trial": 35, "dateTime": 1510857272761, "trialdata": {"rt": -1000, "stimulus": "/static/audio/wordpool/DAISY.wav", "key_press": -1, "type": "PRES_AUD", "word": "daisy", "wordID": 434, "conditions": [18, 1200, "a", 18000], "trial": 0, "serialpos": 14, "trial_type": "single-audio", "trial_index": 35, "time_elapsed": 196537, "internal_node_id": "0.0-26.0"}}, {"uniqueid": "MTK0404:3BWI6RSP7HGHP50Q24JSWZWW289E7V", "current_trial": 36, "dateTime": 1510857275023, "trialdata": {"rt": -1000, "stimulus": "/static/audio/wordpool/LAPEL.wav", "key_press": -1, "type": "PRES_AUD", "word": "lapel", "wordID": 799, "conditions": [18, 1200, "a", 18000], "trial": 0, "serialpos": 15, "trial_type": "single-audio", "trial_index": 36, "time_elapsed": 198799, "internal_node_id": "0.0-27.0"}}, {"uniqueid": "MTK0404:3BWI6RSP7HGHP50Q24JSWZWW289E7V", "current_trial": 37, "dateTime": 1510857277421, "trialdata": {"rt": -1000, "stimulus": "/static/audio/wordpool/STATUE.wav", "key_press": -1, "type": "PRES_AUD", "word": "statue", "wordID": 1373, "conditions": [18, 1200, "a", 18000], "trial": 0, "serialpos": 16, "trial_type": "single-audio", "trial_index": 37, "time_elapsed": 201197, "internal_node_id": "0.0-28.0"}}, {"uniqueid": "MTK0404:3BWI6RSP7HGHP50Q24JSWZWW289E7V", "current_trial": 38, "dateTime": 1510857279770, "trialdata": {"rt": -1000, "stimulus": "/static/audio/wordpool/FRAGRANCE.wav", "key_press": -1, "type": "PRES_AUD", "word": "fragrance", "wordID": 598, "conditions": [18, 1200, "a", 18000], "trial": 0, "serialpos": 17, "trial_type": "single-audio", "trial_index": 38, "time_elapsed": 203546, "internal_node_id": "0.0-29.0"}}, {"uniqueid": "MTK0404:3BWI6RSP7HGHP50Q24JSWZWW289E7V", "current_trial": 39, "dateTime": 1510857281117, "trialdata": {"rt": -1, "stimulus": "", "key_press": -1, "type": "PRE_RECALL_DELAY", "trial_type": "single-stim", "trial_index": 39, "time_elapsed": 204893, "internal_node_id": "0.0-30.0-0.0"}}, {"uniqueid": "MTK0404:3BWI6RSP7HGHP50Q24JSWZWW289E7V", "current_trial": 40, "dateTime": 1510857281618, "trialdata": {"rt": -1000, "stimulus": "/static/audio/400Hz.wav", "key_press": -1, "type": "PRE_RECALL_ALERT", "trial_type": "single-audio", "trial_index": 40, "time_elapsed": 205394, "internal_node_id": "0.0-31.0"}}, {"uniqueid": "MTK0404:3BWI6RSP7HGHP50Q24JSWZWW289E7V", "current_trial": 41, "dateTime": 1510857341629, "trialdata": {"rt": [3052, 5456, 6669, 7893, 10127, 11333, 13518, 16514, 20298, 26961, 31375, 47628, 48027], "recwords": ["coffee", "chapel", "police", "market", "banquet", "spoon", "mattress", "slice", "", "lapel", "playground", "", ""], "type": "FREE_RECALL", "conditions": [18, 1200, "a", 18000], "trial": 0, "trial_type": "free-recall", "trial_index": 41, "time_elapsed": 265398, "internal_node_id": "0.0-32.0-0.0"}}, {"uniqueid": "MTK0404:3BWI6RSP7HGHP50Q24JSWZWW289E7V", "current_trial": 42, "dateTime": 1510857345702, "trialdata": {"rt": 2072, "key_press": 70, "type": "INSTRUCTIONS", "trial_type": "text", "trial_index": 42, "time_elapsed": 269478, "internal_node_id": "0.0-33.0"}}, {"uniqueid": "MTK0404:3BWI6RSP7HGHP50Q24JSWZWW289E7V", "current_trial": 43, "dateTime": 1510857365704, "trialdata": {"rt": [2953, 6582, 9199, 11832, 13985, 17693], "responses": ["24", "18", "20", "12", "9", "16"], "num1": [8, 3, 8, 6, 1, 6, 6], "num2": [8, 8, 8, 5, 3, 1, 7], "num3": [8, 7, 4, 1, 5, 9, 4], "type": "DISTRACTOR", "conditions": [18, 1200, "v", 18000], "trial": 1, "trial_type": "math-distractor", "trial_index": 43, "time_elapsed": 289480, "internal_node_id": "0.0-34.0"}}, {"uniqueid": "MTK0404:3BWI6RSP7HGHP50Q24JSWZWW289E7V", "current_trial": 44, "dateTime": 1510857368704, "trialdata": {"rt": -1, "stimulus": "<p id=\"stim\">10</p>", "key_press": -1, "trial_type": "single-stim", "trial_index": 44, "time_elapsed": 292480, "internal_node_id": "0.0-35.0-0.0"}}, {"uniqueid": "MTK0404:3BWI6RSP7HGHP50Q24JSWZWW289E7V", "current_trial": 45, "dateTime": 1510857369705, "trialdata": {"rt": -1, "stimulus": "<p id=\"stim\">9</p>", "key_press": -1, "trial_type": "single-stim", "trial_index": 45, "time_elapsed": 293481, "internal_node_id": "0.0-35.0-1.0"}}, {"uniqueid": "MTK0404:3BWI6RSP7HGHP50Q24JSWZWW289E7V", "current_trial": 46, "dateTime": 1510857370706, "trialdata": {"rt": -1, "stimulus": "<p id=\"stim\">8</p>", "key_press": -1, "trial_type": "single-stim", "trial_index": 46, "time_elapsed": 294482, "internal_node_id": "0.0-35.0-2.0"}}, {"uniqueid": "MTK0404:3BWI6RSP7HGHP50Q24JSWZWW289E7V", "current_trial": 47, "dateTime": 1510857371707, "trialdata": {"rt": -1, "stimulus": "<p id=\"stim\">7</p>", "key_press": -1, "trial_type": "single-stim", "trial_index": 47, "time_elapsed": 295483, "internal_node_id": "0.0-35.0-3.0"}}, {"uniqueid": "MTK0404:3BWI6RSP7HGHP50Q24JSWZWW289E7V", "current_trial": 48, "dateTime": 1510857372708, "trialdata": {"rt": -1, "stimulus": "<p id=\"stim\">6</p>", "key_press": -1, "trial_type": "single-stim", "trial_index": 48, "time_elapsed": 296484, "internal_node_id": "0.0-35.0-4.0"}}, {"uniqueid": "MTK0404:3BWI6RSP7HGHP50Q24JSWZWW289E7V", "current_trial": 49, "dateTime": 1510857373709, "trialdata": {"rt": -1, "stimulus": "<p id=\"stim\">5</p>", "key_press": -1, "trial_type": "single-stim", "trial_index": 49, "time_elapsed": 297485, "internal_node_id": "0.0-35.0-5.0"}}, {"uniqueid": "MTK0404:3BWI6RSP7HGHP50Q24JSWZWW289E7V", "current_trial": 50, "dateTime": 1510857374710, "trialdata": {"rt": -1, "stimulus": "<p id=\"stim\">4</p>", "key_press": -1, "trial_type": "single-stim", "trial_index": 50, "time_elapsed": 298486, "internal_node_id": "0.0-35.0-6.0"}}, {"uniqueid": "MTK0404:3BWI6RSP7HGHP50Q24JSWZWW289E7V", "current_trial": 51, "dateTime": 1510857375711, "trialdata": {"rt": -1, "stimulus": "<p id=\"stim\">3</p>", "key_press": -1, "trial_type": "single-stim", "trial_index": 51, "time_elapsed": 299487, "internal_node_id": "0.0-35.0-7.0"}}, {"uniqueid": "MTK0404:3BWI6RSP7HGHP50Q24JSWZWW289E7V", "current_trial": 52, "dateTime": 1510857376712, "trialdata": {"rt": -1, "stimulus": "<p id=\"stim\">2</p>", "key_press": -1, "trial_type": "single-stim", "trial_index": 52, "time_elapsed": 300488, "internal_node_id": "0.0-35.0-8.0"}}, {"uniqueid": "MTK0404:3BWI6RSP7HGHP50Q24JSWZWW289E7V", "current_trial": 53, "dateTime": 1510857377721, "trialdata": {"rt": -1, "stimulus": "<p id=\"stim\">1</p>", "key_press": -1, "trial_type": "single-stim", "trial_index": 53, "time_elapsed": 301497, "internal_node_id": "0.0-35.0-9.0"}}, {"uniqueid": "MTK0404:3BWI6RSP7HGHP50Q24JSWZWW289E7V", "current_trial": 54, "dateTime": 1510857379221, "trialdata": {"rt": -1, "stimulus": "<p id=\"stim\">+</p>", "key_press": -1, "type": "FIXATION", "trial_type": "single-stim", "trial_index": 54, "time_elapsed": 302997, "internal_node_id": "0.0-36.0-0.0"}}, {"uniqueid": "MTK0404:3BWI6RSP7HGHP50Q24JSWZWW289E7V", "current_trial": 55, "dateTime": 1510857380422, "trialdata": {"rt": -1, "stimulus": "<p id=\"stim\">VIRUS</p>", "key_press": -1, "type": "PRES_VIS", "word": "virus", "wordID": 1571, "conditions": [18, 1200, "v", 18000], "trial": 1, "serialpos": 0, "trial_type": "single-stim", "trial_index": 55, "time_elapsed": 304198, "internal_node_id": "0.0-37.0"}}, {"uniqueid": "MTK0404:3BWI6RSP7HGHP50Q24JSWZWW289E7V", "current_trial": 56, "dateTime": 1510857382679, "trialdata": {"rt": -1, "stimulus": "<p id=\"stim\">POSTAGE</p>", "key_press": -1, "type": "PRES_VIS", "word": "postage", "wordID": 1112, "conditions": [18, 1200, "v", 18000], "trial": 1, "serialpos": 1, "trial_type": "single-stim", "trial_index": 56, "time_elapsed": 306455, "internal_node_id": "0.0-38.0"}}, {"uniqueid": "MTK0404:3BWI6RSP7HGHP50Q24JSWZWW289E7V", "current_trial": 57, "dateTime": 1510857384868, "trialdata": {"rt": -1, "stimulus": "<p id=\"stim\">CRUTCH</p>", "key_press": -1, "type": "PRES_VIS", "word": "crutch", "wordID": 416, "conditions": [18, 1200, "v", 18000], "trial": 1, "serialpos": 2, "trial_type": "single-stim", "trial_index": 57, "time_elapsed": 308644, "internal_node_id": "0.0-39.0"}}, {"uniqueid": "MTK0404:3BWI6RSP7HGHP50Q24JSWZWW289E7V", "current_trial": 58, "dateTime": 1510857387193, "trialdata": {"rt": -1, "stimulus": "<p id=\"stim\">BINDER</p>", "key_press": -1, "type": "PRES_VIS", "word": "binder", "wordID": 126, "conditions": [18, 1200, "v", 18000], "trial": 1, "serialpos": 3, "trial_type": "single-stim", "trial_index": 58, "time_elapsed": 310968, "internal_node_id": "0.0-40.0"}}, {"uniqueid": "MTK0404:3BWI6RSP7HGHP50Q24JSWZWW289E7V", "current_trial": 59, "dateTime": 1510857389476, "trialdata": {"rt": -1, "stimulus": "<p id=\"stim\">FLOWER</p>", "key_press": -1, "type": "PRES_VIS", "word": "flower", "wordID": 583, "conditions": [18, 1200, "v", 18000], "trial": 1, "serialpos": 4, "trial_type": "single-stim", "trial_index": 59, "time_elapsed": 313252, "internal_node_id": "0.0-41.0"}}, {"uniqueid": "MTK0404:3BWI6RSP7HGHP50Q24JSWZWW289E7V", "current_trial": 60, "dateTime": 1510857391709, "trialdata": {"rt": -1, "stimulus": "<p id=\"stim\">FRANCE</p>", "key_press": -1, "type": "PRES_VIS", "word": "france", "wordID": 600, "conditions": [18, 1200, "v", 18000], "trial": 1, "serialpos": 5, "trial_type": "single-stim", "trial_index": 60, "time_elapsed": 315485, "internal_node_id": "0.0-42.0"}}, {"uniqueid": "MTK0404:3BWI6RSP7HGHP50Q24JSWZWW289E7V", "current_trial": 61, "dateTime": 1510857393898, "trialdata": {"rt": -1, "stimulus": "<p id=\"stim\">SUNRISE</p>", "key_press": -1, "type": "PRES_VIS", "word": "sunrise", "wordID": 1406, "conditions": [18, 1200, "v", 18000], "trial": 1, "serialpos": 6, "trial_type": "single-stim", "trial_index": 61, "time_elapsed": 317674, "internal_node_id": "0.0-43.0"}}, {"uniqueid": "MTK0404:3BWI6RSP7HGHP50Q24JSWZWW289E7V", "current_trial": 62, "dateTime": 1510857396202, "trialdata": {"rt": -1, "stimulus": "<p id=\"stim\">MOTOR</p>", "key_press": -1, "type": "PRES_VIS", "word": "motor", "wordID": 921, "conditions": [18, 1200, "v", 18000], "trial": 1, "serialpos": 7, "trial_type": "single-stim", "trial_index": 62, "time_elapsed": 319978, "internal_node_id": "0.0-44.0"}}, {"uniqueid": "MTK0404:3BWI6RSP7HGHP50Q24JSWZWW289E7V", "current_trial": 63, "dateTime": 1510857398513, "trialdata": {"rt": -1, "stimulus": "<p id=\"stim\">GRAVEL</p>", "key_press": -1, "type": "PRES_VIS", "word": "gravel", "wordID": 658, "conditions": [18, 1200, "v", 18000], "trial": 1, "serialpos": 8, "trial_type": "single-stim", "trial_index": 63, "time_elapsed": 322287, "internal_node_id": "0.0-45.0"}}, {"uniqueid": "MTK0404:3BWI6RSP7HGHP50Q24JSWZWW289E7V", "current_trial": 64, "dateTime": 1510857400900, "trialdata": {"rt": -1, "stimulus": "<p id=\"stim\">SLIME</p>", "key_press": -1, "type": "PRES_VIS", "word": "slime", "wordID": 1326, "conditions": [18, 1200, "v", 18000], "trial": 1, "serialpos": 9, "trial_type": "single-stim", "trial_index": 64, "time_elapsed": 324676, "internal_node_id": "0.0-46.0"}}, {"uniqueid": "MTK0404:3BWI6RSP7HGHP50Q24JSWZWW289E7V", "current_trial": 65, "dateTime": 1510857402991, "trialdata": {"rt": -1, "stimulus": "<p id=\"stim\">SEAGULL</p>", "key_press": -1, "type": "PRES_VIS", "word": "seagull", "wordID": 1260, "conditions": [18, 1200, "v", 18000], "trial": 1, "serialpos": 10, "trial_type": "single-stim", "trial_index": 65, "time_elapsed": 326767, "internal_node_id": "0.0-47.0"}}, {"uniqueid": "MTK0404:3BWI6RSP7HGHP50Q24JSWZWW289E7V", "current_trial": 66, "dateTime": 1510857405087, "trialdata": {"rt": -1, "stimulus": "<p id=\"stim\">PASSAGE</p>", "key_press": -1, "type": "PRES_VIS", "word": "passage", "wordID": 1018, "conditions": [18, 1200, "v", 18000], "trial": 1, "serialpos": 11, "trial_type": "single-stim", "trial_index": 66, "time_elapsed": 328863, "internal_node_id": "0.0-48.0"}}, {"uniqueid": "MTK0404:3BWI6RSP7HGHP50Q24JSWZWW289E7V", "current_trial": 67, "dateTime": 1510857407145, "trialdata": {"rt": -1, "stimulus": "<p id=\"stim\">BEEF</p>", "key_press": -1, "type": "PRES_VIS", "word": "beef", "wordID": 112, "conditions": [18, 1200, "v", 18000], "trial": 1, "serialpos": 12, "trial_type": "single-stim", "trial_index": 67, "time_elapsed": 330921, "internal_node_id": "0.0-49.0"}}, {"uniqueid": "MTK0404:3BWI6RSP7HGHP50Q24JSWZWW289E7V", "current_trial": 68, "dateTime": 1510857409280, "trialdata": {"rt": -1, "stimulus": "<p id=\"stim\">MACHINE</p>", "key_press": -1, "type": "PRES_VIS", "word": "machine", "wordID": 851, "conditions": [18, 1200, "v", 18000], "trial": 1, "serialpos": 13, "trial_type": "single-stim", "trial_index": 68, "time_elapsed": 333052, "internal_node_id": "0.0-50.0"}}, {"uniqueid": "MTK0404:3BWI6RSP7HGHP50Q24JSWZWW289E7V", "current_trial": 69, "dateTime": 1510857411467, "trialdata": {"rt": -1, "stimulus": "<p id=\"stim\">CUPBOARD</p>", "key_press": -1, "type": "PRES_VIS", "word": "cupboard", "wordID": 424, "conditions": [18, 1200, "v", 18000], "trial": 1, "serialpos": 14, "trial_type": "single-stim", "trial_index": 69, "time_elapsed": 335243, "internal_node_id": "0.0-51.0"}}, {"uniqueid": "MTK0404:3BWI6RSP7HGHP50Q24JSWZWW289E7V", "current_trial": 70, "dateTime": 1510857413521, "trialdata": {"rt": -1, "stimulus": "<p id=\"stim\">ROD</p>", "key_press": -1, "type": "PRES_VIS", "word": "rod", "wordID": 1202, "conditions": [18, 1200, "v", 18000], "trial": 1, "serialpos": 15, "trial_type": "single-stim", "trial_index": 70, "time_elapsed": 337297, "internal_node_id": "0.0-52.0"}}, {"uniqueid": "MTK0404:3BWI6RSP7HGHP50Q24JSWZWW289E7V", "current_trial": 71, "dateTime": 1510857415735, "trialdata": {"rt": -1, "stimulus": "<p id=\"stim\">PEANUT</p>", "key_press": -1, "type": "PRES_VIS", "word": "peanut", "wordID": 1031, "conditions": [18, 1200, "v", 18000], "trial": 1, "serialpos": 16, "trial_type": "single-stim", "trial_index": 71, "time_elapsed": 339511, "internal_node_id": "0.0-53.0"}}, {"uniqueid": "MTK0404:3BWI6RSP7HGHP50Q24JSWZWW289E7V", "current_trial": 72, "dateTime": 1510857417830, "trialdata": {"rt": -1, "stimulus": "<p id=\"stim\">SCRIBBLE</p>", "key_press": -1, "type": "PRES_VIS", "word": "scribble", "wordID": 1255, "conditions": [18, 1200, "v", 18000], "trial": 1, "serialpos": 17, "trial_type": "single-stim", "trial_index": 72, "time_elapsed": 341606, "internal_node_id": "0.0-54.0"}}, {"uniqueid": "MTK0404:3BWI6RSP7HGHP50Q24JSWZWW289E7V", "current_trial": 73, "dateTime": 1510857420101, "trialdata": {"rt": -1, "stimulus": "", "key_press": -1, "type": "PRE_RECALL_DELAY", "trial_type": "single-stim", "trial_index": 73, "time_elapsed": 343877, "internal_node_id": "0.0-55.0-0.0"}}, {"uniqueid": "MTK0404:3BWI6RSP7HGHP50Q24JSWZWW289E7V", "current_trial": 74, "dateTime": 1510857420602, "trialdata": {"rt": -1000, "stimulus": "/static/audio/400Hz.wav", "key_press": -1, "type": "PRE_RECALL_ALERT", "trial_type": "single-audio", "trial_index": 74, "time_elapsed": 344378, "internal_node_id": "0.0-56.0"}}, {"uniqueid": "MTK0404:3BWI6RSP7HGHP50Q24JSWZWW289E7V", "current_trial": 75, "dateTime": 1510857480608, "trialdata": {"rt": [2801, 4128, 5972, 8999, 11738, 14041, 16841, 20851, 24251, 47529], "recwords": ["france", "flower", "crutch", "coffee", "gravel", "seagull", "postage", "travel", "stamp", "scribble"], "type": "FREE_RECALL", "conditions": [18, 1200, "v", 18000], "trial": 1, "trial_type": "free-recall", "trial_index": 75, "time_elapsed": 404381, "internal_node_id": "0.0-57.0-0.0"}}, {"uniqueid": "MTK0404:3BWI6RSP7HGHP50Q24JSWZWW289E7V", "current_trial": 76, "dateTime": 1510857547729, "trialdata": {"rt": 65114, "key_press": 72, "type": "INSTRUCTIONS", "trial_type": "text", "trial_index": 76, "time_elapsed": 471499, "internal_node_id": "0.0-58.0"}}, {"uniqueid": "MTK0404:3BWI6RSP7HGHP50Q24JSWZWW289E7V", "current_trial": 77, "dateTime": 1510857572731, "trialdata": {"rt": [2422, 4859, 7100, 9664, 16264, 18438, 21552], "responses": ["14", "12", "13", "15", "21", "10", "13"], "num1": [3, 3, 3, 6, 9, 3, 7, 2], "num2": [7, 1, 6, 6, 8, 6, 4, 4], "num3": [4, 8, 4, 3, 5, 1, 2, 6], "type": "DISTRACTOR", "conditions": [12, 1600, "v", 24000], "trial": 2, "trial_type": "math-distractor", "trial_index": 77, "time_elapsed": 496507, "internal_node_id": "0.0-59.0"}}, {"uniqueid": "MTK0404:3BWI6RSP7HGHP50Q24JSWZWW289E7V", "current_trial": 78, "dateTime": 1510857575730, "trialdata": {"rt": -1, "stimulus": "<p id=\"stim\">10</p>", "key_press": -1, "trial_type": "single-stim", "trial_index": 78, "time_elapsed": 499506, "internal_node_id": "0.0-60.0-0.0"}}, {"uniqueid": "MTK0404:3BWI6RSP7HGHP50Q24JSWZWW289E7V", "current_trial": 79, "dateTime": 1510857576731, "trialdata": {"rt": -1, "stimulus": "<p id=\"stim\">9</p>", "key_press": -1, "trial_type": "single-stim", "trial_index": 79, "time_elapsed": 500506, "internal_node_id": "0.0-60.0-1.0"}}, {"uniqueid": "MTK0404:3BWI6RSP7HGHP50Q24JSWZWW289E7V", "current_trial": 80, "dateTime": 1510857577731, "trialdata": {"rt": -1, "stimulus": "<p id=\"stim\">8</p>", "key_press": -1, "trial_type": "single-stim", "trial_index": 80, "time_elapsed": 501507, "internal_node_id": "0.0-60.0-2.0"}}, {"uniqueid": "MTK0404:3BWI6RSP7HGHP50Q24JSWZWW289E7V", "current_trial": 81, "dateTime": 1510857578732, "trialdata": {"rt": -1, "stimulus": "<p id=\"stim\">7</p>", "key_press": -1, "trial_type": "single-stim", "trial_index": 81, "time_elapsed": 502508, "internal_node_id": "0.0-60.0-3.0"}}, {"uniqueid": "MTK0404:3BWI6RSP7HGHP50Q24JSWZWW289E7V", "current_trial": 82, "dateTime": 1510857579733, "trialdata": {"rt": -1, "stimulus": "<p id=\"stim\">6</p>", "key_press": -1, "trial_type": "single-stim", "trial_index": 82, "time_elapsed": 503509, "internal_node_id": "0.0-60.0-4.0"}}, {"uniqueid": "MTK0404:3BWI6RSP7HGHP50Q24JSWZWW289E7V", "current_trial": 83, "dateTime": 1510857580733, "trialdata": {"rt": -1, "stimulus": "<p id=\"stim\">5</p>", "key_press": -1, "trial_type": "single-stim", "trial_index": 83, "time_elapsed": 504509, "internal_node_id": "0.0-60.0-5.0"}}, {"uniqueid": "MTK0404:3BWI6RSP7HGHP50Q24JSWZWW289E7V", "current_trial": 84, "dateTime": 1510857581734, "trialdata": {"rt": -1, "stimulus": "<p id=\"stim\">4</p>", "key_press": -1, "trial_type": "single-stim", "trial_index": 84, "time_elapsed": 505510, "internal_node_id": "0.0-60.0-6.0"}}, {"uniqueid": "MTK0404:3BWI6RSP7HGHP50Q24JSWZWW289E7V", "current_trial": 85, "dateTime": 1510857582735, "trialdata": {"rt": -1, "stimulus": "<p id=\"stim\">3</p>", "key_press": -1, "trial_type": "single-stim", "trial_index": 85, "time_elapsed": 506511, "internal_node_id": "0.0-60.0-7.0"}}, {"uniqueid": "MTK0404:3BWI6RSP7HGHP50Q24JSWZWW289E7V", "current_trial": 86, "dateTime": 1510857583736, "trialdata": {"rt": -1, "stimulus": "<p id=\"stim\">2</p>", "key_press": -1, "trial_type": "single-stim", "trial_index": 86, "time_elapsed": 507512, "internal_node_id": "0.0-60.0-8.0"}}, {"uniqueid": "MTK0404:3BWI6RSP7HGHP50Q24JSWZWW289E7V", "current_trial": 87, "dateTime": 1510857584737, "trialdata": {"rt": -1, "stimulus": "<p id=\"stim\">1</p>", "key_press": -1, "trial_type": "single-stim", "trial_index": 87, "time_elapsed": 508513, "internal_node_id": "0.0-60.0-9.0"}}, {"uniqueid": "MTK0404:3BWI6RSP7HGHP50Q24JSWZWW289E7V", "current_trial": 88, "dateTime": 1510857586238, "trialdata": {"rt": -1, "stimulus": "<p id=\"stim\">+</p>", "key_press": -1, "type": "FIXATION", "trial_type": "single-stim", "trial_index": 88, "time_elapsed": 510014, "internal_node_id": "0.0-61.0-0.0"}}, {"uniqueid": "MTK0404:3BWI6RSP7HGHP50Q24JSWZWW289E7V", "current_trial": 89, "dateTime": 1510857587839, "trialdata": {"rt": -1, "stimulus": "<p id=\"stim\">TREAT</p>", "key_press": -1, "type": "PRES_VIS", "word": "treat", "wordID": 1500, "conditions": [12, 1600, "v", 24000], "trial": 2, "serialpos": 0, "trial_type": "single-stim", "trial_index": 89, "time_elapsed": 511615, "internal_node_id": "0.0-62.0"}}, {"uniqueid": "MTK0404:3BWI6RSP7HGHP50Q24JSWZWW289E7V", "current_trial": 90, "dateTime": 1510857590633, "trialdata": {"rt": -1, "stimulus": "<p id=\"stim\">STOMACH</p>", "key_press": -1, "type": "PRES_VIS", "word": "stomach", "wordID": 1383, "conditions": [12, 1600, "v", 24000], "trial": 2, "serialpos": 1, "trial_type": "single-stim", "trial_index": 90, "time_elapsed": 514409, "internal_node_id": "0.0-63.0"}}, {"uniqueid": "MTK0404:3BWI6RSP7HGHP50Q24JSWZWW289E7V", "current_trial": 91, "dateTime": 1510857593080, "trialdata": {"rt": -1, "stimulus": "<p id=\"stim\">CRATER</p>", "key_press": -1, "type": "PRES_VIS", "word": "crater", "wordID": 399, "conditions": [12, 1600, "v", 24000], "trial": 2, "serialpos": 2, "trial_type": "single-stim", "trial_index": 91, "time_elapsed": 516856, "internal_node_id": "0.0-64.0"}}, {"uniqueid": "MTK0404:3BWI6RSP7HGHP50Q24JSWZWW289E7V", "current_trial": 92, "dateTime": 1510857595831, "trialdata": {"rt": -1, "stimulus": "<p id=\"stim\">OUTLAW</p>", "key_press": -1, "type": "PRES_VIS", "word": "outlaw", "wordID": 988, "conditions": [12, 1600, "v", 24000], "trial": 2, "serialpos": 3, "trial_type": "single-stim", "trial_index": 92, "time_elapsed": 519607, "internal_node_id": "0.0-65.0"}}, {"uniqueid": "MTK0404:3BWI6RSP7HGHP50Q24JSWZWW289E7V", "current_trial": 93, "dateTime": 1510857598507, "trialdata": {"rt": -1, "stimulus": "<p id=\"stim\">SPOUSE</p>", "key_press": -1, "type": "PRES_VIS", "word": "spouse", "wordID": 1357, "conditions": [12, 1600, "v", 24000], "trial": 2, "serialpos": 4, "trial_type": "single-stim", "trial_index": 93, "time_elapsed": 522283, "internal_node_id": "0.0-66.0"}}, {"uniqueid": "MTK0404:3BWI6RSP7HGHP50Q24JSWZWW289E7V", "current_trial": 94, "dateTime": 1510857601126, "trialdata": {"rt": -1, "stimulus": "<p id=\"stim\">CREATURE</p>", "key_press": -1, "type": "PRES_VIS", "word": "creature", "wordID": 402, "conditions": [12, 1600, "v", 24000], "trial": 2, "serialpos": 5, "trial_type": "single-stim", "trial_index": 94, "time_elapsed": 524902, "internal_node_id": "0.0-67.0"}}, {"uniqueid": "MTK0404:3BWI6RSP7HGHP50Q24JSWZWW289E7V", "current_trial": 95, "dateTime": 1510857603559, "trialdata": {"rt": -1, "stimulus": "<p id=\"stim\">SNAKE</p>", "key_press": -1, "type": "PRES_VIS", "word": "snake", "wordID": 1332, "conditions": [12, 1600, "v", 24000], "trial": 2, "serialpos": 6, "trial_type": "single-stim", "trial_index": 95, "time_elapsed": 527335, "internal_node_id": "0.0-68.0"}}, {"uniqueid": "MTK0404:3BWI6RSP7HGHP50Q24JSWZWW289E7V", "current_trial": 96, "dateTime": 1510857606251, "trialdata": {"rt": -1, "stimulus": "<p id=\"stim\">PAPER</p>", "key_press": -1, "type": "PRES_VIS", "word": "paper", "wordID": 1010, "conditions": [12, 1600, "v", 24000], "trial": 2, "serialpos": 7, "trial_type": "single-stim", "trial_index": 96, "time_elapsed": 530027, "internal_node_id": "0.0-69.0"}}, {"uniqueid": "MTK0404:3BWI6RSP7HGHP50Q24JSWZWW289E7V", "current_trial": 97, "dateTime": 1510857609035, "trialdata": {"rt": -1, "stimulus": "<p id=\"stim\">KNAPSACK</p>", "key_press": -1, "type": "PRES_VIS", "word": "knapsack", "wordID": 782, "conditions": [12, 1600, "v", 24000], "trial": 2, "serialpos": 8, "trial_type": "single-stim", "trial_index": 97, "time_elapsed": 532811, "internal_node_id": "0.0-70.0"}}, {"uniqueid": "MTK0404:3BWI6RSP7HGHP50Q24JSWZWW289E7V", "current_trial": 98, "dateTime": 1510857611530, "trialdata": {"rt": -1, "stimulus": "<p id=\"stim\">NEUTRON</p>", "key_press": -1, "type": "PRES_VIS", "word": "neutron", "wordID": 946, "conditions": [12, 1600, "v", 24000], "trial": 2, "serialpos": 9, "trial_type": "single-stim", "trial_index": 98, "time_elapsed": 535306, "internal_node_id": "0.0-71.0"}}, {"uniqueid": "MTK0404:3BWI6RSP7HGHP50Q24JSWZWW289E7V", "current_trial": 99, "dateTime": 1510857614114, "trialdata": {"rt": -1, "stimulus": "<p id=\"stim\">CHEST</p>", "key_press": -1, "type": "PRES_VIS", "word": "chest", "wordID": 294, "conditions": [12, 1600, "v", 24000], "trial": 2, "serialpos": 10, "trial_type": "single-stim", "trial_index": 99, "time_elapsed": 537890, "internal_node_id": "0.0-72.0"}}, {"uniqueid": "MTK0404:3BWI6RSP7HGHP50Q24JSWZWW289E7V", "current_trial": 100, "dateTime": 1510857616905, "trialdata": {"rt": -1, "stimulus": "<p id=\"stim\">RABBIT</p>", "key_press": -1, "type": "PRES_VIS", "word": "rabbit", "wordID": 1151, "conditions": [12, 1600, "v", 24000], "trial": 2, "serialpos": 11, "trial_type": "single-stim", "trial_index": 100, "time_elapsed": 540681, "internal_node_id": "0.0-73.0"}}, {"uniqueid": "MTK0404:3BWI6RSP7HGHP50Q24JSWZWW289E7V", "current_trial": 101, "dateTime": 1510857619125, "trialdata": {"rt": -1, "stimulus": "", "key_press": -1, "type": "PRE_RECALL_DELAY", "trial_type": "single-stim", "trial_index": 101, "time_elapsed": 542901, "internal_node_id": "0.0-74.0-0.0"}}, {"uniqueid": "MTK0404:3BWI6RSP7HGHP50Q24JSWZWW289E7V", "current_trial": 102, "dateTime": 1510857619626, "trialdata": {"rt": -1000, "stimulus": "/static/audio/400Hz.wav", "key_press": -1, "type": "PRE_RECALL_ALERT", "trial_type": "single-audio", "trial_index": 102, "time_elapsed": 543402, "internal_node_id": "0.0-75.0"}}, {"uniqueid": "MTK0404:3BWI6RSP7HGHP50Q24JSWZWW289E7V", "current_trial": 103, "dateTime": 1510857679633, "trialdata": {"rt": [2851, 4234, 5884, 9132, 17414, 19636, 23356, 26439, 27964], "recwords": ["treat", "stomach", "spouse", "neutron", "knapsack", "crater", "rubble", "rabbit", "snake"], "type": "FREE_RECALL", "conditions": [12, 1600, "v", 24000], "trial": 2, "trial_type": "free-recall", "trial_index": 103, "time_elapsed": 603405, "internal_node_id": "0.0-76.0-0.0"}}, {"uniqueid": "MTK0404:3BWI6RSP7HGHP50Q24JSWZWW289E7V", "current_trial": 104, "dateTime": 1510857683435, "trialdata": {"rt": 1801, "key_press": 72, "type": "INSTRUCTIONS", "trial_type": "text", "trial_index": 104, "time_elapsed": 607211, "internal_node_id": "0.0-77.0"}}, {"uniqueid": "MTK0404:3BWI6RSP7HGHP50Q24JSWZWW289E7V", "current_trial": 105, "dateTime": 1510857697436, "trialdata": {"rt": [4421, 7134, 9252, 11567], "responses": ["13", "16", "11", "14"], "num1": [3, 8, 8, 5, 2], "num2": [9, 7, 1, 8, 2], "num3": [1, 1, 2, 1, 7], "type": "DISTRACTOR", "conditions": [24, 800, "v", 12000], "trial": 3, "trial_type": "math-distractor", "trial_index": 105, "time_elapsed": 621212, "internal_node_id": "0.0-78.0"}}, {"uniqueid": "MTK0404:3BWI6RSP7HGHP50Q24JSWZWW289E7V", "current_trial": 106, "dateTime": 1510857700436, "trialdata": {"rt": -1, "stimulus": "<p id=\"stim\">10</p>", "key_press": -1, "trial_type": "single-stim", "trial_index": 106, "time_elapsed": 624212, "internal_node_id": "0.0-79.0-0.0"}}, {"uniqueid": "MTK0404:3BWI6RSP7HGHP50Q24JSWZWW289E7V", "current_trial": 107, "dateTime": 1510857701436, "trialdata": {"rt": -1, "stimulus": "<p id=\"stim\">9</p>", "key_press": -1, "trial_type": "single-stim", "trial_index": 107, "time_elapsed": 625212, "internal_node_id": "0.0-79.0-1.0"}}, {"uniqueid": "MTK0404:3BWI6RSP7HGHP50Q24JSWZWW289E7V", "current_trial": 108, "dateTime": 1510857702437, "trialdata": {"rt": -1, "stimulus": "<p id=\"stim\">8</p>", "key_press": -1, "trial_type": "single-stim", "trial_index": 108, "time_elapsed": 626213, "internal_node_id": "0.0-79.0-2.0"}}, {"uniqueid": "MTK0404:3BWI6RSP7HGHP50Q24JSWZWW289E7V", "current_trial": 109, "dateTime": 1510857703438, "trialdata": {"rt": -1, "stimulus": "<p id=\"stim\">7</p>", "key_press": -1, "trial_type": "single-stim", "trial_index": 109, "time_elapsed": 627214, "internal_node_id": "0.0-79.0-3.0"}}, {"uniqueid": "MTK0404:3BWI6RSP7HGHP50Q24JSWZWW289E7V", "current_trial": 110, "dateTime": 1510857704439, "trialdata": {"rt": -1, "stimulus": "<p id=\"stim\">6</p>", "key_press": -1, "trial_type": "single-stim", "trial_index": 110, "time_elapsed": 628215, "internal_node_id": "0.0-79.0-4.0"}}, {"uniqueid": "MTK0404:3BWI6RSP7HGHP50Q24JSWZWW289E7V", "current_trial": 111, "dateTime": 1510857705440, "trialdata": {"rt": -1, "stimulus": "<p id=\"stim\">5</p>", "key_press": -1, "trial_type": "single-stim", "trial_index": 111, "time_elapsed": 629216, "internal_node_id": "0.0-79.0-5.0"}}, {"uniqueid": "MTK0404:3BWI6RSP7HGHP50Q24JSWZWW289E7V", "current_trial": 112, "dateTime": 1510857706440, "trialdata": {"rt": -1, "stimulus": "<p id=\"stim\">4</p>", "key_press": -1, "trial_type": "single-stim", "trial_index": 112, "time_elapsed": 630216, "internal_node_id": "0.0-79.0-6.0"}}, {"uniqueid": "MTK0404:3BWI6RSP7HGHP50Q24JSWZWW289E7V", "current_trial": 113, "dateTime": 1510857707441, "trialdata": {"rt": -1, "stimulus": "<p id=\"stim\">3</p>", "key_press": -1, "trial_type": "single-stim", "trial_index": 113, "time_elapsed": 631217, "internal_node_id": "0.0-79.0-7.0"}}, {"uniqueid": "MTK0404:3BWI6RSP7HGHP50Q24JSWZWW289E7V", "current_trial": 114, "dateTime": 1510857708442, "trialdata": {"rt": -1, "stimulus": "<p id=\"stim\">2</p>", "key_press": -1, "trial_type": "single-stim", "trial_index": 114, "time_elapsed": 632218, "internal_node_id": "0.0-79.0-8.0"}}, {"uniqueid": "MTK0404:3BWI6RSP7HGHP50Q24JSWZWW289E7V", "current_trial": 115, "dateTime": 1510857709443, "trialdata": {"rt": -1, "stimulus": "<p id=\"stim\">1</p>", "key_press": -1, "trial_type": "single-stim", "trial_index": 115, "time_elapsed": 633219, "internal_node_id": "0.0-79.0-9.0"}}, {"uniqueid": "MTK0404:3BWI6RSP7HGHP50Q24JSWZWW289E7V", "current_trial": 116, "dateTime": 1510857710944, "trialdata": {"rt": -1, "stimulus": "<p id=\"stim\">+</p>", "key_press": -1, "type": "FIXATION", "trial_type": "single-stim", "trial_index": 116, "time_elapsed": 634720, "internal_node_id": "0.0-80.0-0.0"}}, {"uniqueid": "MTK0404:3BWI6RSP7HGHP50Q24JSWZWW289E7V", "current_trial": 117, "dateTime": 1510857711745, "trialdata": {"rt": -1, "stimulus": "<p id=\"stim\">JUDGE</p>", "key_press": -1, "type": "PRES_VIS", "word": "judge", "wordID": 760, "conditions": [24, 800, "v", 12000], "trial": 3, "serialpos": 0, "trial_type": "single-stim", "trial_index": 117, "time_elapsed": 635521, "internal_node_id": "0.0-81.0"}}, {"uniqueid": "MTK0404:3BWI6RSP7HGHP50Q24JSWZWW289E7V", "current_trial": 118, "dateTime": 1510857713530, "trialdata": {"rt": -1, "stimulus": "<p id=\"stim\">ROBBER</p>", "key_press": -1, "type": "PRES_VIS", "word": "robber", "wordID": 1196, "conditions": [24, 800, "v", 12000], "trial": 3, "serialpos": 1, "trial_type": "single-stim", "trial_index": 118, "time_elapsed": 637306, "internal_node_id": "0.0-82.0"}}, {"uniqueid": "MTK0404:3BWI6RSP7HGHP50Q24JSWZWW289E7V", "current_trial": 119, "dateTime": 1510857715348, "trialdata": {"rt": -1, "stimulus": "<p id=\"stim\">ROOSTER</p>", "key_press": -1, "type": "PRES_VIS", "word": "rooster", "wordID": 1208, "conditions": [24, 800, "v", 12000], "trial": 3, "serialpos": 2, "trial_type": "single-stim", "trial_index": 119, "time_elapsed": 639124, "internal_node_id": "0.0-83.0"}}, {"uniqueid": "MTK0404:3BWI6RSP7HGHP50Q24JSWZWW289E7V", "current_trial": 120, "dateTime": 1510857717337, "trialdata": {"rt": -1, "stimulus": "<p id=\"stim\">SUPPER</p>", "key_press": -1, "type": "PRES_VIS", "word": "supper", "wordID": 1410, "conditions": [24, 800, "v", 12000], "trial": 3, "serialpos": 3, "trial_type": "single-stim", "trial_index": 120, "time_elapsed": 641112, "internal_node_id": "0.0-84.0"}}, {"uniqueid": "MTK0404:3BWI6RSP7HGHP50Q24JSWZWW289E7V", "current_trial": 121, "dateTime": 1510857719251, "trialdata": {"rt": -1, "stimulus": "<p id=\"stim\">TURNIP</p>", "key_press": -1, "type": "PRES_VIS", "word": "turnip", "wordID": 1520, "conditions": [24, 800, "v", 12000], "trial": 3, "serialpos": 4, "trial_type": "single-stim", "trial_index": 121, "time_elapsed": 643027, "internal_node_id": "0.0-85.0"}}, {"uniqueid": "MTK0404:3BWI6RSP7HGHP50Q24JSWZWW289E7V", "current_trial": 122, "dateTime": 1510857721245, "trialdata": {"rt": -1, "stimulus": "<p id=\"stim\">CLAM</p>", "key_press": -1, "type": "PRES_VIS", "word": "clam", "wordID": 314, "conditions": [24, 800, "v", 12000], "trial": 3, "serialpos": 5, "trial_type": "single-stim", "trial_index": 122, "time_elapsed": 645021, "internal_node_id": "0.0-86.0"}}, {"uniqueid": "MTK0404:3BWI6RSP7HGHP50Q24JSWZWW289E7V", "current_trial": 123, "dateTime": 1510857723170, "trialdata": {"rt": -1, "stimulus": "<p id=\"stim\">SCALLOP</p>", "key_press": -1, "type": "PRES_VIS", "word": "scallop", "wordID": 1241, "conditions": [24, 800, "v", 12000], "trial": 3, "serialpos": 6, "trial_type": "single-stim", "trial_index": 123, "time_elapsed": 646946, "internal_node_id": "0.0-87.0"}}, {"uniqueid": "MTK0404:3BWI6RSP7HGHP50Q24JSWZWW289E7V", "current_trial": 124, "dateTime": 1510857725036, "trialdata": {"rt": -1, "stimulus": "<p id=\"stim\">LILY</p>", "key_press": -1, "type": "PRES_VIS", "word": "lily", "wordID": 820, "conditions": [24, 800, "v", 12000], "trial": 3, "serialpos": 7, "trial_type": "single-stim", "trial_index": 124, "time_elapsed": 648812, "internal_node_id": "0.0-88.0"}}, {"uniqueid": "MTK0404:3BWI6RSP7HGHP50Q24JSWZWW289E7V", "current_trial": 125, "dateTime": 1510857726652, "trialdata": {"rt": -1, "stimulus": "<p id=\"stim\">CONVICT</p>", "key_press": -1, "type": "PRES_VIS", "word": "convict", "wordID": 370, "conditions": [24, 800, "v", 12000], "trial": 3, "serialpos": 8, "trial_type": "single-stim", "trial_index": 125, "time_elapsed": 650428, "internal_node_id": "0.0-89.0"}}, {"uniqueid": "MTK0404:3BWI6RSP7HGHP50Q24JSWZWW289E7V", "current_trial": 126, "dateTime": 1510857728583, "trialdata": {"rt": -1, "stimulus": "<p id=\"stim\">WRIST</p>", "key_press": -1, "type": "PRES_VIS", "word": "wrist", "wordID": 1625, "conditions": [24, 800, "v", 12000], "trial": 3, "serialpos": 9, "trial_type": "single-stim", "trial_index": 126, "time_elapsed": 652359, "internal_node_id": "0.0-90.0"}}, {"uniqueid": "MTK0404:3BWI6RSP7HGHP50Q24JSWZWW289E7V", "current_trial": 127, "dateTime": 1510857730265, "trialdata": {"rt": -1, "stimulus": "<p id=\"stim\">PUPPY</p>", "key_press": -1, "type": "PRES_VIS", "word": "puppy", "wordID": 1143, "conditions": [24, 800, "v", 12000], "trial": 3, "serialpos": 10, "trial_type": "single-stim", "trial_index": 127, "time_elapsed": 654041, "internal_node_id": "0.0-91.0"}}, {"uniqueid": "MTK0404:3BWI6RSP7HGHP50Q24JSWZWW289E7V", "current_trial": 128, "dateTime": 1510857732066, "trialdata": {"rt": -1, "stimulus": "<p id=\"stim\">CABBAGE</p>", "key_press": -1, "type": "PRES_VIS", "word": "cabbage", "wordID": 209, "conditions": [24, 800, "v", 12000], "trial": 3, "serialpos": 11, "trial_type": "single-stim", "trial_index": 128, "time_elapsed": 655842, "internal_node_id": "0.0-92.0"}}, {"uniqueid": "MTK0404:3BWI6RSP7HGHP50Q24JSWZWW289E7V", "current_trial": 129, "dateTime": 1510857733913, "trialdata": {"rt": -1, "stimulus": "<p id=\"stim\">CUSTARD</p>", "key_press": -1, "type": "PRES_VIS", "word": "custard", "wordID": 428, "conditions": [24, 800, "v", 12000], "trial": 3, "serialpos": 12, "trial_type": "single-stim", "trial_index": 129, "time_elapsed": 657687, "internal_node_id": "0.0-93.0"}}, {"uniqueid": "MTK0404:3BWI6RSP7HGHP50Q24JSWZWW289E7V", "current_trial": 130, "dateTime": 1510857735637, "trialdata": {"rt": -1, "stimulus": "<p id=\"stim\">EUROPE</p>", "key_press": -1, "type": "PRES_VIS", "word": "europe", "wordID": 540, "conditions": [24, 800, "v", 12000], "trial": 3, "serialpos": 13, "trial_type": "single-stim", "trial_index": 130, "time_elapsed": 659413, "internal_node_id": "0.0-94.0"}}, {"uniqueid": "MTK0404:3BWI6RSP7HGHP50Q24JSWZWW289E7V", "current_trial": 131, "dateTime": 1510857737591, "trialdata": {"rt": -1, "stimulus": "<p id=\"stim\">WAITRESS</p>", "key_press": -1, "type": "PRES_VIS", "word": "waitress", "wordID": 1580, "conditions": [24, 800, "v", 12000], "trial": 3, "serialpos": 14, "trial_type": "single-stim", "trial_index": 131, "time_elapsed": 661367, "internal_node_id": "0.0-95.0"}}, {"uniqueid": "MTK0404:3BWI6RSP7HGHP50Q24JSWZWW289E7V", "current_trial": 132, "dateTime": 1510857739307, "trialdata": {"rt": -1, "stimulus": "<p id=\"stim\">CANDY</p>", "key_press": -1, "type": "PRES_VIS", "word": "candy", "wordID": 229, "conditions": [24, 800, "v", 12000], "trial": 3, "serialpos": 15, "trial_type": "single-stim", "trial_index": 132, "time_elapsed": 663083, "internal_node_id": "0.0-96.0"}}, {"uniqueid": "MTK0404:3BWI6RSP7HGHP50Q24JSWZWW289E7V", "current_trial": 133, "dateTime": 1510857740908, "trialdata": {"rt": -1, "stimulus": "<p id=\"stim\">SLIDE</p>", "key_press": -1, "type": "PRES_VIS", "word": "slide", "wordID": 1325, "conditions": [24, 800, "v", 12000], "trial": 3, "serialpos": 16, "trial_type": "single-stim", "trial_index": 133, "time_elapsed": 664684, "internal_node_id": "0.0-97.0"}}, {"uniqueid": "MTK0404:3BWI6RSP7HGHP50Q24JSWZWW289E7V", "current_trial": 134, "dateTime": 1510857742767, "trialdata": {"rt": -1, "stimulus": "<p id=\"stim\">SISTER</p>", "key_press": -1, "type": "PRES_VIS", "word": "sister", "wordID": 1311, "conditions": [24, 800, "v", 12000], "trial": 3, "serialpos": 17, "trial_type": "single-stim", "trial_index": 134, "time_elapsed": 666542, "internal_node_id": "0.0-98.0"}}, {"uniqueid": "MTK0404:3BWI6RSP7HGHP50Q24JSWZWW289E7V", "current_trial": 135, "dateTime": 1510857744634, "trialdata": {"rt": -1, "stimulus": "<p id=\"stim\">CASHEW</p>", "key_press": -1, "type": "PRES_VIS", "word": "cashew", "wordID": 252, "conditions": [24, 800, "v", 12000], "trial": 3, "serialpos": 18, "trial_type": "single-stim", "trial_index": 135, "time_elapsed": 668410, "internal_node_id": "0.0-99.0"}}, {"uniqueid": "MTK0404:3BWI6RSP7HGHP50Q24JSWZWW289E7V", "current_trial": 136, "dateTime": 1510857746536, "trialdata": {"rt": -1, "stimulus": "<p id=\"stim\">JELLO</p>", "key_press": -1, "type": "PRES_VIS", "word": "jello", "wordID": 753, "conditions": [24, 800, "v", 12000], "trial": 3, "serialpos": 19, "trial_type": "single-stim", "trial_index": 136, "time_elapsed": 670312, "internal_node_id": "0.0-100.0"}}, {"uniqueid": "MTK0404:3BWI6RSP7HGHP50Q24JSWZWW289E7V", "current_trial": 137, "dateTime": 1510857748351, "trialdata": {"rt": -1, "stimulus": "<p id=\"stim\">PISTOL</p>", "key_press": -1, "type": "PRES_VIS", "word": "pistol", "wordID": 1074, "conditions": [24, 800, "v", 12000], "trial": 3, "serialpos": 20, "trial_type": "single-stim", "trial_index": 137, "time_elapsed": 672127, "internal_node_id": "0.0-101.0"}}, {"uniqueid": "MTK0404:3BWI6RSP7HGHP50Q24JSWZWW289E7V", "current_trial": 138, "dateTime": 1510857750255, "trialdata": {"rt": -1, "stimulus": "<p id=\"stim\">KNIFE</p>", "key_press": -1, "type": "PRES_VIS", "word": "knife", "wordID": 784, "conditions": [24, 800, "v", 12000], "trial": 3, "serialpos": 21, "trial_type": "single-stim", "trial_index": 138, "time_elapsed": 674031, "internal_node_id": "0.0-102.0"}}, {"uniqueid": "MTK0404:3BWI6RSP7HGHP50Q24JSWZWW289E7V", "current_trial": 139, "dateTime": 1510857751875, "trialdata": {"rt": -1, "stimulus": "<p id=\"stim\">BURGLAR</p>", "key_press": -1, "type": "PRES_VIS", "word": "burglar", "wordID": 199, "conditions": [24, 800, "v", 12000], "trial": 3, "serialpos": 22, "trial_type": "single-stim", "trial_index": 139, "time_elapsed": 675651, "internal_node_id": "0.0-103.0"}}, {"uniqueid": "MTK0404:3BWI6RSP7HGHP50Q24JSWZWW289E7V", "current_trial": 140, "dateTime": 1510857753576, "trialdata": {"rt": -1, "stimulus": "<p id=\"stim\">PUDDING</p>", "key_press": -1, "type": "PRES_VIS", "word": "pudding", "wordID": 1138, "conditions": [24, 800, "v", 12000], "trial": 3, "serialpos": 23, "trial_type": "single-stim", "trial_index": 140, "time_elapsed": 677352, "internal_node_id": "0.0-104.0"}}, {"uniqueid": "MTK0404:3BWI6RSP7HGHP50Q24JSWZWW289E7V", "current_trial": 141, "dateTime": 1510857755806, "trialdata": {"rt": -1, "stimulus": "", "key_press": -1, "type": "PRE_RECALL_DELAY", "trial_type": "single-stim", "trial_index": 141, "time_elapsed": 679582, "internal_node_id": "0.0-105.0-0.0"}}, {"uniqueid": "MTK0404:3BWI6RSP7HGHP50Q24JSWZWW289E7V", "current_trial": 142, "dateTime": 1510857756307, "trialdata": {"rt": -1000, "stimulus": "/static/audio/400Hz.wav", "key_press": -1, "type": "PRE_RECALL_ALERT", "trial_type": "single-audio", "trial_index": 142, "time_elapsed": 680083, "internal_node_id": "0.0-106.0"}}, {"uniqueid": "MTK0404:3BWI6RSP7HGHP50Q24JSWZWW289E7V", "current_trial": 143, "dateTime": 1510857816314, "trialdata": {"rt": [1705, 3232, 5079, 6053, 7346, 9208, 11463, 12591, 14043, 15381, 18080, 20995, 34192, 38543], "recwords": ["judge", "robber", "burglar", "wrist", "knife", "clam", "waitress", "candy", "jello", "custard", "pudding", "puppy", "europe", "rooster"], "type": "FREE_RECALL", "conditions": [24, 800, "v", 12000], "trial": 3, "trial_type": "free-recall", "trial_index": 143, "time_elapsed": 740086, "internal_node_id": "0.0-107.0-0.0"}}, {"uniqueid": "MTK0404:3BWI6RSP7HGHP50Q24JSWZWW289E7V", "current_trial": 144, "dateTime": 1510857819810, "trialdata": {"rt": 1496, "key_press": 70, "type": "INSTRUCTIONS", "trial_type": "text", "trial_index": 144, "time_elapsed": 743586, "internal_node_id": "0.0-108.0"}}, {"uniqueid": "MTK0404:3BWI6RSP7HGHP50Q24JSWZWW289E7V", "current_trial": 145, "dateTime": 1510857833812, "trialdata": {"rt": [2227, 3627, 6661, 8619, 10616], "responses": ["18", "12", "21", "17", "11"], "num1": [1, 3, 8, 7, 2, 6], "num2": [8, 7, 9, 7, 2, 3], "num3": [9, 2, 4, 3, 7, 1], "type": "DISTRACTOR", "conditions": [12, 1600, "a", 12000], "trial": 4, "trial_type": "math-distractor", "trial_index": 145, "time_elapsed": 757588, "internal_node_id": "0.0-109.0"}}, {"uniqueid": "MTK0404:3BWI6RSP7HGHP50Q24JSWZWW289E7V", "current_trial": 146, "dateTime": 1510857836812, "trialdata": {"rt": -1, "stimulus": "<p id=\"stim\">10</p>", "key_press": -1, "trial_type": "single-stim", "trial_index": 146, "time_elapsed": 760588, "internal_node_id": "0.0-110.0-0.0"}}, {"uniqueid": "MTK0404:3BWI6RSP7HGHP50Q24JSWZWW289E7V", "current_trial": 147, "dateTime": 1510857837813, "trialdata": {"rt": -1, "stimulus": "<p id=\"stim\">9</p>", "key_press": -1, "trial_type": "single-stim", "trial_index": 147, "time_elapsed": 761589, "internal_node_id": "0.0-110.0-1.0"}}, {"uniqueid": "MTK0404:3BWI6RSP7HGHP50Q24JSWZWW289E7V", "current_trial": 148, "dateTime": 1510857838814, "trialdata": {"rt": -1, "stimulus": "<p id=\"stim\">8</p>", "key_press": -1, "trial_type": "single-stim", "trial_index": 148, "time_elapsed": 762590, "internal_node_id": "0.0-110.0-2.0"}}, {"uniqueid": "MTK0404:3BWI6RSP7HGHP50Q24JSWZWW289E7V", "current_trial": 149, "dateTime": 1510857839815, "trialdata": {"rt": -1, "stimulus": "<p id=\"stim\">7</p>", "key_press": -1, "trial_type": "single-stim", "trial_index": 149, "time_elapsed": 763591, "internal_node_id": "0.0-110.0-3.0"}}, {"uniqueid": "MTK0404:3BWI6RSP7HGHP50Q24JSWZWW289E7V", "current_trial": 150, "dateTime": 1510857840816, "trialdata": {"rt": -1, "stimulus": "<p id=\"stim\">6</p>", "key_press": -1, "trial_type": "single-stim", "trial_index": 150, "time_elapsed": 764592, "internal_node_id": "0.0-110.0-4.0"}}, {"uniqueid": "MTK0404:3BWI6RSP7HGHP50Q24JSWZWW289E7V", "current_trial": 151, "dateTime": 1510857841817, "trialdata": {"rt": -1, "stimulus": "<p id=\"stim\">5</p>", "key_press": -1, "trial_type": "single-stim", "trial_index": 151, "time_elapsed": 765593, "internal_node_id": "0.0-110.0-5.0"}}, {"uniqueid": "MTK0404:3BWI6RSP7HGHP50Q24JSWZWW289E7V", "current_trial": 152, "dateTime": 1510857842818, "trialdata": {"rt": -1, "stimulus": "<p id=\"stim\">4</p>", "key_press": -1, "trial_type": "single-stim", "trial_index": 152, "time_elapsed": 766594, "internal_node_id": "0.0-110.0-6.0"}}, {"uniqueid": "MTK0404:3BWI6RSP7HGHP50Q24JSWZWW289E7V", "current_trial": 153, "dateTime": 1510857843819, "trialdata": {"rt": -1, "stimulus": "<p id=\"stim\">3</p>", "key_press": -1, "trial_type": "single-stim", "trial_index": 153, "time_elapsed": 767595, "internal_node_id": "0.0-110.0-7.0"}}, {"uniqueid": "MTK0404:3BWI6RSP7HGHP50Q24JSWZWW289E7V", "current_trial": 154, "dateTime": 1510857844821, "trialdata": {"rt": -1, "stimulus": "<p id=\"stim\">2</p>", "key_press": -1, "trial_type": "single-stim", "trial_index": 154, "time_elapsed": 768597, "internal_node_id": "0.0-110.0-8.0"}}, {"uniqueid": "MTK0404:3BWI6RSP7HGHP50Q24JSWZWW289E7V", "current_trial": 155, "dateTime": 1510857845822, "trialdata": {"rt": -1, "stimulus": "<p id=\"stim\">1</p>", "key_press": -1, "trial_type": "single-stim", "trial_index": 155, "time_elapsed": 769598, "internal_node_id": "0.0-110.0-9.0"}}, {"uniqueid": "MTK0404:3BWI6RSP7HGHP50Q24JSWZWW289E7V", "current_trial": 156, "dateTime": 1510857847323, "trialdata": {"rt": -1, "stimulus": "<p id=\"stim\">+</p>", "key_press": -1, "type": "FIXATION", "trial_type": "single-stim", "trial_index": 156, "time_elapsed": 771099, "internal_node_id": "0.0-111.0-0.0"}}, {"uniqueid": "MTK0404:3BWI6RSP7HGHP50Q24JSWZWW289E7V", "current_trial": 157, "dateTime": 1510857849798, "trialdata": {"rt": -1000, "stimulus": "/static/audio/wordpool/BABY.wav", "key_press": -1, "type": "PRES_AUD", "word": "baby", "wordID": 63, "conditions": [12, 1600, "a", 12000], "trial": 4, "serialpos": 0, "trial_type": "single-audio", "trial_index": 157, "time_elapsed": 773573, "internal_node_id": "0.0-112.0"}}, {"uniqueid": "MTK0404:3BWI6RSP7HGHP50Q24JSWZWW289E7V", "current_trial": 158, "dateTime": 1510857852522, "trialdata": {"rt": -1000, "stimulus": "/static/audio/wordpool/CHILD.wav", "key_press": -1, "type": "PRES_AUD", "word": "child", "wordID": 298, "conditions": [12, 1600, "a", 12000], "trial": 4, "serialpos": 1, "trial_type": "single-audio", "trial_index": 158, "time_elapsed": 776298, "internal_node_id": "0.0-113.0"}}, {"uniqueid": "MTK0404:3BWI6RSP7HGHP50Q24JSWZWW289E7V", "current_trial": 159, "dateTime": 1510857855134, "trialdata": {"rt": -1000, "stimulus": "/static/audio/wordpool/TURTLE.wav", "key_press": -1, "type": "PRES_AUD", "word": "turtle", "wordID": 1521, "conditions": [12, 1600, "a", 12000], "trial": 4, "serialpos": 2, "trial_type": "single-audio", "trial_index": 159, "time_elapsed": 778910, "internal_node_id": "0.0-114.0"}}, {"uniqueid": "MTK0404:3BWI6RSP7HGHP50Q24JSWZWW289E7V", "current_trial": 160, "dateTime": 1510857857539, "trialdata": {"rt": -1000, "stimulus": "/static/audio/wordpool/CLIMBER.wav", "key_press": -1, "type": "PRES_AUD", "word": "climber", "wordID": 322, "conditions": [12, 1600, "a", 12000], "trial": 4, "serialpos": 3, "trial_type": "single-audio", "trial_index": 160, "time_elapsed": 781315, "internal_node_id": "0.0-115.0"}}, {"uniqueid": "MTK0404:3BWI6RSP7HGHP50Q24JSWZWW289E7V", "current_trial": 161, "dateTime": 1510857860250, "trialdata": {"rt": -1000, "stimulus": "/static/audio/wordpool/PIMPLE.wav", "key_press": -1, "type": "PRES_AUD", "word": "pimple", "wordID": 1070, "conditions": [12, 1600, "a", 12000], "trial": 4, "serialpos": 4, "trial_type": "single-audio", "trial_index": 161, "time_elapsed": 784026, "internal_node_id": "0.0-116.0"}}, {"uniqueid": "MTK0404:3BWI6RSP7HGHP50Q24JSWZWW289E7V", "current_trial": 162, "dateTime": 1510857862874, "trialdata": {"rt": -1000, "stimulus": "/static/audio/wordpool/WAGON.wav", "key_press": -1, "type": "PRES_AUD", "word": "wagon", "wordID": 1577, "conditions": [12, 1600, "a", 12000], "trial": 4, "serialpos": 5, "trial_type": "single-audio", "trial_index": 162, "time_elapsed": 786650, "internal_node_id": "0.0-117.0"}}, {"uniqueid": "MTK0404:3BWI6RSP7HGHP50Q24JSWZWW289E7V", "current_trial": 163, "dateTime": 1510857865303, "trialdata": {"rt": -1000, "stimulus": "/static/audio/wordpool/COCOON.wav", "key_press": -1, "type": "PRES_AUD", "word": "cocoon", "wordID": 338, "conditions": [12, 1600, "a", 12000], "trial": 4, "serialpos": 6, "trial_type": "single-audio", "trial_index": 163, "time_elapsed": 789079, "internal_node_id": "0.0-118.0"}}, {"uniqueid": "MTK0404:3BWI6RSP7HGHP50Q24JSWZWW289E7V", "current_trial": 164, "dateTime": 1510857867964, "trialdata": {"rt": -1000, "stimulus": "/static/audio/wordpool/PADDLE.wav", "key_press": -1, "type": "PRES_AUD", "word": "paddle", "wordID": 999, "conditions": [12, 1600, "a", 12000], "trial": 4, "serialpos": 7, "trial_type": "single-audio", "trial_index": 164, "time_elapsed": 791740, "internal_node_id": "0.0-119.0"}}, {"uniqueid": "MTK0404:3BWI6RSP7HGHP50Q24JSWZWW289E7V", "current_trial": 165, "dateTime": 1510857870584, "trialdata": {"rt": -1000, "stimulus": "/static/audio/wordpool/DRIVER.wav", "key_press": -1, "type": "PRES_AUD", "word": "driver", "wordID": 498, "conditions": [12, 1600, "a", 12000], "trial": 4, "serialpos": 8, "trial_type": "single-audio", "trial_index": 165, "time_elapsed": 794360, "internal_node_id": "0.0-120.0"}}, {"uniqueid": "MTK0404:3BWI6RSP7HGHP50Q24JSWZWW289E7V", "current_trial": 166, "dateTime": 1510857873063, "trialdata": {"rt": -1000, "stimulus": "/static/audio/wordpool/MILDEW.wav", "key_press": -1, "type": "PRES_AUD", "word": "mildew", "wordID": 892, "conditions": [12, 1600, "a", 12000], "trial": 4, "serialpos": 9, "trial_type": "single-audio", "trial_index": 166, "time_elapsed": 796839, "internal_node_id": "0.0-121.0"}}, {"uniqueid": "MTK0404:3BWI6RSP7HGHP50Q24JSWZWW289E7V", "current_trial": 167, "dateTime": 1510857875707, "trialdata": {"rt": -1000, "stimulus": "/static/audio/wordpool/BARLEY.wav", "key_press": -1, "type": "PRES_AUD", "word": "barley", "wordID": 87, "conditions": [12, 1600, "a", 12000], "trial": 4, "serialpos": 10, "trial_type": "single-audio", "trial_index": 167, "time_elapsed": 799483, "internal_node_id": "0.0-122.0"}}, {"uniqueid": "MTK0404:3BWI6RSP7HGHP50Q24JSWZWW289E7V", "current_trial": 168, "dateTime": 1510857878369, "trialdata": {"rt": -1000, "stimulus": "/static/audio/wordpool/FRECKLE.wav", "key_press": -1, "type": "PRES_AUD", "word": "freckle", "wordID": 601, "conditions": [12, 1600, "a", 12000], "trial": 4, "serialpos": 11, "trial_type": "single-audio", "trial_index": 168, "time_elapsed": 802145, "internal_node_id": "0.0-123.0"}}, {"uniqueid": "MTK0404:3BWI6RSP7HGHP50Q24JSWZWW289E7V", "current_trial": 169, "dateTime": 1510857879621, "trialdata": {"rt": -1, "stimulus": "", "key_press": -1, "type": "PRE_RECALL_DELAY", "trial_type": "single-stim", "trial_index": 169, "time_elapsed": 803397, "internal_node_id": "0.0-124.0-0.0"}}, {"uniqueid": "MTK0404:3BWI6RSP7HGHP50Q24JSWZWW289E7V", "current_trial": 170, "dateTime": 1510857880122, "trialdata": {"rt": -1000, "stimulus": "/static/audio/400Hz.wav", "key_press": -1, "type": "PRE_RECALL_ALERT", "trial_type": "single-audio", "trial_index": 170, "time_elapsed": 803898, "internal_node_id": "0.0-125.0"}}, {"uniqueid": "MTK0404:3BWI6RSP7HGHP50Q24JSWZWW289E7V", "current_trial": 171, "dateTime": 1510857940129, "trialdata": {"rt": [3227, 4444, 6449, 7897, 9503, 11249, 13420, 58789], "recwords": ["baby", "child", "pimple", "driver", "cocoon", "mildew", "freckle", "cashew"], "type": "FREE_RECALL", "conditions": [12, 1600, "a", 12000], "trial": 4, "trial_type": "free-recall", "trial_index": 171, "time_elapsed": 863901, "internal_node_id": "0.0-126.0-0.0"}}, {"uniqueid": "MTK0404:3BWI6RSP7HGHP50Q24JSWZWW289E7V", "current_trial": 172, "dateTime": 1510857961241, "trialdata": {"rt": 19110, "key_press": 72, "type": "INSTRUCTIONS", "trial_type": "text", "trial_index": 172, "time_elapsed": 885017, "internal_node_id": "0.0-127.0"}}, {"uniqueid": "MTK0404:3BWI6RSP7HGHP50Q24JSWZWW289E7V", "current_trial": 173, "dateTime": 1510857987243, "trialdata": {"rt": [3301, 5339, 7196, 9472, 11796, 13798, 15467, 17467, 21177, 23612], "responses": ["14", "11", "12", "17", "11", "10", "11", "11", "14", "14"], "num1": [6, 2, 1, 5, 2, 1, 3, 2, 5, 3, 6], "num2": [3, 4, 5, 9, 7, 3, 6, 2, 2, 4, 9], "num3": [5, 5, 6, 3, 2, 6, 2, 7, 7, 7, 8], "type": "DISTRACTOR", "conditions": [24, 800, "a", 24000], "trial": 5, "trial_type": "math-distractor", "trial_index": 173, "time_elapsed": 911019, "internal_node_id": "0.0-128.0"}}, {"uniqueid": "MTK0404:3BWI6RSP7HGHP50Q24JSWZWW289E7V", "current_trial": 174, "dateTime": 1510857990244, "trialdata": {"rt": -1, "stimulus": "<p id=\"stim\">10</p>", "key_press": -1, "trial_type": "single-stim", "trial_index": 174, "time_elapsed": 914019, "internal_node_id": "0.0-129.0-0.0"}}, {"uniqueid": "MTK0404:3BWI6RSP7HGHP50Q24JSWZWW289E7V", "current_trial": 175, "dateTime": 1510857991246, "trialdata": {"rt": -1, "stimulus": "<p id=\"stim\">9</p>", "key_press": -1, "trial_type": "single-stim", "trial_index": 175, "time_elapsed": 915022, "internal_node_id": "0.0-129.0-1.0"}}, {"uniqueid": "MTK0404:3BWI6RSP7HGHP50Q24JSWZWW289E7V", "current_trial": 176, "dateTime": 1510857992247, "trialdata": {"rt": -1, "stimulus": "<p id=\"stim\">8</p>", "key_press": -1, "trial_type": "single-stim", "trial_index": 176, "time_elapsed": 916023, "internal_node_id": "0.0-129.0-2.0"}}, {"uniqueid": "MTK0404:3BWI6RSP7HGHP50Q24JSWZWW289E7V", "current_trial": 177, "dateTime": 1510857993249, "trialdata": {"rt": -1, "stimulus": "<p id=\"stim\">7</p>", "key_press": -1, "trial_type": "single-stim", "trial_index": 177, "time_elapsed": 917024, "internal_node_id": "0.0-129.0-3.0"}}, {"uniqueid": "MTK0404:3BWI6RSP7HGHP50Q24JSWZWW289E7V", "current_trial": 178, "dateTime": 1510857994249, "trialdata": {"rt": -1, "stimulus": "<p id=\"stim\">6</p>", "key_press": -1, "trial_type": "single-stim", "trial_index": 178, "time_elapsed": 918025, "internal_node_id": "0.0-129.0-4.0"}}, {"uniqueid": "MTK0404:3BWI6RSP7HGHP50Q24JSWZWW289E7V", "current_trial": 179, "dateTime": 1510857995250, "trialdata": {"rt": -1, "stimulus": "<p id=\"stim\">5</p>", "key_press": -1, "trial_type": "single-stim", "trial_index": 179, "time_elapsed": 919026, "internal_node_id": "0.0-129.0-5.0"}}, {"uniqueid": "MTK0404:3BWI6RSP7HGHP50Q24JSWZWW289E7V", "current_trial": 180, "dateTime": 1510857996251, "trialdata": {"rt": -1, "stimulus": "<p id=\"stim\">4</p>", "key_press": -1, "trial_type": "single-stim", "trial_index": 180, "time_elapsed": 920027, "internal_node_id": "0.0-129.0-6.0"}}, {"uniqueid": "MTK0404:3BWI6RSP7HGHP50Q24JSWZWW289E7V", "current_trial": 181, "dateTime": 1510857997252, "trialdata": {"rt": -1, "stimulus": "<p id=\"stim\">3</p>", "key_press": -1, "trial_type": "single-stim", "trial_index": 181, "time_elapsed": 921028, "internal_node_id": "0.0-129.0-7.0"}}, {"uniqueid": "MTK0404:3BWI6RSP7HGHP50Q24JSWZWW289E7V", "current_trial": 182, "dateTime": 1510857998252, "trialdata": {"rt": -1, "stimulus": "<p id=\"stim\">2</p>", "key_press": -1, "trial_type": "single-stim", "trial_index": 182, "time_elapsed": 922028, "internal_node_id": "0.0-129.0-8.0"}}, {"uniqueid": "MTK0404:3BWI6RSP7HGHP50Q24JSWZWW289E7V", "current_trial": 183, "dateTime": 1510857999252, "trialdata": {"rt": -1, "stimulus": "<p id=\"stim\">1</p>", "key_press": -1, "trial_type": "single-stim", "trial_index": 183, "time_elapsed": 923028, "internal_node_id": "0.0-129.0-9.0"}}, {"uniqueid": "MTK0404:3BWI6RSP7HGHP50Q24JSWZWW289E7V", "current_trial": 184, "dateTime": 1510858000753, "trialdata": {"rt": -1, "stimulus": "<p id=\"stim\">+</p>", "key_press": -1, "type": "FIXATION", "trial_type": "single-stim", "trial_index": 184, "time_elapsed": 924529, "internal_node_id": "0.0-130.0-0.0"}}, {"uniqueid": "MTK0404:3BWI6RSP7HGHP50Q24JSWZWW289E7V", "current_trial": 185, "dateTime": 1510858002523, "trialdata": {"rt": -1000, "stimulus": "/static/audio/wordpool/DASHBOARD.wav", "key_press": -1, "type": "PRES_AUD", "word": "dashboard", "wordID": 440, "conditions": [24, 800, "a", 24000], "trial": 5, "serialpos": 0, "trial_type": "single-audio", "trial_index": 185, "time_elapsed": 926299, "internal_node_id": "0.0-131.0"}}, {"uniqueid": "MTK0404:3BWI6RSP7HGHP50Q24JSWZWW289E7V", "current_trial": 186, "dateTime": 1510858004494, "trialdata": {"rt": -1000, "stimulus": "/static/audio/wordpool/WASP.wav", "key_press": -1, "type": "PRES_AUD", "word": "wasp", "wordID": 1592, "conditions": [24, 800, "a", 24000], "trial": 5, "serialpos": 1, "trial_type": "single-audio", "trial_index": 186, "time_elapsed": 928270, "internal_node_id": "0.0-132.0"}}, {"uniqueid": "MTK0404:3BWI6RSP7HGHP50Q24JSWZWW289E7V", "current_trial": 187, "dateTime": 1510858006115, "trialdata": {"rt": -1000, "stimulus": "/static/audio/wordpool/PATROL.wav", "key_press": -1, "type": "PRES_AUD", "word": "patrol", "wordID": 1026, "conditions": [24, 800, "a", 24000], "trial": 5, "serialpos": 2, "trial_type": "single-audio", "trial_index": 187, "time_elapsed": 929891, "internal_node_id": "0.0-133.0"}}, {"uniqueid": "MTK0404:3BWI6RSP7HGHP50Q24JSWZWW289E7V", "current_trial": 188, "dateTime": 1510858008076, "trialdata": {"rt": -1000, "stimulus": "/static/audio/wordpool/MARINE.wav", "key_press": -1, "type": "PRES_AUD", "word": "marine", "wordID": 868, "conditions": [24, 800, "a", 24000], "trial": 5, "serialpos": 3, "trial_type": "single-audio", "trial_index": 188, "time_elapsed": 931852, "internal_node_id": "0.0-134.0"}}, {"uniqueid": "MTK0404:3BWI6RSP7HGHP50Q24JSWZWW289E7V", "current_trial": 189, "dateTime": 1510858009932, "trialdata": {"rt": -1000, "stimulus": "/static/audio/wordpool/DANCER.wav", "key_press": -1, "type": "PRES_AUD", "word": "dancer", "wordID": 436, "conditions": [24, 800, "a", 24000], "trial": 5, "serialpos": 4, "trial_type": "single-audio", "trial_index": 189, "time_elapsed": 933708, "internal_node_id": "0.0-135.0"}}, {"uniqueid": "MTK0404:3BWI6RSP7HGHP50Q24JSWZWW289E7V", "current_trial": 190, "dateTime": 1510858011879, "trialdata": {"rt": -1000, "stimulus": "/static/audio/wordpool/PEACH.wav", "key_press": -1, "type": "PRES_AUD", "word": "peach", "wordID": 1030, "conditions": [24, 800, "a", 24000], "trial": 5, "serialpos": 5, "trial_type": "single-audio", "trial_index": 190, "time_elapsed": 935655, "internal_node_id": "0.0-136.0"}}, {"uniqueid": "MTK0404:3BWI6RSP7HGHP50Q24JSWZWW289E7V", "current_trial": 191, "dateTime": 1510858013873, "trialdata": {"rt": -1000, "stimulus": "/static/audio/wordpool/PECAN.wav", "key_press": -1, "type": "PRES_AUD", "word": "pecan", "wordID": 1035, "conditions": [24, 800, "a", 24000], "trial": 5, "serialpos": 6, "trial_type": "single-audio", "trial_index": 191, "time_elapsed": 937649, "internal_node_id": "0.0-137.0"}}, {"uniqueid": "MTK0404:3BWI6RSP7HGHP50Q24JSWZWW289E7V", "current_trial": 192, "dateTime": 1510858015649, "trialdata": {"rt": -1000, "stimulus": "/static/audio/wordpool/PORTRAIT.wav", "key_press": -1, "type": "PRES_AUD", "word": "portrait", "wordID": 1110, "conditions": [24, 800, "a", 24000], "trial": 5, "serialpos": 7, "trial_type": "single-audio", "trial_index": 192, "time_elapsed": 939425, "internal_node_id": "0.0-138.0"}}, {"uniqueid": "MTK0404:3BWI6RSP7HGHP50Q24JSWZWW289E7V", "current_trial": 193, "dateTime": 1510858017574, "trialdata": {"rt": -1000, "stimulus": "/static/audio/wordpool/STREAM.wav", "key_press": -1, "type": "PRES_AUD", "word": "stream", "wordID": 1391, "conditions": [24, 800, "a", 24000], "trial": 5, "serialpos": 8, "trial_type": "single-audio", "trial_index": 193, "time_elapsed": 941350, "internal_node_id": "0.0-139.0"}}, {"uniqueid": "MTK0404:3BWI6RSP7HGHP50Q24JSWZWW289E7V", "current_trial": 194, "dateTime": 1510858019500, "trialdata": {"rt": -1000, "stimulus": "/static/audio/wordpool/LETTUCE.wav", "key_press": -1, "type": "PRES_AUD", "word": "lettuce", "wordID": 813, "conditions": [24, 800, "a", 24000], "trial": 5, "serialpos": 9, "trial_type": "single-audio", "trial_index": 194, "time_elapsed": 943276, "internal_node_id": "0.0-140.0"}}, {"uniqueid": "MTK0404:3BWI6RSP7HGHP50Q24JSWZWW289E7V", "current_trial": 195, "dateTime": 1510858021397, "trialdata": {"rt": -1000, "stimulus": "/static/audio/wordpool/NOMAD.wav", "key_press": -1, "type": "PRES_AUD", "word": "nomad", "wordID": 954, "conditions": [24, 800, "a", 24000], "trial": 5, "serialpos": 10, "trial_type": "single-audio", "trial_index": 195, "time_elapsed": 945173, "internal_node_id": "0.0-141.0"}}, {"uniqueid": "MTK0404:3BWI6RSP7HGHP50Q24JSWZWW289E7V", "current_trial": 196, "dateTime": 1510858023260, "trialdata": {"rt": -1000, "stimulus": "/static/audio/wordpool/HORNET.wav", "key_press": -1, "type": "PRES_AUD", "word": "hornet", "wordID": 717, "conditions": [24, 800, "a", 24000], "trial": 5, "serialpos": 11, "trial_type": "single-audio", "trial_index": 196, "time_elapsed": 947036, "internal_node_id": "0.0-142.0"}}, {"uniqueid": "MTK0404:3BWI6RSP7HGHP50Q24JSWZWW289E7V", "current_trial": 197, "dateTime": 1510858025168, "trialdata": {"rt": -1000, "stimulus": "/static/audio/wordpool/TEACHER.wav", "key_press": -1, "type": "PRES_AUD", "word": "teacher", "wordID": 1439, "conditions": [24, 800, "a", 24000], "trial": 5, "serialpos": 12, "trial_type": "single-audio", "trial_index": 197, "time_elapsed": 948944, "internal_node_id": "0.0-143.0"}}, {"uniqueid": "MTK0404:3BWI6RSP7HGHP50Q24JSWZWW289E7V", "current_trial": 198, "dateTime": 1510858026990, "trialdata": {"rt": -1000, "stimulus": "/static/audio/wordpool/BISON.wav", "key_press": -1, "type": "PRES_AUD", "word": "bison", "wordID": 130, "conditions": [24, 800, "a", 24000], "trial": 5, "serialpos": 13, "trial_type": "single-audio", "trial_index": 198, "time_elapsed": 950766, "internal_node_id": "0.0-144.0"}}, {"uniqueid": "MTK0404:3BWI6RSP7HGHP50Q24JSWZWW289E7V", "current_trial": 199, "dateTime": 1510858028607, "trialdata": {"rt": -1000, "stimulus": "/static/audio/wordpool/FILM.wav", "key_press": -1, "type": "PRES_AUD", "word": "film", "wordID": 564, "conditions": [24, 800, "a", 24000], "trial": 5, "serialpos": 14, "trial_type": "single-audio", "trial_index": 199, "time_elapsed": 952383, "internal_node_id": "0.0-145.0"}}, {"uniqueid": "MTK0404:3BWI6RSP7HGHP50Q24JSWZWW289E7V", "current_trial": 200, "dateTime": 1510858030247, "trialdata": {"rt": -1000, "stimulus": "/static/audio/wordpool/GLOVE.wav", "key_press": -1, "type": "PRES_AUD", "word": "glove", "wordID": 641, "conditions": [24, 800, "a", 24000], "trial": 5, "serialpos": 15, "trial_type": "single-audio", "trial_index": 200, "time_elapsed": 954023, "internal_node_id": "0.0-146.0"}}, {"uniqueid": "MTK0404:3BWI6RSP7HGHP50Q24JSWZWW289E7V", "current_trial": 201, "dateTime": 1510858032225, "trialdata": {"rt": -1000, "stimulus": "/static/audio/wordpool/SEAL.wav", "key_press": -1, "type": "PRES_AUD", "word": "seal", "wordID": 1261, "conditions": [24, 800, "a", 24000], "trial": 5, "serialpos": 16, "trial_type": "single-audio", "trial_index": 201, "time_elapsed": 956001, "internal_node_id": "0.0-147.0"}}, {"uniqueid": "MTK0404:3BWI6RSP7HGHP50Q24JSWZWW289E7V", "current_trial": 202, "dateTime": 1510858034204, "trialdata": {"rt": -1000, "stimulus": "/static/audio/wordpool/ACTOR.wav", "key_press": -1, "type": "PRES_AUD", "word": "actor", "wordID": 4, "conditions": [24, 800, "a", 24000], "trial": 5, "serialpos": 17, "trial_type": "single-audio", "trial_index": 202, "time_elapsed": 957980, "internal_node_id": "0.0-148.0"}}, {"uniqueid": "MTK0404:3BWI6RSP7HGHP50Q24JSWZWW289E7V", "current_trial": 203, "dateTime": 1510858036126, "trialdata": {"rt": -1000, "stimulus": "/static/audio/wordpool/CASHIER.wav", "key_press": -1, "type": "PRES_AUD", "word": "cashier", "wordID": 253, "conditions": [24, 800, "a", 24000], "trial": 5, "serialpos": 18, "trial_type": "single-audio", "trial_index": 203, "time_elapsed": 959902, "internal_node_id": "0.0-149.0"}}, {"uniqueid": "MTK0404:3BWI6RSP7HGHP50Q24JSWZWW289E7V", "current_trial": 204, "dateTime": 1510858037962, "trialdata": {"rt": -1000, "stimulus": "/static/audio/wordpool/GLASS.wav", "key_press": -1, "type": "PRES_AUD", "word": "glass", "wordID": 638, "conditions": [24, 800, "a", 24000], "trial": 5, "serialpos": 19, "trial_type": "single-audio", "trial_index": 204, "time_elapsed": 961738, "internal_node_id": "0.0-150.0"}}, {"uniqueid": "MTK0404:3BWI6RSP7HGHP50Q24JSWZWW289E7V", "current_trial": 205, "dateTime": 1510858039894, "trialdata": {"rt": -1000, "stimulus": "/static/audio/wordpool/PENGUIN.wav", "key_press": -1, "type": "PRES_AUD", "word": "penguin", "wordID": 1043, "conditions": [24, 800, "a", 24000], "trial": 5, "serialpos": 20, "trial_type": "single-audio", "trial_index": 205, "time_elapsed": 963670, "internal_node_id": "0.0-151.0"}}, {"uniqueid": "MTK0404:3BWI6RSP7HGHP50Q24JSWZWW289E7V", "current_trial": 206, "dateTime": 1510858041777, "trialdata": {"rt": -1000, "stimulus": "/static/audio/wordpool/BUNNY.wav", "key_press": -1, "type": "PRES_AUD", "word": "bunny", "wordID": 197, "conditions": [24, 800, "a", 24000], "trial": 5, "serialpos": 21, "trial_type": "single-audio", "trial_index": 206, "time_elapsed": 965553, "internal_node_id": "0.0-152.0"}}, {"uniqueid": "MTK0404:3BWI6RSP7HGHP50Q24JSWZWW289E7V", "current_trial": 207, "dateTime": 1510858043640, "trialdata": {"rt": -1000, "stimulus": "/static/audio/wordpool/GROUND.wav", "key_press": -1, "type": "PRES_AUD", "word": "ground", "wordID": 665, "conditions": [24, 800, "a", 24000], "trial": 5, "serialpos": 22, "trial_type": "single-audio", "trial_index": 207, "time_elapsed": 967416, "internal_node_id": "0.0-153.0"}}, {"uniqueid": "MTK0404:3BWI6RSP7HGHP50Q24JSWZWW289E7V", "current_trial": 208, "dateTime": 1510858045537, "trialdata": {"rt": -1000, "stimulus": "/static/audio/wordpool/CURTAIN.wav", "key_press": -1, "type": "PRES_AUD", "word": "curtain", "wordID": 426, "conditions": [24, 800, "a", 24000], "trial": 5, "serialpos": 23, "trial_type": "single-audio", "trial_index": 208, "time_elapsed": 969313, "internal_node_id": "0.0-154.0"}}, {"uniqueid": "MTK0404:3BWI6RSP7HGHP50Q24JSWZWW289E7V", "current_trial": 209, "dateTime": 1510858046752, "trialdata": {"rt": -1, "stimulus": "", "key_press": -1, "type": "PRE_RECALL_DELAY", "trial_type": "single-stim", "trial_index": 209, "time_elapsed": 970528, "internal_node_id": "0.0-155.0-0.0"}}, {"uniqueid": "MTK0404:3BWI6RSP7HGHP50Q24JSWZWW289E7V", "current_trial": 210, "dateTime": 1510858047253, "trialdata": {"rt": -1000, "stimulus": "/static/audio/400Hz.wav", "key_press": -1, "type": "PRE_RECALL_ALERT", "trial_type": "single-audio", "trial_index": 210, "time_elapsed": 971029, "internal_node_id": "0.0-156.0"}}, {"uniqueid": "MTK0404:3BWI6RSP7HGHP50Q24JSWZWW289E7V", "current_trial": 211, "dateTime": 1510858107261, "trialdata": {"rt": [2288, 4020, 5607, 6774, 9061, 10522, 14527, 15810, 17695, 21731, 48494], "recwords": ["curtain", "bunny", "ground", "peach", "pecan", "penguin", "teacher", "wasp", "hornet", "nomad", "bison"], "type": "FREE_RECALL", "conditions": [24, 800, "a", 24000], "trial": 5, "trial_type": "free-recall", "trial_index": 211, "time_elapsed": 1031032, "internal_node_id": "0.0-157.0-0.0"}}, {"uniqueid": "MTK0404:3BWI6RSP7HGHP50Q24JSWZWW289E7V", "current_trial": 212, "dateTime": 1510858129918, "trialdata": {"rt": 20656, "key_press": 72, "type": "INSTRUCTIONS", "trial_type": "text", "trial_index": 212, "time_elapsed": 1053694, "internal_node_id": "0.0-158.0"}}, {"uniqueid": "MTK0404:3BWI6RSP7HGHP50Q24JSWZWW289E7V", "current_trial": 213, "dateTime": 1510858155920, "trialdata": {"rt": [4620, 9049, 11464, 13741, 16657, 18512, 20669, 22587], "responses": ["22", "20", "17", "11", "18", "10", "13", "19"], "num1": [5, 9, 7, 7, 5, 6, 3, 9, 8], "num2": [9, 4, 2, 1, 4, 1, 6, 5, 4], "num3": [8, 7, 8, 3, 9, 3, 4, 5, 5], "type": "DISTRACTOR", "conditions": [24, 1600, "a", 24000], "trial": 6, "trial_type": "math-distractor", "trial_index": 213, "time_elapsed": 1079696, "internal_node_id": "0.0-159.0"}}, {"uniqueid": "MTK0404:3BWI6RSP7HGHP50Q24JSWZWW289E7V", "current_trial": 214, "dateTime": 1510858158922, "trialdata": {"rt": -1, "stimulus": "<p id=\"stim\">10</p>", "key_press": -1, "trial_type": "single-stim", "trial_index": 214, "time_elapsed": 1082696, "internal_node_id": "0.0-160.0-0.0"}}, {"uniqueid": "MTK0404:3BWI6RSP7HGHP50Q24JSWZWW289E7V", "current_trial": 215, "dateTime": 1510858159923, "trialdata": {"rt": -1, "stimulus": "<p id=\"stim\">9</p>", "key_press": -1, "trial_type": "single-stim", "trial_index": 215, "time_elapsed": 1083699, "internal_node_id": "0.0-160.0-1.0"}}, {"uniqueid": "MTK0404:3BWI6RSP7HGHP50Q24JSWZWW289E7V", "current_trial": 216, "dateTime": 1510858160924, "trialdata": {"rt": -1, "stimulus": "<p id=\"stim\">8</p>", "key_press": -1, "trial_type": "single-stim", "trial_index": 216, "time_elapsed": 1084700, "internal_node_id": "0.0-160.0-2.0"}}, {"uniqueid": "MTK0404:3BWI6RSP7HGHP50Q24JSWZWW289E7V", "current_trial": 217, "dateTime": 1510858161925, "trialdata": {"rt": -1, "stimulus": "<p id=\"stim\">7</p>", "key_press": -1, "trial_type": "single-stim", "trial_index": 217, "time_elapsed": 1085701, "internal_node_id": "0.0-160.0-3.0"}}, {"uniqueid": "MTK0404:3BWI6RSP7HGHP50Q24JSWZWW289E7V", "current_trial": 218, "dateTime": 1510858162926, "trialdata": {"rt": -1, "stimulus": "<p id=\"stim\">6</p>", "key_press": -1, "trial_type": "single-stim", "trial_index": 218, "time_elapsed": 1086702, "internal_node_id": "0.0-160.0-4.0"}}, {"uniqueid": "MTK0404:3BWI6RSP7HGHP50Q24JSWZWW289E7V", "current_trial": 219, "dateTime": 1510858163927, "trialdata": {"rt": -1, "stimulus": "<p id=\"stim\">5</p>", "key_press": -1, "trial_type": "single-stim", "trial_index": 219, "time_elapsed": 1087703, "internal_node_id": "0.0-160.0-5.0"}}, {"uniqueid": "MTK0404:3BWI6RSP7HGHP50Q24JSWZWW289E7V", "current_trial": 220, "dateTime": 1510858164928, "trialdata": {"rt": -1, "stimulus": "<p id=\"stim\">4</p>", "key_press": -1, "trial_type": "single-stim", "trial_index": 220, "time_elapsed": 1088704, "internal_node_id": "0.0-160.0-6.0"}}, {"uniqueid": "MTK0404:3BWI6RSP7HGHP50Q24JSWZWW289E7V", "current_trial": 221, "dateTime": 1510858165929, "trialdata": {"rt": -1, "stimulus": "<p id=\"stim\">3</p>", "key_press": -1, "trial_type": "single-stim", "trial_index": 221, "time_elapsed": 1089705, "internal_node_id": "0.0-160.0-7.0"}}, {"uniqueid": "MTK0404:3BWI6RSP7HGHP50Q24JSWZWW289E7V", "current_trial": 222, "dateTime": 1510858166930, "trialdata": {"rt": -1, "stimulus": "<p id=\"stim\">2</p>", "key_press": -1, "trial_type": "single-stim", "trial_index": 222, "time_elapsed": 1090706, "internal_node_id": "0.0-160.0-8.0"}}, {"uniqueid": "MTK0404:3BWI6RSP7HGHP50Q24JSWZWW289E7V", "current_trial": 223, "dateTime": 1510858167931, "trialdata": {"rt": -1, "stimulus": "<p id=\"stim\">1</p>", "key_press": -1, "trial_type": "single-stim", "trial_index": 223, "time_elapsed": 1091707, "internal_node_id": "0.0-160.0-9.0"}}, {"uniqueid": "MTK0404:3BWI6RSP7HGHP50Q24JSWZWW289E7V", "current_trial": 224, "dateTime": 1510858169432, "trialdata": {"rt": -1, "stimulus": "<p id=\"stim\">+</p>", "key_press": -1, "type": "FIXATION", "trial_type": "single-stim", "trial_index": 224, "time_elapsed": 1093208, "internal_node_id": "0.0-161.0-0.0"}}, {"uniqueid": "MTK0404:3BWI6RSP7HGHP50Q24JSWZWW289E7V", "current_trial": 225, "dateTime": 1510858172025, "trialdata": {"rt": -1000, "stimulus": "/static/audio/wordpool/SALMON.wav", "key_press": -1, "type": "PRES_AUD", "word": "salmon", "wordID": 1226, "conditions": [24, 1600, "a", 24000], "trial": 6, "serialpos": 0, "trial_type": "single-audio", "trial_index": 225, "time_elapsed": 1095801, "internal_node_id": "0.0-162.0"}}, {"uniqueid": "MTK0404:3BWI6RSP7HGHP50Q24JSWZWW289E7V", "current_trial": 226, "dateTime": 1510858174707, "trialdata": {"rt": -1000, "stimulus": "/static/audio/wordpool/BATHTUB.wav", "key_press": -1, "type": "PRES_AUD", "word": "bathtub", "wordID": 99, "conditions": [24, 1600, "a", 24000], "trial": 6, "serialpos": 1, "trial_type": "single-audio", "trial_index": 226, "time_elapsed": 1098483, "internal_node_id": "0.0-163.0"}}, {"uniqueid": "MTK0404:3BWI6RSP7HGHP50Q24JSWZWW289E7V", "current_trial": 227, "dateTime": 1510858177227, "trialdata": {"rt": -1000, "stimulus": "/static/audio/wordpool/COUNTRY.wav", "key_press": -1, "type": "PRES_AUD", "word": "country", "wordID": 387, "conditions": [24, 1600, "a", 24000], "trial": 6, "serialpos": 2, "trial_type": "single-audio", "trial_index": 227, "time_elapsed": 1101003, "internal_node_id": "0.0-164.0"}}, {"uniqueid": "MTK0404:3BWI6RSP7HGHP50Q24JSWZWW289E7V", "current_trial": 228, "dateTime": 1510858179946, "trialdata": {"rt": -1000, "stimulus": "/static/audio/wordpool/WORLD.wav", "key_press": -1, "type": "PRES_AUD", "word": "world", "wordID": 1621, "conditions": [24, 1600, "a", 24000], "trial": 6, "serialpos": 3, "trial_type": "single-audio", "trial_index": 228, "time_elapsed": 1103722, "internal_node_id": "0.0-165.0"}}, {"uniqueid": "MTK0404:3BWI6RSP7HGHP50Q24JSWZWW289E7V", "current_trial": 229, "dateTime": 1510858182530, "trialdata": {"rt": -1000, "stimulus": "/static/audio/wordpool/TART.wav", "key_press": -1, "type": "PRES_AUD", "word": "tart", "wordID": 1435, "conditions": [24, 1600, "a", 24000], "trial": 6, "serialpos": 4, "trial_type": "single-audio", "trial_index": 229, "time_elapsed": 1106306, "internal_node_id": "0.0-166.0"}}, {"uniqueid": "MTK0404:3BWI6RSP7HGHP50Q24JSWZWW289E7V", "current_trial": 230, "dateTime": 1510858185121, "trialdata": {"rt": -1000, "stimulus": "/static/audio/wordpool/CONCERT.wav", "key_press": -1, "type": "PRES_AUD", "word": "concert", "wordID": 359, "conditions": [24, 1600, "a", 24000], "trial": 6, "serialpos": 5, "trial_type": "single-audio", "trial_index": 230, "time_elapsed": 1108897, "internal_node_id": "0.0-167.0"}}, {"uniqueid": "MTK0404:3BWI6RSP7HGHP50Q24JSWZWW289E7V", "current_trial": 231, "dateTime": 1510858187847, "trialdata": {"rt": -1000, "stimulus": "/static/audio/wordpool/VALLEY.wav", "key_press": -1, "type": "PRES_AUD", "word": "valley", "wordID": 1544, "conditions": [24, 1600, "a", 24000], "trial": 6, "serialpos": 6, "trial_type": "single-audio", "trial_index": 231, "time_elapsed": 1111623, "internal_node_id": "0.0-168.0"}}, {"uniqueid": "MTK0404:3BWI6RSP7HGHP50Q24JSWZWW289E7V", "current_trial": 232, "dateTime": 1510858190415, "trialdata": {"rt": -1000, "stimulus": "/static/audio/wordpool/FEMALE.wav", "key_press": -1, "type": "PRES_AUD", "word": "female", "wordID": 558, "conditions": [24, 1600, "a", 24000], "trial": 6, "serialpos": 7, "trial_type": "single-audio", "trial_index": 232, "time_elapsed": 1114191, "internal_node_id": "0.0-169.0"}}, {"uniqueid": "MTK0404:3BWI6RSP7HGHP50Q24JSWZWW289E7V", "current_trial": 233, "dateTime": 1510858193108, "trialdata": {"rt": -1000, "stimulus": "/static/audio/wordpool/LEOPARD.wav", "key_press": -1, "type": "PRES_AUD", "word": "leopard", "wordID": 811, "conditions": [24, 1600, "a", 24000], "trial": 6, "serialpos": 8, "trial_type": "single-audio", "trial_index": 233, "time_elapsed": 1116884, "internal_node_id": "0.0-170.0"}}, {"uniqueid": "MTK0404:3BWI6RSP7HGHP50Q24JSWZWW289E7V", "current_trial": 234, "dateTime": 1510858195590, "trialdata": {"rt": -1000, "stimulus": "/static/audio/wordpool/HIGHWAY.wav", "key_press": -1, "type": "PRES_AUD", "word": "highway", "wordID": 706, "conditions": [24, 1600, "a", 24000], "trial": 6, "serialpos": 9, "trial_type": "single-audio", "trial_index": 234, "time_elapsed": 1119366, "internal_node_id": "0.0-171.0"}}, {"uniqueid": "MTK0404:3BWI6RSP7HGHP50Q24JSWZWW289E7V", "current_trial": 235, "dateTime": 1510858198080, "trialdata": {"rt": -1000, "stimulus": "/static/audio/wordpool/CANYON.wav", "key_press": -1, "type": "PRES_AUD", "word": "canyon", "wordID": 234, "conditions": [24, 1600, "a", 24000], "trial": 6, "serialpos": 10, "trial_type": "single-audio", "trial_index": 235, "time_elapsed": 1121856, "internal_node_id": "0.0-172.0"}}, {"uniqueid": "MTK0404:3BWI6RSP7HGHP50Q24JSWZWW289E7V", "current_trial": 236, "dateTime": 1510858200539, "trialdata": {"rt": -1000, "stimulus": "/static/audio/wordpool/PREACHER.wav", "key_press": -1, "type": "PRES_AUD", "word": "preacher", "wordID": 1118, "conditions": [24, 1600, "a", 24000], "trial": 6, "serialpos": 11, "trial_type": "single-audio", "trial_index": 236, "time_elapsed": 1124315, "internal_node_id": "0.0-173.0"}}, {"uniqueid": "MTK0404:3BWI6RSP7HGHP50Q24JSWZWW289E7V", "current_trial": 237, "dateTime": 1510858203082, "trialdata": {"rt": -1000, "stimulus": "/static/audio/wordpool/MARSH.wav", "key_press": -1, "type": "PRES_AUD", "word": "marsh", "wordID": 873, "conditions": [24, 1600, "a", 24000], "trial": 6, "serialpos": 12, "trial_type": "single-audio", "trial_index": 237, "time_elapsed": 1126858, "internal_node_id": "0.0-174.0"}}, {"uniqueid": "MTK0404:3BWI6RSP7HGHP50Q24JSWZWW289E7V", "current_trial": 238, "dateTime": 1510858205653, "trialdata": {"rt": -1000, "stimulus": "/static/audio/wordpool/TOURIST.wav", "key_press": -1, "type": "PRES_AUD", "word": "tourist", "wordID": 1487, "conditions": [24, 1600, "a", 24000], "trial": 6, "serialpos": 13, "trial_type": "single-audio", "trial_index": 238, "time_elapsed": 1129429, "internal_node_id": "0.0-175.0"}}, {"uniqueid": "MTK0404:3BWI6RSP7HGHP50Q24JSWZWW289E7V", "current_trial": 239, "dateTime": 1510858208253, "trialdata": {"rt": -1000, "stimulus": "/static/audio/wordpool/AGENT.wav", "key_press": -1, "type": "PRES_AUD", "word": "agent", "wordID": 9, "conditions": [24, 1600, "a", 24000], "trial": 6, "serialpos": 14, "trial_type": "single-audio", "trial_index": 239, "time_elapsed": 1132029, "internal_node_id": "0.0-176.0"}}, {"uniqueid": "MTK0404:3BWI6RSP7HGHP50Q24JSWZWW289E7V", "current_trial": 240, "dateTime": 1510858210985, "trialdata": {"rt": -1000, "stimulus": "/static/audio/wordpool/HARP.wav", "key_press": -1, "type": "PRES_AUD", "word": "harp", "wordID": 688, "conditions": [24, 1600, "a", 24000], "trial": 6, "serialpos": 15, "trial_type": "single-audio", "trial_index": 240, "time_elapsed": 1134761, "internal_node_id": "0.0-177.0"}}, {"uniqueid": "MTK0404:3BWI6RSP7HGHP50Q24JSWZWW289E7V", "current_trial": 241, "dateTime": 1510858213571, "trialdata": {"rt": -1000, "stimulus": "/static/audio/wordpool/LIZARD.wav", "key_press": -1, "type": "PRES_AUD", "word": "lizard", "wordID": 833, "conditions": [24, 1600, "a", 24000], "trial": 6, "serialpos": 16, "trial_type": "single-audio", "trial_index": 241, "time_elapsed": 1137347, "internal_node_id": "0.0-178.0"}}, {"uniqueid": "MTK0404:3BWI6RSP7HGHP50Q24JSWZWW289E7V", "current_trial": 242, "dateTime": 1510858215987, "trialdata": {"rt": -1000, "stimulus": "/static/audio/wordpool/CHIPMUNK.wav", "key_press": -1, "type": "PRES_AUD", "word": "chipmunk", "wordID": 303, "conditions": [24, 1600, "a", 24000], "trial": 6, "serialpos": 17, "trial_type": "single-audio", "trial_index": 242, "time_elapsed": 1139763, "internal_node_id": "0.0-179.0"}}, {"uniqueid": "MTK0404:3BWI6RSP7HGHP50Q24JSWZWW289E7V", "current_trial": 243, "dateTime": 1510858218431, "trialdata": {"rt": -1000, "stimulus": "/static/audio/wordpool/TRACTOR.wav", "key_press": -1, "type": "PRES_AUD", "word": "tractor", "wordID": 1492, "conditions": [24, 1600, "a", 24000], "trial": 6, "serialpos": 18, "trial_type": "single-audio", "trial_index": 243, "time_elapsed": 1142207, "internal_node_id": "0.0-180.0"}}, {"uniqueid": "MTK0404:3BWI6RSP7HGHP50Q24JSWZWW289E7V", "current_trial": 244, "dateTime": 1510858221150, "trialdata": {"rt": -1000, "stimulus": "/static/audio/wordpool/BALLOON.wav", "key_press": -1, "type": "PRES_AUD", "word": "balloon", "wordID": 74, "conditions": [24, 1600, "a", 24000], "trial": 6, "serialpos": 19, "trial_type": "single-audio", "trial_index": 244, "time_elapsed": 1144926, "internal_node_id": "0.0-181.0"}}, {"uniqueid": "MTK0404:3BWI6RSP7HGHP50Q24JSWZWW289E7V", "current_trial": 245, "dateTime": 1510858223933, "trialdata": {"rt": -1000, "stimulus": "/static/audio/wordpool/SUSPECT.wav", "key_press": -1, "type": "PRES_AUD", "word": "suspect", "wordID": 1414, "conditions": [24, 1600, "a", 24000], "trial": 6, "serialpos": 20, "trial_type": "single-audio", "trial_index": 245, "time_elapsed": 1147709, "internal_node_id": "0.0-182.0"}}, {"uniqueid": "MTK0404:3BWI6RSP7HGHP50Q24JSWZWW289E7V", "current_trial": 246, "dateTime": 1510858226445, "trialdata": {"rt": -1000, "stimulus": "/static/audio/wordpool/DRAGON.wav", "key_press": -1, "type": "PRES_AUD", "word": "dragon", "wordID": 491, "conditions": [24, 1600, "a", 24000], "trial": 6, "serialpos": 21, "trial_type": "single-audio", "trial_index": 246, "time_elapsed": 1150221, "internal_node_id": "0.0-183.0"}}, {"uniqueid": "MTK0404:3BWI6RSP7HGHP50Q24JSWZWW289E7V", "current_trial": 247, "dateTime": 1510858229078, "trialdata": {"rt": -1000, "stimulus": "/static/audio/wordpool/FOREST.wav", "key_press": -1, "type": "PRES_AUD", "word": "forest", "wordID": 592, "conditions": [24, 1600, "a", 24000], "trial": 6, "serialpos": 22, "trial_type": "single-audio", "trial_index": 247, "time_elapsed": 1152854, "internal_node_id": "0.0-184.0"}}, {"uniqueid": "MTK0404:3BWI6RSP7HGHP50Q24JSWZWW289E7V", "current_trial": 248, "dateTime": 1510858231509, "trialdata": {"rt": -1000, "stimulus": "/static/audio/wordpool/PIANO.wav", "key_press": -1, "type": "PRES_AUD", "word": "piano", "wordID": 1056, "conditions": [24, 1600, "a", 24000], "trial": 6, "serialpos": 23, "trial_type": "single-audio", "trial_index": 248, "time_elapsed": 1155285, "internal_node_id": "0.0-185.0"}}, {"uniqueid": "MTK0404:3BWI6RSP7HGHP50Q24JSWZWW289E7V", "current_trial": 249, "dateTime": 1510858232871, "trialdata": {"rt": -1, "stimulus": "", "key_press": -1, "type": "PRE_RECALL_DELAY", "trial_type": "single-stim", "trial_index": 249, "time_elapsed": 1156647, "internal_node_id": "0.0-186.0-0.0"}}, {"uniqueid": "MTK0404:3BWI6RSP7HGHP50Q24JSWZWW289E7V", "current_trial": 250, "dateTime": 1510858233374, "trialdata": {"rt": -1000, "stimulus": "/static/audio/400Hz.wav", "key_press": -1, "type": "PRE_RECALL_ALERT", "trial_type": "single-audio", "trial_index": 250, "time_elapsed": 1157148, "internal_node_id": "0.0-187.0"}}, {"uniqueid": "MTK0404:3BWI6RSP7HGHP50Q24JSWZWW289E7V", "current_trial": 251, "dateTime": 1510858293382, "trialdata": {"rt": [2317, 4186, 5724, 7898, 9914, 10883, 14644, 17137], "recwords": ["piano", "forest", "canyon", "balloon", "tourist", "agent", "bathtub", "dragon"], "type": "FREE_RECALL", "conditions": [24, 1600, "a", 24000], "trial": 6, "trial_type": "free-recall", "trial_index": 251, "time_elapsed": 1217153, "internal_node_id": "0.0-188.0-0.0"}}, {"uniqueid": "MTK0404:3BWI6RSP7HGHP50Q24JSWZWW289E7V", "current_trial": 252, "dateTime": 1510858300276, "trialdata": {"rt": 4892, "key_press": 72, "type": "INSTRUCTIONS", "trial_type": "text", "trial_index": 252, "time_elapsed": 1224052, "internal_node_id": "0.0-189.0"}}, {"uniqueid": "MTK0404:3BWI6RSP7HGHP50Q24JSWZWW289E7V", "current_trial": 253, "dateTime": 1510858326278, "trialdata": {"rt": [6536, 8826, 10848, 13342, 16216, 19050, 21565], "responses": ["21", "20", "12", "24", "10", "26", "16"], "num1": [9, 6, 3, 8, 2, 8, 6, 9], "num2": [7, 7, 3, 7, 6, 9, 4, 7], "num3": [6, 7, 6, 8, 2, 9, 6, 2], "type": "DISTRACTOR", "conditions": [12, 800, "a", 24000], "trial": 7, "trial_type": "math-distractor", "trial_index": 253, "time_elapsed": 1250054, "internal_node_id": "0.0-190.0"}}, {"uniqueid": "MTK0404:3BWI6RSP7HGHP50Q24JSWZWW289E7V", "current_trial": 254, "dateTime": 1510858329278, "trialdata": {"rt": -1, "stimulus": "<p id=\"stim\">10</p>", "key_press": -1, "trial_type": "single-stim", "trial_index": 254, "time_elapsed": 1253054, "internal_node_id": "0.0-191.0-0.0"}}, {"uniqueid": "MTK0404:3BWI6RSP7HGHP50Q24JSWZWW289E7V", "current_trial": 255, "dateTime": 1510858330279, "trialdata": {"rt": -1, "stimulus": "<p id=\"stim\">9</p>", "key_press": -1, "trial_type": "single-stim", "trial_index": 255, "time_elapsed": 1254055, "internal_node_id": "0.0-191.0-1.0"}}, {"uniqueid": "MTK0404:3BWI6RSP7HGHP50Q24JSWZWW289E7V", "current_trial": 256, "dateTime": 1510858331280, "trialdata": {"rt": -1, "stimulus": "<p id=\"stim\">8</p>", "key_press": -1, "trial_type": "single-stim", "trial_index": 256, "time_elapsed": 1255056, "internal_node_id": "0.0-191.0-2.0"}}, {"uniqueid": "MTK0404:3BWI6RSP7HGHP50Q24JSWZWW289E7V", "current_trial": 257, "dateTime": 1510858332281, "trialdata": {"rt": -1, "stimulus": "<p id=\"stim\">7</p>", "key_press": -1, "trial_type": "single-stim", "trial_index": 257, "time_elapsed": 1256057, "internal_node_id": "0.0-191.0-3.0"}}, {"uniqueid": "MTK0404:3BWI6RSP7HGHP50Q24JSWZWW289E7V", "current_trial": 258, "dateTime": 1510858333282, "trialdata": {"rt": -1, "stimulus": "<p id=\"stim\">6</p>", "key_press": -1, "trial_type": "single-stim", "trial_index": 258, "time_elapsed": 1257058, "internal_node_id": "0.0-191.0-4.0"}}, {"uniqueid": "MTK0404:3BWI6RSP7HGHP50Q24JSWZWW289E7V", "current_trial": 259, "dateTime": 1510858334283, "trialdata": {"rt": -1, "stimulus": "<p id=\"stim\">5</p>", "key_press": -1, "trial_type": "single-stim", "trial_index": 259, "time_elapsed": 1258059, "internal_node_id": "0.0-191.0-5.0"}}, {"uniqueid": "MTK0404:3BWI6RSP7HGHP50Q24JSWZWW289E7V", "current_trial": 260, "dateTime": 1510858335284, "trialdata": {"rt": -1, "stimulus": "<p id=\"stim\">4</p>", "key_press": -1, "trial_type": "single-stim", "trial_index": 260, "time_elapsed": 1259060, "internal_node_id": "0.0-191.0-6.0"}}, {"uniqueid": "MTK0404:3BWI6RSP7HGHP50Q24JSWZWW289E7V", "current_trial": 261, "dateTime": 1510858336285, "trialdata": {"rt": -1, "stimulus": "<p id=\"stim\">3</p>", "key_press": -1, "trial_type": "single-stim", "trial_index": 261, "time_elapsed": 1260061, "internal_node_id": "0.0-191.0-7.0"}}, {"uniqueid": "MTK0404:3BWI6RSP7HGHP50Q24JSWZWW289E7V", "current_trial": 262, "dateTime": 1510858337287, "trialdata": {"rt": -1, "stimulus": "<p id=\"stim\">2</p>", "key_press": -1, "trial_type": "single-stim", "trial_index": 262, "time_elapsed": 1261062, "internal_node_id": "0.0-191.0-8.0"}}, {"uniqueid": "MTK0404:3BWI6RSP7HGHP50Q24JSWZWW289E7V", "current_trial": 263, "dateTime": 1510858338287, "trialdata": {"rt": -1, "stimulus": "<p id=\"stim\">1</p>", "key_press": -1, "trial_type": "single-stim", "trial_index": 263, "time_elapsed": 1262063, "internal_node_id": "0.0-191.0-9.0"}}, {"uniqueid": "MTK0404:3BWI6RSP7HGHP50Q24JSWZWW289E7V", "current_trial": 264, "dateTime": 1510858339788, "trialdata": {"rt": -1, "stimulus": "<p id=\"stim\">+</p>", "key_press": -1, "type": "FIXATION", "trial_type": "single-stim", "trial_index": 264, "time_elapsed": 1263564, "internal_node_id": "0.0-192.0-0.0"}}, {"uniqueid": "MTK0404:3BWI6RSP7HGHP50Q24JSWZWW289E7V", "current_trial": 265, "dateTime": 1510858341759, "trialdata": {"rt": -1000, "stimulus": "/static/audio/wordpool/PARROT.wav", "key_press": -1, "type": "PRES_AUD", "word": "parrot", "wordID": 1014, "conditions": [12, 800, "a", 24000], "trial": 7, "serialpos": 0, "trial_type": "single-audio", "trial_index": 265, "time_elapsed": 1265535, "internal_node_id": "0.0-193.0"}}, {"uniqueid": "MTK0404:3BWI6RSP7HGHP50Q24JSWZWW289E7V", "current_trial": 266, "dateTime": 1510858343418, "trialdata": {"rt": -1000, "stimulus": "/static/audio/wordpool/DUST.wav", "key_press": -1, "type": "PRES_AUD", "word": "dust", "wordID": 507, "conditions": [12, 800, "a", 24000], "trial": 7, "serialpos": 1, "trial_type": "single-audio", "trial_index": 266, "time_elapsed": 1267194, "internal_node_id": "0.0-194.0"}}, {"uniqueid": "MTK0404:3BWI6RSP7HGHP50Q24JSWZWW289E7V", "current_trial": 267, "dateTime": 1510858345258, "trialdata": {"rt": -1000, "stimulus": "/static/audio/wordpool/CRAYON.wav", "key_press": -1, "type": "PRES_AUD", "word": "crayon", "wordID": 400, "conditions": [12, 800, "a", 24000], "trial": 7, "serialpos": 2, "trial_type": "single-audio", "trial_index": 267, "time_elapsed": 1269034, "internal_node_id": "0.0-195.0"}}, {"uniqueid": "MTK0404:3BWI6RSP7HGHP50Q24JSWZWW289E7V", "current_trial": 268, "dateTime": 1510858347180, "trialdata": {"rt": -1000, "stimulus": "/static/audio/wordpool/HERO.wav", "key_press": -1, "type": "PRES_AUD", "word": "hero", "wordID": 705, "conditions": [12, 800, "a", 24000], "trial": 7, "serialpos": 3, "trial_type": "single-audio", "trial_index": 268, "time_elapsed": 1270956, "internal_node_id": "0.0-196.0"}}, {"uniqueid": "MTK0404:3BWI6RSP7HGHP50Q24JSWZWW289E7V", "current_trial": 269, "dateTime": 1510858348861, "trialdata": {"rt": -1000, "stimulus": "/static/audio/wordpool/FRIEND.wav", "key_press": -1, "type": "PRES_AUD", "word": "friend", "wordID": 605, "conditions": [12, 800, "a", 24000], "trial": 7, "serialpos": 4, "trial_type": "single-audio", "trial_index": 269, "time_elapsed": 1272637, "internal_node_id": "0.0-197.0"}}, {"uniqueid": "MTK0404:3BWI6RSP7HGHP50Q24JSWZWW289E7V", "current_trial": 270, "dateTime": 1510858350486, "trialdata": {"rt": -1000, "stimulus": "/static/audio/wordpool/LOVER.wav", "key_press": -