{"condition": 0, "counterbalance": 68, "assignmentId": "3DY4FPOOA2V89Z6R68681KBI3AJVRK", "workerId": "MTK0388", "hitId": "31J7RYECZLXFX5XM48KLJ0ZJUQB1LY", "currenttrial": 626, "bonus": 0, "data": [{"uniqueid": "MTK0388:3DY4FPOOA2V89Z6R68681KBI3AJVRK", "current_trial": 0, "dateTime": 1510781557964, "trialdata": {"rt": 133764, "key_press": 32, "type": "INSTRUCTIONS", "trial_type": "text", "trial_index": 0, "time_elapsed": 133766, "internal_node_id": "0.0-0.0"}}, {"uniqueid": "MTK0388:3DY4FPOOA2V89Z6R68681KBI3AJVRK", "current_trial": 1, "dateTime": 1510781564687, "trialdata": {"rt": 6722, "key_press": 175, "type": "INSTRUCTIONS", "trial_type": "text", "trial_index": 1, "time_elapsed": 140490, "internal_node_id": "0.0-1.0"}}, {"uniqueid": "MTK0388:3DY4FPOOA2V89Z6R68681KBI3AJVRK", "current_trial": 2, "dateTime": 1510781577729, "trialdata": {"rt": [13031], "responses": ["ocean"], "type": "AUDIO_TEST", "trial_type": "audio-test", "trial_index": 2, "time_elapsed": 153532, "internal_node_id": "0.0-2.0"}}, {"uniqueid": "MTK0388:3DY4FPOOA2V89Z6R68681KBI3AJVRK", "current_trial": 3, "dateTime": 1510781583370, "trialdata": {"rt": [5638], "responses": ["crystal"], "type": "AUDIO_TEST", "trial_type": "audio-test", "trial_index": 3, "time_elapsed": 159173, "internal_node_id": "0.0-3.0"}}, {"uniqueid": "MTK0388:3DY4FPOOA2V89Z6R68681KBI3AJVRK", "current_trial": 4, "dateTime": 1510781589462, "trialdata": {"rt": [6088], "responses": ["spice"], "type": "AUDIO_TEST", "trial_type": "audio-test", "trial_index": 4, "time_elapsed": 165265, "internal_node_id": "0.0-4.0"}}, {"uniqueid": "MTK0388:3DY4FPOOA2V89Z6R68681KBI3AJVRK", "current_trial": 5, "dateTime": 1510781611751, "trialdata": {"rt": 21536, "responses": "{\"Q0\":\"10:30pm\",\"Q1\":\"5:00am\",\"Q2\":\"5\"}", "type": "SLEEP_SURVEY", "trial_type": "survey-text", "trial_index": 5, "time_elapsed": 187554, "internal_node_id": "0.0-5.0"}}, {"uniqueid": "MTK0388:3DY4FPOOA2V89Z6R68681KBI3AJVRK", "current_trial": 6, "dateTime": 1510781657891, "trialdata": {"rt": 45138, "key_press": 32, "type": "INSTRUCTIONS", "trial_type": "text", "trial_index": 6, "time_elapsed": 233694, "internal_node_id": "0.0-6.0"}}, {"uniqueid": "MTK0388:3DY4FPOOA2V89Z6R68681KBI3AJVRK", "current_trial": 7, "dateTime": 1510781667447, "trialdata": {"rt": 9055, "key_press": 32, "type": "INSTRUCTIONS", "trial_type": "text", "trial_index": 7, "time_elapsed": 243250, "internal_node_id": "0.0-7.0"}}, {"uniqueid": "MTK0388:3DY4FPOOA2V89Z6R68681KBI3AJVRK", "current_trial": 8, "dateTime": 1510781673943, "trialdata": {"rt": 5994, "key_press": 32, "type": "INSTRUCTIONS", "trial_type": "text", "trial_index": 8, "time_elapsed": 249746, "internal_node_id": "0.0-8.0"}}, {"uniqueid": "MTK0388:3DY4FPOOA2V89Z6R68681KBI3AJVRK", "current_trial": 9, "dateTime": 1510781692947, "trialdata": {"rt": [2846, 5312, 7091, 8697, 11317, 14388], "responses": ["11", "16", "9", "12", "12", "20"], "num1": [3, 3, 6, 7, 4, 6, 8], "num2": [2, 7, 1, 3, 5, 5, 9], "num3": [6, 6, 2, 2, 3, 9, 8], "type": "DISTRACTOR", "conditions": [18, 1200, "a", 18000], "trial": 0, "trial_type": "math-distractor", "trial_index": 9, "time_elapsed": 268750, "internal_node_id": "0.0-9.0"}}, {"uniqueid": "MTK0388:3DY4FPOOA2V89Z6R68681KBI3AJVRK", "current_trial": 10, "dateTime": 1510781695949, "trialdata": {"rt": -1, "stimulus": "<p id=\"stim\">10</p>", "key_press": -1, "trial_type": "single-stim", "trial_index": 10, "time_elapsed": 271752, "internal_node_id": "0.0-10.0-0.0"}}, {"uniqueid": "MTK0388:3DY4FPOOA2V89Z6R68681KBI3AJVRK", "current_trial": 11, "dateTime": 1510781696950, "trialdata": {"rt": -1, "stimulus": "<p id=\"stim\">9</p>", "key_press": -1, "trial_type": "single-stim", "trial_index": 11, "time_elapsed": 272753, "internal_node_id": "0.0-10.0-1.0"}}, {"uniqueid": "MTK0388:3DY4FPOOA2V89Z6R68681KBI3AJVRK", "current_trial": 12, "dateTime": 1510781697951, "trialdata": {"rt": -1, "stimulus": "<p id=\"stim\">8</p>", "key_press": -1, "trial_type": "single-stim", "trial_index": 12, "time_elapsed": 273754, "internal_node_id": "0.0-10.0-2.0"}}, {"uniqueid": "MTK0388:3DY4FPOOA2V89Z6R68681KBI3AJVRK", "current_trial": 13, "dateTime": 1510781698952, "trialdata": {"rt": -1, "stimulus": "<p id=\"stim\">7</p>", "key_press": -1, "trial_type": "single-stim", "trial_index": 13, "time_elapsed": 274755, "internal_node_id": "0.0-10.0-3.0"}}, {"uniqueid": "MTK0388:3DY4FPOOA2V89Z6R68681KBI3AJVRK", "current_trial": 14, "dateTime": 1510781699953, "trialdata": {"rt": -1, "stimulus": "<p id=\"stim\">6</p>", "key_press": -1, "trial_type": "single-stim", "trial_index": 14, "time_elapsed": 275756, "internal_node_id": "0.0-10.0-4.0"}}, {"uniqueid": "MTK0388:3DY4FPOOA2V89Z6R68681KBI3AJVRK", "current_trial": 15, "dateTime": 1510781700954, "trialdata": {"rt": -1, "stimulus": "<p id=\"stim\">5</p>", "key_press": -1, "trial_type": "single-stim", "trial_index": 15, "time_elapsed": 276757, "internal_node_id": "0.0-10.0-5.0"}}, {"uniqueid": "MTK0388:3DY4FPOOA2V89Z6R68681KBI3AJVRK", "current_trial": 16, "dateTime": 1510781701955, "trialdata": {"rt": -1, "stimulus": "<p id=\"stim\">4</p>", "key_press": -1, "trial_type": "single-stim", "trial_index": 16, "time_elapsed": 277758, "internal_node_id": "0.0-10.0-6.0"}}, {"uniqueid": "MTK0388:3DY4FPOOA2V89Z6R68681KBI3AJVRK", "current_trial": 17, "dateTime": 1510781702957, "trialdata": {"rt": -1, "stimulus": "<p id=\"stim\">3</p>", "key_press": -1, "trial_type": "single-stim", "trial_index": 17, "time_elapsed": 278760, "internal_node_id": "0.0-10.0-7.0"}}, {"uniqueid": "MTK0388:3DY4FPOOA2V89Z6R68681KBI3AJVRK", "current_trial": 18, "dateTime": 1510781703959, "trialdata": {"rt": -1, "stimulus": "<p id=\"stim\">2</p>", "key_press": -1, "trial_type": "single-stim", "trial_index": 18, "time_elapsed": 279761, "internal_node_id": "0.0-10.0-8.0"}}, {"uniqueid": "MTK0388:3DY4FPOOA2V89Z6R68681KBI3AJVRK", "current_trial": 19, "dateTime": 1510781704960, "trialdata": {"rt": -1, "stimulus": "<p id=\"stim\">1</p>", "key_press": -1, "trial_type": "single-stim", "trial_index": 19, "time_elapsed": 280763, "internal_node_id": "0.0-10.0-9.0"}}, {"uniqueid": "MTK0388:3DY4FPOOA2V89Z6R68681KBI3AJVRK", "current_trial": 20, "dateTime": 1510781706464, "trialdata": {"rt": -1, "stimulus": "<p id=\"stim\">+</p>", "key_press": -1, "type": "FIXATION", "trial_type": "single-stim", "trial_index": 20, "time_elapsed": 282267, "internal_node_id": "0.0-11.0-0.0"}}, {"uniqueid": "MTK0388:3DY4FPOOA2V89Z6R68681KBI3AJVRK", "current_trial": 21, "dateTime": 1510781708716, "trialdata": {"rt": -1000, "stimulus": "/static/audio/wordpool/SERVANT.wav", "key_press": -1, "type": "PRES_AUD", "word": "servant", "wordID": 1270, "conditions": [18, 1200, "a", 18000], "trial": 0, "serialpos": 0, "trial_type": "single-audio", "trial_index": 21, "time_elapsed": 284519, "internal_node_id": "0.0-12.0"}}, {"uniqueid": "MTK0388:3DY4FPOOA2V89Z6R68681KBI3AJVRK", "current_trial": 22, "dateTime": 1510781710881, "trialdata": {"rt": -1000, "stimulus": "/static/audio/wordpool/DIME.wav", "key_press": -1, "type": "PRES_AUD", "word": "dime", "wordID": 465, "conditions": [18, 1200, "a", 18000], "trial": 0, "serialpos": 1, "trial_type": "single-audio", "trial_index": 22, "time_elapsed": 286684, "internal_node_id": "0.0-13.0"}}, {"uniqueid": "MTK0388:3DY4FPOOA2V89Z6R68681KBI3AJVRK", "current_trial": 23, "dateTime": 1510781712948, "trialdata": {"rt": -1000, "stimulus": "/static/audio/wordpool/ZIPPER.wav", "key_press": -1, "type": "PRES_AUD", "word": "zipper", "wordID": 1635, "conditions": [18, 1200, "a", 18000], "trial": 0, "serialpos": 2, "trial_type": "single-audio", "trial_index": 23, "time_elapsed": 288751, "internal_node_id": "0.0-14.0"}}, {"uniqueid": "MTK0388:3DY4FPOOA2V89Z6R68681KBI3AJVRK", "current_trial": 24, "dateTime": 1510781714994, "trialdata": {"rt": -1000, "stimulus": "/static/audio/wordpool/FINGER.wav", "key_press": -1, "type": "PRES_AUD", "word": "finger", "wordID": 566, "conditions": [18, 1200, "a", 18000], "trial": 0, "serialpos": 3, "trial_type": "single-audio", "trial_index": 24, "time_elapsed": 290797, "internal_node_id": "0.0-15.0"}}, {"uniqueid": "MTK0388:3DY4FPOOA2V89Z6R68681KBI3AJVRK", "current_trial": 25, "dateTime": 1510781717236, "trialdata": {"rt": -1000, "stimulus": "/static/audio/wordpool/ISLAND.wav", "key_press": -1, "type": "PRES_AUD", "word": "island", "wordID": 744, "conditions": [18, 1200, "a", 18000], "trial": 0, "serialpos": 4, "trial_type": "single-audio", "trial_index": 25, "time_elapsed": 293039, "internal_node_id": "0.0-16.0"}}, {"uniqueid": "MTK0388:3DY4FPOOA2V89Z6R68681KBI3AJVRK", "current_trial": 26, "dateTime": 1510781719583, "trialdata": {"rt": -1000, "stimulus": "/static/audio/wordpool/FREEZER.wav", "key_press": -1, "type": "PRES_AUD", "word": "freezer", "wordID": 603, "conditions": [18, 1200, "a", 18000], "trial": 0, "serialpos": 5, "trial_type": "single-audio", "trial_index": 26, "time_elapsed": 295386, "internal_node_id": "0.0-17.0"}}, {"uniqueid": "MTK0388:3DY4FPOOA2V89Z6R68681KBI3AJVRK", "current_trial": 27, "dateTime": 1510781721878, "trialdata": {"rt": -1000, "stimulus": "/static/audio/wordpool/ITEM.wav", "key_press": -1, "type": "PRES_AUD", "word": "item", "wordID": 745, "conditions": [18, 1200, "a", 18000], "trial": 0, "serialpos": 6, "trial_type": "single-audio", "trial_index": 27, "time_elapsed": 297681, "internal_node_id": "0.0-18.0"}}, {"uniqueid": "MTK0388:3DY4FPOOA2V89Z6R68681KBI3AJVRK", "current_trial": 28, "dateTime": 1510781724186, "trialdata": {"rt": -1000, "stimulus": "/static/audio/wordpool/BLACKBOARD.wav", "key_press": -1, "type": "PRES_AUD", "word": "blackboard", "wordID": 132, "conditions": [18, 1200, "a", 18000], "trial": 0, "serialpos": 7, "trial_type": "single-audio", "trial_index": 28, "time_elapsed": 299989, "internal_node_id": "0.0-19.0"}}, {"uniqueid": "MTK0388:3DY4FPOOA2V89Z6R68681KBI3AJVRK", "current_trial": 29, "dateTime": 1510781726337, "trialdata": {"rt": -1000, "stimulus": "/static/audio/wordpool/HAMPER.wav", "key_press": -1, "type": "PRES_AUD", "word": "hamper", "wordID": 681, "conditions": [18, 1200, "a", 18000], "trial": 0, "serialpos": 8, "trial_type": "single-audio", "trial_index": 29, "time_elapsed": 302140, "internal_node_id": "0.0-20.0"}}, {"uniqueid": "MTK0388:3DY4FPOOA2V89Z6R68681KBI3AJVRK", "current_trial": 30, "dateTime": 1510781728525, "trialdata": {"rt": -1000, "stimulus": "/static/audio/wordpool/BALLOON.wav", "key_press": -1, "type": "PRES_AUD", "word": "balloon", "wordID": 74, "conditions": [18, 1200, "a", 18000], "trial": 0, "serialpos": 9, "trial_type": "single-audio", "trial_index": 30, "time_elapsed": 304328, "internal_node_id": "0.0-21.0"}}, {"uniqueid": "MTK0388:3DY4FPOOA2V89Z6R68681KBI3AJVRK", "current_trial": 31, "dateTime": 1510781730631, "trialdata": {"rt": -1000, "stimulus": "/static/audio/wordpool/POISON.wav", "key_press": -1, "type": "PRES_AUD", "word": "poison", "wordID": 1095, "conditions": [18, 1200, "a", 18000], "trial": 0, "serialpos": 10, "trial_type": "single-audio", "trial_index": 31, "time_elapsed": 306434, "internal_node_id": "0.0-22.0"}}, {"uniqueid": "MTK0388:3DY4FPOOA2V89Z6R68681KBI3AJVRK", "current_trial": 32, "dateTime": 1510781733023, "trialdata": {"rt": -1000, "stimulus": "/static/audio/wordpool/GARLIC.wav", "key_press": -1, "type": "PRES_AUD", "word": "garlic", "wordID": 623, "conditions": [18, 1200, "a", 18000], "trial": 0, "serialpos": 11, "trial_type": "single-audio", "trial_index": 32, "time_elapsed": 308826, "internal_node_id": "0.0-23.0"}}, {"uniqueid": "MTK0388:3DY4FPOOA2V89Z6R68681KBI3AJVRK", "current_trial": 33, "dateTime": 1510781735233, "trialdata": {"rt": -1000, "stimulus": "/static/audio/wordpool/BEAVER.wav", "key_press": -1, "type": "PRES_AUD", "word": "beaver", "wordID": 108, "conditions": [18, 1200, "a", 18000], "trial": 0, "serialpos": 12, "trial_type": "single-audio", "trial_index": 33, "time_elapsed": 311036, "internal_node_id": "0.0-24.0"}}, {"uniqueid": "MTK0388:3DY4FPOOA2V89Z6R68681KBI3AJVRK", "current_trial": 34, "dateTime": 1510781737465, "trialdata": {"rt": -1000, "stimulus": "/static/audio/wordpool/PANTHER.wav", "key_press": -1, "type": "PRES_AUD", "word": "panther", "wordID": 1008, "conditions": [18, 1200, "a", 18000], "trial": 0, "serialpos": 13, "trial_type": "single-audio", "trial_index": 34, "time_elapsed": 313268, "internal_node_id": "0.0-25.0"}}, {"uniqueid": "MTK0388:3DY4FPOOA2V89Z6R68681KBI3AJVRK", "current_trial": 35, "dateTime": 1510781739796, "trialdata": {"rt": -1000, "stimulus": "/static/audio/wordpool/OX.wav", "key_press": -1, "type": "PRES_AUD", "word": "ox", "wordID": 993, "conditions": [18, 1200, "a", 18000], "trial": 0, "serialpos": 14, "trial_type": "single-audio", "trial_index": 35, "time_elapsed": 315599, "internal_node_id": "0.0-26.0"}}, {"uniqueid": "MTK0388:3DY4FPOOA2V89Z6R68681KBI3AJVRK", "current_trial": 36, "dateTime": 1510781741984, "trialdata": {"rt": -1000, "stimulus": "/static/audio/wordpool/CROSS.wav", "key_press": -1, "type": "PRES_AUD", "word": "cross", "wordID": 412, "conditions": [18, 1200, "a", 18000], "trial": 0, "serialpos": 15, "trial_type": "single-audio", "trial_index": 36, "time_elapsed": 317787, "internal_node_id": "0.0-27.0"}}, {"uniqueid": "MTK0388:3DY4FPOOA2V89Z6R68681KBI3AJVRK", "current_trial": 37, "dateTime": 1510781744238, "trialdata": {"rt": -1000, "stimulus": "/static/audio/wordpool/KNIFE.wav", "key_press": -1, "type": "PRES_AUD", "word": "knife", "wordID": 784, "conditions": [18, 1200, "a", 18000], "trial": 0, "serialpos": 16, "trial_type": "single-audio", "trial_index": 37, "time_elapsed": 320041, "internal_node_id": "0.0-28.0"}}, {"uniqueid": "MTK0388:3DY4FPOOA2V89Z6R68681KBI3AJVRK", "current_trial": 38, "dateTime": 1510781746542, "trialdata": {"rt": -1000, "stimulus": "/static/audio/wordpool/BURGLAR.wav", "key_press": -1, "type": "PRES_AUD", "word": "burglar", "wordID": 199, "conditions": [18, 1200, "a", 18000], "trial": 0, "serialpos": 17, "trial_type": "single-audio", "trial_index": 38, "time_elapsed": 322345, "internal_node_id": "0.0-29.0"}}, {"uniqueid": "MTK0388:3DY4FPOOA2V89Z6R68681KBI3AJVRK", "current_trial": 39, "dateTime": 1510781747829, "trialdata": {"rt": -1, "stimulus": "", "key_press": -1, "type": "PRE_RECALL_DELAY", "trial_type": "single-stim", "trial_index": 39, "time_elapsed": 323632, "internal_node_id": "0.0-30.0-0.0"}}, {"uniqueid": "MTK0388:3DY4FPOOA2V89Z6R68681KBI3AJVRK", "current_trial": 40, "dateTime": 1510781748330, "trialdata": {"rt": -1000, "stimulus": "/static/audio/400Hz.wav", "key_press": -1, "type": "PRE_RECALL_ALERT", "trial_type": "single-audio", "trial_index": 40, "time_elapsed": 324133, "internal_node_id": "0.0-31.0"}}, {"uniqueid": "MTK0388:3DY4FPOOA2V89Z6R68681KBI3AJVRK", "current_trial": 41, "dateTime": 1510781808334, "trialdata": {"rt": [3222, 4456, 6884, 9790, 11015, 14413, 17845, 19136, 21158, 24101, 26983, 31228, 32341, 32769, 33085, 33279, 33488, 33718, 33966, 34220, 50987], "recwords": ["panther", "cross", "burglar", "knife", "zipper", "freezer", "servant", "hamper", "balloon", "poison", "", "", "", "", "", "", "", "", "", "", "garlic"], "type": "FREE_RECALL", "conditions": [18, 1200, "a", 18000], "trial": 0, "trial_type": "free-recall", "trial_index": 41, "time_elapsed": 384135, "internal_node_id": "0.0-32.0-0.0"}}, {"uniqueid": "MTK0388:3DY4FPOOA2V89Z6R68681KBI3AJVRK", "current_trial": 42, "dateTime": 1510781811511, "trialdata": {"rt": 1164, "key_press": 32, "type": "INSTRUCTIONS", "trial_type": "text", "trial_index": 42, "time_elapsed": 387314, "internal_node_id": "0.0-33.0"}}, {"uniqueid": "MTK0388:3DY4FPOOA2V89Z6R68681KBI3AJVRK", "current_trial": 43, "dateTime": 1510781831514, "trialdata": {"rt": [3047, 5839, 9220, 10656, 12505, 14383, 17550], "responses": ["17", "16", "13", "4", "10", "14", "20"], "num1": [6, 9, 4, 1, 5, 2, 6, 5], "num2": [6, 5, 7, 2, 1, 9, 6, 3], "num3": [5, 2, 2, 1, 4, 3, 8, 2], "type": "DISTRACTOR", "conditions": [18, 1200, "v", 18000], "trial": 1, "trial_type": "math-distractor", "trial_index": 43, "time_elapsed": 407317, "internal_node_id": "0.0-34.0"}}, {"uniqueid": "MTK0388:3DY4FPOOA2V89Z6R68681KBI3AJVRK", "current_trial": 44, "dateTime": 1510781834517, "trialdata": {"rt": -1, "stimulus": "<p id=\"stim\">10</p>", "key_press": -1, "trial_type": "single-stim", "trial_index": 44, "time_elapsed": 410320, "internal_node_id": "0.0-35.0-0.0"}}, {"uniqueid": "MTK0388:3DY4FPOOA2V89Z6R68681KBI3AJVRK", "current_trial": 45, "dateTime": 1510781835518, "trialdata": {"rt": -1, "stimulus": "<p id=\"stim\">9</p>", "key_press": -1, "trial_type": "single-stim", "trial_index": 45, "time_elapsed": 411321, "internal_node_id": "0.0-35.0-1.0"}}, {"uniqueid": "MTK0388:3DY4FPOOA2V89Z6R68681KBI3AJVRK", "current_trial": 46, "dateTime": 1510781836519, "trialdata": {"rt": -1, "stimulus": "<p id=\"stim\">8</p>", "key_press": -1, "trial_type": "single-stim", "trial_index": 46, "time_elapsed": 412322, "internal_node_id": "0.0-35.0-2.0"}}, {"uniqueid": "MTK0388:3DY4FPOOA2V89Z6R68681KBI3AJVRK", "current_trial": 47, "dateTime": 1510781837520, "trialdata": {"rt": -1, "stimulus": "<p id=\"stim\">7</p>", "key_press": -1, "trial_type": "single-stim", "trial_index": 47, "time_elapsed": 413323, "internal_node_id": "0.0-35.0-3.0"}}, {"uniqueid": "MTK0388:3DY4FPOOA2V89Z6R68681KBI3AJVRK", "current_trial": 48, "dateTime": 1510781838521, "trialdata": {"rt": -1, "stimulus": "<p id=\"stim\">6</p>", "key_press": -1, "trial_type": "single-stim", "trial_index": 48, "time_elapsed": 414324, "internal_node_id": "0.0-35.0-4.0"}}, {"uniqueid": "MTK0388:3DY4FPOOA2V89Z6R68681KBI3AJVRK", "current_trial": 49, "dateTime": 1510781839522, "trialdata": {"rt": -1, "stimulus": "<p id=\"stim\">5</p>", "key_press": -1, "trial_type": "single-stim", "trial_index": 49, "time_elapsed": 415325, "internal_node_id": "0.0-35.0-5.0"}}, {"uniqueid": "MTK0388:3DY4FPOOA2V89Z6R68681KBI3AJVRK", "current_trial": 50, "dateTime": 1510781840523, "trialdata": {"rt": -1, "stimulus": "<p id=\"stim\">4</p>", "key_press": -1, "trial_type": "single-stim", "trial_index": 50, "time_elapsed": 416326, "internal_node_id": "0.0-35.0-6.0"}}, {"uniqueid": "MTK0388:3DY4FPOOA2V89Z6R68681KBI3AJVRK", "current_trial": 51, "dateTime": 1510781841524, "trialdata": {"rt": -1, "stimulus": "<p id=\"stim\">3</p>", "key_press": -1, "trial_type": "single-stim", "trial_index": 51, "time_elapsed": 417327, "internal_node_id": "0.0-35.0-7.0"}}, {"uniqueid": "MTK0388:3DY4FPOOA2V89Z6R68681KBI3AJVRK", "current_trial": 52, "dateTime": 1510781842525, "trialdata": {"rt": -1, "stimulus": "<p id=\"stim\">2</p>", "key_press": -1, "trial_type": "single-stim", "trial_index": 52, "time_elapsed": 418328, "internal_node_id": "0.0-35.0-8.0"}}, {"uniqueid": "MTK0388:3DY4FPOOA2V89Z6R68681KBI3AJVRK", "current_trial": 53, "dateTime": 1510781843527, "trialdata": {"rt": -1, "stimulus": "<p id=\"stim\">1</p>", "key_press": -1, "trial_type": "single-stim", "trial_index": 53, "time_elapsed": 419330, "internal_node_id": "0.0-35.0-9.0"}}, {"uniqueid": "MTK0388:3DY4FPOOA2V89Z6R68681KBI3AJVRK", "current_trial": 54, "dateTime": 1510781845028, "trialdata": {"rt": -1, "stimulus": "<p id=\"stim\">+</p>", "key_press": -1, "type": "FIXATION", "trial_type": "single-stim", "trial_index": 54, "time_elapsed": 420831, "internal_node_id": "0.0-36.0-0.0"}}, {"uniqueid": "MTK0388:3DY4FPOOA2V89Z6R68681KBI3AJVRK", "current_trial": 55, "dateTime": 1510781846229, "trialdata": {"rt": -1, "stimulus": "<p id=\"stim\">DENIM</p>", "key_press": -1, "type": "PRES_VIS", "word": "denim", "wordID": 445, "conditions": [18, 1200, "v", 18000], "trial": 1, "serialpos": 0, "trial_type": "single-stim", "trial_index": 55, "time_elapsed": 422032, "internal_node_id": "0.0-37.0"}}, {"uniqueid": "MTK0388:3DY4FPOOA2V89Z6R68681KBI3AJVRK", "current_trial": 56, "dateTime": 1510781848380, "trialdata": {"rt": -1, "stimulus": "<p id=\"stim\">SPIDER</p>", "key_press": -1, "type": "PRES_VIS", "word": "spider", "wordID": 1350, "conditions": [18, 1200, "v", 18000], "trial": 1, "serialpos": 1, "trial_type": "single-stim", "trial_index": 56, "time_elapsed": 424183, "internal_node_id": "0.0-38.0"}}, {"uniqueid": "MTK0388:3DY4FPOOA2V89Z6R68681KBI3AJVRK", "current_trial": 57, "dateTime": 1510781850382, "trialdata": {"rt": -1, "stimulus": "<p id=\"stim\">TREAT</p>", "key_press": -1, "type": "PRES_VIS", "word": "treat", "wordID": 1500, "conditions": [18, 1200, "v", 18000], "trial": 1, "serialpos": 2, "trial_type": "single-stim", "trial_index": 57, "time_elapsed": 426185, "internal_node_id": "0.0-39.0"}}, {"uniqueid": "MTK0388:3DY4FPOOA2V89Z6R68681KBI3AJVRK", "current_trial": 58, "dateTime": 1510781852665, "trialdata": {"rt": -1, "stimulus": "<p id=\"stim\">MONEY</p>", "key_press": -1, "type": "PRES_VIS", "word": "money", "wordID": 907, "conditions": [18, 1200, "v", 18000], "trial": 1, "serialpos": 3, "trial_type": "single-stim", "trial_index": 58, "time_elapsed": 428468, "internal_node_id": "0.0-40.0"}}, {"uniqueid": "MTK0388:3DY4FPOOA2V89Z6R68681KBI3AJVRK", "current_trial": 59, "dateTime": 1510781854919, "trialdata": {"rt": -1, "stimulus": "<p id=\"stim\">ROBBER</p>", "key_press": -1, "type": "PRES_VIS", "word": "robber", "wordID": 1196, "conditions": [18, 1200, "v", 18000], "trial": 1, "serialpos": 4, "trial_type": "single-stim", "trial_index": 59, "time_elapsed": 430722, "internal_node_id": "0.0-41.0"}}, {"uniqueid": "MTK0388:3DY4FPOOA2V89Z6R68681KBI3AJVRK", "current_trial": 60, "dateTime": 1510781857200, "trialdata": {"rt": -1, "stimulus": "<p id=\"stim\">KLEENEX</p>", "key_press": -1, "type": "PRES_VIS", "word": "kleenex", "wordID": 781, "conditions": [18, 1200, "v", 18000], "trial": 1, "serialpos": 5, "trial_type": "single-stim", "trial_index": 60, "time_elapsed": 433003, "internal_node_id": "0.0-42.0"}}, {"uniqueid": "MTK0388:3DY4FPOOA2V89Z6R68681KBI3AJVRK", "current_trial": 61, "dateTime": 1510781859427, "trialdata": {"rt": -1, "stimulus": "<p id=\"stim\">MILDEW</p>", "key_press": -1, "type": "PRES_VIS", "word": "mildew", "wordID": 892, "conditions": [18, 1200, "v", 18000], "trial": 1, "serialpos": 6, "trial_type": "single-stim", "trial_index": 61, "time_elapsed": 435230, "internal_node_id": "0.0-43.0"}}, {"uniqueid": "MTK0388:3DY4FPOOA2V89Z6R68681KBI3AJVRK", "current_trial": 62, "dateTime": 1510781861787, "trialdata": {"rt": -1, "stimulus": "<p id=\"stim\">RUST</p>", "key_press": -1, "type": "PRES_VIS", "word": "rust", "wordID": 1218, "conditions": [18, 1200, "v", 18000], "trial": 1, "serialpos": 7, "trial_type": "single-stim", "trial_index": 62, "time_elapsed": 437590, "internal_node_id": "0.0-44.0"}}, {"uniqueid": "MTK0388:3DY4FPOOA2V89Z6R68681KBI3AJVRK", "current_trial": 63, "dateTime": 1510781863829, "trialdata": {"rt": -1, "stimulus": "<p id=\"stim\">TWISTER</p>", "key_press": -1, "type": "PRES_VIS", "word": "twister", "wordID": 1529, "conditions": [18, 1200, "v", 18000], "trial": 1, "serialpos": 8, "trial_type": "single-stim", "trial_index": 63, "time_elapsed": 439632, "internal_node_id": "0.0-45.0"}}, {"uniqueid": "MTK0388:3DY4FPOOA2V89Z6R68681KBI3AJVRK", "current_trial": 64, "dateTime": 1510781866104, "trialdata": {"rt": -1, "stimulus": "<p id=\"stim\">BISON</p>", "key_press": -1, "type": "PRES_VIS", "word": "bison", "wordID": 130, "conditions": [18, 1200, "v", 18000], "trial": 1, "serialpos": 9, "trial_type": "single-stim", "trial_index": 64, "time_elapsed": 441907, "internal_node_id": "0.0-46.0"}}, {"uniqueid": "MTK0388:3DY4FPOOA2V89Z6R68681KBI3AJVRK", "current_trial": 65, "dateTime": 1510781868442, "trialdata": {"rt": -1, "stimulus": "<p id=\"stim\">SEAL</p>", "key_press": -1, "type": "PRES_VIS", "word": "seal", "wordID": 1261, "conditions": [18, 1200, "v", 18000], "trial": 1, "serialpos": 10, "trial_type": "single-stim", "trial_index": 65, "time_elapsed": 444245, "internal_node_id": "0.0-47.0"}}, {"uniqueid": "MTK0388:3DY4FPOOA2V89Z6R68681KBI3AJVRK", "current_trial": 66, "dateTime": 1510781870751, "trialdata": {"rt": -1, "stimulus": "<p id=\"stim\">SODA</p>", "key_press": -1, "type": "PRES_VIS", "word": "soda", "wordID": 1340, "conditions": [18, 1200, "v", 18000], "trial": 1, "serialpos": 11, "trial_type": "single-stim", "trial_index": 66, "time_elapsed": 446554, "internal_node_id": "0.0-48.0"}}, {"uniqueid": "MTK0388:3DY4FPOOA2V89Z6R68681KBI3AJVRK", "current_trial": 67, "dateTime": 1510781872892, "trialdata": {"rt": -1, "stimulus": "<p id=\"stim\">BANJO</p>", "key_press": -1, "type": "PRES_VIS", "word": "banjo", "wordID": 81, "conditions": [18, 1200, "v", 18000], "trial": 1, "serialpos": 12, "trial_type": "single-stim", "trial_index": 67, "time_elapsed": 448695, "internal_node_id": "0.0-49.0"}}, {"uniqueid": "MTK0388:3DY4FPOOA2V89Z6R68681KBI3AJVRK", "current_trial": 68, "dateTime": 1510781874939, "trialdata": {"rt": -1, "stimulus": "<p id=\"stim\">PISTON</p>", "key_press": -1, "type": "PRES_VIS", "word": "piston", "wordID": 1075, "conditions": [18, 1200, "v", 18000], "trial": 1, "serialpos": 13, "trial_type": "single-stim", "trial_index": 68, "time_elapsed": 450741, "internal_node_id": "0.0-50.0"}}, {"uniqueid": "MTK0388:3DY4FPOOA2V89Z6R68681KBI3AJVRK", "current_trial": 69, "dateTime": 1510781877283, "trialdata": {"rt": -1, "stimulus": "<p id=\"stim\">ONION</p>", "key_press": -1, "type": "PRES_VIS", "word": "onion", "wordID": 976, "conditions": [18, 1200, "v", 18000], "trial": 1, "serialpos": 14, "trial_type": "single-stim", "trial_index": 69, "time_elapsed": 453086, "internal_node_id": "0.0-51.0"}}, {"uniqueid": "MTK0388:3DY4FPOOA2V89Z6R68681KBI3AJVRK", "current_trial": 70, "dateTime": 1510781879489, "trialdata": {"rt": -1, "stimulus": "<p id=\"stim\">LAVA</p>", "key_press": -1, "type": "PRES_VIS", "word": "lava", "wordID": 803, "conditions": [18, 1200, "v", 18000], "trial": 1, "serialpos": 15, "trial_type": "single-stim", "trial_index": 70, "time_elapsed": 455292, "internal_node_id": "0.0-52.0"}}, {"uniqueid": "MTK0388:3DY4FPOOA2V89Z6R68681KBI3AJVRK", "current_trial": 71, "dateTime": 1510781881618, "trialdata": {"rt": -1, "stimulus": "<p id=\"stim\">CANAL</p>", "key_press": -1, "type": "PRES_VIS", "word": "canal", "wordID": 225, "conditions": [18, 1200, "v", 18000], "trial": 1, "serialpos": 16, "trial_type": "single-stim", "trial_index": 71, "time_elapsed": 457421, "internal_node_id": "0.0-53.0"}}, {"uniqueid": "MTK0388:3DY4FPOOA2V89Z6R68681KBI3AJVRK", "current_trial": 72, "dateTime": 1510781883875, "trialdata": {"rt": -1, "stimulus": "<p id=\"stim\">FLUTE</p>", "key_press": -1, "type": "PRES_VIS", "word": "flute", "wordID": 584, "conditions": [18, 1200, "v", 18000], "trial": 1, "serialpos": 17, "trial_type": "single-stim", "trial_index": 72, "time_elapsed": 459678, "internal_node_id": "0.0-54.0"}}, {"uniqueid": "MTK0388:3DY4FPOOA2V89Z6R68681KBI3AJVRK", "current_trial": 73, "dateTime": 1510781886167, "trialdata": {"rt": -1, "stimulus": "", "key_press": -1, "type": "PRE_RECALL_DELAY", "trial_type": "single-stim", "trial_index": 73, "time_elapsed": 461970, "internal_node_id": "0.0-55.0-0.0"}}, {"uniqueid": "MTK0388:3DY4FPOOA2V89Z6R68681KBI3AJVRK", "current_trial": 74, "dateTime": 1510781886668, "trialdata": {"rt": -1000, "stimulus": "/static/audio/400Hz.wav", "key_press": -1, "type": "PRE_RECALL_ALERT", "trial_type": "single-audio", "trial_index": 74, "time_elapsed": 462471, "internal_node_id": "0.0-56.0"}}, {"uniqueid": "MTK0388:3DY4FPOOA2V89Z6R68681KBI3AJVRK", "current_trial": 75, "dateTime": 1510781946673, "trialdata": {"rt": [1935, 3427, 4991, 7750, 10200, 12231, 13371, 15963, 19081, 21148], "recwords": ["onion", "lava", "canal", "flute", "banjo", "denim", "treat", "spider", "kleenex", "bison"], "type": "FREE_RECALL", "conditions": [18, 1200, "v", 18000], "trial": 1, "trial_type": "free-recall", "trial_index": 75, "time_elapsed": 522473, "internal_node_id": "0.0-57.0-0.0"}}, {"uniqueid": "MTK0388:3DY4FPOOA2V89Z6R68681KBI3AJVRK", "current_trial": 76, "dateTime": 1510781950282, "trialdata": {"rt": 1602, "key_press": 32, "type": "INSTRUCTIONS", "trial_type": "text", "trial_index": 76, "time_elapsed": 526080, "internal_node_id": "0.0-58.0"}}, {"uniqueid": "MTK0388:3DY4FPOOA2V89Z6R68681KBI3AJVRK", "current_trial": 77, "dateTime": 1510781963284, "trialdata": {"rt": [2027, 4547, 6456, 8185, 10082], "responses": ["14", "20", "13", "16", "17"], "num1": [9, 9, 5, 5, 2, 8], "num2": [1, 4, 3, 5, 8, 1], "num3": [4, 7, 5, 6, 7, 7], "type": "DISTRACTOR", "conditions": [24, 800, "a", 12000], "trial": 2, "trial_type": "math-distractor", "trial_index": 77, "time_elapsed": 539087, "internal_node_id": "0.0-59.0"}}, {"uniqueid": "MTK0388:3DY4FPOOA2V89Z6R68681KBI3AJVRK", "current_trial": 78, "dateTime": 1510781966287, "trialdata": {"rt": -1, "stimulus": "<p id=\"stim\">10</p>", "key_press": -1, "trial_type": "single-stim", "trial_index": 78, "time_elapsed": 542090, "internal_node_id": "0.0-60.0-0.0"}}, {"uniqueid": "MTK0388:3DY4FPOOA2V89Z6R68681KBI3AJVRK", "current_trial": 79, "dateTime": 1510781967288, "trialdata": {"rt": -1, "stimulus": "<p id=\"stim\">9</p>", "key_press": -1, "trial_type": "single-stim", "trial_index": 79, "time_elapsed": 543091, "internal_node_id": "0.0-60.0-1.0"}}, {"uniqueid": "MTK0388:3DY4FPOOA2V89Z6R68681KBI3AJVRK", "current_trial": 80, "dateTime": 1510781968289, "trialdata": {"rt": -1, "stimulus": "<p id=\"stim\">8</p>", "key_press": -1, "trial_type": "single-stim", "trial_index": 80, "time_elapsed": 544092, "internal_node_id": "0.0-60.0-2.0"}}, {"uniqueid": "MTK0388:3DY4FPOOA2V89Z6R68681KBI3AJVRK", "current_trial": 81, "dateTime": 1510781969290, "trialdata": {"rt": -1, "stimulus": "<p id=\"stim\">7</p>", "key_press": -1, "trial_type": "single-stim", "trial_index": 81, "time_elapsed": 545093, "internal_node_id": "0.0-60.0-3.0"}}, {"uniqueid": "MTK0388:3DY4FPOOA2V89Z6R68681KBI3AJVRK", "current_trial": 82, "dateTime": 1510781970291, "trialdata": {"rt": -1, "stimulus": "<p id=\"stim\">6</p>", "key_press": -1, "trial_type": "single-stim", "trial_index": 82, "time_elapsed": 546094, "internal_node_id": "0.0-60.0-4.0"}}, {"uniqueid": "MTK0388:3DY4FPOOA2V89Z6R68681KBI3AJVRK", "current_trial": 83, "dateTime": 1510781971292, "trialdata": {"rt": -1, "stimulus": "<p id=\"stim\">5</p>", "key_press": -1, "trial_type": "single-stim", "trial_index": 83, "time_elapsed": 547095, "internal_node_id": "0.0-60.0-5.0"}}, {"uniqueid": "MTK0388:3DY4FPOOA2V89Z6R68681KBI3AJVRK", "current_trial": 84, "dateTime": 1510781972293, "trialdata": {"rt": -1, "stimulus": "<p id=\"stim\">4</p>", "key_press": -1, "trial_type": "single-stim", "trial_index": 84, "time_elapsed": 548096, "internal_node_id": "0.0-60.0-6.0"}}, {"uniqueid": "MTK0388:3DY4FPOOA2V89Z6R68681KBI3AJVRK", "current_trial": 85, "dateTime": 1510781973294, "trialdata": {"rt": -1, "stimulus": "<p id=\"stim\">3</p>", "key_press": -1, "trial_type": "single-stim", "trial_index": 85, "time_elapsed": 549097, "internal_node_id": "0.0-60.0-7.0"}}, {"uniqueid": "MTK0388:3DY4FPOOA2V89Z6R68681KBI3AJVRK", "current_trial": 86, "dateTime": 1510781974295, "trialdata": {"rt": -1, "stimulus": "<p id=\"stim\">2</p>", "key_press": -1, "trial_type": "single-stim", "trial_index": 86, "time_elapsed": 550098, "internal_node_id": "0.0-60.0-8.0"}}, {"uniqueid": "MTK0388:3DY4FPOOA2V89Z6R68681KBI3AJVRK", "current_trial": 87, "dateTime": 1510781975296, "trialdata": {"rt": -1, "stimulus": "<p id=\"stim\">1</p>", "key_press": -1, "trial_type": "single-stim", "trial_index": 87, "time_elapsed": 551099, "internal_node_id": "0.0-60.0-9.0"}}, {"uniqueid": "MTK0388:3DY4FPOOA2V89Z6R68681KBI3AJVRK", "current_trial": 88, "dateTime": 1510781976797, "trialdata": {"rt": -1, "stimulus": "<p id=\"stim\">+</p>", "key_press": -1, "type": "FIXATION", "trial_type": "single-stim", "trial_index": 88, "time_elapsed": 552600, "internal_node_id": "0.0-61.0-0.0"}}, {"uniqueid": "MTK0388:3DY4FPOOA2V89Z6R68681KBI3AJVRK", "current_trial": 89, "dateTime": 1510781978502, "trialdata": {"rt": -1000, "stimulus": "/static/audio/wordpool/DAISY.wav", "key_press": -1, "type": "PRES_AUD", "word": "daisy", "wordID": 434, "conditions": [24, 800, "a", 12000], "trial": 2, "serialpos": 0, "trial_type": "single-audio", "trial_index": 89, "time_elapsed": 554305, "internal_node_id": "0.0-62.0"}}, {"uniqueid": "MTK0388:3DY4FPOOA2V89Z6R68681KBI3AJVRK", "current_trial": 90, "dateTime": 1510781980410, "trialdata": {"rt": -1000, "stimulus": "/static/audio/wordpool/FRUIT.wav", "key_press": -1, "type": "PRES_AUD", "word": "fruit", "wordID": 609, "conditions": [24, 800, "a", 12000], "trial": 2, "serialpos": 1, "trial_type": "single-audio", "trial_index": 90, "time_elapsed": 556213, "internal_node_id": "0.0-63.0"}}, {"uniqueid": "MTK0388:3DY4FPOOA2V89Z6R68681KBI3AJVRK", "current_trial": 91, "dateTime": 1510781982045, "trialdata": {"rt": -1000, "stimulus": "/static/audio/wordpool/BADGE.wav", "key_press": -1, "type": "PRES_AUD", "word": "badge", "wordID": 67, "conditions": [24, 800, "a", 12000], "trial": 2, "serialpos": 2, "trial_type": "single-audio", "trial_index": 91, "time_elapsed": 557848, "internal_node_id": "0.0-64.0"}}, {"uniqueid": "MTK0388:3DY4FPOOA2V89Z6R68681KBI3AJVRK", "current_trial": 92, "dateTime": 1510781983713, "trialdata": {"rt": -1000, "stimulus": "/static/audio/wordpool/PORTRAIT.wav", "key_press": -1, "type": "PRES_AUD", "word": "portrait", "wordID": 1110, "conditions": [24, 800, "a", 12000], "trial": 2, "serialpos": 3, "trial_type": "single-audio", "trial_index": 92, "time_elapsed": 559516, "internal_node_id": "0.0-65.0"}}, {"uniqueid": "MTK0388:3DY4FPOOA2V89Z6R68681KBI3AJVRK", "current_trial": 93, "dateTime": 1510781985545, "trialdata": {"rt": -1000, "stimulus": "/static/audio/wordpool/HUSBAND.wav", "key_press": -1, "type": "PRES_AUD", "word": "husband", "wordID": 727, "conditions": [24, 800, "a", 12000], "trial": 2, "serialpos": 4, "trial_type": "single-audio", "trial_index": 93, "time_elapsed": 561348, "internal_node_id": "0.0-66.0"}}, {"uniqueid": "MTK0388:3DY4FPOOA2V89Z6R68681KBI3AJVRK", "current_trial": 94, "dateTime": 1510781987263, "trialdata": {"rt": -1000, "stimulus": "/static/audio/wordpool/FIDDLE.wav", "key_press": -1, "type": "PRES_AUD", "word": "fiddle", "wordID": 560, "conditions": [24, 800, "a", 12000], "trial": 2, "serialpos": 5, "trial_type": "single-audio", "trial_index": 94, "time_elapsed": 563066, "internal_node_id": "0.0-67.0"}}, {"uniqueid": "MTK0388:3DY4FPOOA2V89Z6R68681KBI3AJVRK", "current_trial": 95, "dateTime": 1510781989061, "trialdata": {"rt": -1000, "stimulus": "/static/audio/wordpool/CRIB.wav", "key_press": -1, "type": "PRES_AUD", "word": "crib", "wordID": 406, "conditions": [24, 800, "a", 12000], "trial": 2, "serialpos": 6, "trial_type": "single-audio", "trial_index": 95, "time_elapsed": 564864, "internal_node_id": "0.0-68.0"}}, {"uniqueid": "MTK0388:3DY4FPOOA2V89Z6R68681KBI3AJVRK", "current_trial": 96, "dateTime": 1510781990869, "trialdata": {"rt": 19.99999999998181, "stimulus": "/static/audio/wordpool/PICTURE.wav", "key_press": 175, "type": "PRES_AUD", "word": "picture", "wordID": 1060, "conditions": [24, 800, "a", 12000], "trial": 2, "serialpos": 7, "trial_type": "single-audio", "trial_index": 96, "time_elapsed": 566672, "internal_node_id": "0.0-69.0"}}, {"uniqueid": "MTK0388:3DY4FPOOA2V89Z6R68681KBI3AJVRK", "current_trial": 97, "dateTime": 1510781992664, "trialdata": {"rt": -1000, "stimulus": "/static/audio/wordpool/SHORTCAKE.wav", "key_press": -1, "type": "PRES_AUD", "word": "shortcake", "wordID": 1291, "conditions": [24, 800, "a", 12000], "trial": 2, "serialpos": 8, "trial_type": "single-audio", "trial_index": 97, "time_elapsed": 568467, "internal_node_id": "0.0-70.0"}}, {"uniqueid": "MTK0388:3DY4FPOOA2V89Z6R68681KBI3AJVRK", "current_trial": 98, "dateTime": 1510781994642, "trialdata": {"rt": -1000, "stimulus": "/static/audio/wordpool/MUFFIN.wav", "key_press": -1, "type": "PRES_AUD", "word": "muffin", "wordID": 928, "conditions": [24, 800, "a", 12000], "trial": 2, "serialpos": 9, "trial_type": "single-audio", "trial_index": 98, "time_elapsed": 570445, "internal_node_id": "0.0-71.0"}}, {"uniqueid": "MTK0388:3DY4FPOOA2V89Z6R68681KBI3AJVRK", "current_trial": 99, "dateTime": 1510781996255, "trialdata": {"rt": -1000, "stimulus": "/static/audio/wordpool/CRATER.wav", "key_press": -1, "type": "PRES_AUD", "word": "crater", "wordID": 399, "conditions": [24, 800, "a", 12000], "trial": 2, "serialpos": 10, "trial_type": "single-audio", "trial_index": 99, "time_elapsed": 572058, "internal_node_id": "0.0-72.0"}}, {"uniqueid": "MTK0388:3DY4FPOOA2V89Z6R68681KBI3AJVRK", "current_trial": 100, "dateTime": 1510781998250, "trialdata": {"rt": -1000, "stimulus": "/static/audio/wordpool/HERO.wav", "key_press": -1, "type": "PRES_AUD", "word": "hero", "wordID": 705, "conditions": [24, 800, "a", 12000], "trial": 2, "serialpos": 11, "trial_type": "single-audio", "trial_index": 100, "time_elapsed": 574053, "internal_node_id": "0.0-73.0"}}, {"uniqueid": "MTK0388:3DY4FPOOA2V89Z6R68681KBI3AJVRK", "current_trial": 101, "dateTime": 1510782000169, "trialdata": {"rt": -1000, "stimulus": "/static/audio/wordpool/BUCKET.wav", "key_press": -1, "type": "PRES_AUD", "word": "bucket", "wordID": 183, "conditions": [24, 800, "a", 12000], "trial": 2, "serialpos": 12, "trial_type": "single-audio", "trial_index": 101, "time_elapsed": 575972, "internal_node_id": "0.0-74.0"}}, {"uniqueid": "MTK0388:3DY4FPOOA2V89Z6R68681KBI3AJVRK", "current_trial": 102, "dateTime": 1510782001851, "trialdata": {"rt": -1000, "stimulus": "/static/audio/wordpool/PADDING.wav", "key_press": -1, "type": "PRES_AUD", "word": "padding", "wordID": 998, "conditions": [24, 800, "a", 12000], "trial": 2, "serialpos": 13, "trial_type": "single-audio", "trial_index": 102, "time_elapsed": 577654, "internal_node_id": "0.0-75.0"}}, {"uniqueid": "MTK0388:3DY4FPOOA2V89Z6R68681KBI3AJVRK", "current_trial": 103, "dateTime": 1510782003470, "trialdata": {"rt": -1000, "stimulus": "/static/audio/wordpool/PECAN.wav", "key_press": -1, "type": "PRES_AUD", "word": "pecan", "wordID": 1035, "conditions": [24, 800, "a", 12000], "trial": 2, "serialpos": 14, "trial_type": "single-audio", "trial_index": 103, "time_elapsed": 579273, "internal_node_id": "0.0-76.0"}}, {"uniqueid": "MTK0388:3DY4FPOOA2V89Z6R68681KBI3AJVRK", "current_trial": 104, "dateTime": 1510782005224, "trialdata": {"rt": -1000, "stimulus": "/static/audio/wordpool/MILK.wav", "key_press": -1, "type": "PRES_AUD", "word": "milk", "wordID": 894, "conditions": [24, 800, "a", 12000], "trial": 2, "serialpos": 15, "trial_type": "single-audio", "trial_index": 104, "time_elapsed": 581027, "internal_node_id": "0.0-77.0"}}, {"uniqueid": "MTK0388:3DY4FPOOA2V89Z6R68681KBI3AJVRK", "current_trial": 105, "dateTime": 1510782006860, "trialdata": {"rt": -1000, "stimulus": "/static/audio/wordpool/SPARROW.wav", "key_press": -1, "type": "PRES_AUD", "word": "sparrow", "wordID": 1346, "conditions": [24, 800, "a", 12000], "trial": 2, "serialpos": 16, "trial_type": "single-audio", "trial_index": 105, "time_elapsed": 582663, "internal_node_id": "0.0-78.0"}}, {"uniqueid": "MTK0388:3DY4FPOOA2V89Z6R68681KBI3AJVRK", "current_trial": 106, "dateTime": 1510782008821, "trialdata": {"rt": -1000, "stimulus": "/static/audio/wordpool/PUDDING.wav", "key_press": -1, "type": "PRES_AUD", "word": "pudding", "wordID": 1138, "conditions": [24, 800, "a", 12000], "trial": 2, "serialpos": 17, "trial_type": "single-audio", "trial_index": 106, "time_elapsed": 584624, "internal_node_id": "0.0-79.0"}}, {"uniqueid": "MTK0388:3DY4FPOOA2V89Z6R68681KBI3AJVRK", "current_trial": 107, "dateTime": 1510782010755, "trialdata": {"rt": -1000, "stimulus": "/static/audio/wordpool/NOVEL.wav", "key_press": -1, "type": "PRES_AUD", "word": "novel", "wordID": 959, "conditions": [24, 800, "a", 12000], "trial": 2, "serialpos": 18, "trial_type": "single-audio", "trial_index": 107, "time_elapsed": 586558, "internal_node_id": "0.0-80.0"}}, {"uniqueid": "MTK0388:3DY4FPOOA2V89Z6R68681KBI3AJVRK", "current_trial": 108, "dateTime": 1510782012358, "trialdata": {"rt": -1000, "stimulus": "/static/audio/wordpool/ROBIN.wav", "key_press": -1, "type": "PRES_AUD", "word": "robin", "wordID": 1198, "conditions": [24, 800, "a", 12000], "trial": 2, "serialpos": 19, "trial_type": "single-audio", "trial_index": 108, "time_elapsed": 588161, "internal_node_id": "0.0-81.0"}}, {"uniqueid": "MTK0388:3DY4FPOOA2V89Z6R68681KBI3AJVRK", "current_trial": 109, "dateTime": 1510782014040, "trialdata": {"rt": -1000, "stimulus": "/static/audio/wordpool/SKILLET.wav", "key_press": -1, "type": "PRES_AUD", "word": "skillet", "wordID": 1316, "conditions": [24, 800, "a", 12000], "trial": 2, "serialpos": 20, "trial_type": "single-audio", "trial_index": 109, "time_elapsed": 589843, "internal_node_id": "0.0-82.0"}}, {"uniqueid": "MTK0388:3DY4FPOOA2V89Z6R68681KBI3AJVRK", "current_trial": 110, "dateTime": 1510782015920, "trialdata": {"rt": -1000, "stimulus": "/static/audio/wordpool/TURTLE.wav", "key_press": -1, "type": "PRES_AUD", "word": "turtle", "wordID": 1521, "conditions": [24, 800, "a", 12000], "trial": 2, "serialpos": 21, "trial_type": "single-audio", "trial_index": 110, "time_elapsed": 591723, "internal_node_id": "0.0-83.0"}}, {"uniqueid": "MTK0388:3DY4FPOOA2V89Z6R68681KBI3AJVRK", "current_trial": 111, "dateTime": 1510782017526, "trialdata": {"rt": -1000, "stimulus": "/static/audio/wordpool/DOLPHIN.wav", "key_press": -1, "type": "PRES_AUD", "word": "dolphin", "wordID": 482, "conditions": [24, 800, "a", 12000], "trial": 2, "serialpos": 22, "trial_type": "single-audio", "trial_index": 111, "time_elapsed": 593329, "internal_node_id": "0.0-84.0"}}, {"uniqueid": "MTK0388:3DY4FPOOA2V89Z6R68681KBI3AJVRK", "current_trial": 112, "dateTime": 1510782019350, "trialdata": {"rt": -1000, "stimulus": "/static/audio/wordpool/STATUE.wav", "key_press": -1, "type": "PRES_AUD", "word": "statue", "wordID": 1373, "conditions": [24, 800, "a", 12000], "trial": 2, "serialpos": 23, "trial_type": "single-audio", "trial_index": 112, "time_elapsed": 595153, "internal_node_id": "0.0-85.0"}}, {"uniqueid": "MTK0388:3DY4FPOOA2V89Z6R68681KBI3AJVRK", "current_trial": 113, "dateTime": 1510782020703, "trialdata": {"rt": -1, "stimulus": "", "key_press": -1, "type": "PRE_RECALL_DELAY", "trial_type": "single-stim", "trial_index": 113, "time_elapsed": 596506, "internal_node_id": "0.0-86.0-0.0"}}, {"uniqueid": "MTK0388:3DY4FPOOA2V89Z6R68681KBI3AJVRK", "current_trial": 114, "dateTime": 1510782021204, "trialdata": {"rt": -1000, "stimulus": "/static/audio/400Hz.wav", "key_press": -1, "type": "PRE_RECALL_ALERT", "trial_type": "single-audio", "trial_index": 114, "time_elapsed": 597007, "internal_node_id": "0.0-87.0"}}, {"uniqueid": "MTK0388:3DY4FPOOA2V89Z6R68681KBI3AJVRK", "current_trial": 115, "dateTime": 1510782081208, "trialdata": {"rt": [2330, 4822, 6814, 8286, 10534, 11874, 15787, 16738, 19574, 21934, 23387], "recwords": ["dolphin", "statue", "turtle", "shortcake", "robin", "sparrow", "fruit", "badge", "daisy", "milk", "skillet"], "type": "FREE_RECALL", "conditions": [24, 800, "a", 12000], "trial": 2, "trial_type": "free-recall", "trial_index": 115, "time_elapsed": 657009, "internal_node_id": "0.0-88.0-0.0"}}, {"uniqueid": "MTK0388:3DY4FPOOA2V89Z6R68681KBI3AJVRK", "current_trial": 116, "dateTime": 1510782090539, "trialdata": {"rt": 7330, "key_press": 32, "type": "INSTRUCTIONS", "trial_type": "text", "trial_index": 116, "time_elapsed": 666342, "internal_node_id": "0.0-89.0"}}, {"uniqueid": "MTK0388:3DY4FPOOA2V89Z6R68681KBI3AJVRK", "current_trial": 117, "dateTime": 1510782104540, "trialdata": {"rt": [6451, 8918, 11566], "responses": ["13", "16", "12"], "num1": [7, 4, 5, 2], "num2": [2, 3, 1, 7], "num3": [4, 9, 6, 4], "type": "DISTRACTOR", "conditions": [12, 800, "a", 12000], "trial": 3, "trial_type": "math-distractor", "trial_index": 117, "time_elapsed": 680343, "internal_node_id": "0.0-90.0"}}, {"uniqueid": "MTK0388:3DY4FPOOA2V89Z6R68681KBI3AJVRK", "current_trial": 118, "dateTime": 1510782107543, "trialdata": {"rt": -1, "stimulus": "<p id=\"stim\">10</p>", "key_press": -1, "trial_type": "single-stim", "trial_index": 118, "time_elapsed": 683346, "internal_node_id": "0.0-91.0-0.0"}}, {"uniqueid": "MTK0388:3DY4FPOOA2V89Z6R68681KBI3AJVRK", "current_trial": 119, "dateTime": 1510782108544, "trialdata": {"rt": -1, "stimulus": "<p id=\"stim\">9</p>", "key_press": -1, "trial_type": "single-stim", "trial_index": 119, "time_elapsed": 684347, "internal_node_id": "0.0-91.0-1.0"}}, {"uniqueid": "MTK0388:3DY4FPOOA2V89Z6R68681KBI3AJVRK", "current_trial": 120, "dateTime": 1510782109545, "trialdata": {"rt": -1, "stimulus": "<p id=\"stim\">8</p>", "key_press": -1, "trial_type": "single-stim", "trial_index": 120, "time_elapsed": 685348, "internal_node_id": "0.0-91.0-2.0"}}, {"uniqueid": "MTK0388:3DY4FPOOA2V89Z6R68681KBI3AJVRK", "current_trial": 121, "dateTime": 1510782110546, "trialdata": {"rt": -1, "stimulus": "<p id=\"stim\">7</p>", "key_press": -1, "trial_type": "single-stim", "trial_index": 121, "time_elapsed": 686349, "internal_node_id": "0.0-91.0-3.0"}}, {"uniqueid": "MTK0388:3DY4FPOOA2V89Z6R68681KBI3AJVRK", "current_trial": 122, "dateTime": 1510782111547, "trialdata": {"rt": -1, "stimulus": "<p id=\"stim\">6</p>", "key_press": -1, "trial_type": "single-stim", "trial_index": 122, "time_elapsed": 687350, "internal_node_id": "0.0-91.0-4.0"}}, {"uniqueid": "MTK0388:3DY4FPOOA2V89Z6R68681KBI3AJVRK", "current_trial": 123, "dateTime": 1510782112548, "trialdata": {"rt": -1, "stimulus": "<p id=\"stim\">5</p>", "key_press": -1, "trial_type": "single-stim", "trial_index": 123, "time_elapsed": 688351, "internal_node_id": "0.0-91.0-5.0"}}, {"uniqueid": "MTK0388:3DY4FPOOA2V89Z6R68681KBI3AJVRK", "current_trial": 124, "dateTime": 1510782113549, "trialdata": {"rt": -1, "stimulus": "<p id=\"stim\">4</p>", "key_press": -1, "trial_type": "single-stim", "trial_index": 124, "time_elapsed": 689352, "internal_node_id": "0.0-91.0-6.0"}}, {"uniqueid": "MTK0388:3DY4FPOOA2V89Z6R68681KBI3AJVRK", "current_trial": 125, "dateTime": 1510782114550, "trialdata": {"rt": -1, "stimulus": "<p id=\"stim\">3</p>", "key_press": -1, "trial_type": "single-stim", "trial_index": 125, "time_elapsed": 690353, "internal_node_id": "0.0-91.0-7.0"}}, {"uniqueid": "MTK0388:3DY4FPOOA2V89Z6R68681KBI3AJVRK", "current_trial": 126, "dateTime": 1510782115551, "trialdata": {"rt": -1, "stimulus": "<p id=\"stim\">2</p>", "key_press": -1, "trial_type": "single-stim", "trial_index": 126, "time_elapsed": 691354, "internal_node_id": "0.0-91.0-8.0"}}, {"uniqueid": "MTK0388:3DY4FPOOA2V89Z6R68681KBI3AJVRK", "current_trial": 127, "dateTime": 1510782116552, "trialdata": {"rt": -1, "stimulus": "<p id=\"stim\">1</p>", "key_press": -1, "trial_type": "single-stim", "trial_index": 127, "time_elapsed": 692355, "internal_node_id": "0.0-91.0-9.0"}}, {"uniqueid": "MTK0388:3DY4FPOOA2V89Z6R68681KBI3AJVRK", "current_trial": 128, "dateTime": 1510782118053, "trialdata": {"rt": -1, "stimulus": "<p id=\"stim\">+</p>", "key_press": -1, "type": "FIXATION", "trial_type": "single-stim", "trial_index": 128, "time_elapsed": 693856, "internal_node_id": "0.0-92.0-0.0"}}, {"uniqueid": "MTK0388:3DY4FPOOA2V89Z6R68681KBI3AJVRK", "current_trial": 129, "dateTime": 1510782119727, "trialdata": {"rt": -1000, "stimulus": "/static/audio/wordpool/SHERIFF.wav", "key_press": -1, "type": "PRES_AUD", "word": "sheriff", "wordID": 1283, "conditions": [12, 800, "a", 12000], "trial": 3, "serialpos": 0, "trial_type": "single-audio", "trial_index": 129, "time_elapsed": 695530, "internal_node_id": "0.0-93.0"}}, {"uniqueid": "MTK0388:3DY4FPOOA2V89Z6R68681KBI3AJVRK", "current_trial": 130, "dateTime": 1510782121645, "trialdata": {"rt": -1000, "stimulus": "/static/audio/wordpool/KNAPSACK.wav", "key_press": -1, "type": "PRES_AUD", "word": "knapsack", "wordID": 782, "conditions": [12, 800, "a", 12000], "trial": 3, "serialpos": 1, "trial_type": "single-audio", "trial_index": 130, "time_elapsed": 697448, "internal_node_id": "0.0-94.0"}}, {"uniqueid": "MTK0388:3DY4FPOOA2V89Z6R68681KBI3AJVRK", "current_trial": 131, "dateTime": 1510782123470, "trialdata": {"rt": -1000, "stimulus": "/static/audio/wordpool/POSTAGE.wav", "key_press": -1, "type": "PRES_AUD", "word": "postage", "wordID": 1112, "conditions": [12, 800, "a", 12000], "trial": 3, "serialpos": 2, "trial_type": "single-audio", "trial_index": 131, "time_elapsed": 699273, "internal_node_id": "0.0-95.0"}}, {"uniqueid": "MTK0388:3DY4FPOOA2V89Z6R68681KBI3AJVRK", "current_trial": 132, "dateTime": 1510782125369, "trialdata": {"rt": -1000, "stimulus": "/static/audio/wordpool/PLUTO.wav", "key_press": -1, "type": "PRES_AUD", "word": "pluto", "wordID": 1091, "conditions": [12, 800, "a", 12000], "trial": 3, "serialpos": 3, "trial_type": "single-audio", "trial_index": 132, "time_elapsed": 701172, "internal_node_id": "0.0-96.0"}}, {"uniqueid": "MTK0388:3DY4FPOOA2V89Z6R68681KBI3AJVRK", "current_trial": 133, "dateTime": 1510782127228, "trialdata": {"rt": -1000, "stimulus": "/static/audio/wordpool/XEROX.wav", "key_press": -1, "type": "PRES_AUD", "word": "xerox", "wordID": 1627, "conditions": [12, 800, "a", 12000], "trial": 3, "serialpos": 4, "trial_type": "single-audio", "trial_index": 133, "time_elapsed": 703031, "internal_node_id": "0.0-97.0"}}, {"uniqueid": "MTK0388:3DY4FPOOA2V89Z6R68681KBI3AJVRK", "current_trial": 134, "dateTime": 1510782129071, "trialdata": {"rt": 1710.6666666666115, "stimulus": "/static/audio/wordpool/HAND.wav", "key_press": 175, "type": "PRES_AUD", "word": "hand", "wordID": 682, "conditions": [12, 800, "a", 12000], "trial": 3, "serialpos": 5, "trial_type": "single-audio", "trial_index": 134, "time_elapsed": 704874, "internal_node_id": "0.0-98.0"}}, {"uniqueid": "MTK0388:3DY4FPOOA2V89Z6R68681KBI3AJVRK", "current_trial": 135, "dateTime": 1510782130729, "trialdata": {"rt": 110.66666666670244, "stimulus": "/static/audio/wordpool/SKIRT.wav", "key_press": 175, "type": "PRES_AUD", "word": "skirt", "wordID": 1318, "conditions": [12, 800, "a", 12000], "trial": 3, "serialpos": 6, "trial_type": "single-audio", "trial_index": 135, "time_elapsed": 706532, "internal_node_id": "0.0-99.0"}}, {"uniqueid": "MTK0388:3DY4FPOOA2V89Z6R68681KBI3AJVRK", "current_trial": 136, "dateTime": 1510782132438, "trialdata": {"rt": -1000, "stimulus": "/static/audio/wordpool/AIRPORT.wav", "key_press": -1, "type": "PRES_AUD", "word": "airport", "wordID": 12, "conditions": [12, 800, "a", 12000], "trial": 3, "serialpos": 7, "trial_type": "single-audio", "trial_index": 136, "time_elapsed": 708241, "internal_node_id": "0.0-100.0"}}, {"uniqueid": "MTK0388:3DY4FPOOA2V89Z6R68681KBI3AJVRK", "current_trial": 137, "dateTime": 1510782134178, "trialdata": {"rt": -1000, "stimulus": "/static/audio/wordpool/BRIEFCASE.wav", "key_press": -1, "type": "PRES_AUD", "word": "briefcase", "wordID": 174, "conditions": [12, 800, "a", 12000], "trial": 3, "serialpos": 8, "trial_type": "single-audio", "trial_index": 137, "time_elapsed": 709981, "internal_node_id": "0.0-101.0"}}, {"uniqueid": "MTK0388:3DY4FPOOA2V89Z6R68681KBI3AJVRK", "current_trial": 138, "dateTime": 1510782135814, "trialdata": {"rt": -1000, "stimulus": "/static/audio/wordpool/DRIVER.wav", "key_press": -1, "type": "PRES_AUD", "word": "driver", "wordID": 498, "conditions": [12, 800, "a", 12000], "trial": 3, "serialpos": 9, "trial_type": "single-audio", "trial_index": 138, "time_elapsed": 711617, "internal_node_id": "0.0-102.0"}}, {"uniqueid": "MTK0388:3DY4FPOOA2V89Z6R68681KBI3AJVRK", "current_trial": 139, "dateTime": 1510782137707, "trialdata": {"rt": -1000, "stimulus": "/static/audio/wordpool/CUSTARD.wav", "key_press": -1, "type": "PRES_AUD", "word": "custard", "wordID": 428, "conditions": [12, 800, "a", 12000], "trial": 3, "serialpos": 10, "trial_type": "single-audio", "trial_index": 139, "time_elapsed": 713510, "internal_node_id": "0.0-103.0"}}, {"uniqueid": "MTK0388:3DY4FPOOA2V89Z6R68681KBI3AJVRK", "current_trial": 140, "dateTime": 1510782139369, "trialdata": {"rt": -1000, "stimulus": "/static/audio/wordpool/JELLY.wav", "key_press": -1, "type": "PRES_AUD", "word": "jelly", "wordID": 754, "conditions": [12, 800, "a", 12000], "trial": 3, "serialpos": 11, "trial_type": "single-audio", "trial_index": 140, "time_elapsed": 715172, "internal_node_id": "0.0-104.0"}}, {"uniqueid": "MTK0388:3DY4FPOOA2V89Z6R68681KBI3AJVRK", "current_trial": 141, "dateTime": 1510782140684, "trialdata": {"rt": -1, "stimulus": "", "key_press": -1, "type": "PRE_RECALL_DELAY", "trial_type": "single-stim", "trial_index": 141, "time_elapsed": 716487, "internal_node_id": "0.0-105.0-0.0"}}, {"uniqueid": "MTK0388:3DY4FPOOA2V89Z6R68681KBI3AJVRK", "current_trial": 142, "dateTime": 1510782141185, "trialdata": {"rt": -1000, "stimulus": "/static/audio/400Hz.wav", "key_press": -1, "type": "PRE_RECALL_ALERT", "trial_type": "single-audio", "trial_index": 142, "time_elapsed": 716988, "internal_node_id": "0.0-106.0"}}, {"uniqueid": "MTK0388:3DY4FPOOA2V89Z6R68681KBI3AJVRK", "current_trial": 143, "dateTime": 1510782201190, "trialdata": {"rt": [3219, 10484, 13528, 15298, 17322, 18665, 26616, 33094], "recwords": ["sheriff", "napsack", "custard", "airport", "driver", "jelly", "sheriff", "pudding"], "type": "FREE_RECALL", "conditions": [12, 800, "a", 12000], "trial": 3, "trial_type": "free-recall", "trial_index": 143, "time_elapsed": 776991, "internal_node_id": "0.0-107.0-0.0"}}, {"uniqueid": "MTK0388:3DY4FPOOA2V89Z6R68681KBI3AJVRK", "current_trial": 144, "dateTime": 1510782203982, "trialdata": {"rt": 772, "key_press": 32, "type": "INSTRUCTIONS", "trial_type": "text", "trial_index": 144, "time_elapsed": 779785, "internal_node_id": "0.0-108.0"}}, {"uniqueid": "MTK0388:3DY4FPOOA2V89Z6R68681KBI3AJVRK", "current_trial": 145, "dateTime": 1510782217983, "trialdata": {"rt": [2648, 3990, 7704, 9502], "responses": ["14", "5", "18", "16"], "num1": [7, 1, 5, 4, 5], "num2": [1, 2, 7, 4, 1], "num3": [6, 2, 6, 8, 8], "type": "DISTRACTOR", "conditions": [12, 1600, "a", 12000], "trial": 4, "trial_type": "math-distractor", "trial_index": 145, "time_elapsed": 793786, "internal_node_id": "0.0-109.0"}}, {"uniqueid": "MTK0388:3DY4FPOOA2V89Z6R68681KBI3AJVRK", "current_trial": 146, "dateTime": 1510782220985, "trialdata": {"rt": -1, "stimulus": "<p id=\"stim\">10</p>", "key_press": -1, "trial_type": "single-stim", "trial_index": 146, "time_elapsed": 796788, "internal_node_id": "0.0-110.0-0.0"}}, {"uniqueid": "MTK0388:3DY4FPOOA2V89Z6R68681KBI3AJVRK", "current_trial": 147, "dateTime": 1510782221986, "trialdata": {"rt": -1, "stimulus": "<p id=\"stim\">9</p>", "key_press": -1, "trial_type": "single-stim", "trial_index": 147, "time_elapsed": 797789, "internal_node_id": "0.0-110.0-1.0"}}, {"uniqueid": "MTK0388:3DY4FPOOA2V89Z6R68681KBI3AJVRK", "current_trial": 148, "dateTime": 1510782222987, "trialdata": {"rt": -1, "stimulus": "<p id=\"stim\">8</p>", "key_press": -1, "trial_type": "single-stim", "trial_index": 148, "time_elapsed": 798790, "internal_node_id": "0.0-110.0-2.0"}}, {"uniqueid": "MTK0388:3DY4FPOOA2V89Z6R68681KBI3AJVRK", "current_trial": 149, "dateTime": 1510782223988, "trialdata": {"rt": -1, "stimulus": "<p id=\"stim\">7</p>", "key_press": -1, "trial_type": "single-stim", "trial_index": 149, "time_elapsed": 799791, "internal_node_id": "0.0-110.0-3.0"}}, {"uniqueid": "MTK0388:3DY4FPOOA2V89Z6R68681KBI3AJVRK", "current_trial": 150, "dateTime": 1510782224989, "trialdata": {"rt": -1, "stimulus": "<p id=\"stim\">6</p>", "key_press": -1, "trial_type": "single-stim", "trial_index": 150, "time_elapsed": 800792, "internal_node_id": "0.0-110.0-4.0"}}, {"uniqueid": "MTK0388:3DY4FPOOA2V89Z6R68681KBI3AJVRK", "current_trial": 151, "dateTime": 1510782225990, "trialdata": {"rt": -1, "stimulus": "<p id=\"stim\">5</p>", "key_press": -1, "trial_type": "single-stim", "trial_index": 151, "time_elapsed": 801793, "internal_node_id": "0.0-110.0-5.0"}}, {"uniqueid": "MTK0388:3DY4FPOOA2V89Z6R68681KBI3AJVRK", "current_trial": 152, "dateTime": 1510782226991, "trialdata": {"rt": -1, "stimulus": "<p id=\"stim\">4</p>", "key_press": -1, "trial_type": "single-stim", "trial_index": 152, "time_elapsed": 802794, "internal_node_id": "0.0-110.0-6.0"}}, {"uniqueid": "MTK0388:3DY4FPOOA2V89Z6R68681KBI3AJVRK", "current_trial": 153, "dateTime": 1510782227993, "trialdata": {"rt": -1, "stimulus": "<p id=\"stim\">3</p>", "key_press": -1, "trial_type": "single-stim", "trial_index": 153, "time_elapsed": 803796, "internal_node_id": "0.0-110.0-7.0"}}, {"uniqueid": "MTK0388:3DY4FPOOA2V89Z6R68681KBI3AJVRK", "current_trial": 154, "dateTime": 1510782228994, "trialdata": {"rt": -1, "stimulus": "<p id=\"stim\">2</p>", "key_press": -1, "trial_type": "single-stim", "trial_index": 154, "time_elapsed": 804797, "internal_node_id": "0.0-110.0-8.0"}}, {"uniqueid": "MTK0388:3DY4FPOOA2V89Z6R68681KBI3AJVRK", "current_trial": 155, "dateTime": 1510782229995, "trialdata": {"rt": -1, "stimulus": "<p id=\"stim\">1</p>", "key_press": -1, "trial_type": "single-stim", "trial_index": 155, "time_elapsed": 805798, "internal_node_id": "0.0-110.0-9.0"}}, {"uniqueid": "MTK0388:3DY4FPOOA2V89Z6R68681KBI3AJVRK", "current_trial": 156, "dateTime": 1510782231497, "trialdata": {"rt": -1, "stimulus": "<p id=\"stim\">+</p>", "key_press": -1, "type": "FIXATION", "trial_type": "single-stim", "trial_index": 156, "time_elapsed": 807300, "internal_node_id": "0.0-111.0-0.0"}}, {"uniqueid": "MTK0388:3DY4FPOOA2V89Z6R68681KBI3AJVRK", "current_trial": 157, "dateTime": 1510782234281, "trialdata": {"rt": 2390.666666666675, "stimulus": "/static/audio/wordpool/SNAKE.wav", "key_press": 175, "type": "PRES_AUD", "word": "snake", "wordID": 1332, "conditions": [12, 1600, "a", 12000], "trial": 4, "serialpos": 0, "trial_type": "single-audio", "trial_index": 157, "time_elapsed": 810084, "internal_node_id": "0.0-112.0"}}, {"uniqueid": "MTK0388:3DY4FPOOA2V89Z6R68681KBI3AJVRK", "current_trial": 158, "dateTime": 1510782236799, "trialdata": {"rt": -81.33333333341852, "stimulus": "/static/audio/wordpool/MOP.wav", "key_press": 175, "type": "PRES_AUD", "word": "mop", "wordID": 915, "conditions": [12, 1600, "a", 12000], "trial": 4, "serialpos": 1, "trial_type": "single-audio", "trial_index": 158, "time_elapsed": 812602, "internal_node_id": "0.0-113.0"}}, {"uniqueid": "MTK0388:3DY4FPOOA2V89Z6R68681KBI3AJVRK", "current_trial": 159, "dateTime": 1510782239495, "trialdata": {"rt": -1000, "stimulus": "/static/audio/wordpool/WRIST.wav", "key_press": -1, "type": "PRES_AUD", "word": "wrist", "wordID": 1625, "conditions": [12, 1600, "a", 12000], "trial": 4, "serialpos": 2, "trial_type": "single-audio", "trial_index": 159, "time_elapsed": 815298, "internal_node_id": "0.0-114.0"}}, {"uniqueid": "MTK0388:3DY4FPOOA2V89Z6R68681KBI3AJVRK", "current_trial": 160, "dateTime": 1510782242040, "trialdata": {"rt": -1000, "stimulus": "/static/audio/wordpool/GLASS.wav", "key_press": -1, "type": "PRES_AUD", "word": "glass", "wordID": 638, "conditions": [12, 1600, "a", 12000], "trial": 4, "serialpos": 3, "trial_type": "single-audio", "trial_index": 160, "time_elapsed": 817843, "internal_node_id": "0.0-115.0"}}, {"uniqueid": "MTK0388:3DY4FPOOA2V89Z6R68681KBI3AJVRK", "current_trial": 161, "dateTime": 1510782244822, "trialdata": {"rt": -1000, "stimulus": "/static/audio/wordpool/GOBLIN.wav", "key_press": -1, "type": "PRES_AUD", "word": "goblin", "wordID": 644, "conditions": [12, 1600, "a", 12000], "trial": 4, "serialpos": 4, "trial_type": "single-audio", "trial_index": 161, "time_elapsed": 820625, "internal_node_id": "0.0-116.0"}}, {"uniqueid": "MTK0388:3DY4FPOOA2V89Z6R68681KBI3AJVRK", "current_trial": 162, "dateTime": 1510782247337, "trialdata": {"rt": -1000, "stimulus": "/static/audio/wordpool/DRAGON.wav", "key_press": -1, "type": "PRES_AUD", "word": "dragon", "wordID": 491, "conditions": [12, 1600, "a", 12000], "trial": 4, "serialpos": 5, "trial_type": "single-audio", "trial_index": 162, "time_elapsed": 823140, "internal_node_id": "0.0-117.0"}}, {"uniqueid": "MTK0388:3DY4FPOOA2V89Z6R68681KBI3AJVRK", "current_trial": 163, "dateTime": 1510782249781, "trialdata": {"rt": -1000, "stimulus": "/static/audio/wordpool/LONDON.wav", "key_press": -1, "type": "PRES_AUD", "word": "london", "wordID": 842, "conditions": [12, 1600, "a", 12000], "trial": 4, "serialpos": 6, "trial_type": "single-audio", "trial_index": 163, "time_elapsed": 825584, "internal_node_id": "0.0-118.0"}}, {"uniqueid": "MTK0388:3DY4FPOOA2V89Z6R68681KBI3AJVRK", "current_trial": 164, "dateTime": 1510782252322, "trialdata": {"rt": -1000, "stimulus": "/static/audio/wordpool/QUAIL.wav", "key_press": -1, "type": "PRES_AUD", "word": "quail", "wordID": 1146, "conditions": [12, 1600, "a", 12000], "trial": 4, "serialpos": 7, "trial_type": "single-audio", "trial_index": 164, "time_elapsed": 828125, "internal_node_id": "0.0-119.0"}}, {"uniqueid": "MTK0388:3DY4FPOOA2V89Z6R68681KBI3AJVRK", "current_trial": 165, "dateTime": 1510782255030, "trialdata": {"rt": -1000, "stimulus": "/static/audio/wordpool/BRANCH.wav", "key_press": -1, "type": "PRES_AUD", "word": "branch", "wordID": 167, "conditions": [12, 1600, "a", 12000], "trial": 4, "serialpos": 8, "trial_type": "single-audio", "trial_index": 165, "time_elapsed": 830833, "internal_node_id": "0.0-120.0"}}, {"uniqueid": "MTK0388:3DY4FPOOA2V89Z6R68681KBI3AJVRK", "current_trial": 166, "dateTime": 1510782257705, "trialdata": {"rt": -1000, "stimulus": "/static/audio/wordpool/DIVER.wav", "key_press": -1, "type": "PRES_AUD", "word": "diver", "wordID": 475, "conditions": [12, 1600, "a", 12000], "trial": 4, "serialpos": 9, "trial_type": "single-audio", "trial_index": 166, "time_elapsed": 833508, "internal_node_id": "0.0-121.0"}}, {"uniqueid": "MTK0388:3DY4FPOOA2V89Z6R68681KBI3AJVRK", "current_trial": 167, "dateTime": 1510782260143, "trialdata": {"rt": -1000, "stimulus": "/static/audio/wordpool/TORTOISE.wav", "key_press": -1, "type": "PRES_AUD", "word": "tortoise", "wordID": 1485, "conditions": [12, 1600, "a", 12000], "trial": 4, "serialpos": 10, "trial_type": "single-audio", "trial_index": 167, "time_elapsed": 835946, "internal_node_id": "0.0-122.0"}}, {"uniqueid": "MTK0388:3DY4FPOOA2V89Z6R68681KBI3AJVRK", "current_trial": 168, "dateTime": 1510782262760, "trialdata": {"rt": -1000, "stimulus": "/static/audio/wordpool/TERMITE.wav", "key_press": -1, "type": "PRES_AUD", "word": "termite", "wordID": 1450, "conditions": [12, 1600, "a", 12000], "trial": 4, "serialpos": 11, "trial_type": "single-audio", "trial_index": 168, "time_elapsed": 838563, "internal_node_id": "0.0-123.0"}}, {"uniqueid": "MTK0388:3DY4FPOOA2V89Z6R68681KBI3AJVRK", "current_trial": 169, "dateTime": 1510782263992, "trialdata": {"rt": -1, "stimulus": "", "key_press": -1, "type": "PRE_RECALL_DELAY", "trial_type": "single-stim", "trial_index": 169, "time_elapsed": 839795, "internal_node_id": "0.0-124.0-0.0"}}, {"uniqueid": "MTK0388:3DY4FPOOA2V89Z6R68681KBI3AJVRK", "current_trial": 170, "dateTime": 1510782264494, "trialdata": {"rt": -1000, "stimulus": "/static/audio/400Hz.wav", "key_press": -1, "type": "PRE_RECALL_ALERT", "trial_type": "single-audio", "trial_index": 170, "time_elapsed": 840297, "internal_node_id": "0.0-125.0"}}, {"uniqueid": "MTK0388:3DY4FPOOA2V89Z6R68681KBI3AJVRK", "current_trial": 171, "dateTime": 1510782324500, "trialdata": {"rt": [2189, 3199, 4043, 5220, 6688, 9613, 16280, 19525], "recwords": ["termite", "snake", "moth", "wrist", "glass", "london", "tortoise", "sparrow"], "type": "FREE_RECALL", "conditions": [12, 1600, "a", 12000], "trial": 4, "trial_type": "free-recall", "trial_index": 171, "time_elapsed": 900300, "internal_node_id": "0.0-126.0-0.0"}}, {"uniqueid": "MTK0388:3DY4FPOOA2V89Z6R68681KBI3AJVRK", "current_trial": 172, "dateTime": 1510782327588, "trialdata": {"rt": 1087, "key_press": 32, "type": "INSTRUCTIONS", "trial_type": "text", "trial_index": 172, "time_elapsed": 903391, "internal_node_id": "0.0-127.0"}}, {"uniqueid": "MTK0388:3DY4FPOOA2V89Z6R68681KBI3AJVRK", "current_trial": 173, "dateTime": 1510782341589, "trialdata": {"rt": [3089, 5837, 8526, 11793], "responses": ["14", "19", "11", "17"], "num1": [3, 4, 6, 8, 3], "num2": [6, 6, 1, 3, 8], "num3": [5, 9, 4, 6, 3], "type": "DISTRACTOR", "conditions": [24, 1600, "a", 12000], "trial": 5, "trial_type": "math-distractor", "trial_index": 173, "time_elapsed": 917392, "internal_node_id": "0.0-128.0"}}, {"uniqueid": "MTK0388:3DY4FPOOA2V89Z6R68681KBI3AJVRK", "current_trial": 174, "dateTime": 1510782344591, "trialdata": {"rt": -1, "stimulus": "<p id=\"stim\">10</p>", "key_press": -1, "trial_type": "single-stim", "trial_index": 174, "time_elapsed": 920394, "internal_node_id": "0.0-129.0-0.0"}}, {"uniqueid": "MTK0388:3DY4FPOOA2V89Z6R68681KBI3AJVRK", "current_trial": 175, "dateTime": 1510782345592, "trialdata": {"rt": -1, "stimulus": "<p id=\"stim\">9</p>", "key_press": -1, "trial_type": "single-stim", "trial_index": 175, "time_elapsed": 921395, "internal_node_id": "0.0-129.0-1.0"}}, {"uniqueid": "MTK0388:3DY4FPOOA2V89Z6R68681KBI3AJVRK", "current_trial": 176, "dateTime": 1510782346593, "trialdata": {"rt": -1, "stimulus": "<p id=\"stim\">8</p>", "key_press": -1, "trial_type": "single-stim", "trial_index": 176, "time_elapsed": 922396, "internal_node_id": "0.0-129.0-2.0"}}, {"uniqueid": "MTK0388:3DY4FPOOA2V89Z6R68681KBI3AJVRK", "current_trial": 177, "dateTime": 1510782347594, "trialdata": {"rt": -1, "stimulus": "<p id=\"stim\">7</p>", "key_press": -1, "trial_type": "single-stim", "trial_index": 177, "time_elapsed": 923397, "internal_node_id": "0.0-129.0-3.0"}}, {"uniqueid": "MTK0388:3DY4FPOOA2V89Z6R68681KBI3AJVRK", "current_trial": 178, "dateTime": 1510782348595, "trialdata": {"rt": -1, "stimulus": "<p id=\"stim\">6</p>", "key_press": -1, "trial_type": "single-stim", "trial_index": 178, "time_elapsed": 924398, "internal_node_id": "0.0-129.0-4.0"}}, {"uniqueid": "MTK0388:3DY4FPOOA2V89Z6R68681KBI3AJVRK", "current_trial": 179, "dateTime": 1510782349596, "trialdata": {"rt": -1, "stimulus": "<p id=\"stim\">5</p>", "key_press": -1, "trial_type": "single-stim", "trial_index": 179, "time_elapsed": 925399, "internal_node_id": "0.0-129.0-5.0"}}, {"uniqueid": "MTK0388:3DY4FPOOA2V89Z6R68681KBI3AJVRK", "current_trial": 180, "dateTime": 1510782350598, "trialdata": {"rt": -1, "stimulus": "<p id=\"stim\">4</p>", "key_press": -1, "trial_type": "single-stim", "trial_index": 180, "time_elapsed": 926401, "internal_node_id": "0.0-129.0-6.0"}}, {"uniqueid": "MTK0388:3DY4FPOOA2V89Z6R68681KBI3AJVRK", "current_trial": 181, "dateTime": 1510782351599, "trialdata": {"rt": -1, "stimulus": "<p id=\"stim\">3</p>", "key_press": -1, "trial_type": "single-stim", "trial_index": 181, "time_elapsed": 927402, "internal_node_id": "0.0-129.0-7.0"}}, {"uniqueid": "MTK0388:3DY4FPOOA2V89Z6R68681KBI3AJVRK", "current_trial": 182, "dateTime": 1510782352600, "trialdata": {"rt": -1, "stimulus": "<p id=\"stim\">2</p>", "key_press": -1, "trial_type": "single-stim", "trial_index": 182, "time_elapsed": 928403, "internal_node_id": "0.0-129.0-8.0"}}, {"uniqueid": "MTK0388:3DY4FPOOA2V89Z6R68681KBI3AJVRK", "current_trial": 183, "dateTime": 1510782353601, "trialdata": {"rt": -1, "stimulus": "<p id=\"stim\">1</p>", "key_press": -1, "trial_type": "single-stim", "trial_index": 183, "time_elapsed": 929404, "internal_node_id": "0.0-129.0-9.0"}}, {"uniqueid": "MTK0388:3DY4FPOOA2V89Z6R68681KBI3AJVRK", "current_trial": 184, "dateTime": 1510782355102, "trialdata": {"rt": -1, "stimulus": "<p id=\"stim\">+</p>", "key_press": -1, "type": "FIXATION", "trial_type": "single-stim", "trial_index": 184, "time_elapsed": 930905, "internal_node_id": "0.0-130.0-0.0"}}, {"uniqueid": "MTK0388:3DY4FPOOA2V89Z6R68681KBI3AJVRK", "current_trial": 185, "dateTime": 1510782357575, "trialdata": {"rt": -1000, "stimulus": "/static/audio/wordpool/TOASTER.wav", "key_press": -1, "type": "PRES_AUD", "word": "toaster", "wordID": 1471, "conditions": [24, 1600, "a", 12000], "trial": 5, "serialpos": 0, "trial_type": "single-audio", "trial_index": 185, "time_elapsed": 933378, "internal_node_id": "0.0-131.0"}}, {"uniqueid": "MTK0388:3DY4FPOOA2V89Z6R68681KBI3AJVRK", "current_trial": 186, "dateTime": 1510782360248, "trialdata": {"rt": -1000, "stimulus": "/static/audio/wordpool/BABY.wav", "key_press": -1, "type": "PRES_AUD", "word": "baby", "wordID": 63, "conditions": [24, 1600, "a", 12000], "trial": 5, "serialpos": 1, "trial_type": "single-audio", "trial_index": 186, "time_elapsed": 936050, "internal_node_id": "0.0-132.0"}}, {"uniqueid": "MTK0388:3DY4FPOOA2V89Z6R68681KBI3AJVRK", "current_trial": 187, "dateTime": 1510782362940, "trialdata": {"rt": -1000, "stimulus": "/static/audio/wordpool/SALMON.wav", "key_press": -1, "type": "PRES_AUD", "word": "salmon", "wordID": 1226, "conditions": [24, 1600, "a", 12000], "trial": 5, "serialpos": 2, "trial_type": "single-audio", "trial_index": 187, "time_elapsed": 938743, "internal_node_id": "0.0-133.0"}}, {"uniqueid": "MTK0388:3DY4FPOOA2V89Z6R68681KBI3AJVRK", "current_trial": 188, "dateTime": 1510782365584, "trialdata": {"rt": -1000, "stimulus": "/static/audio/wordpool/YARN.wav", "key_press": -1, "type": "PRES_AUD", "word": "yarn", "wordID": 1630, "conditions": [24, 1600, "a", 12000], "trial": 5, "serialpos": 3, "trial_type": "single-audio", "trial_index": 188, "time_elapsed": 941387, "internal_node_id": "0.0-134.0"}}, {"uniqueid": "MTK0388:3DY4FPOOA2V89Z6R68681KBI3AJVRK", "current_trial": 189, "dateTime": 1510782368246, "trialdata": {"rt": -1000, "stimulus": "/static/audio/wordpool/SCISSORS.wav", "key_press": -1, "type": "PRES_AUD", "word": "scissors", "wordID": 1249, "conditions": [24, 1600, "a", 12000], "trial": 5, "serialpos": 4, "trial_type": "single-audio", "trial_index": 189, "time_elapsed": 944049, "internal_node_id": "0.0-135.0"}}, {"uniqueid": "MTK0388:3DY4FPOOA2V89Z6R68681KBI3AJVRK", "current_trial": 190, "dateTime": 1510782370860, "trialdata": {"rt": -1000, "stimulus": "/static/audio/wordpool/RABBIT.wav", "key_press": -1, "type": "PRES_AUD", "word": "rabbit", "wordID": 1151, "conditions": [24, 1600, "a", 12000], "trial": 5, "serialpos": 5, "trial_type": "single-audio", "trial_index": 190, "time_elapsed": 946663, "internal_node_id": "0.0-136.0"}}, {"uniqueid": "MTK0388:3DY4FPOOA2V89Z6R68681KBI3AJVRK", "current_trial": 191, "dateTime": 1510782373640, "trialdata": {"rt": -1000, "stimulus": "/static/audio/wordpool/SNACK.wav", "key_press": -1, "type": "PRES_AUD", "word": "snack", "wordID": 1330, "conditions": [24, 1600, "a", 12000], "trial": 5, "serialpos": 6, "trial_type": "single-audio", "trial_index": 191, "time_elapsed": 949443, "internal_node_id": "0.0-137.0"}}, {"uniqueid": "MTK0388:3DY4FPOOA2V89Z6R68681KBI3AJVRK", "current_trial": 192, "dateTime": 1510782376044, "trialdata": {"rt": -1000, "stimulus": "/static/audio/wordpool/CANDY.wav", "key_press": -1, "type": "PRES_AUD", "word": "candy", "wordID": 229, "conditions": [24, 1600, "a", 12000], "trial": 5, "serialpos": 7, "trial_type": "single-audio", "trial_index": 192, "time_elapsed": 951847, "internal_node_id": "0.0-138.0"}}, {"uniqueid": "MTK0388:3DY4FPOOA2V89Z6R68681KBI3AJVRK", "current_trial": 193, "dateTime": 1510782378781, "trialdata": {"rt": -1000, "stimulus": "/static/audio/wordpool/BRANDY.wav", "key_press": -1, "type": "PRES_AUD", "word": "brandy", "wordID": 168, "conditions": [24, 1600, "a", 12000], "trial": 5, "serialpos": 8, "trial_type": "single-audio", "trial_index": 193, "time_elapsed": 954584, "internal_node_id": "0.0-139.0"}}, {"uniqueid": "MTK0388:3DY4FPOOA2V89Z6R68681KBI3AJVRK", "current_trial": 194, "dateTime": 1510782381505, "trialdata": {"rt": -1000, "stimulus": "/static/audio/wordpool/FOX.wav", "key_press": -1, "type": "PRES_AUD", "word": "fox", "wordID": 597, "conditions": [24, 1600, "a", 12000], "trial": 5, "serialpos": 9, "trial_type": "single-audio", "trial_index": 194, "time_elapsed": 957308, "internal_node_id": "0.0-140.0"}}, {"uniqueid": "MTK0388:3DY4FPOOA2V89Z6R68681KBI3AJVRK", "current_trial": 195, "dateTime": 1510782383957, "trialdata": {"rt": -1000, "stimulus": "/static/audio/wordpool/POPCORN.wav", "key_press": -1, "type": "PRES_AUD", "word": "popcorn", "wordID": 1103, "conditions": [24, 1600, "a", 12000], "trial": 5, "serialpos": 10, "trial_type": "single-audio", "trial_index": 195, "time_elapsed": 959760, "internal_node_id": "0.0-141.0"}}, {"uniqueid": "MTK0388:3DY4FPOOA2V89Z6R68681KBI3AJVRK", "current_trial": 196, "dateTime": 1510782386687, "trialdata": {"rt": -1000, "stimulus": "/static/audio/wordpool/STAR.wav", "key_press": -1, "type": "PRES_AUD", "word": "star", "wordID": 1372, "conditions": [24, 1600, "a", 12000], "trial": 5, "serialpos": 11, "trial_type": "single-audio", "trial_index": 196, "time_elapsed": 962490, "internal_node_id": "0.0-142.0"}}, {"uniqueid": "MTK0388:3DY4FPOOA2V89Z6R68681KBI3AJVRK", "current_trial": 197, "dateTime": 1510782389476, "trialdata": {"rt": -1000, "stimulus": "/static/audio/wordpool/MATCH.wav", "key_press": -1, "type": "PRES_AUD", "word": "match", "wordID": 877, "conditions": [24, 1600, "a", 12000], "trial": 5, "serialpos": 12, "trial_type": "single-audio", "trial_index": 197, "time_elapsed": 965279, "internal_node_id": "0.0-143.0"}}, {"uniqueid": "MTK0388:3DY4FPOOA2V89Z6R68681KBI3AJVRK", "current_trial": 198, "dateTime": 1510782392019, "trialdata": {"rt": -1000, "stimulus": "/static/audio/wordpool/BUREAU.wav", "key_press": -1, "type": "PRES_AUD", "word": "bureau", "wordID": 198, "conditions": [24, 1600, "a", 12000], "trial": 5, "serialpos": 13, "trial_type": "single-audio", "trial_index": 198, "time_elapsed": 967822, "internal_node_id": "0.0-144.0"}}, {"uniqueid": "MTK0388:3DY4FPOOA2V89Z6R68681KBI3AJVRK", "current_trial": 199, "dateTime": 1510782394424, "trialdata": {"rt": -1000, "stimulus": "/static/audio/wordpool/GRAVE.wav", "key_press": -1, "type": "PRES_AUD", "word": "grave", "wordID": 657, "conditions": [24, 1600, "a", 12000], "trial": 5, "serialpos": 14, "trial_type": "single-audio", "trial_index": 199, "time_elapsed": 970227, "internal_node_id": "0.0-145.0"}}, {"uniqueid": "MTK0388:3DY4FPOOA2V89Z6R68681KBI3AJVRK", "current_trial": 200, "dateTime": 1510782397107, "trialdata": {"rt": -1000, "stimulus": "/static/audio/wordpool/PASSAGE.wav", "key_press": -1, "type": "PRES_AUD", "word": "passage", "wordID": 1018, "conditions": [24, 1600, "a", 12000], "trial": 5, "serialpos": 15, "trial_type": "single-audio", "trial_index": 200, "time_elapsed": 972910, "internal_node_id": "0.0-146.0"}}, {"uniqueid": "MTK0388:3DY4FPOOA2V89Z6R68681KBI3AJVRK", "current_trial": 201, "dateTime": 1510782399571, "trialdata": {"rt": -1000, "stimulus": "/static/audio/wordpool/SWITCH.wav", "key_press": -1, "type": "PRES_AUD", "word": "switch", "wordID": 1421, "conditions": [24, 1600, "a", 12000], "trial": 5, "serialpos": 16, "trial_type": "single-audio", "trial_index": 201, "time_elapsed": 975374, "internal_node_id": "0.0-147.0"}}, {"uniqueid": "MTK0388:3DY4FPOOA2V89Z6R68681KBI3AJVRK", "current_trial": 202, "dateTime": 1510782402086, "trialdata": {"rt": -1000, "stimulus": "/static/audio/wordpool/SHIRT.wav", "key_press": -1, "type": "PRES_AUD", "word": "shirt", "wordID": 1286, "conditions": [24, 1600, "a", 12000], "trial": 5, "serialpos": 17, "trial_type": "single-audio", "trial_index": 202, "time_elapsed": 977889, "internal_node_id": "0.0-148.0"}}, {"uniqueid": "MTK0388:3DY4FPOOA2V89Z6R68681KBI3AJVRK", "current_trial": 203, "dateTime": 1510782404666, "trialdata": {"rt": -1000, "stimulus": "/static/audio/wordpool/DRESS.wav", "key_press": -1, "type": "PRES_AUD", "word": "dress", "wordID": 494, "conditions": [24, 1600, "a", 12000], "trial": 5, "serialpos": 18, "trial_type": "single-audio", "trial_index": 203, "time_elapsed": 980469, "internal_node_id": "0.0-149.0"}}, {"uniqueid": "MTK0388:3DY4FPOOA2V89Z6R68681KBI3AJVRK", "current_trial": 204, "dateTime": 1510782407127, "trialdata": {"rt": -1000, "stimulus": "/static/audio/wordpool/CLOTHES.wav", "key_press": -1, "type": "PRES_AUD", "word": "clothes", "wordID": 326, "conditions": [24, 1600, "a", 12000], "trial": 5, "serialpos": 19, "trial_type": "single-audio", "trial_index": 204, "time_elapsed": 982930, "internal_node_id": "0.0-150.0"}}, {"uniqueid": "MTK0388:3DY4FPOOA2V89Z6R68681KBI3AJVRK", "current_trial": 205, "dateTime": 1510782409769, "trialdata": {"rt": -1000, "stimulus": "/static/audio/wordpool/CHEST.wav", "key_press": -1, "type": "PRES_AUD", "word": "chest", "wordID": 294, "conditions": [24, 1600, "a", 12000], "trial": 5, "serialpos": 20, "trial_type": "single-audio", "trial_index": 205, "time_elapsed": 985572, "internal_node_id": "0.0-151.0"}}, {"uniqueid": "MTK0388:3DY4FPOOA2V89Z6R68681KBI3AJVRK", "current_trial": 206, "dateTime": 1510782412220, "trialdata": {"rt": -1000, "stimulus": "/static/audio/wordpool/LAGOON.wav", "key_press": -1, "type": "PRES_AUD", "word": "lagoon", "wordID": 794, "conditions": [24, 1600, "a", 12000], "trial": 5, "serialpos": 21, "trial_type": "single-audio", "trial_index": 206, "time_elapsed": 988023, "internal_node_id": "0.0-152.0"}}, {"uniqueid": "MTK0388:3DY4FPOOA2V89Z6R68681KBI3AJVRK", "current_trial": 207, "dateTime": 1510782414629, "trialdata": {"rt": -1000, "stimulus": "/static/audio/wordpool/SEAGULL.wav", "key_press": -1, "type": "PRES_AUD", "word": "seagull", "wordID": 1260, "conditions": [24, 1600, "a", 12000], "trial": 5, "serialpos": 22, "trial_type": "single-audio", "trial_index": 207, "time_elapsed": 990432, "internal_node_id": "0.0-153.0"}}, {"uniqueid": "MTK0388:3DY4FPOOA2V89Z6R68681KBI3AJVRK", "current_trial": 208, "dateTime": 1510782417128, "trialdata": {"rt": -1000, "stimulus": "/static/audio/wordpool/FOREHEAD.wav", "key_press": -1, "type": "PRES_AUD", "word": "forehead", "wordID": 591, "conditions": [24, 1600, "a", 12000], "trial": 5, "serialpos": 23, "trial_type": "single-audio", "trial_index": 208, "time_elapsed": 992931, "internal_node_id": "0.0-154.0"}}, {"uniqueid": "MTK0388:3DY4FPOOA2V89Z6R68681KBI3AJVRK", "current_trial": 209, "dateTime": 1510782418350, "trialdata": {"rt": -1, "stimulus": "", "key_press": -1, "type": "PRE_RECALL_DELAY", "trial_type": "single-stim", "trial_index": 209, "time_elapsed": 994153, "internal_node_id": "0.0-155.0-0.0"}}, {"uniqueid": "MTK0388:3DY4FPOOA2V89Z6R68681KBI3AJVRK", "current_trial": 210, "dateTime": 1510782418851, "trialdata": {"rt": -1000, "stimulus": "/static/audio/400Hz.wav", "key_press": -1, "type": "PRE_RECALL_ALERT", "trial_type": "single-audio", "trial_index": 210, "time_elapsed": 994654, "internal_node_id": "0.0-156.0"}}, {"uniqueid": "MTK0388:3DY4FPOOA2V89Z6R68681KBI3AJVRK", "current_trial": 211, "dateTime": 1510782478857, "trialdata": {"rt": [1800, 2605, 4098, 6702, 8044, 10086, 12336, 14080, 16386, 18214, 20652, 23278, 24288, 26713, 34312, 49393], "recwords": ["toaster", "bab", "baby", "rabbit", "yarn", "seagull", "bureau", "passage", "lagoon", "chest", "forehead", "dress", "shirt", "clothes", "salmon", "toaster"], "type": "FREE_RECALL", "conditions": [24, 1600, "a", 12000], "trial": 5, "trial_type": "free-recall", "trial_index": 211, "time_elapsed": 1054657, "internal_node_id": "0.0-157.0-0.0"}}, {"uniqueid": "MTK0388:3DY4FPOOA2V89Z6R68681KBI3AJVRK", "current_trial": 212, "dateTime": 1510782482263, "trialdata": {"rt": 1405, "key_press": 32, "type": "INSTRUCTIONS", "trial_type": "text", "trial_index": 212, "time_elapsed": 1058066, "internal_node_id": "0.0-158.0"}}, {"uniqueid": "MTK0388:3DY4FPOOA2V89Z6R68681KBI3AJVRK", "current_trial": 213, "dateTime": 1510782508267, "trialdata": {"rt": [2851, 5453, 8616, 10394, 13379, 15309, 20562], "responses": ["16", "15", "9", "11", "19", "13", "18"], "num1": [5, 3, 2, 1, 6, 3, 5, 4], "num2": [2, 6, 6, 1, 8, 3, 4, 5], "num3": [9, 6, 1, 9, 5, 7, 9, 9], "type": "DISTRACTOR", "conditions": [24, 1600, "v", 24000], "trial": 6, "trial_type": "math-distractor", "trial_index": 213, "time_elapsed": 1084070, "internal_node_id": "0.0-159.0"}}, {"uniqueid": "MTK0388:3DY4FPOOA2V89Z6R68681KBI3AJVRK", "current_trial": 214, "dateTime": 1510782511269, "trialdata": {"rt": -1, "stimulus": "<p id=\"stim\">10</p>", "key_press": -1, "trial_type": "single-stim", "trial_index": 214, "time_elapsed": 1087072, "internal_node_id": "0.0-160.0-0.0"}}, {"uniqueid": "MTK0388:3DY4FPOOA2V89Z6R68681KBI3AJVRK", "current_trial": 215, "dateTime": 1510782512270, "trialdata": {"rt": -1, "stimulus": "<p id=\"stim\">9</p>", "key_press": -1, "trial_type": "single-stim", "trial_index": 215, "time_elapsed": 1088073, "internal_node_id": "0.0-160.0-1.0"}}, {"uniqueid": "MTK0388:3DY4FPOOA2V89Z6R68681KBI3AJVRK", "current_trial": 216, "dateTime": 1510782513271, "trialdata": {"rt": -1, "stimulus": "<p id=\"stim\">8</p>", "key_press": -1, "trial_type": "single-stim", "trial_index": 216, "time_elapsed": 1089074, "internal_node_id": "0.0-160.0-2.0"}}, {"uniqueid": "MTK0388:3DY4FPOOA2V89Z6R68681KBI3AJVRK", "current_trial": 217, "dateTime": 1510782514272, "trialdata": {"rt": -1, "stimulus": "<p id=\"stim\">7</p>", "key_press": -1, "trial_type": "single-stim", "trial_index": 217, "time_elapsed": 1090075, "internal_node_id": "0.0-160.0-3.0"}}, {"uniqueid": "MTK0388:3DY4FPOOA2V89Z6R68681KBI3AJVRK", "current_trial": 218, "dateTime": 1510782515272, "trialdata": {"rt": -1, "stimulus": "<p id=\"stim\">6</p>", "key_press": -1, "trial_type": "single-stim", "trial_index": 218, "time_elapsed": 1091075, "internal_node_id": "0.0-160.0-4.0"}}, {"uniqueid": "MTK0388:3DY4FPOOA2V89Z6R68681KBI3AJVRK", "current_trial": 219, "dateTime": 1510782516273, "trialdata": {"rt": -1, "stimulus": "<p id=\"stim\">5</p>", "key_press": -1, "trial_type": "single-stim", "trial_index": 219, "time_elapsed": 1092076, "internal_node_id": "0.0-160.0-5.0"}}, {"uniqueid": "MTK0388:3DY4FPOOA2V89Z6R68681KBI3AJVRK", "current_trial": 220, "dateTime": 1510782517275, "trialdata": {"rt": -1, "stimulus": "<p id=\"stim\">4</p>", "key_press": -1, "trial_type": "single-stim", "trial_index": 220, "time_elapsed": 1093078, "internal_node_id": "0.0-160.0-6.0"}}, {"uniqueid": "MTK0388:3DY4FPOOA2V89Z6R68681KBI3AJVRK", "current_trial": 221, "dateTime": 1510782518276, "trialdata": {"rt": -1, "stimulus": "<p id=\"stim\">3</p>", "key_press": -1, "trial_type": "single-stim", "trial_index": 221, "time_elapsed": 1094079, "internal_node_id": "0.0-160.0-7.0"}}, {"uniqueid": "MTK0388:3DY4FPOOA2V89Z6R68681KBI3AJVRK", "current_trial": 222, "dateTime": 1510782519277, "trialdata": {"rt": -1, "stimulus": "<p id=\"stim\">2</p>", "key_press": -1, "trial_type": "single-stim", "trial_index": 222, "time_elapsed": 1095080, "internal_node_id": "0.0-160.0-8.0"}}, {"uniqueid": "MTK0388:3DY4FPOOA2V89Z6R68681KBI3AJVRK", "current_trial": 223, "dateTime": 1510782520278, "trialdata": {"rt": -1, "stimulus": "<p id=\"stim\">1</p>", "key_press": -1, "trial_type": "single-stim", "trial_index": 223, "time_elapsed": 1096081, "internal_node_id": "0.0-160.0-9.0"}}, {"uniqueid": "MTK0388:3DY4FPOOA2V89Z6R68681KBI3AJVRK", "current_trial": 224, "dateTime": 1510782521779, "trialdata": {"rt": -1, "stimulus": "<p id=\"stim\">+</p>", "key_press": -1, "type": "FIXATION", "trial_type": "single-stim", "trial_index": 224, "time_elapsed": 1097582, "internal_node_id": "0.0-161.0-0.0"}}, {"uniqueid": "MTK0388:3DY4FPOOA2V89Z6R68681KBI3AJVRK", "current_trial": 225, "dateTime": 1510782523380, "trialdata": {"rt": -1, "stimulus": "<p id=\"stim\">SAUSAGE</p>", "key_press": -1, "type": "PRES_VIS", "word": "sausage", "wordID": 1237, "conditions": [24, 1600, "v", 24000], "trial": 6, "serialpos": 0, "trial_type": "single-stim", "trial_index": 225, "time_elapsed": 1099183, "internal_node_id": "0.0-162.0"}}, {"uniqueid": "MTK0388:3DY4FPOOA2V89Z6R68681KBI3AJVRK", "current_trial": 226, "dateTime": 1510782526141, "trialdata": {"rt": -1, "stimulus": "<p id=\"stim\">MISTER</p>", "key_press": -1, "type": "PRES_VIS", "word": "mister", "wordID": 900, "conditions": [24, 1600, "v", 24000], "trial": 6, "serialpos": 1, "trial_type": "single-stim", "trial_index": 226, "time_elapsed": 1101944, "internal_node_id": "0.0-163.0"}}, {"uniqueid": "MTK0388:3DY4FPOOA2V89Z6R68681KBI3AJVRK", "current_trial": 227, "dateTime": 1510782528575, "trialdata": {"rt": -1, "stimulus": "<p id=\"stim\">CRAYON</p>", "key_press": -1, "type": "PRES_VIS", "word": "crayon", "wordID": 400, "conditions": [24, 1600, "v", 24000], "trial": 6, "serialpos": 2, "trial_type": "single-stim", "trial_index": 227, "time_elapsed": 1104378, "internal_node_id": "0.0-164.0"}}, {"uniqueid": "MTK0388:3DY4FPOOA2V89Z6R68681KBI3AJVRK", "current_trial": 228, "dateTime": 1510782531017, "trialdata": {"rt": -1, "stimulus": "<p id=\"stim\">BEAST</p>", "key_press": -1, "type": "PRES_VIS", "word": "beast", "wordID": 107, "conditions": [24, 1600, "v", 24000], "trial": 6, "serialpos": 3, "trial_type": "single-stim", "trial_index": 228, "time_elapsed": 1106820, "internal_node_id": "0.0-165.0"}}, {"uniqueid": "MTK0388:3DY4FPOOA2V89Z6R68681KBI3AJVRK", "current_trial": 229, "dateTime": 1510782533789, "trialdata": {"rt": -1, "stimulus": "<p id=\"stim\">HONEY</p>", "key_press": -1, "type": "PRES_VIS", "word": "honey", "wordID": 712, "conditions": [24, 1600, "v", 24000], "trial": 6, "serialpos": 4, "trial_type": "single-stim", "trial_index": 229, "time_elapsed": 1109592, "internal_node_id": "0.0-166.0"}}, {"uniqueid": "MTK0388:3DY4FPOOA2V89Z6R68681KBI3AJVRK", "current_trial": 230, "dateTime": 1510782536219, "trialdata": {"rt": -1, "stimulus": "<p id=\"stim\">MOTEL</p>", "key_press": -1, "type": "PRES_VIS", "word": "motel", "wordID": 918, "conditions": [24, 1600, "v", 24000], "trial": 6, "serialpos": 5, "trial_type": "single-stim", "trial_index": 230, "time_elapsed": 1112022, "internal_node_id": "0.0-167.0"}}, {"uniqueid": "MTK0388:3DY4FPOOA2V89Z6R68681KBI3AJVRK", "current_trial": 231, "dateTime": 1510782538945, "trialdata": {"rt": -1, "stimulus": "<p id=\"stim\">COUSIN</p>", "key_press": -1, "type": "PRES_VIS", "word": "cousin", "wordID": 391, "conditions": [24, 1600, "v", 24000], "trial": 6, "serialpos": 6, "trial_type": "single-stim", "trial_index": 231, "time_elapsed": 1114747, "internal_node_id": "0.0-168.0"}}, {"uniqueid": "MTK0388:3DY4FPOOA2V89Z6R68681KBI3AJVRK", "current_trial": 232, "dateTime": 1510782541543, "trialdata": {"rt": -1, "stimulus": "<p id=\"stim\">PORK</p>", "key_press": -1, "type": "PRES_VIS", "word": "pork", "wordID": 1107, "conditions": [24, 1600, "v", 24000], "trial": 6, "serialpos": 7, "trial_type": "single-stim", "trial_index": 232, "time_elapsed": 1117346, "internal_node_id": "0.0-169.0"}}, {"uniqueid": "MTK0388:3DY4FPOOA2V89Z6R68681KBI3AJVRK", "current_trial": 233, "dateTime": 1510782544001, "trialdata": {"rt": -1, "stimulus": "<p id=\"stim\">CLAM</p>", "key_press": -1, "type": "PRES_VIS", "word": "clam", "wordID": 314, "conditions": [24, 1600, "v", 24000], "trial": 6, "serialpos": 8, "trial_type": "single-stim", "trial_index": 233, "time_elapsed": 1119804, "internal_node_id": "0.0-170.0"}}, {"uniqueid": "MTK0388:3DY4FPOOA2V89Z6R68681KBI3AJVRK", "current_trial": 234, "dateTime": 1510782546516, "trialdata": {"rt": -1, "stimulus": "<p id=\"stim\">ROD</p>", "key_press": -1, "type": "PRES_VIS", "word": "rod", "wordID": 1202, "conditions": [24, 1600, "v", 24000], "trial": 6, "serialpos": 9, "trial_type": "single-stim", "trial_index": 234, "time_elapsed": 1122319, "internal_node_id": "0.0-171.0"}}, {"uniqueid": "MTK0388:3DY4FPOOA2V89Z6R68681KBI3AJVRK", "current_trial": 235, "dateTime": 1510782549196, "trialdata": {"rt": -1, "stimulus": "<p id=\"stim\">UNCLE</p>", "key_press": -1, "type": "PRES_VIS", "word": "uncle", "wordID": 1535, "conditions": [24, 1600, "v", 24000], "trial": 6, "serialpos": 10, "trial_type": "single-stim", "trial_index": 235, "time_elapsed": 1124999, "internal_node_id": "0.0-172.0"}}, {"uniqueid": "MTK0388:3DY4FPOOA2V89Z6R68681KBI3AJVRK", "current_trial": 236, "dateTime": 1510782551686, "trialdata": {"rt": -1, "stimulus": "<p id=\"stim\">WIDOW</p>", "key_press": -1, "type": "PRES_VIS", "word": "widow", "wordID": 1607, "conditions": [24, 1600, "v", 24000], "trial": 6, "serialpos": 11, "trial_type": "single-stim", "trial_index": 236, "time_elapsed": 1127489, "internal_node_id": "0.0-173.0"}}, {"uniqueid": "MTK0388:3DY4FPOOA2V89Z6R68681KBI3AJVRK", "current_trial": 237, "dateTime": 1510782554116, "trialdata": {"rt": -1, "stimulus": "<p id=\"stim\">JURY</p>", "key_press": -1, "type": "PRES_VIS", "word": "jury", "wordID": 765, "conditions": [24, 1600, "v", 24000], "trial": 6, "serialpos": 12, "trial_type": "single-stim", "trial_index": 237, "time_elapsed": 1129919, "internal_node_id": "0.0-174.0"}}, {"uniqueid": "MTK0388:3DY4FPOOA2V89Z6R68681KBI3AJVRK", "current_trial": 238, "dateTime": 1510782556616, "trialdata": {"rt": -1, "stimulus": "<p id=\"stim\">CARRIAGE</p>", "key_press": -1, "type": "PRES_VIS", "word": "carriage", "wordID": 247, "conditions": [24, 1600, "v", 24000], "trial": 6, "serialpos": 13, "trial_type": "single-stim", "trial_index": 238, "time_elapsed": 1132419, "internal_node_id": "0.0-175.0"}}, {"uniqueid": "MTK0388:3DY4FPOOA2V89Z6R68681KBI3AJVRK", "current_trial": 239, "dateTime": 1510782559224, "trialdata": {"rt": -1, "stimulus": "<p id=\"stim\">LETTUCE</p>", "key_press": -1, "type": "PRES_VIS", "word": "lettuce", "wordID": 813, "conditions": [24, 1600, "v", 24000], "trial": 6, "serialpos": 14, "trial_type": "single-stim", "trial_index": 239, "time_elapsed": 1135027, "internal_node_id": "0.0-176.0"}}, {"uniqueid": "MTK0388:3DY4FPOOA2V89Z6R68681KBI3AJVRK", "current_trial": 240, "dateTime": 1510782561777, "trialdata": {"rt": -1, "stimulus": "<p id=\"stim\">COTTAGE</p>", "key_press": -1, "type": "PRES_VIS", "word": "cottage", "wordID": 383, "conditions": [24, 1600, "v", 24000], "trial": 6, "serialpos": 15, "trial_type": "single-stim", "trial_index": 240, "time_elapsed": 1137580, "internal_node_id": "0.0-177.0"}}, {"uniqueid": "MTK0388:3DY4FPOOA2V89Z6R68681KBI3AJVRK", "current_trial": 241, "dateTime": 1510782564360, "trialdata": {"rt": -1, "stimulus": "<p id=\"stim\">RIVER</p>", "key_press": -1, "type": "PRES_VIS", "word": "river", "wordID": 1193, "conditions": [24, 1600, "v", 24000], "trial": 6, "serialpos": 16, "trial_type": "single-stim", "trial_index": 241, "time_elapsed": 1140163, "internal_node_id": "0.0-178.0"}}, {"uniqueid": "MTK0388:3DY4FPOOA2V89Z6R68681KBI3AJVRK", "current_trial": 242, "dateTime": 1510782566943, "trialdata": {"rt": -1, "stimulus": "<p id=\"stim\">BROOK</p>", "key_press": -1, "type": "PRES_VIS", "word": "brook", "wordID": 176, "conditions": [24, 1600, "v", 24000], "trial": 6, "serialpos": 17, "trial_type": "single-stim", "trial_index": 242, "time_elapsed": 1142746, "internal_node_id": "0.0-179.0"}}, {"uniqueid": "MTK0388:3DY4FPOOA2V89Z6R68681KBI3AJVRK", "current_trial": 243, "dateTime": 1510782569473, "trialdata": {"rt": -1, "stimulus": "<p id=\"stim\">GLOVE</p>", "key_press": -1, "type": "PRES_VIS", "word": "glove", "wordID": 641, "conditions": [24, 1600, "v", 24000], "trial": 6, "serialpos": 18, "trial_type": "single-stim", "trial_index": 243, "time_elapsed": 1145276, "internal_node_id": "0.0-180.0"}}, {"uniqueid": "MTK0388:3DY4FPOOA2V89Z6R68681KBI3AJVRK", "current_trial": 244, "dateTime": 1510782571893, "trialdata": {"rt": -1, "stimulus": "<p id=\"stim\">JUDGE</p>", "key_press": -1, "type": "PRES_VIS", "word": "judge", "wordID": 760, "conditions": [24, 1600, "v", 24000], "trial": 6, "serialpos": 19, "trial_type": "single-stim", "trial_index": 244, "time_elapsed": 1147696, "internal_node_id": "0.0-181.0"}}, {"uniqueid": "MTK0388:3DY4FPOOA2V89Z6R68681KBI3AJVRK", "current_trial": 245, "dateTime": 1510782574499, "trialdata": {"rt": -1, "stimulus": "<p id=\"stim\">WAITER</p>", "key_press": -1, "type": "PRES_VIS", "word": "waiter", "wordID": 1579, "conditions": [24, 1600, "v", 24000], "trial": 6, "serialpos": 20, "trial_type": "single-stim", "trial_index": 245, "time_elapsed": 1150302, "internal_node_id": "0.0-182.0"}}, {"uniqueid": "MTK0388:3DY4FPOOA2V89Z6R68681KBI3AJVRK", "current_trial": 246, "dateTime": 1510782576985, "trialdata": {"rt": -1, "stimulus": "<p id=\"stim\">ULCER</p>", "key_press": -1, "type": "PRES_VIS", "word": "ulcer", "wordID": 1532, "conditions": [24, 1600, "v", 24000], "trial": 6, "serialpos": 21, "trial_type": "single-stim", "trial_index": 246, "time_elapsed": 1152788, "internal_node_id": "0.0-183.0"}}, {"uniqueid": "MTK0388:3DY4FPOOA2V89Z6R68681KBI3AJVRK", "current_trial": 247, "dateTime": 1510782579459, "trialdata": {"rt": -1, "stimulus": "<p id=\"stim\">AGENT</p>", "key_press": -1, "type": "PRES_VIS", "word": "agent", "wordID": 9, "conditions": [24, 1600, "v", 24000], "trial": 6, "serialpos": 22, "trial_type": "single-stim", "trial_index": 247, "time_elapsed": 1155262, "internal_node_id": "0.0-184.0"}}, {"uniqueid": "MTK0388:3DY4FPOOA2V89Z6R68681KBI3AJVRK", "current_trial": 248, "dateTime": 1510782582100, "trialdata": {"rt": -1, "stimulus": "<p id=\"stim\">CATCHER</p>", "key_press": -1, "type": "PRES_VIS", "word": "catcher", "wordID": 257, "conditions": [24, 1600, "v", 24000], "trial": 6, "serialpos": 23, "trial_type": "single-stim", "trial_index": 248, "time_elapsed": 1157903, "internal_node_id": "0.0-185.0"}}, {"uniqueid": "MTK0388:3DY4FPOOA2V89Z6R68681KBI3AJVRK", "current_trial": 249, "dateTime": 1510782584490, "trialdata": {"rt": -1, "stimulus": "", "key_press": -1, "type": "PRE_RECALL_DELAY", "trial_type": "single-stim", "trial_index": 249, "time_elapsed": 1160293, "internal_node_id": "0.0-186.0-0.0"}}, {"uniqueid": "MTK0388:3DY4FPOOA2V89Z6R68681KBI3AJVRK", "current_trial": 250, "dateTime": 1510782584991, "trialdata": {"rt": -1000, "stimulus": "/static/audio/400Hz.wav", "key_press": -1, "type": "PRE_RECALL_ALERT", "trial_type": "single-audio", "trial_index": 250, "time_elapsed": 1160794, "internal_node_id": "0.0-187.0"}}, {"uniqueid": "MTK0388:3DY4FPOOA2V89Z6R68681KBI3AJVRK", "current_trial": 251, "dateTime": 1510782644996, "trialdata": {"rt": [1662, 2934, 4125, 6466, 7720, 8588, 11265, 12868, 14836, 18358, 19683, 22192, 24824, 26578], "recwords": ["uncle", "cousin", "crayon", "beast", "mister", "pork", "sausage", "brook", "river", "cottage", "judge", "water", "agent", "ulcer"], "type": "FREE_RECALL", "conditions": [24, 1600, "v", 24000], "trial": 6, "trial_type": "free-recall", "trial_index": 251, "time_elapsed": 1220796, "internal_node_id": "0.0-188.0-0.0"}}, {"uniqueid": "MTK0388:3DY4FPOOA2V89Z6R68681KBI3AJVRK", "current_trial": 252, "dateTime": 1510782654280, "trialdata": {"rt": 7281, "key_press": 32, "type": "INSTRUCTIONS", "trial_type": "text", "trial_index": 252, "time_elapsed": 1230082, "internal_node_id": "0.0-189.0"}}, {"uniqueid": "MTK0388:3DY4FPOOA2V89Z6R68681KBI3AJVRK", "current_trial": 253, "dateTime": 1510782680283, "trialdata": {"rt": [2330, 6266, 8273, 11042, 13488, 15864, 18228, 21060], "responses": ["14", "24", "5", "16", "6", "9", "16", "23"], "num1": [8, 7, 2, 6, 1, 2, 2, 8, 5], "num2": [3, 8, 2, 9, 2, 1, 8, 7, 6], "num3": [3, 9, 1, 1, 3, 6, 6, 8, 6], "type": "DISTRACTOR", "conditions": [12, 1600, "a", 24000], "trial": 7, "trial_type": "math-distractor", "trial_index": 253, "time_elapsed": 1256086, "internal_node_id": "0.0-190.0"}}, {"uniqueid": "MTK0388:3DY4FPOOA2V89Z6R68681KBI3AJVRK", "current_trial": 254, "dateTime": 1510782683286, "trialdata": {"rt": -1, "stimulus": "<p id=\"stim\">10</p>", "key_press": -1, "trial_type": "single-stim", "trial_index": 254, "time_elapsed": 1259089, "internal_node_id": "0.0-191.0-0.0"}}, {"uniqueid": "MTK0388:3DY4FPOOA2V89Z6R68681KBI3AJVRK", "current_trial": 255, "dateTime": 1510782684287, "trialdata": {"rt": -1, "stimulus": "<p id=\"stim\">9</p>", "key_press": -1, "trial_type": "single-stim", "trial_index": 255, "time_elapsed": 1260090, "internal_node_id": "0.0-191.0-1.0"}}, {"uniqueid": "MTK0388:3DY4FPOOA2V89Z6R68681KBI3AJVRK", "current_trial": 256, "dateTime": 1510782685288, "trialdata": {"rt": -1, "stimulus": "<p id=\"stim\">8</p>", "key_press": -1, "trial_type": "single-stim", "trial_index": 256, "time_elapsed": 1261091, "internal_node_id": "0.0-191.0-2.0"}}, {"uniqueid": "MTK0388:3DY4FPOOA2V89Z6R68681KBI3AJVRK", "current_trial": 257, "dateTime": 1510782686289, "trialdata": {"rt": -1, "stimulus": "<p id=\"stim\">7</p>", "key_press": -1, "trial_type": "single-stim", "trial_index": 257, "time_elapsed": 1262092, "internal_node_id": "0.0-191.0-3.0"}}, {"uniqueid": "MTK0388:3DY4FPOOA2V89Z6R68681KBI3AJVRK", "current_trial": 258, "dateTime": 1510782687290, "trialdata": {"rt": -1, "stimulus": "<p id=\"stim\">6</p>", "key_press": -1, "trial_type": "single-stim", "trial_index": 258, "time_elapsed": 1263093, "internal_node_id": "0.0-191.0-4.0"}}, {"uniqueid": "MTK0388:3DY4FPOOA2V89Z6R68681KBI3AJVRK", "current_trial": 259, "dateTime": 1510782688291, "trialdata": {"rt": -1, "stimulus": "<p id=\"stim\">5</p>", "key_press": -1, "trial_type": "single-stim", "trial_index": 259, "time_elapsed": 1264094, "internal_node_id": "0.0-191.0-5.0"}}, {"uniqueid": "MTK0388:3DY4FPOOA2V89Z6R68681KBI3AJVRK", "current_trial": 260, "dateTime": 1510782689292, "trialdata": {"rt": -1, "stimulus": "<p id=\"stim\">4</p>", "key_press": -1, "trial_type": "single-stim", "trial_index": 260, "time_elapsed": 1265095, "internal_node_id": "0.0-191.0-6.0"}}, {"uniqueid": "MTK0388:3DY4FPOOA2V89Z6R68681KBI3AJVRK", "current_trial": 261, "dateTime": 1510782690294, "trialdata": {"rt": -1, "stimulus": "<p id=\"stim\">3</p>", "key_press": -1, "trial_type": "single-stim", "trial_index": 261, "time_elapsed": 1266096, "internal_node_id": "0.0-191.0-7.0"}}, {"uniqueid": "MTK0388:3DY4FPOOA2V89Z6R68681KBI3AJVRK", "current_trial": 262, "dateTime": 1510782691296, "trialdata": {"rt": -1, "stimulus": "<p id=\"stim\">2</p>", "key_press": -1, "trial_type": "single-stim", "trial_index": 262, "time_elapsed": 1267099, "internal_node_id": "0.0-191.0-8.0"}}, {"uniqueid": "MTK0388:3DY4FPOOA2V89Z6R68681KBI3AJVRK", "current_trial": 263, "dateTime": 1510782692297, "trialdata": {"rt": -1, "stimulus": "<p id=\"stim\">1</p>", "key_press": -1, "trial_type": "single-stim", "trial_index": 263, "time_elapsed": 1268100, "internal_node_id": "0.0-191.0-9.0"}}, {"uniqueid": "MTK0388:3DY4FPOOA2V89Z6R68681KBI3AJVRK", "current_trial": 264, "dateTime": 1510782693798, "trialdata": {"rt": -1, "stimulus": "<p id=\"stim\">+</p>", "key_press": -1, "type": "FIXATION", "trial_type": "single-stim", "trial_index": 264, "time_elapsed": 1269601, "internal_node_id": "0.0-192.0-0.0"}}, {"uniqueid": "MTK0388:3DY4FPOOA2V89Z6R68681KBI3AJVRK", "current_trial": 265, "dateTime": 1510782696340, "trialdata": {"rt": -1000, "stimulus": "/static/audio/wordpool/GYMNAST.wav", "key_press": -1, "type": "PRES_AUD", "word": "gymnast", "wordID": 674, "conditions": [12, 1600, "a", 24000], "trial": 7, "serialpos": 0, "trial_type": "single-audio", "trial_index": 265, "time_elapsed": 1272143, "internal_node_id": "0.0-193.0"}}, {"uniqueid": "MTK0388:3DY4FPOOA2V89Z6R68681KBI3AJVRK", "current_trial": 266, "dateTime": 1510782699057, "trialdata": {"rt": -1000, "stimulus": "/static/audio/wordpool/DOUGHNUT.wav", "key_press": -1, "type": "PRES_AUD", "word": "doughnut", "wordID": 489, "conditions": [12, 1600, "a", 24000], "trial": 7, "serialpos": 1, "trial_type": "single-audio", "trial_index": 266, "time_elapsed": 1274860, "internal_node_id": "0.0-194.0"}}, {"uniqueid": "MTK0388:3DY4FPOOA2V89Z6R68681KBI3AJVRK", "current_trial": 267, "dateTime": 1510782701780, "trialdata": {"rt": -1000, "stimulus": "/static/audio/wordpool/PIZZA.wav", "key_press": -1, "type": "PRES_AUD", "word": "pizza", "wordID": 1078, "conditions": [12, 1600, "a", 24000], "trial": 7, "serialpos": 2, "trial_type": "single-audio", "trial_index": 267, "time_elapsed": 1277583, "internal_node_id": "0.0-195.0"}}, {"uniqueid": "MTK0388:3DY4FPOOA2V89Z6R68681KBI3AJVRK", "current_trial": 268, "dateTime": 1510782704205, "trialdata": {"rt": -1000, "stimulus": "/static/audio/wordpool/ACTRESS.wav", "key_press": -1, "type": "PRES_AUD", "word": "actress", "wordID": 5, "conditions": [12, 1600, "a", 24000], "trial": 7, "serialpos": 3, "trial_type": "single-audio", "trial_index": 268, "time_elapsed": 1280008, "internal_node_id": "0.0-196.0"}}, {"uniqueid": "MTK0388:3DY4FPOOA2V89Z6R68681KBI3AJVRK", "current_trial": 269, "dateTime": 1510782706773, "trialdata": {"rt": -1000, "stimulus": "/static/audio/wordpool/FLAG.wav", "key_press": -1, "type": "PRES_AUD", "word": "flag", "wordID": 572, "conditions": [12, 1600, "a", 24000], "trial": 7, "serialpos": 4, "trial_type": "single-audio", "trial_index": 269, "time_elapsed": 1282576, "internal_node_id": "0.0-197.0"}}, {"uniqueid": "MTK0388:3DY4FPOO