{"condition": 0, "counterbalance": 376, "assignmentId": "3OF2M9AATHV3VFY6HLMELE20VOMZKB", "workerId": "MTK0341", "hitId": "3ZCC2DXSD7BWNAFOZCGKRVCPAPQYYL", "currenttrial": 626, "bonus": 0, "data": [{"uniqueid": "MTK0341:3OF2M9AATHV3VFY6HLMELE20VOMZKB", "current_trial": 0, "dateTime": 1510724233768, "trialdata": {"rt": 1633, "key_press": 32, "type": "INSTRUCTIONS", "trial_type": "text", "trial_index": 0, "time_elapsed": 1635, "internal_node_id": "0.0-0.0"}}, {"uniqueid": "MTK0341:3OF2M9AATHV3VFY6HLMELE20VOMZKB", "current_trial": 1, "dateTime": 1510724280005, "trialdata": {"rt": 46235, "key_press": 32, "type": "INSTRUCTIONS", "trial_type": "text", "trial_index": 1, "time_elapsed": 47872, "internal_node_id": "0.0-1.0"}}, {"uniqueid": "MTK0341:3OF2M9AATHV3VFY6HLMELE20VOMZKB", "current_trial": 2, "dateTime": 1510724299909, "trialdata": {"rt": [19894], "responses": ["ocean"], "type": "AUDIO_TEST", "trial_type": "audio-test", "trial_index": 2, "time_elapsed": 67777, "internal_node_id": "0.0-2.0"}}, {"uniqueid": "MTK0341:3OF2M9AATHV3VFY6HLMELE20VOMZKB", "current_trial": 3, "dateTime": 1510724304940, "trialdata": {"rt": [5026], "responses": ["crystal"], "type": "AUDIO_TEST", "trial_type": "audio-test", "trial_index": 3, "time_elapsed": 72808, "internal_node_id": "0.0-3.0"}}, {"uniqueid": "MTK0341:3OF2M9AATHV3VFY6HLMELE20VOMZKB", "current_trial": 4, "dateTime": 1510724309348, "trialdata": {"rt": [4403], "responses": ["spice"], "type": "AUDIO_TEST", "trial_type": "audio-test", "trial_index": 4, "time_elapsed": 77216, "internal_node_id": "0.0-4.0"}}, {"uniqueid": "MTK0341:3OF2M9AATHV3VFY6HLMELE20VOMZKB", "current_trial": 5, "dateTime": 1510724379139, "trialdata": {"rt": 69038, "responses": "{\"Q0\":\"3 AM\",\"Q1\":\"10:30 AM\",\"Q2\":\"4\"}", "type": "SLEEP_SURVEY", "trial_type": "survey-text", "trial_index": 5, "time_elapsed": 147007, "internal_node_id": "0.0-5.0"}}, {"uniqueid": "MTK0341:3OF2M9AATHV3VFY6HLMELE20VOMZKB", "current_trial": 6, "dateTime": 1510724500086, "trialdata": {"rt": 119946, "key_press": 32, "type": "INSTRUCTIONS", "trial_type": "text", "trial_index": 6, "time_elapsed": 267954, "internal_node_id": "0.0-6.0"}}, {"uniqueid": "MTK0341:3OF2M9AATHV3VFY6HLMELE20VOMZKB", "current_trial": 7, "dateTime": 1510724548814, "trialdata": {"rt": 48224, "key_press": 32, "type": "INSTRUCTIONS", "trial_type": "text", "trial_index": 7, "time_elapsed": 316682, "internal_node_id": "0.0-7.0"}}, {"uniqueid": "MTK0341:3OF2M9AATHV3VFY6HLMELE20VOMZKB", "current_trial": 8, "dateTime": 1510724584581, "trialdata": {"rt": 35265, "key_press": 32, "type": "INSTRUCTIONS", "trial_type": "text", "trial_index": 8, "time_elapsed": 352449, "internal_node_id": "0.0-8.0"}}, {"uniqueid": "MTK0341:3OF2M9AATHV3VFY6HLMELE20VOMZKB", "current_trial": 9, "dateTime": 1510724603588, "trialdata": {"rt": [4466, 6546, 12913, 17993], "responses": ["7", "12", "19", "19"], "num1": [2, 7, 4, 7, 5], "num2": [1, 2, 6, 6, 3], "num3": [4, 3, 9, 6, 8], "type": "DISTRACTOR", "conditions": [18, 1200, "v", 18000], "trial": 0, "trial_type": "math-distractor", "trial_index": 9, "time_elapsed": 371456, "internal_node_id": "0.0-9.0"}}, {"uniqueid": "MTK0341:3OF2M9AATHV3VFY6HLMELE20VOMZKB", "current_trial": 10, "dateTime": 1510724606591, "trialdata": {"rt": -1, "stimulus": "<p id=\"stim\">10</p>", "key_press": -1, "trial_type": "single-stim", "trial_index": 10, "time_elapsed": 374459, "internal_node_id": "0.0-10.0-0.0"}}, {"uniqueid": "MTK0341:3OF2M9AATHV3VFY6HLMELE20VOMZKB", "current_trial": 11, "dateTime": 1510724607594, "trialdata": {"rt": -1, "stimulus": "<p id=\"stim\">9</p>", "key_press": -1, "trial_type": "single-stim", "trial_index": 11, "time_elapsed": 375462, "internal_node_id": "0.0-10.0-1.0"}}, {"uniqueid": "MTK0341:3OF2M9AATHV3VFY6HLMELE20VOMZKB", "current_trial": 12, "dateTime": 1510724608595, "trialdata": {"rt": -1, "stimulus": "<p id=\"stim\">8</p>", "key_press": -1, "trial_type": "single-stim", "trial_index": 12, "time_elapsed": 376463, "internal_node_id": "0.0-10.0-2.0"}}, {"uniqueid": "MTK0341:3OF2M9AATHV3VFY6HLMELE20VOMZKB", "current_trial": 13, "dateTime": 1510724609597, "trialdata": {"rt": -1, "stimulus": "<p id=\"stim\">7</p>", "key_press": -1, "trial_type": "single-stim", "trial_index": 13, "time_elapsed": 377465, "internal_node_id": "0.0-10.0-3.0"}}, {"uniqueid": "MTK0341:3OF2M9AATHV3VFY6HLMELE20VOMZKB", "current_trial": 14, "dateTime": 1510724610598, "trialdata": {"rt": -1, "stimulus": "<p id=\"stim\">6</p>", "key_press": -1, "trial_type": "single-stim", "trial_index": 14, "time_elapsed": 378466, "internal_node_id": "0.0-10.0-4.0"}}, {"uniqueid": "MTK0341:3OF2M9AATHV3VFY6HLMELE20VOMZKB", "current_trial": 15, "dateTime": 1510724611600, "trialdata": {"rt": -1, "stimulus": "<p id=\"stim\">5</p>", "key_press": -1, "trial_type": "single-stim", "trial_index": 15, "time_elapsed": 379468, "internal_node_id": "0.0-10.0-5.0"}}, {"uniqueid": "MTK0341:3OF2M9AATHV3VFY6HLMELE20VOMZKB", "current_trial": 16, "dateTime": 1510724612602, "trialdata": {"rt": -1, "stimulus": "<p id=\"stim\">4</p>", "key_press": -1, "trial_type": "single-stim", "trial_index": 16, "time_elapsed": 380470, "internal_node_id": "0.0-10.0-6.0"}}, {"uniqueid": "MTK0341:3OF2M9AATHV3VFY6HLMELE20VOMZKB", "current_trial": 17, "dateTime": 1510724613604, "trialdata": {"rt": -1, "stimulus": "<p id=\"stim\">3</p>", "key_press": -1, "trial_type": "single-stim", "trial_index": 17, "time_elapsed": 381472, "internal_node_id": "0.0-10.0-7.0"}}, {"uniqueid": "MTK0341:3OF2M9AATHV3VFY6HLMELE20VOMZKB", "current_trial": 18, "dateTime": 1510724614606, "trialdata": {"rt": -1, "stimulus": "<p id=\"stim\">2</p>", "key_press": -1, "trial_type": "single-stim", "trial_index": 18, "time_elapsed": 382474, "internal_node_id": "0.0-10.0-8.0"}}, {"uniqueid": "MTK0341:3OF2M9AATHV3VFY6HLMELE20VOMZKB", "current_trial": 19, "dateTime": 1510724615607, "trialdata": {"rt": -1, "stimulus": "<p id=\"stim\">1</p>", "key_press": -1, "trial_type": "single-stim", "trial_index": 19, "time_elapsed": 383475, "internal_node_id": "0.0-10.0-9.0"}}, {"uniqueid": "MTK0341:3OF2M9AATHV3VFY6HLMELE20VOMZKB", "current_trial": 20, "dateTime": 1510724617109, "trialdata": {"rt": -1, "stimulus": "<p id=\"stim\">+</p>", "key_press": -1, "type": "FIXATION", "trial_type": "single-stim", "trial_index": 20, "time_elapsed": 384977, "internal_node_id": "0.0-11.0-0.0"}}, {"uniqueid": "MTK0341:3OF2M9AATHV3VFY6HLMELE20VOMZKB", "current_trial": 21, "dateTime": 1510724618311, "trialdata": {"rt": -1, "stimulus": "<p id=\"stim\">SKILLET</p>", "key_press": -1, "type": "PRES_VIS", "word": "skillet", "wordID": 1316, "conditions": [18, 1200, "v", 18000], "trial": 0, "serialpos": 0, "trial_type": "single-stim", "trial_index": 21, "time_elapsed": 386179, "internal_node_id": "0.0-12.0"}}, {"uniqueid": "MTK0341:3OF2M9AATHV3VFY6HLMELE20VOMZKB", "current_trial": 22, "dateTime": 1510724620456, "trialdata": {"rt": -1, "stimulus": "<p id=\"stim\">GHETTO</p>", "key_press": -1, "type": "PRES_VIS", "word": "ghetto", "wordID": 632, "conditions": [18, 1200, "v", 18000], "trial": 0, "serialpos": 1, "trial_type": "single-stim", "trial_index": 22, "time_elapsed": 388324, "internal_node_id": "0.0-13.0"}}, {"uniqueid": "MTK0341:3OF2M9AATHV3VFY6HLMELE20VOMZKB", "current_trial": 23, "dateTime": 1510724622505, "trialdata": {"rt": -1, "stimulus": "<p id=\"stim\">CHURCH</p>", "key_press": -1, "type": "PRES_VIS", "word": "church", "wordID": 306, "conditions": [18, 1200, "v", 18000], "trial": 0, "serialpos": 2, "trial_type": "single-stim", "trial_index": 23, "time_elapsed": 390373, "internal_node_id": "0.0-14.0"}}, {"uniqueid": "MTK0341:3OF2M9AATHV3VFY6HLMELE20VOMZKB", "current_trial": 24, "dateTime": 1510724624843, "trialdata": {"rt": -1, "stimulus": "<p id=\"stim\">SUNSET</p>", "key_press": -1, "type": "PRES_VIS", "word": "sunset", "wordID": 1407, "conditions": [18, 1200, "v", 18000], "trial": 0, "serialpos": 3, "trial_type": "single-stim", "trial_index": 24, "time_elapsed": 392711, "internal_node_id": "0.0-15.0"}}, {"uniqueid": "MTK0341:3OF2M9AATHV3VFY6HLMELE20VOMZKB", "current_trial": 25, "dateTime": 1510724627026, "trialdata": {"rt": -1, "stimulus": "<p id=\"stim\">RATTLE</p>", "key_press": -1, "type": "PRES_VIS", "word": "rattle", "wordID": 1169, "conditions": [18, 1200, "v", 18000], "trial": 0, "serialpos": 4, "trial_type": "single-stim", "trial_index": 25, "time_elapsed": 394894, "internal_node_id": "0.0-16.0"}}, {"uniqueid": "MTK0341:3OF2M9AATHV3VFY6HLMELE20VOMZKB", "current_trial": 26, "dateTime": 1510724629159, "trialdata": {"rt": -1, "stimulus": "<p id=\"stim\">FLAG</p>", "key_press": -1, "type": "PRES_VIS", "word": "flag", "wordID": 572, "conditions": [18, 1200, "v", 18000], "trial": 0, "serialpos": 5, "trial_type": "single-stim", "trial_index": 26, "time_elapsed": 397027, "internal_node_id": "0.0-17.0"}}, {"uniqueid": "MTK0341:3OF2M9AATHV3VFY6HLMELE20VOMZKB", "current_trial": 27, "dateTime": 1510724631411, "trialdata": {"rt": -1, "stimulus": "<p id=\"stim\">VALLEY</p>", "key_press": -1, "type": "PRES_VIS", "word": "valley", "wordID": 1544, "conditions": [18, 1200, "v", 18000], "trial": 0, "serialpos": 6, "trial_type": "single-stim", "trial_index": 27, "time_elapsed": 399278, "internal_node_id": "0.0-18.0"}}, {"uniqueid": "MTK0341:3OF2M9AATHV3VFY6HLMELE20VOMZKB", "current_trial": 28, "dateTime": 1510724633790, "trialdata": {"rt": -1, "stimulus": "<p id=\"stim\">PAPER</p>", "key_press": -1, "type": "PRES_VIS", "word": "paper", "wordID": 1010, "conditions": [18, 1200, "v", 18000], "trial": 0, "serialpos": 7, "trial_type": "single-stim", "trial_index": 28, "time_elapsed": 401658, "internal_node_id": "0.0-19.0"}}, {"uniqueid": "MTK0341:3OF2M9AATHV3VFY6HLMELE20VOMZKB", "current_trial": 29, "dateTime": 1510724636089, "trialdata": {"rt": -1, "stimulus": "<p id=\"stim\">BLUEPRINT</p>", "key_press": -1, "type": "PRES_VIS", "word": "blueprint", "wordID": 141, "conditions": [18, 1200, "v", 18000], "trial": 0, "serialpos": 8, "trial_type": "single-stim", "trial_index": 29, "time_elapsed": 403957, "internal_node_id": "0.0-20.0"}}, {"uniqueid": "MTK0341:3OF2M9AATHV3VFY6HLMELE20VOMZKB", "current_trial": 30, "dateTime": 1510724638216, "trialdata": {"rt": -1, "stimulus": "<p id=\"stim\">BADGE</p>", "key_press": -1, "type": "PRES_VIS", "word": "badge", "wordID": 67, "conditions": [18, 1200, "v", 18000], "trial": 0, "serialpos": 9, "trial_type": "single-stim", "trial_index": 30, "time_elapsed": 406084, "internal_node_id": "0.0-21.0"}}, {"uniqueid": "MTK0341:3OF2M9AATHV3VFY6HLMELE20VOMZKB", "current_trial": 31, "dateTime": 1510724640282, "trialdata": {"rt": -1, "stimulus": "<p id=\"stim\">LAGOON</p>", "key_press": -1, "type": "PRES_VIS", "word": "lagoon", "wordID": 794, "conditions": [18, 1200, "v", 18000], "trial": 0, "serialpos": 10, "trial_type": "single-stim", "trial_index": 31, "time_elapsed": 408150, "internal_node_id": "0.0-22.0"}}, {"uniqueid": "MTK0341:3OF2M9AATHV3VFY6HLMELE20VOMZKB", "current_trial": 32, "dateTime": 1510724642429, "trialdata": {"rt": -1, "stimulus": "<p id=\"stim\">OYSTER</p>", "key_press": -1, "type": "PRES_VIS", "word": "oyster", "wordID": 994, "conditions": [18, 1200, "v", 18000], "trial": 0, "serialpos": 11, "trial_type": "single-stim", "trial_index": 32, "time_elapsed": 410297, "internal_node_id": "0.0-23.0"}}, {"uniqueid": "MTK0341:3OF2M9AATHV3VFY6HLMELE20VOMZKB", "current_trial": 33, "dateTime": 1510724644446, "trialdata": {"rt": -1, "stimulus": "<p id=\"stim\">THREAD</p>", "key_press": -1, "type": "PRES_VIS", "word": "thread", "wordID": 1459, "conditions": [18, 1200, "v", 18000], "trial": 0, "serialpos": 12, "trial_type": "single-stim", "trial_index": 33, "time_elapsed": 412314, "internal_node_id": "0.0-24.0"}}, {"uniqueid": "MTK0341:3OF2M9AATHV3VFY6HLMELE20VOMZKB", "current_trial": 34, "dateTime": 1510724646668, "trialdata": {"rt": -1, "stimulus": "<p id=\"stim\">PICNIC</p>", "key_press": -1, "type": "PRES_VIS", "word": "picnic", "wordID": 1059, "conditions": [18, 1200, "v", 18000], "trial": 0, "serialpos": 13, "trial_type": "single-stim", "trial_index": 34, "time_elapsed": 414536, "internal_node_id": "0.0-25.0"}}, {"uniqueid": "MTK0341:3OF2M9AATHV3VFY6HLMELE20VOMZKB", "current_trial": 35, "dateTime": 1510724648982, "trialdata": {"rt": -1, "stimulus": "<p id=\"stim\">SCALPEL</p>", "key_press": -1, "type": "PRES_VIS", "word": "scalpel", "wordID": 1242, "conditions": [18, 1200, "v", 18000], "trial": 0, "serialpos": 14, "trial_type": "single-stim", "trial_index": 35, "time_elapsed": 416850, "internal_node_id": "0.0-26.0"}}, {"uniqueid": "MTK0341:3OF2M9AATHV3VFY6HLMELE20VOMZKB", "current_trial": 36, "dateTime": 1510724651260, "trialdata": {"rt": -1, "stimulus": "<p id=\"stim\">FLASHLIGHT</p>", "key_press": -1, "type": "PRES_VIS", "word": "flashlight", "wordID": 574, "conditions": [18, 1200, "v", 18000], "trial": 0, "serialpos": 15, "trial_type": "single-stim", "trial_index": 36, "time_elapsed": 419128, "internal_node_id": "0.0-27.0"}}, {"uniqueid": "MTK0341:3OF2M9AATHV3VFY6HLMELE20VOMZKB", "current_trial": 37, "dateTime": 1510724653446, "trialdata": {"rt": -1, "stimulus": "<p id=\"stim\">JELLY</p>", "key_press": -1, "type": "PRES_VIS", "word": "jelly", "wordID": 754, "conditions": [18, 1200, "v", 18000], "trial": 0, "serialpos": 16, "trial_type": "single-stim", "trial_index": 37, "time_elapsed": 421313, "internal_node_id": "0.0-28.0"}}, {"uniqueid": "MTK0341:3OF2M9AATHV3VFY6HLMELE20VOMZKB", "current_trial": 38, "dateTime": 1510724655779, "trialdata": {"rt": -1, "stimulus": "<p id=\"stim\">PENGUIN</p>", "key_press": -1, "type": "PRES_VIS", "word": "penguin", "wordID": 1043, "conditions": [18, 1200, "v", 18000], "trial": 0, "serialpos": 17, "trial_type": "single-stim", "trial_index": 38, "time_elapsed": 423647, "internal_node_id": "0.0-29.0"}}, {"uniqueid": "MTK0341:3OF2M9AATHV3VFY6HLMELE20VOMZKB", "current_trial": 39, "dateTime": 1510724658042, "trialdata": {"rt": -1, "stimulus": "", "key_press": -1, "type": "PRE_RECALL_DELAY", "trial_type": "single-stim", "trial_index": 39, "time_elapsed": 425910, "internal_node_id": "0.0-30.0-0.0"}}, {"uniqueid": "MTK0341:3OF2M9AATHV3VFY6HLMELE20VOMZKB", "current_trial": 40, "dateTime": 1510724658544, "trialdata": {"rt": -1000, "stimulus": "/static/audio/400Hz.wav", "key_press": -1, "type": "PRE_RECALL_ALERT", "trial_type": "single-audio", "trial_index": 40, "time_elapsed": 426412, "internal_node_id": "0.0-31.0"}}, {"uniqueid": "MTK0341:3OF2M9AATHV3VFY6HLMELE20VOMZKB", "current_trial": 41, "dateTime": 1510724718552, "trialdata": {"rt": [2800, 3840, 4537, 5680, 8577, 12144, 13703, 17208, 42791], "recwords": ["penguin", "jelly", "flag", "rattle", "badge", "church", "paper", "blueprint", "oyster"], "type": "FREE_RECALL", "conditions": [18, 1200, "v", 18000], "trial": 0, "trial_type": "free-recall", "trial_index": 41, "time_elapsed": 486417, "internal_node_id": "0.0-32.0-0.0"}}, {"uniqueid": "MTK0341:3OF2M9AATHV3VFY6HLMELE20VOMZKB", "current_trial": 42, "dateTime": 1510724722211, "trialdata": {"rt": 1654, "key_press": 32, "type": "INSTRUCTIONS", "trial_type": "text", "trial_index": 42, "time_elapsed": 490079, "internal_node_id": "0.0-33.0"}}, {"uniqueid": "MTK0341:3OF2M9AATHV3VFY6HLMELE20VOMZKB", "current_trial": 43, "dateTime": 1510724742217, "trialdata": {"rt": [4148, 7484, 9283, 12538, 15435, 17410], "responses": ["16", "20", "15", "13", "17", "7"], "num1": [9, 4, 9, 4, 7, 1, 7], "num2": [5, 9, 5, 5, 2, 2, 1], "num3": [2, 7, 1, 4, 8, 4, 5], "type": "DISTRACTOR", "conditions": [18, 1200, "a", 18000], "trial": 1, "trial_type": "math-distractor", "trial_index": 43, "time_elapsed": 510085, "internal_node_id": "0.0-34.0"}}, {"uniqueid": "MTK0341:3OF2M9AATHV3VFY6HLMELE20VOMZKB", "current_trial": 44, "dateTime": 1510724745219, "trialdata": {"rt": -1, "stimulus": "<p id=\"stim\">10</p>", "key_press": -1, "trial_type": "single-stim", "trial_index": 44, "time_elapsed": 513087, "internal_node_id": "0.0-35.0-0.0"}}, {"uniqueid": "MTK0341:3OF2M9AATHV3VFY6HLMELE20VOMZKB", "current_trial": 45, "dateTime": 1510724746221, "trialdata": {"rt": -1, "stimulus": "<p id=\"stim\">9</p>", "key_press": -1, "trial_type": "single-stim", "trial_index": 45, "time_elapsed": 514088, "internal_node_id": "0.0-35.0-1.0"}}, {"uniqueid": "MTK0341:3OF2M9AATHV3VFY6HLMELE20VOMZKB", "current_trial": 46, "dateTime": 1510724747224, "trialdata": {"rt": -1, "stimulus": "<p id=\"stim\">8</p>", "key_press": -1, "trial_type": "single-stim", "trial_index": 46, "time_elapsed": 515092, "internal_node_id": "0.0-35.0-2.0"}}, {"uniqueid": "MTK0341:3OF2M9AATHV3VFY6HLMELE20VOMZKB", "current_trial": 47, "dateTime": 1510724748227, "trialdata": {"rt": -1, "stimulus": "<p id=\"stim\">7</p>", "key_press": -1, "trial_type": "single-stim", "trial_index": 47, "time_elapsed": 516095, "internal_node_id": "0.0-35.0-3.0"}}, {"uniqueid": "MTK0341:3OF2M9AATHV3VFY6HLMELE20VOMZKB", "current_trial": 48, "dateTime": 1510724749230, "trialdata": {"rt": -1, "stimulus": "<p id=\"stim\">6</p>", "key_press": -1, "trial_type": "single-stim", "trial_index": 48, "time_elapsed": 517098, "internal_node_id": "0.0-35.0-4.0"}}, {"uniqueid": "MTK0341:3OF2M9AATHV3VFY6HLMELE20VOMZKB", "current_trial": 49, "dateTime": 1510724750231, "trialdata": {"rt": -1, "stimulus": "<p id=\"stim\">5</p>", "key_press": -1, "trial_type": "single-stim", "trial_index": 49, "time_elapsed": 518099, "internal_node_id": "0.0-35.0-5.0"}}, {"uniqueid": "MTK0341:3OF2M9AATHV3VFY6HLMELE20VOMZKB", "current_trial": 50, "dateTime": 1510724751234, "trialdata": {"rt": -1, "stimulus": "<p id=\"stim\">4</p>", "key_press": -1, "trial_type": "single-stim", "trial_index": 50, "time_elapsed": 519102, "internal_node_id": "0.0-35.0-6.0"}}, {"uniqueid": "MTK0341:3OF2M9AATHV3VFY6HLMELE20VOMZKB", "current_trial": 51, "dateTime": 1510724752238, "trialdata": {"rt": -1, "stimulus": "<p id=\"stim\">3</p>", "key_press": -1, "trial_type": "single-stim", "trial_index": 51, "time_elapsed": 520105, "internal_node_id": "0.0-35.0-7.0"}}, {"uniqueid": "MTK0341:3OF2M9AATHV3VFY6HLMELE20VOMZKB", "current_trial": 52, "dateTime": 1510724753240, "trialdata": {"rt": -1, "stimulus": "<p id=\"stim\">2</p>", "key_press": -1, "trial_type": "single-stim", "trial_index": 52, "time_elapsed": 521108, "internal_node_id": "0.0-35.0-8.0"}}, {"uniqueid": "MTK0341:3OF2M9AATHV3VFY6HLMELE20VOMZKB", "current_trial": 53, "dateTime": 1510724754241, "trialdata": {"rt": -1, "stimulus": "<p id=\"stim\">1</p>", "key_press": -1, "trial_type": "single-stim", "trial_index": 53, "time_elapsed": 522109, "internal_node_id": "0.0-35.0-9.0"}}, {"uniqueid": "MTK0341:3OF2M9AATHV3VFY6HLMELE20VOMZKB", "current_trial": 54, "dateTime": 1510724755745, "trialdata": {"rt": -1, "stimulus": "<p id=\"stim\">+</p>", "key_press": -1, "type": "FIXATION", "trial_type": "single-stim", "trial_index": 54, "time_elapsed": 523613, "internal_node_id": "0.0-36.0-0.0"}}, {"uniqueid": "MTK0341:3OF2M9AATHV3VFY6HLMELE20VOMZKB", "current_trial": 55, "dateTime": 1510724758037, "trialdata": {"rt": -1000, "stimulus": "/static/audio/wordpool/BANJO.wav", "key_press": -1, "type": "PRES_AUD", "word": "banjo", "wordID": 81, "conditions": [18, 1200, "a", 18000], "trial": 1, "serialpos": 0, "trial_type": "single-audio", "trial_index": 55, "time_elapsed": 525905, "internal_node_id": "0.0-37.0"}}, {"uniqueid": "MTK0341:3OF2M9AATHV3VFY6HLMELE20VOMZKB", "current_trial": 56, "dateTime": 1510724760362, "trialdata": {"rt": -1000, "stimulus": "/static/audio/wordpool/TOMBSTONE.wav", "key_press": -1, "type": "PRES_AUD", "word": "tombstone", "wordID": 1477, "conditions": [18, 1200, "a", 18000], "trial": 1, "serialpos": 1, "trial_type": "single-audio", "trial_index": 56, "time_elapsed": 528230, "internal_node_id": "0.0-38.0"}}, {"uniqueid": "MTK0341:3OF2M9AATHV3VFY6HLMELE20VOMZKB", "current_trial": 57, "dateTime": 1510724762549, "trialdata": {"rt": -1000, "stimulus": "/static/audio/wordpool/FOX.wav", "key_press": -1, "type": "PRES_AUD", "word": "fox", "wordID": 597, "conditions": [18, 1200, "a", 18000], "trial": 1, "serialpos": 2, "trial_type": "single-audio", "trial_index": 57, "time_elapsed": 530417, "internal_node_id": "0.0-39.0"}}, {"uniqueid": "MTK0341:3OF2M9AATHV3VFY6HLMELE20VOMZKB", "current_trial": 58, "dateTime": 1510724764668, "trialdata": {"rt": -1000, "stimulus": "/static/audio/wordpool/HEART.wav", "key_press": -1, "type": "PRES_AUD", "word": "heart", "wordID": 696, "conditions": [18, 1200, "a", 18000], "trial": 1, "serialpos": 3, "trial_type": "single-audio", "trial_index": 58, "time_elapsed": 532536, "internal_node_id": "0.0-40.0"}}, {"uniqueid": "MTK0341:3OF2M9AATHV3VFY6HLMELE20VOMZKB", "current_trial": 59, "dateTime": 1510724766702, "trialdata": {"rt": -1000, "stimulus": "/static/audio/wordpool/CUPBOARD.wav", "key_press": -1, "type": "PRES_AUD", "word": "cupboard", "wordID": 424, "conditions": [18, 1200, "a", 18000], "trial": 1, "serialpos": 4, "trial_type": "single-audio", "trial_index": 59, "time_elapsed": 534570, "internal_node_id": "0.0-41.0"}}, {"uniqueid": "MTK0341:3OF2M9AATHV3VFY6HLMELE20VOMZKB", "current_trial": 60, "dateTime": 1510724768880, "trialdata": {"rt": -1000, "stimulus": "/static/audio/wordpool/ICING.wav", "key_press": -1, "type": "PRES_AUD", "word": "icing", "wordID": 731, "conditions": [18, 1200, "a", 18000], "trial": 1, "serialpos": 5, "trial_type": "single-audio", "trial_index": 60, "time_elapsed": 536748, "internal_node_id": "0.0-42.0"}}, {"uniqueid": "MTK0341:3OF2M9AATHV3VFY6HLMELE20VOMZKB", "current_trial": 61, "dateTime": 1510724771098, "trialdata": {"rt": -1000, "stimulus": "/static/audio/wordpool/POSTAGE.wav", "key_press": -1, "type": "PRES_AUD", "word": "postage", "wordID": 1112, "conditions": [18, 1200, "a", 18000], "trial": 1, "serialpos": 6, "trial_type": "single-audio", "trial_index": 61, "time_elapsed": 538966, "internal_node_id": "0.0-43.0"}}, {"uniqueid": "MTK0341:3OF2M9AATHV3VFY6HLMELE20VOMZKB", "current_trial": 62, "dateTime": 1510724773410, "trialdata": {"rt": -1000, "stimulus": "/static/audio/wordpool/MASK.wav", "key_press": -1, "type": "PRES_AUD", "word": "mask", "wordID": 875, "conditions": [18, 1200, "a", 18000], "trial": 1, "serialpos": 7, "trial_type": "single-audio", "trial_index": 62, "time_elapsed": 541278, "internal_node_id": "0.0-44.0"}}, {"uniqueid": "MTK0341:3OF2M9AATHV3VFY6HLMELE20VOMZKB", "current_trial": 63, "dateTime": 1510724775803, "trialdata": {"rt": -1000, "stimulus": "/static/audio/wordpool/ROCKET.wav", "key_press": -1, "type": "PRES_AUD", "word": "rocket", "wordID": 1201, "conditions": [18, 1200, "a", 18000], "trial": 1, "serialpos": 8, "trial_type": "single-audio", "trial_index": 63, "time_elapsed": 543671, "internal_node_id": "0.0-45.0"}}, {"uniqueid": "MTK0341:3OF2M9AATHV3VFY6HLMELE20VOMZKB", "current_trial": 64, "dateTime": 1510724778006, "trialdata": {"rt": -1000, "stimulus": "/static/audio/wordpool/LADY.wav", "key_press": -1, "type": "PRES_AUD", "word": "lady", "wordID": 793, "conditions": [18, 1200, "a", 18000], "trial": 1, "serialpos": 9, "trial_type": "single-audio", "trial_index": 64, "time_elapsed": 545874, "internal_node_id": "0.0-46.0"}}, {"uniqueid": "MTK0341:3OF2M9AATHV3VFY6HLMELE20VOMZKB", "current_trial": 65, "dateTime": 1510724780379, "trialdata": {"rt": -1000, "stimulus": "/static/audio/wordpool/TILE.wav", "key_press": -1, "type": "PRES_AUD", "word": "tile", "wordID": 1467, "conditions": [18, 1200, "a", 18000], "trial": 1, "serialpos": 10, "trial_type": "single-audio", "trial_index": 65, "time_elapsed": 548247, "internal_node_id": "0.0-47.0"}}, {"uniqueid": "MTK0341:3OF2M9AATHV3VFY6HLMELE20VOMZKB", "current_trial": 66, "dateTime": 1510724782564, "trialdata": {"rt": -1000, "stimulus": "/static/audio/wordpool/EAGLE.wav", "key_press": -1, "type": "PRES_AUD", "word": "eagle", "wordID": 511, "conditions": [18, 1200, "a", 18000], "trial": 1, "serialpos": 11, "trial_type": "single-audio", "trial_index": 66, "time_elapsed": 550431, "internal_node_id": "0.0-48.0"}}, {"uniqueid": "MTK0341:3OF2M9AATHV3VFY6HLMELE20VOMZKB", "current_trial": 67, "dateTime": 1510724784805, "trialdata": {"rt": -1000, "stimulus": "/static/audio/wordpool/GUITAR.wav", "key_press": -1, "type": "PRES_AUD", "word": "guitar", "wordID": 669, "conditions": [18, 1200, "a", 18000], "trial": 1, "serialpos": 12, "trial_type": "single-audio", "trial_index": 67, "time_elapsed": 552673, "internal_node_id": "0.0-49.0"}}, {"uniqueid": "MTK0341:3OF2M9AATHV3VFY6HLMELE20VOMZKB", "current_trial": 68, "dateTime": 1510724786995, "trialdata": {"rt": -1000, "stimulus": "/static/audio/wordpool/MONEY.wav", "key_press": -1, "type": "PRES_AUD", "word": "money", "wordID": 907, "conditions": [18, 1200, "a", 18000], "trial": 1, "serialpos": 13, "trial_type": "single-audio", "trial_index": 68, "time_elapsed": 554860, "internal_node_id": "0.0-50.0"}}, {"uniqueid": "MTK0341:3OF2M9AATHV3VFY6HLMELE20VOMZKB", "current_trial": 69, "dateTime": 1510724789012, "trialdata": {"rt": -1000, "stimulus": "/static/audio/wordpool/WASHER.wav", "key_press": -1, "type": "PRES_AUD", "word": "washer", "wordID": 1591, "conditions": [18, 1200, "a", 18000], "trial": 1, "serialpos": 14, "trial_type": "single-audio", "trial_index": 69, "time_elapsed": 556880, "internal_node_id": "0.0-51.0"}}, {"uniqueid": "MTK0341:3OF2M9AATHV3VFY6HLMELE20VOMZKB", "current_trial": 70, "dateTime": 1510724791295, "trialdata": {"rt": -1000, "stimulus": "/static/audio/wordpool/WHISKERS.wav", "key_press": -1, "type": "PRES_AUD", "word": "whiskers", "wordID": 1604, "conditions": [18, 1200, "a", 18000], "trial": 1, "serialpos": 15, "trial_type": "single-audio", "trial_index": 70, "time_elapsed": 559163, "internal_node_id": "0.0-52.0"}}, {"uniqueid": "MTK0341:3OF2M9AATHV3VFY6HLMELE20VOMZKB", "current_trial": 71, "dateTime": 1510724793623, "trialdata": {"rt": -1000, "stimulus": "/static/audio/wordpool/BUG.wav", "key_press": -1, "type": "PRES_AUD", "word": "bug", "wordID": 186, "conditions": [18, 1200, "a", 18000], "trial": 1, "serialpos": 16, "trial_type": "single-audio", "trial_index": 71, "time_elapsed": 561491, "internal_node_id": "0.0-53.0"}}, {"uniqueid": "MTK0341:3OF2M9AATHV3VFY6HLMELE20VOMZKB", "current_trial": 72, "dateTime": 1510724795805, "trialdata": {"rt": -1000, "stimulus": "/static/audio/wordpool/GUARD.wav", "key_press": -1, "type": "PRES_AUD", "word": "guard", "wordID": 666, "conditions": [18, 1200, "a", 18000], "trial": 1, "serialpos": 17, "trial_type": "single-audio", "trial_index": 72, "time_elapsed": 563673, "internal_node_id": "0.0-54.0"}}, {"uniqueid": "MTK0341:3OF2M9AATHV3VFY6HLMELE20VOMZKB", "current_trial": 73, "dateTime": 1510724797042, "trialdata": {"rt": -1, "stimulus": "", "key_press": -1, "type": "PRE_RECALL_DELAY", "trial_type": "single-stim", "trial_index": 73, "time_elapsed": 564910, "internal_node_id": "0.0-55.0-0.0"}}, {"uniqueid": "MTK0341:3OF2M9AATHV3VFY6HLMELE20VOMZKB", "current_trial": 74, "dateTime": 1510724797543, "trialdata": {"rt": -1000, "stimulus": "/static/audio/400Hz.wav", "key_press": -1, "type": "PRE_RECALL_ALERT", "trial_type": "single-audio", "trial_index": 74, "time_elapsed": 565411, "internal_node_id": "0.0-56.0"}}, {"uniqueid": "MTK0341:3OF2M9AATHV3VFY6HLMELE20VOMZKB", "current_trial": 75, "dateTime": 1510724857546, "trialdata": {"rt": [2862, 3967, 4815, 5799, 7984, 11528, 13015, 45613, 54709, 58501], "recwords": ["lady", "guitar", "guard", "whiskers", "bug", "washer", "icing", "fox", "rocket", "cupboard"], "type": "FREE_RECALL", "conditions": [18, 1200, "a", 18000], "trial": 1, "trial_type": "free-recall", "trial_index": 75, "time_elapsed": 625412, "internal_node_id": "0.0-57.0-0.0"}}, {"uniqueid": "MTK0341:3OF2M9AATHV3VFY6HLMELE20VOMZKB", "current_trial": 76, "dateTime": 1510724870055, "trialdata": {"rt": 10503, "key_press": 32, "type": "INSTRUCTIONS", "trial_type": "text", "trial_index": 76, "time_elapsed": 637919, "internal_node_id": "0.0-58.0"}}, {"uniqueid": "MTK0341:3OF2M9AATHV3VFY6HLMELE20VOMZKB", "current_trial": 77, "dateTime": 1510724895061, "trialdata": {"rt": [4698, 8738, 10274, 12234, 14138, 18577, 21841], "responses": ["16", "18", "7", "14", "17", "15", "12"], "num1": [4, 7, 3, 2, 3, 5, 2, 3], "num2": [7, 6, 3, 8, 6, 9, 1, 3], "num3": [4, 5, 1, 4, 8, 1, 9, 7], "type": "DISTRACTOR", "conditions": [12, 800, "a", 24000], "trial": 2, "trial_type": "math-distractor", "trial_index": 77, "time_elapsed": 662928, "internal_node_id": "0.0-59.0"}}, {"uniqueid": "MTK0341:3OF2M9AATHV3VFY6HLMELE20VOMZKB", "current_trial": 78, "dateTime": 1510724898064, "trialdata": {"rt": -1, "stimulus": "<p id=\"stim\">10</p>", "key_press": -1, "trial_type": "single-stim", "trial_index": 78, "time_elapsed": 665932, "internal_node_id": "0.0-60.0-0.0"}}, {"uniqueid": "MTK0341:3OF2M9AATHV3VFY6HLMELE20VOMZKB", "current_trial": 79, "dateTime": 1510724899065, "trialdata": {"rt": -1, "stimulus": "<p id=\"stim\">9</p>", "key_press": -1, "trial_type": "single-stim", "trial_index": 79, "time_elapsed": 666933, "internal_node_id": "0.0-60.0-1.0"}}, {"uniqueid": "MTK0341:3OF2M9AATHV3VFY6HLMELE20VOMZKB", "current_trial": 80, "dateTime": 1510724900067, "trialdata": {"rt": -1, "stimulus": "<p id=\"stim\">8</p>", "key_press": -1, "trial_type": "single-stim", "trial_index": 80, "time_elapsed": 667934, "internal_node_id": "0.0-60.0-2.0"}}, {"uniqueid": "MTK0341:3OF2M9AATHV3VFY6HLMELE20VOMZKB", "current_trial": 81, "dateTime": 1510724901067, "trialdata": {"rt": -1, "stimulus": "<p id=\"stim\">7</p>", "key_press": -1, "trial_type": "single-stim", "trial_index": 81, "time_elapsed": 668935, "internal_node_id": "0.0-60.0-3.0"}}, {"uniqueid": "MTK0341:3OF2M9AATHV3VFY6HLMELE20VOMZKB", "current_trial": 82, "dateTime": 1510724902069, "trialdata": {"rt": -1, "stimulus": "<p id=\"stim\">6</p>", "key_press": -1, "trial_type": "single-stim", "trial_index": 82, "time_elapsed": 669937, "internal_node_id": "0.0-60.0-4.0"}}, {"uniqueid": "MTK0341:3OF2M9AATHV3VFY6HLMELE20VOMZKB", "current_trial": 83, "dateTime": 1510724903070, "trialdata": {"rt": -1, "stimulus": "<p id=\"stim\">5</p>", "key_press": -1, "trial_type": "single-stim", "trial_index": 83, "time_elapsed": 670938, "internal_node_id": "0.0-60.0-5.0"}}, {"uniqueid": "MTK0341:3OF2M9AATHV3VFY6HLMELE20VOMZKB", "current_trial": 84, "dateTime": 1510724904071, "trialdata": {"rt": -1, "stimulus": "<p id=\"stim\">4</p>", "key_press": -1, "trial_type": "single-stim", "trial_index": 84, "time_elapsed": 671939, "internal_node_id": "0.0-60.0-6.0"}}, {"uniqueid": "MTK0341:3OF2M9AATHV3VFY6HLMELE20VOMZKB", "current_trial": 85, "dateTime": 1510724905072, "trialdata": {"rt": -1, "stimulus": "<p id=\"stim\">3</p>", "key_press": -1, "trial_type": "single-stim", "trial_index": 85, "time_elapsed": 672940, "internal_node_id": "0.0-60.0-7.0"}}, {"uniqueid": "MTK0341:3OF2M9AATHV3VFY6HLMELE20VOMZKB", "current_trial": 86, "dateTime": 1510724906073, "trialdata": {"rt": -1, "stimulus": "<p id=\"stim\">2</p>", "key_press": -1, "trial_type": "single-stim", "trial_index": 86, "time_elapsed": 673941, "internal_node_id": "0.0-60.0-8.0"}}, {"uniqueid": "MTK0341:3OF2M9AATHV3VFY6HLMELE20VOMZKB", "current_trial": 87, "dateTime": 1510724907074, "trialdata": {"rt": -1, "stimulus": "<p id=\"stim\">1</p>", "key_press": -1, "trial_type": "single-stim", "trial_index": 87, "time_elapsed": 674942, "internal_node_id": "0.0-60.0-9.0"}}, {"uniqueid": "MTK0341:3OF2M9AATHV3VFY6HLMELE20VOMZKB", "current_trial": 88, "dateTime": 1510724908575, "trialdata": {"rt": -1, "stimulus": "<p id=\"stim\">+</p>", "key_press": -1, "type": "FIXATION", "trial_type": "single-stim", "trial_index": 88, "time_elapsed": 676442, "internal_node_id": "0.0-61.0-0.0"}}, {"uniqueid": "MTK0341:3OF2M9AATHV3VFY6HLMELE20VOMZKB", "current_trial": 89, "dateTime": 1510724910312, "trialdata": {"rt": -1000, "stimulus": "/static/audio/wordpool/HELMET.wav", "key_press": -1, "type": "PRES_AUD", "word": "helmet", "wordID": 701, "conditions": [12, 800, "a", 24000], "trial": 2, "serialpos": 0, "trial_type": "single-audio", "trial_index": 89, "time_elapsed": 678180, "internal_node_id": "0.0-62.0"}}, {"uniqueid": "MTK0341:3OF2M9AATHV3VFY6HLMELE20VOMZKB", "current_trial": 90, "dateTime": 1510724911920, "trialdata": {"rt": -1000, "stimulus": "/static/audio/wordpool/ISLAND.wav", "key_press": -1, "type": "PRES_AUD", "word": "island", "wordID": 744, "conditions": [12, 800, "a", 24000], "trial": 2, "serialpos": 1, "trial_type": "single-audio", "trial_index": 90, "time_elapsed": 679788, "internal_node_id": "0.0-63.0"}}, {"uniqueid": "MTK0341:3OF2M9AATHV3VFY6HLMELE20VOMZKB", "current_trial": 91, "dateTime": 1510724913745, "trialdata": {"rt": -1000, "stimulus": "/static/audio/wordpool/PERMIT.wav", "key_press": -1, "type": "PRES_AUD", "word": "permit", "wordID": 1050, "conditions": [12, 800, "a", 24000], "trial": 2, "serialpos": 2, "trial_type": "single-audio", "trial_index": 91, "time_elapsed": 681613, "internal_node_id": "0.0-64.0"}}, {"uniqueid": "MTK0341:3OF2M9AATHV3VFY6HLMELE20VOMZKB", "current_trial": 92, "dateTime": 1510724915656, "trialdata": {"rt": -1000, "stimulus": "/static/audio/wordpool/LIZARD.wav", "key_press": -1, "type": "PRES_AUD", "word": "lizard", "wordID": 833, "conditions": [12, 800, "a", 24000], "trial": 2, "serialpos": 3, "trial_type": "single-audio", "trial_index": 92, "time_elapsed": 683524, "internal_node_id": "0.0-65.0"}}, {"uniqueid": "MTK0341:3OF2M9AATHV3VFY6HLMELE20VOMZKB", "current_trial": 93, "dateTime": 1510724917329, "trialdata": {"rt": -1000, "stimulus": "/static/audio/wordpool/SPOON.wav", "key_press": -1, "type": "PRES_AUD", "word": "spoon", "wordID": 1356, "conditions": [12, 800, "a", 24000], "trial": 2, "serialpos": 4, "trial_type": "single-audio", "trial_index": 93, "time_elapsed": 685197, "internal_node_id": "0.0-66.0"}}, {"uniqueid": "MTK0341:3OF2M9AATHV3VFY6HLMELE20VOMZKB", "current_trial": 94, "dateTime": 1510724919278, "trialdata": {"rt": -1000, "stimulus": "/static/audio/wordpool/GYMNAST.wav", "key_press": -1, "type": "PRES_AUD", "word": "gymnast", "wordID": 674, "conditions": [12, 800, "a", 24000], "trial": 2, "serialpos": 5, "trial_type": "single-audio", "trial_index": 94, "time_elapsed": 687146, "internal_node_id": "0.0-67.0"}}, {"uniqueid": "MTK0341:3OF2M9AATHV3VFY6HLMELE20VOMZKB", "current_trial": 95, "dateTime": 1510724921102, "trialdata": {"rt": -1000, "stimulus": "/static/audio/wordpool/CHIPMUNK.wav", "key_press": -1, "type": "PRES_AUD", "word": "chipmunk", "wordID": 303, "conditions": [12, 800, "a", 24000], "trial": 2, "serialpos": 6, "trial_type": "single-audio", "trial_index": 95, "time_elapsed": 688970, "internal_node_id": "0.0-68.0"}}, {"uniqueid": "MTK0341:3OF2M9AATHV3VFY6HLMELE20VOMZKB", "current_trial": 96, "dateTime": 1510724922958, "trialdata": {"rt": -1000, "stimulus": "/static/audio/wordpool/COOK.wav", "key_press": -1, "type": "PRES_AUD", "word": "cook", "wordID": 371, "conditions": [12, 800, "a", 24000], "trial": 2, "serialpos": 7, "trial_type": "single-audio", "trial_index": 96, "time_elapsed": 690826, "internal_node_id": "0.0-69.0"}}, {"uniqueid": "MTK0341:3OF2M9AATHV3VFY6HLMELE20VOMZKB", "current_trial": 97, "dateTime": 1510724924625, "trialdata": {"rt": -1000, "stimulus": "/static/audio/wordpool/OZONE.wav", "key_press": -1, "type": "PRES_AUD", "word": "ozone", "wordID": 995, "conditions": [12, 800, "a", 24000], "trial": 2, "serialpos": 8, "trial_type": "single-audio", "trial_index": 97, "time_elapsed": 692492, "internal_node_id": "0.0-70.0"}}, {"uniqueid": "MTK0341:3OF2M9AATHV3VFY6HLMELE20VOMZKB", "current_trial": 98, "dateTime": 1510724926472, "trialdata": {"rt": -1000, "stimulus": "/static/audio/wordpool/SMOG.wav", "key_press": -1, "type": "PRES_AUD", "word": "smog", "wordID": 1329, "conditions": [12, 800, "a", 24000], "trial": 2, "serialpos": 9, "trial_type": "single-audio", "trial_index": 98, "time_elapsed": 694340, "internal_node_id": "0.0-71.0"}}, {"uniqueid": "MTK0341:3OF2M9AATHV3VFY6HLMELE20VOMZKB", "current_trial": 99, "dateTime": 1510724928221, "trialdata": {"rt": -1000, "stimulus": "/static/audio/wordpool/PORTRAIT.wav", "key_press": -1, "type": "PRES_AUD", "word": "portrait", "wordID": 1110, "conditions": [12, 800, "a", 24000], "trial": 2, "serialpos": 10, "trial_type": "single-audio", "trial_index": 99, "time_elapsed": 696089, "internal_node_id": "0.0-72.0"}}, {"uniqueid": "MTK0341:3OF2M9AATHV3VFY6HLMELE20VOMZKB", "current_trial": 100, "dateTime": 1510724930136, "trialdata": {"rt": -1000, "stimulus": "/static/audio/wordpool/GRILL.wav", "key_press": -1, "type": "PRES_AUD", "word": "grill", "wordID": 660, "conditions": [12, 800, "a", 24000], "trial": 2, "serialpos": 11, "trial_type": "single-audio", "trial_index": 100, "time_elapsed": 698004, "internal_node_id": "0.0-73.0"}}, {"uniqueid": "MTK0341:3OF2M9AATHV3VFY6HLMELE20VOMZKB", "current_trial": 101, "dateTime": 1510724931449, "trialdata": {"rt": -1, "stimulus": "", "key_press": -1, "type": "PRE_RECALL_DELAY", "trial_type": "single-stim", "trial_index": 101, "time_elapsed": 699317, "internal_node_id": "0.0-74.0-0.0"}}, {"uniqueid": "MTK0341:3OF2M9AATHV3VFY6HLMELE20VOMZKB", "current_trial": 102, "dateTime": 1510724931950, "trialdata": {"rt": -1000, "stimulus": "/static/audio/400Hz.wav", "key_press": -1, "type": "PRE_RECALL_ALERT", "trial_type": "single-audio", "trial_index": 102, "time_elapsed": 699818, "internal_node_id": "0.0-75.0"}}, {"uniqueid": "MTK0341:3OF2M9AATHV3VFY6HLMELE20VOMZKB", "current_trial": 103, "dateTime": 1510724992357, "trialdata": {"rt": [2533, 5269, 6317, 7204, 8972, 10900, 25861], "recwords": ["grill", "portrait", "ozone", "smog", "lizard", "spoon", "helmet"], "type": "FREE_RECALL", "conditions": [12, 800, "a", 24000], "trial": 2, "trial_type": "free-recall", "trial_index": 103, "time_elapsed": 760222, "internal_node_id": "0.0-76.0-0.0"}}, {"uniqueid": "MTK0341:3OF2M9AATHV3VFY6HLMELE20VOMZKB", "current_trial": 104, "dateTime": 1510725021684, "trialdata": {"rt": 26330, "key_press": 32, "type": "INSTRUCTIONS", "trial_type": "text", "trial_index": 104, "time_elapsed": 789551, "internal_node_id": "0.0-77.0"}}, {"uniqueid": "MTK0341:3OF2M9AATHV3VFY6HLMELE20VOMZKB", "current_trial": 105, "dateTime": 1510725047689, "trialdata": {"rt": [2755, 5771, 8211, 11090, 12794, 14706, 16475, 19874, 23747], "responses": ["15", "19", "15", "16", "18", "10", "5", "18", "20"], "num1": [3, 6, 7, 8, 7, 6, 3, 9, 9, 1], "num2": [3, 8, 6, 3, 3, 1, 1, 5, 3, 4], "num3": [9, 5, 2, 5, 8, 3, 1, 4, 8, 1], "type": "DISTRACTOR", "conditions": [24, 800, "a", 24000], "trial": 3, "trial_type": "math-distractor", "trial_index": 105, "time_elapsed": 815556, "internal_node_id": "0.0-78.0"}}, {"uniqueid": "MTK0341:3OF2M9AATHV3VFY6HLMELE20VOMZKB", "current_trial": 106, "dateTime": 1510725050694, "trialdata": {"rt": -1, "stimulus": "<p id=\"stim\">10</p>", "key_press": -1, "trial_type": "single-stim", "trial_index": 106, "time_elapsed": 818562, "internal_node_id": "0.0-79.0-0.0"}}, {"uniqueid": "MTK0341:3OF2M9AATHV3VFY6HLMELE20VOMZKB", "current_trial": 107, "dateTime": 1510725051696, "trialdata": {"rt": -1, "stimulus": "<p id=\"stim\">9</p>", "key_press": -1, "trial_type": "single-stim", "trial_index": 107, "time_elapsed": 819564, "internal_node_id": "0.0-79.0-1.0"}}, {"uniqueid": "MTK0341:3OF2M9AATHV3VFY6HLMELE20VOMZKB", "current_trial": 108, "dateTime": 1510725052700, "trialdata": {"rt": -1, "stimulus": "<p id=\"stim\">8</p>", "key_press": -1, "trial_type": "single-stim", "trial_index": 108, "time_elapsed": 820567, "internal_node_id": "0.0-79.0-2.0"}}, {"uniqueid": "MTK0341:3OF2M9AATHV3VFY6HLMELE20VOMZKB", "current_trial": 109, "dateTime": 1510725053701, "trialdata": {"rt": -1, "stimulus": "<p id=\"stim\">7</p>", "key_press": -1, "trial_type": "single-stim", "trial_index": 109, "time_elapsed": 821568, "internal_node_id": "0.0-79.0-3.0"}}, {"uniqueid": "MTK0341:3OF2M9AATHV3VFY6HLMELE20VOMZKB", "current_trial": 110, "dateTime": 1510725054703, "trialdata": {"rt": -1, "stimulus": "<p id=\"stim\">6</p>", "key_press": -1, "trial_type": "single-stim", "trial_index": 110, "time_elapsed": 822570, "internal_node_id": "0.0-79.0-4.0"}}, {"uniqueid": "MTK0341:3OF2M9AATHV3VFY6HLMELE20VOMZKB", "current_trial": 111, "dateTime": 1510725055705, "trialdata": {"rt": -1, "stimulus": "<p id=\"stim\">5</p>", "key_press": -1, "trial_type": "single-stim", "trial_index": 111, "time_elapsed": 823573, "internal_node_id": "0.0-79.0-5.0"}}, {"uniqueid": "MTK0341:3OF2M9AATHV3VFY6HLMELE20VOMZKB", "current_trial": 112, "dateTime": 1510725056706, "trialdata": {"rt": -1, "stimulus": "<p id=\"stim\">4</p>", "key_press": -1, "trial_type": "single-stim", "trial_index": 112, "time_elapsed": 824574, "internal_node_id": "0.0-79.0-6.0"}}, {"uniqueid": "MTK0341:3OF2M9AATHV3VFY6HLMELE20VOMZKB", "current_trial": 113, "dateTime": 1510725057710, "trialdata": {"rt": -1, "stimulus": "<p id=\"stim\">3</p>", "key_press": -1, "trial_type": "single-stim", "trial_index": 113, "time_elapsed": 825578, "internal_node_id": "0.0-79.0-7.0"}}, {"uniqueid": "MTK0341:3OF2M9AATHV3VFY6HLMELE20VOMZKB", "current_trial": 114, "dateTime": 1510725058712, "trialdata": {"rt": -1, "stimulus": "<p id=\"stim\">2</p>", "key_press": -1, "trial_type": "single-stim", "trial_index": 114, "time_elapsed": 826580, "internal_node_id": "0.0-79.0-8.0"}}, {"uniqueid": "MTK0341:3OF2M9AATHV3VFY6HLMELE20VOMZKB", "current_trial": 115, "dateTime": 1510725059714, "trialdata": {"rt": -1, "stimulus": "<p id=\"stim\">1</p>", "key_press": -1, "trial_type": "single-stim", "trial_index": 115, "time_elapsed": 827582, "internal_node_id": "0.0-79.0-9.0"}}, {"uniqueid": "MTK0341:3OF2M9AATHV3VFY6HLMELE20VOMZKB", "current_trial": 116, "dateTime": 1510725061217, "trialdata": {"rt": -1, "stimulus": "<p id=\"stim\">+</p>", "key_press": -1, "type": "FIXATION", "trial_type": "single-stim", "trial_index": 116, "time_elapsed": 829085, "internal_node_id": "0.0-80.0-0.0"}}, {"uniqueid": "MTK0341:3OF2M9AATHV3VFY6HLMELE20VOMZKB", "current_trial": 117, "dateTime": 1510725063167, "trialdata": {"rt": -1000, "stimulus": "/static/audio/wordpool/KNIFE.wav", "key_press": -1, "type": "PRES_AUD", "word": "knife", "wordID": 784, "conditions": [24, 800, "a", 24000], "trial": 3, "serialpos": 0, "trial_type": "single-audio", "trial_index": 117, "time_elapsed": 831035, "internal_node_id": "0.0-81.0"}}, {"uniqueid": "MTK0341:3OF2M9AATHV3VFY6HLMELE20VOMZKB", "current_trial": 118, "dateTime": 1510725064922, "trialdata": {"rt": -1000, "stimulus": "/static/audio/wordpool/SAUSAGE.wav", "key_press": -1, "type": "PRES_AUD", "word": "sausage", "wordID": 1237, "conditions": [24, 800, "a", 24000], "trial": 3, "serialpos": 1, "trial_type": "single-audio", "trial_index": 118, "time_elapsed": 832790, "internal_node_id": "0.0-82.0"}}, {"uniqueid": "MTK0341:3OF2M9AATHV3VFY6HLMELE20VOMZKB", "current_trial": 119, "dateTime": 1510725066845, "trialdata": {"rt": -1000, "stimulus": "/static/audio/wordpool/STAPLE.wav", "key_press": -1, "type": "PRES_AUD", "word": "staple", "wordID": 1370, "conditions": [24, 800, "a", 24000], "trial": 3, "serialpos": 2, "trial_type": "single-audio", "trial_index": 119, "time_elapsed": 834713, "internal_node_id": "0.0-83.0"}}, {"uniqueid": "MTK0341:3OF2M9AATHV3VFY6HLMELE20VOMZKB", "current_trial": 120, "dateTime": 1510725068571, "trialdata": {"rt": -1000, "stimulus": "/static/audio/wordpool/FREEZER.wav", "key_press": -1, "type": "PRES_AUD", "word": "freezer", "wordID": 603, "conditions": [24, 800, "a", 24000], "trial": 3, "serialpos": 3, "trial_type": "single-audio", "trial_index": 120, "time_elapsed": 836439, "internal_node_id": "0.0-84.0"}}, {"uniqueid": "MTK0341:3OF2M9AATHV3VFY6HLMELE20VOMZKB", "current_trial": 121, "dateTime": 1510725070340, "trialdata": {"rt": -1000, "stimulus": "/static/audio/wordpool/HANDBAG.wav", "key_press": -1, "type": "PRES_AUD", "word": "handbag", "wordID": 683, "conditions": [24, 800, "a", 24000], "trial": 3, "serialpos": 4, "trial_type": "single-audio", "trial_index": 121, "time_elapsed": 838208, "internal_node_id": "0.0-85.0"}}, {"uniqueid": "MTK0341:3OF2M9AATHV3VFY6HLMELE20VOMZKB", "current_trial": 122, "dateTime": 1510725072140, "trialdata": {"rt": -1000, "stimulus": "/static/audio/wordpool/COCOON.wav", "key_press": -1, "type": "PRES_AUD", "word": "cocoon", "wordID": 338, "conditions": [24, 800, "a", 24000], "trial": 3, "serialpos": 5, "trial_type": "single-audio", "trial_index": 122, "time_elapsed": 840008, "internal_node_id": "0.0-86.0"}}, {"uniqueid": "MTK0341:3OF2M9AATHV3VFY6HLMELE20VOMZKB", "current_trial": 123, "dateTime": 1510725074011, "trialdata": {"rt": -1000, "stimulus": "/static/audio/wordpool/BACKBONE.wav", "key_press": -1, "type": "PRES_AUD", "word": "backbone", "wordID": 65, "conditions": [24, 800, "a", 24000], "trial": 3, "serialpos": 6, "trial_type": "single-audio", "trial_index": 123, "time_elapsed": 841879, "internal_node_id": "0.0-87.0"}}, {"uniqueid": "MTK0341:3OF2M9AATHV3VFY6HLMELE20VOMZKB", "current_trial": 124, "dateTime": 1510725075644, "trialdata": {"rt": -1000, "stimulus": "/static/audio/wordpool/NECKLACE.wav", "key_press": -1, "type": "PRES_AUD", "word": "necklace", "wordID": 939, "conditions": [24, 800, "a", 24000], "trial": 3, "serialpos": 7, "trial_type": "single-audio", "trial_index": 124, "time_elapsed": 843510, "internal_node_id": "0.0-88.0"}}, {"uniqueid": "MTK0341:3OF2M9AATHV3VFY6HLMELE20VOMZKB", "current_trial": 125, "dateTime": 1510725077542, "trialdata": {"rt": -1000, "stimulus": "/static/audio/wordpool/CATTLE.wav", "key_press": -1, "type": "PRES_AUD", "word": "cattle", "wordID": 260, "conditions": [24, 800, "a", 24000], "trial": 3, "serialpos": 8, "trial_type": "single-audio", "trial_index": 125, "time_elapsed": 845409, "internal_node_id": "0.0-89.0"}}, {"uniqueid": "MTK0341:3OF2M9AATHV3VFY6HLMELE20VOMZKB", "current_trial": 126, "dateTime": 1510725079224, "trialdata": {"rt": -1000, "stimulus": "/static/audio/wordpool/BRICK.wav", "key_press": -1, "type": "PRES_AUD", "word": "brick", "wordID": 171, "conditions": [24, 800, "a", 24000], "trial": 3, "serialpos": 9, "trial_type": "single-audio", "trial_index": 126, "time_elapsed": 847092, "internal_node_id": "0.0-90.0"}}, {"uniqueid": "MTK0341:3OF2M9AATHV3VFY6HLMELE20VOMZKB", "current_trial": 127, "dateTime": 1510725080876, "trialdata": {"rt": -1000, "stimulus": "/static/audio/wordpool/PLAID.wav", "key_press": -1, "type": "PRES_AUD", "word": "plaid", "wordID": 1079, "conditions": [24, 800, "a", 24000], "trial": 3, "serialpos": 10, "trial_type": "single-audio", "trial_index": 127, "time_elapsed": 848744, "internal_node_id": "0.0-91.0"}}, {"uniqueid": "MTK0341:3OF2M9AATHV3VFY6HLMELE20VOMZKB", "current_trial": 128, "dateTime": 1510725082856, "trialdata": {"rt": -1000, "stimulus": "/static/audio/wordpool/DENIM.wav", "key_press": -1, "type": "PRES_AUD", "word": "denim", "wordID": 445, "conditions": [24, 800, "a", 24000], "trial": 3, "serialpos": 11, "trial_type": "single-audio", "trial_index": 128, "time_elapsed": 850724, "internal_node_id": "0.0-92.0"}}, {"uniqueid": "MTK0341:3OF2M9AATHV3VFY6HLMELE20VOMZKB", "current_trial": 129, "dateTime": 1510725084581, "trialdata": {"rt": -1000, "stimulus": "/static/audio/wordpool/LEOPARD.wav", "key_press": -1, "type": "PRES_AUD", "word": "leopard", "wordID": 811, "conditions": [24, 800, "a", 24000], "trial": 3, "serialpos": 12, "trial_type": "single-audio", "trial_index": 129, "time_elapsed": 852448, "internal_node_id": "0.0-93.0"}}, {"uniqueid": "MTK0341:3OF2M9AATHV3VFY6HLMELE20VOMZKB", "current_trial": 130, "dateTime": 1510725086271, "trialdata": {"rt": -1000, "stimulus": "/static/audio/wordpool/SUSPECT.wav", "key_press": -1, "type": "PRES_AUD", "word": "suspect", "wordID": 1414, "conditions": [24, 800, "a", 24000], "trial": 3, "serialpos": 13, "trial_type": "single-audio", "trial_index": 130, "time_elapsed": 854139, "internal_node_id": "0.0-94.0"}}, {"uniqueid": "MTK0341:3OF2M9AATHV3VFY6HLMELE20VOMZKB", "current_trial": 131, "dateTime": 1510725088003, "trialdata": {"rt": -1000, "stimulus": "/static/audio/wordpool/WIFE.wav", "key_press": -1, "type": "PRES_AUD", "word": "wife", "wordID": 1608, "conditions": [24, 800, "a", 24000], "trial": 3, "serialpos": 14, "trial_type": "single-audio", "trial_index": 131, "time_elapsed": 855871, "internal_node_id": "0.0-95.0"}}, {"uniqueid": "MTK0341:3OF2M9AATHV3VFY6HLMELE20VOMZKB", "current_trial": 132, "dateTime": 1510725089687, "trialdata": {"rt": -1000, "stimulus": "/static/audio/wordpool/SISTER.wav", "key_press": -1, "type": "PRES_AUD", "word": "sister", "wordID": 1311, "conditions": [24, 800, "a", 24000], "trial": 3, "serialpos": 15, "trial_type": "single-audio", "trial_index": 132, "time_elapsed": 857555, "internal_node_id": "0.0-96.0"}}, {"uniqueid": "MTK0341:3OF2M9AATHV3VFY6HLMELE20VOMZKB", "current_trial": 133, "dateTime": 1510725091662, "trialdata": {"rt": -1000, "stimulus": "/static/audio/wordpool/GARBAGE.wav", "key_press": -1, "type": "PRES_AUD", "word": "garbage", "wordID": 621, "conditions": [24, 800, "a", 24000], "trial": 3, "serialpos": 16, "trial_type": "single-audio", "trial_index": 133, "time_elapsed": 859530, "internal_node_id": "0.0-97.0"}}, {"uniqueid": "MTK0341:3OF2M9AATHV3VFY6HLMELE20VOMZKB", "current_trial": 134, "dateTime": 1510725093369, "trialdata": {"rt": -1000, "stimulus": "/static/audio/wordpool/TORTOISE.wav", "key_press": -1, "type": "PRES_AUD", "word": "tortoise", "wordID": 1485, "conditions": [24, 800, "a", 24000], "trial": 3, "serialpos": 17, "trial_type": "single-audio", "trial_index": 134, "time_elapsed": 861237, "internal_node_id": "0.0-98.0"}}, {"uniqueid": "MTK0341:3OF2M9AATHV3VFY6HLMELE20VOMZKB", "current_trial": 135, "dateTime": 1510725095148, "trialdata": {"rt": -1000, "stimulus": "/static/audio/wordpool/PISTOL.wav", "key_press": -1, "type": "PRES_AUD", "word": "pistol", "wordID": 1074, "conditions": [24, 800, "a", 24000], "trial": 3, "serialpos": 18, "trial_type": "single-audio", "trial_index": 135, "time_elapsed": 863016, "internal_node_id": "0.0-99.0"}}, {"uniqueid": "MTK0341:3OF2M9AATHV3VFY6HLMELE20VOMZKB", "current_trial": 136, "dateTime": 1510725097006, "trialdata": {"rt": -1000, "stimulus": "/static/audio/wordpool/CASHIER.wav", "key_press": -1, "type": "PRES_AUD", "word": "cashier", "wordID": 253, "conditions": [24, 800, "a", 24000], "trial": 3, "serialpos": 19, "trial_type": "single-audio", "trial_index": 136, "time_elapsed": 864874, "internal_node_id": "0.0-100.0"}}, {"uniqueid": "MTK0341:3OF2M9AATHV3VFY6HLMELE20VOMZKB", "current_trial": 137, "dateTime": 1510725098694, "trialdata": {"rt": -1000, "stimulus": "/static/audio/wordpool/SNAKE.wav", "key_press": -1, "type": "PRES_AUD", "word": "snake", "wordID": 1332, "conditions": [24, 800, "a", 24000], "trial": 3, "serialpos": 20, "trial_type": "single-audio", "trial_index": 137, "time_elapsed": 866561, "internal_node_id": "0.0-101.0"}}, {"uniqueid": "MTK0341:3OF2M9AATHV3VFY6HLMELE20VOMZKB", "current_trial": 138, "dateTime": 1510725100471, "trialdata": {"rt": -1000, "stimulus": "/static/audio/wordpool/DINER.wav", "key_press": -1, "type": "PRES_AUD", "word": "diner", "wordID": 466, "conditions": [24, 800, "a", 24000], "trial": 3, "serialpos": 21, "trial_type": "single-audio", "trial_index": 138, "time_elapsed": 868338, "internal_node_id": "0.0-102.0"}}, {"uniqueid": "MTK0341:3OF2M9AATHV3VFY6HLMELE20VOMZKB", "current_trial": 139, "dateTime": 1510725102136, "trialdata": {"rt": -1000, "stimulus": "/static/audio/wordpool/FOOT.wav", "key_press": -1, "type": "PRES_AUD", "word": "foot", "wordID": 589, "conditions": [24, 800, "a", 24000], "trial": 3, "serialpos": 22, "trial_type": "single-audio", "trial_index": 139, "time_elapsed": 870004, "internal_node_id": "0.0-103.0"}}, {"uniqueid": "MTK0341:3OF2M9AATHV3VFY6HLMELE20VOMZKB", "current_trial": 140, "dateTime": 1510725103930, "trialdata": {"rt": -1000, "stimulus": "/static/audio/wordpool/MAMMAL.wav", "key_press": -1, "type": "PRES_AUD", "word": "mammal", "wordID": 860, "conditions": [24, 800, "a", 24000], "trial": 3, "serialpos": 23, "trial_type": "single-audio", "trial_index": 140, "time_elapsed": 871797, "internal_node_id": "0.0-104.0"}}, {"uniqueid": "MTK0341:3OF2M9AATHV3VFY6HLMELE20VOMZKB", "current_trial": 141, "dateTime": 1510725105177, "trialdata": {"rt": -1, "stimulus": "", "key_press": -1, "type": "PRE_RECALL_DELAY", "trial_type": "single-stim", "trial_index": 141, "time_elapsed": 873045, "internal_node_id": "0.0-105.0-0.0"}}, {"uniqueid": "MTK0341:3OF2M9AATHV3VFY6HLMELE20VOMZKB", "current_trial": 142, "dateTime": 1510725105679, "trialdata": {"rt": -1000, "stimulus": "/static/audio/400Hz.wav", "key_press": -1, "type": "PRE_RECALL_ALERT", "trial_type": "single-audio", "trial_index": 142, "time_elapsed": 873547, "internal_node_id": "0.0-106.0"}}, {"uniqueid": "MTK0341:3OF2M9AATHV3VFY6HLMELE20VOMZKB", "current_trial": 143, "dateTime": 1510725165688, "trialdata": {"rt": [2847, 4118, 6095, 18942, 20430, 27086], "recwords": ["foot", "mammal", "princess", "suspect", "sister", "brick"], "type": "FREE_RECALL", "conditions": [24, 800, "a", 24000], "trial": 3, "trial_type": "free-recall", "trial_index": 143, "time_elapsed": 933551, "internal_node_id": "0.0-107.0-0.0"}}, {"uniqueid": "MTK0341:3OF2M9AATHV3VFY6HLMELE20VOMZKB", "current_trial": 144, "dateTime": 1510725168544, "trialdata": {"rt": 852, "key_press": 32, "type": "INSTRUCTIONS", "trial_type": "text", "trial_index": 144, "time_elapsed": 936412, "internal_node_id": "0.0-108.0"}}, {"uniqueid": "MTK0341:3OF2M9AATHV3VFY6HLMELE20VOMZKB", "current_trial": 145, "dateTime": 1510725182548, "trialdata": {"rt": [3100, 6242, 10331], "responses": ["13", "10", "23"], "num1": [4, 3, 6, 8], "num2": [3, 4, 8, 9], "num3": [6, 3, 9, 5], "type": "DISTRACTOR", "conditions": [12, 800, "a", 12000], "trial": 4, "trial_type": "math-distractor", "trial_index": 145, "time_elapsed": 950416, "internal_node_id": "0.0-109.0"}}, {"uniqueid": "MTK0341:3OF2M9AATHV3VFY6HLMELE20VOMZKB", "current_trial": 146, "dateTime": 1510725185550, "trialdata": {"rt": -1, "stimulus": "<p id=\"stim\">10</p>", "key_press": -1, "trial_type": "single-stim", "trial_index": 146, "time_elapsed": 953417, "internal_node_id": "0.0-110.0-0.0"}}, {"uniqueid": "MTK0341:3OF2M9AATHV3VFY6HLMELE20VOMZKB", "current_trial": 147, "dateTime": 1510725186551, "trialdata": {"rt": -1, "stimulus": "<p id=\"stim\">9</p>", "key_press": -1, "trial_type": "single-stim", "trial_index": 147, "time_elapsed": 954419, "internal_node_id": "0.0-110.0-1.0"}}, {"uniqueid": "MTK0341:3OF2M9AATHV3VFY6HLMELE20VOMZKB", "current_trial": 148, "dateTime": 1510725187553, "trialdata": {"rt": -1, "stimulus": "<p id=\"stim\">8</p>", "key_press": -1, "trial_type": "single-stim", "trial_index": 148, "time_elapsed": 955421, "internal_node_id": "0.0-110.0-2.0"}}, {"uniqueid": "MTK0341:3OF2M9AATHV3VFY6HLMELE20VOMZKB", "current_trial": 149, "dateTime": 1510725188555, "trialdata": {"rt": -1, "stimulus": "<p id=\"stim\">7</p>", "key_press": -1, "trial_type": "single-stim", "trial_index": 149, "time_elapsed": 956422, "internal_node_id": "0.0-110.0-3.0"}}, {"uniqueid": "MTK0341:3OF2M9AATHV3VFY6HLMELE20VOMZKB", "current_trial": 150, "dateTime": 1510725189556, "trialdata": {"rt": -1, "stimulus": "<p id=\"stim\">6</p>", "key_press": -1, "trial_type": "single-stim", "trial_index": 150, "time_elapsed": 957424, "internal_node_id": "0.0-110.0-4.0"}}, {"uniqueid": "MTK0341:3OF2M9AATHV3VFY6HLMELE20VOMZKB", "current_trial": 151, "dateTime": 1510725190558, "trialdata": {"rt": -1, "stimulus": "<p id=\"stim\">5</p>", "key_press": -1, "trial_type": "single-stim", "trial_index": 151, "time_elapsed": 958426, "internal_node_id": "0.0-110.0-5.0"}}, {"uniqueid": "MTK0341:3OF2M9AATHV3VFY6HLMELE20VOMZKB", "current_trial": 152, "dateTime": 1510725191562, "trialdata": {"rt": -1, "stimulus": "<p id=\"stim\">4</p>", "key_press": -1, "trial_type": "single-stim", "trial_index": 152, "time_elapsed": 959430, "internal_node_id": "0.0-110.0-6.0"}}, {"uniqueid": "MTK0341:3OF2M9AATHV3VFY6HLMELE20VOMZKB", "current_trial": 153, "dateTime": 1510725192563, "trialdata": {"rt": -1, "stimulus": "<p id=\"stim\">3</p>", "key_press": -1, "trial_type": "single-stim", "trial_index": 153, "time_elapsed": 960431, "internal_node_id": "0.0-110.0-7.0"}}, {"uniqueid": "MTK0341:3OF2M9AATHV3VFY6HLMELE20VOMZKB", "current_trial": 154, "dateTime": 1510725193564, "trialdata": {"rt": -1, "stimulus": "<p id=\"stim\">2</p>", "key_press": -1, "trial_type": "single-stim", "trial_index": 154, "time_elapsed": 961432, "internal_node_id": "0.0-110.0-8.0"}}, {"uniqueid": "MTK0341:3OF2M9AATHV3VFY6HLMELE20VOMZKB", "current_trial": 155, "dateTime": 1510725194568, "trialdata": {"rt": -1, "stimulus": "<p id=\"stim\">1</p>", "key_press": -1, "trial_type": "single-stim", "trial_index": 155, "time_elapsed": 962436, "internal_node_id": "0.0-110.0-9.0"}}, {"uniqueid": "MTK0341:3OF2M9AATHV3VFY6HLMELE20VOMZKB", "current_trial": 156, "dateTime": 1510725196071, "trialdata": {"rt": -1, "stimulus": "<p id=\"stim\">+</p>", "key_press": -1, "type": "FIXATION", "trial_type": "single-stim", "trial_index": 156, "time_elapsed": 963939, "internal_node_id": "0.0-111.0-0.0"}}, {"uniqueid": "MTK0341:3OF2M9AATHV3VFY6HLMELE20VOMZKB", "current_trial": 157, "dateTime": 1510725197850, "trialdata": {"rt": -1000, "stimulus": "/static/audio/wordpool/WITNESS.wav", "key_press": -1, "type": "PRES_AUD", "word": "witness", "wordID": 1617, "conditions": [12, 800, "a", 12000], "trial": 4, "serialpos": 0, "trial_type": "single-audio", "trial_index": 157, "time_elapsed": 965718, "internal_node_id": "0.0-112.0"}}, {"uniqueid": "MTK0341:3OF2M9AATHV3VFY6HLMELE20VOMZKB", "current_trial": 158, "dateTime": 1510725199585, "trialdata": {"rt": -1000, "stimulus": "/static/audio/wordpool/PERFUME.wav", "key_press": -1, "type": "PRES_AUD", "word": "perfume", "wordID": 1048, "conditions": [12, 800, "a", 12000], "trial": 4, "serialpos": 1, "trial_type": "single-audio", "trial_index": 158, "time_elapsed": 967453, "internal_node_id": "0.0-113.0"}}, {"uniqueid": "MTK0341:3OF2M9AATHV3VFY6HLMELE20VOMZKB", "current_trial": 159, "dateTime": 1510725201248, "trialdata": {"rt": -1000, "stimulus": "/static/audio/wordpool/PLASTER.wav", "key_press": -1, "type": "PRES_AUD", "word": "plaster", "wordID": 1084, "conditions": [12, 800, "a", 12000], "trial": 4, "serialpos": 2, "trial_type": "single-audio", "trial_index": 159, "time_elapsed": 969115, "internal_node_id": "0.0-114.0"}}, {"uniqueid": "MTK0341:3OF2M9AATHV3VFY6HLMELE20VOMZKB", "current_trial": 160, "dateTime": 1510725203203, "trialdata": {"rt": -1000, "stimulus": "/static/audio/wordpool/TOASTER.wav", "key_press": -1, "type": "PRES_AUD", "word": "toaster", "wordID": 1471, "conditions": [12, 800, "a", 12000], "trial": 4, "serialpos": 3, "trial_type": "single-audio", "trial_index": 160, "time_elapsed": 971071, "internal_node_id": "0.0-115.0"}}, {"uniqueid": "MTK0341:3OF2M9AATHV3VFY6HLMELE20VOMZKB", "current_trial": 161, "dateTime": 1510725205022, "trialdata": {"rt": -1000, "stimulus": "/static/audio/wordpool/GLOBE.wav", "key_press": -1, "type": "PRES_AUD", "word": "globe", "wordID": 640, "conditions": [12, 800, "a", 12000], "trial": 4, "serialpos": 4, "trial_type": "single-audio", "trial_index": 161, "time_elapsed": 972890, "internal_node_id": "0.0-116.0"}}, {"uniqueid": "MTK0341:3OF2M9AATHV3VFY6HLMELE20VOMZKB", "current_trial": 162, "dateTime": 1510725206992, "trialdata": {"rt": -1000, "stimulus": "/static/audio/wordpool/SOFTBALL.wav", "key_press": -1, "type": "PRES_AUD", "word": "softball", "wordID": 1342, "conditions": [12, 800, "a", 12000], "trial": 4, "serialpos": 5, "trial_type": "single-audio", "trial_index": 162, "time_elapsed": 974860, "internal_node_id": "0.0-117.0"}}, {"uniqueid": "MTK0341:3OF2M9AATHV3VFY6HLMELE20VOMZKB", "current_trial": 163, "dateTime": 1510725208700, "trialdata": {"rt": -1000, "stimulus": "/static/audio/wordpool/PIMPLE.wav", "key_press": -1, "type": "PRES_AUD", "word": "pimple", "wordID": 1070, "conditions": [12, 800, "a", 12000], "trial": 4, "serialpos": 6, "trial_type": "single-audio", "trial_index": 163, "time_elapsed": 976568, "internal_node_id": "0.0-118.0"}}, {"uniqueid": "MTK0341:3OF2M9AATHV3VFY6HLMELE20VOMZKB", "current_trial": 164, "dateTime": 1510725210424, "trialdata": {"rt": -1000, "stimulus": "/static/audio/wordpool/FRECKLE.wav", "key_press": -1, "type": "PRES_AUD", "word": "freckle", "wordID": 601, "conditions": [12, 800, "a", 12000], "trial": 4, "serialpos": 7, "trial_type": "single-audio", "trial_index": 164, "time_elapsed": 978292, "internal_node_id": "0.0-119.0"}}, {"uniqueid": "MTK0341:3OF2M9AATHV3VFY6HLMELE20VOMZKB", "current_trial": 165, "dateTime": 1510725212153, "trialdata": {"rt": -1000, "stimulus": "/static/audio/wordpool/WORLD.wav", "key_press": -1, "type": "PRES_AUD", "word": "world", "wordID": 1621, "conditions": [12, 800, "a", 12000], "trial": 4, "serialpos": 8, "trial_type": "single-audio", "trial_index": 165, "time_elapsed": 980021, "internal_node_id": "0.0-120.0"}}, {"uniqueid": "MTK0341:3OF2M9AATHV3VFY6HLMELE20VOMZKB", "current_trial": 166, "dateTime": 1510725213892, "trialdata": {"rt": -1000, "stimulus": "/static/audio/wordpool/CRITIC.wav", "key_press": -1, "type": "PRES_AUD", "word": "critic", "wordID": 409, "conditions": [12, 800, "a", 12000], "trial": 4, "serialpos": 9, "trial_type": "single-audio", "trial_index": 166, "time_elapsed": 981760, "internal_node_id": "0.0-121.0"}}, {"uniqueid": "MTK0341:3OF2M9AATHV3VFY6HLMELE20VOMZKB", "current_trial": 167, "dateTime": 1510725215891, "trialdata": {"rt": -1000, "stimulus": "/static/audio/wordpool/CARROT.wav", "key_press": -1, "type": "PRES_AUD", "word": "carrot", "wordID": 248, "conditions": [12, 800, "a", 12000], "trial": 4, "serialpos": 10, "trial_type": "single-audio", "trial_index": 167, "time_elapsed": 983759, "internal_node_id": "0.0-122.0"}}, {"uniqueid": "MTK0341:3OF2M9AATHV3VFY6HLMELE20VOMZKB", "current_trial": 168, "dateTime": 1510725217640, "trialdata": {"rt": -1000, "stimulus": "/static/audio/wordpool/GOBLIN.wav", "key_press": -1, "type": "PRES_AUD", "word": "goblin", "wordID": 644, "conditions": [12, 800, "a", 12000], "trial": 4, "serialpos": 11, "trial_type": "single-audio", "trial_index": 168, "time_elapsed": 985508, "internal_node_id": "0.0-123.0"}}, {"uniqueid": "MTK0341:3OF2M9AATHV3VFY6HLMELE20VOMZKB", "current_trial": 169, "dateTime": 1510725219014, "trialdata": {"rt": -1, "stimulus": "", "key_press": -1, "type": "PRE_RECALL_DELAY", "trial_type": "single-stim", "trial_index": 169, "time_elapsed": 986882, "internal_node_id": "0.0-124.0-0.0"}}, {"uniqueid": "MTK0341:3OF2M9AATHV3VFY6HLMELE20VOMZKB", "current_trial": 170, "dateTime": 1510725219516, "trialdata": {"rt": -1000, "stimulus": "/static/audio/400Hz.wav", "key_press": -1, "type": "PRE_RECALL_ALERT", "trial_type": "single-audio", "trial_index": 170, "time_elapsed": 987384, "internal_node_id": "0.0-125.0"}}, {"uniqueid": "MTK0341:3OF2M9AATHV3VFY6HLMELE20VOMZKB", "current_trial": 171, "dateTime": 1510725279521, "trialdata": {"rt": [2448, 3592, 4920, 6201, 7543, 8520, 10712, 31543], "recwords": ["carrot", "pimple", "goblin", "freckle", "world", "globe", "critic", "gymnast"], "type": "FREE_RECALL", "conditions": [12, 800, "a", 12000], "trial": 4, "trial_type": "free-recall", "trial_index": 171, "time_elapsed": 1047385, "internal_node_id": "0.0-126.0-0.0"}}, {"uniqueid": "MTK0341:3OF2M9AATHV3VFY6HLMELE20VOMZKB", "current_trial": 172, "dateTime": 1510725282324, "trialdata": {"rt": 801, "key_press": 32, "type": "INSTRUCTIONS", "trial_type": "text", "trial_index": 172, "time_elapsed": 1050192, "internal_node_id": "0.0-127.0"}}, {"uniqueid": "MTK0341:3OF2M9AATHV3VFY6HLMELE20VOMZKB", "current_trial": 173, "dateTime": 1510725296328, "trialdata": {"rt": [4942, 7149], "responses": ["13", "11"], "num1": [3, 2, 7], "num2": [2, 7, 7], "num3": [8, 2, 8], "type": "DISTRACTOR", "conditions": [24, 800, "v", 12000], "trial": 5, "trial_type": "math-distractor", "trial_index": 173, "time_elapsed": 1064196, "internal_node_id": "0.0-128.0"}}, {"uniqueid": "MTK0341:3OF2M9AATHV3VFY6HLMELE20VOMZKB", "current_trial": 174, "dateTime": 1510725299332, "trialdata": {"rt": -1, "stimulus": "<p id=\"stim\">10</p>", "key_press": -1, "trial_type": "single-stim", "trial_index": 174, "time_elapsed": 1067200, "internal_node_id": "0.0-129.0-0.0"}}, {"uniqueid": "MTK0341:3OF2M9AATHV3VFY6HLMELE20VOMZKB", "current_trial": 175, "dateTime": 1510725300335, "trialdata": {"rt": -1, "stimulus": "<p id=\"stim\">9</p>", "key_press": -1, "trial_type": "single-stim", "trial_index": 175, "time_elapsed": 1068203, "internal_node_id": "0.0-129.0-1.0"}}, {"uniqueid": "MTK0341:3OF2M9AATHV3VFY6HLMELE20VOMZKB", "current_trial": 176, "dateTime": 1510725301337, "trialdata": {"rt": -1, "stimulus": "<p id=\"stim\">8</p>", "key_press": -1, "trial_type": "single-stim", "trial_index": 176, "time_elapsed": 1069204, "internal_node_id": "0.0-129.0-2.0"}}, {"uniqueid": "MTK0341:3OF2M9AATHV3VFY6HLMELE20VOMZKB", "current_trial": 177, "dateTime": 1510725302338, "trialdata": {"rt": -1, "stimulus": "<p id=\"stim\">7</p>", "key_press": -1, "trial_type": "single-stim", "trial_index": 177, "time_elapsed": 1070206, "internal_node_id": "0.0-129.0-3.0"}}, {"uniqueid": "MTK0341:3OF2M9AATHV3VFY6HLMELE20VOMZKB", "current_trial": 178, "dateTime": 1510725303341, "trialdata": {"rt": -1, "stimulus": "<p id=\"stim\">6</p>", "key_press": -1, "trial_type": "single-stim", "trial_index": 178, "time_elapsed": 1071209, "internal_node_id": "0.0-129.0-4.0"}}, {"uniqueid": "MTK0341:3OF2M9AATHV3VFY6HLMELE20VOMZKB", "current_trial": 179, "dateTime": 1510725304343, "trialdata": {"rt": -1, "stimulus": "<p id=\"stim\">5</p>", "key_press": -1, "trial_type": "single-stim", "trial_index": 179, "time_elapsed": 1072211, "internal_node_id": "0.0-129.0-5.0"}}, {"uniqueid": "MTK0341:3OF2M9AATHV3VFY6HLMELE20VOMZKB", "current_trial": 180, "dateTime": 1510725305344, "trialdata": {"rt": -1, "stimulus": "<p id=\"stim\">4</p>", "key_press": -1, "trial_type": "single-stim", "trial_index": 180, "time_elapsed": 1073212, "internal_node_id": "0.0-129.0-6.0"}}, {"uniqueid": "MTK0341:3OF2M9AATHV3VFY6HLMELE20VOMZKB", "current_trial": 181, "dateTime": 1510725306347, "trialdata": {"rt": -1, "stimulus": "<p id=\"stim\">3</p>", "key_press": -1, "trial_type": "single-stim", "trial_index": 181, "time_elapsed": 1074215, "internal_node_id": "0.0-129.0-7.0"}}, {"uniqueid": "MTK0341:3OF2M9AATHV3VFY6HLMELE20VOMZKB", "current_trial": 182, "dateTime": 1510725307348, "trialdata": {"rt": -1, "stimulus": "<p id=\"stim\">2</p>", "key_press": -1, "trial_type": "single-stim", "trial_index": 182, "time_elapsed": 1075216, "internal_node_id": "0.0-129.0-8.0"}}, {"uniqueid": "MTK0341:3OF2M9AATHV3VFY6HLMELE20VOMZKB", "current_trial": 183, "dateTime": 1510725308350, "trialdata": {"rt": -1, "stimulus": "<p id=\"stim\">1</p>", "key_press": -1, "trial_type": "single-stim", "trial_index": 183, "time_elapsed": 1076218, "internal_node_id": "0.0-129.0-9.0"}}, {"uniqueid": "MTK0341:3OF2M9AATHV3VFY6HLMELE20VOMZKB", "current_trial": 184, "dateTime": 1510725309850, "trialdata": {"rt": -1, "stimulus": "<p id=\"stim\">+</p>", "key_press": -1, "type": "FIXATION", "trial_type": "single-stim", "trial_index": 184, "time_elapsed": 1077718, "internal_node_id": "0.0-130.0-0.0"}}, {"uniqueid": "MTK0341:3OF2M9AATHV3VFY6HLMELE20VOMZKB", "current_trial": 185, "dateTime": 1510725310651, "trialdata": {"rt": -1, "stimulus": "<p id=\"stim\">PATROL</p>", "key_press": -1, "type": "PRES_VIS", "word": "patrol", "wordID": 1026, "conditions": [24, 800, "v", 12000], "trial": 5, "serialpos": 0, "trial_type": "single-stim", "trial_index": 185, "time_elapsed": 1078519, "internal_node_id": "0.0-131.0"}}, {"uniqueid": "MTK0341:3OF2M9AATHV3VFY6HLMELE20VOMZKB", "current_trial": 186, "dateTime": 1510725312364, "trialdata": {"rt": -1, "stimulus": "<p id=\"stim\">INMATE</p>", "key_press": -1, "type": "PRES_VIS", "word": "inmate", "wordID": 737, "conditions": [24, 800, "v", 12000], "trial": 5, "serialpos": 1, "trial_type": "single-stim", "trial_index": 186, "time_elapsed": 1080231, "internal_node_id": "0.0-132.0"}}, {"uniqueid": "MTK0341:3OF2M9AATHV3VFY6HLMELE20VOMZKB", "current_trial": 187, "dateTime": 1510725314172, "trialdata": {"rt": -1, "stimulus": "<p id=\"stim\">CURTAIN</p>", "key_press": -1, "type": "PRES_VIS", "word": "curtain", "wordID": 426, "conditions": [24, 800, "v", 12000], "trial": 5, "serialpos": 2, "trial_type": "single-stim", "trial_index": 187, "time_elapsed": 1082040, "internal_node_id": "0.0-133.0"}}, {"uniqueid": "MTK0341:3OF2M9AATHV3VFY6HLMELE20VOMZKB", "current_trial": 188, "dateTime": 1510725315884, "trialdata": {"rt": -1, "stimulus": "<p id=\"stim\">CUSTARD</p>", "key_press": -1, "type": "PRES_VIS", "word": "custard", "wordID": 428, "conditions": [24, 800, "v", 12000], "trial": 5, "serialpos": 3, "trial_type": "single-stim", "trial_index": 188, "time_elapsed": 1083752, "internal_node_id": "0.0-134.0"}}, {"uniqueid": "MTK0341:3OF2M9AATHV3VFY6HLMELE20VOMZKB", "current_trial": 189, "dateTime": 1510725317575, "trialdata": {"rt": -1, "stimulus": "<p id=\"stim\">PUDDING</p>", "key_press": -1, "type": "PRES_VIS", "word": "pudding", "wordID": 1138, "conditions": [24, 800, "v", 12000], "trial": 5, "serialpos": 4, "trial_type": "single-stim", "trial_index": 189, "time_elapsed": 1085443, "internal_node_id": "0.0-135.0"}}, {"uniqueid": "MTK0341:3OF2M9AATHV3VFY6HLMELE20VOMZKB", "current_trial": 190, "dateTime": 1510725319266, "trialdata": {"rt": -1, "stimulus": "<p id=\"stim\">STALLION</p>", "key_press": -1, "type": "PRES_VIS", "word": "stallion", "wordID": 1368, "conditions": [24, 800, "v", 12000], "trial": 5, "serialpos": 5, "trial_type": "single-stim", "trial_index": 190, "time_elapsed": 1087134, "internal_node_id": "0.0-136.0"}}, {"uniqueid": "MTK0341:3OF2M9AATHV3VFY6HLMELE20VOMZKB", "current_trial": 191, "dateTime": 1510725320892, "trialdata": {"rt": -1, "stimulus": "<p id=\"stim\">POISON</p>", "key_press": -1, "type": "PRES_VIS", "word": "poison", "wordID": 1095, "conditions": [24, 800, "v", 12000], "trial": 5, "serialpos": 6, "trial_type": "single-stim", "trial_index": 191, "time_elapsed": 1088760, "internal_node_id": "0.0-137.0"}}, {"uniqueid": "MTK0341:3OF2M9AATHV3VFY6HLMELE20VOMZKB", "current_trial": 192, "dateTime": 1510725322495, "trialdata": {"rt": -1, "stimulus": "<p id=\"stim\">PIGEON</p>", "key_press": -1, "type": "PRES_VIS", "word": "pigeon", "wordID": 1064, "conditions": [24, 800, "v", 12000], "trial": 5, "serialpos": 7, "trial_type": "single-stim", "trial_index": 192, "time_elapsed": 1090363, "internal_node_id": "0.0-138.0"}}, {"uniqueid": "MTK0341:3OF2M9AATHV3VFY6HLMELE20VOMZKB", "current_trial": 193, "dateTime": 1510725324232, "trialdata": {"rt": -1, "stimulus": "<p id=\"stim\">SWAMP</p>", "key_press": -1, "type": "PRES_VIS", "word": "swamp", "wordID": 1415, "conditions": [24, 800, "v", 12000], "trial": 5, "serialpos": 8, "trial_type": "single-stim", "trial_index": 193, "time_elapsed": 1092100, "internal_node_id": "0.0-139.0"}}, {"uniqueid": "MTK0341:3OF2M9AATHV3VFY6HLMELE20VOMZKB", "current_trial": 194, "dateTime": 1510725325970, "trialdata": {"rt": -1, "stimulus": "<p id=\"stim\">TURTLE</p>", "key_press": -1, "type": "PRES_VIS", "word": "turtle", "wordID": 1521, "conditions": [24, 800, "v", 12000], "trial": 5, "serialpos": 9, "trial_type": "single-stim", "trial_index": 194, "time_elapsed": 1093838, "internal_node_id": "0.0-140.0"}}, {"uniqueid": "MTK0341:3OF2M9AATHV3VFY6HLMELE20VOMZKB", "current_trial": 195, "dateTime": 1510725327948, "trialdata": {"rt": -1, "stimulus": "<p id=\"stim\">POLICE</p>", "key_press": -1, "type": "PRES_VIS", "word": "police", "wordID": 1097, "conditions": [24, 800, "v", 12000], "trial": 5, "serialpos": 10, "trial_type": "single-stim", "trial_index": 195, "time_elapsed": 1095816, "internal_node_id": "0.0-141.0"}}, {"uniqueid": "MTK0341:3OF2M9AATHV3VFY6HLMELE20VOMZKB", "current_trial": 196, "dateTime": 1510725329889, "trialdata": {"rt": -1, "stimulus": "<p id=\"stim\">SALT</p>", "key_press": -1, "type": "PRES_VIS", "word": "salt", "wordID": 1228, "conditions": [24, 800, "v", 12000], "trial": 5, "serialpos": 11, "trial_type": "single-stim", "trial_index": 196, "time_elapsed": 1097757, "internal_node_id": "0.0-142.0"}}, {"uniqueid": "MTK0341:3OF2M9AATHV3VFY6HLMELE20VOMZKB", "current_trial": 197, "dateTime": 1510725331870, "trialdata": {"rt": -1, "stimulus": "<p id=\"stim\">NOMAD</p>", "key_press": -1, "type": "PRES_VIS", "word": "nomad", "wordID": 954, "conditions": [24, 800, "v", 12000], "trial": 5, "serialpos": 12, "trial_type": "single-stim", "trial_index": 197, "time_elapsed": 1099738, "internal_node_id": "0.0-143.0"}}, {"uniqueid": "MTK0341:3OF2M9AATHV3VFY6HLMELE20VOMZKB", "current_trial": 198, "dateTime": 1510725333612, "trialdata": {"rt": -1, "stimulus": "<p id=\"stim\">CANYON</p>", "key_press": -1, "type": "PRES_VIS", "word": "canyon", "wordID": 234, "conditions": [24, 800, "v", 12000], "trial": 5, "serialpos": 13, "trial_type": "single-stim", "trial_index": 198, "time_elapsed": 1101480, "internal_node_id": "0.0-144.0"}}, {"uniqueid": "MTK0341:3OF2M9AATHV3VFY6HLMELE20VOMZKB", "current_trial": 199, "dateTime": 1510725335283, "trialdata": {"rt": -1, "stimulus": "<p id=\"stim\">ASIA</p>", "key_press": -1, "type": "PRES_VIS", "word": "asia", "wordID": 45, "conditions": [24, 800, "v", 12000], "trial": 5, "serialpos": 14, "trial_type": "single-stim", "trial_index": 199, "time_elapsed": 1103151, "internal_node_id": "0.0-145.0"}}, {"uniqueid": "MTK0341:3OF2M9AATHV3VFY6HLMELE20VOMZKB", "current_trial": 200, "dateTime": 1510725337036, "trialdata": {"rt": -1, "stimulus": "<p id=\"stim\">BABY</p>", "key_press": -1, "type": "PRES_VIS", "word": "baby", "wordID": 63, "conditions": [24, 800, "v", 12000], "trial": 5, "serialpos": 15, "trial_type": "single-stim", "trial_index": 200, "time_elapsed": 1104904, "internal_node_id": "0.0-146.0"}}, {"uniqueid": "MTK0341:3OF2M9AATHV3VFY6HLMELE20VOMZKB", "current_trial": 201, "dateTime": 1510725338643, "trialdata": {"rt": -1, "stimulus": "<p id=\"stim\">PARROT</p>", "key_press": -1, "type": "PRES_VIS", "word": "parrot", "wordID": 1014, "conditions": [24, 800, "v", 12000], "trial": 5, "serialpos": 16, "trial_type": "single-stim", "trial_index": 201, "time_elapsed": 1106511, "internal_node_id": "0.0-147.0"}}, {"uniqueid": "MTK0341:3OF2M9AATHV3VFY6HLMELE20VOMZKB", "current_trial": 202, "dateTime": 1510725340311, "trialdata": {"rt": -1, "stimulus": "<p id=\"stim\">WAITER</p>", "key_press": -1, "type": "PRES_VIS", "word": "waiter", "wordID": 1579, "conditions": [24, 800, "v", 12000], "trial": 5, "serialpos": 17, "trial_type": "single-stim", "trial_index": 202, "time_elapsed": 1108178, "internal_node_id": "0.0-148.0"}}, {"uniqueid": "MTK0341:3OF2M9AATHV3VFY6HLMELE20VOMZKB", "current_trial": 203, "dateTime": 1510725342017, "trialdata": {"rt": -1, "stimulus": "<p id=\"stim\">RADISH</p>", "key_press": -1, "type": "PRES_VIS", "word": "radish", "wordID": 1157, "conditions": [24, 800, "v", 12000], "trial": 5, "serialpos": 18, "trial_type": "single-stim", "trial_index": 203, "time_elapsed": 1109885, "internal_node_id": "0.0-149.0"}}, {"uniqueid": "MTK0341:3OF2M9AATHV3VFY6HLMELE20VOMZKB", "current_trial": 204, "dateTime": 1510725343664, "trialdata": {"rt": -1, "stimulus": "<p id=\"stim\">SCALLOP</p>", "key_press": -1, "type": "PRES_VIS", "word": "scallop", "wordID": 1241, "conditions": [24, 800, "v", 12000], "trial": 5, "serialpos": 19, "trial_type": "single-stim", "trial_index": 204, "time_elapsed": 1111532, "internal_node_id": "0.0-150.0"}}, {"uniqueid": "MTK0341:3OF2M9AATHV3VFY6HLMELE20VOMZKB", "current_trial": 205, "dateTime": 1510725345339, "trialdata": {"rt": -1, "stimulus": "<p id=\"stim\">CLAM</p>", "key_press": -1, "type": "PRES_VIS", "word": "clam", "wordID": 314, "conditions": [24, 800, "v", 12000], "trial": 5, "serialpos": 20, "trial_type": "single-stim", "trial_index": 205, "time_elapsed": 1113206, "internal_node_id": "0.0-151.0"}}, {"uniqueid": "MTK0341:3OF2M9AATHV3VFY6HLMELE20VOMZKB", "current_trial": 206, "dateTime": 1510725347239, "trialdata": {"rt": -1, "stimulus": "<p id=\"stim\">TRACTOR</p>", "key_press": -1, "type": "PRES_VIS", "word": "tractor", "wordID": 1492, "conditions": [24, 800, "v", 12000], "trial": 5, "serialpos": 21, "trial_type": "single-stim", "trial_index": 206, "time_elapsed": 1115107, "internal_node_id": "0.0-152.0"}}, {"uniqueid": "MTK0341:3OF2M9AATHV3VFY6HLMELE20VOMZKB", "current_trial": 207, "dateTime": 1510725349143, "trialdata": {"rt": -1, "stimulus": "<p id=\"stim\">PUPPY</p>", "key_press": -1, "type": "PRES_VIS", "word": "puppy", "wordID": 1143, "conditions": [24, 800, "v", 12000], "trial": 5, "serialpos": 22, "trial_type": "single-stim", "trial_index": 207, "time_elapsed": 1117011, "internal_node_id": "0.0-153.0"}}, {"uniqueid": "MTK0341:3OF2M9AATHV3VFY6HLMELE20VOMZKB", "current_trial": 208, "dateTime": 1510725350849, "trialdata": {"rt": -1, "stimulus": "<p id=\"stim\">FARMER</p>", "key_press": -1, "type": "PRES_VIS", "word": "farmer", "wordID": 552, "conditions": [24, 800, "v", 12000], "trial": 5, "serialpos": 23, "trial_type": "single-stim", "trial_index": 208, "time_elapsed": 1118717, "internal_node_id": "0.0-154.0"}}, {"uniqueid": "MTK0341:3OF2M9AATHV3VFY6HLMELE20VOMZKB", "current_trial": 209, "dateTime": 1510725353161, "trialdata": {"rt": -1, "stimulus": "", "key_press": -1, "type": "PRE_RECALL_DELAY", "trial_type": "single-stim", "trial_index": 209, "time_elapsed": 1121029, "internal_node_id": "0.0-155.0-0.0"}}, {"uniqueid": "MTK0341:3OF2M9AATHV3VFY6HLMELE20VOMZKB", "current_trial": 210, "dateTime": 1510725353662, "trialdata": {"rt": -1000, "stimulus": "/static/audio/400Hz.wav", "key_press": -1, "type": "PRE_RECALL_ALERT", "trial_type": "single-audio", "trial_index": 210, "time_elapsed": 1121530, "internal_node_id": "0.0-156.0"}}, {"uniqueid": "MTK0341:3OF2M9AATHV3VFY6HLMELE20VOMZKB", "current_trial": 211, "dateTime": 1510725413738, "trialdata": {"rt": [1474, 2786, 4162, 10018, 14978, 16291, 23050, 25275, 29658, 44281], "recwords": ["farmer", "baby", "puppy", "waiter", "swamp", "turtle", "asia", "canyon", "farmer", "pigeon"], "type": "FREE_RECALL", "conditions": [24, 800, "v", 12000], "trial": 5, "trial_type": "free-recall", "trial_index": 211, "time_elapsed": 1181602, "internal_node_id": "0.0-157.0-0.0"}}, {"uniqueid": "MTK0341:3OF2M9AATHV3VFY6HLMELE20VOMZKB", "current_trial": 212, "dateTime": 1510725417273, "trialdata": {"rt": 1285, "key_press": 32, "type": "INSTRUCTIONS", "trial_type": "text", "trial_index": 212, "time_elapsed": 1185141, "internal_node_id": "0.0-158.0"}}, {"uniqueid": "MTK0341:3OF2M9AATHV3VFY6HLMELE20VOMZKB", "current_trial": 213, "dateTime": 1510725443282, "trialdata": {"rt": [2379, 7235, 8697, 10729, 13563, 17089, 20625, 23073], "responses": ["13", "17", "12", "15", "22", "25", "20", "17"], "num1": [4, 5, 2, 6, 4, 7, 7, 4, 7], "num2": [7, 8, 6, 9, 9, 9, 6, 7, 7], "num3": [2, 4, 4, 1, 9, 8, 7, 6, 5], "type": "DISTRACTOR", "conditions": [24, 1600, "a", 24000], "trial": 6, "trial_type": "math-distractor", "trial_index": 213, "time_elapsed": 1211148, "internal_node_id": "0.0-159.0"}}, {"uniqueid": "MTK0341:3OF2M9AATHV3VFY6HLMELE20VOMZKB", "current_trial": 214, "dateTime": 1510725446286, "trialdata": {"rt": -1, "stimulus": "<p id=\"stim\">10</p>", "key_press": -1, "trial_type": "single-stim", "trial_index": 214, "time_elapsed": 1214154, "internal_node_id": "0.0-160.0-0.0"}}, {"uniqueid": "MTK0341:3OF2M9AATHV3VFY6HLMELE20VOMZKB", "current_trial": 215, "dateTime": 1510725447288, "trialdata": {"rt": -1, "stimulus": "<p id=\"stim\">9</p>", "key_press": -1, "trial_type": "single-stim", "trial_index": 215, "time_elapsed": 1215156, "internal_node_id": "0.0-160.0-1.0"}}, {"uniqueid": "MTK0341:3OF2M9AATHV3VFY6HLMELE20VOMZKB", "current_trial": 216, "dateTime": 1510725448291, "trialdata": {"rt": -1, "stimulus": "<p id=\"stim\">8</p>", "key_press": -1, "trial_type": "single-stim", "trial_index": 216, "time_elapsed": 1216159, "internal_node_id": "0.0-160.0-2.0"}}, {"uniqueid": "MTK0341:3OF2M9AATHV3VFY6HLMELE20VOMZKB", "current_trial": 217, "dateTime": 1510725449294, "trialdata": {"rt": -1, "stimulus": "<p id=\"stim\">7</p>", "key_press": -1, "trial_type": "single-stim", "trial_index": 217, "time_elapsed": 1217162, "internal_node_id": "0.0-160.0-3.0"}}, {"uniqueid": "MTK0341:3OF2M9AATHV3VFY6HLMELE20VOMZKB", "current_trial": 218, "dateTime": 1510725450296, "trialdata": {"rt": -1, "stimulus": "<p id=\"stim\">6</p>", "key_press": -1, "trial_type": "single-stim", "trial_index": 218, "time_elapsed": 1218164, "internal_node_id": "0.0-160.0-4.0"}}, {"uniqueid": "MTK0341:3OF2M9AATHV3VFY6HLMELE20VOMZKB", "current_trial": 219, "dateTime": 1510725451298, "trialdata": {"rt": -1, "stimulus": "<p id=\"stim\">5</p>", "key_press": -1, "trial_type": "single-stim", "trial_index": 219, "time_elapsed": 1219165, "internal_node_id": "0.0-160.0-5.0"}}, {"uniqueid": "MTK0341:3OF2M9AATHV3VFY6HLMELE20VOMZKB", "current_trial": 220, "dateTime": 1510725452300, "trialdata": {"rt": -1, "stimulus": "<p id=\"stim\">4</p>", "key_press": -1, "trial_type": "single-stim", "trial_index": 220, "time_elapsed": 1220168, "internal_node_id": "0.0-160.0-6.0"}}, {"uniqueid": "MTK0341:3OF2M9AATHV3VFY6HLMELE20VOMZKB", "current_trial": 221, "dateTime": 1510725453302, "trialdata": {"rt": -1, "stimulus": "<p id=\"stim\">3</p>", "key_press": -1, "trial_type": "single-stim", "trial_index": 221, "time_elapsed": 1221170, "internal_node_id": "0.0-160.0-7.0"}}, {"uniqueid": "MTK0341:3OF2M9AATHV3VFY6HLMELE20VOMZKB", "current_trial": 222, "dateTime": 1510725454304, "trialdata": {"rt": -1, "stimulus": "<p id=\"stim\">2</p>", "key_press": -1, "trial_type": "single-stim", "trial_index": 222, "time_elapsed": 1222172, "internal_node_id": "0.0-160.0-8.0"}}, {"uniqueid": "MTK0341:3OF2M9AATHV3VFY6HLMELE20VOMZKB", "current_trial": 223, "dateTime": 1510725455307, "trialdata": {"rt": -1, "stimulus": "<p id=\"stim\">1</p>", "key_press": -1, "trial_type": "single-stim", "trial_index": 223, "time_elapsed": 1223174, "internal_node_id": "0.0-160.0-9.0"}}, {"uniqueid": "MTK0341:3OF2M9AATHV3VFY6HLMELE20VOMZKB", "current_trial": 224, "dateTime": 1510725456810, "trialdata": {"rt": -1, "stimulus": "<p id=\"stim\">+</p>", "key_press": -1, "type": "FIXATION", "trial_type": "single-stim", "trial_index": 224, "time_elapsed": 1224677, "internal_node_id": "0.0-161.0-0.0"}}, {"uniqueid": "MTK0341:3OF2M9AATHV3VFY6HLMELE20VOMZKB", "current_trial": 225, "dateTime": 1510725459539, "trialdata": {"rt": -1000, "stimulus": "/static/audio/wordpool/STAR.wav", "key_press": -1, "type": "PRES_AUD", "word": "star", "wordID": 1372, "conditions": [24, 1600, "a", 24000], "trial": 6, "serialpos": 0, "trial_type": "single-audio", "trial_index": 225, "time_elapsed": 1227407, "internal_node_id": "0.0-162.0"}}, {"uniqueid": "MTK0341:3OF2M9AATHV3VFY6HLMELE20VOMZKB", "current_trial": 226, "dateTime": 1510725462063, "trialdata": {"rt": -1000, "stimulus": "/static/audio/wordpool/EUROPE.wav", "key_press": -1, "type": "PRES_AUD", "word": "europe", "wordID": 540, "conditions": [24, 1600, "a", 24000], "trial": 6, "serialpos": 1, "trial_type": "single-audio", "trial_index": 226, "time_elapsed": 1229931, "internal_node_id": "0.0-163.0"}}, {"uniqueid": "MTK0341:3OF2M9AATHV3VFY6HLMELE20VOMZKB", "current_trial": 227, "dateTime": 1510725464656, "trialdata": {"rt": -1000, "stimulus": "/static/audio/wordpool/BUNNY.wav", "key_press": -1, "type": "PRES_AUD", "word": "bunny", "wordID": 197, "conditions": [24, 1600, "a", 24000], "trial": 6, "serialpos": 2, "trial_type": "single-audio", "trial_index": 227, "time_elapsed": 1232524, "internal_node_id": "0.0-164.0"}}, {"uniqueid": "MTK0341:3OF2M9AATHV3VFY6HLMELE20VOMZKB", "current_trial": 228, "dateTime": 1510725467374, "trialdata": {"rt": -1000, "stimulus": "/static/audio/wordpool/SNACK.wav", "key_press": -1, "type": "PRES_AUD", "word": "snack", "wordID": 1330, "conditions": [24, 1600, "a", 24000], "trial": 6, "serialpos": 3, "trial_type": "single-audio", "trial_index": 228, "time_elapsed": 1235242, "internal_node_id": "0.0-165.0"}}, {"uniqueid": "MTK0341:3OF2M9AATHV3VFY6HLMELE20VOMZKB", "current_trial": 229, "dateTime": 1510725469786, "trialdata": {"rt": -1000, "stimulus": "/static/audio/wordpool/MISTER.wav", "key_press": -1, "type": "PRES_AUD", "word": "mister", "wordID": 900, "conditions": [24, 1600, "a", 24000], "trial": 6, "serialpos": 4, "trial_type": "single-audio", "trial_index": 229, "time_elapsed": 1237654, "internal_node_id": "0.0-166.0"}}, {"uniqueid": "MTK0341:3OF2M9AATHV3VFY6HLMELE20VOMZKB", "current_trial": 230, "dateTime": 1510725472232, "trialdata": {"rt": -1000, "stimulus": "/static/audio/wordpool/CAFE.wav", "key_press": -1, "type": "PRES_AUD", "word": "cafe", "wordID": 215, "conditions": [24, 1600, "a", 24000], "trial": 6, "serialpos": 5, "trial_type": "single-audio", "trial_index": 230, "time_elapsed": 1240100, "internal_node_id": "0.0-167.0"}}, {"uniqueid": "MTK0341:3OF2M9AATHV3VFY6HLMELE20VOMZKB", "current_trial": 231, "dateTime": 1510725474838, "trialdata": {"rt": -1000, "stimulus": "/static/audio/wordpool/STUDENT.wav", "key_press": -1, "type": "PRES_AUD", "word": "student", "wordID": 1394, "conditions": [24, 1600, "a", 24000], "trial": 6, "serialpos": 6, "trial_type": "single-audio", "trial_index": 231, "time_elapsed": 1242706, "internal_node_id": "0.0-168.0"}}, {"uniqueid": "MTK0341:3OF2M9AATHV3VFY6HLMELE20VOMZKB", "current_trial": 232, "dateTime": 1510725477480, "trialdata": {"rt": -1000, "stimulus": "/static/audio/wordpool/SWIMMER.wav", "key_press": -1, "type": "PRES_AUD", "word": "swimmer", "wordID": 1419, "conditions": [24, 1600, "a", 24000], "trial": 6, "serialpos": 7, "trial_type": "single-audio", "trial_index": 232, "time_elapsed": 1245347, "internal_node_id": "0.0-169.0"}}, {"uniqueid": "MTK0341:3OF2M9AATHV3VFY6HLMELE20VOMZKB", "current_trial": 233, "dateTime": 1510725480213, "trialdata": {"rt": -1000, "stimulus": "/static/audio/wordpool/DIVER.wav", "key_press": -1, "type": "PRES_AUD", "word": "diver", "wordID": 475, "conditions": [24, 1600, "a", 24000], "trial": 6, "serialpos": 8, "trial_type": "single-audio", "trial_index": 233, "time_elapsed": 1248080, "internal_node_id": "0.0-170.0"}}, {"uniqueid": "MTK0341:3OF2M9AATHV3VFY6HLMELE20VOMZKB", "current_trial": 234, "dateTime": 1510725482783, "trialdata": {"rt": -1000, "stimulus": "/static/audio/wordpool/VIKING.wav", "key_press": -1, "type": "PRES_AUD", "word": "viking", "wordID": 1564, "conditions": [24, 1600, "a", 24000], "trial": 6, "serialpos": 9, "trial_type": "single-audio", "trial_index": 234, "time_elapsed": 1250650, "internal_node_id": "0.0-171.0"}}, {"uniqueid": "MTK0341:3OF2M9AATHV3VFY6HLMELE20VOMZKB", "current_trial": 235, "dateTime": 1510725485500, "trialdata": {"rt": -1000, "stimulus": "/static/audio/wordpool/FIDDLE.wav", "key_press": -1, "type": "PRES_AUD", "word": "fiddle", "wordID": 560, "conditions": [24, 1600, "a", 24000], "trial": 6, "serialpos": 10, "trial_type": "single-audio", "trial_index": 235, "time_elapsed": 1253367, "internal_node_id": "0.0-172.0"}}, {"uniqueid": "MTK0341:3OF2M9AATHV3VFY6HLMELE20VOMZKB", "current_trial": 236, "dateTime": 1510725487966, "trialdata": {"rt": -1000, "stimulus": "/static/audio/wordpool/FRANCE.wav", "key_press": -1, "type": "PRES_AUD", "word": "france", "wordID": 600, "conditions": [24, 1600, "a", 24000], "trial": 6, "serialpos": 11, "trial_type": "single-audio", "trial_index": 236, "time_elapsed": 1255834, "internal_node_id": "0.0-173.0"}}, {"uniqueid": "MTK0341:3OF2M9AATHV3VFY6HLMELE20VOMZKB", "current_trial": 237, "dateTime": 1510725490525, "trialdata": {"rt": -1000, "stimulus": "/static/audio/wordpool/BANKER.wav", "key_press": -1, "type": "PRES_AUD", "word": "banker", "wordID": 83, "conditions": [24, 1600, "a", 24000], "trial": 6, "serialpos": 12, "trial_type": "single-audio", "trial_index": 237, "time_elapsed": 1258393, "internal_node_id": "0.0-174.0"}}, {"uniqueid": "MTK0341:3OF2M9AATHV3VFY6HLMELE20VOMZKB", "current_trial": 238, "dateTime": 1510725493224, "trialdata": {"rt": -1000, "stimulus": "/static/audio/wordpool/SILK.wav", "key_press": -1, "type": "PRES_AUD", "word": "silk", "wordID": 1306, "conditions": [24, 1600, "a", 24000], "trial": 6, "serialpos": 13, "trial_type": "single-audio", "trial_index": 238, "time_elapsed": 1261092, "internal_node_id": "0.0-175.0"}}, {"uniqueid": "MTK0341:3OF2M9AATHV3VFY6HLMELE20VOMZKB", "current_trial": 239, "dateTime": 1510725495806, "trialdata": {"rt": -1000, "stimulus": "/static/audio/wordpool/LONDON.wav", "key_press": -1, "type": "PRES_AUD", "word": "london", "wordID": 842, "conditions": [24, 1600, "a", 24000], "trial": 6, "serialpos": 14, "trial_type": "single-audio", "trial_index": 239, "time_elapsed": 1263674, "internal_node_id": "0.0-176.0"}}, {"uniqueid": "MTK0341:3OF2M9AATHV3VFY6HLMELE20VOMZKB", "current_trial": 240, "dateTime": 1510725498279, "trialdata": {"rt": -1000, "stimulus": "/static/audio/wordpool/SPIDER.wav", "key_press": -1, "type": "PRES_AUD", "word": "spider", "wordID": 1350, "conditions": [24, 1600, "a", 24000], "trial": 6, "serialpos": 15, "trial_type": "single-audio", "trial_index": 240, "time_elapsed": 1266147, "internal_node_id": "0.0-177.0"}}, {"uniqueid": "MTK0341:3OF2M9AATHV3VFY6HLMELE20VOMZKB", "current_trial": 241, "dateTime": 1510725501020, "trialdata": {"rt": -1000, "stimulus": "/static/audio/wordpool/FOOTBALL.wav", "key_press": -1, "type": "PRES_AUD", "word": "football", "wordID": 590, "conditions": [24, 1600, "a", 24000], "trial": 6, "serialpos": 16, "trial_type": "single-audio", "trial_index": 241, "time_elapsed": 1268888, "internal_node_id": "0.0-178.0"}}, {"uniqueid": "MTK0341:3OF2M9AATHV3VFY6HLMELE20VOMZKB", "current_trial": 242, "dateTime": 1510725503704, "trialdata": {"rt": -1000, "stimulus": "/static/audio/wordpool/COSTUME.wav", "key_press": -1, "type": "PRES_AUD", "word": "costume", "wordID": 382, "conditions": [24, 1600, "a", 24000], "trial": 6, "serialpos": 17, "trial_type": "single-audio", "trial_index": 242, "time_elapsed": 1271572, "internal_node_id": "0.0-179.0"}}, {"uniqueid": "MTK0341:3OF2M9AATHV3VFY6HLMELE20VOMZKB", "current_trial": 243, "dateTime": 1510725506260, "trialdata": {"rt": -1000, "stimulus": "/static/audio/wordpool/TUTU.wav", "key_press": -1, "type": "PRES_AUD", "word": "tutu", "wordID": 1523, "conditions": [24, 1600, "a", 24000], "trial": 6, "serialpos": 18, "trial_type": "single-audio", "trial_index": 243, "time_elapsed": 1274127, "internal_node_id": "0.0-180.0"}}, {"uniqueid": "MTK0341:3OF2M9AATHV3VFY6HLMELE20VOMZKB", "current_trial": 244, "dateTime": 1510725509052, "trialdata": {"rt": -1000, "stimulus": "/static/audio/wordpool/HORNET.wav", "key_press": -1, "type": "PRES_AUD", "word": "hornet", "wordID": 717, "conditions": [24, 1600, "a", 24000], "trial": 6, "serialpos": 19, "trial_type": "single-audio", "trial_index": 244, "time_elapsed": 1276920, "internal_node_id": "0.0-181.0"}}, {"uniqueid": "MTK0341:3OF2M9AATHV3VFY6HLMELE20VOMZKB", "current_trial": 245, "dateTime": 1510725511457, "trialdata": {"rt": -1000, "stimulus": "/static/audio/wordpool/WOMAN.wav", "key_press": -1, "type": "PRES_AUD", "word": "woman", "wordID": 1619, "conditions": [24, 1600, "a", 24000], "trial": 6, "serialpos": 20, "trial_type": "single-audio", "trial_index": 245, "time_elapsed": 1279325, "internal_node_id": "0.0-182.0"}}, {"uniqueid": "MTK0341:3OF2M9AATHV3VFY6HLMELE20VOMZKB", "current_trial": 246, "dateTime": 1510725514108, "trialdata": {"rt": -1000, "stimulus": "/static/audio/wordpool/CREATURE.wav", "key_press": -1, "type": "PRES_AUD", "word": "creature", "wordID": 402, "conditions": [24, 1600, "a", 24000], "trial": 6, "serialpos": 21, "trial_type": "single-audio", "trial_index": 246, "time_elapsed": 1281976, "internal_node_id": "0.0-183.0"}}, {"uniqueid": "MTK0341:3OF2M9AATHV3VFY6HLMELE20VOMZKB", "current_trial": 247, "dateTime": 1510725516636, "trialdata": {"rt": -1000, "stimulus": "/static/audio/wordpool/SHELTER.wav", "key_press": -1, "type": "PRES_AUD", "word": "shelter", "wordID": 1281, "conditions": [24, 1600, "a", 24000], "trial": 6, "serialpos": 22, "trial_type": "single-audio", "trial_index": 247, "time_elapsed": 1284504, "internal_node_id": "0.0-184.0"}}, {"uniqueid": "MTK0341:3OF2M9AATHV3VFY6HLMELE20VOMZKB", "current_trial": 248, "dateTime": 1510725519301, "trialdata": {"rt": -1000, "stimulus": "/static/audio/wordpool/SUMMIT.wav", "key_press": -1, "type": "PRES_AUD", "word": "summit", "wordID": 1404, "conditions": [24, 1600, "a", 24000], "trial": 6, "serialpos": 23, "trial_type": "single-audio", "trial_index": 248, "time_elapsed": 1287169, "internal_node_id": "0.0-185.0"}}, {"uniqueid": "MTK0341:3OF2M9AATHV3VFY6HLMELE20VOMZKB", "current_trial": 249, "dateTime": 1510725520650, "trialdata": {"rt": -1, "stimulus": "", "key_press": -1, "type": "PRE_RECALL_DELAY", "trial_type": "single-stim", "trial_index": 249, "time_elapsed": 1288517, "internal_node_id": "0.0-186.0-0.0"}}, {"uniqueid": "MTK0341:3OF2M9AATHV3VFY6HLMELE20VOMZKB", "current_trial": 250, "dateTime": 1510725521151, "trialdata": {"rt": -1000, "stimulus": "/static/audio/400Hz.wav", "key_press": -1, "type": "PRE_RECALL_ALERT", "trial_type": "single-audio", "trial_index": 250, "time_elapsed": 1289019, "internal_node_id": "0.0-187.0"}}, {"uniqueid": "MTK0341:3OF2M9AATHV3VFY6HLMELE20VOMZKB", "current_trial": 251, "dateTime": 1510725581156, "trialdata": {"rt": [5325, 6861, 8565, 10485, 11669, 13886, 15325, 16333, 20356, 29572, 36524], "recwords": ["creature", "shelter", "summi", "summit", "woman", "football", "costume", "tutu", "bunny", "swamp", "cricket"], "type": "FREE_RECALL", "conditions": [24, 1600, "a", 24000], "trial": 6, "trial_type": "free-recall", "trial_index": 251, "time_elapsed": 1349020, "internal_node_id": "0.0-188.0-0.0"}}, {"uniqueid": "MTK0341:3OF2M9AATHV3VFY6HLMELE20VOMZKB", "current_trial": 252, "dateTime": 1510725588909, "trialdata": {"rt": 5752, "key_press": 32, "type": "INSTRUCTIONS", "trial_type": "text", "trial_index": 252, "time_elapsed": 1356777, "internal_node_id": "0.0-189.0"}}, {"uniqueid": "MTK0341:3OF2M9AATHV3VFY6HLMELE20VOMZKB", "current_trial": 253, "dateTime": 1510725614913, "trialdata": {"rt": [2780, 5604, 7364, 11020, 12388, 14420, 16188, 17788, 19604, 21372, 23876], "responses": ["9", "10", "10", "19", "12", "13", "13", "18", "11", "10", "8"], "num1": [4, 1, 4, 3, 4, 8, 3, 1, 5, 3, 3, 3], "num2": [2, 4, 3, 9, 6, 2, 1, 8, 1, 1, 2, 5], "num3": [2, 5, 3, 7, 2, 3, 9, 9, 5, 6, 3, 3], "type": "DISTRACTOR", "conditions": [24, 1600, "v", 24000], "trial": 7, "trial_type": "math-distractor", "trial_index": 253, "time_elapsed": 1382781, "internal_node_id": "0.0-190.0"}}, {"uniqueid": "MTK0341:3OF2M9AATHV3VFY6HLMELE20VOMZKB", "current_trial": 254, "dateTime": 1510725617918, "trialdata": {"rt": -1, "stimulus": "<p id=\"stim\">10</p>", "key_press": -1, "trial_type": "single-stim", "trial_index": 254, "time_elapsed": 1385786, "internal_node_id": "0.0-191.0-0.0"}}, {"uniqueid": "MTK0341:3OF2M9AATHV3VFY6HLMELE20VOMZKB", "current_trial": 255, "dateTime": 1510725618921, "trialdata": {"rt": -1, "stimulus": "<p id=\"stim\">9</p>", "key_press": -1, "trial_type": "single-stim", "trial_index": 255, "time_elapsed": 1386788, "internal_node_id": "0.0-191.0-1.0"}}, {"uniqueid": "MTK0341:3OF2M9AATHV3VFY6HLMELE20VOMZKB", "current_trial": 256, "dateTime": 1510725619923, "trialdata": {"rt": -1, "stimulus": "<p id=\"stim\">8</p>", "key_press": -1, "trial_type": "single-stim", "trial_index": 256, "time_elapsed": 1387791, "internal_node_id": "0.0-191.0-2.0"}}, {"uniqueid": "MTK0341:3OF2M9AATHV3VFY6HLMELE20VOMZKB", "current_trial": 257, "dateTime": 1510725620925, "trialdata": {"rt": -1, "stimulus": "<p id=\"stim\">7</p>", "key_press": -1, "trial_type": "single-stim", "trial_index": 257, "time_elapsed": 1388793, "internal_node_id": "0.0-191.0-3.0"}}, {"uniqueid": "MTK0341:3OF2M9AATHV3VFY6HLMELE20VOMZKB", "current_trial": 258, "dateTime": 1510725621927, "trialdata": {"rt": -1, "stimulus": "<p id=\"stim\">6</p>", "key_press": -1, "trial_type": "single-stim", "trial_index": 258, "time_elapsed": 1389795, "internal_node_id": "0.0-191.0-4.0"}}, {"uniqueid": "MTK0341:3OF2M9AATHV3VFY6HLMELE20VOMZKB", "current_trial": 259, "dateTime": 1510725622928, "trialdata": {"rt": -1, "stimulus": "<p id=\"stim\">5</p>", "key_press": -1, "trial_type": "single-stim", "trial_index": 259, "time_elapsed": 1390796, "internal_node_id": "0.0-191.0-5.0"}}, {"uniqueid": "MTK0341:3OF2M9AATHV3VFY6HLMELE20VOMZKB", "current_trial": 260, "dateTime": 1510725623930, "trialdata": {"rt": -1, "stimulus": "<p id=\"stim\">4</p>", "key_press": -1, "trial_type": "single-stim", "trial_index": 260, "time_elapsed": 1391798, "internal_node_id": "0.0-191.0-6.0"}}, {"uniqueid": "MTK0341:3OF2M9AATHV3VFY6HLMELE20VOMZKB", "current_trial": 261, "dateTime": 1510725624933, "trialdata": {"rt": -1, "stimulus": "<p id=\"stim\">3</p>", "key_press": -1, "trial_type": "single-stim", "trial_index": 261, "time_elapsed": 1392801, "internal_node_id": "0.0-191.0-7.0"}}, {"uniqueid": "MTK0341:3OF2M9AATHV3VFY6HLMELE20VOMZKB", "current_trial": 262, "dateTime": 1510725625935, "trialdata": {"rt": -1, "stimulus": "<p id=\"stim\">2</p>", "key_press": -1, "trial_type": "single-stim", "trial_index": 262, "time_elapsed": 1393803, "internal_node_id": "0.0-191.0-8.0"}}, {"uniqueid": "MTK0341:3OF2M9AATHV3VFY6HLMELE20VOMZKB", "current_trial": 263, "dateTime": 1510725626938, "trialdata": {"rt": -1, "stimulus": "<p id=\"stim\">1</p>", "key_press": -1, "trial_type": "single-stim", "trial_index": 263, "time_elapsed": 1394806, "internal_node_id": "0.0-191.0-9.0"}}, {"uniqueid": "MTK0341:3OF2M9AATHV3VFY6HLMELE20VOMZKB", "current_trial": 264, "dateTime": 1510725628441, "trialdata": {"rt": -1, "stimulus": "<p id=\"stim\">+</p>", "key_press": -1, "type": "FIXATION", "trial_type": "single-stim", "trial_index": 264, "time_elapsed": 1396309, "internal_node_id": "0.0-192.0-0.0"}}, {"uniqueid": "MTK0341:3OF2M9AATHV3VFY6HLMELE20VOMZKB", "current_trial": 265, "dateTime": 1510725630044, "trialdata": {"rt": -1, "stimulus": "<p id=\"stim\">UMPIRE</p>", "key_press": -1, "type": "PRES_VIS", "word": "umpire", "wordID": 1534, "conditions": [24, 1600, "v", 24000], "trial": 7, "serialpos": 0, "trial_type": "single-stim", "trial_index": 265, "time_elapsed": 1397912, "internal_node_id": "0.0-193.0"}}, {"uniqueid": "MTK0341:3OF2M9AATHV3VFY6HLMELE20VOMZKB", "current_trial": 266, "dateTime": 1510725632468, "trialdata": {"rt": -1, "stimulus": "<p id=\"stim\">COBRA</p>", "key_press": -1, "type": "PRES_VIS", "word": "cobra", "wordID": 335, "conditions": [24, 1600, "v", 24000], "trial": 7, "serialpos": 1, "trial_type": "single-stim", "trial_index": 266, "time_elapsed": 1400336, "internal_node_id": "0.0-194.0"}}, {"uniqueid": "MTK0341:3OF2M9AATHV3VFY6HLMELE20VOMZKB", "current_trial": 267, "dateTime": 1510725635174, "trialdata": {"rt": -1, "stimulus": "<p id=\"stim\">RABBIT</p>", "key_press": -1, "type": "PRES_VIS", "word": "rabbit", "wordID": 1151, "conditions": [24, 1600, "v", 24000], "trial": 7, "serialpos": 2, "trial_type": "single-stim", "trial_index": 267, "time_elapsed": 1403042, "internal_node_id": "0.0-195.0"}}, {"uniqueid": "MTK0341:3OF2M9AATHV3VFY6HLMELE20VOMZKB", "current_trial": 268, "dateTime": 1510725637822, "trialdata": {"rt": -1, "stimulus": "<p id=\"stim\">SEAFOOD</p>", "key_press": -1, "type": "PRES_VIS", "word": "seafood", "wordID": 1259, "conditions": [24, 1600, "v", 24000], "trial": 7, "serialpos": 3, "trial_type": "single-stim", "trial_index": 268, "time_elapsed": 1405689, "internal_node_id": "0.0-196.0"}}, {"uniqueid": "MTK0341:3OF2M9AATHV3VFY6HLMELE20VOMZKB", "current_trial": 269, "dateTime": 1510725640598, "trialdata": {"rt": -1, "stimulus": "<p id=\"stim\">HUMAN</p>", "key_press": -1, "type": "PRES_VIS", "word": "human", "wordID": 725, "conditions": [24, 1600, "v", 24000], "trial": 7, "serialpos": 4, "trial_type": "single-stim", "trial_index": 269, "time_elapsed": 1408466, "internal_node_id": "0.0-197.0"}}, {"uniqueid": "MTK0341:3OF2M9AATHV3VFY6HLMELE20VOMZKB", "current_trial": 270, "dateTime": 1510725643237, "trialdata": {"rt": -1, "stimulus": "<p id=\"stim\">SODA</p>", "key_press": -1, "type": "PRES_VIS", "word": "soda", "wordID": 1340, "conditions": [24, 1600, "v", 24000], "trial": 7, "serialpos": 5, "trial_type": "single-stim", "trial_index": 270, "t