{"condition": 0, "counterbalance": 2404, "assignmentId": "3OUYGIZWR8574LPWQJEUBWLDAUAP0K", "workerId": "MTK0725", "hitId": "301KG0KX9CSK0UWSWR51WRGH5XD2H6", "currenttrial": 626, "bonus": 0, "data": [{"uniqueid": "MTK0725:3OUYGIZWR8574LPWQJEUBWLDAUAP0K", "current_trial": 0, "dateTime": 1512674359327, "trialdata": {"rt": 3894, "key_press": 68, "type": "INSTRUCTIONS", "trial_type": "text", "trial_index": 0, "time_elapsed": 3903, "internal_node_id": "0.0-0.0"}}, {"uniqueid": "MTK0725:3OUYGIZWR8574LPWQJEUBWLDAUAP0K", "current_trial": 1, "dateTime": 1512674399179, "trialdata": {"rt": 39848, "key_press": 72, "type": "INSTRUCTIONS", "trial_type": "text", "trial_index": 1, "time_elapsed": 43756, "internal_node_id": "0.0-1.0"}}, {"uniqueid": "MTK0725:3OUYGIZWR8574LPWQJEUBWLDAUAP0K", "current_trial": 2, "dateTime": 1512674447054, "trialdata": {"rt": [47844], "responses": ["ocean"], "type": "AUDIO_TEST", "trial_type": "audio-test", "trial_index": 2, "time_elapsed": 91632, "internal_node_id": "0.0-2.0"}}, {"uniqueid": "MTK0725:3OUYGIZWR8574LPWQJEUBWLDAUAP0K", "current_trial": 3, "dateTime": 1512674472685, "trialdata": {"rt": [25615], "responses": ["crystal"], "type": "AUDIO_TEST", "trial_type": "audio-test", "trial_index": 3, "time_elapsed": 117263, "internal_node_id": "0.0-3.0"}}, {"uniqueid": "MTK0725:3OUYGIZWR8574LPWQJEUBWLDAUAP0K", "current_trial": 4, "dateTime": 1512674484063, "trialdata": {"rt": [11363], "responses": ["spice"], "type": "AUDIO_TEST", "trial_type": "audio-test", "trial_index": 4, "time_elapsed": 128641, "internal_node_id": "0.0-4.0"}}, {"uniqueid": "MTK0725:3OUYGIZWR8574LPWQJEUBWLDAUAP0K", "current_trial": 5, "dateTime": 1512674560213, "trialdata": {"rt": 75390, "responses": "{\"Q0\":\"12am\",\"Q1\":\"7am\",\"Q2\":\"4\"}", "type": "SLEEP_SURVEY", "trial_type": "survey-text", "trial_index": 5, "time_elapsed": 204790, "internal_node_id": "0.0-5.0"}}, {"uniqueid": "MTK0725:3OUYGIZWR8574LPWQJEUBWLDAUAP0K", "current_trial": 6, "dateTime": 1512674632960, "trialdata": {"rt": 71743, "key_press": 70, "type": "INSTRUCTIONS", "trial_type": "text", "trial_index": 6, "time_elapsed": 277538, "internal_node_id": "0.0-6.0"}}, {"uniqueid": "MTK0725:3OUYGIZWR8574LPWQJEUBWLDAUAP0K", "current_trial": 7, "dateTime": 1512674667605, "trialdata": {"rt": 34141, "key_press": 85, "type": "INSTRUCTIONS", "trial_type": "text", "trial_index": 7, "time_elapsed": 312183, "internal_node_id": "0.0-7.0"}}, {"uniqueid": "MTK0725:3OUYGIZWR8574LPWQJEUBWLDAUAP0K", "current_trial": 8, "dateTime": 1512674683813, "trialdata": {"rt": 15702, "key_press": 83, "type": "INSTRUCTIONS", "trial_type": "text", "trial_index": 8, "time_elapsed": 328390, "internal_node_id": "0.0-8.0"}}, {"uniqueid": "MTK0725:3OUYGIZWR8574LPWQJEUBWLDAUAP0K", "current_trial": 9, "dateTime": 1512674702887, "trialdata": {"rt": [6352, 10112, 15456], "responses": ["11", "10", "9"], "num1": [1, 1, 7, 9], "num2": [7, 3, 1, 2], "num3": [3, 6, 1, 6], "type": "DISTRACTOR", "conditions": [18, 1200, "v", 18000], "trial": 0, "trial_type": "math-distractor", "trial_index": 9, "time_elapsed": 347464, "internal_node_id": "0.0-9.0"}}, {"uniqueid": "MTK0725:3OUYGIZWR8574LPWQJEUBWLDAUAP0K", "current_trial": 10, "dateTime": 1512674705895, "trialdata": {"rt": -1, "stimulus": "<p id=\"stim\">10</p>", "key_press": -1, "trial_type": "single-stim", "trial_index": 10, "time_elapsed": 350473, "internal_node_id": "0.0-10.0-0.0"}}, {"uniqueid": "MTK0725:3OUYGIZWR8574LPWQJEUBWLDAUAP0K", "current_trial": 11, "dateTime": 1512674706898, "trialdata": {"rt": -1, "stimulus": "<p id=\"stim\">9</p>", "key_press": -1, "trial_type": "single-stim", "trial_index": 11, "time_elapsed": 351476, "internal_node_id": "0.0-10.0-1.0"}}, {"uniqueid": "MTK0725:3OUYGIZWR8574LPWQJEUBWLDAUAP0K", "current_trial": 12, "dateTime": 1512674707902, "trialdata": {"rt": -1, "stimulus": "<p id=\"stim\">8</p>", "key_press": -1, "trial_type": "single-stim", "trial_index": 12, "time_elapsed": 352479, "internal_node_id": "0.0-10.0-2.0"}}, {"uniqueid": "MTK0725:3OUYGIZWR8574LPWQJEUBWLDAUAP0K", "current_trial": 13, "dateTime": 1512674708906, "trialdata": {"rt": -1, "stimulus": "<p id=\"stim\">7</p>", "key_press": -1, "trial_type": "single-stim", "trial_index": 13, "time_elapsed": 353484, "internal_node_id": "0.0-10.0-3.0"}}, {"uniqueid": "MTK0725:3OUYGIZWR8574LPWQJEUBWLDAUAP0K", "current_trial": 14, "dateTime": 1512674709910, "trialdata": {"rt": -1, "stimulus": "<p id=\"stim\">6</p>", "key_press": -1, "trial_type": "single-stim", "trial_index": 14, "time_elapsed": 354488, "internal_node_id": "0.0-10.0-4.0"}}, {"uniqueid": "MTK0725:3OUYGIZWR8574LPWQJEUBWLDAUAP0K", "current_trial": 15, "dateTime": 1512674710915, "trialdata": {"rt": -1, "stimulus": "<p id=\"stim\">5</p>", "key_press": -1, "trial_type": "single-stim", "trial_index": 15, "time_elapsed": 355493, "internal_node_id": "0.0-10.0-5.0"}}, {"uniqueid": "MTK0725:3OUYGIZWR8574LPWQJEUBWLDAUAP0K", "current_trial": 16, "dateTime": 1512674711918, "trialdata": {"rt": -1, "stimulus": "<p id=\"stim\">4</p>", "key_press": -1, "trial_type": "single-stim", "trial_index": 16, "time_elapsed": 356496, "internal_node_id": "0.0-10.0-6.0"}}, {"uniqueid": "MTK0725:3OUYGIZWR8574LPWQJEUBWLDAUAP0K", "current_trial": 17, "dateTime": 1512674712921, "trialdata": {"rt": -1, "stimulus": "<p id=\"stim\">3</p>", "key_press": -1, "trial_type": "single-stim", "trial_index": 17, "time_elapsed": 357499, "internal_node_id": "0.0-10.0-7.0"}}, {"uniqueid": "MTK0725:3OUYGIZWR8574LPWQJEUBWLDAUAP0K", "current_trial": 18, "dateTime": 1512674713926, "trialdata": {"rt": -1, "stimulus": "<p id=\"stim\">2</p>", "key_press": -1, "trial_type": "single-stim", "trial_index": 18, "time_elapsed": 358503, "internal_node_id": "0.0-10.0-8.0"}}, {"uniqueid": "MTK0725:3OUYGIZWR8574LPWQJEUBWLDAUAP0K", "current_trial": 19, "dateTime": 1512674714929, "trialdata": {"rt": -1, "stimulus": "<p id=\"stim\">1</p>", "key_press": -1, "trial_type": "single-stim", "trial_index": 19, "time_elapsed": 359506, "internal_node_id": "0.0-10.0-9.0"}}, {"uniqueid": "MTK0725:3OUYGIZWR8574LPWQJEUBWLDAUAP0K", "current_trial": 20, "dateTime": 1512674716433, "trialdata": {"rt": -1, "stimulus": "<p id=\"stim\">+</p>", "key_press": -1, "type": "FIXATION", "trial_type": "single-stim", "trial_index": 20, "time_elapsed": 361010, "internal_node_id": "0.0-11.0-0.0"}}, {"uniqueid": "MTK0725:3OUYGIZWR8574LPWQJEUBWLDAUAP0K", "current_trial": 21, "dateTime": 1512674717638, "trialdata": {"rt": -1, "stimulus": "<p id=\"stim\">ELBOW</p>", "key_press": -1, "type": "PRES_VIS", "word": "elbow", "wordID": 519, "conditions": [18, 1200, "v", 18000], "trial": 0, "serialpos": 0, "trial_type": "single-stim", "trial_index": 21, "time_elapsed": 362215, "internal_node_id": "0.0-12.0"}}, {"uniqueid": "MTK0725:3OUYGIZWR8574LPWQJEUBWLDAUAP0K", "current_trial": 22, "dateTime": 1512674719653, "trialdata": {"rt": -1, "stimulus": "<p id=\"stim\">SPONGE</p>", "key_press": -1, "type": "PRES_VIS", "word": "sponge", "wordID": 1354, "conditions": [18, 1200, "v", 18000], "trial": 0, "serialpos": 1, "trial_type": "single-stim", "trial_index": 22, "time_elapsed": 364230, "internal_node_id": "0.0-13.0"}}, {"uniqueid": "MTK0725:3OUYGIZWR8574LPWQJEUBWLDAUAP0K", "current_trial": 23, "dateTime": 1512674721858, "trialdata": {"rt": -1, "stimulus": "<p id=\"stim\">CONTRACT</p>", "key_press": -1, "type": "PRES_VIS", "word": "contract", "wordID": 367, "conditions": [18, 1200, "v", 18000], "trial": 0, "serialpos": 2, "trial_type": "single-stim", "trial_index": 23, "time_elapsed": 366435, "internal_node_id": "0.0-14.0"}}, {"uniqueid": "MTK0725:3OUYGIZWR8574LPWQJEUBWLDAUAP0K", "current_trial": 24, "dateTime": 1512674724155, "trialdata": {"rt": -1, "stimulus": "<p id=\"stim\">HOOK</p>", "key_press": -1, "type": "PRES_VIS", "word": "hook", "wordID": 714, "conditions": [18, 1200, "v", 18000], "trial": 0, "serialpos": 3, "trial_type": "single-stim", "trial_index": 24, "time_elapsed": 368733, "internal_node_id": "0.0-15.0"}}, {"uniqueid": "MTK0725:3OUYGIZWR8574LPWQJEUBWLDAUAP0K", "current_trial": 25, "dateTime": 1512674726200, "trialdata": {"rt": -1, "stimulus": "<p id=\"stim\">CHAMPAGNE</p>", "key_press": -1, "type": "PRES_VIS", "word": "champagne", "wordID": 277, "conditions": [18, 1200, "v", 18000], "trial": 0, "serialpos": 4, "trial_type": "single-stim", "trial_index": 25, "time_elapsed": 370778, "internal_node_id": "0.0-16.0"}}, {"uniqueid": "MTK0725:3OUYGIZWR8574LPWQJEUBWLDAUAP0K", "current_trial": 26, "dateTime": 1512674728266, "trialdata": {"rt": -1, "stimulus": "<p id=\"stim\">MILDEW</p>", "key_press": -1, "type": "PRES_VIS", "word": "mildew", "wordID": 892, "conditions": [18, 1200, "v", 18000], "trial": 0, "serialpos": 5, "trial_type": "single-stim", "trial_index": 26, "time_elapsed": 372843, "internal_node_id": "0.0-17.0"}}, {"uniqueid": "MTK0725:3OUYGIZWR8574LPWQJEUBWLDAUAP0K", "current_trial": 27, "dateTime": 1512674730508, "trialdata": {"rt": -1, "stimulus": "<p id=\"stim\">JOURNAL</p>", "key_press": -1, "type": "PRES_VIS", "word": "journal", "wordID": 759, "conditions": [18, 1200, "v", 18000], "trial": 0, "serialpos": 6, "trial_type": "single-stim", "trial_index": 27, "time_elapsed": 375085, "internal_node_id": "0.0-18.0"}}, {"uniqueid": "MTK0725:3OUYGIZWR8574LPWQJEUBWLDAUAP0K", "current_trial": 28, "dateTime": 1512674732670, "trialdata": {"rt": -1, "stimulus": "<p id=\"stim\">SHELF</p>", "key_press": -1, "type": "PRES_VIS", "word": "shelf", "wordID": 1279, "conditions": [18, 1200, "v", 18000], "trial": 0, "serialpos": 7, "trial_type": "single-stim", "trial_index": 28, "time_elapsed": 377248, "internal_node_id": "0.0-19.0"}}, {"uniqueid": "MTK0725:3OUYGIZWR8574LPWQJEUBWLDAUAP0K", "current_trial": 29, "dateTime": 1512674735072, "trialdata": {"rt": -1, "stimulus": "<p id=\"stim\">ROCKET</p>", "key_press": -1, "type": "PRES_VIS", "word": "rocket", "wordID": 1201, "conditions": [18, 1200, "v", 18000], "trial": 0, "serialpos": 8, "trial_type": "single-stim", "trial_index": 29, "time_elapsed": 379650, "internal_node_id": "0.0-20.0"}}, {"uniqueid": "MTK0725:3OUYGIZWR8574LPWQJEUBWLDAUAP0K", "current_trial": 30, "dateTime": 1512674737123, "trialdata": {"rt": -1, "stimulus": "<p id=\"stim\">TOURIST</p>", "key_press": -1, "type": "PRES_VIS", "word": "tourist", "wordID": 1487, "conditions": [18, 1200, "v", 18000], "trial": 0, "serialpos": 9, "trial_type": "single-stim", "trial_index": 30, "time_elapsed": 381701, "internal_node_id": "0.0-21.0"}}, {"uniqueid": "MTK0725:3OUYGIZWR8574LPWQJEUBWLDAUAP0K", "current_trial": 31, "dateTime": 1512674739406, "trialdata": {"rt": -1, "stimulus": "<p id=\"stim\">SIBLING</p>", "key_press": -1, "type": "PRES_VIS", "word": "sibling", "wordID": 1300, "conditions": [18, 1200, "v", 18000], "trial": 0, "serialpos": 10, "trial_type": "single-stim", "trial_index": 31, "time_elapsed": 383983, "internal_node_id": "0.0-22.0"}}, {"uniqueid": "MTK0725:3OUYGIZWR8574LPWQJEUBWLDAUAP0K", "current_trial": 32, "dateTime": 1512674741580, "trialdata": {"rt": -1, "stimulus": "<p id=\"stim\">DENTIST</p>", "key_press": -1, "type": "PRES_VIS", "word": "dentist", "wordID": 446, "conditions": [18, 1200, "v", 18000], "trial": 0, "serialpos": 11, "trial_type": "single-stim", "trial_index": 32, "time_elapsed": 386158, "internal_node_id": "0.0-23.0"}}, {"uniqueid": "MTK0725:3OUYGIZWR8574LPWQJEUBWLDAUAP0K", "current_trial": 33, "dateTime": 1512674743969, "trialdata": {"rt": -1, "stimulus": "<p id=\"stim\">REBEL</p>", "key_press": -1, "type": "PRES_VIS", "word": "rebel", "wordID": 1171, "conditions": [18, 1200, "v", 18000], "trial": 0, "serialpos": 12, "trial_type": "single-stim", "trial_index": 33, "time_elapsed": 388547, "internal_node_id": "0.0-24.0"}}, {"uniqueid": "MTK0725:3OUYGIZWR8574LPWQJEUBWLDAUAP0K", "current_trial": 34, "dateTime": 1512674746137, "trialdata": {"rt": -1, "stimulus": "<p id=\"stim\">CHAPEL</p>", "key_press": -1, "type": "PRES_VIS", "word": "chapel", "wordID": 279, "conditions": [18, 1200, "v", 18000], "trial": 0, "serialpos": 13, "trial_type": "single-stim", "trial_index": 34, "time_elapsed": 390715, "internal_node_id": "0.0-25.0"}}, {"uniqueid": "MTK0725:3OUYGIZWR8574LPWQJEUBWLDAUAP0K", "current_trial": 35, "dateTime": 1512674748169, "trialdata": {"rt": -1, "stimulus": "<p id=\"stim\">PARTNER</p>", "key_press": -1, "type": "PRES_VIS", "word": "partner", "wordID": 1016, "conditions": [18, 1200, "v", 18000], "trial": 0, "serialpos": 14, "trial_type": "single-stim", "trial_index": 35, "time_elapsed": 392747, "internal_node_id": "0.0-26.0"}}, {"uniqueid": "MTK0725:3OUYGIZWR8574LPWQJEUBWLDAUAP0K", "current_trial": 36, "dateTime": 1512674750394, "trialdata": {"rt": -1, "stimulus": "<p id=\"stim\">RACKET</p>", "key_press": -1, "type": "PRES_VIS", "word": "racket", "wordID": 1154, "conditions": [18, 1200, "v", 18000], "trial": 0, "serialpos": 15, "trial_type": "single-stim", "trial_index": 36, "time_elapsed": 394971, "internal_node_id": "0.0-27.0"}}, {"uniqueid": "MTK0725:3OUYGIZWR8574LPWQJEUBWLDAUAP0K", "current_trial": 37, "dateTime": 1512674752785, "trialdata": {"rt": -1, "stimulus": "<p id=\"stim\">FUNGUS</p>", "key_press": -1, "type": "PRES_VIS", "word": "fungus", "wordID": 613, "conditions": [18, 1200, "v", 18000], "trial": 0, "serialpos": 16, "trial_type": "single-stim", "trial_index": 37, "time_elapsed": 397363, "internal_node_id": "0.0-28.0"}}, {"uniqueid": "MTK0725:3OUYGIZWR8574LPWQJEUBWLDAUAP0K", "current_trial": 38, "dateTime": 1512674755028, "trialdata": {"rt": -1, "stimulus": "<p id=\"stim\">PREACHER</p>", "key_press": -1, "type": "PRES_VIS", "word": "preacher", "wordID": 1118, "conditions": [18, 1200, "v", 18000], "trial": 0, "serialpos": 17, "trial_type": "single-stim", "trial_index": 38, "time_elapsed": 399605, "internal_node_id": "0.0-29.0"}}, {"uniqueid": "MTK0725:3OUYGIZWR8574LPWQJEUBWLDAUAP0K", "current_trial": 39, "dateTime": 1512674757182, "trialdata": {"rt": -1, "stimulus": "", "key_press": -1, "type": "PRE_RECALL_DELAY", "trial_type": "single-stim", "trial_index": 39, "time_elapsed": 401760, "internal_node_id": "0.0-30.0-0.0"}}, {"uniqueid": "MTK0725:3OUYGIZWR8574LPWQJEUBWLDAUAP0K", "current_trial": 40, "dateTime": 1512674757690, "trialdata": {"rt": -1000, "stimulus": "/static/audio/400Hz.wav", "key_press": -1, "type": "PRE_RECALL_ALERT", "trial_type": "single-audio", "trial_index": 40, "time_elapsed": 402268, "internal_node_id": "0.0-31.0"}}, {"uniqueid": "MTK0725:3OUYGIZWR8574LPWQJEUBWLDAUAP0K", "current_trial": 41, "dateTime": 1512674817717, "trialdata": {"rt": [5808, 8256, 10577, 13682, 15840, 22577, 26225, 28817], "recwords": ["preacher", "mildew", "fungus", "elbow", "contract", "sponge", "racket", "rocket"], "type": "FREE_RECALL", "conditions": [18, 1200, "v", 18000], "trial": 0, "trial_type": "free-recall", "trial_index": 41, "time_elapsed": 462284, "internal_node_id": "0.0-32.0-0.0"}}, {"uniqueid": "MTK0725:3OUYGIZWR8574LPWQJEUBWLDAUAP0K", "current_trial": 42, "dateTime": 1512674823706, "trialdata": {"rt": 3986, "key_press": 74, "type": "INSTRUCTIONS", "trial_type": "text", "trial_index": 42, "time_elapsed": 468284, "internal_node_id": "0.0-33.0"}}, {"uniqueid": "MTK0725:3OUYGIZWR8574LPWQJEUBWLDAUAP0K", "current_trial": 43, "dateTime": 1512674843726, "trialdata": {"rt": [4010, 7066, 12410, 15706], "responses": ["17", "15", "16", "22"], "num1": [5, 7, 2, 9, 3], "num2": [6, 3, 9, 4, 5], "num3": [6, 5, 5, 9, 1], "type": "DISTRACTOR", "conditions": [18, 1200, "a", 18000], "trial": 1, "trial_type": "math-distractor", "trial_index": 43, "time_elapsed": 488303, "internal_node_id": "0.0-34.0"}}, {"uniqueid": "MTK0725:3OUYGIZWR8574LPWQJEUBWLDAUAP0K", "current_trial": 44, "dateTime": 1512674846733, "trialdata": {"rt": -1, "stimulus": "<p id=\"stim\">10</p>", "key_press": -1, "trial_type": "single-stim", "trial_index": 44, "time_elapsed": 491310, "internal_node_id": "0.0-35.0-0.0"}}, {"uniqueid": "MTK0725:3OUYGIZWR8574LPWQJEUBWLDAUAP0K", "current_trial": 45, "dateTime": 1512674847738, "trialdata": {"rt": -1, "stimulus": "<p id=\"stim\">9</p>", "key_press": -1, "trial_type": "single-stim", "trial_index": 45, "time_elapsed": 492315, "internal_node_id": "0.0-35.0-1.0"}}, {"uniqueid": "MTK0725:3OUYGIZWR8574LPWQJEUBWLDAUAP0K", "current_trial": 46, "dateTime": 1512674848746, "trialdata": {"rt": -1, "stimulus": "<p id=\"stim\">8</p>", "key_press": -1, "trial_type": "single-stim", "trial_index": 46, "time_elapsed": 493320, "internal_node_id": "0.0-35.0-2.0"}}, {"uniqueid": "MTK0725:3OUYGIZWR8574LPWQJEUBWLDAUAP0K", "current_trial": 47, "dateTime": 1512674849752, "trialdata": {"rt": -1, "stimulus": "<p id=\"stim\">7</p>", "key_press": -1, "trial_type": "single-stim", "trial_index": 47, "time_elapsed": 494330, "internal_node_id": "0.0-35.0-3.0"}}, {"uniqueid": "MTK0725:3OUYGIZWR8574LPWQJEUBWLDAUAP0K", "current_trial": 48, "dateTime": 1512674850757, "trialdata": {"rt": -1, "stimulus": "<p id=\"stim\">6</p>", "key_press": -1, "trial_type": "single-stim", "trial_index": 48, "time_elapsed": 495335, "internal_node_id": "0.0-35.0-4.0"}}, {"uniqueid": "MTK0725:3OUYGIZWR8574LPWQJEUBWLDAUAP0K", "current_trial": 49, "dateTime": 1512674851760, "trialdata": {"rt": -1, "stimulus": "<p id=\"stim\">5</p>", "key_press": -1, "trial_type": "single-stim", "trial_index": 49, "time_elapsed": 496338, "internal_node_id": "0.0-35.0-5.0"}}, {"uniqueid": "MTK0725:3OUYGIZWR8574LPWQJEUBWLDAUAP0K", "current_trial": 50, "dateTime": 1512674852764, "trialdata": {"rt": -1, "stimulus": "<p id=\"stim\">4</p>", "key_press": -1, "trial_type": "single-stim", "trial_index": 50, "time_elapsed": 497341, "internal_node_id": "0.0-35.0-6.0"}}, {"uniqueid": "MTK0725:3OUYGIZWR8574LPWQJEUBWLDAUAP0K", "current_trial": 51, "dateTime": 1512674853767, "trialdata": {"rt": -1, "stimulus": "<p id=\"stim\">3</p>", "key_press": -1, "trial_type": "single-stim", "trial_index": 51, "time_elapsed": 498345, "internal_node_id": "0.0-35.0-7.0"}}, {"uniqueid": "MTK0725:3OUYGIZWR8574LPWQJEUBWLDAUAP0K", "current_trial": 52, "dateTime": 1512674854771, "trialdata": {"rt": -1, "stimulus": "<p id=\"stim\">2</p>", "key_press": -1, "trial_type": "single-stim", "trial_index": 52, "time_elapsed": 499349, "internal_node_id": "0.0-35.0-8.0"}}, {"uniqueid": "MTK0725:3OUYGIZWR8574LPWQJEUBWLDAUAP0K", "current_trial": 53, "dateTime": 1512674855774, "trialdata": {"rt": -1, "stimulus": "<p id=\"stim\">1</p>", "key_press": -1, "trial_type": "single-stim", "trial_index": 53, "time_elapsed": 500352, "internal_node_id": "0.0-35.0-9.0"}}, {"uniqueid": "MTK0725:3OUYGIZWR8574LPWQJEUBWLDAUAP0K", "current_trial": 54, "dateTime": 1512674857278, "trialdata": {"rt": -1, "stimulus": "<p id=\"stim\">+</p>", "key_press": -1, "type": "FIXATION", "trial_type": "single-stim", "trial_index": 54, "time_elapsed": 501856, "internal_node_id": "0.0-36.0-0.0"}}, {"uniqueid": "MTK0725:3OUYGIZWR8574LPWQJEUBWLDAUAP0K", "current_trial": 55, "dateTime": 1512674859437, "trialdata": {"rt": -1000, "stimulus": "/static/audio/wordpool/GUARD.wav", "key_press": -1, "type": "PRES_AUD", "word": "guard", "wordID": 666, "conditions": [18, 1200, "a", 18000], "trial": 1, "serialpos": 0, "trial_type": "single-audio", "trial_index": 55, "time_elapsed": 504014, "internal_node_id": "0.0-37.0"}}, {"uniqueid": "MTK0725:3OUYGIZWR8574LPWQJEUBWLDAUAP0K", "current_trial": 56, "dateTime": 1512674861556, "trialdata": {"rt": -1000, "stimulus": "/static/audio/wordpool/OX.wav", "key_press": -1, "type": "PRES_AUD", "word": "ox", "wordID": 993, "conditions": [18, 1200, "a", 18000], "trial": 1, "serialpos": 1, "trial_type": "single-audio", "trial_index": 56, "time_elapsed": 506134, "internal_node_id": "0.0-38.0"}}, {"uniqueid": "MTK0725:3OUYGIZWR8574LPWQJEUBWLDAUAP0K", "current_trial": 57, "dateTime": 1512674863752, "trialdata": {"rt": -1000, "stimulus": "/static/audio/wordpool/ZIPPER.wav", "key_press": -1, "type": "PRES_AUD", "word": "zipper", "wordID": 1635, "conditions": [18, 1200, "a", 18000], "trial": 1, "serialpos": 2, "trial_type": "single-audio", "trial_index": 57, "time_elapsed": 508330, "internal_node_id": "0.0-39.0"}}, {"uniqueid": "MTK0725:3OUYGIZWR8574LPWQJEUBWLDAUAP0K", "current_trial": 58, "dateTime": 1512674865952, "trialdata": {"rt": -1000, "stimulus": "/static/audio/wordpool/GLOVE.wav", "key_press": -1, "type": "PRES_AUD", "word": "glove", "wordID": 641, "conditions": [18, 1200, "a", 18000], "trial": 1, "serialpos": 3, "trial_type": "single-audio", "trial_index": 58, "time_elapsed": 510530, "internal_node_id": "0.0-40.0"}}, {"uniqueid": "MTK0725:3OUYGIZWR8574LPWQJEUBWLDAUAP0K", "current_trial": 59, "dateTime": 1512674868163, "trialdata": {"rt": -1000, "stimulus": "/static/audio/wordpool/BODY.wav", "key_press": -1, "type": "PRES_AUD", "word": "body", "wordID": 144, "conditions": [18, 1200, "a", 18000], "trial": 1, "serialpos": 4, "trial_type": "single-audio", "trial_index": 59, "time_elapsed": 512740, "internal_node_id": "0.0-41.0"}}, {"uniqueid": "MTK0725:3OUYGIZWR8574LPWQJEUBWLDAUAP0K", "current_trial": 60, "dateTime": 1512674870300, "trialdata": {"rt": -1000, "stimulus": "/static/audio/wordpool/PANTHER.wav", "key_press": -1, "type": "PRES_AUD", "word": "panther", "wordID": 1008, "conditions": [18, 1200, "a", 18000], "trial": 1, "serialpos": 5, "trial_type": "single-audio", "trial_index": 60, "time_elapsed": 514877, "internal_node_id": "0.0-42.0"}}, {"uniqueid": "MTK0725:3OUYGIZWR8574LPWQJEUBWLDAUAP0K", "current_trial": 61, "dateTime": 1512674872402, "trialdata": {"rt": -1000, "stimulus": "/static/audio/wordpool/GIFT.wav", "key_press": -1, "type": "PRES_AUD", "word": "gift", "wordID": 634, "conditions": [18, 1200, "a", 18000], "trial": 1, "serialpos": 6, "trial_type": "single-audio", "trial_index": 61, "time_elapsed": 516979, "internal_node_id": "0.0-43.0"}}, {"uniqueid": "MTK0725:3OUYGIZWR8574LPWQJEUBWLDAUAP0K", "current_trial": 62, "dateTime": 1512674874450, "trialdata": {"rt": -1000, "stimulus": "/static/audio/wordpool/LEOPARD.wav", "key_press": -1, "type": "PRES_AUD", "word": "leopard", "wordID": 811, "conditions": [18, 1200, "a", 18000], "trial": 1, "serialpos": 7, "trial_type": "single-audio", "trial_index": 62, "time_elapsed": 519027, "internal_node_id": "0.0-44.0"}}, {"uniqueid": "MTK0725:3OUYGIZWR8574LPWQJEUBWLDAUAP0K", "current_trial": 63, "dateTime": 1512674876723, "trialdata": {"rt": -1000, "stimulus": "/static/audio/wordpool/SPHINX.wav", "key_press": -1, "type": "PRES_AUD", "word": "sphinx", "wordID": 1348, "conditions": [18, 1200, "a", 18000], "trial": 1, "serialpos": 8, "trial_type": "single-audio", "trial_index": 63, "time_elapsed": 521300, "internal_node_id": "0.0-45.0"}}, {"uniqueid": "MTK0725:3OUYGIZWR8574LPWQJEUBWLDAUAP0K", "current_trial": 64, "dateTime": 1512674878810, "trialdata": {"rt": -1000, "stimulus": "/static/audio/wordpool/WRENCH.wav", "key_press": -1, "type": "PRES_AUD", "word": "wrench", "wordID": 1624, "conditions": [18, 1200, "a", 18000], "trial": 1, "serialpos": 9, "trial_type": "single-audio", "trial_index": 64, "time_elapsed": 523387, "internal_node_id": "0.0-46.0"}}, {"uniqueid": "MTK0725:3OUYGIZWR8574LPWQJEUBWLDAUAP0K", "current_trial": 65, "dateTime": 1512674881115, "trialdata": {"rt": -1000, "stimulus": "/static/audio/wordpool/DRUG.wav", "key_press": -1, "type": "PRES_AUD", "word": "drug", "wordID": 500, "conditions": [18, 1200, "a", 18000], "trial": 1, "serialpos": 10, "trial_type": "single-audio", "trial_index": 65, "time_elapsed": 525692, "internal_node_id": "0.0-47.0"}}, {"uniqueid": "MTK0725:3OUYGIZWR8574LPWQJEUBWLDAUAP0K", "current_trial": 66, "dateTime": 1512674883346, "trialdata": {"rt": -1000, "stimulus": "/static/audio/wordpool/CROWN.wav", "key_press": -1, "type": "PRES_AUD", "word": "crown", "wordID": 414, "conditions": [18, 1200, "a", 18000], "trial": 1, "serialpos": 11, "trial_type": "single-audio", "trial_index": 66, "time_elapsed": 527923, "internal_node_id": "0.0-48.0"}}, {"uniqueid": "MTK0725:3OUYGIZWR8574LPWQJEUBWLDAUAP0K", "current_trial": 67, "dateTime": 1512674885675, "trialdata": {"rt": -1000, "stimulus": "/static/audio/wordpool/GHETTO.wav", "key_press": -1, "type": "PRES_AUD", "word": "ghetto", "wordID": 632, "conditions": [18, 1200, "a", 18000], "trial": 1, "serialpos": 12, "trial_type": "single-audio", "trial_index": 67, "time_elapsed": 530252, "internal_node_id": "0.0-49.0"}}, {"uniqueid": "MTK0725:3OUYGIZWR8574LPWQJEUBWLDAUAP0K", "current_trial": 68, "dateTime": 1512674887988, "trialdata": {"rt": -1000, "stimulus": "/static/audio/wordpool/TORTOISE.wav", "key_press": -1, "type": "PRES_AUD", "word": "tortoise", "wordID": 1485, "conditions": [18, 1200, "a", 18000], "trial": 1, "serialpos": 13, "trial_type": "single-audio", "trial_index": 68, "time_elapsed": 532556, "internal_node_id": "0.0-50.0"}}, {"uniqueid": "MTK0725:3OUYGIZWR8574LPWQJEUBWLDAUAP0K", "current_trial": 69, "dateTime": 1512674890358, "trialdata": {"rt": -1000, "stimulus": "/static/audio/wordpool/LIPSTICK.wav", "key_press": -1, "type": "PRES_AUD", "word": "lipstick", "wordID": 828, "conditions": [18, 1200, "a", 18000], "trial": 1, "serialpos": 14, "trial_type": "single-audio", "trial_index": 69, "time_elapsed": 534936, "internal_node_id": "0.0-51.0"}}, {"uniqueid": "MTK0725:3OUYGIZWR8574LPWQJEUBWLDAUAP0K", "current_trial": 70, "dateTime": 1512674892540, "trialdata": {"rt": -1000, "stimulus": "/static/audio/wordpool/LIZARD.wav", "key_press": -1, "type": "PRES_AUD", "word": "lizard", "wordID": 833, "conditions": [18, 1200, "a", 18000], "trial": 1, "serialpos": 15, "trial_type": "single-audio", "trial_index": 70, "time_elapsed": 537118, "internal_node_id": "0.0-52.0"}}, {"uniqueid": "MTK0725:3OUYGIZWR8574LPWQJEUBWLDAUAP0K", "current_trial": 71, "dateTime": 1512674894906, "trialdata": {"rt": -1000, "stimulus": "/static/audio/wordpool/MARS.wav", "key_press": -1, "type": "PRES_AUD", "word": "mars", "wordID": 872, "conditions": [18, 1200, "a", 18000], "trial": 1, "serialpos": 16, "trial_type": "single-audio", "trial_index": 71, "time_elapsed": 539484, "internal_node_id": "0.0-53.0"}}, {"uniqueid": "MTK0725:3OUYGIZWR8574LPWQJEUBWLDAUAP0K", "current_trial": 72, "dateTime": 1512674897069, "trialdata": {"rt": -1000, "stimulus": "/static/audio/wordpool/SUITCASE.wav", "key_press": -1, "type": "PRES_AUD", "word": "suitcase", "wordID": 1402, "conditions": [18, 1200, "a", 18000], "trial": 1, "serialpos": 17, "trial_type": "single-audio", "trial_index": 72, "time_elapsed": 541646, "internal_node_id": "0.0-54.0"}}, {"uniqueid": "MTK0725:3OUYGIZWR8574LPWQJEUBWLDAUAP0K", "current_trial": 73, "dateTime": 1512674898322, "trialdata": {"rt": -1, "stimulus": "", "key_press": -1, "type": "PRE_RECALL_DELAY", "trial_type": "single-stim", "trial_index": 73, "time_elapsed": 542899, "internal_node_id": "0.0-55.0-0.0"}}, {"uniqueid": "MTK0725:3OUYGIZWR8574LPWQJEUBWLDAUAP0K", "current_trial": 74, "dateTime": 1512674898825, "trialdata": {"rt": -1000, "stimulus": "/static/audio/400Hz.wav", "key_press": -1, "type": "PRE_RECALL_ALERT", "trial_type": "single-audio", "trial_index": 74, "time_elapsed": 543402, "internal_node_id": "0.0-56.0"}}, {"uniqueid": "MTK0725:3OUYGIZWR8574LPWQJEUBWLDAUAP0K", "current_trial": 75, "dateTime": 1512674958844, "trialdata": {"rt": [3897, 6760, 8777, 11129, 13705, 15930, 20378, 25418, 28858, 56714], "recwords": ["suitcase", "zipper", "glove", "body", "mars", "ghetto", "sphinx", "leopard", "lizard", "wrench"], "type": "FREE_RECALL", "conditions": [18, 1200, "a", 18000], "trial": 1, "trial_type": "free-recall", "trial_index": 75, "time_elapsed": 603410, "internal_node_id": "0.0-57.0-0.0"}}, {"uniqueid": "MTK0725:3OUYGIZWR8574LPWQJEUBWLDAUAP0K", "current_trial": 76, "dateTime": 1512674966623, "trialdata": {"rt": 5758, "key_press": 69, "type": "INSTRUCTIONS", "trial_type": "text", "trial_index": 76, "time_elapsed": 611182, "internal_node_id": "0.0-58.0"}}, {"uniqueid": "MTK0725:3OUYGIZWR8574LPWQJEUBWLDAUAP0K", "current_trial": 77, "dateTime": 1512674991632, "trialdata": {"rt": [5501, 9965, 13516, 16205, 19885, 23181], "responses": ["26", "16", "17", "12", "16", "12"], "num1": [8, 5, 8, 7, 9, 4, 6], "num2": [9, 7, 4, 2, 2, 4, 8], "num3": [9, 4, 5, 3, 5, 4, 1], "type": "DISTRACTOR", "conditions": [12, 1600, "a", 24000], "trial": 2, "trial_type": "math-distractor", "trial_index": 77, "time_elapsed": 636210, "internal_node_id": "0.0-59.0"}}, {"uniqueid": "MTK0725:3OUYGIZWR8574LPWQJEUBWLDAUAP0K", "current_trial": 78, "dateTime": 1512674994635, "trialdata": {"rt": -1, "stimulus": "<p id=\"stim\">10</p>", "key_press": -1, "trial_type": "single-stim", "trial_index": 78, "time_elapsed": 639213, "internal_node_id": "0.0-60.0-0.0"}}, {"uniqueid": "MTK0725:3OUYGIZWR8574LPWQJEUBWLDAUAP0K", "current_trial": 79, "dateTime": 1512674995639, "trialdata": {"rt": -1, "stimulus": "<p id=\"stim\">9</p>", "key_press": -1, "trial_type": "single-stim", "trial_index": 79, "time_elapsed": 640217, "internal_node_id": "0.0-60.0-1.0"}}, {"uniqueid": "MTK0725:3OUYGIZWR8574LPWQJEUBWLDAUAP0K", "current_trial": 80, "dateTime": 1512674996643, "trialdata": {"rt": -1, "stimulus": "<p id=\"stim\">8</p>", "key_press": -1, "trial_type": "single-stim", "trial_index": 80, "time_elapsed": 641221, "internal_node_id": "0.0-60.0-2.0"}}, {"uniqueid": "MTK0725:3OUYGIZWR8574LPWQJEUBWLDAUAP0K", "current_trial": 81, "dateTime": 1512674997646, "trialdata": {"rt": -1, "stimulus": "<p id=\"stim\">7</p>", "key_press": -1, "trial_type": "single-stim", "trial_index": 81, "time_elapsed": 642224, "internal_node_id": "0.0-60.0-3.0"}}, {"uniqueid": "MTK0725:3OUYGIZWR8574LPWQJEUBWLDAUAP0K", "current_trial": 82, "dateTime": 1512674998649, "trialdata": {"rt": -1, "stimulus": "<p id=\"stim\">6</p>", "key_press": -1, "trial_type": "single-stim", "trial_index": 82, "time_elapsed": 643227, "internal_node_id": "0.0-60.0-4.0"}}, {"uniqueid": "MTK0725:3OUYGIZWR8574LPWQJEUBWLDAUAP0K", "current_trial": 83, "dateTime": 1512674999652, "trialdata": {"rt": -1, "stimulus": "<p id=\"stim\">5</p>", "key_press": -1, "trial_type": "single-stim", "trial_index": 83, "time_elapsed": 644230, "internal_node_id": "0.0-60.0-5.0"}}, {"uniqueid": "MTK0725:3OUYGIZWR8574LPWQJEUBWLDAUAP0K", "current_trial": 84, "dateTime": 1512675000660, "trialdata": {"rt": -1, "stimulus": "<p id=\"stim\">4</p>", "key_press": -1, "trial_type": "single-stim", "trial_index": 84, "time_elapsed": 645238, "internal_node_id": "0.0-60.0-6.0"}}, {"uniqueid": "MTK0725:3OUYGIZWR8574LPWQJEUBWLDAUAP0K", "current_trial": 85, "dateTime": 1512675001665, "trialdata": {"rt": -1, "stimulus": "<p id=\"stim\">3</p>", "key_press": -1, "trial_type": "single-stim", "trial_index": 85, "time_elapsed": 646242, "internal_node_id": "0.0-60.0-7.0"}}, {"uniqueid": "MTK0725:3OUYGIZWR8574LPWQJEUBWLDAUAP0K", "current_trial": 86, "dateTime": 1512675002668, "trialdata": {"rt": -1, "stimulus": "<p id=\"stim\">2</p>", "key_press": -1, "trial_type": "single-stim", "trial_index": 86, "time_elapsed": 647246, "internal_node_id": "0.0-60.0-8.0"}}, {"uniqueid": "MTK0725:3OUYGIZWR8574LPWQJEUBWLDAUAP0K", "current_trial": 87, "dateTime": 1512675003672, "trialdata": {"rt": -1, "stimulus": "<p id=\"stim\">1</p>", "key_press": -1, "trial_type": "single-stim", "trial_index": 87, "time_elapsed": 648250, "internal_node_id": "0.0-60.0-9.0"}}, {"uniqueid": "MTK0725:3OUYGIZWR8574LPWQJEUBWLDAUAP0K", "current_trial": 88, "dateTime": 1512675005176, "trialdata": {"rt": -1, "stimulus": "<p id=\"stim\">+</p>", "key_press": -1, "type": "FIXATION", "trial_type": "single-stim", "trial_index": 88, "time_elapsed": 649754, "internal_node_id": "0.0-61.0-0.0"}}, {"uniqueid": "MTK0725:3OUYGIZWR8574LPWQJEUBWLDAUAP0K", "current_trial": 89, "dateTime": 1512675007604, "trialdata": {"rt": -1000, "stimulus": "/static/audio/wordpool/WORLD.wav", "key_press": -1, "type": "PRES_AUD", "word": "world", "wordID": 1621, "conditions": [12, 1600, "a", 24000], "trial": 2, "serialpos": 0, "trial_type": "single-audio", "trial_index": 89, "time_elapsed": 652181, "internal_node_id": "0.0-62.0"}}, {"uniqueid": "MTK0725:3OUYGIZWR8574LPWQJEUBWLDAUAP0K", "current_trial": 90, "dateTime": 1512675010128, "trialdata": {"rt": -1000, "stimulus": "/static/audio/wordpool/TRIBE.wav", "key_press": -1, "type": "PRES_AUD", "word": "tribe", "wordID": 1504, "conditions": [12, 1600, "a", 24000], "trial": 2, "serialpos": 1, "trial_type": "single-audio", "trial_index": 90, "time_elapsed": 654706, "internal_node_id": "0.0-63.0"}}, {"uniqueid": "MTK0725:3OUYGIZWR8574LPWQJEUBWLDAUAP0K", "current_trial": 91, "dateTime": 1512675012841, "trialdata": {"rt": -1000, "stimulus": "/static/audio/wordpool/DOLPHIN.wav", "key_press": -1, "type": "PRES_AUD", "word": "dolphin", "wordID": 482, "conditions": [12, 1600, "a", 24000], "trial": 2, "serialpos": 2, "trial_type": "single-audio", "trial_index": 91, "time_elapsed": 657419, "internal_node_id": "0.0-64.0"}}, {"uniqueid": "MTK0725:3OUYGIZWR8574LPWQJEUBWLDAUAP0K", "current_trial": 92, "dateTime": 1512675015268, "trialdata": {"rt": -1000, "stimulus": "/static/audio/wordpool/SALAD.wav", "key_press": -1, "type": "PRES_AUD", "word": "salad", "wordID": 1223, "conditions": [12, 1600, "a", 24000], "trial": 2, "serialpos": 3, "trial_type": "single-audio", "trial_index": 92, "time_elapsed": 659846, "internal_node_id": "0.0-65.0"}}, {"uniqueid": "MTK0725:3OUYGIZWR8574LPWQJEUBWLDAUAP0K", "current_trial": 93, "dateTime": 1512675017789, "trialdata": {"rt": -1000, "stimulus": "/static/audio/wordpool/CHEST.wav", "key_press": -1, "type": "PRES_AUD", "word": "chest", "wordID": 294, "conditions": [12, 1600, "a", 24000], "trial": 2, "serialpos": 4, "trial_type": "single-audio", "trial_index": 93, "time_elapsed": 662367, "internal_node_id": "0.0-66.0"}}, {"uniqueid": "MTK0725:3OUYGIZWR8574LPWQJEUBWLDAUAP0K", "current_trial": 94, "dateTime": 1512675020505, "trialdata": {"rt": -1000, "stimulus": "/static/audio/wordpool/FOREHEAD.wav", "key_press": -1, "type": "PRES_AUD", "word": "forehead", "wordID": 591, "conditions": [12, 1600, "a", 24000], "trial": 2, "serialpos": 5, "trial_type": "single-audio", "trial_index": 94, "time_elapsed": 665083, "internal_node_id": "0.0-67.0"}}, {"uniqueid": "MTK0725:3OUYGIZWR8574LPWQJEUBWLDAUAP0K", "current_trial": 95, "dateTime": 1512675022943, "trialdata": {"rt": -1000, "stimulus": "/static/audio/wordpool/GIRL.wav", "key_press": -1, "type": "PRES_AUD", "word": "girl", "wordID": 636, "conditions": [12, 1600, "a", 24000], "trial": 2, "serialpos": 6, "trial_type": "single-audio", "trial_index": 95, "time_elapsed": 667521, "internal_node_id": "0.0-68.0"}}, {"uniqueid": "MTK0725:3OUYGIZWR8574LPWQJEUBWLDAUAP0K", "current_trial": 96, "dateTime": 1512675025643, "trialdata": {"rt": -1000, "stimulus": "/static/audio/wordpool/PIGEON.wav", "key_press": -1, "type": "PRES_AUD", "word": "pigeon", "wordID": 1064, "conditions": [12, 1600, "a", 24000], "trial": 2, "serialpos": 7, "trial_type": "single-audio", "trial_index": 96, "time_elapsed": 670220, "internal_node_id": "0.0-69.0"}}, {"uniqueid": "MTK0725:3OUYGIZWR8574LPWQJEUBWLDAUAP0K", "current_trial": 97, "dateTime": 1512675028201, "trialdata": {"rt": -1000, "stimulus": "/static/audio/wordpool/FRANCE.wav", "key_press": -1, "type": "PRES_AUD", "word": "france", "wordID": 600, "conditions": [12, 1600, "a", 24000], "trial": 2, "serialpos": 8, "trial_type": "single-audio", "trial_index": 97, "time_elapsed": 672779, "internal_node_id": "0.0-70.0"}}, {"uniqueid": "MTK0725:3OUYGIZWR8574LPWQJEUBWLDAUAP0K", "current_trial": 98, "dateTime": 1512675030745, "trialdata": {"rt": -1000, "stimulus": "/static/audio/wordpool/SANDWICH.wav", "key_press": -1, "type": "PRES_AUD", "word": "sandwich", "wordID": 1231, "conditions": [12, 1600, "a", 24000], "trial": 2, "serialpos": 9, "trial_type": "single-audio", "trial_index": 98, "time_elapsed": 675323, "internal_node_id": "0.0-71.0"}}, {"uniqueid": "MTK0725:3OUYGIZWR8574LPWQJEUBWLDAUAP0K", "current_trial": 99, "dateTime": 1512675033267, "trialdata": {"rt": -1000, "stimulus": "/static/audio/wordpool/LEADER.wav", "key_press": -1, "type": "PRES_AUD", "word": "leader", "wordID": 806, "conditions": [12, 1600, "a", 24000], "trial": 2, "serialpos": 10, "trial_type": "single-audio", "trial_index": 99, "time_elapsed": 677845, "internal_node_id": "0.0-72.0"}}, {"uniqueid": "MTK0725:3OUYGIZWR8574LPWQJEUBWLDAUAP0K", "current_trial": 100, "dateTime": 1512675036052, "trialdata": {"rt": -1000, "stimulus": "/static/audio/wordpool/SKIRT.wav", "key_press": -1, "type": "PRES_AUD", "word": "skirt", "wordID": 1318, "conditions": [12, 1600, "a", 24000], "trial": 2, "serialpos": 11, "trial_type": "single-audio", "trial_index": 100, "time_elapsed": 680629, "internal_node_id": "0.0-73.0"}}, {"uniqueid": "MTK0725:3OUYGIZWR8574LPWQJEUBWLDAUAP0K", "current_trial": 101, "dateTime": 1512675037287, "trialdata": {"rt": -1, "stimulus": "", "key_press": -1, "type": "PRE_RECALL_DELAY", "trial_type": "single-stim", "trial_index": 101, "time_elapsed": 681864, "internal_node_id": "0.0-74.0-0.0"}}, {"uniqueid": "MTK0725:3OUYGIZWR8574LPWQJEUBWLDAUAP0K", "current_trial": 102, "dateTime": 1512675037791, "trialdata": {"rt": -1000, "stimulus": "/static/audio/400Hz.wav", "key_press": -1, "type": "PRE_RECALL_ALERT", "trial_type": "single-audio", "trial_index": 102, "time_elapsed": 682368, "internal_node_id": "0.0-75.0"}}, {"uniqueid": "MTK0725:3OUYGIZWR8574LPWQJEUBWLDAUAP0K", "current_trial": 103, "dateTime": 1512675097817, "trialdata": {"rt": [2534, 4519, 6359, 10726, 13145, 18247, 22408], "recwords": ["girl", "skirt", "world", "pigeon", "dolphin", "forehead", "chest"], "type": "FREE_RECALL", "conditions": [12, 1600, "a", 24000], "trial": 2, "trial_type": "free-recall", "trial_index": 103, "time_elapsed": 742378, "internal_node_id": "0.0-76.0-0.0"}}, {"uniqueid": "MTK0725:3OUYGIZWR8574LPWQJEUBWLDAUAP0K", "current_trial": 104, "dateTime": 1512675103022, "trialdata": {"rt": 3201, "key_press": 73, "type": "INSTRUCTIONS", "trial_type": "text", "trial_index": 104, "time_elapsed": 747600, "internal_node_id": "0.0-77.0"}}, {"uniqueid": "MTK0725:3OUYGIZWR8574LPWQJEUBWLDAUAP0K", "current_trial": 105, "dateTime": 1512675129038, "trialdata": {"rt": [4208, 6704, 9552, 12432, 15200, 18928, 22273], "responses": ["16", "11", "15", "8", "15", "15", "13"], "num1": [9, 9, 4, 5, 9, 7, 2, 9], "num2": [4, 1, 7, 1, 1, 6, 9, 2], "num3": [3, 1, 4, 2, 5, 2, 2, 8], "type": "DISTRACTOR", "conditions": [24, 1600, "a", 24000], "trial": 3, "trial_type": "math-distractor", "trial_index": 105, "time_elapsed": 773616, "internal_node_id": "0.0-78.0"}}, {"uniqueid": "MTK0725:3OUYGIZWR8574LPWQJEUBWLDAUAP0K", "current_trial": 106, "dateTime": 1512675132041, "trialdata": {"rt": -1, "stimulus": "<p id=\"stim\">10</p>", "key_press": -1, "trial_type": "single-stim", "trial_index": 106, "time_elapsed": 776619, "internal_node_id": "0.0-79.0-0.0"}}, {"uniqueid": "MTK0725:3OUYGIZWR8574LPWQJEUBWLDAUAP0K", "current_trial": 107, "dateTime": 1512675133046, "trialdata": {"rt": -1, "stimulus": "<p id=\"stim\">9</p>", "key_press": -1, "trial_type": "single-stim", "trial_index": 107, "time_elapsed": 777624, "internal_node_id": "0.0-79.0-1.0"}}, {"uniqueid": "MTK0725:3OUYGIZWR8574LPWQJEUBWLDAUAP0K", "current_trial": 108, "dateTime": 1512675134050, "trialdata": {"rt": -1, "stimulus": "<p id=\"stim\">8</p>", "key_press": -1, "trial_type": "single-stim", "trial_index": 108, "time_elapsed": 778627, "internal_node_id": "0.0-79.0-2.0"}}, {"uniqueid": "MTK0725:3OUYGIZWR8574LPWQJEUBWLDAUAP0K", "current_trial": 109, "dateTime": 1512675135051, "trialdata": {"rt": -1, "stimulus": "<p id=\"stim\">7</p>", "key_press": -1, "trial_type": "single-stim", "trial_index": 109, "time_elapsed": 779629, "internal_node_id": "0.0-79.0-3.0"}}, {"uniqueid": "MTK0725:3OUYGIZWR8574LPWQJEUBWLDAUAP0K", "current_trial": 110, "dateTime": 1512675136055, "trialdata": {"rt": -1, "stimulus": "<p id=\"stim\">6</p>", "key_press": -1, "trial_type": "single-stim", "trial_index": 110, "time_elapsed": 780632, "internal_node_id": "0.0-79.0-4.0"}}, {"uniqueid": "MTK0725:3OUYGIZWR8574LPWQJEUBWLDAUAP0K", "current_trial": 111, "dateTime": 1512675137057, "trialdata": {"rt": -1, "stimulus": "<p id=\"stim\">5</p>", "key_press": -1, "trial_type": "single-stim", "trial_index": 111, "time_elapsed": 781635, "internal_node_id": "0.0-79.0-5.0"}}, {"uniqueid": "MTK0725:3OUYGIZWR8574LPWQJEUBWLDAUAP0K", "current_trial": 112, "dateTime": 1512675138062, "trialdata": {"rt": -1, "stimulus": "<p id=\"stim\">4</p>", "key_press": -1, "trial_type": "single-stim", "trial_index": 112, "time_elapsed": 782639, "internal_node_id": "0.0-79.0-6.0"}}, {"uniqueid": "MTK0725:3OUYGIZWR8574LPWQJEUBWLDAUAP0K", "current_trial": 113, "dateTime": 1512675139064, "trialdata": {"rt": -1, "stimulus": "<p id=\"stim\">3</p>", "key_press": -1, "trial_type": "single-stim", "trial_index": 113, "time_elapsed": 783642, "internal_node_id": "0.0-79.0-7.0"}}, {"uniqueid": "MTK0725:3OUYGIZWR8574LPWQJEUBWLDAUAP0K", "current_trial": 114, "dateTime": 1512675140069, "trialdata": {"rt": -1, "stimulus": "<p id=\"stim\">2</p>", "key_press": -1, "trial_type": "single-stim", "trial_index": 114, "time_elapsed": 784646, "internal_node_id": "0.0-79.0-8.0"}}, {"uniqueid": "MTK0725:3OUYGIZWR8574LPWQJEUBWLDAUAP0K", "current_trial": 115, "dateTime": 1512675141071, "trialdata": {"rt": -1, "stimulus": "<p id=\"stim\">1</p>", "key_press": -1, "trial_type": "single-stim", "trial_index": 115, "time_elapsed": 785649, "internal_node_id": "0.0-79.0-9.0"}}, {"uniqueid": "MTK0725:3OUYGIZWR8574LPWQJEUBWLDAUAP0K", "current_trial": 116, "dateTime": 1512675142575, "trialdata": {"rt": -1, "stimulus": "<p id=\"stim\">+</p>", "key_press": -1, "type": "FIXATION", "trial_type": "single-stim", "trial_index": 116, "time_elapsed": 787153, "internal_node_id": "0.0-80.0-0.0"}}, {"uniqueid": "MTK0725:3OUYGIZWR8574LPWQJEUBWLDAUAP0K", "current_trial": 117, "dateTime": 1512675145021, "trialdata": {"rt": -1000, "stimulus": "/static/audio/wordpool/WORKER.wav", "key_press": -1, "type": "PRES_AUD", "word": "worker", "wordID": 1620, "conditions": [24, 1600, "a", 24000], "trial": 3, "serialpos": 0, "trial_type": "single-audio", "trial_index": 117, "time_elapsed": 789599, "internal_node_id": "0.0-81.0"}}, {"uniqueid": "MTK0725:3OUYGIZWR8574LPWQJEUBWLDAUAP0K", "current_trial": 118, "dateTime": 1512675147691, "trialdata": {"rt": -1000, "stimulus": "/static/audio/wordpool/ATOM.wav", "key_press": -1, "type": "PRES_AUD", "word": "atom", "wordID": 54, "conditions": [24, 1600, "a", 24000], "trial": 3, "serialpos": 1, "trial_type": "single-audio", "trial_index": 118, "time_elapsed": 792268, "internal_node_id": "0.0-82.0"}}, {"uniqueid": "MTK0725:3OUYGIZWR8574LPWQJEUBWLDAUAP0K", "current_trial": 119, "dateTime": 1512675150211, "trialdata": {"rt": -1000, "stimulus": "/static/audio/wordpool/CABBAGE.wav", "key_press": -1, "type": "PRES_AUD", "word": "cabbage", "wordID": 209, "conditions": [24, 1600, "a", 24000], "trial": 3, "serialpos": 2, "trial_type": "single-audio", "trial_index": 119, "time_elapsed": 794789, "internal_node_id": "0.0-83.0"}}, {"uniqueid": "MTK0725:3OUYGIZWR8574LPWQJEUBWLDAUAP0K", "current_trial": 120, "dateTime": 1512675152898, "trialdata": {"rt": -1000, "stimulus": "/static/audio/wordpool/INFANT.wav", "key_press": -1, "type": "PRES_AUD", "word": "infant", "wordID": 736, "conditions": [24, 1600, "a", 24000], "trial": 3, "serialpos": 3, "trial_type": "single-audio", "trial_index": 120, "time_elapsed": 797475, "internal_node_id": "0.0-84.0"}}, {"uniqueid": "MTK0725:3OUYGIZWR8574LPWQJEUBWLDAUAP0K", "current_trial": 121, "dateTime": 1512675155554, "trialdata": {"rt": -1000, "stimulus": "/static/audio/wordpool/CHILD.wav", "key_press": -1, "type": "PRES_AUD", "word": "child", "wordID": 298, "conditions": [24, 1600, "a", 24000], "trial": 3, "serialpos": 4, "trial_type": "single-audio", "trial_index": 121, "time_elapsed": 800132, "internal_node_id": "0.0-85.0"}}, {"uniqueid": "MTK0725:3OUYGIZWR8574LPWQJEUBWLDAUAP0K", "current_trial": 122, "dateTime": 1512675158337, "trialdata": {"rt": -1000, "stimulus": "/static/audio/wordpool/GAZELLE.wav", "key_press": -1, "type": "PRES_AUD", "word": "gazelle", "wordID": 627, "conditions": [24, 1600, "a", 24000], "trial": 3, "serialpos": 5, "trial_type": "single-audio", "trial_index": 122, "time_elapsed": 802915, "internal_node_id": "0.0-86.0"}}, {"uniqueid": "MTK0725:3OUYGIZWR8574LPWQJEUBWLDAUAP0K", "current_trial": 123, "dateTime": 1512675160917, "trialdata": {"rt": -1000, "stimulus": "/static/audio/wordpool/CLOUD.wav", "key_press": -1, "type": "PRES_AUD", "word": "cloud", "wordID": 327, "conditions": [24, 1600, "a", 24000], "trial": 3, "serialpos": 6, "trial_type": "single-audio", "trial_index": 123, "time_elapsed": 805494, "internal_node_id": "0.0-87.0"}}, {"uniqueid": "MTK0725:3OUYGIZWR8574LPWQJEUBWLDAUAP0K", "current_trial": 124, "dateTime": 1512675163433, "trialdata": {"rt": -1000, "stimulus": "/static/audio/wordpool/GARLIC.wav", "key_press": -1, "type": "PRES_AUD", "word": "garlic", "wordID": 623, "conditions": [24, 1600, "a", 24000], "trial": 3, "serialpos": 7, "trial_type": "single-audio", "trial_index": 124, "time_elapsed": 808011, "internal_node_id": "0.0-88.0"}}, {"uniqueid": "MTK0725:3OUYGIZWR8574LPWQJEUBWLDAUAP0K", "current_trial": 125, "dateTime": 1512675165894, "trialdata": {"rt": -1000, "stimulus": "/static/audio/wordpool/LION.wav", "key_press": -1, "type": "PRES_AUD", "word": "lion", "wordID": 826, "conditions": [24, 1600, "a", 24000], "trial": 3, "serialpos": 8, "trial_type": "single-audio", "trial_index": 125, "time_elapsed": 810472, "internal_node_id": "0.0-89.0"}}, {"uniqueid": "MTK0725:3OUYGIZWR8574LPWQJEUBWLDAUAP0K", "current_trial": 126, "dateTime": 1512675168425, "trialdata": {"rt": -1000, "stimulus": "/static/audio/wordpool/DOUGHNUT.wav", "key_press": -1, "type": "PRES_AUD", "word": "doughnut", "wordID": 489, "conditions": [24, 1600, "a", 24000], "trial": 3, "serialpos": 9, "trial_type": "single-audio", "trial_index": 126, "time_elapsed": 813003, "internal_node_id": "0.0-90.0"}}, {"uniqueid": "MTK0725:3OUYGIZWR8574LPWQJEUBWLDAUAP0K", "current_trial": 127, "dateTime": 1512675170947, "trialdata": {"rt": -1000, "stimulus": "/static/audio/wordpool/PERFUME.wav", "key_press": -1, "type": "PRES_AUD", "word": "perfume", "wordID": 1048, "conditions": [24, 1600, "a", 24000], "trial": 3, "serialpos": 10, "trial_type": "single-audio", "trial_index": 127, "time_elapsed": 815525, "internal_node_id": "0.0-91.0"}}, {"uniqueid": "MTK0725:3OUYGIZWR8574LPWQJEUBWLDAUAP0K", "current_trial": 128, "dateTime": 1512675173447, "trialdata": {"rt": -1000, "stimulus": "/static/audio/wordpool/PLATE.wav", "key_press": -1, "type": "PRES_AUD", "word": "plate", "wordID": 1085, "conditions": [24, 1600, "a", 24000], "trial": 3, "serialpos": 11, "trial_type": "single-audio", "trial_index": 128, "time_elapsed": 818024, "internal_node_id": "0.0-92.0"}}, {"uniqueid": "MTK0725:3OUYGIZWR8574LPWQJEUBWLDAUAP0K", "current_trial": 129, "dateTime": 1512675175868, "trialdata": {"rt": -1000, "stimulus": "/static/audio/wordpool/STOVE.wav", "key_press": -1, "type": "PRES_AUD", "word": "stove", "wordID": 1387, "conditions": [24, 1600, "a", 24000], "trial": 3, "serialpos": 12, "trial_type": "single-audio", "trial_index": 129, "time_elapsed": 820445, "internal_node_id": "0.0-93.0"}}, {"uniqueid": "MTK0725:3OUYGIZWR8574LPWQJEUBWLDAUAP0K", "current_trial": 130, "dateTime": 1512675178425, "trialdata": {"rt": -1000, "stimulus": "/static/audio/wordpool/AIRPLANE.wav", "key_press": -1, "type": "PRES_AUD", "word": "airplane", "wordID": 11, "conditions": [24, 1600, "a", 24000], "trial": 3, "serialpos": 13, "trial_type": "single-audio", "trial_index": 130, "time_elapsed": 823003, "internal_node_id": "0.0-94.0"}}, {"uniqueid": "MTK0725:3OUYGIZWR8574LPWQJEUBWLDAUAP0K", "current_trial": 131, "dateTime": 1512675181075, "trialdata": {"rt": -1000, "stimulus": "/static/audio/wordpool/VICTIM.wav", "key_press": -1, "type": "PRES_AUD", "word": "victim", "wordID": 1561, "conditions": [24, 1600, "a", 24000], "trial": 3, "serialpos": 14, "trial_type": "single-audio", "trial_index": 131, "time_elapsed": 825653, "internal_node_id": "0.0-95.0"}}, {"uniqueid": "MTK0725:3OUYGIZWR8574LPWQJEUBWLDAUAP0K", "current_trial": 132, "dateTime": 1512675183538, "trialdata": {"rt": -1000, "stimulus": "/static/audio/wordpool/MATCH.wav", "key_press": -1, "type": "PRES_AUD", "word": "match", "wordID": 877, "conditions": [24, 1600, "a", 24000], "trial": 3, "serialpos": 15, "trial_type": "single-audio", "trial_index": 132, "time_elapsed": 828116, "internal_node_id": "0.0-96.0"}}, {"uniqueid": "MTK0725:3OUYGIZWR8574LPWQJEUBWLDAUAP0K", "current_trial": 133, "dateTime": 1512675186175, "trialdata": {"rt": -1000, "stimulus": "/static/audio/wordpool/BANK.wav", "key_press": -1, "type": "PRES_AUD", "word": "bank", "wordID": 82, "conditions": [24, 1600, "a", 24000], "trial": 3, "serialpos": 16, "trial_type": "single-audio", "trial_index": 133, "time_elapsed": 830752, "internal_node_id": "0.0-97.0"}}, {"uniqueid": "MTK0725:3OUYGIZWR8574LPWQJEUBWLDAUAP0K", "current_trial": 134, "dateTime": 1512675188682, "trialdata": {"rt": -1000, "stimulus": "/static/audio/wordpool/HERO.wav", "key_press": -1, "type": "PRES_AUD", "word": "hero", "wordID": 705, "conditions": [24, 1600, "a", 24000], "trial": 3, "serialpos": 17, "trial_type": "single-audio", "trial_index": 134, "time_elapsed": 833260, "internal_node_id": "0.0-98.0"}}, {"uniqueid": "MTK0725:3OUYGIZWR8574LPWQJEUBWLDAUAP0K", "current_trial": 135, "dateTime": 1512675191089, "trialdata": {"rt": -1000, "stimulus": "/static/audio/wordpool/TOASTER.wav", "key_press": -1, "type": "PRES_AUD", "word": "toaster", "wordID": 1471, "conditions": [24, 1600, "a", 24000], "trial": 3, "serialpos": 18, "trial_type": "single-audio", "trial_index": 135, "time_elapsed": 835666, "internal_node_id": "0.0-99.0"}}, {"uniqueid": "MTK0725:3OUYGIZWR8574LPWQJEUBWLDAUAP0K", "current_trial": 136, "dateTime": 1512675193770, "trialdata": {"rt": -1000, "stimulus": "/static/audio/wordpool/KIDNEY.wav", "key_press": -1, "type": "PRES_AUD", "word": "kidney", "wordID": 775, "conditions": [24, 1600, "a", 24000], "trial": 3, "serialpos": 19, "trial_type": "single-audio", "trial_index": 136, "time_elapsed": 838347, "internal_node_id": "0.0-100.0"}}, {"uniqueid": "MTK0725:3OUYGIZWR8574LPWQJEUBWLDAUAP0K", "current_trial": 137, "dateTime": 1512675196444, "trialdata": {"rt": -1000, "stimulus": "/static/audio/wordpool/RADISH.wav", "key_press": -1, "type": "PRES_AUD", "word": "radish", "wordID": 1157, "conditions": [24, 1600, "a", 24000], "trial": 3, "serialpos": 20, "trial_type": "single-audio", "trial_index": 137, "time_elapsed": 841022, "internal_node_id": "0.0-101.0"}}, {"uniqueid": "MTK0725:3OUYGIZWR8574LPWQJEUBWLDAUAP0K", "current_trial": 138, "dateTime": 1512675198888, "trialdata": {"rt": -1000, "stimulus": "/static/audio/wordpool/ONION.wav", "key_press": -1, "type": "PRES_AUD", "word": "onion", "wordID": 976, "conditions": [24, 1600, "a", 24000], "trial": 3, "serialpos": 21, "trial_type": "single-audio", "trial_index": 138, "time_elapsed": 843466, "internal_node_id": "0.0-102.0"}}, {"uniqueid": "MTK0725:3OUYGIZWR8574LPWQJEUBWLDAUAP0K", "current_trial": 139, "dateTime": 1512675201504, "trialdata": {"rt": -1000, "stimulus": "/static/audio/wordpool/RUST.wav", "key_press": -1, "type": "PRES_AUD", "word": "rust", "wordID": 1218, "conditions": [24, 1600, "a", 24000], "trial": 3, "serialpos": 22, "trial_type": "single-audio", "trial_index": 139, "time_elapsed": 846082, "internal_node_id": "0.0-103.0"}}, {"uniqueid": "MTK0725:3OUYGIZWR8574LPWQJEUBWLDAUAP0K", "current_trial": 140, "dateTime": 1512675203948, "trialdata": {"rt": -1000, "stimulus": "/static/audio/wordpool/PIMPLE.wav", "key_press": -1, "type": "PRES_AUD", "word": "pimple", "wordID": 1070, "conditions": [24, 1600, "a", 24000], "trial": 3, "serialpos": 23, "trial_type": "single-audio", "trial_index": 140, "time_elapsed": 848526, "internal_node_id": "0.0-104.0"}}, {"uniqueid": "MTK0725:3OUYGIZWR8574LPWQJEUBWLDAUAP0K", "current_trial": 141, "dateTime": 1512675205208, "trialdata": {"rt": -1, "stimulus": "", "key_press": -1, "type": "PRE_RECALL_DELAY", "trial_type": "single-stim", "trial_index": 141, "time_elapsed": 849786, "internal_node_id": "0.0-105.0-0.0"}}, {"uniqueid": "MTK0725:3OUYGIZWR8574LPWQJEUBWLDAUAP0K", "current_trial": 142, "dateTime": 1512675205712, "trialdata": {"rt": -1000, "stimulus": "/static/audio/400Hz.wav", "key_press": -1, "type": "PRE_RECALL_ALERT", "trial_type": "single-audio", "trial_index": 142, "time_elapsed": 850290, "internal_node_id": "0.0-106.0"}}, {"uniqueid": "MTK0725:3OUYGIZWR8574LPWQJEUBWLDAUAP0K", "current_trial": 143, "dateTime": 1512675265733, "trialdata": {"rt": [5356, 7517, 9227, 10924, 12956, 14844, 17612, 20348, 22060, 33261], "recwords": ["cabbage", "garlic", "onion", "radish", "infant", "child", "airplane", "toaster", "plate", "atom"], "type": "FREE_RECALL", "conditions": [24, 1600, "a", 24000], "trial": 3, "trial_type": "free-recall", "trial_index": 143, "time_elapsed": 910299, "internal_node_id": "0.0-107.0-0.0"}}, {"uniqueid": "MTK0725:3OUYGIZWR8574LPWQJEUBWLDAUAP0K", "current_trial": 144, "dateTime": 1512675269703, "trialdata": {"rt": 1965, "key_press": 68, "type": "INSTRUCTIONS", "trial_type": "text", "trial_index": 144, "time_elapsed": 914281, "internal_node_id": "0.0-108.0"}}, {"uniqueid": "MTK0725:3OUYGIZWR8574LPWQJEUBWLDAUAP0K", "current_trial": 145, "dateTime": 1512675283722, "trialdata": {"rt": [3644, 7212, 11420], "responses": ["20", "13", "24"], "num1": [9, 2, 8, 3], "num2": [4, 9, 7, 4], "num3": [7, 2, 9, 9], "type": "DISTRACTOR", "conditions": [12, 1600, "v", 12000], "trial": 4, "trial_type": "math-distractor", "trial_index": 145, "time_elapsed": 928300, "internal_node_id": "0.0-109.0"}}, {"uniqueid": "MTK0725:3OUYGIZWR8574LPWQJEUBWLDAUAP0K", "current_trial": 146, "dateTime": 1512675286726, "trialdata": {"rt": -1, "stimulus": "<p id=\"stim\">10</p>", "key_press": -1, "trial_type": "single-stim", "trial_index": 146, "time_elapsed": 931304, "internal_node_id": "0.0-110.0-0.0"}}, {"uniqueid": "MTK0725:3OUYGIZWR8574LPWQJEUBWLDAUAP0K", "current_trial": 147, "dateTime": 1512675287732, "trialdata": {"rt": -1, "stimulus": "<p id=\"stim\">9</p>", "key_press": -1, "trial_type": "single-stim", "trial_index": 147, "time_elapsed": 932309, "internal_node_id": "0.0-110.0-1.0"}}, {"uniqueid": "MTK0725:3OUYGIZWR8574LPWQJEUBWLDAUAP0K", "current_trial": 148, "dateTime": 1512675288736, "trialdata": {"rt": -1, "stimulus": "<p id=\"stim\">8</p>", "key_press": -1, "trial_type": "single-stim", "trial_index": 148, "time_elapsed": 933313, "internal_node_id": "0.0-110.0-2.0"}}, {"uniqueid": "MTK0725:3OUYGIZWR8574LPWQJEUBWLDAUAP0K", "current_trial": 149, "dateTime": 1512675289739, "trialdata": {"rt": -1, "stimulus": "<p id=\"stim\">7</p>", "key_press": -1, "trial_type": "single-stim", "trial_index": 149, "time_elapsed": 934317, "internal_node_id": "0.0-110.0-3.0"}}, {"uniqueid": "MTK0725:3OUYGIZWR8574LPWQJEUBWLDAUAP0K", "current_trial": 150, "dateTime": 1512675290753, "trialdata": {"rt": -1, "stimulus": "<p id=\"stim\">6</p>", "key_press": -1, "trial_type": "single-stim", "trial_index": 150, "time_elapsed": 935330, "internal_node_id": "0.0-110.0-4.0"}}, {"uniqueid": "MTK0725:3OUYGIZWR8574LPWQJEUBWLDAUAP0K", "current_trial": 151, "dateTime": 1512675291756, "trialdata": {"rt": -1, "stimulus": "<p id=\"stim\">5</p>", "key_press": -1, "trial_type": "single-stim", "trial_index": 151, "time_elapsed": 936334, "internal_node_id": "0.0-110.0-5.0"}}, {"uniqueid": "MTK0725:3OUYGIZWR8574LPWQJEUBWLDAUAP0K", "current_trial": 152, "dateTime": 1512675292761, "trialdata": {"rt": -1, "stimulus": "<p id=\"stim\">4</p>", "key_press": -1, "trial_type": "single-stim", "trial_index": 152, "time_elapsed": 937339, "internal_node_id": "0.0-110.0-6.0"}}, {"uniqueid": "MTK0725:3OUYGIZWR8574LPWQJEUBWLDAUAP0K", "current_trial": 153, "dateTime": 1512675293764, "trialdata": {"rt": -1, "stimulus": "<p id=\"stim\">3</p>", "key_press": -1, "trial_type": "single-stim", "trial_index": 153, "time_elapsed": 938342, "internal_node_id": "0.0-110.0-7.0"}}, {"uniqueid": "MTK0725:3OUYGIZWR8574LPWQJEUBWLDAUAP0K", "current_trial": 154, "dateTime": 1512675294768, "trialdata": {"rt": -1, "stimulus": "<p id=\"stim\">2</p>", "key_press": -1, "trial_type": "single-stim", "trial_index": 154, "time_elapsed": 939346, "internal_node_id": "0.0-110.0-8.0"}}, {"uniqueid": "MTK0725:3OUYGIZWR8574LPWQJEUBWLDAUAP0K", "current_trial": 155, "dateTime": 1512675295773, "trialdata": {"rt": -1, "stimulus": "<p id=\"stim\">1</p>", "key_press": -1, "trial_type": "single-stim", "trial_index": 155, "time_elapsed": 940351, "internal_node_id": "0.0-110.0-9.0"}}, {"uniqueid": "MTK0725:3OUYGIZWR8574LPWQJEUBWLDAUAP0K", "current_trial": 156, "dateTime": 1512675297282, "trialdata": {"rt": -1, "stimulus": "<p id=\"stim\">+</p>", "key_press": -1, "type": "FIXATION", "trial_type": "single-stim", "trial_index": 156, "time_elapsed": 941855, "internal_node_id": "0.0-111.0-0.0"}}, {"uniqueid": "MTK0725:3OUYGIZWR8574LPWQJEUBWLDAUAP0K", "current_trial": 157, "dateTime": 1512675298885, "trialdata": {"rt": -1, "stimulus": "<p id=\"stim\">SWIMMER</p>", "key_press": -1, "type": "PRES_VIS", "word": "swimmer", "wordID": 1419, "conditions": [12, 1600, "v", 12000], "trial": 4, "serialpos": 0, "trial_type": "single-stim", "trial_index": 157, "time_elapsed": 943462, "internal_node_id": "0.0-112.0"}}, {"uniqueid": "MTK0725:3OUYGIZWR8574LPWQJEUBWLDAUAP0K", "current_trial": 158, "dateTime": 1512675301432, "trialdata": {"rt": -1, "stimulus": "<p id=\"stim\">PECAN</p>", "key_press": -1, "type": "PRES_VIS", "word": "pecan", "wordID": 1035, "conditions": [12, 1600, "v", 12000], "trial": 4, "serialpos": 1, "trial_type": "single-stim", "trial_index": 158, "time_elapsed": 946010, "internal_node_id": "0.0-113.0"}}, {"uniqueid": "MTK0725:3OUYGIZWR8574LPWQJEUBWLDAUAP0K", "current_trial": 159, "dateTime": 1512675303869, "trialdata": {"rt": -1, "stimulus": "<p id=\"stim\">SEAL</p>", "key_press": -1, "type": "PRES_VIS", "word": "seal", "wordID": 1261, "conditions": [12, 1600, "v", 12000], "trial": 4, "serialpos": 2, "trial_type": "single-stim", "trial_index": 159, "time_elapsed": 948447, "internal_node_id": "0.0-114.0"}}, {"uniqueid": "MTK0725:3OUYGIZWR8574LPWQJEUBWLDAUAP0K", "current_trial": 160, "dateTime": 1512675306586, "trialdata": {"rt": -1, "stimulus": "<p id=\"stim\">DONKEY</p>", "key_press": -1, "type": "PRES_VIS", "word": "donkey", "wordID": 483, "conditions": [12, 1600, "v", 12000], "trial": 4, "serialpos": 3, "trial_type": "single-stim", "trial_index": 160, "time_elapsed": 951164, "internal_node_id": "0.0-115.0"}}, {"uniqueid": "MTK0725:3OUYGIZWR8574LPWQJEUBWLDAUAP0K", "current_trial": 161, "dateTime": 1512675309147, "trialdata": {"rt": -1, "stimulus": "<p id=\"stim\">JUGGLER</p>", "key_press": -1, "type": "PRES_VIS", "word": "juggler", "wordID": 762, "conditions": [12, 1600, "v", 12000], "trial": 4, "serialpos": 4, "trial_type": "single-stim", "trial_index": 161, "time_elapsed": 953725, "internal_node_id": "0.0-116.0"}}, {"uniqueid": "MTK0725:3OUYGIZWR8574LPWQJEUBWLDAUAP0K", "current_trial": 162, "dateTime": 1512675311732, "trialdata": {"rt": -1, "stimulus": "<p id=\"stim\">TROUT</p>", "key_press": -1, "type": "PRES_VIS", "word": "trout", "wordID": 1510, "conditions": [12, 1600, "v", 12000], "trial": 4, "serialpos": 5, "trial_type": "single-stim", "trial_index": 162, "time_elapsed": 956310, "internal_node_id": "0.0-117.0"}}, {"uniqueid": "MTK0725:3OUYGIZWR8574LPWQJEUBWLDAUAP0K", "current_trial": 163, "dateTime": 1512675314440, "trialdata": {"rt": -1, "stimulus": "<p id=\"stim\">CAMEL</p>", "key_press": -1, "type": "PRES_VIS", "word": "camel", "wordID": 222, "conditions": [12, 1600, "v", 12000], "trial": 4, "serialpos": 6, "trial_type": "single-stim", "trial_index": 163, "time_elapsed": 959018, "internal_node_id": "0.0-118.0"}}, {"uniqueid": "MTK0725:3OUYGIZWR8574LPWQJEUBWLDAUAP0K", "current_trial": 164, "dateTime": 1512675316907, "trialdata": {"rt": -1, "stimulus": "<p id=\"stim\">COBRA</p>", "key_press": -1, "type": "PRES_VIS", "word": "cobra", "wordID": 335, "conditions": [12, 1600, "v", 12000], "trial": 4, "serialpos": 7, "trial_type": "single-stim", "trial_index": 164, "time_elapsed": 961485, "internal_node_id": "0.0-119.0"}}, {"uniqueid": "MTK0725:3OUYGIZWR8574LPWQJEUBWLDAUAP0K", "current_trial": 165, "dateTime": 1512675319670, "trialdata": {"rt": -1, "stimulus": "<p id=\"stim\">BALLOON</p>", "key_press": -1, "type": "PRES_VIS", "word": "balloon", "wordID": 74, "conditions": [12, 1600, "v", 12000], "trial": 4, "serialpos": 8, "trial_type": "single-stim", "trial_index": 165, "time_elapsed": 964248, "internal_node_id": "0.0-120.0"}}, {"uniqueid": "MTK0725:3OUYGIZWR8574LPWQJEUBWLDAUAP0K", "current_trial": 166, "dateTime": 1512675322315, "trialdata": {"rt": -1, "stimulus": "<p id=\"stim\">HELMET</p>", "key_press": -1, "type": "PRES_VIS", "word": "helmet", "wordID": 701, "conditions": [12, 1600, "v", 12000], "trial": 4, "serialpos": 9, "trial_type": "single-stim", "trial_index": 166, "time_elapsed": 966892, "internal_node_id": "0.0-121.0"}}, {"uniqueid": "MTK0725:3OUYGIZWR8574LPWQJEUBWLDAUAP0K", "current_trial": 167, "dateTime": 1512675325013, "trialdata": {"rt": -1, "stimulus": "<p id=\"stim\">COFFEE</p>", "key_press": -1, "type": "PRES_VIS", "word": "coffee", "wordID": 340, "conditions": [12, 1600, "v", 12000], "trial": 4, "serialpos": 10, "trial_type": "single-stim", "trial_index": 167, "time_elapsed": 969591, "internal_node_id": "0.0-122.0"}}, {"uniqueid": "MTK0725:3OUYGIZWR8574LPWQJEUBWLDAUAP0K", "current_trial": 168, "dateTime": 1512675327754, "trialdata": {"rt": -1, "stimulus": "<p id=\"stim\">SODA</p>", "key_press": -1, "type": "PRES_VIS", "word": "soda", "wordID": 1340, "conditions": [12, 1600, "v", 12000], "trial": 4, "serialpos": 11, "trial_type": "single-stim", "trial_index": 168, "time_elapsed": 972332, "internal_node_id": "0.0-123.0"}}, {"uniqueid": "MTK0725:3OUYGIZWR8574LPWQJEUBWLDAUAP0K", "current_trial": 169, "dateTime": 1512675330246, "trialdata": {"rt": -1, "stimulus": "", "key_press": -1, "type": "PRE_RECALL_DELAY", "trial_type": "single-stim", "trial_index": 169, "time_elapsed": 974823, "internal_node_id": "0.0-124.0-0.0"}}, {"uniqueid": "MTK0725:3OUYGIZWR8574LPWQJEUBWLDAUAP0K", "current_trial": 170, "dateTime": 1512675330749, "trialdata": {"rt": -1000, "stimulus": "/static/audio/400Hz.wav", "key_press": -1, "type": "PRE_RECALL_ALERT", "trial_type": "single-audio", "trial_index": 170, "time_elapsed": 975327, "internal_node_id": "0.0-125.0"}}, {"uniqueid": "MTK0725:3OUYGIZWR8574LPWQJEUBWLDAUAP0K", "current_trial": 171, "dateTime": 1512675390769, "trialdata": {"rt": [3156, 5637, 7957, 9300, 12340, 17653, 28710, 38325], "recwords": ["coffee", "soda", "swimmer", "seal", "donkey", "cobra", "camel", "balloon"], "type": "FREE_RECALL", "conditions": [12, 1600, "v", 12000], "trial": 4, "trial_type": "free-recall", "trial_index": 171, "time_elapsed": 1035334, "internal_node_id": "0.0-126.0-0.0"}}, {"uniqueid": "MTK0725:3OUYGIZWR8574LPWQJEUBWLDAUAP0K", "current_trial": 172, "dateTime": 1512675396649, "trialdata": {"rt": 3877, "key_press": 83, "type": "INSTRUCTIONS", "trial_type": "text", "trial_index": 172, "time_elapsed": 1041226, "internal_node_id": "0.0-127.0"}}, {"uniqueid": "MTK0725:3OUYGIZWR8574LPWQJEUBWLDAUAP0K", "current_trial": 173, "dateTime": 1512675422669, "trialdata": {"rt": [2765, 5293, 7373, 9677, 11391, 13245, 16221, 18126, 20708], "responses": ["18", "17", "18", "14", "14", "15", "24", "13", "13"], "num1": [6, 8, 1, 9, 4, 9, 8, 9, 1, 3], "num2": [9, 2, 9, 2, 5, 3, 9, 1, 7, 9], "num3": [3, 7, 8, 3, 5, 3, 7, 3, 5, 6], "type": "DISTRACTOR", "conditions": [12, 1600, "v", 24000], "trial": 5, "trial_type": "math-distractor", "trial_index": 173, "time_elapsed": 1067246, "internal_node_id": "0.0-128.0"}}, {"uniqueid": "MTK0725:3OUYGIZWR8574LPWQJEUBWLDAUAP0K", "current_trial": 174, "dateTime": 1512675425678, "trialdata": {"rt": -1, "stimulus": "<p id=\"stim\">10</p>", "key_press": -1, "trial_type": "single-stim", "trial_index": 174, "time_elapsed": 1070256, "internal_node_id": "0.0-129.0-0.0"}}, {"uniqueid": "MTK0725:3OUYGIZWR8574LPWQJEUBWLDAUAP0K", "current_trial": 175, "dateTime": 1512675426684, "trialdata": {"rt": -1, "stimulus": "<p id=\"stim\">9</p>", "key_press": -1, "trial_type": "single-stim", "trial_index": 175, "time_elapsed": 1071261, "internal_node_id": "0.0-129.0-1.0"}}, {"uniqueid": "MTK0725:3OUYGIZWR8574LPWQJEUBWLDAUAP0K", "current_trial": 176, "dateTime": 1512675427688, "trialdata": {"rt": -1, "stimulus": "<p id=\"stim\">8</p>", "key_press": -1, "trial_type": "single-stim", "trial_index": 176, "time_elapsed": 1072266, "internal_node_id": "0.0-129.0-2.0"}}, {"uniqueid": "MTK0725:3OUYGIZWR8574LPWQJEUBWLDAUAP0K", "current_trial": 177, "dateTime": 1512675428693, "trialdata": {"rt": -1, "stimulus": "<p id=\"stim\">7</p>", "key_press": -1, "trial_type": "single-stim", "trial_index": 177, "time_elapsed": 1073271, "internal_node_id": "0.0-129.0-3.0"}}, {"uniqueid": "MTK0725:3OUYGIZWR8574LPWQJEUBWLDAUAP0K", "current_trial": 178, "dateTime": 1512675429698, "trialdata": {"rt": -1, "stimulus": "<p id=\"stim\">6</p>", "key_press": -1, "trial_type": "single-stim", "trial_index": 178, "time_elapsed": 1074275, "internal_node_id": "0.0-129.0-4.0"}}, {"uniqueid": "MTK0725:3OUYGIZWR8574LPWQJEUBWLDAUAP0K", "current_trial": 179, "dateTime": 1512675430703, "trialdata": {"rt": -1, "stimulus": "<p id=\"stim\">5</p>", "key_press": -1, "trial_type": "single-stim", "trial_index": 179, "time_elapsed": 1075280, "internal_node_id": "0.0-129.0-5.0"}}, {"uniqueid": "MTK0725:3OUYGIZWR8574LPWQJEUBWLDAUAP0K", "current_trial": 180, "dateTime": 1512675431710, "trialdata": {"rt": -1, "stimulus": "<p id=\"stim\">4</p>", "key_press": -1, "trial_type": "single-stim", "trial_index": 180, "time_elapsed": 1076288, "internal_node_id": "0.0-129.0-6.0"}}, {"uniqueid": "MTK0725:3OUYGIZWR8574LPWQJEUBWLDAUAP0K", "current_trial": 181, "dateTime": 1512675432714, "trialdata": {"rt": -1, "stimulus": "<p id=\"stim\">3</p>", "key_press": -1, "trial_type": "single-stim", "trial_index": 181, "time_elapsed": 1077292, "internal_node_id": "0.0-129.0-7.0"}}, {"uniqueid": "MTK0725:3OUYGIZWR8574LPWQJEUBWLDAUAP0K", "current_trial": 182, "dateTime": 1512675433718, "trialdata": {"rt": -1, "stimulus": "<p id=\"stim\">2</p>", "key_press": -1, "trial_type": "single-stim", "trial_index": 182, "time_elapsed": 1078296, "internal_node_id": "0.0-129.0-8.0"}}, {"uniqueid": "MTK0725:3OUYGIZWR8574LPWQJEUBWLDAUAP0K", "current_trial": 183, "dateTime": 1512675434728, "trialdata": {"rt": -1, "stimulus": "<p id=\"stim\">1</p>", "key_press": -1, "trial_type": "single-stim", "trial_index": 183, "time_elapsed": 1079300, "internal_node_id": "0.0-129.0-9.0"}}, {"uniqueid": "MTK0725:3OUYGIZWR8574LPWQJEUBWLDAUAP0K", "current_trial": 184, "dateTime": 1512675436232, "trialdata": {"rt": -1, "stimulus": "<p id=\"stim\">+</p>", "key_press": -1, "type": "FIXATION", "trial_type": "single-stim", "trial_index": 184, "time_elapsed": 1080810, "internal_node_id": "0.0-130.0-0.0"}}, {"uniqueid": "MTK0725:3OUYGIZWR8574LPWQJEUBWLDAUAP0K", "current_trial": 185, "dateTime": 1512675437836, "trialdata": {"rt": -1, "stimulus": "<p id=\"stim\">UNCLE</p>", "key_press": -1, "type": "PRES_VIS", "word": "uncle", "wordID": 1535, "conditions": [12, 1600, "v", 24000], "trial": 5, "serialpos": 0, "trial_type": "single-stim", "trial_index": 185, "time_elapsed": 1082413, "internal_node_id": "0.0-131.0"}}, {"uniqueid": "MTK0725:3OUYGIZWR8574LPWQJEUBWLDAUAP0K", "current_trial": 186, "dateTime": 1512675440595, "trialdata": {"rt": -1, "stimulus": "<p id=\"stim\">DANDRUFF</p>", "key_press": -1, "type": "PRES_VIS", "word": "dandruff", "wordID": 438, "conditions": [12, 1600, "v", 24000], "trial": 5, "serialpos": 1, "trial_type": "single-stim", "trial_index": 186, "time_elapsed": 1085173, "internal_node_id": "0.0-132.0"}}, {"uniqueid": "MTK0725:3OUYGIZWR8574LPWQJEUBWLDAUAP0K", "current_trial": 187, "dateTime": 1512675443049, "trialdata": {"rt": -1, "stimulus": "<p id=\"stim\">LACE</p>", "key_press": -1, "type": "PRES_VIS", "word": "lace", "wordID": 791, "conditions": [12, 1600, "v", 24000], "trial": 5, "serialpos": 2, "trial_type": "single-stim", "trial_index": 187, "time_elapsed": 1087626, "internal_node_id": "0.0-133.0"}}, {"uniqueid": "MTK0725:3OUYGIZWR8574LPWQJEUBWLDAUAP0K", "current_trial": 188, "dateTime": 1512675445488, "trialdata": {"rt": -1, "stimulus": "<p id=\"stim\">MONSTER</p>", "key_press": -1, "type": "PRES_VIS", "word": "monster", "wordID": 911, "conditions": [12, 1600, "v", 24000], "trial": 5, "serialpos": 3, "trial_type": "single-stim", "trial_index": 188, "time_elapsed": 1090066, "internal_node_id": "0.0-134.0"}}, {"uniqueid": "MTK0725:3OUYGIZWR8574LPWQJEUBWLDAUAP0K", "current_trial": 189, "dateTime": 1512675448231, "trialdata": {"rt": -1, "stimulus": "<p id=\"stim\">LOVER</p>", "key_press": -1, "type": "PRES_VIS", "word": "lover", "wordID": 845, "conditions": [12, 1600, "v", 24000], "trial": 5, "serialpos": 4, "trial_type": "single-stim", "trial_index": 189, "time_elapsed": 1092809, "internal_node_id": "0.0-135.0"}}, {"uniqueid": "MTK0725:3OUYGIZWR8574LPWQJEUBWLDAUAP0K", "current_trial": 190, "dateTime": 1512675450637, "trialdata": {"rt": -1, "stimulus": "<p id=\"stim\">HAND</p>", "key_press": -1, "type": "PRES_VIS", "word": "hand", "wordID": 682, "conditions": [12, 1600, "v", 24000], "trial": 5, "serialpos": 5, "trial_type": "single-stim", "trial_index": 190, "time_elapsed": 1095214, "internal_node_id": "0.0-136.0"}}, {"uniqueid": "MTK0725:3OUYGIZWR8574LPWQJEUBWLDAUAP0K", "current_trial": 191, "dateTime": 1512675453242, "trialdata": {"rt": -1, "stimulus": "<p id=\"stim\">SUSPECT</p>", "key_press": -1, "type": "PRES_VIS", "word": "suspect", "wordID": 1414, "conditions": [12, 1600, "v", 24000], "trial": 5, "serialpos": 6, "trial_type": "single-stim", "trial_index": 191, "time_elapsed": 1097819, "internal_node_id": "0.0-137.0"}}, {"uniqueid": "MTK0725:3OUYGIZWR8574LPWQJEUBWLDAUAP0K", "current_trial": 192, "dateTime": 1512675455830, "trialdata": {"rt": -1, "stimulus": "<p id=\"stim\">LAKE</p>", "key_press": -1, "type": "PRES_VIS", "word": "lake", "wordID": 795, "conditions": [12, 1600, "v", 24000], "trial": 5, "serialpos": 7, "trial_type": "single-stim", "trial_index": 192, "time_elapsed": 1100408, "internal_node_id": "0.0-138.0"}}, {"uniqueid": "MTK0725:3OUYGIZWR8574LPWQJEUBWLDAUAP0K", "current_trial": 193, "dateTime": 1512675458466, "trialdata": {"rt": -1, "stimulus": "<p id=\"stim\">LAGOON</p>", "key_press": -1, "type": "PRES_VIS", "word": "lagoon", "wordID": 794, "conditions": [12, 1600, "v", 24000], "trial": 5, "serialpos": 8, "trial_type": "single-stim", "trial_index": 193, "time_elapsed": 1103044, "internal_node_id": "0.0-139.0"}}, {"uniqueid": "MTK0725:3OUYGIZWR8574LPWQJEUBWLDAUAP0K", "current_trial": 194, "dateTime": 1512675461261, "trialdata": {"rt": -1, "stimulus": "<p id=\"stim\">SILK</p>", "key_press": -1, "type": "PRES_VIS", "word": "silk", "wordID": 1306, "conditions": [12, 1600, "v", 24000], "trial": 5, "serialpos": 9, "trial_type": "single-stim", "trial_index": 194, "time_elapsed": 1105839, "internal_node_id": "0.0-140.0"}}, {"uniqueid": "MTK0725:3OUYGIZWR8574LPWQJEUBWLDAUAP0K", "current_trial": 195, "dateTime": 1512675463956, "trialdata": {"rt": -1, "stimulus": "<p id=\"stim\">SWORD</p>", "key_press": -1, "type": "PRES_VIS", "word": "sword", "wordID": 1422, "conditions": [12, 1600, "v", 24000], "trial": 5, "serialpos": 10, "trial_type": "single-stim", "trial_index": 195, "time_elapsed": 1108534, "internal_node_id": "0.0-141.0"}}, {"uniqueid": "MTK0725:3OUYGIZWR8574LPWQJEUBWLDAUAP0K", "current_trial": 196, "dateTime": 1512675466502, "trialdata": {"rt": -1, "stimulus": "<p id=\"stim\">PLASTER</p>", "key_press": -1, "type": "PRES_VIS", "word": "plaster", "wordID": 1084, "conditions": [12, 1600, "v", 24000], "trial": 5, "serialpos": 11, "trial_type": "single-stim", "trial_index": 196, "time_elapsed": 1111080, "internal_node_id": "0.0-142.0"}}, {"uniqueid": "MTK0725:3OUYGIZWR8574LPWQJEUBWLDAUAP0K", "current_trial": 197, "dateTime": 1512675468553, "trialdata": {"rt": -1, "stimulus": "", "key_press": -1, "type": "PRE_RECALL_DELAY", "trial_type": "single-stim", "trial_index": 197, "time_elapsed": 1113131, "internal_node_id": "0.0-143.0-0.0"}}, {"uniqueid": "MTK0725:3OUYGIZWR8574LPWQJEUBWLDAUAP0K", "current_trial": 198, "dateTime": 1512675469056, "trialdata": {"rt": -1000, "stimulus": "/static/audio/400Hz.wav", "key_press": -1, "type": "PRE_RECALL_ALERT", "trial_type": "single-audio", "trial_index": 198, "time_elapsed": 1113633, "internal_node_id": "0.0-144.0"}}, {"uniqueid": "MTK0725:3OUYGIZWR8574LPWQJEUBWLDAUAP0K", "current_trial": 199, "dateTime": 1512675529070, "trialdata": {"rt": [3477, 5766, 8021, 10741, 14518, 16357, 17798, 31894, 37205, 45862, 57238], "recwords": ["plaster", "lagoon", "uncle", "dandruff", "lake", "monster", "hand", "sill", "silk", "lace", "lover"], "type": "FREE_RECALL", "conditions": [12, 1600, "v", 24000], "trial": 5, "trial_type": "free-recall", "trial_index": 199, "time_elapsed": 1173639, "internal_node_id": "0.0-145.0-0.0"}}, {"uniqueid": "MTK0725:3OUYGIZWR8574LPWQJEUBWLDAUAP0K", "current_trial": 200, "dateTime": 1512675533229, "trialdata": {"rt": 2156, "key_press": 83, "type": "INSTRUCTIONS", "trial_type": "text", "trial_index": 200, "time_elapsed": 1177806, "internal_node_id": "0.0-146.0"}}, {"uniqueid": "MTK0725:3OUYGIZWR8574LPWQJEUBWLDAUAP0K", "current_trial": 201, "dateTime": 1512675547237, "trialdata": {"rt": [3928, 6168, 8697, 10665], "responses": ["21", "8", "18", "18"], "num1": [5, 1, 7, 4, 8], "num2": [8, 1, 8, 5, 8], "num3": [8, 6, 3, 9, 3], "type": "DISTRACTOR", "conditions": [24, 800, "a", 12000], "trial": 6, "trial_type": "math-distractor", "trial_index": 201, "time_elapsed": 1191815, "internal_node_id": "0.0-147.0"}}, {"uniqueid": "MTK0725:3OUYGIZWR8574LPWQJEUBWLDAUAP0K", "current_trial": 202, "dateTime": 1512675550239, "trialdata": {"rt": -1, "stimulus": "<p id=\"stim\">10</p>", "key_press": -1, "trial_type": "single-stim", "trial_index": 202, "time_elapsed": 1194817, "internal_node_id": "0.0-148.0-0.0"}}, {"uniqueid": "MTK0725:3OUYGIZWR8574LPWQJEUBWLDAUAP0K", "current_trial": 203, "dateTime": 1512675551242, "trialdata": {"rt": -1, "stimulus": "<p id=\"stim\">9</p>", "key_press": -1, "trial_type": "single-stim", "trial_index": 203, "time_elapsed": 1195820, "internal_node_id": "0.0-148.0-1.0"}}, {"uniqueid": "MTK0725:3OUYGIZWR8574LPWQJEUBWLDAUAP0K", "current_trial": 204, "dateTime": 1512675552246, "trialdata": {"rt": -1, "stimulus": "<p id=\"stim\">8</p>", "key_press": -1, "trial_type": "single-stim", "trial_index": 204, "time_elapsed": 1196824, "internal_node_id": "0.0-148.0-2.0"}}, {"uniqueid": "MTK0725:3OUYGIZWR8574LPWQJEUBWLDAUAP0K", "current_trial": 205, "dateTime": 1512675553249, "trialdata": {"rt": -1, "stimulus": "<p id=\"stim\">7</p>", "key_press": -1, "trial_type": "single-stim", "trial_index": 205, "time_elapsed": 1197827, "internal_node_id": "0.0-148.0-3.0"}}, {"uniqueid": "MTK0725:3OUYGIZWR8574LPWQJEUBWLDAUAP0K", "current_trial": 206, "dateTime": 1512675554251, "trialdata": {"rt": -1, "stimulus": "<p id=\"stim\">6</p>", "key_press": -1, "trial_type": "single-stim", "trial_index": 206, "time_elapsed": 1198829, "internal_node_id": "0.0-148.0-4.0"}}, {"uniqueid": "MTK0725:3OUYGIZWR8574LPWQJEUBWLDAUAP0K", "current_trial": 207, "dateTime": 1512675555258, "trialdata": {"rt": -1, "stimulus": "<p id=\"stim\">5</p>", "key_press": -1, "trial_type": "single-stim", "trial_index": 207, "time_elapsed": 1199832, "internal_node_id": "0.0-148.0-5.0"}}, {"uniqueid": "MTK0725:3OUYGIZWR8574LPWQJEUBWLDAUAP0K", "current_trial": 208, "dateTime": 1512675556261, "trialdata": {"rt": -1, "stimulus": "<p id=\"stim\">4</p>", "key_press": -1, "trial_type": "single-stim", "trial_index": 208, "time_elapsed": 1200839, "internal_node_id": "0.0-148.0-6.0"}}, {"uniqueid": "MTK0725:3OUYGIZWR8574LPWQJEUBWLDAUAP0K", "current_trial": 209, "dateTime": 1512675557264, "trialdata": {"rt": -1, "stimulus": "<p id=\"stim\">3</p>", "key_press": -1, "trial_type": "single-stim", "trial_index": 209, "time_elapsed": 1201842, "internal_node_id": "0.0-148.0-7.0"}}, {"uniqueid": "MTK0725:3OUYGIZWR8574LPWQJEUBWLDAUAP0K", "current_trial": 210, "dateTime": 1512675558268, "trialdata": {"rt": -1, "stimulus": "<p id=\"stim\">2</p>", "key_press": -1, "trial_type": "single-stim", "trial_index": 210, "time_elapsed": 1202846, "internal_node_id": "0.0-148.0-8.0"}}, {"uniqueid": "MTK0725:3OUYGIZWR8574LPWQJEUBWLDAUAP0K", "current_trial": 211, "dateTime": 1512675559272, "trialdata": {"rt": -1, "stimulus": "<p id=\"stim\">1</p>", "key_press": -1, "trial_type": "single-stim", "trial_index": 211, "time_elapsed": 1203849, "internal_node_id": "0.0-148.0-9.0"}}, {"uniqueid": "MTK0725:3OUYGIZWR8574LPWQJEUBWLDAUAP0K", "current_trial": 212, "dateTime": 1512675560776, "trialdata": {"rt": -1, "stimulus": "<p id=\"stim\">+</p>", "key_press": -1, "type": "FIXATION", "trial_type": "single-stim", "trial_index": 212, "time_elapsed": 1205353, "internal_node_id": "0.0-149.0-0.0"}}, {"uniqueid": "MTK0725:3OUYGIZWR8574LPWQJEUBWLDAUAP0K", "current_trial": 213, "dateTime": 1512675562709, "trialdata": {"rt": -1000, "stimulus": "/static/audio/wordpool/GARDEN.wav", "key_press": -1, "type": "PRES_AUD", "word": "garden", "wordID": 622, "conditions": [24, 800, "a", 12000], "trial": 6, "serialpos": 0, "trial_type": "single-audio", "trial_index": 213, "time_elapsed": 1207286, "internal_node_id": "0.0-150.0"}}, {"uniqueid": "MTK0725:3OUYGIZWR8574LPWQJEUBWLDAUAP0K", "current_trial": 214, "dateTime": 1512675564441, "trialdata": {"rt": -1000, "stimulus": "/static/audio/wordpool/KNAPSACK.wav", "key_press": -1, "type": "PRES_AUD", "word": "knapsack", "wordID": 782, "conditions": [24, 800, "a", 12000], "trial": 6, "serialpos": 1, "trial_type": "single-audio", "trial_index": 214, "time_elapsed": 1209018, "internal_node_id": "0.0-151.0"}}, {"uniqueid": "MTK0725:3OUYGIZWR8574LPWQJEUBWLDAUAP0K", "current_trial": 215, "dateTime": 1512675566306, "trialdata": {"rt": -1000, "stimulus": "/static/audio/wordpool/TEACHER.wav", "key_press": -1, "type": "PRES_AUD", "word": "teacher", "wordID": 1439, "conditions": [24, 800, "a", 12000], "trial": 6, "serialpos": 2, "trial_type": "single-audio", "trial_index": 215, "time_elapsed": 1210884, "internal_node_id": "0.0-152.0"}}, {"uniqueid": "MTK0725:3OUYGIZWR8574LPWQJEUBWLDAUAP0K", "current_trial": 216, "dateTime": 1512675568281, "trialdata": {"rt": -1000, "stimulus": "/static/audio/wordpool/OZONE.wav", "key_press": -1, "type": "PRES_AUD", "word": "ozone", "wordID": 995, "conditions": [24, 800, "a", 12000], "trial": 6, "serialpos": 3, "trial_type": "single-audio", "trial_index": 216, "time_elapsed": 1212859, "internal_node_id": "0.0-153.0"}}, {"uniqueid": "MTK0725:3OUYGIZWR8574LPWQJEUBWLDAUAP0K", "current_trial": 217, "dateTime": 1512675570175, "trialdata": {"rt": -1000, "stimulus": "/static/audio/wordpool/FLOWER.wav", "key_press": -1, "type": "PRES_AUD", "word": "flower", "wordID": 583, "conditions": [24, 800, "a", 12000], "trial": 6, "serialpos": 4, "trial_type": "single-audio", "trial_index": 217, "time_elapsed": 1214753, "internal_node_id": "0.0-154.0"}}, {"uniqueid": "MTK0725:3OUYGIZWR8574LPWQJEUBWLDAUAP0K", "current_trial": 218, "dateTime": 1512675572059, "trialdata": {"rt": -1000, "stimulus": "/static/audio/wordpool/BRIEFCASE.wav", "key_press": -1, "type": "PRES_AUD", "word": "briefcase", "wordID": 174, "conditions": [24, 800, "a", 12000], "trial": 6, "serialpos": 5, "trial_type": "single-audio", "trial_index": 218, "time_elapsed": 1216636, "internal_node_id": "0.0-155.0"}}, {"uniqueid": "MTK0725:3OUYGIZWR8574LPWQJEUBWLDAUAP0K", "current_trial": 219, "dateTime": 1512675573997, "trialdata": {"rt": -1000, "stimulus": "/static/audio/wordpool/HANDBAG.wav", "key_press": -1, "type": "PRES_AUD", "word": "handbag", "wordID": 683, "conditions": [24, 800, "a", 12000], "trial": 6, "serialpos": 6, "trial_type": "single-audio", "trial_index": 219, "time_elapsed": 1218574, "internal_node_id": "0.0-156.0"}}, {"uniqueid": "MTK0725:3OUYGIZWR8574LPWQJEUBWLDAUAP0K", "current_trial": 220, "dateTime": 1512675575814, "trialdata": {"rt": -1000, "stimulus": "/static/audio/wordpool/COD.wav", "key_press": -1, "type": "PRES_AUD", "word": "cod", "wordID": 339, "conditions": [24, 800, "a", 12000], "trial": 6, "serialpos": 7, "trial_type": "single-audio", "trial_index": 220, "time_elapsed": 1220392, "internal_node_id": "0.0-157.0"}}, {"uniqueid": "MTK0725:3OUYGIZWR8574LPWQJEUBWLDAUAP0K", "current_trial": 221, "dateTime": 1512675577513, "trialdata": {"rt": -1000, "stimulus": "/static/audio/wordpool/SPIDER.wav", "key_press": -1, "type": "PRES_AUD", "word": "spider", "wordID": 1350, "conditions": [24, 800, "a", 12000], "trial": 6, "serialpos": 8, "trial_type": "single-audio", "trial_index": 221, "time_elapsed": 1222090, "internal_node_id": "0.0-158.0"}}, {"uniqueid": "MTK0725:3OUYGIZWR8574LPWQJEUBWLDAUAP0K", "current_trial": 222, "dateTime": 1512675579451, "trialdata": {"rt": -1000, "stimulus": "/static/audio/wordpool/PEBBLE.wav", "key_press": -1, "type": "PRES_AUD", "word": "pebble", "wordID": 1034, "conditions": [24, 800, "a", 12000], "trial": 6, "serialpos": 9, "trial_type": "single-audio", "trial_index": 222, "time_elapsed": 1224029, "internal_node_id": "0.0-159.0"}}, {"uniqueid": "MTK0725:3OUYGIZWR8574LPWQJEUBWLDAUAP0K", "current_trial": 223, "dateTime": 1512675581197, "trialdata": {"rt": -1000, "stimulus": "/static/audio/wordpool/HORNET.wav", "key_press": -1, "type": "PRES_AUD", "word": "hornet", "wordID": 717, "conditions": [24, 800, "a", 12000], "trial": 6, "serialpos": 10, "trial_type": "single-audio", "trial_index": 223, "time_elapsed": 1225775, "internal_node_id": "0.0-160.0"}}, {"uniqueid": "MTK0725:3OUYGIZWR8574LPWQJEUBWLDAUAP0K", "current_trial": 224, "dateTime": 1512675582804, "trialdata": {"rt": -1000, "stimulus": "/static/audio/wordpool/FINGER.wav", "key_press": -1, "type": "PRES_AUD", "word": "finger", "wordID": 566, "conditions": [24, 800, "a", 12000], "trial": 6, "serialpos": 11, "trial_type": "single-audio", "trial_index": 224, "time_elapsed": 1227382, "internal_node_id": "0.0-161.0"}}, {"uniqueid": "MTK0725:3OUYGIZWR8574LPWQJEUBWLDAUAP0K", "current_trial": 225, "dateTime": 1512675584560, "trialdata": {"rt": -1000, "stimulus": "/static/audio/wordpool/RIVER.wav", "key_press": -1, "type": "PRES_AUD", "word": "river", "wordID": 1193, "conditions": [24, 800, "a", 12000], "trial": 6, "serialpos": 12, "trial_type": "single-audio", "trial_index": 225, "time_elapsed": 1229138, "internal_node_id": "0.0-162.0"}}, {"uniqueid": "MTK0725:3OUYGIZWR8574LPWQJEUBWLDAUAP0K", "current_trial": 226, "dateTime": 1512675586533, "trialdata": {"rt": -1000, "stimulus": "/static/audio/wordpool/LAMP.wav", "key_press": -1, "type": "PRES_AUD", "word": "lamp", "wordID": 797, "conditions": [24, 800, "a", 12000], "trial": 6, "serialpos": 13, "trial_type": "single-audio", "trial_index": 226, "time_elapsed": 1231110, "internal_node_id": "0.0-163.0"}}, {"uniqueid": "MTK0725:3OUYGIZWR8574LPWQJEUBWLDAUAP0K", "current_trial": 227, "dateTime": 1512675588231, "trialdata": {"rt": -1000, "stimulus": "/static/audio/wordpool/SISTER.wav", "key_press": -1, "type": "PRES_AUD", "word": "sister", "wordID": 1311, "conditions": [24, 800, "a", 12000], "trial": 6, "serialpos": 14, "trial_type": "single-audio", "trial_index": 227, "time_elapsed": 1232809, "internal_node_id": "0.0-164.0"}}, {"uniqueid": "MTK0725:3OUYGIZWR8574LPWQJEUBWLDAUAP0K", "current_trial": 228, "dateTime": 1512675590004, "trialdata": {"rt": -1000, "stimulus": "/static/audio/wordpool/CANYON.wav", "key_press": -1, "type": "PRES_AUD", "word": "canyon", "wordID": 234, "conditions": [24, 800, "a", 12000], "trial": 6, "serialpos": 15, "trial_type": "single-audio", "trial_index": 228, "time_elapsed": 1234582, "internal_node_id": "0.0-165.0"}}, {"uniqueid": "MTK0725:3OUYGIZWR8574LPWQJEUBWLDAUAP0K", "current_trial": 229, "dateTime": 1512675591817, "trialdata": {"rt": -1000, "stimulus": "/static/audio/wordpool/VALLEY.wav", "key_press": -1, "type": "PRES_AUD", "word": "valley", "wordID": 1544, "conditions": [24, 800, "a", 12000], "trial": 6, "serialpos": 16, "trial_type": "single-audio", "trial_index": 229, "time_elapsed": 1236395, "internal_node_id": "0.0-166.0"}}, {"uniqueid": "MTK0725:3OUYGIZWR8574LPWQJEUBWLDAUAP0K", "current_trial": 230, "dateTime": 1512675593785, "trialdata": {"rt": -1000, "stimulus": "/static/audio/wordpool/WASP.wav", "key_press": -1, "type": "PRES_AUD", "word": "wasp", "wordID": 1592, "conditions": [24, 800, "a", 12000], "trial": 6, "serialpos": 17, "trial_type": "single-audio", "trial_index": 230, "time_elapsed": 1238362, "internal_node_id": "0.0-167.0"}}, {"uniqueid": "MTK0725:3OUYGIZWR8574LPWQJEUBWLDAUAP0K", "current_trial": 231, "dateTime": 1512675595570, "trialdata": {"rt": -1000, "stimulus": "/static/audio/wordpool/PATIENT.wav", "key_press": -1, "type": "PRES_AUD", "word": "patient", "wordID": 1023, "conditions": [24, 800, "a", 12000], "trial": 6, "serialpos": 18, "trial_type": "single-audio", "trial_index": 231, "time_elapsed": 1240147, "internal_node_id": "0.0-168.0"}}, {"uniqueid": "MTK0725:3OUYGIZWR8574LPWQJEUBWLDAUAP0K", "current_trial": 232, "dateTime": 1512675597189, "trialdata": {"rt": -1000, "stimulus": "/static/audio/wordpool/MARINE.wav", "key_press": -1, "type": "PRES_AUD", "word": "marine", "wordID": 868, "conditions": [24, 800, "a", 12000], "trial": 6, "serialpos": 19, "trial_type": "single-audio", "trial_index": 232, "time_elapsed": 1241767, "internal_node_id": "0.0-169.0"}}, {"uniqueid": "MTK0725:3OUYGIZWR8574LPWQJEUBWLDAUAP0K", "current_trial": 233, "dateTime": 1512675599036, "trialdata": {"rt": -1000, "stimulus": "/static/audio/wordpool/CANAL.wav", "key_press": -1, "type": "PRES_AUD", "word": "canal", "wordID": 225, "conditions": [24, 800, "a", 12000], "trial": 6, "serialpos": 20, "trial_type": "single-audio", "trial_index": 233, "time_elapsed": 1243613, "internal_node_id": "0.0-170.0"}}, {"uniqueid": "MTK0725:3OUYGIZWR8574LPWQJEUBWLDAUAP0K", "current_trial": 234, "dateTime": 1512675600929, "trialdata": {"rt": -1000, "stimulus": "/static/audio/wordpool/SNACK.wav", "key_press": -1, "type": "PRES_AUD", "word": "snack", "wordID": 1330, "conditions": [24, 800, "a", 12000], "trial": 6, "serialpos": 21, "trial_type": "single-audio", "trial_index": 234, "time_elapsed": 1245507, "internal_node_id": "0.0-171.0"}}, {"uniqueid": "MTK0725:3OUYGIZWR8574LPWQJEUBWLDAUAP0K", "current_trial": 235, "dateTime": 1512675602558, "trialdata": {"rt": -1000, "stimulus": "/static/audio/wordpool/PUDDLE.wav", "key_press": -1, "type": "PRES_AUD", "word": "puddle", "wordID": 1139, "conditions": [24, 800, "a", 12000], "trial": 6, "serialpos": 22, "trial_type": "single-audio", "trial_index": 235, "time_elapsed": 1247136, "internal_node_id": "0.0-172.0"}}, {"uniqueid": "MTK0725:3OUYGIZWR8574LPWQJEUBWLDAUAP0K", "current_trial": 236, "dateTime": 1512675604420, "trialdata": {"rt": -1000, "stimulus": "/static/audio/wordpool/BOYFRIEND.wav", "key_press": -1, "type": "PRES_AUD", "word": "boyfriend", "wordID": 161, "conditions": [24, 800, "a", 12000], "trial": 6, "serialpos": 23, "trial_type": "single-audio", "trial_index": 236, "time_elapsed": 1248997, "internal_node_id": "0.0-173.0"}}, {"uniqueid": "MTK0725:3OUYGIZWR8574LPWQJEUBWLDAUAP0K", "current_trial": 237, "dateTime": 1512675605735, "trialdata": {"rt": -1, "stimulus": "", "key_press": -1, "type": "PRE_RECALL_DELAY", "trial_type": "single-stim", "trial_index": 237, "time_elapsed": 1250312, "internal_node_id": "0.0-174.0-0.0"}}, {"uniqueid": "MTK0725:3OUYGIZWR8574LPWQJEUBWLDAUAP0K", "current_trial": 238, "dateTime": 1512675606238, "trialdata": {"rt": -1000, "stimulus": "/static/audio/400Hz.wav", "key_press": -1, "type": "PRE_RECALL_ALERT", "trial_type": "single-audio", "trial_index": 238, "time_elapsed": 1250815, "internal_node_id": "0.0-175.0"}}, {"uniqueid": "MTK0725:3OUYGIZWR8574LPWQJEUBWLDAUAP0K", "current_trial": 239, "dateTime": 1512675666282, "trialdata": {"rt": [4915, 7460, 9523, 11748, 13971, 17108, 20868, 35318], "recwords": ["boyfriend", "napsack", "ozone", "teacher", "canyon", "valley", "boyfriend", "canyon"], "type": "FREE_RECALL", "conditions": [24, 800, "a", 12000], "trial": 6, "trial_type": "free-recall", "trial_index": 239, "time_elapsed": 1310833, "internal_node_id": "0.0-176.0-0.0"}}, {"uniqueid": "MTK0725:3OUYGIZWR8574LPWQJEUBWLDAUAP0K", "current_trial": 240, "dateTime": 1512675671329, "trialdata": {"rt": 3043, "key_press": 79, "type": "INSTRUCTIONS", "trial_type": "text", "trial_index": 240, "time_elapsed": 1315907, "internal_node_id": "0.0-177.0"}}, {"uniqueid": "MTK0725:3OUYGIZWR8574LPWQJEUBWLDAUAP0K", "current_trial": 241, "dateTime": 1512675685347, "trialdata": {"rt": [4370, 6686, 9406], "responses": ["24", "10", "20"], "num1": [6, 3, 9, 1], "num2": [9, 3, 7, 9], "num3": [9, 4, 4, 9], "type": "DISTRACTOR", "conditions": [12, 1600, "a", 12000], "trial": 7, "trial_type": "math-distractor", "trial_index": 241, "time_elapsed": 1329925, "internal_node_id": "0.0-178.0"}}, {"uniqueid": "MTK0725:3OUYGIZWR8574LPWQJEUBWLDAUAP0K", "current_trial": 242, "dateTime": 1512675688354, "trialdata": {"rt": -1, "stimulus": "<p id=\"stim\">10</p>", "key_press": -1, "trial_type": "single-stim", "trial_index": 242, "time_elapsed": 1332931, "internal_node_id": "0.0-179.0-0.0"}}, {"uniqueid": "MTK0725:3OUYGIZWR8574LPWQJEUBWLDAUAP0K", "current_trial": 243, "dateTime": 1512675689358, "trialdata": {"rt": -1, "stimulus": "<p id=\"stim\">9</p>", "key_press": -1, "trial_type": "single-stim", "trial_index": 243, "time_elapsed": 1333936, "internal_node_id": "0.0-179.0-1.0"}}, {"uniqueid": "MTK0725:3OUYGIZWR8574LPWQJEUBWLDAUAP0K", "current_trial": 244, "dateTime": 1512675690362, "trialdata": {"rt": -1, "stimulus": "<p id=\"stim\">8</p>", "key_press": -1, "trial_type": "single-stim", "trial_index": 244, "time_elapsed": 1334940, "internal_node_id": "0.0-179.0-2.0"}}, {"uniqueid": "MTK0725:3OUYGIZWR8574LPWQJEUBWLDAUAP0K", "current_trial": 245, "dateTime": 1512675691367, "trialdata": {"rt": -1, "stimulus": "<p id=\"stim\">7</p>", "key_press": -1, "trial_type": "single-stim", "trial_index": 245, "time_elapsed": 1335945, "internal_node_id": "0.0-179.0-3.0"}}, {"uniqueid": "MTK0725:3OUYGIZWR8574LPWQJEUBWLDAUAP0K", "current_trial": 246, "dateTime": 1512675692371, "trialdata": {"rt": -1, "stimulus": "<p id=\"stim\">6</p>", "key_press": -1, "trial_type": "single-stim", "trial_index": 246, "time_elapsed": 1336949, "internal_node_id": "0.0-179.0-4.0"}}, {"uniqueid": "MTK0725:3OUYGIZWR8574LPWQJEUBWLDAUAP0K", "current_trial": 247, "dateTime": 1512675693375, "trialdata": {"rt": -1, "stimulus": "<p id=\"stim\">5</p>", "key_press": -1, "trial_type": "single-stim", "trial_index": 247, "time_elapsed": 1337953, "internal_node_id": "0.0-179.0-5.0"}}, {"uniqueid": "MTK0725:3OUYGIZWR8574LPWQJEUBWLDAUAP0K", "current_trial": 248, "dateTime": 1512675694381, "trialdata": {"rt": -1, "stimulus": "<p id=\"stim\">4</p>", "key_press": -1, "trial_type": "single-stim", "trial_index": 248, "time_elapsed": 1338958, "internal_node_id": "0.0-179.0-6.0"}}, {"uniqueid": "MTK0725:3OUYGIZWR8574LPWQJEUBWLDAUAP0K", "current_trial": 249, "dateTime": 1512675695385, "trialdata": {"rt": -1, "stimulus": "<p id=\"stim\">3</p>", "key_press": -1, "trial_type": "single-stim", "trial_index": 249, "time_elapsed": 1339963, "internal_node_id": "0.0-179.0-7.0"}}, {"uniqueid": "MTK0725:3OUYGIZWR8574LPWQJEUBWLDAUAP0K", "current_trial": 250, "dateTime": 1512675696389, "trialdata": {"rt": -1, "stimulus": "<p id=\"stim\">2</p>", "key_press": -1, "trial_type": "single-stim", "trial_index": 250, "time_elapsed": 1340967, "internal_node_id": "0.0-179.0-8.0"}}, {"uniqueid": "MTK0725:3OUYGIZWR8574LPWQJEUBWLDAUAP0K", "current_trial": 251, "dateTime": 1512675697394, "trialdata": {"rt": -1, "stimulus": "<p id=\"stim\">1</p>", "key_press": -1, "trial_type": "single-stim", "trial_index": 251, "time_elapsed": 1341972, "internal_node_id": "0.0-179.0-9.0"}}, {"uniqueid": "MTK0725:3OUYGIZWR8574LPWQJEUBWLDAUAP0K", "current_trial": 252, "dateTime": 1512675698899, "trialdata": {"rt": -1, "stimulus": "<p id=\"stim\">+</p>", "key_press": -1, "type": "FIXATION", "trial_type": "single-stim", "trial_index": 252, "time_elapsed": 1343476, "internal_node_id": "0.0-180.0-0.0"}}, {"uniqueid": "MTK0725:3OUYGIZWR8574LPWQJEUBWLDAUAP0K", "current_trial": 253, "dateTime": 1512675701394, "trialdata": {"rt": -1000, "stimulus": "/static/audio/wordpool/SEAFOOD.wav", "key_press": -1, "type": "PRES_AUD", "word": "seafood", "wordID": 1259, "conditions": [12, 1600, "a", 12000], "trial": 7, "serialpos": 0, "trial_type": "single-audio", "trial_index": 253, "time_elapsed": 1345971, "internal_node_id": "0.0-181.0"}}, {"uniqueid": "MTK0725:3OUYGIZWR8574LPWQJEUBWLDAUAP0K", "current_trial": 254, "dateTime": 1512675703868, "trialdata": {"rt": -1000, "stimulus": "/static/audio/wordpool/BATHTUB.wav", "key_press": -1, "type": "PRES_AUD", "word": "bathtub", "wordID": 99, "conditions": [12, 1600, "a", 12000], "trial": 7, "serialpos": 1, "trial_type": "single-audio", "trial_index": 254, "time_elapsed": 1348445, "internal_node_id": "0.0-182.0"}}, {"uniqueid": "MTK0725:3OUYGIZWR8574LPWQJEUBWLDAUAP0K", "current_trial": 255, "dateTime": 1512675706616, "trialdata": {"rt": -1000, "stimulus": "/static/audio/wordpool/SURVEY.wav", "key_press": -1, "type": "PRES_AUD", "word": "survey", "wordID": 1413, "conditions": [12, 1600, "a", 12000], "trial": 7, "serialpos": 2, "trial_type": "single-audio", "trial_index": 255, "time_elapsed": 1351193, "internal_node_id": "0.0-183.0"}}, {"uniqueid": "MTK0725:3OUYGIZWR8574LPWQJEUBWLDAUAP0K", "current_trial": 256, "dateTime": 1512675709078, "trialdata": {"rt": -1000, "stimulus": "/static/audio/wordpool/GRAPE.wav", "key_press": -1, "type": "PRES_AUD", "word": "grape", "wordID": 653, "conditions": [12, 1600, "a", 12000], "trial": 7, "serialpos": 3, "trial_type": "single-audio", "trial_index": 256, "time_elapsed": 1353656, "internal_node_id": "0.0-184.0"}}, {"uniqueid": "MTK0725:3OUYGIZWR8574LPWQJEUBWLDAUAP0K", "current_trial": 257, "dateTime": 1512675711667, "trialdata": {"rt": -1000, "stimulus": "/static/audio/wordpool/BARLEY.wav", "key_press": -1, "type": "PRES_AUD", "word": "barley", "wordID": 87, "conditions": [12, 1600, "a", 12000], "trial": 7, "serialpos": 4, "trial_type": "single-audio", "trial_index": 257, "time_elapsed": 1356245, "internal_node_id": "0.0-185.0"}}, {"uniqueid": "MTK0725:3OUYGIZWR8574LPWQJEUBWLDAUAP0K", "current_trial": 258, "dateTime": 1512675714421, "trialdata": {"rt": -1000, "stimulus": "/static/audio/wordpool/PLAYGROUND.wav", "key_press": -1, "type": "PRES_AUD", "word": "playground", "wordID": 1086, "conditions": [12, 1600, "a", 12000], "trial": 7, "serialpos": 5, "trial_type": "single-audio", "trial_index": 258, "time_elapsed": 1358998, "internal_node_id": "0.0-186.0"}}, {"uniqueid": "MTK0725:3OUYGIZWR8574LPWQJEUBWLDAUAP0K", "current_trial": 259, "dateTime": 1512675717083, "trialdata": {"rt": -1000, "stimulus": "/static/audio/wordpool/TURKEY.wav", "key_press": -1, "type": "PRES_AUD", "word": "turkey", "wordID": 1519, "conditions": [12, 1600, "a", 12000], "trial": 7, "serialpos": 6, "trial_type": "single-audio", "trial_index": 259, "time_elapsed": 1361660, "internal_node_id": "0.0-187.0"}}, {"uniqueid": "MTK0725:3OUYGIZWR8574LPWQJEUBWLDAUAP0K", "current_trial": 260, "dateTime": 1512675719597, "trialdata": {"rt": -1000, "stimulus": "/static/audio/wordpool/EUROPE.wav", "key_press": -1, "type": "PRES_AUD", "word": "europe", "wordID": 540, "conditions": [12, 1600, "a", 12000], "trial": 7, "serialpos": 7, "trial_type": "single-audio", "trial_index": 260, "time_elapsed": 1364175, "internal_node_id": "0.0-188.0"}}, {"uniqueid": "MTK0725:3OUYGIZWR8574LPWQJEUBWLDAUAP0K", "current_trial": 261, "dateTime": 1512675722389, "trialdata": {"rt": -1000, "stimulus": "/static/audio/wordpool/HEADBAND.wav", "key_press": -1, "type": "PRES_AUD", "word": "headband", "wordID": 695, "conditions": [12, 1600, "a", 12000], "trial": 7, "serialpos": 8, "trial_type": "single-audio", "trial_index": 261, "time_elapsed": 1366967, "internal_node_id": "0.0-189.0"}}, {"uniqueid": "MTK0725:3OUYGIZWR8574LPWQJEUBWLDAUAP0K", "current_trial": 262, "dateTime": 1512675725111, "trialdata": {"rt": -1000, "stimulus": "/static/audio/wordpool/MAILBOX.wav", "key_press": -1, "type": "PRES_AUD", "word": "mailbox", "wordID": 856, "conditions": [12, 1600, "a", 12000], "trial": 7, "serialpos": 9, "trial_type": "single-audio", "trial_index": 262, "time_elapsed": 1369689, "internal_node_id": "0.0-190.0"}}, {"uniqueid": "MTK0725:3OUYGIZWR8574LPWQJEUBWLDAUAP0K", "current_trial": 263, "dateTime": 1512675727900, "trialdata": {"rt": -1000, "stimulus": "/static/audio/wordpool/RIFLE.wav", "key_press": -1, "type": "PRES_AUD", "word": "rifle", "wordID": 1191, "conditions": [12, 1600, "a", 12000], "trial": 7, "serialpos": 10, "trial_type": "single-audio", "trial_index": 263, "time_elapsed": 1372477, "internal_node_id": "0.0-191.0"}}, {"uniqueid": "MTK0725:3OUYGIZWR8574LPWQJEUBWLDAUAP0K", "current_trial": 264, "dateTime": 1512675730325, "trialdata": {"rt": -1000, "stimulus": "/static/audio/wordpool/LONDON.wav", "key_press": -1, "type": "PRES_AUD", "word": "london", "wordID": 842, "conditions": [12, 1600, "a", 12000], "trial": 7, "serialpos": 11, "trial_type": "single-audio", "trial_index": 264, "time_elapsed": 1374903, "internal_node_id": "0.0-192.0"}}, {"uniqueid": "MTK0725:3OUYGIZWR8574LPWQJEUBWLDAUAP0K", "current_trial": 265, "dateTime": 1512675731696, "trialdata": {"rt": -1, "stimulus": "", "key_press": -1, "type": "PRE_RECALL_DELAY", "trial_type": "single-stim", "trial_index": 265, "time_elapsed": 1376274, "internal_node_id": "0.0-193.0-0.0"}}, {"uniqueid": "MTK0725:3OUYGIZWR8574LPWQJEUBWLDAUAP0K", "current_trial": 266, "dateTime": 1512675732201, "trialdata": {"rt": -1000, "stimulus": "/static/audio/400Hz.wav", "key_press": -1, "type": "PRE_RECALL_ALERT", "trial_type": "single-audio", "trial_index": 266, "time_elapsed": 1376778, "internal_node_id": "0.0-194.0"}}, {"uniqueid": "MTK0725:3OUYGIZWR8574LPWQJEUBWLDAUAP0K", "current_trial": 267, "dateTime": 1512675792227, "trialdata": {"rt": [3539, 6242, 8467, 11299, 12947, 16819, 37075, 44996], "recwords": ["london", "europe", "seafood", "bathtub", "grape", "turkey", "survey", "seafood"], "type": "FREE_RECALL", "conditions": [12, 1600, "a", 12000], "trial": 7, "trial_type": "free-recall", "trial_index": 267, "time_elapsed": 1436788, "internal_node_id": "0.0-195.0-0.0"}}, {"uniqueid": "MTK0725:3OUYGIZWR8574LPWQJEUBWLDAUAP0K", "current_trial": 268, "dateTime": 1512675795719, "trialdata": {"rt": 1488, "key_press": 68, "type": "INSTRUCTIONS", "trial_type": "text", "trial_index": 268, "time_elapsed": 1440297, "internal_node_id": "0.0-196.0"}}, {"uniqueid": "MTK0725:3OUYGIZWR8574LPWQJEUBWLDAUAP0K", "current_trial": 269, "dateTime": 1512675809729, "trialdata": {"rt": [3175, 5461, 7286, 9542, 11925], "responses": ["15", "12", "21", "17", "19"], "num1": [4, 3, 9, 6, 9, 5], "num2": [2, 4, 9, 8, 4, 2], "num3": [9, 5, 3, 3, 6, 7], "type": "DISTRACTOR", "conditions": [12, 800, "a", 12000], "trial": 8, "trial_type": "math-distractor", "trial_index": 269, "time_elapsed": 1454307, "internal_node_id": "0.0-197.0"}}, {"uniqueid": "MTK0725:3OUYGIZWR8574LPWQJEUBWLDAUAP0K", "current_trial": 270, "dateTime": 1512675812733, "trialdata": {"rt": -1, "stimulus": "<p id=\"stim\">10</p>", "key_press": -1, "trial_type": "single-stim", "trial_index": 270, "time_elapsed": 1457311, "internal_node_id": "0.0-198.0-0.0"}}, {"uniqueid": "MTK0725:3OUYGIZWR8574LPWQJEUBWLDAUAP0K", "current_trial": 271, "dateTime": 1512675813736, "trialdata": {"rt": -1, "stimulus": "<p id=\"stim\">9</p>", "key_press": -1, "trial_type": "single-stim", "trial_index": 271, "time_elapsed": 1458314, "internal_node_id": "0.0-198.0-1.0"}}, {"uniqueid": "MTK0725:3OUYGIZWR8574LPWQJEUBWLDAUAP0K", "current_trial": 272, "dateTime": 1512675814740, "trialdata": {"rt": -1, "stimulus": "<p id=\"stim\">8</p>", "key_press": -1, "tria