{"condition": 0, "counterbalance": 768, "assignmentId": "3OS46CRSLG6FNG87EK3AQPKM5YU6V6", "workerId": "MTK0090", "hitId": "322ZSN9Z5GRK8H2A0Z5E3PG3Z3I4TN", "currenttrial": 623, "bonus": 0, "data": [{"uniqueid": "MTK0090:3OS46CRSLG6FNG87EK3AQPKM5YU6V6", "current_trial": 0, "dateTime": 1509136773814, "trialdata": {"rt": 2693, "key_press": 32, "type": "INSTRUCTIONS", "trial_type": "text", "trial_index": 0, "time_elapsed": 2695, "internal_node_id": "0.0-0.0"}}, {"uniqueid": "MTK0090:3OS46CRSLG6FNG87EK3AQPKM5YU6V6", "current_trial": 1, "dateTime": 1509136801789, "trialdata": {"rt": 27974, "key_press": 32, "type": "INSTRUCTIONS", "trial_type": "text", "trial_index": 1, "time_elapsed": 30671, "internal_node_id": "0.0-1.0"}}, {"uniqueid": "MTK0090:3OS46CRSLG6FNG87EK3AQPKM5YU6V6", "current_trial": 2, "dateTime": 1509136820556, "trialdata": {"rt": [18734], "responses": ["ocean"], "type": "AUDIO_TEST", "trial_type": "audio-test", "trial_index": 2, "time_elapsed": 49438, "internal_node_id": "0.0-2.0"}}, {"uniqueid": "MTK0090:3OS46CRSLG6FNG87EK3AQPKM5YU6V6", "current_trial": 3, "dateTime": 1509136829631, "trialdata": {"rt": [9066], "responses": ["crystal"], "type": "AUDIO_TEST", "trial_type": "audio-test", "trial_index": 3, "time_elapsed": 58513, "internal_node_id": "0.0-3.0"}}, {"uniqueid": "MTK0090:3OS46CRSLG6FNG87EK3AQPKM5YU6V6", "current_trial": 4, "dateTime": 1509136836217, "trialdata": {"rt": [6577], "responses": ["spice"], "type": "AUDIO_TEST", "trial_type": "audio-test", "trial_index": 4, "time_elapsed": 65098, "internal_node_id": "0.0-4.0"}}, {"uniqueid": "MTK0090:3OS46CRSLG6FNG87EK3AQPKM5YU6V6", "current_trial": 5, "dateTime": 1509136841451, "trialdata": {"rt": 4480, "key_press": 32, "type": "INSTRUCTIONS", "trial_type": "text", "trial_index": 5, "time_elapsed": 70332, "internal_node_id": "0.0-5.0"}}, {"uniqueid": "MTK0090:3OS46CRSLG6FNG87EK3AQPKM5YU6V6", "current_trial": 6, "dateTime": 1509136897974, "trialdata": {"rt": 56522, "key_press": 32, "type": "INSTRUCTIONS", "trial_type": "text", "trial_index": 6, "time_elapsed": 126856, "internal_node_id": "0.0-6.0"}}, {"uniqueid": "MTK0090:3OS46CRSLG6FNG87EK3AQPKM5YU6V6", "current_trial": 7, "dateTime": 1509136923475, "trialdata": {"rt": 25499, "key_press": 32, "type": "INSTRUCTIONS", "trial_type": "text", "trial_index": 7, "time_elapsed": 152356, "internal_node_id": "0.0-7.0"}}, {"uniqueid": "MTK0090:3OS46CRSLG6FNG87EK3AQPKM5YU6V6", "current_trial": 8, "dateTime": 1509136938611, "trialdata": {"rt": 15135, "key_press": 32, "type": "INSTRUCTIONS", "trial_type": "text", "trial_index": 8, "time_elapsed": 167493, "internal_node_id": "0.0-8.0"}}, {"uniqueid": "MTK0090:3OS46CRSLG6FNG87EK3AQPKM5YU6V6", "current_trial": 9, "dateTime": 1509136957621, "trialdata": {"rt": [15284], "responses": ["28 "], "num1": [7, 1], "num2": [8, 1], "num3": [6, 6], "type": "DISTRACTOR", "conditions": [18, 1200, "v", 18000], "trial": 0, "trial_type": "math-distractor", "trial_index": 9, "time_elapsed": 186503, "internal_node_id": "0.0-9.0"}}, {"uniqueid": "MTK0090:3OS46CRSLG6FNG87EK3AQPKM5YU6V6", "current_trial": 10, "dateTime": 1509136960628, "trialdata": {"rt": -1, "stimulus": "<p id=\"stim\">10</p>", "key_press": -1, "trial_type": "single-stim", "trial_index": 10, "time_elapsed": 189510, "internal_node_id": "0.0-10.0-0.0"}}, {"uniqueid": "MTK0090:3OS46CRSLG6FNG87EK3AQPKM5YU6V6", "current_trial": 11, "dateTime": 1509136961630, "trialdata": {"rt": -1, "stimulus": "<p id=\"stim\">9</p>", "key_press": -1, "trial_type": "single-stim", "trial_index": 11, "time_elapsed": 190512, "internal_node_id": "0.0-10.0-1.0"}}, {"uniqueid": "MTK0090:3OS46CRSLG6FNG87EK3AQPKM5YU6V6", "current_trial": 12, "dateTime": 1509136962632, "trialdata": {"rt": -1, "stimulus": "<p id=\"stim\">8</p>", "key_press": -1, "trial_type": "single-stim", "trial_index": 12, "time_elapsed": 191514, "internal_node_id": "0.0-10.0-2.0"}}, {"uniqueid": "MTK0090:3OS46CRSLG6FNG87EK3AQPKM5YU6V6", "current_trial": 13, "dateTime": 1509136963635, "trialdata": {"rt": -1, "stimulus": "<p id=\"stim\">7</p>", "key_press": -1, "trial_type": "single-stim", "trial_index": 13, "time_elapsed": 192517, "internal_node_id": "0.0-10.0-3.0"}}, {"uniqueid": "MTK0090:3OS46CRSLG6FNG87EK3AQPKM5YU6V6", "current_trial": 14, "dateTime": 1509136964639, "trialdata": {"rt": -1, "stimulus": "<p id=\"stim\">6</p>", "key_press": -1, "trial_type": "single-stim", "trial_index": 14, "time_elapsed": 193521, "internal_node_id": "0.0-10.0-4.0"}}, {"uniqueid": "MTK0090:3OS46CRSLG6FNG87EK3AQPKM5YU6V6", "current_trial": 15, "dateTime": 1509136965643, "trialdata": {"rt": -1, "stimulus": "<p id=\"stim\">5</p>", "key_press": -1, "trial_type": "single-stim", "trial_index": 15, "time_elapsed": 194525, "internal_node_id": "0.0-10.0-5.0"}}, {"uniqueid": "MTK0090:3OS46CRSLG6FNG87EK3AQPKM5YU6V6", "current_trial": 16, "dateTime": 1509136966648, "trialdata": {"rt": -1, "stimulus": "<p id=\"stim\">4</p>", "key_press": -1, "trial_type": "single-stim", "trial_index": 16, "time_elapsed": 195530, "internal_node_id": "0.0-10.0-6.0"}}, {"uniqueid": "MTK0090:3OS46CRSLG6FNG87EK3AQPKM5YU6V6", "current_trial": 17, "dateTime": 1509136967654, "trialdata": {"rt": -1, "stimulus": "<p id=\"stim\">3</p>", "key_press": -1, "trial_type": "single-stim", "trial_index": 17, "time_elapsed": 196535, "internal_node_id": "0.0-10.0-7.0"}}, {"uniqueid": "MTK0090:3OS46CRSLG6FNG87EK3AQPKM5YU6V6", "current_trial": 18, "dateTime": 1509136968656, "trialdata": {"rt": -1, "stimulus": "<p id=\"stim\">2</p>", "key_press": -1, "trial_type": "single-stim", "trial_index": 18, "time_elapsed": 197538, "internal_node_id": "0.0-10.0-8.0"}}, {"uniqueid": "MTK0090:3OS46CRSLG6FNG87EK3AQPKM5YU6V6", "current_trial": 19, "dateTime": 1509136969660, "trialdata": {"rt": -1, "stimulus": "<p id=\"stim\">1</p>", "key_press": -1, "trial_type": "single-stim", "trial_index": 19, "time_elapsed": 198542, "internal_node_id": "0.0-10.0-9.0"}}, {"uniqueid": "MTK0090:3OS46CRSLG6FNG87EK3AQPKM5YU6V6", "current_trial": 20, "dateTime": 1509136971164, "trialdata": {"rt": -1, "stimulus": "<p id=\"stim\">+</p>", "key_press": -1, "type": "FIXATION", "trial_type": "single-stim", "trial_index": 20, "time_elapsed": 200046, "internal_node_id": "0.0-11.0-0.0"}}, {"uniqueid": "MTK0090:3OS46CRSLG6FNG87EK3AQPKM5YU6V6", "current_trial": 21, "dateTime": 1509136972366, "trialdata": {"rt": -1, "stimulus": "<p id=\"stim\">WHISTLE</p>", "key_press": -1, "type": "PRES_VIS", "word": "whistle", "wordID": 1605, "conditions": [18, 1200, "v", 18000], "trial": 0, "serialpos": 0, "trial_type": "single-stim", "trial_index": 21, "time_elapsed": 201247, "internal_node_id": "0.0-12.0"}}, {"uniqueid": "MTK0090:3OS46CRSLG6FNG87EK3AQPKM5YU6V6", "current_trial": 22, "dateTime": 1509136974389, "trialdata": {"rt": -1, "stimulus": "<p id=\"stim\">BUCKET</p>", "key_press": -1, "type": "PRES_VIS", "word": "bucket", "wordID": 183, "conditions": [18, 1200, "v", 18000], "trial": 0, "serialpos": 1, "trial_type": "single-stim", "trial_index": 22, "time_elapsed": 203270, "internal_node_id": "0.0-13.0"}}, {"uniqueid": "MTK0090:3OS46CRSLG6FNG87EK3AQPKM5YU6V6", "current_trial": 23, "dateTime": 1509136976777, "trialdata": {"rt": -1, "stimulus": "<p id=\"stim\">CHEST</p>", "key_press": -1, "type": "PRES_VIS", "word": "chest", "wordID": 294, "conditions": [18, 1200, "v", 18000], "trial": 0, "serialpos": 2, "trial_type": "single-stim", "trial_index": 23, "time_elapsed": 205659, "internal_node_id": "0.0-14.0"}}, {"uniqueid": "MTK0090:3OS46CRSLG6FNG87EK3AQPKM5YU6V6", "current_trial": 24, "dateTime": 1509136979175, "trialdata": {"rt": -1, "stimulus": "<p id=\"stim\">DRUG</p>", "key_press": -1, "type": "PRES_VIS", "word": "drug", "wordID": 500, "conditions": [18, 1200, "v", 18000], "trial": 0, "serialpos": 3, "trial_type": "single-stim", "trial_index": 24, "time_elapsed": 208056, "internal_node_id": "0.0-15.0"}}, {"uniqueid": "MTK0090:3OS46CRSLG6FNG87EK3AQPKM5YU6V6", "current_trial": 25, "dateTime": 1509136981235, "trialdata": {"rt": -1, "stimulus": "<p id=\"stim\">PIANO</p>", "key_press": -1, "type": "PRES_VIS", "word": "piano", "wordID": 1056, "conditions": [18, 1200, "v", 18000], "trial": 0, "serialpos": 4, "trial_type": "single-stim", "trial_index": 25, "time_elapsed": 210117, "internal_node_id": "0.0-16.0"}}, {"uniqueid": "MTK0090:3OS46CRSLG6FNG87EK3AQPKM5YU6V6", "current_trial": 26, "dateTime": 1509136983302, "trialdata": {"rt": -1, "stimulus": "<p id=\"stim\">DRIVER</p>", "key_press": -1, "type": "PRES_VIS", "word": "driver", "wordID": 498, "conditions": [18, 1200, "v", 18000], "trial": 0, "serialpos": 5, "trial_type": "single-stim", "trial_index": 26, "time_elapsed": 212184, "internal_node_id": "0.0-17.0"}}, {"uniqueid": "MTK0090:3OS46CRSLG6FNG87EK3AQPKM5YU6V6", "current_trial": 27, "dateTime": 1509136985699, "trialdata": {"rt": -1, "stimulus": "<p id=\"stim\">FIREPLACE</p>", "key_press": -1, "type": "PRES_VIS", "word": "fireplace", "wordID": 569, "conditions": [18, 1200, "v", 18000], "trial": 0, "serialpos": 6, "trial_type": "single-stim", "trial_index": 27, "time_elapsed": 214581, "internal_node_id": "0.0-18.0"}}, {"uniqueid": "MTK0090:3OS46CRSLG6FNG87EK3AQPKM5YU6V6", "current_trial": 28, "dateTime": 1509136987934, "trialdata": {"rt": -1, "stimulus": "<p id=\"stim\">HEADBAND</p>", "key_press": -1, "type": "PRES_VIS", "word": "headband", "wordID": 695, "conditions": [18, 1200, "v", 18000], "trial": 0, "serialpos": 7, "trial_type": "single-stim", "trial_index": 28, "time_elapsed": 216816, "internal_node_id": "0.0-19.0"}}, {"uniqueid": "MTK0090:3OS46CRSLG6FNG87EK3AQPKM5YU6V6", "current_trial": 29, "dateTime": 1509136990129, "trialdata": {"rt": -1, "stimulus": "<p id=\"stim\">POLICE</p>", "key_press": -1, "type": "PRES_VIS", "word": "police", "wordID": 1097, "conditions": [18, 1200, "v", 18000], "trial": 0, "serialpos": 8, "trial_type": "single-stim", "trial_index": 29, "time_elapsed": 219011, "internal_node_id": "0.0-20.0"}}, {"uniqueid": "MTK0090:3OS46CRSLG6FNG87EK3AQPKM5YU6V6", "current_trial": 30, "dateTime": 1509136992352, "trialdata": {"rt": -1, "stimulus": "<p id=\"stim\">FRANCE</p>", "key_press": -1, "type": "PRES_VIS", "word": "france", "wordID": 600, "conditions": [18, 1200, "v", 18000], "trial": 0, "serialpos": 9, "trial_type": "single-stim", "trial_index": 30, "time_elapsed": 221234, "internal_node_id": "0.0-21.0"}}, {"uniqueid": "MTK0090:3OS46CRSLG6FNG87EK3AQPKM5YU6V6", "current_trial": 31, "dateTime": 1509136994749, "trialdata": {"rt": -1, "stimulus": "<p id=\"stim\">QUARTER</p>", "key_press": -1, "type": "PRES_VIS", "word": "quarter", "wordID": 1147, "conditions": [18, 1200, "v", 18000], "trial": 0, "serialpos": 10, "trial_type": "single-stim", "trial_index": 31, "time_elapsed": 223631, "internal_node_id": "0.0-22.0"}}, {"uniqueid": "MTK0090:3OS46CRSLG6FNG87EK3AQPKM5YU6V6", "current_trial": 32, "dateTime": 1509136996922, "trialdata": {"rt": -1, "stimulus": "<p id=\"stim\">LAKE</p>", "key_press": -1, "type": "PRES_VIS", "word": "lake", "wordID": 795, "conditions": [18, 1200, "v", 18000], "trial": 0, "serialpos": 11, "trial_type": "single-stim", "trial_index": 32, "time_elapsed": 225804, "internal_node_id": "0.0-23.0"}}, {"uniqueid": "MTK0090:3OS46CRSLG6FNG87EK3AQPKM5YU6V6", "current_trial": 33, "dateTime": 1509136999306, "trialdata": {"rt": -1, "stimulus": "<p id=\"stim\">STALLION</p>", "key_press": -1, "type": "PRES_VIS", "word": "stallion", "wordID": 1368, "conditions": [18, 1200, "v", 18000], "trial": 0, "serialpos": 12, "trial_type": "single-stim", "trial_index": 33, "time_elapsed": 228188, "internal_node_id": "0.0-24.0"}}, {"uniqueid": "MTK0090:3OS46CRSLG6FNG87EK3AQPKM5YU6V6", "current_trial": 34, "dateTime": 1509137001536, "trialdata": {"rt": -1, "stimulus": "<p id=\"stim\">COUCH</p>", "key_press": -1, "type": "PRES_VIS", "word": "couch", "wordID": 385, "conditions": [18, 1200, "v", 18000], "trial": 0, "serialpos": 13, "trial_type": "single-stim", "trial_index": 34, "time_elapsed": 230418, "internal_node_id": "0.0-25.0"}}, {"uniqueid": "MTK0090:3OS46CRSLG6FNG87EK3AQPKM5YU6V6", "current_trial": 35, "dateTime": 1509137003625, "trialdata": {"rt": -1, "stimulus": "<p id=\"stim\">NAPKIN</p>", "key_press": -1, "type": "PRES_VIS", "word": "napkin", "wordID": 936, "conditions": [18, 1200, "v", 18000], "trial": 0, "serialpos": 14, "trial_type": "single-stim", "trial_index": 35, "time_elapsed": 232507, "internal_node_id": "0.0-26.0"}}, {"uniqueid": "MTK0090:3OS46CRSLG6FNG87EK3AQPKM5YU6V6", "current_trial": 36, "dateTime": 1509137005999, "trialdata": {"rt": -1, "stimulus": "<p id=\"stim\">TART</p>", "key_press": -1, "type": "PRES_VIS", "word": "tart", "wordID": 1435, "conditions": [18, 1200, "v", 18000], "trial": 0, "serialpos": 15, "trial_type": "single-stim", "trial_index": 36, "time_elapsed": 234881, "internal_node_id": "0.0-27.0"}}, {"uniqueid": "MTK0090:3OS46CRSLG6FNG87EK3AQPKM5YU6V6", "current_trial": 37, "dateTime": 1509137008043, "trialdata": {"rt": -1, "stimulus": "<p id=\"stim\">PIGEON</p>", "key_press": -1, "type": "PRES_VIS", "word": "pigeon", "wordID": 1064, "conditions": [18, 1200, "v", 18000], "trial": 0, "serialpos": 16, "trial_type": "single-stim", "trial_index": 37, "time_elapsed": 236925, "internal_node_id": "0.0-28.0"}}, {"uniqueid": "MTK0090:3OS46CRSLG6FNG87EK3AQPKM5YU6V6", "current_trial": 38, "dateTime": 1509137010208, "trialdata": {"rt": -1, "stimulus": "<p id=\"stim\">TROUT</p>", "key_press": -1, "type": "PRES_VIS", "word": "trout", "wordID": 1510, "conditions": [18, 1200, "v", 18000], "trial": 0, "serialpos": 17, "trial_type": "single-stim", "trial_index": 38, "time_elapsed": 239090, "internal_node_id": "0.0-29.0"}}, {"uniqueid": "MTK0090:3OS46CRSLG6FNG87EK3AQPKM5YU6V6", "current_trial": 39, "dateTime": 1509137012443, "trialdata": {"rt": -1, "stimulus": "", "key_press": -1, "type": "PRE_RECALL_DELAY", "trial_type": "single-stim", "trial_index": 39, "time_elapsed": 241325, "internal_node_id": "0.0-30.0-0.0"}}, {"uniqueid": "MTK0090:3OS46CRSLG6FNG87EK3AQPKM5YU6V6", "current_trial": 40, "dateTime": 1509137012948, "trialdata": {"rt": -1000, "stimulus": "/static/audio/400Hz.wav", "key_press": -1, "type": "PRE_RECALL_ALERT", "trial_type": "single-audio", "trial_index": 40, "time_elapsed": 241830, "internal_node_id": "0.0-31.0"}}, {"uniqueid": "MTK0090:3OS46CRSLG6FNG87EK3AQPKM5YU6V6", "current_trial": 41, "dateTime": 1509137072956, "trialdata": {"rt": [6469, 8689, 11780, 14135, 16865, 19490, 21410, 24921, 29286, 32707, 36711, 40312, 41887, 46177, 50092, 58988], "recwords": ["police", "tart", "couch", "pigeon", "whistle", "bucket", "chest", "drug", "headband", "fireplace", "france", "quarter", "lake", "stallion", "napkin", "driver"], "type": "FREE_RECALL", "conditions": [18, 1200, "v", 18000], "trial": 0, "trial_type": "free-recall", "trial_index": 41, "time_elapsed": 301835, "internal_node_id": "0.0-32.0-0.0"}}, {"uniqueid": "MTK0090:3OS46CRSLG6FNG87EK3AQPKM5YU6V6", "current_trial": 42, "dateTime": 1509137075148, "trialdata": {"rt": 187, "key_press": 66, "type": "INSTRUCTIONS", "trial_type": "text", "trial_index": 42, "time_elapsed": 304030, "internal_node_id": "0.0-33.0"}}, {"uniqueid": "MTK0090:3OS46CRSLG6FNG87EK3AQPKM5YU6V6", "current_trial": 43, "dateTime": 1509137095158, "trialdata": {"rt": [5688, 11463, 17508], "responses": ["16", "23", "11"], "num1": [6, 5, 2, 3], "num2": [8, 9, 2, 2], "num3": [2, 9, 7, 7], "type": "DISTRACTOR", "conditions": [18, 1200, "a", 18000], "trial": 1, "trial_type": "math-distractor", "trial_index": 43, "time_elapsed": 324040, "internal_node_id": "0.0-34.0"}}, {"uniqueid": "MTK0090:3OS46CRSLG6FNG87EK3AQPKM5YU6V6", "current_trial": 44, "dateTime": 1509137098165, "trialdata": {"rt": -1, "stimulus": "<p id=\"stim\">10</p>", "key_press": -1, "trial_type": "single-stim", "trial_index": 44, "time_elapsed": 327047, "internal_node_id": "0.0-35.0-0.0"}}, {"uniqueid": "MTK0090:3OS46CRSLG6FNG87EK3AQPKM5YU6V6", "current_trial": 45, "dateTime": 1509137099169, "trialdata": {"rt": -1, "stimulus": "<p id=\"stim\">9</p>", "key_press": -1, "trial_type": "single-stim", "trial_index": 45, "time_elapsed": 328051, "internal_node_id": "0.0-35.0-1.0"}}, {"uniqueid": "MTK0090:3OS46CRSLG6FNG87EK3AQPKM5YU6V6", "current_trial": 46, "dateTime": 1509137100173, "trialdata": {"rt": -1, "stimulus": "<p id=\"stim\">8</p>", "key_press": -1, "trial_type": "single-stim", "trial_index": 46, "time_elapsed": 329055, "internal_node_id": "0.0-35.0-2.0"}}, {"uniqueid": "MTK0090:3OS46CRSLG6FNG87EK3AQPKM5YU6V6", "current_trial": 47, "dateTime": 1509137101176, "trialdata": {"rt": -1, "stimulus": "<p id=\"stim\">7</p>", "key_press": -1, "trial_type": "single-stim", "trial_index": 47, "time_elapsed": 330058, "internal_node_id": "0.0-35.0-3.0"}}, {"uniqueid": "MTK0090:3OS46CRSLG6FNG87EK3AQPKM5YU6V6", "current_trial": 48, "dateTime": 1509137102180, "trialdata": {"rt": -1, "stimulus": "<p id=\"stim\">6</p>", "key_press": -1, "trial_type": "single-stim", "trial_index": 48, "time_elapsed": 331062, "internal_node_id": "0.0-35.0-4.0"}}, {"uniqueid": "MTK0090:3OS46CRSLG6FNG87EK3AQPKM5YU6V6", "current_trial": 49, "dateTime": 1509137103186, "trialdata": {"rt": -1, "stimulus": "<p id=\"stim\">5</p>", "key_press": -1, "trial_type": "single-stim", "trial_index": 49, "time_elapsed": 332067, "internal_node_id": "0.0-35.0-5.0"}}, {"uniqueid": "MTK0090:3OS46CRSLG6FNG87EK3AQPKM5YU6V6", "current_trial": 50, "dateTime": 1509137104190, "trialdata": {"rt": -1, "stimulus": "<p id=\"stim\">4</p>", "key_press": -1, "trial_type": "single-stim", "trial_index": 50, "time_elapsed": 333072, "internal_node_id": "0.0-35.0-6.0"}}, {"uniqueid": "MTK0090:3OS46CRSLG6FNG87EK3AQPKM5YU6V6", "current_trial": 51, "dateTime": 1509137105195, "trialdata": {"rt": -1, "stimulus": "<p id=\"stim\">3</p>", "key_press": -1, "trial_type": "single-stim", "trial_index": 51, "time_elapsed": 334077, "internal_node_id": "0.0-35.0-7.0"}}, {"uniqueid": "MTK0090:3OS46CRSLG6FNG87EK3AQPKM5YU6V6", "current_trial": 52, "dateTime": 1509137106197, "trialdata": {"rt": -1, "stimulus": "<p id=\"stim\">2</p>", "key_press": -1, "trial_type": "single-stim", "trial_index": 52, "time_elapsed": 335079, "internal_node_id": "0.0-35.0-8.0"}}, {"uniqueid": "MTK0090:3OS46CRSLG6FNG87EK3AQPKM5YU6V6", "current_trial": 53, "dateTime": 1509137107200, "trialdata": {"rt": -1, "stimulus": "<p id=\"stim\">1</p>", "key_press": -1, "trial_type": "single-stim", "trial_index": 53, "time_elapsed": 336082, "internal_node_id": "0.0-35.0-9.0"}}, {"uniqueid": "MTK0090:3OS46CRSLG6FNG87EK3AQPKM5YU6V6", "current_trial": 54, "dateTime": 1509137108701, "trialdata": {"rt": -1, "stimulus": "<p id=\"stim\">+</p>", "key_press": -1, "type": "FIXATION", "trial_type": "single-stim", "trial_index": 54, "time_elapsed": 337583, "internal_node_id": "0.0-36.0-0.0"}}, {"uniqueid": "MTK0090:3OS46CRSLG6FNG87EK3AQPKM5YU6V6", "current_trial": 55, "dateTime": 1509137110751, "trialdata": {"rt": -1000, "stimulus": "/static/audio/wordpool/HONEY.wav", "key_press": -1, "type": "PRES_AUD", "word": "honey", "wordID": 712, "conditions": [18, 1200, "a", 18000], "trial": 1, "serialpos": 0, "trial_type": "single-audio", "trial_index": 55, "time_elapsed": 339633, "internal_node_id": "0.0-37.0"}}, {"uniqueid": "MTK0090:3OS46CRSLG6FNG87EK3AQPKM5YU6V6", "current_trial": 56, "dateTime": 1509137112869, "trialdata": {"rt": -1000, "stimulus": "/static/audio/wordpool/MATTRESS.wav", "key_press": -1, "type": "PRES_AUD", "word": "mattress", "wordID": 878, "conditions": [18, 1200, "a", 18000], "trial": 1, "serialpos": 1, "trial_type": "single-audio", "trial_index": 56, "time_elapsed": 341751, "internal_node_id": "0.0-38.0"}}, {"uniqueid": "MTK0090:3OS46CRSLG6FNG87EK3AQPKM5YU6V6", "current_trial": 57, "dateTime": 1509137115182, "trialdata": {"rt": -1000, "stimulus": "/static/audio/wordpool/HAND.wav", "key_press": -1, "type": "PRES_AUD", "word": "hand", "wordID": 682, "conditions": [18, 1200, "a", 18000], "trial": 1, "serialpos": 2, "trial_type": "single-audio", "trial_index": 57, "time_elapsed": 344064, "internal_node_id": "0.0-39.0"}}, {"uniqueid": "MTK0090:3OS46CRSLG6FNG87EK3AQPKM5YU6V6", "current_trial": 58, "dateTime": 1509137117310, "trialdata": {"rt": -1000, "stimulus": "/static/audio/wordpool/PARSLEY.wav", "key_press": -1, "type": "PRES_AUD", "word": "parsley", "wordID": 1015, "conditions": [18, 1200, "a", 18000], "trial": 1, "serialpos": 3, "trial_type": "single-audio", "trial_index": 58, "time_elapsed": 346191, "internal_node_id": "0.0-40.0"}}, {"uniqueid": "MTK0090:3OS46CRSLG6FNG87EK3AQPKM5YU6V6", "current_trial": 59, "dateTime": 1509137119538, "trialdata": {"rt": -1000, "stimulus": "/static/audio/wordpool/ANKLE.wav", "key_press": -1, "type": "PRES_AUD", "word": "ankle", "wordID": 23, "conditions": [18, 1200, "a", 18000], "trial": 1, "serialpos": 4, "trial_type": "single-audio", "trial_index": 59, "time_elapsed": 348420, "internal_node_id": "0.0-41.0"}}, {"uniqueid": "MTK0090:3OS46CRSLG6FNG87EK3AQPKM5YU6V6", "current_trial": 60, "dateTime": 1509137121588, "trialdata": {"rt": -1000, "stimulus": "/static/audio/wordpool/ROD.wav", "key_press": -1, "type": "PRES_AUD", "word": "rod", "wordID": 1202, "conditions": [18, 1200, "a", 18000], "trial": 1, "serialpos": 5, "trial_type": "single-audio", "trial_index": 60, "time_elapsed": 350470, "internal_node_id": "0.0-42.0"}}, {"uniqueid": "MTK0090:3OS46CRSLG6FNG87EK3AQPKM5YU6V6", "current_trial": 61, "dateTime": 1509137123608, "trialdata": {"rt": -1000, "stimulus": "/static/audio/wordpool/HUMAN.wav", "key_press": -1, "type": "PRES_AUD", "word": "human", "wordID": 725, "conditions": [18, 1200, "a", 18000], "trial": 1, "serialpos": 6, "trial_type": "single-audio", "trial_index": 61, "time_elapsed": 352490, "internal_node_id": "0.0-43.0"}}, {"uniqueid": "MTK0090:3OS46CRSLG6FNG87EK3AQPKM5YU6V6", "current_trial": 62, "dateTime": 1509137125731, "trialdata": {"rt": -1000, "stimulus": "/static/audio/wordpool/SMOG.wav", "key_press": -1, "type": "PRES_AUD", "word": "smog", "wordID": 1329, "conditions": [18, 1200, "a", 18000], "trial": 1, "serialpos": 7, "trial_type": "single-audio", "trial_index": 62, "time_elapsed": 354612, "internal_node_id": "0.0-44.0"}}, {"uniqueid": "MTK0090:3OS46CRSLG6FNG87EK3AQPKM5YU6V6", "current_trial": 63, "dateTime": 1509137128025, "trialdata": {"rt": -1000, "stimulus": "/static/audio/wordpool/ISLAND.wav", "key_press": -1, "type": "PRES_AUD", "word": "island", "wordID": 744, "conditions": [18, 1200, "a", 18000], "trial": 1, "serialpos": 8, "trial_type": "single-audio", "trial_index": 63, "time_elapsed": 356907, "internal_node_id": "0.0-45.0"}}, {"uniqueid": "MTK0090:3OS46CRSLG6FNG87EK3AQPKM5YU6V6", "current_trial": 64, "dateTime": 1509137130082, "trialdata": {"rt": -1000, "stimulus": "/static/audio/wordpool/CREVICE.wav", "key_press": -1, "type": "PRES_AUD", "word": "crevice", "wordID": 404, "conditions": [18, 1200, "a", 18000], "trial": 1, "serialpos": 9, "trial_type": "single-audio", "trial_index": 64, "time_elapsed": 358964, "internal_node_id": "0.0-46.0"}}, {"uniqueid": "MTK0090:3OS46CRSLG6FNG87EK3AQPKM5YU6V6", "current_trial": 65, "dateTime": 1509137132281, "trialdata": {"rt": -1000, "stimulus": "/static/audio/wordpool/NOVEL.wav", "key_press": -1, "type": "PRES_AUD", "word": "novel", "wordID": 959, "conditions": [18, 1200, "a", 18000], "trial": 1, "serialpos": 10, "trial_type": "single-audio", "trial_index": 65, "time_elapsed": 361163, "internal_node_id": "0.0-47.0"}}, {"uniqueid": "MTK0090:3OS46CRSLG6FNG87EK3AQPKM5YU6V6", "current_trial": 66, "dateTime": 1509137134388, "trialdata": {"rt": -1000, "stimulus": "/static/audio/wordpool/DOLPHIN.wav", "key_press": -1, "type": "PRES_AUD", "word": "dolphin", "wordID": 482, "conditions": [18, 1200, "a", 18000], "trial": 1, "serialpos": 11, "trial_type": "single-audio", "trial_index": 66, "time_elapsed": 363270, "internal_node_id": "0.0-48.0"}}, {"uniqueid": "MTK0090:3OS46CRSLG6FNG87EK3AQPKM5YU6V6", "current_trial": 67, "dateTime": 1509137136669, "trialdata": {"rt": -1000, "stimulus": "/static/audio/wordpool/CIGAR.wav", "key_press": -1, "type": "PRES_AUD", "word": "cigar", "wordID": 307, "conditions": [18, 1200, "a", 18000], "trial": 1, "serialpos": 12, "trial_type": "single-audio", "trial_index": 67, "time_elapsed": 365551, "internal_node_id": "0.0-49.0"}}, {"uniqueid": "MTK0090:3OS46CRSLG6FNG87EK3AQPKM5YU6V6", "current_trial": 68, "dateTime": 1509137138811, "trialdata": {"rt": -1000, "stimulus": "/static/audio/wordpool/COD.wav", "key_press": -1, "type": "PRES_AUD", "word": "cod", "wordID": 339, "conditions": [18, 1200, "a", 18000], "trial": 1, "serialpos": 13, "trial_type": "single-audio", "trial_index": 68, "time_elapsed": 367693, "internal_node_id": "0.0-50.0"}}, {"uniqueid": "MTK0090:3OS46CRSLG6FNG87EK3AQPKM5YU6V6", "current_trial": 69, "dateTime": 1509137140866, "trialdata": {"rt": -1000, "stimulus": "/static/audio/wordpool/NECKLACE.wav", "key_press": -1, "type": "PRES_AUD", "word": "necklace", "wordID": 939, "conditions": [18, 1200, "a", 18000], "trial": 1, "serialpos": 14, "trial_type": "single-audio", "trial_index": 69, "time_elapsed": 369748, "internal_node_id": "0.0-51.0"}}, {"uniqueid": "MTK0090:3OS46CRSLG6FNG87EK3AQPKM5YU6V6", "current_trial": 70, "dateTime": 1509137143171, "trialdata": {"rt": -1000, "stimulus": "/static/audio/wordpool/MARS.wav", "key_press": -1, "type": "PRES_AUD", "word": "mars", "wordID": 872, "conditions": [18, 1200, "a", 18000], "trial": 1, "serialpos": 15, "trial_type": "single-audio", "trial_index": 70, "time_elapsed": 372053, "internal_node_id": "0.0-52.0"}}, {"uniqueid": "MTK0090:3OS46CRSLG6FNG87EK3AQPKM5YU6V6", "current_trial": 71, "dateTime": 1509137145202, "trialdata": {"rt": -1000, "stimulus": "/static/audio/wordpool/HEART.wav", "key_press": -1, "type": "PRES_AUD", "word": "heart", "wordID": 696, "conditions": [18, 1200, "a", 18000], "trial": 1, "serialpos": 16, "trial_type": "single-audio", "trial_index": 71, "time_elapsed": 374084, "internal_node_id": "0.0-53.0"}}, {"uniqueid": "MTK0090:3OS46CRSLG6FNG87EK3AQPKM5YU6V6", "current_trial": 72, "dateTime": 1509137147367, "trialdata": {"rt": -1000, "stimulus": "/static/audio/wordpool/CHURCH.wav", "key_press": -1, "type": "PRES_AUD", "word": "church", "wordID": 306, "conditions": [18, 1200, "a", 18000], "trial": 1, "serialpos": 17, "trial_type": "single-audio", "trial_index": 72, "time_elapsed": 376249, "internal_node_id": "0.0-54.0"}}, {"uniqueid": "MTK0090:3OS46CRSLG6FNG87EK3AQPKM5YU6V6", "current_trial": 73, "dateTime": 1509137148716, "trialdata": {"rt": -1, "stimulus": "", "key_press": -1, "type": "PRE_RECALL_DELAY", "trial_type": "single-stim", "trial_index": 73, "time_elapsed": 377598, "internal_node_id": "0.0-55.0-0.0"}}, {"uniqueid": "MTK0090:3OS46CRSLG6FNG87EK3AQPKM5YU6V6", "current_trial": 74, "dateTime": 1509137149219, "trialdata": {"rt": -1000, "stimulus": "/static/audio/400Hz.wav", "key_press": -1, "type": "PRE_RECALL_ALERT", "trial_type": "single-audio", "trial_index": 74, "time_elapsed": 378101, "internal_node_id": "0.0-56.0"}}, {"uniqueid": "MTK0090:3OS46CRSLG6FNG87EK3AQPKM5YU6V6", "current_trial": 75, "dateTime": 1509137209230, "trialdata": {"rt": [3996, 5822, 9438, 12211, 13816, 16141, 17791, 19187, 22667, 25397, 28308, 30738, 33633, 36108, 41163, 44523, 48844, 54409], "recwords": ["church", "mars", "honey", "parsley", "hand", "snkle", "usland", "snall", "crevice", "novel", "dolphin", "necklace", "cigar", "heart", "cod", "small", "human", "mattress"], "type": "FREE_RECALL", "conditions": [18, 1200, "a", 18000], "trial": 1, "trial_type": "free-recall", "trial_index": 75, "time_elapsed": 438108, "internal_node_id": "0.0-57.0-0.0"}}, {"uniqueid": "MTK0090:3OS46CRSLG6FNG87EK3AQPKM5YU6V6", "current_trial": 76, "dateTime": 1509137218376, "trialdata": {"rt": 7142, "key_press": 32, "type": "INSTRUCTIONS", "trial_type": "text", "trial_index": 76, "time_elapsed": 447258, "internal_node_id": "0.0-58.0"}}, {"uniqueid": "MTK0090:3OS46CRSLG6FNG87EK3AQPKM5YU6V6", "current_trial": 77, "dateTime": 1509137231383, "trialdata": {"rt": [4996, 9017], "responses": ["15", "19"], "num1": [7, 4, 7], "num2": [1, 6, 9], "num3": [8, 9, 2], "type": "DISTRACTOR", "conditions": [12, 800, "v", 12000], "trial": 2, "trial_type": "math-distractor", "trial_index": 77, "time_elapsed": 460265, "internal_node_id": "0.0-59.0"}}, {"uniqueid": "MTK0090:3OS46CRSLG6FNG87EK3AQPKM5YU6V6", "current_trial": 78, "dateTime": 1509137234388, "trialdata": {"rt": -1, "stimulus": "<p id=\"stim\">10</p>", "key_press": -1, "trial_type": "single-stim", "trial_index": 78, "time_elapsed": 463269, "internal_node_id": "0.0-60.0-0.0"}}, {"uniqueid": "MTK0090:3OS46CRSLG6FNG87EK3AQPKM5YU6V6", "current_trial": 79, "dateTime": 1509137235394, "trialdata": {"rt": -1, "stimulus": "<p id=\"stim\">9</p>", "key_press": -1, "trial_type": "single-stim", "trial_index": 79, "time_elapsed": 464276, "internal_node_id": "0.0-60.0-1.0"}}, {"uniqueid": "MTK0090:3OS46CRSLG6FNG87EK3AQPKM5YU6V6", "current_trial": 80, "dateTime": 1509137236399, "trialdata": {"rt": -1, "stimulus": "<p id=\"stim\">8</p>", "key_press": -1, "trial_type": "single-stim", "trial_index": 80, "time_elapsed": 465281, "internal_node_id": "0.0-60.0-2.0"}}, {"uniqueid": "MTK0090:3OS46CRSLG6FNG87EK3AQPKM5YU6V6", "current_trial": 81, "dateTime": 1509137237403, "trialdata": {"rt": -1, "stimulus": "<p id=\"stim\">7</p>", "key_press": -1, "trial_type": "single-stim", "trial_index": 81, "time_elapsed": 466285, "internal_node_id": "0.0-60.0-3.0"}}, {"uniqueid": "MTK0090:3OS46CRSLG6FNG87EK3AQPKM5YU6V6", "current_trial": 82, "dateTime": 1509137238409, "trialdata": {"rt": -1, "stimulus": "<p id=\"stim\">6</p>", "key_press": -1, "trial_type": "single-stim", "trial_index": 82, "time_elapsed": 467290, "internal_node_id": "0.0-60.0-4.0"}}, {"uniqueid": "MTK0090:3OS46CRSLG6FNG87EK3AQPKM5YU6V6", "current_trial": 83, "dateTime": 1509137239412, "trialdata": {"rt": -1, "stimulus": "<p id=\"stim\">5</p>", "key_press": -1, "trial_type": "single-stim", "trial_index": 83, "time_elapsed": 468293, "internal_node_id": "0.0-60.0-5.0"}}, {"uniqueid": "MTK0090:3OS46CRSLG6FNG87EK3AQPKM5YU6V6", "current_trial": 84, "dateTime": 1509137240416, "trialdata": {"rt": -1, "stimulus": "<p id=\"stim\">4</p>", "key_press": -1, "trial_type": "single-stim", "trial_index": 84, "time_elapsed": 469298, "internal_node_id": "0.0-60.0-6.0"}}, {"uniqueid": "MTK0090:3OS46CRSLG6FNG87EK3AQPKM5YU6V6", "current_trial": 85, "dateTime": 1509137241420, "trialdata": {"rt": -1, "stimulus": "<p id=\"stim\">3</p>", "key_press": -1, "trial_type": "single-stim", "trial_index": 85, "time_elapsed": 470302, "internal_node_id": "0.0-60.0-7.0"}}, {"uniqueid": "MTK0090:3OS46CRSLG6FNG87EK3AQPKM5YU6V6", "current_trial": 86, "dateTime": 1509137242424, "trialdata": {"rt": -1, "stimulus": "<p id=\"stim\">2</p>", "key_press": -1, "trial_type": "single-stim", "trial_index": 86, "time_elapsed": 471306, "internal_node_id": "0.0-60.0-8.0"}}, {"uniqueid": "MTK0090:3OS46CRSLG6FNG87EK3AQPKM5YU6V6", "current_trial": 87, "dateTime": 1509137243429, "trialdata": {"rt": -1, "stimulus": "<p id=\"stim\">1</p>", "key_press": -1, "trial_type": "single-stim", "trial_index": 87, "time_elapsed": 472310, "internal_node_id": "0.0-60.0-9.0"}}, {"uniqueid": "MTK0090:3OS46CRSLG6FNG87EK3AQPKM5YU6V6", "current_trial": 88, "dateTime": 1509137244932, "trialdata": {"rt": -1, "stimulus": "<p id=\"stim\">+</p>", "key_press": -1, "type": "FIXATION", "trial_type": "single-stim", "trial_index": 88, "time_elapsed": 473814, "internal_node_id": "0.0-61.0-0.0"}}, {"uniqueid": "MTK0090:3OS46CRSLG6FNG87EK3AQPKM5YU6V6", "current_trial": 89, "dateTime": 1509137245733, "trialdata": {"rt": -1, "stimulus": "<p id=\"stim\">SWIMMER</p>", "key_press": -1, "type": "PRES_VIS", "word": "swimmer", "wordID": 1419, "conditions": [12, 800, "v", 12000], "trial": 2, "serialpos": 0, "trial_type": "single-stim", "trial_index": 89, "time_elapsed": 474615, "internal_node_id": "0.0-62.0"}}, {"uniqueid": "MTK0090:3OS46CRSLG6FNG87EK3AQPKM5YU6V6", "current_trial": 90, "dateTime": 1509137247684, "trialdata": {"rt": -1, "stimulus": "<p id=\"stim\">KNAPSACK</p>", "key_press": -1, "type": "PRES_VIS", "word": "knapsack", "wordID": 782, "conditions": [12, 800, "v", 12000], "trial": 2, "serialpos": 1, "trial_type": "single-stim", "trial_index": 90, "time_elapsed": 476566, "internal_node_id": "0.0-63.0"}}, {"uniqueid": "MTK0090:3OS46CRSLG6FNG87EK3AQPKM5YU6V6", "current_trial": 91, "dateTime": 1509137249321, "trialdata": {"rt": -1, "stimulus": "<p id=\"stim\">LADY</p>", "key_press": -1, "type": "PRES_VIS", "word": "lady", "wordID": 793, "conditions": [12, 800, "v", 12000], "trial": 2, "serialpos": 2, "trial_type": "single-stim", "trial_index": 91, "time_elapsed": 478202, "internal_node_id": "0.0-64.0"}}, {"uniqueid": "MTK0090:3OS46CRSLG6FNG87EK3AQPKM5YU6V6", "current_trial": 92, "dateTime": 1509137250969, "trialdata": {"rt": -1, "stimulus": "<p id=\"stim\">CARRIAGE</p>", "key_press": -1, "type": "PRES_VIS", "word": "carriage", "wordID": 247, "conditions": [12, 800, "v", 12000], "trial": 2, "serialpos": 3, "trial_type": "single-stim", "trial_index": 92, "time_elapsed": 479851, "internal_node_id": "0.0-65.0"}}, {"uniqueid": "MTK0090:3OS46CRSLG6FNG87EK3AQPKM5YU6V6", "current_trial": 93, "dateTime": 1509137252589, "trialdata": {"rt": -1, "stimulus": "<p id=\"stim\">RIVER</p>", "key_press": -1, "type": "PRES_VIS", "word": "river", "wordID": 1193, "conditions": [12, 800, "v", 12000], "trial": 2, "serialpos": 4, "trial_type": "single-stim", "trial_index": 93, "time_elapsed": 481470, "internal_node_id": "0.0-66.0"}}, {"uniqueid": "MTK0090:3OS46CRSLG6FNG87EK3AQPKM5YU6V6", "current_trial": 94, "dateTime": 1509137254342, "trialdata": {"rt": -1, "stimulus": "<p id=\"stim\">KLEENEX</p>", "key_press": -1, "type": "PRES_VIS", "word": "kleenex", "wordID": 781, "conditions": [12, 800, "v", 12000], "trial": 2, "serialpos": 5, "trial_type": "single-stim", "trial_index": 94, "time_elapsed": 483224, "internal_node_id": "0.0-67.0"}}, {"uniqueid": "MTK0090:3OS46CRSLG6FNG87EK3AQPKM5YU6V6", "current_trial": 95, "dateTime": 1509137256182, "trialdata": {"rt": -1, "stimulus": "<p id=\"stim\">DIVER</p>", "key_press": -1, "type": "PRES_VIS", "word": "diver", "wordID": 475, "conditions": [12, 800, "v", 12000], "trial": 2, "serialpos": 6, "trial_type": "single-stim", "trial_index": 95, "time_elapsed": 485064, "internal_node_id": "0.0-68.0"}}, {"uniqueid": "MTK0090:3OS46CRSLG6FNG87EK3AQPKM5YU6V6", "current_trial": 96, "dateTime": 1509137257809, "trialdata": {"rt": -1, "stimulus": "<p id=\"stim\">SIDEWALK</p>", "key_press": -1, "type": "PRES_VIS", "word": "sidewalk", "wordID": 1302, "conditions": [12, 800, "v", 12000], "trial": 2, "serialpos": 7, "trial_type": "single-stim", "trial_index": 96, "time_elapsed": 486691, "internal_node_id": "0.0-69.0"}}, {"uniqueid": "MTK0090:3OS46CRSLG6FNG87EK3AQPKM5YU6V6", "current_trial": 97, "dateTime": 1509137259747, "trialdata": {"rt": -1, "stimulus": "<p id=\"stim\">PLAZA</p>", "key_press": -1, "type": "PRES_VIS", "word": "plaza", "wordID": 1087, "conditions": [12, 800, "v", 12000], "trial": 2, "serialpos": 8, "trial_type": "single-stim", "trial_index": 97, "time_elapsed": 488628, "internal_node_id": "0.0-70.0"}}, {"uniqueid": "MTK0090:3OS46CRSLG6FNG87EK3AQPKM5YU6V6", "current_trial": 98, "dateTime": 1509137261357, "trialdata": {"rt": -1, "stimulus": "<p id=\"stim\">TURKEY</p>", "key_press": -1, "type": "PRES_VIS", "word": "turkey", "wordID": 1519, "conditions": [12, 800, "v", 12000], "trial": 2, "serialpos": 9, "trial_type": "single-stim", "trial_index": 98, "time_elapsed": 490239, "internal_node_id": "0.0-71.0"}}, {"uniqueid": "MTK0090:3OS46CRSLG6FNG87EK3AQPKM5YU6V6", "current_trial": 99, "dateTime": 1509137263009, "trialdata": {"rt": -1, "stimulus": "<p id=\"stim\">MOTEL</p>", "key_press": -1, "type": "PRES_VIS", "word": "motel", "wordID": 918, "conditions": [12, 800, "v", 12000], "trial": 2, "serialpos": 10, "trial_type": "single-stim", "trial_index": 99, "time_elapsed": 491890, "internal_node_id": "0.0-72.0"}}, {"uniqueid": "MTK0090:3OS46CRSLG6FNG87EK3AQPKM5YU6V6", "current_trial": 100, "dateTime": 1509137264808, "trialdata": {"rt": -1, "stimulus": "<p id=\"stim\">SPOON</p>", "key_press": -1, "type": "PRES_VIS", "word": "spoon", "wordID": 1356, "conditions": [12, 800, "v", 12000], "trial": 2, "serialpos": 11, "trial_type": "single-stim", "trial_index": 100, "time_elapsed": 493690, "internal_node_id": "0.0-73.0"}}, {"uniqueid": "MTK0090:3OS46CRSLG6FNG87EK3AQPKM5YU6V6", "current_trial": 101, "dateTime": 1509137266934, "trialdata": {"rt": -1, "stimulus": "", "key_press": -1, "type": "PRE_RECALL_DELAY", "trial_type": "single-stim", "trial_index": 101, "time_elapsed": 495815, "internal_node_id": "0.0-74.0-0.0"}}, {"uniqueid": "MTK0090:3OS46CRSLG6FNG87EK3AQPKM5YU6V6", "current_trial": 102, "dateTime": 1509137267438, "trialdata": {"rt": -1000, "stimulus": "/static/audio/400Hz.wav", "key_press": -1, "type": "PRE_RECALL_ALERT", "trial_type": "single-audio", "trial_index": 102, "time_elapsed": 496320, "internal_node_id": "0.0-75.0"}}, {"uniqueid": "MTK0090:3OS46CRSLG6FNG87EK3AQPKM5YU6V6", "current_trial": 103, "dateTime": 1509137327445, "trialdata": {"rt": [4174, 5660, 8974, 12635, 15005, 20129, 22355, 27785, 30395, 35000], "recwords": ["spoon", "motel", "turkey", "sudewakj", "swimmer", "kleenex", "lady", "knapsack", "diver", "plaza"], "type": "FREE_RECALL", "conditions": [12, 800, "v", 12000], "trial": 2, "trial_type": "free-recall", "trial_index": 103, "time_elapsed": 556324, "internal_node_id": "0.0-76.0-0.0"}}, {"uniqueid": "MTK0090:3OS46CRSLG6FNG87EK3AQPKM5YU6V6", "current_trial": 104, "dateTime": 1509137331573, "trialdata": {"rt": 2126, "key_press": 32, "type": "INSTRUCTIONS", "trial_type": "text", "trial_index": 104, "time_elapsed": 560455, "internal_node_id": "0.0-77.0"}}, {"uniqueid": "MTK0090:3OS46CRSLG6FNG87EK3AQPKM5YU6V6", "current_trial": 105, "dateTime": 1509137357578, "trialdata": {"rt": [9322, 16432, 21277], "responses": ["18", "22", "20"], "num1": [5, 7, 8, 2], "num2": [4, 6, 3, 5], "num3": [9, 9, 9, 4], "type": "DISTRACTOR", "conditions": [24, 800, "a", 24000], "trial": 3, "trial_type": "math-distractor", "trial_index": 105, "time_elapsed": 586459, "internal_node_id": "0.0-78.0"}}, {"uniqueid": "MTK0090:3OS46CRSLG6FNG87EK3AQPKM5YU6V6", "current_trial": 106, "dateTime": 1509137360587, "trialdata": {"rt": -1, "stimulus": "<p id=\"stim\">10</p>", "key_press": -1, "trial_type": "single-stim", "trial_index": 106, "time_elapsed": 589469, "internal_node_id": "0.0-79.0-0.0"}}, {"uniqueid": "MTK0090:3OS46CRSLG6FNG87EK3AQPKM5YU6V6", "current_trial": 107, "dateTime": 1509137361589, "trialdata": {"rt": -1, "stimulus": "<p id=\"stim\">9</p>", "key_press": -1, "trial_type": "single-stim", "trial_index": 107, "time_elapsed": 590470, "internal_node_id": "0.0-79.0-1.0"}}, {"uniqueid": "MTK0090:3OS46CRSLG6FNG87EK3AQPKM5YU6V6", "current_trial": 108, "dateTime": 1509137362590, "trialdata": {"rt": -1, "stimulus": "<p id=\"stim\">8</p>", "key_press": -1, "trial_type": "single-stim", "trial_index": 108, "time_elapsed": 591472, "internal_node_id": "0.0-79.0-2.0"}}, {"uniqueid": "MTK0090:3OS46CRSLG6FNG87EK3AQPKM5YU6V6", "current_trial": 109, "dateTime": 1509137363591, "trialdata": {"rt": -1, "stimulus": "<p id=\"stim\">7</p>", "key_press": -1, "trial_type": "single-stim", "trial_index": 109, "time_elapsed": 592473, "internal_node_id": "0.0-79.0-3.0"}}, {"uniqueid": "MTK0090:3OS46CRSLG6FNG87EK3AQPKM5YU6V6", "current_trial": 110, "dateTime": 1509137364593, "trialdata": {"rt": -1, "stimulus": "<p id=\"stim\">6</p>", "key_press": -1, "trial_type": "single-stim", "trial_index": 110, "time_elapsed": 593475, "internal_node_id": "0.0-79.0-4.0"}}, {"uniqueid": "MTK0090:3OS46CRSLG6FNG87EK3AQPKM5YU6V6", "current_trial": 111, "dateTime": 1509137365594, "trialdata": {"rt": -1, "stimulus": "<p id=\"stim\">5</p>", "key_press": -1, "trial_type": "single-stim", "trial_index": 111, "time_elapsed": 594476, "internal_node_id": "0.0-79.0-5.0"}}, {"uniqueid": "MTK0090:3OS46CRSLG6FNG87EK3AQPKM5YU6V6", "current_trial": 112, "dateTime": 1509137366596, "trialdata": {"rt": -1, "stimulus": "<p id=\"stim\">4</p>", "key_press": -1, "trial_type": "single-stim", "trial_index": 112, "time_elapsed": 595478, "internal_node_id": "0.0-79.0-6.0"}}, {"uniqueid": "MTK0090:3OS46CRSLG6FNG87EK3AQPKM5YU6V6", "current_trial": 113, "dateTime": 1509137367598, "trialdata": {"rt": -1, "stimulus": "<p id=\"stim\">3</p>", "key_press": -1, "trial_type": "single-stim", "trial_index": 113, "time_elapsed": 596479, "internal_node_id": "0.0-79.0-7.0"}}, {"uniqueid": "MTK0090:3OS46CRSLG6FNG87EK3AQPKM5YU6V6", "current_trial": 114, "dateTime": 1509137368601, "trialdata": {"rt": -1, "stimulus": "<p id=\"stim\">2</p>", "key_press": -1, "trial_type": "single-stim", "trial_index": 114, "time_elapsed": 597483, "internal_node_id": "0.0-79.0-8.0"}}, {"uniqueid": "MTK0090:3OS46CRSLG6FNG87EK3AQPKM5YU6V6", "current_trial": 115, "dateTime": 1509137369605, "trialdata": {"rt": -1, "stimulus": "<p id=\"stim\">1</p>", "key_press": -1, "trial_type": "single-stim", "trial_index": 115, "time_elapsed": 598487, "internal_node_id": "0.0-79.0-9.0"}}, {"uniqueid": "MTK0090:3OS46CRSLG6FNG87EK3AQPKM5YU6V6", "current_trial": 116, "dateTime": 1509137371107, "trialdata": {"rt": -1, "stimulus": "<p id=\"stim\">+</p>", "key_press": -1, "type": "FIXATION", "trial_type": "single-stim", "trial_index": 116, "time_elapsed": 599989, "internal_node_id": "0.0-80.0-0.0"}}, {"uniqueid": "MTK0090:3OS46CRSLG6FNG87EK3AQPKM5YU6V6", "current_trial": 117, "dateTime": 1509137372827, "trialdata": {"rt": -1000, "stimulus": "/static/audio/wordpool/ONION.wav", "key_press": -1, "type": "PRES_AUD", "word": "onion", "wordID": 976, "conditions": [24, 800, "a", 24000], "trial": 3, "serialpos": 0, "trial_type": "single-audio", "trial_index": 117, "time_elapsed": 601709, "internal_node_id": "0.0-81.0"}}, {"uniqueid": "MTK0090:3OS46CRSLG6FNG87EK3AQPKM5YU6V6", "current_trial": 118, "dateTime": 1509137374661, "trialdata": {"rt": -1000, "stimulus": "/static/audio/wordpool/SHORTS.wav", "key_press": -1, "type": "PRES_AUD", "word": "shorts", "wordID": 1292, "conditions": [24, 800, "a", 24000], "trial": 3, "serialpos": 1, "trial_type": "single-audio", "trial_index": 118, "time_elapsed": 603543, "internal_node_id": "0.0-82.0"}}, {"uniqueid": "MTK0090:3OS46CRSLG6FNG87EK3AQPKM5YU6V6", "current_trial": 119, "dateTime": 1509137376277, "trialdata": {"rt": -1000, "stimulus": "/static/audio/wordpool/DUSTPAN.wav", "key_press": -1, "type": "PRES_AUD", "word": "dustpan", "wordID": 508, "conditions": [24, 800, "a", 24000], "trial": 3, "serialpos": 2, "trial_type": "single-audio", "trial_index": 119, "time_elapsed": 605158, "internal_node_id": "0.0-83.0"}}, {"uniqueid": "MTK0090:3OS46CRSLG6FNG87EK3AQPKM5YU6V6", "current_trial": 120, "dateTime": 1509137377885, "trialdata": {"rt": -1000, "stimulus": "/static/audio/wordpool/SHRUB.wav", "key_press": -1, "type": "PRES_AUD", "word": "shrub", "wordID": 1298, "conditions": [24, 800, "a", 24000], "trial": 3, "serialpos": 3, "trial_type": "single-audio", "trial_index": 120, "time_elapsed": 606767, "internal_node_id": "0.0-84.0"}}, {"uniqueid": "MTK0090:3OS46CRSLG6FNG87EK3AQPKM5YU6V6", "current_trial": 121, "dateTime": 1509137379706, "trialdata": {"rt": -1000, "stimulus": "/static/audio/wordpool/CANDY.wav", "key_press": -1, "type": "PRES_AUD", "word": "candy", "wordID": 229, "conditions": [24, 800, "a", 24000], "trial": 3, "serialpos": 4, "trial_type": "single-audio", "trial_index": 121, "time_elapsed": 608587, "internal_node_id": "0.0-85.0"}}, {"uniqueid": "MTK0090:3OS46CRSLG6FNG87EK3AQPKM5YU6V6", "current_trial": 122, "dateTime": 1509137381708, "trialdata": {"rt": -1000, "stimulus": "/static/audio/wordpool/LETTUCE.wav", "key_press": -1, "type": "PRES_AUD", "word": "lettuce", "wordID": 813, "conditions": [24, 800, "a", 24000], "trial": 3, "serialpos": 5, "trial_type": "single-audio", "trial_index": 122, "time_elapsed": 610590, "internal_node_id": "0.0-86.0"}}, {"uniqueid": "MTK0090:3OS46CRSLG6FNG87EK3AQPKM5YU6V6", "current_trial": 123, "dateTime": 1509137383583, "trialdata": {"rt": -1000, "stimulus": "/static/audio/wordpool/FRUIT.wav", "key_press": -1, "type": "PRES_AUD", "word": "fruit", "wordID": 609, "conditions": [24, 800, "a", 24000], "trial": 3, "serialpos": 6, "trial_type": "single-audio", "trial_index": 123, "time_elapsed": 612465, "internal_node_id": "0.0-87.0"}}, {"uniqueid": "MTK0090:3OS46CRSLG6FNG87EK3AQPKM5YU6V6", "current_trial": 124, "dateTime": 1509137385476, "trialdata": {"rt": -1000, "stimulus": "/static/audio/wordpool/COOKBOOK.wav", "key_press": -1, "type": "PRES_AUD", "word": "cookbook", "wordID": 372, "conditions": [24, 800, "a", 24000], "trial": 3, "serialpos": 7, "trial_type": "single-audio", "trial_index": 124, "time_elapsed": 614358, "internal_node_id": "0.0-88.0"}}, {"uniqueid": "MTK0090:3OS46CRSLG6FNG87EK3AQPKM5YU6V6", "current_trial": 125, "dateTime": 1509137387438, "trialdata": {"rt": -1000, "stimulus": "/static/audio/wordpool/GARDEN.wav", "key_press": -1, "type": "PRES_AUD", "word": "garden", "wordID": 622, "conditions": [24, 800, "a", 24000], "trial": 3, "serialpos": 8, "trial_type": "single-audio", "trial_index": 125, "time_elapsed": 616320, "internal_node_id": "0.0-89.0"}}, {"uniqueid": "MTK0090:3OS46CRSLG6FNG87EK3AQPKM5YU6V6", "current_trial": 126, "dateTime": 1509137389400, "trialdata": {"rt": -1000, "stimulus": "/static/audio/wordpool/CABBAGE.wav", "key_press": -1, "type": "PRES_AUD", "word": "cabbage", "wordID": 209, "conditions": [24, 800, "a", 24000], "trial": 3, "serialpos": 9, "trial_type": "single-audio", "trial_index": 126, "time_elapsed": 618282, "internal_node_id": "0.0-90.0"}}, {"uniqueid": "MTK0090:3OS46CRSLG6FNG87EK3AQPKM5YU6V6", "current_trial": 127, "dateTime": 1509137391043, "trialdata": {"rt": -1000, "stimulus": "/static/audio/wordpool/ORCHID.wav", "key_press": -1, "type": "PRES_AUD", "word": "orchid", "wordID": 981, "conditions": [24, 800, "a", 24000], "trial": 3, "serialpos": 10, "trial_type": "single-audio", "trial_index": 127, "time_elapsed": 619925, "internal_node_id": "0.0-91.0"}}, {"uniqueid": "MTK0090:3OS46CRSLG6FNG87EK3AQPKM5YU6V6", "current_trial": 128, "dateTime": 1509137392854, "trialdata": {"rt": -1000, "stimulus": "/static/audio/wordpool/TWISTER.wav", "key_press": -1, "type": "PRES_AUD", "word": "twister", "wordID": 1529, "conditions": [24, 800, "a", 24000], "trial": 3, "serialpos": 11, "trial_type": "single-audio", "trial_index": 128, "time_elapsed": 621736, "internal_node_id": "0.0-92.0"}}, {"uniqueid": "MTK0090:3OS46CRSLG6FNG87EK3AQPKM5YU6V6", "current_trial": 129, "dateTime": 1509137394823, "trialdata": {"rt": -1000, "stimulus": "/static/audio/wordpool/BUNNY.wav", "key_press": -1, "type": "PRES_AUD", "word": "bunny", "wordID": 197, "conditions": [24, 800, "a", 24000], "trial": 3, "serialpos": 12, "trial_type": "single-audio", "trial_index": 129, "time_elapsed": 623705, "internal_node_id": "0.0-93.0"}}, {"uniqueid": "MTK0090:3OS46CRSLG6FNG87EK3AQPKM5YU6V6", "current_trial": 130, "dateTime": 1509137396592, "trialdata": {"rt": -1000, "stimulus": "/static/audio/wordpool/TUBA.wav", "key_press": -1, "type": "PRES_AUD", "word": "tuba", "wordID": 1514, "conditions": [24, 800, "a", 24000], "trial": 3, "serialpos": 13, "trial_type": "single-audio", "trial_index": 130, "time_elapsed": 625474, "internal_node_id": "0.0-94.0"}}, {"uniqueid": "MTK0090:3OS46CRSLG6FNG87EK3AQPKM5YU6V6", "current_trial": 131, "dateTime": 1509137398444, "trialdata": {"rt": -1000, "stimulus": "/static/audio/wordpool/LIPSTICK.wav", "key_press": -1, "type": "PRES_AUD", "word": "lipstick", "wordID": 828, "conditions": [24, 800, "a", 24000], "trial": 3, "serialpos": 14, "trial_type": "single-audio", "trial_index": 131, "time_elapsed": 627326, "internal_node_id": "0.0-95.0"}}, {"uniqueid": "MTK0090:3OS46CRSLG6FNG87EK3AQPKM5YU6V6", "current_trial": 132, "dateTime": 1509137400296, "trialdata": {"rt": -1000, "stimulus": "/static/audio/wordpool/ULCER.wav", "key_press": -1, "type": "PRES_AUD", "word": "ulcer", "wordID": 1532, "conditions": [24, 800, "a", 24000], "trial": 3, "serialpos": 15, "trial_type": "single-audio", "trial_index": 132, "time_elapsed": 629178, "internal_node_id": "0.0-96.0"}}, {"uniqueid": "MTK0090:3OS46CRSLG6FNG87EK3AQPKM5YU6V6", "current_trial": 133, "dateTime": 1509137402066, "trialdata": {"rt": -1000, "stimulus": "/static/audio/wordpool/PENGUIN.wav", "key_press": -1, "type": "PRES_AUD", "word": "penguin", "wordID": 1043, "conditions": [24, 800, "a", 24000], "trial": 3, "serialpos": 16, "trial_type": "single-audio", "trial_index": 133, "time_elapsed": 630948, "internal_node_id": "0.0-97.0"}}, {"uniqueid": "MTK0090:3OS46CRSLG6FNG87EK3AQPKM5YU6V6", "current_trial": 134, "dateTime": 1509137403756, "trialdata": {"rt": -1000, "stimulus": "/static/audio/wordpool/PISTON.wav", "key_press": -1, "type": "PRES_AUD", "word": "piston", "wordID": 1075, "conditions": [24, 800, "a", 24000], "trial": 3, "serialpos": 17, "trial_type": "single-audio", "trial_index": 134, "time_elapsed": 632637, "internal_node_id": "0.0-98.0"}}, {"uniqueid": "MTK0090:3OS46CRSLG6FNG87EK3AQPKM5YU6V6", "current_trial": 135, "dateTime": 1509137405497, "trialdata": {"rt": -1000, "stimulus": "/static/audio/wordpool/ITEM.wav", "key_press": -1, "type": "PRES_AUD", "word": "item", "wordID": 745, "conditions": [24, 800, "a", 24000], "trial": 3, "serialpos": 18, "trial_type": "single-audio", "trial_index": 135, "time_elapsed": 634379, "internal_node_id": "0.0-99.0"}}, {"uniqueid": "MTK0090:3OS46CRSLG6FNG87EK3AQPKM5YU6V6", "current_trial": 136, "dateTime": 1509137407389, "trialdata": {"rt": -1000, "stimulus": "/static/audio/wordpool/ANTLER.wav", "key_press": -1, "type": "PRES_AUD", "word": "antler", "wordID": 28, "conditions": [24, 800, "a", 24000], "trial": 3, "serialpos": 19, "trial_type": "single-audio", "trial_index": 136, "time_elapsed": 636271, "internal_node_id": "0.0-100.0"}}, {"uniqueid": "MTK0090:3OS46CRSLG6FNG87EK3AQPKM5YU6V6", "current_trial": 137, "dateTime": 1509137409318, "trialdata": {"rt": -1000, "stimulus": "/static/audio/wordpool/AIRPLANE.wav", "key_press": -1, "type": "PRES_AUD", "word": "airplane", "wordID": 11, "conditions": [24, 800, "a", 24000], "trial": 3, "serialpos": 20, "trial_type": "single-audio", "trial_index": 137, "time_elapsed": 638200, "internal_node_id": "0.0-101.0"}}, {"uniqueid": "MTK0090:3OS46CRSLG6FNG87EK3AQPKM5YU6V6", "current_trial": 138, "dateTime": 1509137411260, "trialdata": {"rt": -1000, "stimulus": "/static/audio/wordpool/SALT.wav", "key_press": -1, "type": "PRES_AUD", "word": "salt", "wordID": 1228, "conditions": [24, 800, "a", 24000], "trial": 3, "serialpos": 21, "trial_type": "single-audio", "trial_index": 138, "time_elapsed": 640142, "internal_node_id": "0.0-102.0"}}, {"uniqueid": "MTK0090:3OS46CRSLG6FNG87EK3AQPKM5YU6V6", "current_trial": 139, "dateTime": 1509137413153, "trialdata": {"rt": -1000, "stimulus": "/static/audio/wordpool/KNIFE.wav", "key_press": -1, "type": "PRES_AUD", "word": "knife", "wordID": 784, "conditions": [24, 800, "a", 24000], "trial": 3, "serialpos": 22, "trial_type": "single-audio", "trial_index": 139, "time_elapsed": 642035, "internal_node_id": "0.0-103.0"}}, {"uniqueid": "MTK0090:3OS46CRSLG6FNG87EK3AQPKM5YU6V6", "current_trial": 140, "dateTime": 1509137415023, "trialdata": {"rt": -1000, "stimulus": "/static/audio/wordpool/PISTOL.wav", "key_press": -1, "type": "PRES_AUD", "word": "pistol", "wordID": 1074, "conditions": [24, 800, "a", 24000], "trial": 3, "serialpos": 23, "trial_type": "single-audio", "trial_index": 140, "time_elapsed": 643905, "internal_node_id": "0.0-104.0"}}, {"uniqueid": "MTK0090:3OS46CRSLG6FNG87EK3AQPKM5YU6V6", "current_trial": 141, "dateTime": 1509137416254, "trialdata": {"rt": -1, "stimulus": "", "key_press": -1, "type": "PRE_RECALL_DELAY", "trial_type": "single-stim", "trial_index": 141, "time_elapsed": 645136, "internal_node_id": "0.0-105.0-0.0"}}, {"uniqueid": "MTK0090:3OS46CRSLG6FNG87EK3AQPKM5YU6V6", "current_trial": 142, "dateTime": 1509137416758, "trialdata": {"rt": -1000, "stimulus": "/static/audio/400Hz.wav", "key_press": -1, "type": "PRE_RECALL_ALERT", "trial_type": "single-audio", "trial_index": 142, "time_elapsed": 645640, "internal_node_id": "0.0-106.0"}}, {"uniqueid": "MTK0090:3OS46CRSLG6FNG87EK3AQPKM5YU6V6", "current_trial": 143, "dateTime": 1509137476768, "trialdata": {"rt": [4082, 5852, 7652, 15062, 17267, 19983, 23013, 24903, 27243, 29413, 31939, 34533, 39979, 41824, 44539, 49655, 54050, 59404], "recwords": ["pistol", "salt", "knife", "airplane", "onion", "shorts", "bunny", "orchid", "garden", "cabbage", "cookbook", "lettuce", "cookbook", "garden", "lettuce", "parsley", "candy", "tuba"], "type": "FREE_RECALL", "conditions": [24, 800, "a", 24000], "trial": 3, "trial_type": "free-recall", "trial_index": 143, "time_elapsed": 705647, "internal_node_id": "0.0-107.0-0.0"}}, {"uniqueid": "MTK0090:3OS46CRSLG6FNG87EK3AQPKM5YU6V6", "current_trial": 144, "dateTime": 1509137479166, "trialdata": {"rt": 395, "key_press": 65, "type": "INSTRUCTIONS", "trial_type": "text", "trial_index": 144, "time_elapsed": 708048, "internal_node_id": "0.0-108.0"}}, {"uniqueid": "MTK0090:3OS46CRSLG6FNG87EK3AQPKM5YU6V6", "current_trial": 145, "dateTime": 1509137505172, "trialdata": {"rt": [3276, 11991, 16686, 21052], "responses": ["12", "15", "17", "14"], "num1": [6, 3, 6, 2, 2], "num2": [5, 8, 9, 4, 4], "num3": [1, 4, 2, 8, 2], "type": "DISTRACTOR", "conditions": [12, 1600, "a", 24000], "trial": 4, "trial_type": "math-distractor", "trial_index": 145, "time_elapsed": 734054, "internal_node_id": "0.0-109.0"}}, {"uniqueid": "MTK0090:3OS46CRSLG6FNG87EK3AQPKM5YU6V6", "current_trial": 146, "dateTime": 1509137508182, "trialdata": {"rt": -1, "stimulus": "<p id=\"stim\">10</p>", "key_press": -1, "trial_type": "single-stim", "trial_index": 146, "time_elapsed": 737063, "internal_node_id": "0.0-110.0-0.0"}}, {"uniqueid": "MTK0090:3OS46CRSLG6FNG87EK3AQPKM5YU6V6", "current_trial": 147, "dateTime": 1509137509186, "trialdata": {"rt": -1, "stimulus": "<p id=\"stim\">9</p>", "key_press": -1, "trial_type": "single-stim", "trial_index": 147, "time_elapsed": 738067, "internal_node_id": "0.0-110.0-1.0"}}, {"uniqueid": "MTK0090:3OS46CRSLG6FNG87EK3AQPKM5YU6V6", "current_trial": 148, "dateTime": 1509137510190, "trialdata": {"rt": -1, "stimulus": "<p id=\"stim\">8</p>", "key_press": -1, "trial_type": "single-stim", "trial_index": 148, "time_elapsed": 739072, "internal_node_id": "0.0-110.0-2.0"}}, {"uniqueid": "MTK0090:3OS46CRSLG6FNG87EK3AQPKM5YU6V6", "current_trial": 149, "dateTime": 1509137511194, "trialdata": {"rt": -1, "stimulus": "<p id=\"stim\">7</p>", "key_press": -1, "trial_type": "single-stim", "trial_index": 149, "time_elapsed": 740076, "internal_node_id": "0.0-110.0-3.0"}}, {"uniqueid": "MTK0090:3OS46CRSLG6FNG87EK3AQPKM5YU6V6", "current_trial": 150, "dateTime": 1509137512199, "trialdata": {"rt": -1, "stimulus": "<p id=\"stim\">6</p>", "key_press": -1, "trial_type": "single-stim", "trial_index": 150, "time_elapsed": 741080, "internal_node_id": "0.0-110.0-4.0"}}, {"uniqueid": "MTK0090:3OS46CRSLG6FNG87EK3AQPKM5YU6V6", "current_trial": 151, "dateTime": 1509137513202, "trialdata": {"rt": -1, "stimulus": "<p id=\"stim\">5</p>", "key_press": -1, "trial_type": "single-stim", "trial_index": 151, "time_elapsed": 742083, "internal_node_id": "0.0-110.0-5.0"}}, {"uniqueid": "MTK0090:3OS46CRSLG6FNG87EK3AQPKM5YU6V6", "current_trial": 152, "dateTime": 1509137514207, "trialdata": {"rt": -1, "stimulus": "<p id=\"stim\">4</p>", "key_press": -1, "trial_type": "single-stim", "trial_index": 152, "time_elapsed": 743089, "internal_node_id": "0.0-110.0-6.0"}}, {"uniqueid": "MTK0090:3OS46CRSLG6FNG87EK3AQPKM5YU6V6", "current_trial": 153, "dateTime": 1509137515212, "trialdata": {"rt": -1, "stimulus": "<p id=\"stim\">3</p>", "key_press": -1, "trial_type": "single-stim", "trial_index": 153, "time_elapsed": 744093, "internal_node_id": "0.0-110.0-7.0"}}, {"uniqueid": "MTK0090:3OS46CRSLG6FNG87EK3AQPKM5YU6V6", "current_trial": 154, "dateTime": 1509137516215, "trialdata": {"rt": -1, "stimulus": "<p id=\"stim\">2</p>", "key_press": -1, "trial_type": "single-stim", "trial_index": 154, "time_elapsed": 745097, "internal_node_id": "0.0-110.0-8.0"}}, {"uniqueid": "MTK0090:3OS46CRSLG6FNG87EK3AQPKM5YU6V6", "current_trial": 155, "dateTime": 1509137517219, "trialdata": {"rt": -1, "stimulus": "<p id=\"stim\">1</p>", "key_press": -1, "trial_type": "single-stim", "trial_index": 155, "time_elapsed": 746101, "internal_node_id": "0.0-110.0-9.0"}}, {"uniqueid": "MTK0090:3OS46CRSLG6FNG87EK3AQPKM5YU6V6", "current_trial": 156, "dateTime": 1509137518723, "trialdata": {"rt": -1, "stimulus": "<p id=\"stim\">+</p>", "key_press": -1, "type": "FIXATION", "trial_type": "single-stim", "trial_index": 156, "time_elapsed": 747605, "internal_node_id": "0.0-111.0-0.0"}}, {"uniqueid": "MTK0090:3OS46CRSLG6FNG87EK3AQPKM5YU6V6", "current_trial": 157, "dateTime": 1509137521476, "trialdata": {"rt": -1000, "stimulus": "/static/audio/wordpool/FILM.wav", "key_press": -1, "type": "PRES_AUD", "word": "film", "wordID": 564, "conditions": [12, 1600, "a", 24000], "trial": 4, "serialpos": 0, "trial_type": "single-audio", "trial_index": 157, "time_elapsed": 750357, "internal_node_id": "0.0-112.0"}}, {"uniqueid": "MTK0090:3OS46CRSLG6FNG87EK3AQPKM5YU6V6", "current_trial": 158, "dateTime": 1509137524157, "trialdata": {"rt": -1000, "stimulus": "/static/audio/wordpool/JURY.wav", "key_press": -1, "type": "PRES_AUD", "word": "jury", "wordID": 765, "conditions": [12, 1600, "a", 24000], "trial": 4, "serialpos": 1, "trial_type": "single-audio", "trial_index": 158, "time_elapsed": 753038, "internal_node_id": "0.0-113.0"}}, {"uniqueid": "MTK0090:3OS46CRSLG6FNG87EK3AQPKM5YU6V6", "current_trial": 159, "dateTime": 1509137526931, "trialdata": {"rt": -1000, "stimulus": "/static/audio/wordpool/RABBIT.wav", "key_press": -1, "type": "PRES_AUD", "word": "rabbit", "wordID": 1151, "conditions": [12, 1600, "a", 24000], "trial": 4, "serialpos": 2, "trial_type": "single-audio", "trial_index": 159, "time_elapsed": 755813, "internal_node_id": "0.0-114.0"}}, {"uniqueid": "MTK0090:3OS46CRSLG6FNG87EK3AQPKM5YU6V6", "current_trial": 160, "dateTime": 1509137529616, "trialdata": {"rt": -1000, "stimulus": "/static/audio/wordpool/CUSTARD.wav", "key_press": -1, "type": "PRES_AUD", "word": "custard", "wordID": 428, "conditions": [12, 1600, "a", 24000], "trial": 4, "serialpos": 3, "trial_type": "single-audio", "trial_index": 160, "time_elapsed": 758497, "internal_node_id": "0.0-115.0"}}, {"uniqueid": "MTK0090:3OS46CRSLG6FNG87EK3AQPKM5YU6V6", "current_trial": 161, "dateTime": 1509137532242, "trialdata": {"rt": -1000, "stimulus": "/static/audio/wordpool/MUFFIN.wav", "key_press": -1, "type": "PRES_AUD", "word": "muffin", "wordID": 928, "conditions": [12, 1600, "a", 24000], "trial": 4, "serialpos": 4, "trial_type": "single-audio", "trial_index": 161, "time_elapsed": 761124, "internal_node_id": "0.0-116.0"}}, {"uniqueid": "MTK0090:3OS46CRSLG6FNG87EK3AQPKM5YU6V6", "current_trial": 162, "dateTime": 1509137534803, "trialdata": {"rt": -1000, "stimulus": "/static/audio/wordpool/CRITIC.wav", "key_press": -1, "type": "PRES_AUD", "word": "critic", "wordID": 409, "conditions": [12, 1600, "a", 24000], "trial": 4, "serialpos": 5, "trial_type": "single-audio", "trial_index": 162, "time_elapsed": 763685, "internal_node_id": "0.0-117.0"}}, {"uniqueid": "MTK0090:3OS46CRSLG6FNG87EK3AQPKM5YU6V6", "current_trial": 163, "dateTime": 1509137537496, "trialdata": {"rt": -1000, "stimulus": "/static/audio/wordpool/FRAGRANCE.wav", "key_press": -1, "type": "PRES_AUD", "word": "fragrance", "wordID": 598, "conditions": [12, 1600, "a", 24000], "trial": 4, "serialpos": 6, "trial_type": "single-audio", "trial_index": 163, "time_elapsed": 766378, "internal_node_id": "0.0-118.0"}}, {"uniqueid": "MTK0090:3OS46CRSLG6FNG87EK3AQPKM5YU6V6", "current_trial": 164, "dateTime": 1509137539905, "trialdata": {"rt": -1000, "stimulus": "/static/audio/wordpool/QUAIL.wav", "key_press": -1, "type": "PRES_AUD", "word": "quail", "wordID": 1146, "conditions": [12, 1600, "a", 24000], "trial": 4, "serialpos": 7, "trial_type": "single-audio", "trial_index": 164, "time_elapsed": 768787, "internal_node_id": "0.0-119.0"}}, {"uniqueid": "MTK0090:3OS46CRSLG6FNG87EK3AQPKM5YU6V6", "current_trial": 165, "dateTime": 1509137542610, "trialdata": {"rt": -1000, "stimulus": "/static/audio/wordpool/COMET.wav", "key_press": -1, "type": "PRES_AUD", "word": "comet", "wordID": 352, "conditions": [12, 1600, "a", 24000], "trial": 4, "serialpos": 8, "trial_type": "single-audio", "trial_index": 165, "time_elapsed": 771492, "internal_node_id": "0.0-120.0"}}, {"uniqueid": "MTK0090:3OS46CRSLG6FNG87EK3AQPKM5YU6V6", "current_trial": 166, "dateTime": 1509137545402, "trialdata": {"rt": -1000, "stimulus": "/static/audio/wordpool/SPONGE.wav", "key_press": -1, "type": "PRES_AUD", "word": "sponge", "wordID": 1354, "conditions": [12, 1600, "a", 24000], "trial": 4, "serialpos": 9, "trial_type": "single-audio", "trial_index": 166, "time_elapsed": 774284, "internal_node_id": "0.0-121.0"}}, {"uniqueid": "MTK0090:3OS46CRSLG6FNG87EK3AQPKM5YU6V6", "current_trial": 167, "dateTime": 1509137548018, "trialdata": {"rt": -1000, "stimulus": "/static/audio/wordpool/PERFUME.wav", "key_press": -1, "type": "PRES_AUD", "word": "perfume", "wordID": 1048, "conditions": [12, 1600, "a", 24000], "trial": 4, "serialpos": 10, "trial_type": "single-audio", "trial_index": 167, "time_elapsed": 776899, "internal_node_id": "0.0-122.0"}}, {"uniqueid": "MTK0090:3OS46CRSLG6FNG87EK3AQPKM5YU6V6", "current_trial": 168, "dateTime": 1509137550430, "trialdata": {"rt": -1000, "stimulus": "/static/audio/wordpool/CASHIER.wav", "key_press": -1, "type": "PRES_AUD", "word": "cashier", "wordID": 253, "conditions": [12, 1600, "a", 24000], "trial": 4, "serialpos": 11, "trial_type": "single-audio", "trial_index": 168, "time_elapsed": 779312, "internal_node_id": "0.0-123.0"}}, {"uniqueid": "MTK0090:3OS46CRSLG6FNG87EK3AQPKM5YU6V6", "current_trial": 169, "dateTime": 1509137551701, "trialdata": {"rt": -1, "stimulus": "", "key_press": -1, "type": "PRE_RECALL_DELAY", "trial_type": "single-stim", "trial_index": 169, "time_elapsed": 780583, "internal_node_id": "0.0-124.0-0.0"}}, {"uniqueid": "MTK0090:3OS46CRSLG6FNG87EK3AQPKM5YU6V6", "current_trial": 170, "dateTime": 1509137552203, "trialdata": {"rt": -1000, "stimulus": "/static/audio/400Hz.wav", "key_press": -1, "type": "PRE_RECALL_ALERT", "trial_type": "single-audio", "trial_index": 170, "time_elapsed": 781085, "internal_node_id": "0.0-125.0"}}, {"uniqueid": "MTK0090:3OS46CRSLG6FNG87EK3AQPKM5YU6V6", "current_trial": 171, "dateTime": 1509137612210, "trialdata": {"rt": [3599, 6419, 8219, 10200, 15285, 18090, 21915, 24780, 26160, 29566, 34951, 38446, 47491], "recwords": ["cashier", "perfume", "comet", "sponge", "quail", "film", "custard", "muffin", "critic", "fragrance", "rabbit", "jury", "custard"], "type": "FREE_RECALL", "conditions": [12, 1600, "a", 24000], "trial": 4, "trial_type": "free-recall", "trial_index": 171, "time_elapsed": 841089, "internal_node_id": "0.0-126.0-0.0"}}, {"uniqueid": "MTK0090:3OS46CRSLG6FNG87EK3AQPKM5YU6V6", "current_trial": 172, "dateTime": 1509137616019, "trialdata": {"rt": 1808, "key_press": 32, "type": "INSTRUCTIONS", "trial_type": "text", "trial_index": 172, "time_elapsed": 844900, "internal_node_id": "0.0-127.0"}}, {"uniqueid": "MTK0090:3OS46CRSLG6FNG87EK3AQPKM5YU6V6", "current_trial": 173, "dateTime": 1509137630028, "trialdata": {"rt": [2898], "responses": ["15"], "num1": [7, 6], "num2": [1, 9], "num3": [7, 4], "type": "DISTRACTOR", "conditions": [24, 1600, "v", 12000], "trial": 5, "trial_type": "math-distractor", "trial_index": 173, "time_elapsed": 858910, "internal_node_id": "0.0-128.0"}}, {"uniqueid": "MTK0090:3OS46CRSLG6FNG87EK3AQPKM5YU6V6", "current_trial": 174, "dateTime": 1509137633030, "trialdata": {"rt": -1, "stimulus": "<p id=\"stim\">10</p>", "key_press": -1, "trial_type": "single-stim", "trial_index": 174, "time_elapsed": 861912, "internal_node_id": "0.0-129.0-0.0"}}, {"uniqueid": "MTK0090:3OS46CRSLG6FNG87EK3AQPKM5YU6V6", "current_trial": 175, "dateTime": 1509137634033, "trialdata": {"rt": -1, "stimulus": "<p id=\"stim\">9</p>", "key_press": -1, "trial_type": "single-stim", "trial_index": 175, "time_elapsed": 862915, "internal_node_id": "0.0-129.0-1.0"}}, {"uniqueid": "MTK0090:3OS46CRSLG6FNG87EK3AQPKM5YU6V6", "current_trial": 176, "dateTime": 1509137635036, "trialdata": {"rt": -1, "stimulus": "<p id=\"stim\">8</p>", "key_press": -1, "trial_type": "single-stim", "trial_index": 176, "time_elapsed": 863918, "internal_node_id": "0.0-129.0-2.0"}}, {"uniqueid": "MTK0090:3OS46CRSLG6FNG87EK3AQPKM5YU6V6", "current_trial": 177, "dateTime": 1509137636038, "trialdata": {"rt": -1, "stimulus": "<p id=\"stim\">7</p>", "key_press": -1, "trial_type": "single-stim", "trial_index": 177, "time_elapsed": 864919, "internal_node_id": "0.0-129.0-3.0"}}, {"uniqueid": "MTK0090:3OS46CRSLG6FNG87EK3AQPKM5YU6V6", "current_trial": 178, "dateTime": 1509137637039, "trialdata": {"rt": -1, "stimulus": "<p id=\"stim\">6</p>", "key_press": -1, "trial_type": "single-stim", "trial_index": 178, "time_elapsed": 865921, "internal_node_id": "0.0-129.0-4.0"}}, {"uniqueid": "MTK0090:3OS46CRSLG6FNG87EK3AQPKM5YU6V6", "current_trial": 179, "dateTime": 1509137638044, "trialdata": {"rt": -1, "stimulus": "<p id=\"stim\">5</p>", "key_press": -1, "trial_type": "single-stim", "trial_index": 179, "time_elapsed": 866926, "internal_node_id": "0.0-129.0-5.0"}}, {"uniqueid": "MTK0090:3OS46CRSLG6FNG87EK3AQPKM5YU6V6", "current_trial": 180, "dateTime": 1509137639047, "trialdata": {"rt": -1, "stimulus": "<p id=\"stim\">4</p>", "key_press": -1, "trial_type": "single-stim", "trial_index": 180, "time_elapsed": 867928, "internal_node_id": "0.0-129.0-6.0"}}, {"uniqueid": "MTK0090:3OS46CRSLG6FNG87EK3AQPKM5YU6V6", "current_trial": 181, "dateTime": 1509137640053, "trialdata": {"rt": -1, "stimulus": "<p id=\"stim\">3</p>", "key_press": -1, "trial_type": "single-stim", "trial_index": 181, "time_elapsed": 868935, "internal_node_id": "0.0-129.0-7.0"}}, {"uniqueid": "MTK0090:3OS46CRSLG6FNG87EK3AQPKM5YU6V6", "current_trial": 182, "dateTime": 1509137641057, "trialdata": {"rt": -1, "stimulus": "<p id=\"stim\">2</p>", "key_press": -1, "trial_type": "single-stim", "trial_index": 182, "time_elapsed": 869939, "internal_node_id": "0.0-129.0-8.0"}}, {"uniqueid": "MTK0090:3OS46CRSLG6FNG87EK3AQPKM5YU6V6", "current_trial": 183, "dateTime": 1509137642062, "trialdata": {"rt": -1, "stimulus": "<p id=\"stim\">1</p>", "key_press": -1, "trial_type": "single-stim", "trial_index": 183, "time_elapsed": 870943, "internal_node_id": "0.0-129.0-9.0"}}, {"uniqueid": "MTK0090:3OS46CRSLG6FNG87EK3AQPKM5YU6V6", "current_trial": 184, "dateTime": 1509137643565, "trialdata": {"rt": -1, "stimulus": "<p id=\"stim\">+</p>", "key_press": -1, "type": "FIXATION", "trial_type": "single-stim", "trial_index": 184, "time_elapsed": 872447, "internal_node_id": "0.0-130.0-0.0"}}, {"uniqueid": "MTK0090:3OS46CRSLG6FNG87EK3AQPKM5YU6V6", "current_trial": 185, "dateTime": 1509137645167, "trialdata": {"rt": -1, "stimulus": "<p id=\"stim\">PEACH</p>", "key_press": -1, "type": "PRES_VIS", "word": "peach", "wordID": 1030, "conditions": [24, 1600, "v", 12000], "trial": 5, "serialpos": 0, "trial_type": "single-stim", "trial_index": 185, "time_elapsed": 874049, "internal_node_id": "0.0-131.0"}}, {"uniqueid": "MTK0090:3OS46CRSLG6FNG87EK3AQPKM5YU6V6", "current_trial": 186, "dateTime": 1509137647628, "trialdata": {"rt": -1, "stimulus": "<p id=\"stim\">CRATER</p>", "key_press": -1, "type": "PRES_VIS", "word": "crater", "wordID": 399, "conditions": [24, 1600, "v", 12000], "trial": 5, "serialpos": 1, "trial_type": "single-stim", "trial_index": 186, "time_elapsed": 876510, "internal_node_id": "0.0-132.0"}}, {"uniqueid": "MTK0090:3OS46CRSLG6FNG87EK3AQPKM5YU6V6", "current_trial": 187, "dateTime": 1509137650102, "trialdata": {"rt": -1, "stimulus": "<p id=\"stim\">LAVA</p>", "key_press": -1, "type": "PRES_VIS", "word": "lava", "wordID": 803, "conditions": [24, 1600, "v", 12000], "trial": 5, "serialpos": 2, "trial_type": "single-stim", "trial_index": 187, "time_elapsed": 878983, "internal_node_id": "0.0-133.0"}}, {"uniqueid": "MTK0090:3OS46CRSLG6FNG87EK3AQPKM5YU6V6", "current_trial": 188, "dateTime": 1509137652804, "trialdata": {"rt": -1, "stimulus": "<p id=\"stim\">APPLE</p>", "key_press": -1, "type": "PRES_VIS", "word": "apple", "wordID": 32, "conditions": [24, 1600, "v", 12000], "trial": 5, "serialpos": 3, "trial_type": "single-stim", "trial_index": 188, "time_elapsed": 881686, "internal_node_id": "0.0-134.0"}}, {"uniqueid": "MTK0090:3OS46CRSLG6FNG87EK3AQPKM5YU6V6", "current_trial": 189, "dateTime": 1509137655361, "trialdata": {"rt": -1, "stimulus": "<p id=\"stim\">GIRL</p>", "key_press": -1, "type": "PRES_VIS", "word": "girl", "wordID": 636, "conditions": [24, 1600, "v", 12000], "trial": 5, "serialpos": 4, "trial_type": "single-stim", "trial_index": 189, "time_elapsed": 884242, "internal_node_id": "0.0-135.0"}}, {"uniqueid": "MTK0090:3OS46CRSLG6FNG87EK3AQPKM5YU6V6", "current_trial": 190, "dateTime": 1509137657939, "trialdata": {"rt": -1, "stimulus": "<p id=\"stim\">STICKER</p>", "key_press": -1, "type": "PRES_VIS", "word": "sticker", "wordID": 1381, "conditions": [24, 1600, "v", 12000], "trial": 5, "serialpos": 5, "trial_type": "single-stim", "trial_index": 190, "time_elapsed": 886820, "internal_node_id": "0.0-136.0"}}, {"uniqueid": "MTK0090:3OS46CRSLG6FNG87EK3AQPKM5YU6V6", "current_trial": 191, "dateTime": 1509137660428, "trialdata": {"rt": -1, "stimulus": "<p id=\"stim\">TRACTOR</p>", "key_press": -1, "type": "PRES_VIS", "word": "tractor", "wordID": 1492, "conditions": [24, 1600, "v", 12000], "trial": 5, "serialpos": 6, "trial_type": "single-stim", "trial_index": 191, "time_elapsed": 889310, "internal_node_id": "0.0-137.0"}}, {"uniqueid": "MTK0090:3OS46CRSLG6FNG87EK3AQPKM5YU6V6", "current_trial": 192, "dateTime": 1509137663151, "trialdata": {"rt": -1, "stimulus": "<p id=\"stim\">STONE</p>", "key_press": -1, "type": "PRES_VIS", "word": "stone", "wordID": 1384, "conditions": [24, 1600, "v", 12000], "trial": 5, "serialpos": 7, "trial_type": "single-stim", "trial_index": 192, "time_elapsed": 892033, "internal_node_id": "0.0-138.0"}}, {"uniqueid": "MTK0090:3OS46CRSLG6FNG87EK3AQPKM5YU6V6", "current_trial": 193, "dateTime": 1509137665565, "trialdata": {"rt": -1, "stimulus": "<p id=\"stim\">SOFTBALL</p>", "key_press": -1, "type": "PRES_VIS", "word": "softball", "wordID": 1342, "conditions": [24, 1600, "v", 12000], "trial": 5, "serialpos": 8, "trial_type": "single-stim", "trial_index": 193, "time_elapsed": 894447, "internal_node_id": "0.0-139.0"}}, {"uniqueid": "MTK0090:3OS46CRSLG6FNG87EK3AQPKM5YU6V6", "current_trial": 194, "dateTime": 1509137668219, "trialdata": {"rt": -1, "stimulus": "<p id=\"stim\">MESSAGE</p>", "key_press": -1, "type": "PRES_VIS", "word": "message", "wordID": 887, "conditions": [24, 1600, "v", 12000], "trial": 5, "serialpos": 9, "trial_type": "single-stim", "trial_index": 194, "time_elapsed": 897100, "internal_node_id": "0.0-140.0"}}, {"uniqueid": "MTK0090:3OS46CRSLG6FNG87EK3AQPKM5YU6V6", "current_trial": 195, "dateTime": 1509137670825, "trialdata": {"rt": -1, "stimulus": "<p id=\"stim\">SUSPECT</p>", "key_press": -1, "type": "PRES_VIS", "word": "suspect", "wordID": 1414, "conditions": [24, 1600, "v", 12000], "trial": 5, "serialpos": 10, "trial_type": "single-stim", "trial_index": 195, "time_elapsed": 899707, "internal_node_id": "0.0-141.0"}}, {"uniqueid": "MTK0090:3OS46CRSLG6FNG87EK3AQPKM5YU6V6", "current_trial": 196, "dateTime": 1509137673451, "trialdata": {"rt": -1, "stimulus": "<p id=\"stim\">BLOUSE</p>", "key_press": -1, "type": "PRES_VIS", "word": "blouse", "wordID": 138, "conditions": [24, 1600, "v", 12000], "trial": 5, "serialpos": 11, "trial_type": "single-stim", "trial_index": 196, "time_elapsed": 902333, "internal_node_id": "0.0-142.0"}}, {"uniqueid": "MTK0090:3OS46CRSLG6FNG87EK3AQPKM5YU6V6", "current_trial": 197, "dateTime": 1509137675939, "trialdata": {"rt": -1, "stimulus": "<p id=\"stim\">MAILBOX</p>", "key_press": -1, "type": "PRES_VIS", "word": "mailbox", "wordID": 856, "conditions": [24, 1600, "v", 12000], "trial": 5, "serialpos": 12, "trial_type": "single-stim", "trial_index": 197, "time_elapsed": 904821, "internal_node_id": "0.0-143.0"}}, {"uniqueid": "MTK0090:3OS46CRSLG6FNG87EK3AQPKM5YU6V6", "current_trial": 198, "dateTime": 1509137678592, "trialdata": {"rt": -1, "stimulus": "<p id=\"stim\">THIEF</p>", "key_press": -1, "type": "PRES_VIS", "word": "thief", "wordID": 1455, "conditions": [24, 1600, "v", 12000], "trial": 5, "serialpos": 13, "trial_type": "single-stim", "trial_index": 198, "time_elapsed": 907474, "internal_node_id": "0.0-144.0"}}, {"uniqueid": "MTK0090:3OS46CRSLG6FNG87EK3AQPKM5YU6V6", "current_trial": 199, "dateTime": 1509137681355, "trialdata": {"rt": -1, "stimulus": "<p id=\"stim\">BURGLAR</p>", "key_press": -1, "type": "PRES_VIS", "word": "burglar", "wordID": 199, "conditions": [24, 1600, "v", 12000], "trial": 5, "serialpos": 14, "trial_type": "single-stim", "trial_index": 199, "time_elapsed": 910237, "internal_node_id": "0.0-145.0"}}, {"uniqueid": "MTK0090:3OS46CRSLG6FNG87EK3AQPKM5YU6V6", "current_trial": 200, "dateTime": 1509137684019, "trialdata": {"rt": -1, "stimulus": "<p id=\"stim\">CAMEL</p>", "key_press": -1, "type": "PRES_VIS", "word": "camel", "wordID": 222, "conditions": [24, 1600, "v", 12000], "trial": 5, "serialpos": 15, "trial_type": "single-stim", "trial_index": 200, "time_elapsed": 912901, "internal_node_id": "0.0-146.0"}}, {"uniqueid": "MTK0090:3OS46CRSLG6FNG87EK3AQPKM5YU6V6", "current_trial": 201, "dateTime": 1509137686671, "trialdata": {"rt": -1, "stimulus": "<p id=\"stim\">PEANUT</p>", "key_press": -1, "type": "PRES_VIS", "word": "peanut", "wordID": 1031, "conditions": [24, 1600, "v", 12000], "trial": 5, "serialpos": 16, "trial_type": "single-stim", "trial_index": 201, "time_elapsed": 915553, "internal_node_id": "0.0-147.0"}}, {"uniqueid": "MTK0090:3OS46CRSLG6FNG87EK3AQPKM5YU6V6", "current_trial": 202, "dateTime": 1509137689152, "trialdata": {"rt": -1, "stimulus": "<p id=\"stim\">INFANT</p>", "key_press": -1, "type": "PRES_VIS", "word": "infant", "wordID": 736, "conditions": [24, 1600, "v", 12000], "trial": 5, "serialpos": 17, "trial_type": "single-stim", "trial_index": 202, "time_elapsed": 918033, "internal_node_id": "0.0-148.0"}}, {"uniqueid": "MTK0090:3OS46CRSLG6FNG87EK3AQPKM5YU6V6", "current_trial": 203, "dateTime": 1509137691839, "trialdata": {"rt": -1, "stimulus": "<p id=\"stim\">RACKET</p>", "key_press": -1, "type": "PRES_VIS", "word": "racket", "wordID": 1154, "conditions": [24, 1600, "v", 12000], "trial": 5, "serialpos": 18, "trial_type": "single-stim", "trial_index": 203, "time_elapsed": 920721, "internal_node_id": "0.0-149.0"}}, {"uniqueid": "MTK0090:3OS46CRSLG6FNG87EK3AQPKM5YU6V6", "current_trial": 204, "dateTime": 1509137694619, "trialdata": {"rt": -1, "stimulus": "<p id=\"stim\">DONKEY</p>", "key_press": -1, "type": "PRES_VIS", "word": "donkey", "wordID": 483, "conditions": [24, 1600, "v", 12000], "trial": 5, "serialpos": 19, "trial_type": "single-stim", "trial_index": 204, "time_elapsed": 923501, "internal_node_id": "0.0-150.0"}}, {"uniqueid": "MTK0090:3OS46CRSLG6FNG87EK3AQPKM5YU6V6", "current_trial": 205, "dateTime": 1509137697197, "trialdata": {"rt": -1, "stimulus": "<p id=\"stim\">FRAME</p>", "key_press": -1, "type": "PRES_VIS", "word": "frame", "wordID": 599, "conditions": [24, 1600, "v", 12000], "trial": 5, "serialpos": 20, "trial_type": "single-stim", "trial_index": 205, "time_elapsed": 926079, "internal_node_id": "0.0-151.0"}}, {"uniqueid": "MTK0090:3OS46CRSLG6FNG87EK3AQPKM5YU6V6", "current_trial": 206, "dateTime": 1509137699675, "trialdata": {"rt": -1, "stimulus": "<p id=\"stim\">NOTEBOOK</p>", "key_press": -1, "type": "PRES_VIS", "word": "notebook", "wordID": 958, "conditions": [24, 1600, "v", 12000], "trial": 5, "serialpos": 21, "trial_type": "single-stim", "trial_index": 206, "time_elapsed": 928557, "internal_node_id": "0.0-152.0"}}, {"uniqueid": "MTK0090:3OS46CRSLG6FNG87EK3AQPKM5YU6V6", "current_trial": 207, "dateTime": 1509137702226, "trialdata": {"rt": -1, "stimulus": "<p id=\"stim\">SURVEY</p>", "key_press": -1, "type": "PRES_VIS", "word": "survey", "wordID": 1413, "conditions": [24, 1600, "v", 12000], "trial": 5, "serialpos": 22, "trial_type": "single-stim", "trial_index": 207, "time_elapsed": 931108, "internal_node_id": "0.0-153.0"}}, {"uniqueid": "MTK0090:3OS46CRSLG6FNG87EK3AQPKM5YU6V6", "current_trial": 208, "dateTime": 1509137704709, "trialdata": {"rt": -1, "stimulus": "<p id=\"stim\">MATCH</p>", "key_press": -1, "type": "PRES_VIS", "word": "match", "wordID": 877, "conditions": [24, 1600, "v", 12000], "trial": 5, "serialpos": 23, "trial_type": "single-stim", "trial_index": 208, "time_elapsed": 933591, "internal_node_id": "0.0-154.0"}}, {"uniqueid": "MTK0090:3OS46CRSLG6FNG87EK3AQPKM5YU6V6", "current_trial": 209, "dateTime": 1509137707071, "trialdata": {"rt": -1, "stimulus": "", "key_press": -1, "type": "PRE_RECALL_DELAY", "trial_type": "single-stim", "trial_index": 209, "time_elapsed": 935953, "internal_node_id": "0.0-155.0-0.0"}}, {"uniqueid": "MTK0090:3OS46CRSLG6FNG87EK3AQPKM5YU6V6", "current_trial": 210, "dateTime": 1509137707573, "trialdata": {"rt": -1000, "stimulus": "/static/audio/400Hz.wav", "key_press": -1, "type": "PRE_RECALL_ALERT", "trial_type": "single-audio", "trial_index": 210, "time_elapsed": 936455, "internal_node_id": "0.0-156.0"}}, {"uniqueid": "MTK0090:3OS46CRSLG6FNG87EK3AQPKM5YU6V6", "current_trial": 211, "dateTime": 1509137767579, "trialdata": {"rt": [2693, 4388, 7688, 10599, 13658, 15474, 17048, 19344, 22044, 25419, 27309, 30445, 31779, 35454, 37135, 40660, 44155, 47321, 49525, 52016, 56576], "recwords": ["match", "survey", "notebook", "donkey", "infant", "peach", "apple", "water", "lava", "apple", "girl", "softball", "stone", "suspect", "thief", "burgular", "suspect", "mailbox", "blouse", "camel", "racket"], "type": "FREE_RECALL", "conditions": [24, 1600, "v", 12000], "trial": 5, "trial_type": "free-recall", "trial_index": 211, "time_elapsed": 996458, "internal_node_id": "0.0-157.0-0.0"}}, {"uniqueid": "MTK0090:3OS46CRSLG6FNG87EK3AQPKM5YU6V6", "current_trial": 212, "dateTime": 1509137771967, "trialdata": {"rt": 2387, "key_press": 67, "type": "INSTRUCTIONS", "trial_type": "text", "trial_index": 212, "time_elapsed": 1000849, "internal_node_id": "0.0-158.0"}}, {"uniqueid": "MTK0090:3OS46CRSLG6FNG87EK3AQPKM5YU6V6", "current_trial": 213, "dateTime": 1509137785978, "trialdata": {"rt": [4232, 7847], "responses": ["19", "9"], "num1": [5, 1, 5], "num2": [8, 4, 4], "num3": [4, 4, 7], "type": "DISTRACTOR", "conditions": [12, 800, "a", 12000], "trial": 6, "trial_type": "math-distractor", "trial_index": 213, "time_elapsed": 1014860, "internal_node_id": "0.0-159.0"}}, {"uniqueid": "MTK0090:3OS46CRSLG6FNG87EK3AQPKM5YU6V6", "current_trial": 214, "dateTime": 1509137788985, "trialdata": {"rt": -1, "stimulus": "<p id=\"stim\">10</p>", "key_press": -1, "trial_type": "single-stim", "trial_index": 214, "time_elapsed": 1017867, "internal_node_id": "0.0-160.0-0.0"}}, {"uniqueid": "MTK0090:3OS46CRSLG6FNG87EK3AQPKM5YU6V6", "current_trial": 215, "dateTime": 1509137789989, "trialdata": {"rt": -1, "stimulus": "<p id=\"stim\">9</p>", "key_press": -1, "trial_type": "single-stim", "trial_index": 215, "time_elapsed": 1018871, "internal_node_id": "0.0-160.0-1.0"}}, {"uniqueid": "MTK0090:3OS46CRSLG6FNG87EK3AQPKM5YU6V6", "current_trial": 216, "dateTime": 1509137790993, "trialdata": {"rt": -1, "stimulus": "<p id=\"stim\">8</p>", "key_press": -1, "trial_type": "single-stim", "trial_index": 216, "time_elapsed": 1019875, "internal_node_id": "0.0-160.0-2.0"}}, {"uniqueid": "MTK0090:3OS46CRSLG6FNG87EK3AQPKM5YU6V6", "current_trial": 217, "dateTime": 1509137791997, "trialdata": {"rt": -1, "stimulus": "<p id=\"stim\">7</p>", "key_press": -1, "trial_type": "single-stim", "trial_index": 217, "time_elapsed": 1020879, "internal_node_id": "0.0-160.0-3.0"}}, {"uniqueid": "MTK0090:3OS46CRSLG6FNG87EK3AQPKM5YU6V6", "current_trial": 218, "dateTime": 1509137793002, "trialdata": {"rt": -1, "stimulus": "<p id=\"stim\">6</p>", "key_press": -1, "trial_type": "single-stim", "trial_index": 218, "time_elapsed": 1021884, "internal_node_id": "0.0-160.0-4.0"}}, {"uniqueid": "MTK0090:3OS46CRSLG6FNG87EK3AQPKM5YU6V6", "current_trial": 219, "dateTime": 1509137794005, "trialdata": {"rt": -1, "stimulus": "<p id=\"stim\">5</p>", "key_press": -1, "trial_type": "single-stim", "trial_index": 219, "time_elapsed": 1022887, "internal_node_id": "0.0-160.0-5.0"}}, {"uniqueid": "MTK0090:3OS46CRSLG6FNG87EK3AQPKM5YU6V6", "current_trial": 220, "dateTime": 1509137795005, "trialdata": {"rt": -1, "stimulus": "<p id=\"stim\">4</p>", "key_press": -1, "trial_type": "single-stim", "trial_index": 220, "time_elapsed": 1023887, "internal_node_id": "0.0-160.0-6.0"}}, {"uniqueid": "MTK0090:3OS46CRSLG6FNG87EK3AQPKM5YU6V6", "current_trial": 221, "dateTime": 1509137796009, "trialdata": {"rt": -1, "stimulus": "<p id=\"stim\">3</p>", "key_press": -1, "trial_type": "single-stim", "trial_index": 221, "time_elapsed": 1024890, "internal_node_id": "0.0-160.0-7.0"}}, {"uniqueid": "MTK0090:3OS46CRSLG6FNG87EK3AQPKM5YU6V6", "current_trial": 222, "dateTime": 1509137797013, "trialdata": {"rt": -1, "stimulus": "<p id=\"stim\">2</p>", "key_press": -1, "trial_type": "single-stim", "trial_index": 222, "time_elapsed": 1025895, "internal_node_id": "0.0-160.0-8.0"}}, {"uniqueid": "MTK0090:3OS46CRSLG6FNG87EK3AQPKM5YU6V6", "current_trial": 223, "dateTime": 1509137798017, "trialdata": {"rt": -1, "stimulus": "<p id=\"stim\">1</p>", "key_press": -1, "trial_type": "single-stim", "trial_index": 223, "time_elapsed": 1026899, "internal_node_id": "0.0-160.0-9.0"}}, {"uniqueid": "MTK0090:3OS46CRSLG6FNG87EK3AQPKM5YU6V6", "current_trial": 224, "dateTime": 1509137799521, "trialdata": {"rt": -1, "stimulus": "<p id=\"stim\">+</p>", "key_press": -1, "type": "FIXATION", "trial_type": "single-stim", "trial_index": 224, "time_elapsed": 1028402, "internal_node_id": "0.0-161.0-0.0"}}, {"uniqueid": "MTK0090:3OS46CRSLG6FNG87EK3AQPKM5YU6V6", "current_trial": 225, "dateTime": 1509137801221, "trialdata": {"rt": -1000, "stimulus": "/static/audio/wordpool/APRON.wav", "key_press": -1, "type": "PRES_AUD", "word": "apron", "wordID": 34, "conditions": [12, 800, "a", 12000], "trial": 6, "serialpos": 0, "trial_type": "single-audio", "trial_index": 225, "time_elapsed": 1030103, "internal_node_id": "0.0-162.0"}}, {"uniqueid": "MTK0090:3OS46CRSLG6FNG87EK3AQPKM5YU6V6", "current_trial": 226, "dateTime": 1509137803021, "trialdata": {"rt": -1000, "stimulus": "/static/audio/wordpool/LUGGAGE.wav", "key_press": -1, "type": "PRES_AUD", "word": "luggage", "wordID": 846, "conditions": [12, 800, "a", 12000], "trial": 6, "serialpos": 1, "trial_type": "single-audio", "trial_index": 226, "time_elapsed": 1031903, "internal_node_id": "0.0-163.0"}}, {"uniqueid": "MTK0090:3OS46CRSLG6FNG87EK3AQPKM5YU6V6", "current_trial": 227, "dateTime": 1509137804890, "trialdata": {"rt": -1000, "stimulus": "/static/audio/wordpool/RIFLE.wav", "key_press": -1, "type": "PRES_AUD", "word": "rifle", "wordID": 1191, "conditions": [12, 800, "a", 12000], "trial": 6, "serialpos": 2, "trial_type": "single-audio", "trial_index": 227, "time_elapsed": 1033772, "internal_node_id": "0.0-164.0"}}, {"uniqueid": "MTK0090:3OS46CRSLG6FNG87EK3AQPKM5YU6V6", "current_trial": 228, "dateTime": 1509137806672, "trialdata": {"rt": -1000, "stimulus": "/static/audio/wordpool/SHOULDER.wav", "key_press": -1, "type": "PRES_AUD", "word": "shoulder", "wordID": 1293, "conditions": [12, 800, "a", 12000], "trial": 6, "serialpos": 3, "trial_type": "single-audio", "trial_index": 228, "time_elapsed": 1035554, "internal_node_id": "0.0-165.0"}}, {"uniqueid": "MTK0090:3OS46CRSLG6FNG87EK3AQPKM5YU6V6", "current_trial": 229, "dateTime": 1509137808426, "trialdata": {"rt": -1000, "stimulus": "/static/audio/wordpool/ARM.wav", "key_press": -1, "type": "PRES_AUD", "word": "arm", "wordID": 37, "conditions": [12, 800, "a", 12000], "trial": 6, "serialpos": 4, "trial_type": "single-audio", "trial_index": 229, "time_elapsed": 1037308, "internal_node_id": "0.0-166.0"}}, {"uniqueid": "MTK0090:3OS46CRSLG6FNG87EK3AQPKM5YU6V6", "current_trial": 230, "dateTime": 1509137810062, "trialdata": {"rt": -1000, "stimulus": "/static/audio/wordpool/BALLOON.wav", "key_press": -1, "type": "PRES_AUD", "word": "balloon", "wordID": 74, "conditions": [12, 800, "a", 12000], "trial": 6, "serialpos": 5, "trial_type": "single-audio", "trial_index": 230, "time_elapsed": 1038944, "internal_node_id": "0.0-167.0"}}, {"uniqueid": "MTK0090:3OS46CRSLG6FNG87EK3AQPKM5YU6V6", "current_trial": 231, "dateTime": 1509137812035, "trialdata": {"rt": -1000, "stimulus": "/static/audio/wordpool/PARTNER.wav", "key_press": -1, "type": "PRES_AUD", "word": "partner", "wordID": 1016, "conditions": [12, 800, "a", 12000], "trial": 6, "serialpos": 6, "trial_type": "single-audio", "trial_index": 231, "time_elapsed": 1040917, "internal_node_id": "0.0-168.0"}}, {"uniqueid": "MTK0090:3OS46CRSLG6FNG87EK3AQPKM5YU6V6", "current_trial": 232, "dateTime": 1509137813994, "trialdata": {"rt": -1000, "stimulus": "/static/audio/wordpool/QUEEN.wav", "key_press": -1, "type": "PRES_AUD", "word": "queen", "wordID": 1148, "conditions": [12, 800, "a", 12000], "trial": 6, "serialpos": 7, "trial_type": "single-audio", "trial_index": 232, "time_elapsed": 1042876, "internal_node_id": "0.0-169.0"}}, {"uniqueid": "MTK0090:3OS46CRSLG6FNG87EK3AQPKM5YU6V6", "current_trial": 233, "dateTime": 1509137815920, "trialdata": {"rt": -1000, "stimulus": "/static/audio/wordpool/PEBBLE.wav", "key_press": -1, "type": "PRES_AUD", "word": "pebble", "wordID": 1034, "conditions": [12, 800, "a", 12000], "trial": 6, "serialpos": 8, "trial_type": "single-audio", "trial_index": 233, "time_elapsed": 1044801, "internal_node_id": "0.0-170.0"}}, {"uniqueid": "MTK0090:3OS46CRSLG6FNG87EK3AQPKM5YU6V6", "current_trial": 234, "dateTime": 1509137817545, "trialdata": {"rt": -1000, "stimulus": "/static/audio/wordpool/SHELF.wav", "key_press": -1, "type": "PRES_AUD", "word": "shelf", "wordID": 1279, "conditions": [12, 800, "a", 12000], "trial": 6, "serialpos": 9, "trial_type": "single-audio", "trial_index": 234, "time_elapsed": 1046427, "internal_node_id": "0.0-171.0"}}, {"uniqueid": "MTK0090:3OS46CRSLG6FNG87EK3AQPKM5YU6V6", "current_trial": 235, "dateTime": 1509137819199, "trialdata": {"rt": -1000, "stimulus": "/static/audio/wordpool/TAXI.wav", "key_press": -1, "type": "PRES_AUD", "word": "taxi", "wordID": 1437, "conditions": [12, 800, "a", 12000], "trial": 6, "serialpos": 10, "trial_type": "single-audio", "trial_index": 235, "time_elapsed": 1048081, "internal_node_id": "0.0-172.0"}}, {"uniqueid": "MTK0090:3OS46CRSLG6FNG87EK3AQPKM5YU6V6", "current_trial": 236, "dateTime": 1509137820913, "trialdata": {"rt": -1000, "stimulus": "/static/audio/wordpool/PRINCESS.wav", "key_press": -1, "type": "PRES_AUD", "word": "princess", "wordID": 1124, "conditions": [12, 800, "a", 12000], "trial": 6, "serialpos": 11, "trial_type": "single-audio", "trial_index": 236, "time_elapsed": 1049795, "internal_node_id": "0.0-173.0"}}, {"uniqueid": "MTK0090:3OS46CRSLG6FNG87EK3AQPKM5YU6V6", "current_trial": 237, "dateTime": 1509137822273, "trialdata": {"rt": -1, "stimulus": "", "key_press": -1, "type": "PRE_RECALL_DELAY", "trial_type": "single-stim", "trial_index": 237, "time_elapsed": 1051155, "internal_node_id": "0.0-174.0-0.0"}}, {"uniqueid": "MTK0090:3OS46CRSLG6FNG87EK3AQPKM5YU6V6", "current_trial": 238, "dateTime": 1509137822775, "trialdata": {"rt": -1000, "stimulus": "/static/audio/400Hz.wav", "key_press": -1, "type": "PRE_RECALL_ALERT", "trial_type": "single-audio", "trial_index": 238, "time_elapsed": 1051657, "internal_node_id": "0.0-175.0"}}, {"uniqueid": "MTK0090:3OS46CRSLG6FNG87EK3AQPKM5YU6V6", "current_trial": 239, "dateTime": 1509137882786, "trialdata": {"rt": [3673, 6177, 8008, 11788, 15838, 18328, 19994, 21837, 24133], "recwords": ["shelf", "princess", "queen", "taxi", "apron", "luggage", "arm", "shoulder", "partner"], "type": "FREE_RECALL", "conditions": [12, 800, "a", 12000], "trial": 6, "trial_type": "free-recall", "trial_index": 239, "time_elapsed": 1111664, "internal_node_id": "0.0-176.0-0.0"}}, {"uniqueid": "MTK0090:3OS46CRSLG6FNG87EK3AQPKM5YU6V6", "current_trial": 240, "dateTime": 1509137885824, "trialdata": {"rt": 1033, "key_press": 32, "type": "INSTRUCTIONS", "trial_type": "text", "trial_index": 240, "time_elapsed": 1114705, "internal_node_id": "0.0-177.0"}}, {"uniqueid": "MTK0090:3OS46CRSLG6FNG87EK3AQPKM5YU6V6", "current_trial": 241, "dateTime": 1509137911830, "trialdata": {"rt": [3201, 11166, 14136, 18337], "responses": ["13", "19", "15", "18"], "num1": [6, 8, 6, 9, 1], "num2": [4, 3, 6, 6, 8], "num3": [3, 8, 3, 3, 5], "type": "DISTRACTOR", "conditions": [24, 1600, "v", 24000], "trial": 7, "trial_type": "math-distractor", "trial_index": 241, "time_elapsed": 1140712, "internal_node_id": "0.0-178.0"}}, {"uniqueid": "MTK0090:3OS46CRSLG6FNG87EK3AQPKM5YU6V6", "current_trial": 242, "dateTime": 1509137914832, "trialdata": {"rt": -1, "stimulus": "<p id=\"stim\">10</p>", "key_press": -1, "trial_type": "single-stim", "trial_index": 242, "time_elapsed": 1143714, "internal_node_id": "0.0-179.0-0.0"}}, {"uniqueid": "MTK0090:3OS46CRSLG6FNG87EK3AQPKM5YU6V6", "current_trial": 243, "dateTime": 1509137915835, "trialdata": {"rt": -1, "stimulus": "<p id=\"stim\">9</p>", "key_press": -1, "trial_type": "single-stim", "trial_index": 243, "time_elapsed": 1144717, "internal_node_id": "0.0-179.0-1.0"}}, {"uniqueid": "MTK0090:3OS46CRSLG6FNG87EK3AQPKM5YU6V6", "current_trial": 244, "dateTime": 1509137916839, "trialdata": {"rt": -1, "stimulus": "<p id=\"stim\">8</p>", "key_press": -1, "trial_type": "single-stim", "trial_index": 244, "time_elapsed": 1145721, "internal_node_id": "0.0-179.0-2.0"}}, {"uniqueid": "MTK0090:3OS46CRSLG6FNG87EK3AQPKM5YU6V6", "current_trial": 245, "dateTime": 1509137917843, "trialdata": {"rt": -1, "stimulus": "<p id=\"stim\">7</p>", "key_press": -1, "trial_type": "single-stim", "trial_index": 245, "time_elapsed": 1146725, "internal_node_id": "0.0-179.0-3.0"}}, {"uniqueid": "MTK0090:3OS46CRSLG6FNG87EK3AQPKM5YU6V6", "current_trial": 246, "dateTime": 1509137918844, "trialdata": {"rt": -1, "stimulus": "<p id=\"stim\">6</p>", "key_press": -1, "trial_type": "single-stim", "trial_index": 246, "time_elapsed": 1147726, "internal_node_id": "0.0-179.0-4.0"}}, {"uniqueid": "MTK0090:3OS46CRSLG6FNG87EK3AQPKM5YU6V6", "current_trial": 247, "dateTime": 1509137919846, "trialdata": {"rt": -1, "stimulus": "<p id=\"stim\">5</p>", "key_press": -1, "trial_type": "single-stim", "trial_index": 247, "time_elapsed": 1148728, "internal_node_id": "0.0-179.0-5.0"}}, {"uniqueid": "MTK0090:3OS46CRSLG6FNG87EK3AQPKM5YU6V6", "current_trial": 248, "dateTime": 1509137920849, "trialdata": {"rt": -1, "stimulus": "<p id=\"stim\">4</p>", "key_press": -1, "trial_type": "single-stim", "trial_index": 248, "time_elapsed": 1149731, "internal_node_id": "0.0-179.0-6.0"}}, {"uniqueid": "MTK0090:3OS46CRSLG6FNG87EK3AQPKM5YU6V6", "current_trial": 249, "dateTime": 1509137921850, "trialdata": {"rt": -1, "stimulus": "<p id=\"stim\">3</p>", "key_press": -1, "trial_type": "single-stim", "trial_index": 249, "time_elapsed": 1150732, "internal_node_id": "0.0-179.0-7.0"}}, {"uniqueid": "MTK0090:3OS46CRSLG6FNG87EK3AQPKM5YU6V6", "current_trial": 250, "dateTime": 1509137922852, "trialdata": {"rt": -1, "stimulus": "<p id=\"stim\">2</p>", "key_press": -1, "trial_type": "single-stim", "trial_index": 250, "time_elapsed": 1151734, "internal_node_id": "0.0-179.0-8.0"}}, {"uniqueid": "MTK0090:3OS46CRSLG6FNG87EK3AQPKM5YU6V6", "current_trial": 251, "dateTime": 1509137923855, "trialdata": {"rt": -1, "stimulus": "<p id=\"stim\">1</p>", "key_press": -1, "trial_type": "single-stim", "trial_index": 251, "time_elapsed": 1152737, "internal_node_id": "0.0-179.0-9.0"}}, {"uniqueid": "MTK0090:3OS46CRSLG6FNG87EK3AQPKM5YU6V6", "current_trial": 252, "dateTime": 1509137925361, "trialdata": {"rt": -1, "stimulus": "<p id=\"stim\">+</p>", "key_press": -1, "type": "FIXATION", "trial_type": "single-stim", "trial_index": 252, "time_elapsed": 1154243, "internal_node_id": "0.0-180.0-0.0"}}, {"uniqueid": "MTK0090:3OS46CRSLG6FNG87EK3AQPKM5YU6V6", "current_trial": 253, "dateTime": 1509137926963, "trialdata": {"rt": -1, "stimulus": "<p id=\"stim\">PLIERS</p>", "key_press": -1, "type": "PRES_VIS", "word": "pliers", "wordID": 1088, "conditions": [24, 1600, "v", 24000], "trial": 7, "serialpos": 0, "trial_type": "single-stim", "trial_index": 253, "time_elapsed": 1155845, "internal_node_id": "0.0-181.0"}}, {"uniqueid": "MTK0090:3OS46CRSLG6FNG87EK3AQPKM5YU6V6", "current_trial": 254, "dateTime": 1509137929616, "trialdata": {"rt": -1, "stimulus": "<p id=\"stim\">RAZOR</p>", "key_press": -1, "type": "PRES_VIS", "word": "razor", "wordID": 1170, "conditions": [24, 1600, "v", 24000], "trial": 7, "serialpos": 1, "trial_type": "single-stim", "trial_index": 254, "time_elapsed": 1158498, "internal_node_id": "0.0-182.0"}}, {"uniqueid": "MTK0090:3OS46CRSLG6FNG87EK3AQPKM5YU6V6", "current_trial": 255, "dateTime": 1509137932158, "trialdata": {"rt": -1, "stimulus": "<p id=\"stim\">BANJO</p>", "key_press": -1, "type": "PRES_VIS", "word": "banjo", "wordID": 81, "conditions": [24, 1600, "v", 24000], "trial": 7, "serialpos": 2, "trial_type": "single-stim", "trial_index": 255, "time_elapsed": 1161040, "internal_node_id": "0.0-183.0"}}, {"uniqueid": "MTK0090:3OS46CRSLG6FNG87EK3AQPKM5YU6V6", "current_trial": 256, "dateTime": 1509137934950, "trialdata": {"rt": -1, "stimulus": "<p id=\"stim\">LEOPARD</p>", "key_press": -1, "type": "PRES_VIS", "word": "leopard", "wordID": 811, "conditions": [24, 1600, "v", 24000], "trial": 7, "serialpos": 3, "trial_type": "single-stim", "trial_index": 256, "time_elapsed": 1163831, "internal_node_id": "0.0-184.0"}}, {"uniqueid": "MTK0090:3OS46CRSLG6FNG87EK3AQPKM5YU6V6", "current_trial": 257, "dateTime": 1509137937540, "trialdata": {"rt": -1, "stimulus": "<p id=\"stim\">ROOSTER</p>", "key_press": -1, "type": "PRES_VIS", "word": "rooster", "wordID": 1208, "conditions": [24, 1600, "v", 24000], "trial": 7, "serialpos": 4, "trial_type": "single-stim", "trial_index": 257, "time_elapsed": 1166421, "internal_node_id": "0.0-185.0"}}, {"uniqueid": "MTK0090:3OS46CRSLG6FNG87EK3AQPKM5YU6V6", "current_trial": 258, "dateTime": 1509137940198, "trialdata": {"rt": -1, "stimulus": "<p id=\"stim\">TABLE</p>", "key_press": -1, "type": "PRES_VIS", "word": "table", "wordID": 1425, "conditions": [24, 1600, "v", 24000], "trial": 7, "serialpos": 5, "trial_type": "single-stim", "trial_index": 258, "time_elapsed": 1169080, "internal_node_id": "0.0-186.0"}}, {"uniqueid": "MTK0090:3OS46CRSLG6FNG87EK3AQPKM5YU6V6", "current_trial": 259, "dateTime": 1509137942708, "trialdata": {"rt": -1, "stimulus": "<p id=\"stim\">ELBOW</p>", "key_press": -1, "type": "PRES_VIS", "word": "elbow", "wordID": 519, "conditions": [24, 1600, "v", 24000], "trial": 7, "serialpos": 6, "trial_type": "single-stim", "trial_index": 259, "time_elapsed": 1171589, "internal_node_id": "0.0-187.0"}}, {"uniqueid": "MTK0090:3OS46CRSLG6FNG87EK3AQPKM5YU6V6", "current_trial": 260, "dateTime": 1509137945371, "trialdata": {"rt": -1, "stimulus": "<p id=\"stim\">SCALPEL</p>", "key_press": -1, "type": "PRES_VIS", "word": "scalpel", "wordID": 1242, "conditions": [24, 1600, "v", 24000], "trial": 7, "serialpos": 7, "trial_type": "single-stim", "trial_index": 260, "time_elapsed": 1174252, "internal_node_id": "0.0-188.0"}}, {"uniqueid": "MTK0090:3OS46CRSLG6FNG87EK3AQPKM5YU6V6", "current_trial": 261, "dateTime": 1509137948094, "trialdata": {"rt": -1, "stimulus": "<p id=\"stim\">BRIEFCASE</p>", "key_press": -1, "type": "PRES_VIS", "word": "briefcase", "wordID": 174, "conditions": [24, 1600, "v", 24000], "trial": 7, "serialpos": 8, "trial_type": "single-stim", "trial_index": 261, "time_elapsed": 1176975, "internal_node_id": "0.0-189.0"}}, {"uniqueid": "MTK0090:3OS46CRSLG6FNG87EK3AQPKM5YU6V6", "current_trial": 262, "dateTime": 1509137950752, "trialdata": {"rt": -1, "stimulus": "<p id=\"stim\">POCKET</p>", "key_press": -1, "type": "PRES_VIS", "word": "pocket", "wordID": 1092, "conditions": [24, 1600, "v", 24000], "trial": 7, "serialpos": 9, "trial_type": "single-stim", "trial_index": 262, "time_elapsed": 1179634, "internal_node_id": "0.0-190.0"}}, {"uniqueid": "MTK0090:3OS46CRSLG6FNG87EK3AQPKM5YU6V6", "current_trial": 263, "dateTime": 1509137953399, "trialdata": {"rt": -1, "stimulus": "<p id=\"stim\">BRACES</p>", "key_press": -1, "type": "PRES_VIS", "word": "braces", "wordID": 163, "conditions": [24, 1600, "v", 24000], "trial": 7, "serialpos": 10, "trial_type": "single-stim", "trial_index": 263, "time_elapsed": 1182281, "internal_node_id": "0.0-191.0"}}, {"uniqueid": "MTK0090:3OS46CRSLG6FNG87EK3AQPKM5YU6V6", "current_trial": 264, "dateTime": 1509137955982, "trialdata": {"rt": -1, "stimulus": "<p id=\"stim\">PLATE</p>", "key_press": -1, "type": "PRES_VIS", "word": "plate", "wordID": 1085, "conditions": [24, 1600, "v", 24000], "trial": 7, "serialpos": 11, "trial_type": "single-stim", "trial_index": 264, "time_elapsed": 1184864, "internal_node_id": "0.0-192.0"}}, {"uniqueid": "MTK0090:3OS46CRSLG6FNG87EK3AQPKM5YU6V6", "current_trial": 265, "dateTime": 1509137958399, "trialdata": {"rt": -1, "stimulus": "<p id=\"stim\">DAUGHTER</p>", "key_press": -1, "type": "PRES_VIS", "word": "daughter", "wordID": 441, "conditions": [24, 1600, "v", 24000], "trial": 7, "serialpos": 12, "trial_type": "single-stim", "trial_index": 265, "time_elapsed": 1187280, "internal_node_id": "0.0-193.0"}}, {"uniqueid": "MTK0090:3OS46CRSLG6FNG87EK3AQPKM5YU6V6", "current_trial": 266, "dateTime": 1509137961114, "trialdata": {"rt": -1, "stimulus": "<p id=\"stim\">WAITRESS</p>", "key_press": -1, "type": "PRES_VIS", "word": "waitress", "wordID": 1580, "conditions": [24, 1600, "v", 24000], "trial": 7, "serialpos": 13, "trial_type": "single-stim", "trial_index": 266, "time_elapsed": 1189996, "internal_node_id": "0.0-194.0"}}, {"uniqueid": "MTK0090:3OS46CRSLG6FNG87EK3AQPKM5YU6V6", "current_trial": 267, "dateTime": 1509137963622, "trialdata": {"rt": -1, "stimulus": "<p id=\"stim\">BRANDY</p>", "key_press": -1, "type": "PRES_VIS", "word": "brandy", "wordID": 168, "conditions": [24, 1600, "v", 24000], "trial": 7, "serialpos": 14, "trial_type": "single-stim", "trial_index": 267, "time_elapsed": 1192503, "internal_node_id": "0.0-195.0"}}, {"uniqueid": "MTK0090:3OS46CRSLG6FNG87EK3AQPKM5YU6V6", "current_trial": 268, "dateTime": 1509137966059, "trialdata": {"rt": -1, "stimulus": "<p id=\"stim\">SCOTCH</p>", "key_press": -1, "type": "PRES_VIS", "word": "scotch", "wordID": 1250, "conditions": [24, 1600, "v", 24000], "trial": 7, "serialpos": 15, "trial_type": "single-stim", "trial_index": 268, "time_elapsed": 1194940, "internal_node_id": "0.0-196.0"}}, {"uniqueid": "MTK0090:3OS46CRSLG6FNG87EK3AQPKM5YU6V6", "current_trial": 269, "dateTime": 1509137968719, "trialdata": {"rt": -1, "stimulus": "<p id=\"stim\">PIMPLE</p>", "key_press": -1, "type": "PRES_VIS", "word": "pimple", "wordID": 1070, "conditions": [24, 1600, "v", 24000], "trial": 7, "serialpos": 16, "trial_type": "single-stim", "trial_index": 269, "time_elapsed": 1197600, "internal_node_id": "0.0-197.0"}}, {"uniqueid": "MTK0090:3OS46CRSLG6FNG87EK3AQPKM5YU6V6", "current_trial": 270, "dateTime": 1509137971354, "trialdata": {"rt": -1, "stimulus": "<p id=\"stim\">PADDLE</p>", "key_press": -1, "type": "PRES_VIS", "word": "paddle", "wordID": 999, "conditions": [24, 1600, "v", 24000], "trial": 7, "serialpos": 17, "trial_type": "single-stim", "trial_index": 270, "time_elapsed": 1200235, "internal_node_id": "0.0-198.0"}}, {"uniqueid": "MTK0090:3OS46CRSLG6FNG87EK3AQPKM5YU6V6", "current_trial": 271, "dateTime": 1509137974047, "trialdata": {"rt": -1, "stimulus": "<p id=\"stim\">COLLEGE</p>", "key_press": -1, "type": "PRES_