{"condition": 0, "counterbalance": 1396, "assignmentId": "31QTRG6Q2UK41GLHYRP33OFXMDGPYO", "workerId": "MTK0953", "hitId": "385MDVINFCM23GPPYBXTWBCLMYTWJ8", "currenttrial": 626, "bonus": 0, "data": [{"uniqueid": "MTK0953:31QTRG6Q2UK41GLHYRP33OFXMDGPYO", "current_trial": 0, "dateTime": 1512932628172, "trialdata": {"rt": 2484, "key_press": 75, "type": "INSTRUCTIONS", "trial_type": "text", "trial_index": 0, "time_elapsed": 2488, "internal_node_id": "0.0-0.0"}}, {"uniqueid": "MTK0953:31QTRG6Q2UK41GLHYRP33OFXMDGPYO", "current_trial": 1, "dateTime": 1512932655295, "trialdata": {"rt": 27118, "key_press": 75, "type": "INSTRUCTIONS", "trial_type": "text", "trial_index": 1, "time_elapsed": 29646, "internal_node_id": "0.0-1.0"}}, {"uniqueid": "MTK0953:31QTRG6Q2UK41GLHYRP33OFXMDGPYO", "current_trial": 2, "dateTime": 1512932765472, "trialdata": {"rt": [110161], "responses": ["ocean"], "type": "AUDIO_TEST", "trial_type": "audio-test", "trial_index": 2, "time_elapsed": 139827, "internal_node_id": "0.0-2.0"}}, {"uniqueid": "MTK0953:31QTRG6Q2UK41GLHYRP33OFXMDGPYO", "current_trial": 3, "dateTime": 1512932776144, "trialdata": {"rt": [10665], "responses": ["crystal"], "type": "AUDIO_TEST", "trial_type": "audio-test", "trial_index": 3, "time_elapsed": 150498, "internal_node_id": "0.0-3.0"}}, {"uniqueid": "MTK0953:31QTRG6Q2UK41GLHYRP33OFXMDGPYO", "current_trial": 4, "dateTime": 1512932788873, "trialdata": {"rt": [12725], "responses": ["spice"], "type": "AUDIO_TEST", "trial_type": "audio-test", "trial_index": 4, "time_elapsed": 163228, "internal_node_id": "0.0-4.0"}}, {"uniqueid": "MTK0953:31QTRG6Q2UK41GLHYRP33OFXMDGPYO", "current_trial": 5, "dateTime": 1512932811031, "trialdata": {"rt": 21402, "responses": "{\"Q0\":\"10\",\"Q1\":\"9\",\"Q2\":\"4\"}", "type": "SLEEP_SURVEY", "trial_type": "survey-text", "trial_index": 5, "time_elapsed": 185386, "internal_node_id": "0.0-5.0"}}, {"uniqueid": "MTK0953:31QTRG6Q2UK41GLHYRP33OFXMDGPYO", "current_trial": 6, "dateTime": 1512932869928, "trialdata": {"rt": 57894, "key_press": 70, "type": "INSTRUCTIONS", "trial_type": "text", "trial_index": 6, "time_elapsed": 244283, "internal_node_id": "0.0-6.0"}}, {"uniqueid": "MTK0953:31QTRG6Q2UK41GLHYRP33OFXMDGPYO", "current_trial": 7, "dateTime": 1512932894124, "trialdata": {"rt": 23690, "key_press": 71, "type": "INSTRUCTIONS", "trial_type": "text", "trial_index": 7, "time_elapsed": 268479, "internal_node_id": "0.0-7.0"}}, {"uniqueid": "MTK0953:31QTRG6Q2UK41GLHYRP33OFXMDGPYO", "current_trial": 8, "dateTime": 1512932914558, "trialdata": {"rt": 19930, "key_press": 70, "type": "INSTRUCTIONS", "trial_type": "text", "trial_index": 8, "time_elapsed": 288913, "internal_node_id": "0.0-8.0"}}, {"uniqueid": "MTK0953:31QTRG6Q2UK41GLHYRP33OFXMDGPYO", "current_trial": 9, "dateTime": 1512932933569, "trialdata": {"rt": [4512, 8769, 11518, 14152], "responses": ["15", "15", "12", "18"], "num1": [9, 7, 5, 8, 4], "num2": [2, 2, 2, 2, 5], "num3": [4, 6, 5, 8, 4], "type": "DISTRACTOR", "conditions": [18, 1200, "a", 18000], "trial": 0, "trial_type": "math-distractor", "trial_index": 9, "time_elapsed": 307924, "internal_node_id": "0.0-9.0"}}, {"uniqueid": "MTK0953:31QTRG6Q2UK41GLHYRP33OFXMDGPYO", "current_trial": 10, "dateTime": 1512932936578, "trialdata": {"rt": -1, "stimulus": "<p id=\"stim\">10</p>", "key_press": -1, "trial_type": "single-stim", "trial_index": 10, "time_elapsed": 310933, "internal_node_id": "0.0-10.0-0.0"}}, {"uniqueid": "MTK0953:31QTRG6Q2UK41GLHYRP33OFXMDGPYO", "current_trial": 11, "dateTime": 1512932937582, "trialdata": {"rt": -1, "stimulus": "<p id=\"stim\">9</p>", "key_press": -1, "trial_type": "single-stim", "trial_index": 11, "time_elapsed": 311937, "internal_node_id": "0.0-10.0-1.0"}}, {"uniqueid": "MTK0953:31QTRG6Q2UK41GLHYRP33OFXMDGPYO", "current_trial": 12, "dateTime": 1512932938584, "trialdata": {"rt": -1, "stimulus": "<p id=\"stim\">8</p>", "key_press": -1, "trial_type": "single-stim", "trial_index": 12, "time_elapsed": 312939, "internal_node_id": "0.0-10.0-2.0"}}, {"uniqueid": "MTK0953:31QTRG6Q2UK41GLHYRP33OFXMDGPYO", "current_trial": 13, "dateTime": 1512932939586, "trialdata": {"rt": -1, "stimulus": "<p id=\"stim\">7</p>", "key_press": -1, "trial_type": "single-stim", "trial_index": 13, "time_elapsed": 313941, "internal_node_id": "0.0-10.0-3.0"}}, {"uniqueid": "MTK0953:31QTRG6Q2UK41GLHYRP33OFXMDGPYO", "current_trial": 14, "dateTime": 1512932940591, "trialdata": {"rt": -1, "stimulus": "<p id=\"stim\">6</p>", "key_press": -1, "trial_type": "single-stim", "trial_index": 14, "time_elapsed": 314946, "internal_node_id": "0.0-10.0-4.0"}}, {"uniqueid": "MTK0953:31QTRG6Q2UK41GLHYRP33OFXMDGPYO", "current_trial": 15, "dateTime": 1512932941595, "trialdata": {"rt": -1, "stimulus": "<p id=\"stim\">5</p>", "key_press": -1, "trial_type": "single-stim", "trial_index": 15, "time_elapsed": 315950, "internal_node_id": "0.0-10.0-5.0"}}, {"uniqueid": "MTK0953:31QTRG6Q2UK41GLHYRP33OFXMDGPYO", "current_trial": 16, "dateTime": 1512932942601, "trialdata": {"rt": -1, "stimulus": "<p id=\"stim\">4</p>", "key_press": -1, "trial_type": "single-stim", "trial_index": 16, "time_elapsed": 316956, "internal_node_id": "0.0-10.0-6.0"}}, {"uniqueid": "MTK0953:31QTRG6Q2UK41GLHYRP33OFXMDGPYO", "current_trial": 17, "dateTime": 1512932943607, "trialdata": {"rt": -1, "stimulus": "<p id=\"stim\">3</p>", "key_press": -1, "trial_type": "single-stim", "trial_index": 17, "time_elapsed": 317962, "internal_node_id": "0.0-10.0-7.0"}}, {"uniqueid": "MTK0953:31QTRG6Q2UK41GLHYRP33OFXMDGPYO", "current_trial": 18, "dateTime": 1512932944613, "trialdata": {"rt": -1, "stimulus": "<p id=\"stim\">2</p>", "key_press": -1, "trial_type": "single-stim", "trial_index": 18, "time_elapsed": 318968, "internal_node_id": "0.0-10.0-8.0"}}, {"uniqueid": "MTK0953:31QTRG6Q2UK41GLHYRP33OFXMDGPYO", "current_trial": 19, "dateTime": 1512932945619, "trialdata": {"rt": -1, "stimulus": "<p id=\"stim\">1</p>", "key_press": -1, "trial_type": "single-stim", "trial_index": 19, "time_elapsed": 319974, "internal_node_id": "0.0-10.0-9.0"}}, {"uniqueid": "MTK0953:31QTRG6Q2UK41GLHYRP33OFXMDGPYO", "current_trial": 20, "dateTime": 1512932947121, "trialdata": {"rt": -1, "stimulus": "<p id=\"stim\">+</p>", "key_press": -1, "type": "FIXATION", "trial_type": "single-stim", "trial_index": 20, "time_elapsed": 321476, "internal_node_id": "0.0-11.0-0.0"}}, {"uniqueid": "MTK0953:31QTRG6Q2UK41GLHYRP33OFXMDGPYO", "current_trial": 21, "dateTime": 1512932949318, "trialdata": {"rt": -1000, "stimulus": "/static/audio/wordpool/FRIEND.wav", "key_press": -1, "type": "PRES_AUD", "word": "friend", "wordID": 605, "conditions": [18, 1200, "a", 18000], "trial": 0, "serialpos": 0, "trial_type": "single-audio", "trial_index": 21, "time_elapsed": 323672, "internal_node_id": "0.0-12.0"}}, {"uniqueid": "MTK0953:31QTRG6Q2UK41GLHYRP33OFXMDGPYO", "current_trial": 22, "dateTime": 1512932951373, "trialdata": {"rt": 1757.596371882073, "stimulus": "/static/audio/wordpool/PORTRAIT.wav", "key_press": 175, "type": "PRES_AUD", "word": "portrait", "wordID": 1110, "conditions": [18, 1200, "a", 18000], "trial": 0, "serialpos": 1, "trial_type": "single-audio", "trial_index": 22, "time_elapsed": 325728, "internal_node_id": "0.0-13.0"}}, {"uniqueid": "MTK0953:31QTRG6Q2UK41GLHYRP33OFXMDGPYO", "current_trial": 23, "dateTime": 1512932953732, "trialdata": {"rt": -10.022675736991005, "stimulus": "/static/audio/wordpool/TURNIP.wav", "key_press": 175, "type": "PRES_AUD", "word": "turnip", "wordID": 1520, "conditions": [18, 1200, "a", 18000], "trial": 0, "serialpos": 2, "trial_type": "single-audio", "trial_index": 23, "time_elapsed": 328087, "internal_node_id": "0.0-14.0"}}, {"uniqueid": "MTK0953:31QTRG6Q2UK41GLHYRP33OFXMDGPYO", "current_trial": 24, "dateTime": 1512932956110, "trialdata": {"rt": -1000, "stimulus": "/static/audio/wordpool/DONOR.wav", "key_press": -1, "type": "PRES_AUD", "word": "donor", "wordID": 484, "conditions": [18, 1200, "a", 18000], "trial": 0, "serialpos": 3, "trial_type": "single-audio", "trial_index": 24, "time_elapsed": 330465, "internal_node_id": "0.0-15.0"}}, {"uniqueid": "MTK0953:31QTRG6Q2UK41GLHYRP33OFXMDGPYO", "current_trial": 25, "dateTime": 1512932958286, "trialdata": {"rt": 62.53968253969333, "stimulus": "/static/audio/wordpool/ORCHID.wav", "key_press": 175, "type": "PRES_AUD", "word": "orchid", "wordID": 981, "conditions": [18, 1200, "a", 18000], "trial": 0, "serialpos": 4, "trial_type": "single-audio", "trial_index": 25, "time_elapsed": 332640, "internal_node_id": "0.0-16.0"}}, {"uniqueid": "MTK0953:31QTRG6Q2UK41GLHYRP33OFXMDGPYO", "current_trial": 26, "dateTime": 1512932960485, "trialdata": {"rt": -1000, "stimulus": "/static/audio/wordpool/BUTCHER.wav", "key_press": -1, "type": "PRES_AUD", "word": "butcher", "wordID": 202, "conditions": [18, 1200, "a", 18000], "trial": 0, "serialpos": 5, "trial_type": "single-audio", "trial_index": 26, "time_elapsed": 334840, "internal_node_id": "0.0-17.0"}}, {"uniqueid": "MTK0953:31QTRG6Q2UK41GLHYRP33OFXMDGPYO", "current_trial": 27, "dateTime": 1512932962585, "trialdata": {"rt": -1000, "stimulus": "/static/audio/wordpool/KLEENEX.wav", "key_press": -1, "type": "PRES_AUD", "word": "kleenex", "wordID": 781, "conditions": [18, 1200, "a", 18000], "trial": 0, "serialpos": 6, "trial_type": "single-audio", "trial_index": 27, "time_elapsed": 336940, "internal_node_id": "0.0-18.0"}}, {"uniqueid": "MTK0953:31QTRG6Q2UK41GLHYRP33OFXMDGPYO", "current_trial": 28, "dateTime": 1512932964975, "trialdata": {"rt": -1000, "stimulus": "/static/audio/wordpool/PIZZA.wav", "key_press": -1, "type": "PRES_AUD", "word": "pizza", "wordID": 1078, "conditions": [18, 1200, "a", 18000], "trial": 0, "serialpos": 7, "trial_type": "single-audio", "trial_index": 28, "time_elapsed": 339330, "internal_node_id": "0.0-19.0"}}, {"uniqueid": "MTK0953:31QTRG6Q2UK41GLHYRP33OFXMDGPYO", "current_trial": 29, "dateTime": 1512932967151, "trialdata": {"rt": -1000, "stimulus": "/static/audio/wordpool/CLOTHES.wav", "key_press": -1, "type": "PRES_AUD", "word": "clothes", "wordID": 326, "conditions": [18, 1200, "a", 18000], "trial": 0, "serialpos": 8, "trial_type": "single-audio", "trial_index": 29, "time_elapsed": 341506, "internal_node_id": "0.0-20.0"}}, {"uniqueid": "MTK0953:31QTRG6Q2UK41GLHYRP33OFXMDGPYO", "current_trial": 30, "dateTime": 1512932969298, "trialdata": {"rt": -1000, "stimulus": "/static/audio/wordpool/FINGER.wav", "key_press": -1, "type": "PRES_AUD", "word": "finger", "wordID": 566, "conditions": [18, 1200, "a", 18000], "trial": 0, "serialpos": 9, "trial_type": "single-audio", "trial_index": 30, "time_elapsed": 343652, "internal_node_id": "0.0-21.0"}}, {"uniqueid": "MTK0953:31QTRG6Q2UK41GLHYRP33OFXMDGPYO", "current_trial": 31, "dateTime": 1512932971582, "trialdata": {"rt": -1000, "stimulus": "/static/audio/wordpool/PREACHER.wav", "key_press": -1, "type": "PRES_AUD", "word": "preacher", "wordID": 1118, "conditions": [18, 1200, "a", 18000], "trial": 0, "serialpos": 10, "trial_type": "single-audio", "trial_index": 31, "time_elapsed": 345937, "internal_node_id": "0.0-22.0"}}, {"uniqueid": "MTK0953:31QTRG6Q2UK41GLHYRP33OFXMDGPYO", "current_trial": 32, "dateTime": 1512932973649, "trialdata": {"rt": -1000, "stimulus": "/static/audio/wordpool/BOX.wav", "key_press": -1, "type": "PRES_AUD", "word": "box", "wordID": 158, "conditions": [18, 1200, "a", 18000], "trial": 0, "serialpos": 11, "trial_type": "single-audio", "trial_index": 32, "time_elapsed": 348004, "internal_node_id": "0.0-23.0"}}, {"uniqueid": "MTK0953:31QTRG6Q2UK41GLHYRP33OFXMDGPYO", "current_trial": 33, "dateTime": 1512932975657, "trialdata": {"rt": -1000, "stimulus": "/static/audio/wordpool/DRAGON.wav", "key_press": -1, "type": "PRES_AUD", "word": "dragon", "wordID": 491, "conditions": [18, 1200, "a", 18000], "trial": 0, "serialpos": 12, "trial_type": "single-audio", "trial_index": 33, "time_elapsed": 350011, "internal_node_id": "0.0-24.0"}}, {"uniqueid": "MTK0953:31QTRG6Q2UK41GLHYRP33OFXMDGPYO", "current_trial": 34, "dateTime": 1512932977856, "trialdata": {"rt": -1000, "stimulus": "/static/audio/wordpool/EUROPE.wav", "key_press": -1, "type": "PRES_AUD", "word": "europe", "wordID": 540, "conditions": [18, 1200, "a", 18000], "trial": 0, "serialpos": 13, "trial_type": "single-audio", "trial_index": 34, "time_elapsed": 352211, "internal_node_id": "0.0-25.0"}}, {"uniqueid": "MTK0953:31QTRG6Q2UK41GLHYRP33OFXMDGPYO", "current_trial": 35, "dateTime": 1512932980149, "trialdata": {"rt": -1000, "stimulus": "/static/audio/wordpool/COOKBOOK.wav", "key_press": -1, "type": "PRES_AUD", "word": "cookbook", "wordID": 372, "conditions": [18, 1200, "a", 18000], "trial": 0, "serialpos": 14, "trial_type": "single-audio", "trial_index": 35, "time_elapsed": 354504, "internal_node_id": "0.0-26.0"}}, {"uniqueid": "MTK0953:31QTRG6Q2UK41GLHYRP33OFXMDGPYO", "current_trial": 36, "dateTime": 1512932982239, "trialdata": {"rt": -1000, "stimulus": "/static/audio/wordpool/LABEL.wav", "key_press": -1, "type": "PRES_AUD", "word": "label", "wordID": 789, "conditions": [18, 1200, "a", 18000], "trial": 0, "serialpos": 15, "trial_type": "single-audio", "trial_index": 36, "time_elapsed": 356594, "internal_node_id": "0.0-27.0"}}, {"uniqueid": "MTK0953:31QTRG6Q2UK41GLHYRP33OFXMDGPYO", "current_trial": 37, "dateTime": 1512932984349, "trialdata": {"rt": -1000, "stimulus": "/static/audio/wordpool/PARSLEY.wav", "key_press": -1, "type": "PRES_AUD", "word": "parsley", "wordID": 1015, "conditions": [18, 1200, "a", 18000], "trial": 0, "serialpos": 16, "trial_type": "single-audio", "trial_index": 37, "time_elapsed": 358704, "internal_node_id": "0.0-28.0"}}, {"uniqueid": "MTK0953:31QTRG6Q2UK41GLHYRP33OFXMDGPYO", "current_trial": 38, "dateTime": 1512932986673, "trialdata": {"rt": -1000, "stimulus": "/static/audio/wordpool/SUNRISE.wav", "key_press": -1, "type": "PRES_AUD", "word": "sunrise", "wordID": 1406, "conditions": [18, 1200, "a", 18000], "trial": 0, "serialpos": 17, "trial_type": "single-audio", "trial_index": 38, "time_elapsed": 361028, "internal_node_id": "0.0-29.0"}}, {"uniqueid": "MTK0953:31QTRG6Q2UK41GLHYRP33OFXMDGPYO", "current_trial": 39, "dateTime": 1512932987927, "trialdata": {"rt": -1, "stimulus": "", "key_press": -1, "type": "PRE_RECALL_DELAY", "trial_type": "single-stim", "trial_index": 39, "time_elapsed": 362282, "internal_node_id": "0.0-30.0-0.0"}}, {"uniqueid": "MTK0953:31QTRG6Q2UK41GLHYRP33OFXMDGPYO", "current_trial": 40, "dateTime": 1512932988430, "trialdata": {"rt": -1000, "stimulus": "/static/audio/400Hz.wav", "key_press": -1, "type": "PRE_RECALL_ALERT", "trial_type": "single-audio", "trial_index": 40, "time_elapsed": 362784, "internal_node_id": "0.0-31.0"}}, {"uniqueid": "MTK0953:31QTRG6Q2UK41GLHYRP33OFXMDGPYO", "current_trial": 41, "dateTime": 1512933048440, "trialdata": {"rt": [2906, 6260, 8245, 13063, 18182, 21996, 34569, 42927], "recwords": ["sunrise", "pizza", "turnip", "clothes", "sunrise", "picture", "europe", "kleenex"], "type": "FREE_RECALL", "conditions": [18, 1200, "a", 18000], "trial": 0, "trial_type": "free-recall", "trial_index": 41, "time_elapsed": 422787, "internal_node_id": "0.0-32.0-0.0"}}, {"uniqueid": "MTK0953:31QTRG6Q2UK41GLHYRP33OFXMDGPYO", "current_trial": 42, "dateTime": 1512933052506, "trialdata": {"rt": 2061, "key_press": 70, "type": "INSTRUCTIONS", "trial_type": "text", "trial_index": 42, "time_elapsed": 426861, "internal_node_id": "0.0-33.0"}}, {"uniqueid": "MTK0953:31QTRG6Q2UK41GLHYRP33OFXMDGPYO", "current_trial": 43, "dateTime": 1512933072512, "trialdata": {"rt": [5515, 7622, 10513, 13393, 17366], "responses": ["20", "5", "17", "14", "12"], "num1": [5, 1, 8, 5, 4, 4], "num2": [7, 1, 2, 7, 7, 8], "num3": [8, 3, 7, 2, 1, 6], "type": "DISTRACTOR", "conditions": [18, 1200, "v", 18000], "trial": 1, "trial_type": "math-distractor", "trial_index": 43, "time_elapsed": 446867, "internal_node_id": "0.0-34.0"}}, {"uniqueid": "MTK0953:31QTRG6Q2UK41GLHYRP33OFXMDGPYO", "current_trial": 44, "dateTime": 1512933075517, "trialdata": {"rt": -1, "stimulus": "<p id=\"stim\">10</p>", "key_press": -1, "trial_type": "single-stim", "trial_index": 44, "time_elapsed": 449872, "internal_node_id": "0.0-35.0-0.0"}}, {"uniqueid": "MTK0953:31QTRG6Q2UK41GLHYRP33OFXMDGPYO", "current_trial": 45, "dateTime": 1512933076520, "trialdata": {"rt": -1, "stimulus": "<p id=\"stim\">9</p>", "key_press": -1, "trial_type": "single-stim", "trial_index": 45, "time_elapsed": 450875, "internal_node_id": "0.0-35.0-1.0"}}, {"uniqueid": "MTK0953:31QTRG6Q2UK41GLHYRP33OFXMDGPYO", "current_trial": 46, "dateTime": 1512933077526, "trialdata": {"rt": -1, "stimulus": "<p id=\"stim\">8</p>", "key_press": -1, "trial_type": "single-stim", "trial_index": 46, "time_elapsed": 451881, "internal_node_id": "0.0-35.0-2.0"}}, {"uniqueid": "MTK0953:31QTRG6Q2UK41GLHYRP33OFXMDGPYO", "current_trial": 47, "dateTime": 1512933078531, "trialdata": {"rt": -1, "stimulus": "<p id=\"stim\">7</p>", "key_press": -1, "trial_type": "single-stim", "trial_index": 47, "time_elapsed": 452886, "internal_node_id": "0.0-35.0-3.0"}}, {"uniqueid": "MTK0953:31QTRG6Q2UK41GLHYRP33OFXMDGPYO", "current_trial": 48, "dateTime": 1512933079536, "trialdata": {"rt": -1, "stimulus": "<p id=\"stim\">6</p>", "key_press": -1, "trial_type": "single-stim", "trial_index": 48, "time_elapsed": 453891, "internal_node_id": "0.0-35.0-4.0"}}, {"uniqueid": "MTK0953:31QTRG6Q2UK41GLHYRP33OFXMDGPYO", "current_trial": 49, "dateTime": 1512933080543, "trialdata": {"rt": -1, "stimulus": "<p id=\"stim\">5</p>", "key_press": -1, "trial_type": "single-stim", "trial_index": 49, "time_elapsed": 454897, "internal_node_id": "0.0-35.0-5.0"}}, {"uniqueid": "MTK0953:31QTRG6Q2UK41GLHYRP33OFXMDGPYO", "current_trial": 50, "dateTime": 1512933081548, "trialdata": {"rt": -1, "stimulus": "<p id=\"stim\">4</p>", "key_press": -1, "trial_type": "single-stim", "trial_index": 50, "time_elapsed": 455903, "internal_node_id": "0.0-35.0-6.0"}}, {"uniqueid": "MTK0953:31QTRG6Q2UK41GLHYRP33OFXMDGPYO", "current_trial": 51, "dateTime": 1512933082550, "trialdata": {"rt": -1, "stimulus": "<p id=\"stim\">3</p>", "key_press": -1, "trial_type": "single-stim", "trial_index": 51, "time_elapsed": 456905, "internal_node_id": "0.0-35.0-7.0"}}, {"uniqueid": "MTK0953:31QTRG6Q2UK41GLHYRP33OFXMDGPYO", "current_trial": 52, "dateTime": 1512933083555, "trialdata": {"rt": -1, "stimulus": "<p id=\"stim\">2</p>", "key_press": -1, "trial_type": "single-stim", "trial_index": 52, "time_elapsed": 457909, "internal_node_id": "0.0-35.0-8.0"}}, {"uniqueid": "MTK0953:31QTRG6Q2UK41GLHYRP33OFXMDGPYO", "current_trial": 53, "dateTime": 1512933084560, "trialdata": {"rt": -1, "stimulus": "<p id=\"stim\">1</p>", "key_press": -1, "trial_type": "single-stim", "trial_index": 53, "time_elapsed": 458915, "internal_node_id": "0.0-35.0-9.0"}}, {"uniqueid": "MTK0953:31QTRG6Q2UK41GLHYRP33OFXMDGPYO", "current_trial": 54, "dateTime": 1512933086061, "trialdata": {"rt": -1, "stimulus": "<p id=\"stim\">+</p>", "key_press": -1, "type": "FIXATION", "trial_type": "single-stim", "trial_index": 54, "time_elapsed": 460416, "internal_node_id": "0.0-36.0-0.0"}}, {"uniqueid": "MTK0953:31QTRG6Q2UK41GLHYRP33OFXMDGPYO", "current_trial": 55, "dateTime": 1512933087263, "trialdata": {"rt": -1, "stimulus": "<p id=\"stim\">CROWN</p>", "key_press": -1, "type": "PRES_VIS", "word": "crown", "wordID": 414, "conditions": [18, 1200, "v", 18000], "trial": 1, "serialpos": 0, "trial_type": "single-stim", "trial_index": 55, "time_elapsed": 461618, "internal_node_id": "0.0-37.0"}}, {"uniqueid": "MTK0953:31QTRG6Q2UK41GLHYRP33OFXMDGPYO", "current_trial": 56, "dateTime": 1512933089494, "trialdata": {"rt": -1, "stimulus": "<p id=\"stim\">KITCHEN</p>", "key_press": -1, "type": "PRES_VIS", "word": "kitchen", "wordID": 777, "conditions": [18, 1200, "v", 18000], "trial": 1, "serialpos": 1, "trial_type": "single-stim", "trial_index": 56, "time_elapsed": 463849, "internal_node_id": "0.0-38.0"}}, {"uniqueid": "MTK0953:31QTRG6Q2UK41GLHYRP33OFXMDGPYO", "current_trial": 57, "dateTime": 1512933091850, "trialdata": {"rt": -1, "stimulus": "<p id=\"stim\">SCRIBBLE</p>", "key_press": -1, "type": "PRES_VIS", "word": "scribble", "wordID": 1255, "conditions": [18, 1200, "v", 18000], "trial": 1, "serialpos": 2, "trial_type": "single-stim", "trial_index": 57, "time_elapsed": 466205, "internal_node_id": "0.0-39.0"}}, {"uniqueid": "MTK0953:31QTRG6Q2UK41GLHYRP33OFXMDGPYO", "current_trial": 58, "dateTime": 1512933093934, "trialdata": {"rt": -1, "stimulus": "<p id=\"stim\">HIGHWAY</p>", "key_press": -1, "type": "PRES_VIS", "word": "highway", "wordID": 706, "conditions": [18, 1200, "v", 18000], "trial": 1, "serialpos": 3, "trial_type": "single-stim", "trial_index": 58, "time_elapsed": 468289, "internal_node_id": "0.0-40.0"}}, {"uniqueid": "MTK0953:31QTRG6Q2UK41GLHYRP33OFXMDGPYO", "current_trial": 59, "dateTime": 1512933096304, "trialdata": {"rt": -1, "stimulus": "<p id=\"stim\">SCALLOP</p>", "key_press": -1, "type": "PRES_VIS", "word": "scallop", "wordID": 1241, "conditions": [18, 1200, "v", 18000], "trial": 1, "serialpos": 4, "trial_type": "single-stim", "trial_index": 59, "time_elapsed": 470659, "internal_node_id": "0.0-41.0"}}, {"uniqueid": "MTK0953:31QTRG6Q2UK41GLHYRP33OFXMDGPYO", "current_trial": 60, "dateTime": 1512933098489, "trialdata": {"rt": -1, "stimulus": "<p id=\"stim\">LUGGAGE</p>", "key_press": -1, "type": "PRES_VIS", "word": "luggage", "wordID": 846, "conditions": [18, 1200, "v", 18000], "trial": 1, "serialpos": 5, "trial_type": "single-stim", "trial_index": 60, "time_elapsed": 472843, "internal_node_id": "0.0-42.0"}}, {"uniqueid": "MTK0953:31QTRG6Q2UK41GLHYRP33OFXMDGPYO", "current_trial": 61, "dateTime": 1512933100810, "trialdata": {"rt": -1, "stimulus": "<p id=\"stim\">CABIN</p>", "key_press": -1, "type": "PRES_VIS", "word": "cabin", "wordID": 210, "conditions": [18, 1200, "v", 18000], "trial": 1, "serialpos": 6, "trial_type": "single-stim", "trial_index": 61, "time_elapsed": 475165, "internal_node_id": "0.0-43.0"}}, {"uniqueid": "MTK0953:31QTRG6Q2UK41GLHYRP33OFXMDGPYO", "current_trial": 62, "dateTime": 1512933102960, "trialdata": {"rt": -1, "stimulus": "<p id=\"stim\">TROUT</p>", "key_press": -1, "type": "PRES_VIS", "word": "trout", "wordID": 1510, "conditions": [18, 1200, "v", 18000], "trial": 1, "serialpos": 7, "trial_type": "single-stim", "trial_index": 62, "time_elapsed": 477315, "internal_node_id": "0.0-44.0"}}, {"uniqueid": "MTK0953:31QTRG6Q2UK41GLHYRP33OFXMDGPYO", "current_trial": 63, "dateTime": 1512933105288, "trialdata": {"rt": -1, "stimulus": "<p id=\"stim\">PERCH</p>", "key_press": -1, "type": "PRES_VIS", "word": "perch", "wordID": 1047, "conditions": [18, 1200, "v", 18000], "trial": 1, "serialpos": 8, "trial_type": "single-stim", "trial_index": 63, "time_elapsed": 479643, "internal_node_id": "0.0-45.0"}}, {"uniqueid": "MTK0953:31QTRG6Q2UK41GLHYRP33OFXMDGPYO", "current_trial": 64, "dateTime": 1512933107322, "trialdata": {"rt": -1, "stimulus": "<p id=\"stim\">CRICKET</p>", "key_press": -1, "type": "PRES_VIS", "word": "cricket", "wordID": 407, "conditions": [18, 1200, "v", 18000], "trial": 1, "serialpos": 9, "trial_type": "single-stim", "trial_index": 64, "time_elapsed": 481677, "internal_node_id": "0.0-46.0"}}, {"uniqueid": "MTK0953:31QTRG6Q2UK41GLHYRP33OFXMDGPYO", "current_trial": 65, "dateTime": 1512933109432, "trialdata": {"rt": -1, "stimulus": "<p id=\"stim\">TEACHER</p>", "key_press": -1, "type": "PRES_VIS", "word": "teacher", "wordID": 1439, "conditions": [18, 1200, "v", 18000], "trial": 1, "serialpos": 10, "trial_type": "single-stim", "trial_index": 65, "time_elapsed": 483787, "internal_node_id": "0.0-47.0"}}, {"uniqueid": "MTK0953:31QTRG6Q2UK41GLHYRP33OFXMDGPYO", "current_trial": 66, "dateTime": 1512933111774, "trialdata": {"rt": -1, "stimulus": "<p id=\"stim\">COSTUME</p>", "key_press": -1, "type": "PRES_VIS", "word": "costume", "wordID": 382, "conditions": [18, 1200, "v", 18000], "trial": 1, "serialpos": 11, "trial_type": "single-stim", "trial_index": 66, "time_elapsed": 486129, "internal_node_id": "0.0-48.0"}}, {"uniqueid": "MTK0953:31QTRG6Q2UK41GLHYRP33OFXMDGPYO", "current_trial": 67, "dateTime": 1512933114044, "trialdata": {"rt": -1, "stimulus": "<p id=\"stim\">SISTER</p>", "key_press": -1, "type": "PRES_VIS", "word": "sister", "wordID": 1311, "conditions": [18, 1200, "v", 18000], "trial": 1, "serialpos": 12, "trial_type": "single-stim", "trial_index": 67, "time_elapsed": 488399, "internal_node_id": "0.0-49.0"}}, {"uniqueid": "MTK0953:31QTRG6Q2UK41GLHYRP33OFXMDGPYO", "current_trial": 68, "dateTime": 1512933116153, "trialdata": {"rt": -1, "stimulus": "<p id=\"stim\">EMPIRE</p>", "key_press": -1, "type": "PRES_VIS", "word": "empire", "wordID": 529, "conditions": [18, 1200, "v", 18000], "trial": 1, "serialpos": 13, "trial_type": "single-stim", "trial_index": 68, "time_elapsed": 490504, "internal_node_id": "0.0-50.0"}}, {"uniqueid": "MTK0953:31QTRG6Q2UK41GLHYRP33OFXMDGPYO", "current_trial": 69, "dateTime": 1512933118252, "trialdata": {"rt": -1, "stimulus": "<p id=\"stim\">SPHINX</p>", "key_press": -1, "type": "PRES_VIS", "word": "sphinx", "wordID": 1348, "conditions": [18, 1200, "v", 18000], "trial": 1, "serialpos": 14, "trial_type": "single-stim", "trial_index": 69, "time_elapsed": 492607, "internal_node_id": "0.0-51.0"}}, {"uniqueid": "MTK0953:31QTRG6Q2UK41GLHYRP33OFXMDGPYO", "current_trial": 70, "dateTime": 1512933120607, "trialdata": {"rt": -1, "stimulus": "<p id=\"stim\">PEPPER</p>", "key_press": -1, "type": "PRES_VIS", "word": "pepper", "wordID": 1046, "conditions": [18, 1200, "v", 18000], "trial": 1, "serialpos": 15, "trial_type": "single-stim", "trial_index": 70, "time_elapsed": 494962, "internal_node_id": "0.0-52.0"}}, {"uniqueid": "MTK0953:31QTRG6Q2UK41GLHYRP33OFXMDGPYO", "current_trial": 71, "dateTime": 1512933122722, "trialdata": {"rt": -1, "stimulus": "<p id=\"stim\">GRAVEL</p>", "key_press": -1, "type": "PRES_VIS", "word": "gravel", "wordID": 658, "conditions": [18, 1200, "v", 18000], "trial": 1, "serialpos": 16, "trial_type": "single-stim", "trial_index": 71, "time_elapsed": 497077, "internal_node_id": "0.0-53.0"}}, {"uniqueid": "MTK0953:31QTRG6Q2UK41GLHYRP33OFXMDGPYO", "current_trial": 72, "dateTime": 1512933125071, "trialdata": {"rt": -1, "stimulus": "<p id=\"stim\">MATCH</p>", "key_press": -1, "type": "PRES_VIS", "word": "match", "wordID": 877, "conditions": [18, 1200, "v", 18000], "trial": 1, "serialpos": 17, "trial_type": "single-stim", "trial_index": 72, "time_elapsed": 499426, "internal_node_id": "0.0-54.0"}}, {"uniqueid": "MTK0953:31QTRG6Q2UK41GLHYRP33OFXMDGPYO", "current_trial": 73, "dateTime": 1512933127459, "trialdata": {"rt": -1, "stimulus": "", "key_press": -1, "type": "PRE_RECALL_DELAY", "trial_type": "single-stim", "trial_index": 73, "time_elapsed": 501814, "internal_node_id": "0.0-55.0-0.0"}}, {"uniqueid": "MTK0953:31QTRG6Q2UK41GLHYRP33OFXMDGPYO", "current_trial": 74, "dateTime": 1512933127962, "trialdata": {"rt": -1000, "stimulus": "/static/audio/400Hz.wav", "key_press": -1, "type": "PRE_RECALL_ALERT", "trial_type": "single-audio", "trial_index": 74, "time_elapsed": 502316, "internal_node_id": "0.0-56.0"}}, {"uniqueid": "MTK0953:31QTRG6Q2UK41GLHYRP33OFXMDGPYO", "current_trial": 75, "dateTime": 1512933187968, "trialdata": {"rt": [2968, 4509, 7408, 13444, 20352, 24542], "recwords": ["gravel", "match", "sphinx", "pepper", "crown", "gravel"], "type": "FREE_RECALL", "conditions": [18, 1200, "v", 18000], "trial": 1, "trial_type": "free-recall", "trial_index": 75, "time_elapsed": 562319, "internal_node_id": "0.0-57.0-0.0"}}, {"uniqueid": "MTK0953:31QTRG6Q2UK41GLHYRP33OFXMDGPYO", "current_trial": 76, "dateTime": 1512933192754, "trialdata": {"rt": 2774, "key_press": 82, "type": "INSTRUCTIONS", "trial_type": "text", "trial_index": 76, "time_elapsed": 567101, "internal_node_id": "0.0-58.0"}}, {"uniqueid": "MTK0953:31QTRG6Q2UK41GLHYRP33OFXMDGPYO", "current_trial": 77, "dateTime": 1512933205761, "trialdata": {"rt": [6290, 10117], "responses": ["25", "17"], "num1": [9, 8, 9], "num2": [8, 5, 5], "num3": [8, 4, 7], "type": "DISTRACTOR", "conditions": [12, 800, "a", 12000], "trial": 2, "trial_type": "math-distractor", "trial_index": 77, "time_elapsed": 580116, "internal_node_id": "0.0-59.0"}}, {"uniqueid": "MTK0953:31QTRG6Q2UK41GLHYRP33OFXMDGPYO", "current_trial": 78, "dateTime": 1512933208770, "trialdata": {"rt": -1, "stimulus": "<p id=\"stim\">10</p>", "key_press": -1, "trial_type": "single-stim", "trial_index": 78, "time_elapsed": 583125, "internal_node_id": "0.0-60.0-0.0"}}, {"uniqueid": "MTK0953:31QTRG6Q2UK41GLHYRP33OFXMDGPYO", "current_trial": 79, "dateTime": 1512933209775, "trialdata": {"rt": -1, "stimulus": "<p id=\"stim\">9</p>", "key_press": -1, "trial_type": "single-stim", "trial_index": 79, "time_elapsed": 584130, "internal_node_id": "0.0-60.0-1.0"}}, {"uniqueid": "MTK0953:31QTRG6Q2UK41GLHYRP33OFXMDGPYO", "current_trial": 80, "dateTime": 1512933210779, "trialdata": {"rt": -1, "stimulus": "<p id=\"stim\">8</p>", "key_press": -1, "trial_type": "single-stim", "trial_index": 80, "time_elapsed": 585134, "internal_node_id": "0.0-60.0-2.0"}}, {"uniqueid": "MTK0953:31QTRG6Q2UK41GLHYRP33OFXMDGPYO", "current_trial": 81, "dateTime": 1512933211784, "trialdata": {"rt": -1, "stimulus": "<p id=\"stim\">7</p>", "key_press": -1, "trial_type": "single-stim", "trial_index": 81, "time_elapsed": 586139, "internal_node_id": "0.0-60.0-3.0"}}, {"uniqueid": "MTK0953:31QTRG6Q2UK41GLHYRP33OFXMDGPYO", "current_trial": 82, "dateTime": 1512933212787, "trialdata": {"rt": -1, "stimulus": "<p id=\"stim\">6</p>", "key_press": -1, "trial_type": "single-stim", "trial_index": 82, "time_elapsed": 587142, "internal_node_id": "0.0-60.0-4.0"}}, {"uniqueid": "MTK0953:31QTRG6Q2UK41GLHYRP33OFXMDGPYO", "current_trial": 83, "dateTime": 1512933213793, "trialdata": {"rt": -1, "stimulus": "<p id=\"stim\">5</p>", "key_press": -1, "trial_type": "single-stim", "trial_index": 83, "time_elapsed": 588148, "internal_node_id": "0.0-60.0-5.0"}}, {"uniqueid": "MTK0953:31QTRG6Q2UK41GLHYRP33OFXMDGPYO", "current_trial": 84, "dateTime": 1512933214795, "trialdata": {"rt": -1, "stimulus": "<p id=\"stim\">4</p>", "key_press": -1, "trial_type": "single-stim", "trial_index": 84, "time_elapsed": 589150, "internal_node_id": "0.0-60.0-6.0"}}, {"uniqueid": "MTK0953:31QTRG6Q2UK41GLHYRP33OFXMDGPYO", "current_trial": 85, "dateTime": 1512933215799, "trialdata": {"rt": -1, "stimulus": "<p id=\"stim\">3</p>", "key_press": -1, "trial_type": "single-stim", "trial_index": 85, "time_elapsed": 590154, "internal_node_id": "0.0-60.0-7.0"}}, {"uniqueid": "MTK0953:31QTRG6Q2UK41GLHYRP33OFXMDGPYO", "current_trial": 86, "dateTime": 1512933216803, "trialdata": {"rt": -1, "stimulus": "<p id=\"stim\">2</p>", "key_press": -1, "trial_type": "single-stim", "trial_index": 86, "time_elapsed": 591158, "internal_node_id": "0.0-60.0-8.0"}}, {"uniqueid": "MTK0953:31QTRG6Q2UK41GLHYRP33OFXMDGPYO", "current_trial": 87, "dateTime": 1512933217805, "trialdata": {"rt": -1, "stimulus": "<p id=\"stim\">1</p>", "key_press": -1, "trial_type": "single-stim", "trial_index": 87, "time_elapsed": 592160, "internal_node_id": "0.0-60.0-9.0"}}, {"uniqueid": "MTK0953:31QTRG6Q2UK41GLHYRP33OFXMDGPYO", "current_trial": 88, "dateTime": 1512933219308, "trialdata": {"rt": -1, "stimulus": "<p id=\"stim\">+</p>", "key_press": -1, "type": "FIXATION", "trial_type": "single-stim", "trial_index": 88, "time_elapsed": 593663, "internal_node_id": "0.0-61.0-0.0"}}, {"uniqueid": "MTK0953:31QTRG6Q2UK41GLHYRP33OFXMDGPYO", "current_trial": 89, "dateTime": 1512933221107, "trialdata": {"rt": -1000, "stimulus": "/static/audio/wordpool/SHOVEL.wav", "key_press": -1, "type": "PRES_AUD", "word": "shovel", "wordID": 1294, "conditions": [12, 800, "a", 12000], "trial": 2, "serialpos": 0, "trial_type": "single-audio", "trial_index": 89, "time_elapsed": 595462, "internal_node_id": "0.0-62.0"}}, {"uniqueid": "MTK0953:31QTRG6Q2UK41GLHYRP33OFXMDGPYO", "current_trial": 90, "dateTime": 1512933222803, "trialdata": {"rt": -1000, "stimulus": "/static/audio/wordpool/BRANDY.wav", "key_press": -1, "type": "PRES_AUD", "word": "brandy", "wordID": 168, "conditions": [12, 800, "a", 12000], "trial": 2, "serialpos": 1, "trial_type": "single-audio", "trial_index": 90, "time_elapsed": 597158, "internal_node_id": "0.0-63.0"}}, {"uniqueid": "MTK0953:31QTRG6Q2UK41GLHYRP33OFXMDGPYO", "current_trial": 91, "dateTime": 1512933224707, "trialdata": {"rt": -1000, "stimulus": "/static/audio/wordpool/WAITRESS.wav", "key_press": -1, "type": "PRES_AUD", "word": "waitress", "wordID": 1580, "conditions": [12, 800, "a", 12000], "trial": 2, "serialpos": 2, "trial_type": "single-audio", "trial_index": 91, "time_elapsed": 599062, "internal_node_id": "0.0-64.0"}}, {"uniqueid": "MTK0953:31QTRG6Q2UK41GLHYRP33OFXMDGPYO", "current_trial": 92, "dateTime": 1512933226322, "trialdata": {"rt": -1000, "stimulus": "/static/audio/wordpool/GRAPE.wav", "key_press": -1, "type": "PRES_AUD", "word": "grape", "wordID": 653, "conditions": [12, 800, "a", 12000], "trial": 2, "serialpos": 3, "trial_type": "single-audio", "trial_index": 92, "time_elapsed": 600677, "internal_node_id": "0.0-65.0"}}, {"uniqueid": "MTK0953:31QTRG6Q2UK41GLHYRP33OFXMDGPYO", "current_trial": 93, "dateTime": 1512933228301, "trialdata": {"rt": -1000, "stimulus": "/static/audio/wordpool/GLOBE.wav", "key_press": -1, "type": "PRES_AUD", "word": "globe", "wordID": 640, "conditions": [12, 800, "a", 12000], "trial": 2, "serialpos": 4, "trial_type": "single-audio", "trial_index": 93, "time_elapsed": 602655, "internal_node_id": "0.0-66.0"}}, {"uniqueid": "MTK0953:31QTRG6Q2UK41GLHYRP33OFXMDGPYO", "current_trial": 94, "dateTime": 1512933230057, "trialdata": {"rt": -1000, "stimulus": "/static/audio/wordpool/ROBIN.wav", "key_press": -1, "type": "PRES_AUD", "word": "robin", "wordID": 1198, "conditions": [12, 800, "a", 12000], "trial": 2, "serialpos": 5, "trial_type": "single-audio", "trial_index": 94, "time_elapsed": 604412, "internal_node_id": "0.0-67.0"}}, {"uniqueid": "MTK0953:31QTRG6Q2UK41GLHYRP33OFXMDGPYO", "current_trial": 95, "dateTime": 1512933231719, "trialdata": {"rt": -1000, "stimulus": "/static/audio/wordpool/SPARROW.wav", "key_press": -1, "type": "PRES_AUD", "word": "sparrow", "wordID": 1346, "conditions": [12, 800, "a", 12000], "trial": 2, "serialpos": 6, "trial_type": "single-audio", "trial_index": 95, "time_elapsed": 606074, "internal_node_id": "0.0-68.0"}}, {"uniqueid": "MTK0953:31QTRG6Q2UK41GLHYRP33OFXMDGPYO", "current_trial": 96, "dateTime": 1512933233348, "trialdata": {"rt": -1000, "stimulus": "/static/audio/wordpool/PASTA.wav", "key_press": -1, "type": "PRES_AUD", "word": "pasta", "wordID": 1020, "conditions": [12, 800, "a", 12000], "trial": 2, "serialpos": 7, "trial_type": "single-audio", "trial_index": 96, "time_elapsed": 607703, "internal_node_id": "0.0-69.0"}}, {"uniqueid": "MTK0953:31QTRG6Q2UK41GLHYRP33OFXMDGPYO", "current_trial": 97, "dateTime": 1512933235327, "trialdata": {"rt": -1000, "stimulus": "/static/audio/wordpool/TERMITE.wav", "key_press": -1, "type": "PRES_AUD", "word": "termite", "wordID": 1450, "conditions": [12, 800, "a", 12000], "trial": 2, "serialpos": 8, "trial_type": "single-audio", "trial_index": 97, "time_elapsed": 609681, "internal_node_id": "0.0-70.0"}}, {"uniqueid": "MTK0953:31QTRG6Q2UK41GLHYRP33OFXMDGPYO", "current_trial": 98, "dateTime": 1512933237162, "trialdata": {"rt": -1000, "stimulus": "/static/audio/wordpool/GIFT.wav", "key_press": -1, "type": "PRES_AUD", "word": "gift", "wordID": 634, "conditions": [12, 800, "a", 12000], "trial": 2, "serialpos": 9, "trial_type": "single-audio", "trial_index": 98, "time_elapsed": 611517, "internal_node_id": "0.0-71.0"}}, {"uniqueid": "MTK0953:31QTRG6Q2UK41GLHYRP33OFXMDGPYO", "current_trial": 99, "dateTime": 1512933238922, "trialdata": {"rt": -1000, "stimulus": "/static/audio/wordpool/BARLEY.wav", "key_press": -1, "type": "PRES_AUD", "word": "barley", "wordID": 87, "conditions": [12, 800, "a", 12000], "trial": 2, "serialpos": 10, "trial_type": "single-audio", "trial_index": 99, "time_elapsed": 613277, "internal_node_id": "0.0-72.0"}}, {"uniqueid": "MTK0953:31QTRG6Q2UK41GLHYRP33OFXMDGPYO", "current_trial": 100, "dateTime": 1512933240652, "trialdata": {"rt": -1000, "stimulus": "/static/audio/wordpool/GARBAGE.wav", "key_press": -1, "type": "PRES_AUD", "word": "garbage", "wordID": 621, "conditions": [12, 800, "a", 12000], "trial": 2, "serialpos": 11, "trial_type": "single-audio", "trial_index": 100, "time_elapsed": 615007, "internal_node_id": "0.0-73.0"}}, {"uniqueid": "MTK0953:31QTRG6Q2UK41GLHYRP33OFXMDGPYO", "current_trial": 101, "dateTime": 1512933241884, "trialdata": {"rt": -1, "stimulus": "", "key_press": -1, "type": "PRE_RECALL_DELAY", "trial_type": "single-stim", "trial_index": 101, "time_elapsed": 616238, "internal_node_id": "0.0-74.0-0.0"}}, {"uniqueid": "MTK0953:31QTRG6Q2UK41GLHYRP33OFXMDGPYO", "current_trial": 102, "dateTime": 1512933242388, "trialdata": {"rt": -1000, "stimulus": "/static/audio/400Hz.wav", "key_press": -1, "type": "PRE_RECALL_ALERT", "trial_type": "single-audio", "trial_index": 102, "time_elapsed": 616743, "internal_node_id": "0.0-75.0"}}, {"uniqueid": "MTK0953:31QTRG6Q2UK41GLHYRP33OFXMDGPYO", "current_trial": 103, "dateTime": 1512933302397, "trialdata": {"rt": [2453, 5375, 6732, 18547, 23099, 37703, 49789, 51951, 53529], "recwords": ["barley", "garbage", "robin", "garbage", "termite", "sparrow", "brandy", "waitress", "pasta"], "type": "FREE_RECALL", "conditions": [12, 800, "a", 12000], "trial": 2, "trial_type": "free-recall", "trial_index": 103, "time_elapsed": 676748, "internal_node_id": "0.0-76.0-0.0"}}, {"uniqueid": "MTK0953:31QTRG6Q2UK41GLHYRP33OFXMDGPYO", "current_trial": 104, "dateTime": 1512933306192, "trialdata": {"rt": 1789, "key_press": 75, "type": "INSTRUCTIONS", "trial_type": "text", "trial_index": 104, "time_elapsed": 680547, "internal_node_id": "0.0-77.0"}}, {"uniqueid": "MTK0953:31QTRG6Q2UK41GLHYRP33OFXMDGPYO", "current_trial": 105, "dateTime": 1512933320204, "trialdata": {"rt": [2883, 6899, 10209], "responses": ["11", "17", "18"], "num1": [1, 7, 8, 9], "num2": [4, 6, 7, 2], "num3": [6, 4, 3, 2], "type": "DISTRACTOR", "conditions": [24, 1600, "v", 12000], "trial": 3, "trial_type": "math-distractor", "trial_index": 105, "time_elapsed": 694559, "internal_node_id": "0.0-78.0"}}, {"uniqueid": "MTK0953:31QTRG6Q2UK41GLHYRP33OFXMDGPYO", "current_trial": 106, "dateTime": 1512933323211, "trialdata": {"rt": -1, "stimulus": "<p id=\"stim\">10</p>", "key_press": -1, "trial_type": "single-stim", "trial_index": 106, "time_elapsed": 697565, "internal_node_id": "0.0-79.0-0.0"}}, {"uniqueid": "MTK0953:31QTRG6Q2UK41GLHYRP33OFXMDGPYO", "current_trial": 107, "dateTime": 1512933324213, "trialdata": {"rt": -1, "stimulus": "<p id=\"stim\">9</p>", "key_press": -1, "trial_type": "single-stim", "trial_index": 107, "time_elapsed": 698568, "internal_node_id": "0.0-79.0-1.0"}}, {"uniqueid": "MTK0953:31QTRG6Q2UK41GLHYRP33OFXMDGPYO", "current_trial": 108, "dateTime": 1512933325216, "trialdata": {"rt": -1, "stimulus": "<p id=\"stim\">8</p>", "key_press": -1, "trial_type": "single-stim", "trial_index": 108, "time_elapsed": 699571, "internal_node_id": "0.0-79.0-2.0"}}, {"uniqueid": "MTK0953:31QTRG6Q2UK41GLHYRP33OFXMDGPYO", "current_trial": 109, "dateTime": 1512933326221, "trialdata": {"rt": -1, "stimulus": "<p id=\"stim\">7</p>", "key_press": -1, "trial_type": "single-stim", "trial_index": 109, "time_elapsed": 700576, "internal_node_id": "0.0-79.0-3.0"}}, {"uniqueid": "MTK0953:31QTRG6Q2UK41GLHYRP33OFXMDGPYO", "current_trial": 110, "dateTime": 1512933327226, "trialdata": {"rt": -1, "stimulus": "<p id=\"stim\">6</p>", "key_press": -1, "trial_type": "single-stim", "trial_index": 110, "time_elapsed": 701580, "internal_node_id": "0.0-79.0-4.0"}}, {"uniqueid": "MTK0953:31QTRG6Q2UK41GLHYRP33OFXMDGPYO", "current_trial": 111, "dateTime": 1512933328229, "trialdata": {"rt": -1, "stimulus": "<p id=\"stim\">5</p>", "key_press": -1, "trial_type": "single-stim", "trial_index": 111, "time_elapsed": 702584, "internal_node_id": "0.0-79.0-5.0"}}, {"uniqueid": "MTK0953:31QTRG6Q2UK41GLHYRP33OFXMDGPYO", "current_trial": 112, "dateTime": 1512933329232, "trialdata": {"rt": -1, "stimulus": "<p id=\"stim\">4</p>", "key_press": -1, "trial_type": "single-stim", "trial_index": 112, "time_elapsed": 703587, "internal_node_id": "0.0-79.0-6.0"}}, {"uniqueid": "MTK0953:31QTRG6Q2UK41GLHYRP33OFXMDGPYO", "current_trial": 113, "dateTime": 1512933330235, "trialdata": {"rt": -1, "stimulus": "<p id=\"stim\">3</p>", "key_press": -1, "trial_type": "single-stim", "trial_index": 113, "time_elapsed": 704590, "internal_node_id": "0.0-79.0-7.0"}}, {"uniqueid": "MTK0953:31QTRG6Q2UK41GLHYRP33OFXMDGPYO", "current_trial": 114, "dateTime": 1512933331237, "trialdata": {"rt": -1, "stimulus": "<p id=\"stim\">2</p>", "key_press": -1, "trial_type": "single-stim", "trial_index": 114, "time_elapsed": 705592, "internal_node_id": "0.0-79.0-8.0"}}, {"uniqueid": "MTK0953:31QTRG6Q2UK41GLHYRP33OFXMDGPYO", "current_trial": 115, "dateTime": 1512933332241, "trialdata": {"rt": -1, "stimulus": "<p id=\"stim\">1</p>", "key_press": -1, "trial_type": "single-stim", "trial_index": 115, "time_elapsed": 706596, "internal_node_id": "0.0-79.0-9.0"}}, {"uniqueid": "MTK0953:31QTRG6Q2UK41GLHYRP33OFXMDGPYO", "current_trial": 116, "dateTime": 1512933333744, "trialdata": {"rt": -1, "stimulus": "<p id=\"stim\">+</p>", "key_press": -1, "type": "FIXATION", "trial_type": "single-stim", "trial_index": 116, "time_elapsed": 708099, "internal_node_id": "0.0-80.0-0.0"}}, {"uniqueid": "MTK0953:31QTRG6Q2UK41GLHYRP33OFXMDGPYO", "current_trial": 117, "dateTime": 1512933335348, "trialdata": {"rt": -1, "stimulus": "<p id=\"stim\">OZONE</p>", "key_press": -1, "type": "PRES_VIS", "word": "ozone", "wordID": 995, "conditions": [24, 1600, "v", 12000], "trial": 3, "serialpos": 0, "trial_type": "single-stim", "trial_index": 117, "time_elapsed": 709702, "internal_node_id": "0.0-81.0"}}, {"uniqueid": "MTK0953:31QTRG6Q2UK41GLHYRP33OFXMDGPYO", "current_trial": 118, "dateTime": 1512933338042, "trialdata": {"rt": -1, "stimulus": "<p id=\"stim\">NOMAD</p>", "key_press": -1, "type": "PRES_VIS", "word": "nomad", "wordID": 954, "conditions": [24, 1600, "v", 12000], "trial": 3, "serialpos": 1, "trial_type": "single-stim", "trial_index": 118, "time_elapsed": 712397, "internal_node_id": "0.0-82.0"}}, {"uniqueid": "MTK0953:31QTRG6Q2UK41GLHYRP33OFXMDGPYO", "current_trial": 119, "dateTime": 1512933340723, "trialdata": {"rt": -1, "stimulus": "<p id=\"stim\">BARREL</p>", "key_press": -1, "type": "PRES_VIS", "word": "barrel", "wordID": 90, "conditions": [24, 1600, "v", 12000], "trial": 3, "serialpos": 2, "trial_type": "single-stim", "trial_index": 119, "time_elapsed": 715078, "internal_node_id": "0.0-83.0"}}, {"uniqueid": "MTK0953:31QTRG6Q2UK41GLHYRP33OFXMDGPYO", "current_trial": 120, "dateTime": 1512933343160, "trialdata": {"rt": -1, "stimulus": "<p id=\"stim\">ANTLER</p>", "key_press": -1, "type": "PRES_VIS", "word": "antler", "wordID": 28, "conditions": [24, 1600, "v", 12000], "trial": 3, "serialpos": 3, "trial_type": "single-stim", "trial_index": 120, "time_elapsed": 717514, "internal_node_id": "0.0-84.0"}}, {"uniqueid": "MTK0953:31QTRG6Q2UK41GLHYRP33OFXMDGPYO", "current_trial": 121, "dateTime": 1512933345723, "trialdata": {"rt": -1, "stimulus": "<p id=\"stim\">PLAZA</p>", "key_press": -1, "type": "PRES_VIS", "word": "plaza", "wordID": 1087, "conditions": [24, 1600, "v", 12000], "trial": 3, "serialpos": 4, "trial_type": "single-stim", "trial_index": 121, "time_elapsed": 720078, "internal_node_id": "0.0-85.0"}}, {"uniqueid": "MTK0953:31QTRG6Q2UK41GLHYRP33OFXMDGPYO", "current_trial": 122, "dateTime": 1512933348263, "trialdata": {"rt": -1, "stimulus": "<p id=\"stim\">BUCKET</p>", "key_press": -1, "type": "PRES_VIS", "word": "bucket", "wordID": 183, "conditions": [24, 1600, "v", 12000], "trial": 3, "serialpos": 5, "trial_type": "single-stim", "trial_index": 122, "time_elapsed": 722618, "internal_node_id": "0.0-86.0"}}, {"uniqueid": "MTK0953:31QTRG6Q2UK41GLHYRP33OFXMDGPYO", "current_trial": 123, "dateTime": 1512933350835, "trialdata": {"rt": -1, "stimulus": "<p id=\"stim\">CELLAR</p>", "key_press": -1, "type": "PRES_VIS", "word": "cellar", "wordID": 266, "conditions": [24, 1600, "v", 12000], "trial": 3, "serialpos": 6, "trial_type": "single-stim", "trial_index": 123, "time_elapsed": 725190, "internal_node_id": "0.0-87.0"}}, {"uniqueid": "MTK0953:31QTRG6Q2UK41GLHYRP33OFXMDGPYO", "current_trial": 124, "dateTime": 1512933353352, "trialdata": {"rt": -1, "stimulus": "<p id=\"stim\">BATHTUB</p>", "key_press": -1, "type": "PRES_VIS", "word": "bathtub", "wordID": 99, "conditions": [24, 1600, "v", 12000], "trial": 3, "serialpos": 7, "trial_type": "single-stim", "trial_index": 124, "time_elapsed": 727707, "internal_node_id": "0.0-88.0"}}, {"uniqueid": "MTK0953:31QTRG6Q2UK41GLHYRP33OFXMDGPYO", "current_trial": 125, "dateTime": 1512933355962, "trialdata": {"rt": -1, "stimulus": "<p id=\"stim\">ROCKET</p>", "key_press": -1, "type": "PRES_VIS", "word": "rocket", "wordID": 1201, "conditions": [24, 1600, "v", 12000], "trial": 3, "serialpos": 8, "trial_type": "single-stim", "trial_index": 125, "time_elapsed": 730317, "internal_node_id": "0.0-89.0"}}, {"uniqueid": "MTK0953:31QTRG6Q2UK41GLHYRP33OFXMDGPYO", "current_trial": 126, "dateTime": 1512933358716, "trialdata": {"rt": -1, "stimulus": "<p id=\"stim\">MISSILE</p>", "key_press": -1, "type": "PRES_VIS", "word": "missile", "wordID": 899, "conditions": [24, 1600, "v", 12000], "trial": 3, "serialpos": 9, "trial_type": "single-stim", "trial_index": 126, "time_elapsed": 733071, "internal_node_id": "0.0-90.0"}}, {"uniqueid": "MTK0953:31QTRG6Q2UK41GLHYRP33OFXMDGPYO", "current_trial": 127, "dateTime": 1512933361465, "trialdata": {"rt": -1, "stimulus": "<p id=\"stim\">ROBBER</p>", "key_press": -1, "type": "PRES_VIS", "word": "robber", "wordID": 1196, "conditions": [24, 1600, "v", 12000], "trial": 3, "serialpos": 10, "trial_type": "single-stim", "trial_index": 127, "time_elapsed": 735820, "internal_node_id": "0.0-91.0"}}, {"uniqueid": "MTK0953:31QTRG6Q2UK41GLHYRP33OFXMDGPYO", "current_trial": 128, "dateTime": 1512933364131, "trialdata": {"rt": -1, "stimulus": "<p id=\"stim\">SIDEWALK</p>", "key_press": -1, "type": "PRES_VIS", "word": "sidewalk", "wordID": 1302, "conditions": [24, 1600, "v", 12000], "trial": 3, "serialpos": 11, "trial_type": "single-stim", "trial_index": 128, "time_elapsed": 738486, "internal_node_id": "0.0-92.0"}}, {"uniqueid": "MTK0953:31QTRG6Q2UK41GLHYRP33OFXMDGPYO", "current_trial": 129, "dateTime": 1512933366838, "trialdata": {"rt": -1, "stimulus": "<p id=\"stim\">PIMPLE</p>", "key_press": -1, "type": "PRES_VIS", "word": "pimple", "wordID": 1070, "conditions": [24, 1600, "v", 12000], "trial": 3, "serialpos": 12, "trial_type": "single-stim", "trial_index": 129, "time_elapsed": 741193, "internal_node_id": "0.0-93.0"}}, {"uniqueid": "MTK0953:31QTRG6Q2UK41GLHYRP33OFXMDGPYO", "current_trial": 130, "dateTime": 1512933369547, "trialdata": {"rt": -1, "stimulus": "<p id=\"stim\">OMELET</p>", "key_press": -1, "type": "PRES_VIS", "word": "omelet", "wordID": 975, "conditions": [24, 1600, "v", 12000], "trial": 3, "serialpos": 13, "trial_type": "single-stim", "trial_index": 130, "time_elapsed": 743902, "internal_node_id": "0.0-94.0"}}, {"uniqueid": "MTK0953:31QTRG6Q2UK41GLHYRP33OFXMDGPYO", "current_trial": 131, "dateTime": 1512933372115, "trialdata": {"rt": -1, "stimulus": "<p id=\"stim\">BEAKER</p>", "key_press": -1, "type": "PRES_VIS", "word": "beaker", "wordID": 103, "conditions": [24, 1600, "v", 12000], "trial": 3, "serialpos": 14, "trial_type": "single-stim", "trial_index": 131, "time_elapsed": 746470, "internal_node_id": "0.0-95.0"}}, {"uniqueid": "MTK0953:31QTRG6Q2UK41GLHYRP33OFXMDGPYO", "current_trial": 132, "dateTime": 1512933374750, "trialdata": {"rt": -1, "stimulus": "<p id=\"stim\">HEADBAND</p>", "key_press": -1, "type": "PRES_VIS", "word": "headband", "wordID": 695, "conditions": [24, 1600, "v", 12000], "trial": 3, "serialpos": 15, "trial_type": "single-stim", "trial_index": 132, "time_elapsed": 749105, "internal_node_id": "0.0-96.0"}}, {"uniqueid": "MTK0953:31QTRG6Q2UK41GLHYRP33OFXMDGPYO", "current_trial": 133, "dateTime": 1512933377433, "trialdata": {"rt": -1, "stimulus": "<p id=\"stim\">TWISTER</p>", "key_press": -1, "type": "PRES_VIS", "word": "twister", "wordID": 1529, "conditions": [24, 1600, "v", 12000], "trial": 3, "serialpos": 16, "trial_type": "single-stim", "trial_index": 133, "time_elapsed": 751788, "internal_node_id": "0.0-97.0"}}, {"uniqueid": "MTK0953:31QTRG6Q2UK41GLHYRP33OFXMDGPYO", "current_trial": 134, "dateTime": 1512933379843, "trialdata": {"rt": -1, "stimulus": "<p id=\"stim\">BEEF</p>", "key_press": -1, "type": "PRES_VIS", "word": "beef", "wordID": 112, "conditions": [24, 1600, "v", 12000], "trial": 3, "serialpos": 17, "trial_type": "single-stim", "trial_index": 134, "time_elapsed": 754198, "internal_node_id": "0.0-98.0"}}, {"uniqueid": "MTK0953:31QTRG6Q2UK41GLHYRP33OFXMDGPYO", "current_trial": 135, "dateTime": 1512933382441, "trialdata": {"rt": -1, "stimulus": "<p id=\"stim\">BIKE</p>", "key_press": -1, "type": "PRES_VIS", "word": "bike", "wordID": 124, "conditions": [24, 1600, "v", 12000], "trial": 3, "serialpos": 18, "trial_type": "single-stim", "trial_index": 135, "time_elapsed": 756796, "internal_node_id": "0.0-99.0"}}, {"uniqueid": "MTK0953:31QTRG6Q2UK41GLHYRP33OFXMDGPYO", "current_trial": 136, "dateTime": 1512933385189, "trialdata": {"rt": -1, "stimulus": "<p id=\"stim\">THIEF</p>", "key_press": -1, "type": "PRES_VIS", "word": "thief", "wordID": 1455, "conditions": [24, 1600, "v", 12000], "trial": 3, "serialpos": 19, "trial_type": "single-stim", "trial_index": 136, "time_elapsed": 759544, "internal_node_id": "0.0-100.0"}}, {"uniqueid": "MTK0953:31QTRG6Q2UK41GLHYRP33OFXMDGPYO", "current_trial": 137, "dateTime": 1512933387882, "trialdata": {"rt": -1, "stimulus": "<p id=\"stim\">BANQUET</p>", "key_press": -1, "type": "PRES_VIS", "word": "banquet", "wordID": 85, "conditions": [24, 1600, "v", 12000], "trial": 3, "serialpos": 20, "trial_type": "single-stim", "trial_index": 137, "time_elapsed": 762237, "internal_node_id": "0.0-101.0"}}, {"uniqueid": "MTK0953:31QTRG6Q2UK41GLHYRP33OFXMDGPYO", "current_trial": 138, "dateTime": 1512933390416, "trialdata": {"rt": -1, "stimulus": "<p id=\"stim\">SUPPER</p>", "key_press": -1, "type": "PRES_VIS", "word": "supper", "wordID": 1410, "conditions": [24, 1600, "v", 12000], "trial": 3, "serialpos": 21, "trial_type": "single-stim", "trial_index": 138, "time_elapsed": 764771, "internal_node_id": "0.0-102.0"}}, {"uniqueid": "MTK0953:31QTRG6Q2UK41GLHYRP33OFXMDGPYO", "current_trial": 139, "dateTime": 1512933393170, "trialdata": {"rt": -1, "stimulus": "<p id=\"stim\">BACON</p>", "key_press": -1, "type": "PRES_VIS", "word": "bacon", "wordID": 66, "conditions": [24, 1600, "v", 12000], "trial": 3, "serialpos": 22, "trial_type": "single-stim", "trial_index": 139, "time_elapsed": 767524, "internal_node_id": "0.0-103.0"}}, {"uniqueid": "MTK0953:31QTRG6Q2UK41GLHYRP33OFXMDGPYO", "current_trial": 140, "dateTime": 1512933395878, "trialdata": {"rt": -1, "stimulus": "<p id=\"stim\">PLIERS</p>", "key_press": -1, "type": "PRES_VIS", "word": "pliers", "wordID": 1088, "conditions": [24, 1600, "v", 12000], "trial": 3, "serialpos": 23, "trial_type": "single-stim", "trial_index": 140, "time_elapsed": 770233, "internal_node_id": "0.0-104.0"}}, {"uniqueid": "MTK0953:31QTRG6Q2UK41GLHYRP33OFXMDGPYO", "current_trial": 141, "dateTime": 1512933398356, "trialdata": {"rt": -1, "stimulus": "", "key_press": -1, "type": "PRE_RECALL_DELAY", "trial_type": "single-stim", "trial_index": 141, "time_elapsed": 772711, "internal_node_id": "0.0-105.0-0.0"}}, {"uniqueid": "MTK0953:31QTRG6Q2UK41GLHYRP33OFXMDGPYO", "current_trial": 142, "dateTime": 1512933398864, "trialdata": {"rt": -1000, "stimulus": "/static/audio/400Hz.wav", "key_press": -1, "type": "PRE_RECALL_ALERT", "trial_type": "single-audio", "trial_index": 142, "time_elapsed": 773218, "internal_node_id": "0.0-106.0"}}, {"uniqueid": "MTK0953:31QTRG6Q2UK41GLHYRP33OFXMDGPYO", "current_trial": 143, "dateTime": 1512933458871, "trialdata": {"rt": [3395, 5124, 7157, 10343, 29760], "recwords": ["missile", "beef", "bacon", "rocket", "nomad"], "type": "FREE_RECALL", "conditions": [24, 1600, "v", 12000], "trial": 3, "trial_type": "free-recall", "trial_index": 143, "time_elapsed": 833223, "internal_node_id": "0.0-107.0-0.0"}}, {"uniqueid": "MTK0953:31QTRG6Q2UK41GLHYRP33OFXMDGPYO", "current_trial": 144, "dateTime": 1512933476857, "trialdata": {"rt": 15983, "key_press": 74, "type": "INSTRUCTIONS", "trial_type": "text", "trial_index": 144, "time_elapsed": 851212, "internal_node_id": "0.0-108.0"}}, {"uniqueid": "MTK0953:31QTRG6Q2UK41GLHYRP33OFXMDGPYO", "current_trial": 145, "dateTime": 1512933502868, "trialdata": {"rt": [2799, 6962, 10012, 12240, 14949, 17808, 20683], "responses": ["11", "18", "14", "15", "20", "18", "10"], "num1": [1, 9, 2, 5, 8, 4, 2, 9], "num2": [9, 6, 5, 4, 9, 5, 7, 5], "num3": [1, 3, 7, 6, 3, 9, 1, 6], "type": "DISTRACTOR", "conditions": [24, 1600, "v", 24000], "trial": 4, "trial_type": "math-distractor", "trial_index": 145, "time_elapsed": 877223, "internal_node_id": "0.0-109.0"}}, {"uniqueid": "MTK0953:31QTRG6Q2UK41GLHYRP33OFXMDGPYO", "current_trial": 146, "dateTime": 1512933505871, "trialdata": {"rt": -1, "stimulus": "<p id=\"stim\">10</p>", "key_press": -1, "trial_type": "single-stim", "trial_index": 146, "time_elapsed": 880226, "internal_node_id": "0.0-110.0-0.0"}}, {"uniqueid": "MTK0953:31QTRG6Q2UK41GLHYRP33OFXMDGPYO", "current_trial": 147, "dateTime": 1512933506873, "trialdata": {"rt": -1, "stimulus": "<p id=\"stim\">9</p>", "key_press": -1, "trial_type": "single-stim", "trial_index": 147, "time_elapsed": 881228, "internal_node_id": "0.0-110.0-1.0"}}, {"uniqueid": "MTK0953:31QTRG6Q2UK41GLHYRP33OFXMDGPYO", "current_trial": 148, "dateTime": 1512933507876, "trialdata": {"rt": -1, "stimulus": "<p id=\"stim\">8</p>", "key_press": -1, "trial_type": "single-stim", "trial_index": 148, "time_elapsed": 882231, "internal_node_id": "0.0-110.0-2.0"}}, {"uniqueid": "MTK0953:31QTRG6Q2UK41GLHYRP33OFXMDGPYO", "current_trial": 149, "dateTime": 1512933508880, "trialdata": {"rt": -1, "stimulus": "<p id=\"stim\">7</p>", "key_press": -1, "trial_type": "single-stim", "trial_index": 149, "time_elapsed": 883235, "internal_node_id": "0.0-110.0-3.0"}}, {"uniqueid": "MTK0953:31QTRG6Q2UK41GLHYRP33OFXMDGPYO", "current_trial": 150, "dateTime": 1512933509882, "trialdata": {"rt": -1, "stimulus": "<p id=\"stim\">6</p>", "key_press": -1, "trial_type": "single-stim", "trial_index": 150, "time_elapsed": 884237, "internal_node_id": "0.0-110.0-4.0"}}, {"uniqueid": "MTK0953:31QTRG6Q2UK41GLHYRP33OFXMDGPYO", "current_trial": 151, "dateTime": 1512933510884, "trialdata": {"rt": -1, "stimulus": "<p id=\"stim\">5</p>", "key_press": -1, "trial_type": "single-stim", "trial_index": 151, "time_elapsed": 885239, "internal_node_id": "0.0-110.0-5.0"}}, {"uniqueid": "MTK0953:31QTRG6Q2UK41GLHYRP33OFXMDGPYO", "current_trial": 152, "dateTime": 1512933511889, "trialdata": {"rt": -1, "stimulus": "<p id=\"stim\">4</p>", "key_press": -1, "trial_type": "single-stim", "trial_index": 152, "time_elapsed": 886244, "internal_node_id": "0.0-110.0-6.0"}}, {"uniqueid": "MTK0953:31QTRG6Q2UK41GLHYRP33OFXMDGPYO", "current_trial": 153, "dateTime": 1512933512891, "trialdata": {"rt": -1, "stimulus": "<p id=\"stim\">3</p>", "key_press": -1, "trial_type": "single-stim", "trial_index": 153, "time_elapsed": 887246, "internal_node_id": "0.0-110.0-7.0"}}, {"uniqueid": "MTK0953:31QTRG6Q2UK41GLHYRP33OFXMDGPYO", "current_trial": 154, "dateTime": 1512933513895, "trialdata": {"rt": -1, "stimulus": "<p id=\"stim\">2</p>", "key_press": -1, "trial_type": "single-stim", "trial_index": 154, "time_elapsed": 888250, "internal_node_id": "0.0-110.0-8.0"}}, {"uniqueid": "MTK0953:31QTRG6Q2UK41GLHYRP33OFXMDGPYO", "current_trial": 155, "dateTime": 1512933514898, "trialdata": {"rt": -1, "stimulus": "<p id=\"stim\">1</p>", "key_press": -1, "trial_type": "single-stim", "trial_index": 155, "time_elapsed": 889253, "internal_node_id": "0.0-110.0-9.0"}}, {"uniqueid": "MTK0953:31QTRG6Q2UK41GLHYRP33OFXMDGPYO", "current_trial": 156, "dateTime": 1512933516403, "trialdata": {"rt": -1, "stimulus": "<p id=\"stim\">+</p>", "key_press": -1, "type": "FIXATION", "trial_type": "single-stim", "trial_index": 156, "time_elapsed": 890758, "internal_node_id": "0.0-111.0-0.0"}}, {"uniqueid": "MTK0953:31QTRG6Q2UK41GLHYRP33OFXMDGPYO", "current_trial": 157, "dateTime": 1512933518007, "trialdata": {"rt": -1, "stimulus": "<p id=\"stim\">PERFUME</p>", "key_press": -1, "type": "PRES_VIS", "word": "perfume", "wordID": 1048, "conditions": [24, 1600, "v", 24000], "trial": 4, "serialpos": 0, "trial_type": "single-stim", "trial_index": 157, "time_elapsed": 892362, "internal_node_id": "0.0-112.0"}}, {"uniqueid": "MTK0953:31QTRG6Q2UK41GLHYRP33OFXMDGPYO", "current_trial": 158, "dateTime": 1512933520530, "trialdata": {"rt": -1, "stimulus": "<p id=\"stim\">SCOTCH</p>", "key_press": -1, "type": "PRES_VIS", "word": "scotch", "wordID": 1250, "conditions": [24, 1600, "v", 24000], "trial": 4, "serialpos": 1, "trial_type": "single-stim", "trial_index": 158, "time_elapsed": 894885, "internal_node_id": "0.0-113.0"}}, {"uniqueid": "MTK0953:31QTRG6Q2UK41GLHYRP33OFXMDGPYO", "current_trial": 159, "dateTime": 1512933523137, "trialdata": {"rt": -1, "stimulus": "<p id=\"stim\">SAUSAGE</p>", "key_press": -1, "type": "PRES_VIS", "word": "sausage", "wordID": 1237, "conditions": [24, 1600, "v", 24000], "trial": 4, "serialpos": 2, "trial_type": "single-stim", "trial_index": 159, "time_elapsed": 897492, "internal_node_id": "0.0-114.0"}}, {"uniqueid": "MTK0953:31QTRG6Q2UK41GLHYRP33OFXMDGPYO", "current_trial": 160, "dateTime": 1512933525741, "trialdata": {"rt": -1, "stimulus": "<p id=\"stim\">SPONGE</p>", "key_press": -1, "type": "PRES_VIS", "word": "sponge", "wordID": 1354, "conditions": [24, 1600, "v", 24000], "trial": 4, "serialpos": 3, "trial_type": "single-stim", "trial_index": 160, "time_elapsed": 900096, "internal_node_id": "0.0-115.0"}}, {"uniqueid": "MTK0953:31QTRG6Q2UK41GLHYRP33OFXMDGPYO", "current_trial": 161, "dateTime": 1512933528207, "trialdata": {"rt": -1, "stimulus": "<p id=\"stim\">FIDDLE</p>", "key_press": -1, "type": "PRES_VIS", "word": "fiddle", "wordID": 560, "conditions": [24, 1600, "v", 24000], "trial": 4, "serialpos": 4, "trial_type": "single-stim", "trial_index": 161, "time_elapsed": 902562, "internal_node_id": "0.0-116.0"}}, {"uniqueid": "MTK0953:31QTRG6Q2UK41GLHYRP33OFXMDGPYO", "current_trial": 162, "dateTime": 1512933530698, "trialdata": {"rt": -1, "stimulus": "<p id=\"stim\">THREAD</p>", "key_press": -1, "type": "PRES_VIS", "word": "thread", "wordID": 1459, "conditions": [24, 1600, "v", 24000], "trial": 4, "serialpos": 5, "trial_type": "single-stim", "trial_index": 162, "time_elapsed": 905053, "internal_node_id": "0.0-117.0"}}, {"uniqueid": "MTK0953:31QTRG6Q2UK41GLHYRP33OFXMDGPYO", "current_trial": 163, "dateTime": 1512933533199, "trialdata": {"rt": -1, "stimulus": "<p id=\"stim\">TUNNEL</p>", "key_press": -1, "type": "PRES_VIS", "word": "tunnel", "wordID": 1518, "conditions": [24, 1600, "v", 24000], "trial": 4, "serialpos": 6, "trial_type": "single-stim", "trial_index": 163, "time_elapsed": 907554, "internal_node_id": "0.0-118.0"}}, {"uniqueid": "MTK0953:31QTRG6Q2UK41GLHYRP33OFXMDGPYO", "current_trial": 164, "dateTime": 1512933535843, "trialdata": {"rt": -1, "stimulus": "<p id=\"stim\">EAGLE</p>", "key_press": -1, "type": "PRES_VIS", "word": "eagle", "wordID": 511, "conditions": [24, 1600, "v", 24000], "trial": 4, "serialpos": 7, "trial_type": "single-stim", "trial_index": 164, "time_elapsed": 910198, "internal_node_id": "0.0-119.0"}}, {"uniqueid": "MTK0953:31QTRG6Q2UK41GLHYRP33OFXMDGPYO", "current_trial": 165, "dateTime": 1512933538459, "trialdata": {"rt": -1, "stimulus": "<p id=\"stim\">TROMBONE</p>", "key_press": -1, "type": "PRES_VIS", "word": "trombone", "wordID": 1507, "conditions": [24, 1600, "v", 24000], "trial": 4, "serialpos": 8, "trial_type": "single-stim", "trial_index": 165, "time_elapsed": 912814, "internal_node_id": "0.0-120.0"}}, {"uniqueid": "MTK0953:31QTRG6Q2UK41GLHYRP33OFXMDGPYO", "current_trial": 166, "dateTime": 1512933540862, "trialdata": {"rt": -1, "stimulus": "<p id=\"stim\">PUDDING</p>", "key_press": -1, "type": "PRES_VIS", "word": "pudding", "wordID": 1138, "conditions": [24, 1600, "v", 24000], "trial": 4, "serialpos": 9, "trial_type": "single-stim", "trial_index": 166, "time_elapsed": 915217, "internal_node_id": "0.0-121.0"}}, {"uniqueid": "MTK0953:31QTRG6Q2UK41GLHYRP33OFXMDGPYO", "current_trial": 167, "dateTime": 1512933543482, "trialdata": {"rt": -1, "stimulus": "<p id=\"stim\">STOVE</p>", "key_press": -1, "type": "PRES_VIS", "word": "stove", "wordID": 1387, "conditions": [24, 1600, "v", 24000], "trial": 4, "serialpos": 10, "trial_type": "single-stim", "trial_index": 167, "time_elapsed": 917837, "internal_node_id": "0.0-122.0"}}, {"uniqueid": "MTK0953:31QTRG6Q2UK41GLHYRP33OFXMDGPYO", "current_trial": 168, "dateTime": 1512933546157, "trialdata": {"rt": -1, "stimulus": "<p id=\"stim\">GRILL</p>", "key_press": -1, "type": "PRES_VIS", "word": "grill", "wordID": 660, "conditions": [24, 1600, "v", 24000], "trial": 4, "serialpos": 11, "trial_type": "single-stim", "trial_index": 168, "time_elapsed": 920512, "internal_node_id": "0.0-123.0"}}, {"uniqueid": "MTK0953:31QTRG6Q2UK41GLHYRP33OFXMDGPYO", "current_trial": 169, "dateTime": 1512933548936, "trialdata": {"rt": -1, "stimulus": "<p id=\"stim\">DAUGHTER</p>", "key_press": -1, "type": "PRES_VIS", "word": "daughter", "wordID": 441, "conditions": [24, 1600, "v", 24000], "trial": 4, "serialpos": 12, "trial_type": "single-stim", "trial_index": 169, "time_elapsed": 923291, "internal_node_id": "0.0-124.0"}}, {"uniqueid": "MTK0953:31QTRG6Q2UK41GLHYRP33OFXMDGPYO", "current_trial": 170, "dateTime": 1512933551623, "trialdata": {"rt": -1, "stimulus": "<p id=\"stim\">CHAMPAGNE</p>", "key_press": -1, "type": "PRES_VIS", "word": "champagne", "wordID": 277, "conditions": [24, 1600, "v", 24000], "trial": 4, "serialpos": 13, "trial_type": "single-stim", "trial_index": 170, "time_elapsed": 925978, "internal_node_id": "0.0-125.0"}}, {"uniqueid": "MTK0953:31QTRG6Q2UK41GLHYRP33OFXMDGPYO", "current_trial": 171, "dateTime": 1512933554222, "trialdata": {"rt": -1, "stimulus": "<p id=\"stim\">BREAST</p>", "key_press": -1, "type": "PRES_VIS", "word": "breast", "wordID": 170, "conditions": [24, 1600, "v", 24000], "trial": 4, "serialpos": 14, "trial_type": "single-stim", "trial_index": 171, "time_elapsed": 928577, "internal_node_id": "0.0-126.0"}}, {"uniqueid": "MTK0953:31QTRG6Q2UK41GLHYRP33OFXMDGPYO", "current_trial": 172, "dateTime": 1512933556742, "trialdata": {"rt": -1, "stimulus": "<p id=\"stim\">RIFLE</p>", "key_press": -1, "type": "PRES_VIS", "word": "rifle", "wordID": 1191, "conditions": [24, 1600, "v", 24000], "trial": 4, "serialpos": 15, "trial_type": "single-stim", "trial_index": 172, "time_elapsed": 931097, "internal_node_id": "0.0-127.0"}}, {"uniqueid": "MTK0953:31QTRG6Q2UK41GLHYRP33OFXMDGPYO", "current_trial": 173, "dateTime": 1512933559534, "trialdata": {"rt": -1, "stimulus": "<p id=\"stim\">CUPBOARD</p>", "key_press": -1, "type": "PRES_VIS", "word": "cupboard", "wordID": 424, "conditions": [24, 1600, "v", 24000], "trial": 4, "serialpos": 16, "trial_type": "single-stim", "trial_index": 173, "time_elapsed": 933889, "internal_node_id": "0.0-128.0"}}, {"uniqueid": "MTK0953:31QTRG6Q2UK41GLHYRP33OFXMDGPYO", "current_trial": 174, "dateTime": 1512933562292, "trialdata": {"rt": -1, "stimulus": "<p id=\"stim\">FRANCE</p>", "key_press": -1, "type": "PRES_VIS", "word": "france", "wordID": 600, "conditions": [24, 1600, "v", 24000], "trial": 4, "serialpos": 17, "trial_type": "single-stim", "trial_index": 174, "time_elapsed": 936647, "internal_node_id": "0.0-129.0"}}, {"uniqueid": "MTK0953:31QTRG6Q2UK41GLHYRP33OFXMDGPYO", "current_trial": 175, "dateTime": 1512933564875, "trialdata": {"rt": -1, "stimulus": "<p id=\"stim\">SIBLING</p>", "key_press": -1, "type": "PRES_VIS", "word": "sibling", "wordID": 1300, "conditions": [24, 1600, "v", 24000], "trial": 4, "serialpos": 18, "trial_type": "single-stim", "trial_index": 175, "time_elapsed": 939230, "internal_node_id": "0.0-130.0"}}, {"uniqueid": "MTK0953:31QTRG6Q2UK41GLHYRP33OFXMDGPYO", "current_trial": 176, "dateTime": 1512933567408, "trialdata": {"rt": -1, "stimulus": "<p id=\"stim\">FRECKLE</p>", "key_press": -1, "type": "PRES_VIS", "word": "freckle", "wordID": 601, "conditions": [24, 1600, "v", 24000], "trial": 4, "serialpos": 19, "trial_type": "single-stim", "trial_index": 176, "time_elapsed": 941763, "internal_node_id": "0.0-131.0"}}, {"uniqueid": "MTK0953:31QTRG6Q2UK41GLHYRP33OFXMDGPYO", "current_trial": 177, "dateTime": 1512933570174, "trialdata": {"rt": -1, "stimulus": "<p id=\"stim\">DRESSER</p>", "key_press": -1, "type": "PRES_VIS", "word": "dresser", "wordID": 495, "conditions": [24, 1600, "v", 24000], "trial": 4, "serialpos": 20, "trial_type": "single-stim", "trial_index": 177, "time_elapsed": 944529, "internal_node_id": "0.0-132.0"}}, {"uniqueid": "MTK0953:31QTRG6Q2UK41GLHYRP33OFXMDGPYO", "current_trial": 178, "dateTime": 1512933572881, "trialdata": {"rt": -1, "stimulus": "<p id=\"stim\">CRAB</p>", "key_press": -1, "type": "PRES_VIS", "word": "crab", "wordID": 396, "conditions": [24, 1600, "v", 24000], "trial": 4, "serialpos": 21, "trial_type": "single-stim", "trial_index": 178, "time_elapsed": 947236, "internal_node_id": "0.0-133.0"}}, {"uniqueid": "MTK0953:31QTRG6Q2UK41GLHYRP33OFXMDGPYO", "current_trial": 179, "dateTime": 1512933575560, "trialdata": {"rt": -1, "stimulus": "<p id=\"stim\">COD</p>", "key_press": -1, "type": "PRES_VIS", "word": "cod", "wordID": 339, "conditions": [24, 1600, "v", 24000], "trial": 4, "serialpos": 22, "trial_type": "single-stim", "trial_index": 179, "time_elapsed": 949915, "internal_node_id": "0.0-134.0"}}, {"uniqueid": "MTK0953:31QTRG6Q2UK41GLHYRP33OFXMDGPYO", "current_trial": 180, "dateTime": 1512933578087, "trialdata": {"rt": -1, "stimulus": "<p id=\"stim\">HORNET</p>", "key_press": -1, "type": "PRES_VIS", "word": "hornet", "wordID": 717, "conditions": [24, 1600, "v", 24000], "trial": 4, "serialpos": 23, "trial_type": "single-stim", "trial_index": 180, "time_elapsed": 952441, "internal_node_id": "0.0-135.0"}}, {"uniqueid": "MTK0953:31QTRG6Q2UK41GLHYRP33OFXMDGPYO", "current_trial": 181, "dateTime": 1512933580313, "trialdata": {"rt": -1, "stimulus": "", "key_press": -1, "type": "PRE_RECALL_DELAY", "trial_type": "single-stim", "trial_index": 181, "time_elapsed": 954668, "internal_node_id": "0.0-136.0-0.0"}}, {"uniqueid": "MTK0953:31QTRG6Q2UK41GLHYRP33OFXMDGPYO", "current_trial": 182, "dateTime": 1512933580818, "trialdata": {"rt": -1000, "stimulus": "/static/audio/400Hz.wav", "key_press": -1, "type": "PRE_RECALL_ALERT", "trial_type": "single-audio", "trial_index": 182, "time_elapsed": 955172, "internal_node_id": "0.0-137.0"}}, {"uniqueid": "MTK0953:31QTRG6Q2UK41GLHYRP33OFXMDGPYO", "current_trial": 183, "dateTime": 1512933640824, "trialdata": {"rt": [4257, 7956, 11920, 25343, 32077, 38130, 49974], "recwords": ["trombone", "scotch", "hornet", "grill", "champagne", "rifle", "dresser"], "type": "FREE_RECALL", "conditions": [24, 1600, "v", 24000], "trial": 4, "trial_type": "free-recall", "trial_index": 183, "time_elapsed": 1015175, "internal_node_id": "0.0-138.0-0.0"}}, {"uniqueid": "MTK0953:31QTRG6Q2UK41GLHYRP33OFXMDGPYO", "current_trial": 184, "dateTime": 1512933645768, "trialdata": {"rt": 2941, "key_press": 76, "type": "INSTRUCTIONS", "trial_type": "text", "trial_index": 184, "time_elapsed": 1020123, "internal_node_id": "0.0-139.0"}}, {"uniqueid": "MTK0953:31QTRG6Q2UK41GLHYRP33OFXMDGPYO", "current_trial": 185, "dateTime": 1512933659777, "trialdata": {"rt": [6052, 9436], "responses": ["19", "18"], "num1": [9, 4, 4], "num2": [2, 6, 2], "num3": [8, 8, 8], "type": "DISTRACTOR", "conditions": [24, 800, "v", 12000], "trial": 5, "trial_type": "math-distractor", "trial_index": 185, "time_elapsed": 1034132, "internal_node_id": "0.0-140.0"}}, {"uniqueid": "MTK0953:31QTRG6Q2UK41GLHYRP33OFXMDGPYO", "current_trial": 186, "dateTime": 1512933662785, "trialdata": {"rt": -1, "stimulus": "<p id=\"stim\">10</p>", "key_press": -1, "trial_type": "single-stim", "trial_index": 186, "time_elapsed": 1037140, "internal_node_id": "0.0-141.0-0.0"}}, {"uniqueid": "MTK0953:31QTRG6Q2UK41GLHYRP33OFXMDGPYO", "current_trial": 187, "dateTime": 1512933663789, "trialdata": {"rt": -1, "stimulus": "<p id=\"stim\">9</p>", "key_press": -1, "trial_type": "single-stim", "trial_index": 187, "time_elapsed": 1038144, "internal_node_id": "0.0-141.0-1.0"}}, {"uniqueid": "MTK0953:31QTRG6Q2UK41GLHYRP33OFXMDGPYO", "current_trial": 188, "dateTime": 1512933664793, "trialdata": {"rt": -1, "stimulus": "<p id=\"stim\">8</p>", "key_press": -1, "trial_type": "single-stim", "trial_index": 188, "time_elapsed": 1039148, "internal_node_id": "0.0-141.0-2.0"}}, {"uniqueid": "MTK0953:31QTRG6Q2UK41GLHYRP33OFXMDGPYO", "current_trial": 189, "dateTime": 1512933665795, "trialdata": {"rt": -1, "stimulus": "<p id=\"stim\">7</p>", "key_press": -1, "trial_type": "single-stim", "trial_index": 189, "time_elapsed": 1040150, "internal_node_id": "0.0-141.0-3.0"}}, {"uniqueid": "MTK0953:31QTRG6Q2UK41GLHYRP33OFXMDGPYO", "current_trial": 190, "dateTime": 1512933666800, "trialdata": {"rt": -1, "stimulus": "<p id=\"stim\">6</p>", "key_press": -1, "trial_type": "single-stim", "trial_index": 190, "time_elapsed": 1041155, "internal_node_id": "0.0-141.0-4.0"}}, {"uniqueid": "MTK0953:31QTRG6Q2UK41GLHYRP33OFXMDGPYO", "current_trial": 191, "dateTime": 1512933667806, "trialdata": {"rt": -1, "stimulus": "<p id=\"stim\">5</p>", "key_press": -1, "trial_type": "single-stim", "trial_index": 191, "time_elapsed": 1042161, "internal_node_id": "0.0-141.0-5.0"}}, {"uniqueid": "MTK0953:31QTRG6Q2UK41GLHYRP33OFXMDGPYO", "current_trial": 192, "dateTime": 1512933668811, "trialdata": {"rt": -1, "stimulus": "<p id=\"stim\">4</p>", "key_press": -1, "trial_type": "single-stim", "trial_index": 192, "time_elapsed": 1043166, "internal_node_id": "0.0-141.0-6.0"}}, {"uniqueid": "MTK0953:31QTRG6Q2UK41GLHYRP33OFXMDGPYO", "current_trial": 193, "dateTime": 1512933669813, "trialdata": {"rt": -1, "stimulus": "<p id=\"stim\">3</p>", "key_press": -1, "trial_type": "single-stim", "trial_index": 193, "time_elapsed": 1044168, "internal_node_id": "0.0-141.0-7.0"}}, {"uniqueid": "MTK0953:31QTRG6Q2UK41GLHYRP33OFXMDGPYO", "current_trial": 194, "dateTime": 1512933670818, "trialdata": {"rt": -1, "stimulus": "<p id=\"stim\">2</p>", "key_press": -1, "trial_type": "single-stim", "trial_index": 194, "time_elapsed": 1045173, "internal_node_id": "0.0-141.0-8.0"}}, {"uniqueid": "MTK0953:31QTRG6Q2UK41GLHYRP33OFXMDGPYO", "current_trial": 195, "dateTime": 1512933671823, "trialdata": {"rt": -1, "stimulus": "<p id=\"stim\">1</p>", "key_press": -1, "trial_type": "single-stim", "trial_index": 195, "time_elapsed": 1046178, "internal_node_id": "0.0-141.0-9.0"}}, {"uniqueid": "MTK0953:31QTRG6Q2UK41GLHYRP33OFXMDGPYO", "current_trial": 196, "dateTime": 1512933673328, "trialdata": {"rt": -1, "stimulus": "<p id=\"stim\">+</p>", "key_press": -1, "type": "FIXATION", "trial_type": "single-stim", "trial_index": 196, "time_elapsed": 1047683, "internal_node_id": "0.0-142.0-0.0"}}, {"uniqueid": "MTK0953:31QTRG6Q2UK41GLHYRP33OFXMDGPYO", "current_trial": 197, "dateTime": 1512933674132, "trialdata": {"rt": -1, "stimulus": "<p id=\"stim\">COUCH</p>", "key_press": -1, "type": "PRES_VIS", "word": "couch", "wordID": 385, "conditions": [24, 800, "v", 12000], "trial": 5, "serialpos": 0, "trial_type": "single-stim", "trial_index": 197, "time_elapsed": 1048487, "internal_node_id": "0.0-143.0"}}, {"uniqueid": "MTK0953:31QTRG6Q2UK41GLHYRP33OFXMDGPYO", "current_trial": 198, "dateTime": 1512933675931, "trialdata": {"rt": -1, "stimulus": "<p id=\"stim\">TOASTER</p>", "key_press": -1, "type": "PRES_VIS", "word": "toaster", "wordID": 1471, "conditions": [24, 800, "v", 12000], "trial": 5, "serialpos": 1, "trial_type": "single-stim", "trial_index": 198, "time_elapsed": 1050286, "internal_node_id": "0.0-144.0"}}, {"uniqueid": "MTK0953:31QTRG6Q2UK41GLHYRP33OFXMDGPYO", "current_trial": 199, "dateTime": 1512933677920, "trialdata": {"rt": -1, "stimulus": "<p id=\"stim\">SKILLET</p>", "key_press": -1, "type": "PRES_VIS", "word": "skillet", "wordID": 1316, "conditions": [24, 800, "v", 12000], "trial": 5, "serialpos": 2, "trial_type": "single-stim", "trial_index": 199, "time_elapsed": 1052275, "internal_node_id": "0.0-145.0"}}, {"uniqueid": "MTK0953:31QTRG6Q2UK41GLHYRP33OFXMDGPYO", "current_trial": 200, "dateTime": 1512933679712, "trialdata": {"rt": -1, "stimulus": "<p id=\"stim\">BLENDER</p>", "key_press": -1, "type": "PRES_VIS", "word": "blender", "wordID": 135, "conditions": [24, 800, "v", 12000], "trial": 5, "serialpos": 3, "trial_type": "single-stim", "trial_index": 200, "time_elapsed": 1054067, "internal_node_id": "0.0-146.0"}}, {"uniqueid": "MTK0953:31QTRG6Q2UK41GLHYRP33OFXMDGPYO", "current_trial": 201, "dateTime": 1512933681322, "trialdata": {"rt": -1, "stimulus": "<p id=\"stim\">JUNGLE</p>", "key_press": -1, "type": "PRES_VIS", "word": "jungle", "wordID": 763, "conditions": [24, 800, "v", 12000], "trial": 5, "serialpos": 4, "trial_type": "single-stim", "trial_index": 201, "time_elapsed": 1055677, "internal_node_id": "0.0-147.0"}}, {"uniqueid": "MTK0953:31QTRG6Q2UK41GLHYRP33OFXMDGPYO", "current_trial": 202, "dateTime": 1512933683029, "trialdata": {"rt": -1, "stimulus": "<p id=\"stim\">CAFE</p>", "key_press": -1, "type": "PRES_VIS", "word": "cafe", "wordID": 215, "conditions": [24, 800, "v", 12000], "trial": 5, "serialpos": 5, "trial_type": "single-stim", "trial_index": 202, "time_elapsed": 1057384, "internal_node_id": "0.0-148.0"}}, {"uniqueid": "MTK0953:31QTRG6Q2UK41GLHYRP33OFXMDGPYO", "current_trial": 203, "dateTime": 1512933684711, "trialdata": {"rt": -1, "stimulus": "<p id=\"stim\">STATUE</p>", "key_press": -1, "type": "PRES_VIS", "word": "statue", "wordID": 1373, "conditions": [24, 800, "v", 12000], "trial": 5, "serialpos": 6, "trial_type": "single-stim", "trial_index": 203, "time_elapsed": 1059066, "internal_node_id": "0.0-149.0"}}, {"uniqueid": "MTK0953:31QTRG6Q2UK41GLHYRP33OFXMDGPYO", "current_trial": 204, "dateTime": 1512933686505, "trialdata": {"rt": -1, "stimulus": "<p id=\"stim\">SCARECROW</p>", "key_press": -1, "type": "PRES_VIS", "word": "scarecrow", "wordID": 1244, "conditions": [24, 800, "v", 12000], "trial": 5, "serialpos": 7, "trial_type": "single-stim", "trial_index": 204, "time_elapsed": 1060860, "internal_node_id": "0.0-150.0"}}, {"uniqueid": "MTK0953:31QTRG6Q2UK41GLHYRP33OFXMDGPYO", "current_trial": 205, "dateTime": 1512933688320, "trialdata": {"rt": -1, "stimulus": "<p id=\"stim\">WARDROBE</p>", "key_press": -1, "type": "PRES_VIS", "word": "wardrobe", "wordID": 1586, "conditions": [24, 800, "v", 12000], "trial": 5, "serialpos": 8, "trial_type": "single-stim", "trial_index": 205, "time_elapsed": 1062675, "internal_node_id": "0.0-151.0"}}, {"uniqueid": "MTK0953:31QTRG6Q2UK41GLHYRP33OFXMDGPYO", "current_trial": 206, "dateTime": 1512933689930, "trialdata": {"rt": -1, "stimulus": "<p id=\"stim\">TOMBSTONE</p>", "key_press": -1, "type": "PRES_VIS", "word": "tombstone", "wordID": 1477, "conditions": [24, 800, "v", 12000], "trial": 5, "serialpos": 9, "trial_type": "single-stim", "trial_index": 206, "time_elapsed": 1064285, "internal_node_id": "0.0-152.0"}}, {"uniqueid": "MTK0953:31QTRG6Q2UK41GLHYRP33OFXMDGPYO", "current_trial": 207, "dateTime": 1512933691556, "trialdata": {"rt": -1, "stimulus": "<p id=\"stim\">COLLEGE</p>", "key_press": -1, "type": "PRES_VIS", "word": "college", "wordID": 345, "conditions": [24, 800, "v", 12000], "trial": 5, "serialpos": 10, "trial_type": "single-stim", "trial_index": 207, "time_elapsed": 1065911, "internal_node_id": "0.0-153.0"}}, {"uniqueid": "MTK0953:31QTRG6Q2UK41GLHYRP33OFXMDGPYO", "current_trial": 208, "dateTime": 1512933693423, "trialdata": {"rt": -1, "stimulus": "<p id=\"stim\">PADDING</p>", "key_press": -1, "type": "PRES_VIS", "word": "padding", "wordID": 998, "conditions": [24, 800, "v", 12000], "trial": 5, "serialpos": 11, "trial_type": "single-stim", "trial_index": 208, "time_elapsed": 1067778, "internal_node_id": "0.0-154.0"}}, {"uniqueid": "MTK0953:31QTRG6Q2UK41GLHYRP33OFXMDGPYO", "current_trial": 209, "dateTime": 1512933695398, "trialdata": {"rt": -1, "stimulus": "<p id=\"stim\">TRIBE</p>", "key_press": -1, "type": "PRES_VIS", "word": "tribe", "wordID": 1504, "conditions": [24, 800, "v", 12000], "trial": 5, "serialpos": 12, "trial_type": "single-stim", "trial_index": 209, "time_elapsed": 1069753, "internal_node_id": "0.0-155.0"}}, {"uniqueid": "MTK0953:31QTRG6Q2UK41GLHYRP33OFXMDGPYO", "current_trial": 210, "dateTime": 1512933697273, "trialdata": {"rt": -1, "stimulus": "<p id=\"stim\">CRATER</p>", "key_press": -1, "type": "PRES_VIS", "word": "crater", "wordID": 399, "conditions": [24, 800, "v", 12000], "trial": 5, "serialpos": 13, "trial_type": "single-stim", "trial_index": 210, "time_elapsed": 1071628, "internal_node_id": "0.0-156.0"}}, {"uniqueid": "MTK0953:31QTRG6Q2UK41GLHYRP33OFXMDGPYO", "current_trial": 211, "dateTime": 1512933698933, "trialdata": {"rt": -1, "stimulus": "<p id=\"stim\">UNCLE</p>", "key_press": -1, "type": "PRES_VIS", "word": "uncle", "wordID": 1535, "conditions": [24, 800, "v", 12000], "trial": 5, "serialpos": 14, "trial_type": "single-stim", "trial_index": 211, "time_elapsed": 1073288, "internal_node_id": "0.0-157.0"}}, {"uniqueid": "MTK0953:31QTRG6Q2UK41GLHYRP33OFXMDGPYO", "current_trial": 212, "dateTime": 1512933700537, "trialdata": {"rt": -1, "stimulus": "<p id=\"stim\">FOX</p>", "key_press": -1, "type": "PRES_VIS", "word": "fox", "wordID": 597, "conditions": [24, 800, "v", 12000], "trial": 5, "serialpos": 15, "trial_type": "single-stim", "trial_index": 212, "time_elapsed": 1074892, "internal_node_id": "0.0-158.0"}}, {"uniqueid": "MTK0953:31QTRG6Q2UK41GLHYRP33OFXMDGPYO", "current_trial": 213, "dateTime": 1512933702256, "trialdata": {"rt": -1, "stimulus": "<p id=\"stim\">PIGEON</p>", "key_press": -1, "type": "PRES_VIS", "word": "pigeon", "wordID": 1064, "conditions": [24, 800, "v", 12000], "trial": 5, "serialpos": 16, "trial_type": "single-stim", "trial_index": 213, "time_elapsed": 1076611, "internal_node_id": "0.0-159.0"}}, {"uniqueid": "MTK0953:31QTRG6Q2UK41GLHYRP33OFXMDGPYO", "current_trial": 214, "dateTime": 1512933704106, "trialdata": {"rt": -1, "stimulus": "<p id=\"stim\">BRANCH</p>", "key_press": -1, "type": "PRES_VIS", "word": "branch", "wordID": 167, "conditions": [24, 800, "v", 12000], "trial": 5, "serialpos": 17, "trial_type": "single-stim", "trial_index": 214, "time_elapsed": 1078461, "internal_node_id": "0.0-160.0"}}, {"uniqueid": "MTK0953:31QTRG6Q2UK41GLHYRP33OFXMDGPYO", "current_trial": 215, "dateTime": 1512933705801, "trialdata": {"rt": -1, "stimulus": "<p id=\"stim\">MONEY</p>", "key_press": -1, "type": "PRES_VIS", "word": "money", "wordID": 907, "conditions": [24, 800, "v", 12000], "trial": 5, "serialpos": 18, "trial_type": "single-stim", "trial_index": 215, "time_elapsed": 1080156, "internal_node_id": "0.0-161.0"}}, {"uniqueid": "MTK0953:31QTRG6Q2UK41GLHYRP33OFXMDGPYO", "current_trial": 216, "dateTime": 1512933707665, "trialdata": {"rt": -1, "stimulus": "<p id=\"stim\">COUSIN</p>", "key_press": -1, "type": "PRES_VIS", "word": "cousin", "wordID": 391, "conditions": [24, 800, "v", 12000], "trial": 5, "serialpos": 19, "trial_type": "single-stim", "trial_index": 216, "time_elapsed": 1082020, "internal_node_id": "0.0-162.0"}}, {"uniqueid": "MTK0953:31QTRG6Q2UK41GLHYRP33OFXMDGPYO", "current_trial": 217, "dateTime": 1512933709606, "trialdata": {"rt": -1, "stimulus": "<p id=\"stim\">HUSBAND</p>", "key_press": -1, "type": "PRES_VIS", "word": "husband", "wordID": 727, "conditions": [24, 800, "v", 12000], "trial": 5, "serialpos": 20, "trial_type": "single-stim", "trial_index": 217, "time_elapsed": 1083961, "internal_node_id": "0.0-163.0"}}, {"uniqueid": "MTK0953:31QTRG6Q2UK41GLHYRP33OFXMDGPYO", "current_trial": 218, "dateTime": 1512933711311, "trialdata": {"rt": -1, "stimulus": "<p id=\"stim\">BADGE</p>", "key_press": -1, "type": "PRES_VIS", "word": "badge", "wordID": 67, "conditions": [24, 800, "v", 12000], "trial": 5, "serialpos": 21, "trial_type": "single-stim", "trial_index": 218, "time_elapsed": 1085666, "internal_node_id": "0.0-164.0"}}, {"uniqueid": "MTK0953:31QTRG6Q2UK41GLHYRP33OFXMDGPYO", "current_trial": 219, "dateTime": 1512933712976, "trialdata": {"rt": -1, "stimulus": "<p id=\"stim\">BINDER</p>", "key_press": -1, "type": "PRES_VIS", "word": "binder", "wordID": 126, "conditions": [24, 800, "v", 12000], "trial": 5, "serialpos": 22, "trial_type": "single-stim", "trial_index": 219, "time_elapsed": 1087331, "internal_node_id": "0.0-165.0"}}, {"uniqueid": "MTK0953:31QTRG6Q2UK41GLHYRP33OFXMDGPYO", "current_trial": 220, "dateTime": 1512933714743, "trialdata": {"rt": -1, "stimulus": "<p id=\"stim\">POSTAGE</p>", "key_press": -1, "type": "PRES_VIS", "word": "postage", "wordID": 1112, "conditions": [24, 800, "v", 12000], "trial": 5, "serialpos": 23, "trial_type": "single-stim", "trial_index": 220, "time_elapsed": 1089098, "internal_node_id": "0.0-166.0"}}, {"uniqueid": "MTK0953:31QTRG6Q2UK41GLHYRP33OFXMDGPYO", "current_trial": 221, "dateTime": 1512933716934, "trialdata": {"rt": -1, "stimulus": "", "key_press": -1, "type": "PRE_RECALL_DELAY", "trial_type": "single-stim", "trial_index": 221, "time_elapsed": 1091289, "internal_node_id": "0.0-167.0-0.0"}}, {"uniqueid": "MTK0953:31QTRG6Q2UK41GLHYRP33OFXMDGPYO", "current_trial": 222, "dateTime": 1512933717439, "trialdata": {"rt": -1000, "stimulus": "/static/audio/400Hz.wav", "key_press": -1, "type": "PRE_RECALL_ALERT", "trial_type": "single-audio", "trial_index": 222, "time_elapsed": 1091794, "internal_node_id": "0.0-168.0"}}, {"uniqueid": "MTK0953:31QTRG6Q2UK41GLHYRP33OFXMDGPYO", "current_trial": 223, "dateTime": 1512933777448, "trialdata": {"rt": [2246, 10188, 13126, 34007, 43608], "recwords": ["daughter", "pigeon", "daughter", "sparrow", "barrell"], "type": "FREE_RECALL", "conditions": [24, 800, "v", 12000], "trial": 5, "trial_type": "free-recall", "trial_index": 223, "time_elapsed": 1151799, "internal_node_id": "0.0-169.0-0.0"}}, {"uniqueid": "MTK0953:31QTRG6Q2UK41GLHYRP33OFXMDGPYO", "current_trial": 224, "dateTime": 1512933781692, "trialdata": {"rt": 2238, "key_press": 70, "type": "INSTRUCTIONS", "trial_type": "text", "trial_index": 224, "time_elapsed": 1156047, "internal_node_id": "0.0-170.0"}}, {"uniqueid": "MTK0953:31QTRG6Q2UK41GLHYRP33OFXMDGPYO", "current_trial": 225, "dateTime": 1512933795704, "trialdata": {"rt": [3417, 5738, 10152], "responses": ["21", "8", "17"], "num1": [8, 1, 6, 6], "num2": [9, 6, 2, 7], "num3": [4, 1, 9, 2], "type": "DISTRACTOR", "conditions": [12, 1600, "a", 12000], "trial": 6, "trial_type": "math-distractor", "trial_index": 225, "time_elapsed": 1170058, "internal_node_id": "0.0-171.0"}}, {"uniqueid": "MTK0953:31QTRG6Q2UK41GLHYRP33OFXMDGPYO", "current_trial": 226, "dateTime": 1512933798707, "trialdata": {"rt": -1, "stimulus": "<p id=\"stim\">10</p>", "key_press": -1, "trial_type": "single-stim", "trial_index": 226, "time_elapsed": 1173062, "internal_node_id": "0.0-172.0-0.0"}}, {"uniqueid": "MTK0953:31QTRG6Q2UK41GLHYRP33OFXMDGPYO", "current_trial": 227, "dateTime": 1512933799712, "trialdata": {"rt": -1, "stimulus": "<p id=\"stim\">9</p>", "key_press": -1, "trial_type": "single-stim", "trial_index": 227, "time_elapsed": 1174067, "internal_node_id": "0.0-172.0-1.0"}}, {"uniqueid": "MTK0953:31QTRG6Q2UK41GLHYRP33OFXMDGPYO", "current_trial": 228, "dateTime": 1512933800715, "trialdata": {"rt": -1, "stimulus": "<p id=\"stim\">8</p>", "key_press": -1, "trial_type": "single-stim", "trial_index": 228, "time_elapsed": 1175070, "internal_node_id": "0.0-172.0-2.0"}}, {"uniqueid": "MTK0953:31QTRG6Q2UK41GLHYRP33OFXMDGPYO", "current_trial": 229, "dateTime": 1512933801721, "trialdata": {"rt": -1, "stimulus": "<p id=\"stim\">7</p>", "key_press": -1, "trial_type": "single-stim", "trial_index": 229, "time_elapsed": 1176075, "internal_node_id": "0.0-172.0-3.0"}}, {"uniqueid": "MTK0953:31QTRG6Q2UK41GLHYRP33OFXMDGPYO", "current_trial": 230, "dateTime": 1512933802725, "trialdata": {"rt": -1, "stimulus": "<p id=\"stim\">6</p>", "key_press": -1, "trial_type": "single-stim", "trial_index": 230, "time_elapsed": 1177080, "internal_node_id": "0.0-172.0-4.0"}}, {"uniqueid": "MTK0953:31QTRG6Q2UK41GLHYRP33OFXMDGPYO", "current_trial": 231, "dateTime": 1512933803727, "trialdata": {"rt": -1, "stimulus": "<p id=\"stim\">5</p>", "key_press": -1, "trial_type": "single-stim", "trial_index": 231, "time_elapsed": 1178082, "internal_node_id": "0.0-172.0-5.0"}}, {"uniqueid": "MTK0953:31QTRG6Q2UK41GLHYRP33OFXMDGPYO", "current_trial": 232, "dateTime": 1512933804733, "trialdata": {"rt": -1, "stimulus": "<p id=\"stim\">4</p>", "key_press": -1, "trial_type": "single-stim", "trial_index": 232, "time_elapsed": 1179088, "internal_node_id": "0.0-172.0-6.0"}}, {"uniqueid": "MTK0953:31QTRG6Q2UK41GLHYRP33OFXMDGPYO", "current_trial": 233, "dateTime": 1512933805737, "trialdata": {"rt": -1, "stimulus": "<p id=\"stim\">3</p>", "key_press": -1, "trial_type": "single-stim", "trial_index": 233, "time_elapsed": 1180092, "internal_node_id": "0.0-172.0-7.0"}}, {"uniqueid": "MTK0953:31QTRG6Q2UK41GLHYRP33OFXMDGPYO", "current_trial": 234, "dateTime": 1512933806742, "trialdata": {"rt": -1, "stimulus": "<p id=\"stim\">2</p>", "key_press": -1, "trial_type": "single-stim", "trial_index": 234, "time_elapsed": 1181097, "internal_node_id": "0.0-172.0-8.0"}}, {"uniqueid": "MTK0953:31QTRG6Q2UK41GLHYRP33OFXMDGPYO", "current_trial": 235, "dateTime": 1512933807747, "trialdata": {"rt": -1, "stimulus": "<p id=\"stim\">1</p>", "key_press": -1, "trial_type": "single-stim", "trial_index": 235, "time_elapsed": 1182102, "internal_node_id": "0.0-172.0-9.0"}}, {"uniqueid": "MTK0953:31QTRG6Q2UK41GLHYRP33OFXMDGPYO", "current_trial": 236, "dateTime": 1512933809251, "trialdata": {"rt": -1, "stimulus": "<p id=\"stim\">+</p>", "key_press": -1, "type": "FIXATION", "trial_type": "single-stim", "trial_index": 236, "time_elapsed": 1183606, "internal_node_id": "0.0-173.0-0.0"}}, {"uniqueid": "MTK0953:31QTRG6Q2UK41GLHYRP33OFXMDGPYO", "current_trial": 237, "dateTime": 1512933812038, "trialdata": {"rt": -1000, "stimulus": "/static/audio/wordpool/BOYFRIEND.wav", "key_press": -1, "type": "PRES_AUD", "word": "boyfriend", "wordID": 161, "conditions": [12, 1600, "a", 12000], "trial": 6, "serialpos": 0, "trial_type": "single-audio", "trial_index": 237, "time_elapsed": 1186393, "internal_node_id": "0.0-174.0"}}, {"uniqueid": "MTK0953:31QTRG6Q2UK41GLHYRP33OFXMDGPYO", "current_trial": 238, "dateTime": 1512933814715, "trialdata": {"rt": -1000, "stimulus": "/static/audio/wordpool/BULLET.wav", "key_press": -1, "type": "PRES_AUD", "word": "bullet", "wordID": 193, "conditions": [12, 1600, "a", 12000], "trial": 6, "serialpos": 1, "trial_type": "single-audio", "trial_index": 238, "time_elapsed": 1189070, "internal_node_id": "0.0-175.0"}}, {"uniqueid": "MTK0953:31QTRG6Q2UK41GLHYRP33OFXMDGPYO", "current_trial": 239, "dateTime": 1512933817164, "trialdata": {"rt": -1000, "stimulus": "/static/audio/wordpool/SCALPEL.wav", "key_press": -1, "type": "PRES_AUD", "word": "scalpel", "wordID": 1242, "conditions": [12, 1600, "a", 12000], "trial": 6, "serialpos": 2, "trial_type": "single-audio", "trial_index": 239, "time_elapsed": 1191519, "internal_node_id": "0.0-176.0"}}, {"uniqueid": "MTK0953:31QTRG6Q2UK41GLHYRP33OFXMDGPYO", "current_trial": 240, "dateTime": 1512933819734, "trialdata": {"rt": -1000, "stimulus": "/static/audio/wordpool/QUAIL.wav", "key_press": -1, "type": "PRES_AUD", "word": "quail", "wordID": 1146, "conditions": [12, 1600, "a", 12000], "trial": 6, "serialpos": 3, "trial_type": "single-audio", "trial_index": 240, "time_elapsed": 1194088, "internal_node_id": "0.0-177.0"}}, {"uniqueid": "MTK0953:31QTRG6Q2UK41GLHYRP33OFXMDGPYO", "current_trial": 241, "dateTime": 1512933822320, "trialdata": {"rt": -1000, "stimulus": "/static/audio/wordpool/DOUGHNUT.wav", "key_press": -1, "type": "PRES_AUD", "word": "doughnut", "wordID": 489, "conditions": [12, 1600, "a", 12000], "trial": 6, "serialpos": 4, "trial_type": "single-audio", "trial_index": 241, "time_elapsed": 1196675, "internal_node_id": "0.0-178.0"}}, {"uniqueid": "MTK0953:31QTRG6Q2UK41GLHYRP33OFXMDGPYO", "current_trial": 242, "dateTime": 1512933824965, "trialdata": {"rt": -1000, "stimulus": "/static/audio/wordpool/MUFFIN.wav", "key_press": -1, "type": "PRES_AUD", "word": "muffin", "wordID": 928, "conditions": [12, 1600, "a", 12000], "trial": 6, "serialpos": 5, "trial_type": "single-audio", "trial_index": 242, "time_elapsed": 1199320, "internal_node_id": "0.0-179.0"}}, {"uniqueid": "MTK0953:31QTRG6Q2UK41GLHYRP33OFXMDGPYO", "current_trial": 243, "dateTime": 1512933827760, "trialdata": {"rt": -1000, "stimulus": "/static/audio/wordpool/MISTER.wav", "key_press": -1, "type": "PRES_AUD", "word": "mister", "wordID": 900, "conditions": [12, 1600, "a", 12000], "trial": 6, "serialpos": 6, "trial_type": "single-audio", "trial_index": 243, "time_elapsed": 1202115, "internal_node_id": "0.0-180.0"}}, {"uniqueid": "MTK0953:31QTRG6Q2UK41GLHYRP33OFXMDGPYO", "current_trial": 244, "dateTime": 1512933830395, "trialdata": {"rt": -1000, "stimulus": "/static/audio/wordpool/TRACTOR.wav", "key_press": -1, "type": "PRES_AUD", "word": "tractor", "wordID": 1492, "conditions": [12, 1600, "a", 12000], "trial": 6, "serialpos": 7, "trial_type": "single-audio", "trial_index": 244, "time_elapsed": 1204749, "internal_node_id": "0.0-181.0"}}, {"uniqueid": "MTK0953:31QTRG6Q2UK41GLHYRP33OFXMDGPYO", "current_trial": 245, "dateTime": 1512933832997, "trialdata": {"rt": -1000, "stimulus": "/static/audio/wordpool/STOMACH.wav", "key_press": -1, "type": "PRES_AUD", "word": "stomach", "wordID": 1383, "conditions": [12, 1600, "a", 12000], "trial": 6, "serialpos": 8, "trial_type": "single-audio", "trial_index": 245, "time_elapsed": 1207352, "internal_node_id": "0.0-182.0"}}, {"uniqueid": "MTK0953:31QTRG6Q2UK41GLHYRP33OFXMDGPYO", "current_trial": 246, "dateTime": 1512933835469, "trialdata": {"rt": -1000, "stimulus": "/static/audio/wordpool/FOREST.wav", "key_press": -1, "type": "PRES_AUD", "word": "forest", "wordID": 592, "conditions": [12, 1600, "a", 12000], "trial": 6, "serialpos": 9, "trial_type": "single-audio", "trial_index": 246, "time_elapsed": 1209824, "internal_node_id": "0.0-183.0"}}, {"uniqueid": "MTK0953:31QTRG6Q2UK41GLHYRP33OFXMDGPYO", "current_trial": 247, "dateTime": 1512933838183, "trialdata": {"rt": -1000, "stimulus": "/static/audio/wordpool/LOVER.wav", "key_press": -1, "type": "PRES_AUD", "word": "lover", "wordID": 845, "conditions": [12, 1600, "a", 12000], "trial": 6, "serialpos": 10, "trial_type": "single-audio", "trial_index": 247, "time_elapsed": 1212538, "internal_node_id": "0.0-184.0"}}, {"uniqueid": "MTK0953:31QTRG6Q2UK41GLHYRP33OFXMDGPYO", "current_trial": 248, "dateTime": 1512933840882, "trialdata": {"rt": -1000, "stimulus": "/static/audio/wordpool/MAMMAL.wav", "key_press": -1, "type": "PRES_AUD", "word": "mammal", "wordID": 860, "conditions": [12, 1600, "a", 12000], "trial": 6, "serialpos": 11, "trial_type": "single-audio", "trial_index": 248, "time_elapsed": 1215237, "internal_node_id": "0.0-185.0"}}, {"uniqueid": "MTK0953:31QTRG6Q2UK41GLHYRP33OFXMDGPYO", "current_trial": 249, "dateTime": 1512933842176, "trialdata": {"rt": -1, "stimulus": "", "key_press": -1, "type": "PRE_RECALL_DELAY", "trial_type": "single-stim", "trial_index": 249, "time_elapsed": 1216531, "internal_node_id": "0.0-186.0-0.0"}}, {"uniqueid": "MTK0953:31QTRG6Q2UK41GLHYRP33OFXMDGPYO", "current_trial": 250, "dateTime": 1512933842680, "trialdata": {"rt": -1000, "stimulus": "/static/audio/400Hz.wav", "key_press": -1, "type": "PRE_RECALL_ALERT", "trial_type": "single-audio", "trial_index": 250, "time_elapsed": 1217035, "internal_node_id": "0.0-187.0"}}, {"uniqueid": "MTK0953:31QTRG6Q2UK41GLHYRP33OFXMDGPYO", "current_trial": 251, "dateTime": 1512933902693, "trialdata": {"rt": [2183, 5058, 7210, 13794, 18556, 27634, 34046], "recwords": ["mamal", "boyfriend", "forrest", "lover", "scapel", "donuts", "tractor"], "type": "FREE_RECALL", "conditions": [12, 1600, "a", 12000], "trial": 6, "trial_type": "free-recall", "trial_index": 251, "time_elapsed": 1277040, "internal_node_id": "0.0-188.0-0.0"}}, {"uniqueid": "MTK0953:31QTRG6Q2UK41GLHYRP33OFXMDGPYO", "current_trial": 252, "dateTime": 1512934161134, "trialdata": {"rt": 256437, "key_press": 75, "type": "INSTRUCTIONS", "trial_type": "text", "trial_index": 252, "time_elapsed": 1535488, "internal_node_id": "0.0-189.0"}}, {"uniqueid": "MTK0953:31QTRG6Q2UK41GLHYRP33OFXMDGPYO", "current_trial": 253, "dateTime": 1512934187141, "trialdata": {"rt": [2624, 4956, 7753, 10596, 13014, 15738], "responses": ["17", "12", "13", "18", "14", "15"], "num1": [7, 4, 1, 7, 3, 1, 3], "num2": [2, 5, 7, 3, 2, 9, 4], "num3": [8, 3, 5, 8, 9, 5, 2], "type": "DISTRACTOR", "conditions": [24, 800, "v", 24000], "trial": 7, "trial_type": "math-distractor", "trial_index": 253, "time_elapsed": 1561496, "internal_node_id": "0.0-190.0"}}, {"uniqueid": "MTK0953:31QTRG6Q2UK41GLHYRP33OFXMDGPYO", "current_trial": 254, "dateTime": 1512934190146, "trialdata": {"rt": -1, "stimulus": "<p id=\"stim\">10</p>", "key_press": -1, "trial_type": "single-stim", "trial_index": 254, "time_elapsed": 1564501, "internal_node_id": "0.0-191.0-0.0"}}, {"uniqueid": "MTK0953:31QTRG6Q2UK41GLHYRP33OFXMDGPYO", "current_trial": 255, "dateTime": 1512934191151, "trialdata": {"rt": -1, "stimulus": "<p id=\"stim\">9</p>", "key_press": -1, "trial_type": "single-stim", "trial_index": 255, "time_elapsed": 1565506, "internal_node_id": "0.0-191.0-1.0"}}, {"uniqueid": "MTK0953:31QTRG6Q2UK41GLHYRP33OFXMDGPYO", "current_trial": 256, "dateTime": 1512934192154, "trialdata": {"rt": -1, "stimulus": "<p id=\"stim\">8</p>", "key_press": -1, "trial_type": "single-stim", "trial_index": 256, "time_elapsed": 1566509, "internal_node_id": "0.0-191.0-2.0"}}, {"uniqueid": "MTK0953:31QTRG6Q2UK41GLHYRP33OFXMDGPYO", "current_trial": 257, "dateTime": 1512934193159, "trialdata": {"rt": -1, "stimulus": "<p id=\"stim\">7</p>", "key_press": -1, "trial_type": "single-stim", "trial_index": 257, "time_elapsed": 1567514, "internal_node_id": "0.0-191.0-3.0"}}, {"uniqueid": "MTK0953:31QTRG6Q2UK41GLHYRP33OFXMDGPYO", "current_trial": 258, "dateTime": 1512934194165, "trialdata": {"rt": -1, "stimulus": "<p id=\"stim\">6</p>", "key_press": -1, "trial_type": "single-stim", "trial_index": 258, "time_elapsed": 1568520, "internal_node_id": "0.0-191.0-4.0"}}, {"uniqueid": "MTK0953:31QTRG6Q2UK41GLHYRP33OFXMDGPYO", "current_trial": 259, "dateTime": 1512934195166, "trialdata": {"rt": -1, "stimulus": "<p id=\"stim\">5</p>", "key_press": -1, "trial_type": "single-stim", "trial_index": 259, "time_elapsed": 1569521, "internal_node_id": "0.0-191.0-5.0"}}, {"uniqueid": "MTK0953:31QTRG6Q2UK41GLHYRP33OFXMDGPYO", "current_trial": 260, "dateTime": 1512934196171, "trialdata": {"rt": -1, "stimulus": "<p id=\"stim\">4</p>", "key_press": -1, "trial_type": "single-stim", "trial_index": 260, "time_elapsed": 1570526, "internal_node_id": "0.0-191.0-6.0"}}, {"uniqueid": "MTK0953:31QTRG6Q2UK41GLHYRP33OFXMDGPYO", "current_trial": 261, "dateTime": 1512934197175, "trialdata": {"rt": -1, "stimulus": "<p id=\"stim\">3</p>", "key_press": -1, "trial_type": "single-stim", "trial_index": 261, "time_elapsed": 1571530, "internal_node_id": "0.0-191.0-7.0"}}, {"uniqueid": "MTK0953:31QTRG6Q2UK41GLHYRP33OFXMDGPYO", "current_trial": 262, "dateTime": 1512934198180, "trialdata": {"rt": -1, "stimulus": "<p id=\"stim\">2</p>", "key_press": -1, "trial_type": "single-stim", "trial_index": 262, "time_elapsed": 1572535, "internal_node_id": "0.0-191.0-8.0"}}, {"uniqueid": "MTK0953:31QTRG6Q2UK41GLHYRP33OFXMDGPYO", "current_trial": 263, "dateTime": 1512934199183, "trialdata": {"rt": -1, "stimulus": "<p id=\"stim\">1</p>", "key_press": -1, "trial_type": "single-stim", "trial_index": 263, "time_elapsed": 1573538, "internal_node_id": "0.0-191.0-9.0"}}, {"uniqueid": "MTK0953:31QTRG6Q2UK41GLHYRP33OFXMDGPYO", "current_trial": 264, "dateTime": 1512934200688, "trialdata": {"rt": -1, "stimulus": "<p id=\"stim\">+</p>", "key_press": -1, "type": "FIXATION", "trial_type": "single-stim", "trial_index": 264, "time_elapsed": 1575043, "internal_node_id": "0.0-192.0-0.0"}}, {"uniqueid": "MTK0953:31QTRG6Q2UK41GLHYRP33OFXMDGPYO", "current_trial": 265, "dateTime": 1512934201490, "trialdata": {"rt": -1, "stimulus": "<p id=\"stim\">FLOWER</p>", "key_press": -1, "type": "PRES_VIS", "word": "flower", "wordID": 583, "conditions": [24, 800, "v", 24000], "trial": 7, "serialpos": 0, "trial_type": "single-stim", "trial_index": 265, "time_elapsed": 1575845, "internal_node_id": "0.0-193.0"}}, {"uniqueid": "MTK0953:31QTRG6Q2UK41GLHYRP33OFXMDGPYO", "current_trial": 266, "dateTime": 1512934203154, "trialdata": {"rt": -1, "stimulus": "<p id=\"stim\">DRAWING</p>", "key_press": -1, "type": "PRES_VIS", "word": "drawing", "wordID": 493, "conditions": [24, 800, "v", 24000], "trial": 7, "serialpos": 1, "trial_type": "single-stim", "trial_index": 266, "time_elapsed": 1577509, "internal_node_id": "0.0-194.0"}}, {"uniqueid": "MTK0953:31QTRG6Q2UK41GLHYRP33OFXMDGPYO", "current_trial": 267, "dateTime": 1512934205096, "trialdata": {"rt": -1, "stimulus": "<p id=\"stim\">COMET</p>", "key_press": -1, "type": "PRES_VIS", "word": "comet", "wordID": 352, "conditions": [24, 800, "v", 24000], "trial": 7, "serialpos": 2, "trial_type": "single-stim", "trial_index": 267, "time_elapsed": 1579451, "internal_node_id": "0.0-195.0"}}, {"uniqueid": "MTK0953:31QTRG6Q2UK41GLHYRP33OFXMDGPYO", "current_trial": 268, "dateTime": 1512934206746, "trialdata": {"rt": -1, "stimulus": "<p id=\"stim\">BLADE</p>", "key_press": -1, "type": "PRES_VIS", "word": "blade", "wordID": 133, "conditions": [24, 800, "v", 24000], "trial": 7, "serialpos": 3, "trial_type": "single-stim", "trial_index": 268, "time_elapsed": 1581101, "internal_node_id": "0.0-196.0"}}, {"uniqueid": "MTK0953:31QTRG6Q2UK41GLHYRP33OFXMDGPYO", "current_trial": 269, "dateTime": 1512934208517, "trialdata": {"rt": -1, "stimulus": "<p id=\"stim\">GANGSTER</p>", "key_press": -1, "type": "PRES_VIS", "word": "gangster", "wordID": 619, "conditions": [24, 800, "v", 24000], "trial": 7, "serialpos": 4, "trial_type": "single-stim", "trial_index": 269, "time_elapsed": 1582868, "internal_node_id": "0.0-197.0"}}, {"uniqueid": "MTK0953:31QTRG6Q2UK41GLHYRP33OFXMDGPYO", "current_trial": 270, "dateTime": 1512934210307, "trialdata": {"rt": -1, "stimulus": "<p id=\"stim\">LILY</p>", "key_press": -1, "type": "PRES_VIS", "word": "lily", "wordID": 820, "conditions": [24, 800, "v", 24000], "trial": 7, "serialpos": 5, "trial_type": "single-stim", "trial_index": 270, "time_elapsed": 1584662, "internal_node_id": "0.0-198.0"}}, {"uniqueid": "MTK0953:31QTRG6Q2UK41GLHYRP33OFXMDGPYO", "current_trial": 271, "dateTime": 1512934211976, "trialdata": {"rt": -1, "stimulus": "<p id=\"stim\">BRACES</p>", "key_press": -1, "type": "PRES_VIS", "word": "braces", "wordID": 163, "conditions": [24, 800, "v", 24000], "trial": 7, "serialpos": 6, "trial_type": "single-stim", "trial_index": 271, "time_elapsed": 1586331, "internal_node_id": "0.0-199.0"}}, {"uniqueid": "MTK0953:31QTRG6Q2UK41GLHYRP33OFXMDGPYO", "current_trial": 272, "dateTime": 1512934213795, "trialdata": {"rt": -1, "stimulus": "<p id=\"stim\">SHARK</p>", "key_press": -1, "type": "PRES_VIS", "word": "shark", "wordID": 1274, "conditions": [24, 800, "v", 24000], "trial": 7, "serialpos": 7, "trial_type": "single-stim", "trial_index": 272, "time_elapsed": 1588150, "internal_node_id": "0.0-200.0"}}, {"uniqueid": "MTK0953:31QTRG6Q2UK41GLHYRP33OFXMDGPYO", "current_trial": 273, "dateTime": 1512934215730, "trialdata": {"rt": -1, "stimulus": "<p id=\"stim\">SHRU