{"condition": 0, "counterbalance": 2860, "assignmentId": "3483FV8BEFQ6QPA5QAJZOKNBCQN260", "workerId": "MTK0765", "hitId": "3B9XR6P1WE2AFDRE3K1X9XZ0CWEJBG", "currenttrial": 626, "bonus": 0, "data": [{"uniqueid": "MTK0765:3483FV8BEFQ6QPA5QAJZOKNBCQN260", "current_trial": 0, "dateTime": 1512751933995, "trialdata": {"rt": 2839, "key_press": 32, "type": "INSTRUCTIONS", "trial_type": "text", "trial_index": 0, "time_elapsed": 2842, "internal_node_id": "0.0-0.0"}}, {"uniqueid": "MTK0765:3483FV8BEFQ6QPA5QAJZOKNBCQN260", "current_trial": 1, "dateTime": 1512751947721, "trialdata": {"rt": 13724, "key_press": 32, "type": "INSTRUCTIONS", "trial_type": "text", "trial_index": 1, "time_elapsed": 16568, "internal_node_id": "0.0-1.0"}}, {"uniqueid": "MTK0765:3483FV8BEFQ6QPA5QAJZOKNBCQN260", "current_trial": 2, "dateTime": 1512752050504, "trialdata": {"rt": [102774], "responses": ["ocean"], "type": "AUDIO_TEST", "trial_type": "audio-test", "trial_index": 2, "time_elapsed": 119351, "internal_node_id": "0.0-2.0"}}, {"uniqueid": "MTK0765:3483FV8BEFQ6QPA5QAJZOKNBCQN260", "current_trial": 3, "dateTime": 1512752100215, "trialdata": {"rt": [49702], "responses": ["crystal"], "type": "AUDIO_TEST", "trial_type": "audio-test", "trial_index": 3, "time_elapsed": 169062, "internal_node_id": "0.0-3.0"}}, {"uniqueid": "MTK0765:3483FV8BEFQ6QPA5QAJZOKNBCQN260", "current_trial": 4, "dateTime": 1512752134286, "trialdata": {"rt": [34062], "responses": ["spice"], "type": "AUDIO_TEST", "trial_type": "audio-test", "trial_index": 4, "time_elapsed": 203132, "internal_node_id": "0.0-4.0"}}, {"uniqueid": "MTK0765:3483FV8BEFQ6QPA5QAJZOKNBCQN260", "current_trial": 5, "dateTime": 1512752169106, "trialdata": {"rt": 34066, "responses": "{\"Q0\":\"11\",\"Q1\":\"730\",\"Q2\":\"4\"}", "type": "SLEEP_SURVEY", "trial_type": "survey-text", "trial_index": 5, "time_elapsed": 237953, "internal_node_id": "0.0-5.0"}}, {"uniqueid": "MTK0765:3483FV8BEFQ6QPA5QAJZOKNBCQN260", "current_trial": 6, "dateTime": 1512752272116, "trialdata": {"rt": 102008, "key_press": 32, "type": "INSTRUCTIONS", "trial_type": "text", "trial_index": 6, "time_elapsed": 340963, "internal_node_id": "0.0-6.0"}}, {"uniqueid": "MTK0765:3483FV8BEFQ6QPA5QAJZOKNBCQN260", "current_trial": 7, "dateTime": 1512752347527, "trialdata": {"rt": 74909, "key_press": 32, "type": "INSTRUCTIONS", "trial_type": "text", "trial_index": 7, "time_elapsed": 416374, "internal_node_id": "0.0-7.0"}}, {"uniqueid": "MTK0765:3483FV8BEFQ6QPA5QAJZOKNBCQN260", "current_trial": 8, "dateTime": 1512752376303, "trialdata": {"rt": 28274, "key_press": 32, "type": "INSTRUCTIONS", "trial_type": "text", "trial_index": 8, "time_elapsed": 445150, "internal_node_id": "0.0-8.0"}}, {"uniqueid": "MTK0765:3483FV8BEFQ6QPA5QAJZOKNBCQN260", "current_trial": 9, "dateTime": 1512752395315, "trialdata": {"rt": [9147, 16736], "responses": ["19 ", "24"], "num1": [7, 6, 1], "num2": [9, 9, 2], "num3": [3, 9, 6], "type": "DISTRACTOR", "conditions": [18, 1200, "v", 18000], "trial": 0, "trial_type": "math-distractor", "trial_index": 9, "time_elapsed": 464162, "internal_node_id": "0.0-9.0"}}, {"uniqueid": "MTK0765:3483FV8BEFQ6QPA5QAJZOKNBCQN260", "current_trial": 10, "dateTime": 1512752398320, "trialdata": {"rt": -1, "stimulus": "<p id=\"stim\">10</p>", "key_press": -1, "trial_type": "single-stim", "trial_index": 10, "time_elapsed": 467167, "internal_node_id": "0.0-10.0-0.0"}}, {"uniqueid": "MTK0765:3483FV8BEFQ6QPA5QAJZOKNBCQN260", "current_trial": 11, "dateTime": 1512752399322, "trialdata": {"rt": -1, "stimulus": "<p id=\"stim\">9</p>", "key_press": -1, "trial_type": "single-stim", "trial_index": 11, "time_elapsed": 468169, "internal_node_id": "0.0-10.0-1.0"}}, {"uniqueid": "MTK0765:3483FV8BEFQ6QPA5QAJZOKNBCQN260", "current_trial": 12, "dateTime": 1512752400325, "trialdata": {"rt": -1, "stimulus": "<p id=\"stim\">8</p>", "key_press": -1, "trial_type": "single-stim", "trial_index": 12, "time_elapsed": 469172, "internal_node_id": "0.0-10.0-2.0"}}, {"uniqueid": "MTK0765:3483FV8BEFQ6QPA5QAJZOKNBCQN260", "current_trial": 13, "dateTime": 1512752401329, "trialdata": {"rt": -1, "stimulus": "<p id=\"stim\">7</p>", "key_press": -1, "trial_type": "single-stim", "trial_index": 13, "time_elapsed": 470176, "internal_node_id": "0.0-10.0-3.0"}}, {"uniqueid": "MTK0765:3483FV8BEFQ6QPA5QAJZOKNBCQN260", "current_trial": 14, "dateTime": 1512752402331, "trialdata": {"rt": -1, "stimulus": "<p id=\"stim\">6</p>", "key_press": -1, "trial_type": "single-stim", "trial_index": 14, "time_elapsed": 471178, "internal_node_id": "0.0-10.0-4.0"}}, {"uniqueid": "MTK0765:3483FV8BEFQ6QPA5QAJZOKNBCQN260", "current_trial": 15, "dateTime": 1512752403333, "trialdata": {"rt": -1, "stimulus": "<p id=\"stim\">5</p>", "key_press": -1, "trial_type": "single-stim", "trial_index": 15, "time_elapsed": 472180, "internal_node_id": "0.0-10.0-5.0"}}, {"uniqueid": "MTK0765:3483FV8BEFQ6QPA5QAJZOKNBCQN260", "current_trial": 16, "dateTime": 1512752404335, "trialdata": {"rt": -1, "stimulus": "<p id=\"stim\">4</p>", "key_press": -1, "trial_type": "single-stim", "trial_index": 16, "time_elapsed": 473182, "internal_node_id": "0.0-10.0-6.0"}}, {"uniqueid": "MTK0765:3483FV8BEFQ6QPA5QAJZOKNBCQN260", "current_trial": 17, "dateTime": 1512752405337, "trialdata": {"rt": -1, "stimulus": "<p id=\"stim\">3</p>", "key_press": -1, "trial_type": "single-stim", "trial_index": 17, "time_elapsed": 474184, "internal_node_id": "0.0-10.0-7.0"}}, {"uniqueid": "MTK0765:3483FV8BEFQ6QPA5QAJZOKNBCQN260", "current_trial": 18, "dateTime": 1512752406340, "trialdata": {"rt": -1, "stimulus": "<p id=\"stim\">2</p>", "key_press": -1, "trial_type": "single-stim", "trial_index": 18, "time_elapsed": 475187, "internal_node_id": "0.0-10.0-8.0"}}, {"uniqueid": "MTK0765:3483FV8BEFQ6QPA5QAJZOKNBCQN260", "current_trial": 19, "dateTime": 1512752407343, "trialdata": {"rt": -1, "stimulus": "<p id=\"stim\">1</p>", "key_press": -1, "trial_type": "single-stim", "trial_index": 19, "time_elapsed": 476190, "internal_node_id": "0.0-10.0-9.0"}}, {"uniqueid": "MTK0765:3483FV8BEFQ6QPA5QAJZOKNBCQN260", "current_trial": 20, "dateTime": 1512752408845, "trialdata": {"rt": -1, "stimulus": "<p id=\"stim\">+</p>", "key_press": -1, "type": "FIXATION", "trial_type": "single-stim", "trial_index": 20, "time_elapsed": 477692, "internal_node_id": "0.0-11.0-0.0"}}, {"uniqueid": "MTK0765:3483FV8BEFQ6QPA5QAJZOKNBCQN260", "current_trial": 21, "dateTime": 1512752410047, "trialdata": {"rt": -1, "stimulus": "<p id=\"stim\">FINGER</p>", "key_press": -1, "type": "PRES_VIS", "word": "finger", "wordID": 566, "conditions": [18, 1200, "v", 18000], "trial": 0, "serialpos": 0, "trial_type": "single-stim", "trial_index": 21, "time_elapsed": 478894, "internal_node_id": "0.0-12.0"}}, {"uniqueid": "MTK0765:3483FV8BEFQ6QPA5QAJZOKNBCQN260", "current_trial": 22, "dateTime": 1512752412373, "trialdata": {"rt": -1, "stimulus": "<p id=\"stim\">SURVEY</p>", "key_press": -1, "type": "PRES_VIS", "word": "survey", "wordID": 1413, "conditions": [18, 1200, "v", 18000], "trial": 0, "serialpos": 1, "trial_type": "single-stim", "trial_index": 22, "time_elapsed": 481220, "internal_node_id": "0.0-13.0"}}, {"uniqueid": "MTK0765:3483FV8BEFQ6QPA5QAJZOKNBCQN260", "current_trial": 23, "dateTime": 1512752414549, "trialdata": {"rt": -1, "stimulus": "<p id=\"stim\">COMPASS</p>", "key_press": -1, "type": "PRES_VIS", "word": "compass", "wordID": 357, "conditions": [18, 1200, "v", 18000], "trial": 0, "serialpos": 2, "trial_type": "single-stim", "trial_index": 23, "time_elapsed": 483395, "internal_node_id": "0.0-14.0"}}, {"uniqueid": "MTK0765:3483FV8BEFQ6QPA5QAJZOKNBCQN260", "current_trial": 24, "dateTime": 1512752416702, "trialdata": {"rt": -1, "stimulus": "<p id=\"stim\">LAMP</p>", "key_press": -1, "type": "PRES_VIS", "word": "lamp", "wordID": 797, "conditions": [18, 1200, "v", 18000], "trial": 0, "serialpos": 3, "trial_type": "single-stim", "trial_index": 24, "time_elapsed": 485549, "internal_node_id": "0.0-15.0"}}, {"uniqueid": "MTK0765:3483FV8BEFQ6QPA5QAJZOKNBCQN260", "current_trial": 25, "dateTime": 1512752419096, "trialdata": {"rt": -1, "stimulus": "<p id=\"stim\">RACKET</p>", "key_press": -1, "type": "PRES_VIS", "word": "racket", "wordID": 1154, "conditions": [18, 1200, "v", 18000], "trial": 0, "serialpos": 4, "trial_type": "single-stim", "trial_index": 25, "time_elapsed": 487943, "internal_node_id": "0.0-16.0"}}, {"uniqueid": "MTK0765:3483FV8BEFQ6QPA5QAJZOKNBCQN260", "current_trial": 26, "dateTime": 1512752421498, "trialdata": {"rt": -1, "stimulus": "<p id=\"stim\">ACTRESS</p>", "key_press": -1, "type": "PRES_VIS", "word": "actress", "wordID": 5, "conditions": [18, 1200, "v", 18000], "trial": 0, "serialpos": 5, "trial_type": "single-stim", "trial_index": 26, "time_elapsed": 490345, "internal_node_id": "0.0-17.0"}}, {"uniqueid": "MTK0765:3483FV8BEFQ6QPA5QAJZOKNBCQN260", "current_trial": 27, "dateTime": 1512752423636, "trialdata": {"rt": -1, "stimulus": "<p id=\"stim\">NECKLACE</p>", "key_press": -1, "type": "PRES_VIS", "word": "necklace", "wordID": 939, "conditions": [18, 1200, "v", 18000], "trial": 0, "serialpos": 6, "trial_type": "single-stim", "trial_index": 27, "time_elapsed": 492483, "internal_node_id": "0.0-18.0"}}, {"uniqueid": "MTK0765:3483FV8BEFQ6QPA5QAJZOKNBCQN260", "current_trial": 28, "dateTime": 1512752425801, "trialdata": {"rt": -1, "stimulus": "<p id=\"stim\">PEPPER</p>", "key_press": -1, "type": "PRES_VIS", "word": "pepper", "wordID": 1046, "conditions": [18, 1200, "v", 18000], "trial": 0, "serialpos": 7, "trial_type": "single-stim", "trial_index": 28, "time_elapsed": 494648, "internal_node_id": "0.0-19.0"}}, {"uniqueid": "MTK0765:3483FV8BEFQ6QPA5QAJZOKNBCQN260", "current_trial": 29, "dateTime": 1512752427855, "trialdata": {"rt": -1, "stimulus": "<p id=\"stim\">BATHTUB</p>", "key_press": -1, "type": "PRES_VIS", "word": "bathtub", "wordID": 99, "conditions": [18, 1200, "v", 18000], "trial": 0, "serialpos": 8, "trial_type": "single-stim", "trial_index": 29, "time_elapsed": 496702, "internal_node_id": "0.0-20.0"}}, {"uniqueid": "MTK0765:3483FV8BEFQ6QPA5QAJZOKNBCQN260", "current_trial": 30, "dateTime": 1512752429948, "trialdata": {"rt": -1, "stimulus": "<p id=\"stim\">BACKBONE</p>", "key_press": -1, "type": "PRES_VIS", "word": "backbone", "wordID": 65, "conditions": [18, 1200, "v", 18000], "trial": 0, "serialpos": 9, "trial_type": "single-stim", "trial_index": 30, "time_elapsed": 498795, "internal_node_id": "0.0-21.0"}}, {"uniqueid": "MTK0765:3483FV8BEFQ6QPA5QAJZOKNBCQN260", "current_trial": 31, "dateTime": 1512752432202, "trialdata": {"rt": -1, "stimulus": "<p id=\"stim\">CASHEW</p>", "key_press": -1, "type": "PRES_VIS", "word": "cashew", "wordID": 252, "conditions": [18, 1200, "v", 18000], "trial": 0, "serialpos": 10, "trial_type": "single-stim", "trial_index": 31, "time_elapsed": 501047, "internal_node_id": "0.0-22.0"}}, {"uniqueid": "MTK0765:3483FV8BEFQ6QPA5QAJZOKNBCQN260", "current_trial": 32, "dateTime": 1512752434276, "trialdata": {"rt": -1, "stimulus": "<p id=\"stim\">BASEMENT</p>", "key_press": -1, "type": "PRES_VIS", "word": "basement", "wordID": 93, "conditions": [18, 1200, "v", 18000], "trial": 0, "serialpos": 11, "trial_type": "single-stim", "trial_index": 32, "time_elapsed": 503123, "internal_node_id": "0.0-23.0"}}, {"uniqueid": "MTK0765:3483FV8BEFQ6QPA5QAJZOKNBCQN260", "current_trial": 33, "dateTime": 1512752436445, "trialdata": {"rt": -1, "stimulus": "<p id=\"stim\">MAPLE</p>", "key_press": -1, "type": "PRES_VIS", "word": "maple", "wordID": 865, "conditions": [18, 1200, "v", 18000], "trial": 0, "serialpos": 12, "trial_type": "single-stim", "trial_index": 33, "time_elapsed": 505292, "internal_node_id": "0.0-24.0"}}, {"uniqueid": "MTK0765:3483FV8BEFQ6QPA5QAJZOKNBCQN260", "current_trial": 34, "dateTime": 1512752438473, "trialdata": {"rt": -1, "stimulus": "<p id=\"stim\">SLIME</p>", "key_press": -1, "type": "PRES_VIS", "word": "slime", "wordID": 1326, "conditions": [18, 1200, "v", 18000], "trial": 0, "serialpos": 13, "trial_type": "single-stim", "trial_index": 34, "time_elapsed": 507320, "internal_node_id": "0.0-25.0"}}, {"uniqueid": "MTK0765:3483FV8BEFQ6QPA5QAJZOKNBCQN260", "current_trial": 35, "dateTime": 1512752440557, "trialdata": {"rt": -1, "stimulus": "<p id=\"stim\">KNAPSACK</p>", "key_press": -1, "type": "PRES_VIS", "word": "knapsack", "wordID": 782, "conditions": [18, 1200, "v", 18000], "trial": 0, "serialpos": 14, "trial_type": "single-stim", "trial_index": 35, "time_elapsed": 509404, "internal_node_id": "0.0-26.0"}}, {"uniqueid": "MTK0765:3483FV8BEFQ6QPA5QAJZOKNBCQN260", "current_trial": 36, "dateTime": 1512752442788, "trialdata": {"rt": -1, "stimulus": "<p id=\"stim\">STAPLE</p>", "key_press": -1, "type": "PRES_VIS", "word": "staple", "wordID": 1370, "conditions": [18, 1200, "v", 18000], "trial": 0, "serialpos": 15, "trial_type": "single-stim", "trial_index": 36, "time_elapsed": 511635, "internal_node_id": "0.0-27.0"}}, {"uniqueid": "MTK0765:3483FV8BEFQ6QPA5QAJZOKNBCQN260", "current_trial": 37, "dateTime": 1512752444861, "trialdata": {"rt": -1, "stimulus": "<p id=\"stim\">STALLION</p>", "key_press": -1, "type": "PRES_VIS", "word": "stallion", "wordID": 1368, "conditions": [18, 1200, "v", 18000], "trial": 0, "serialpos": 16, "trial_type": "single-stim", "trial_index": 37, "time_elapsed": 513708, "internal_node_id": "0.0-28.0"}}, {"uniqueid": "MTK0765:3483FV8BEFQ6QPA5QAJZOKNBCQN260", "current_trial": 38, "dateTime": 1512752447093, "trialdata": {"rt": -1, "stimulus": "<p id=\"stim\">DRILL</p>", "key_press": -1, "type": "PRES_VIS", "word": "drill", "wordID": 496, "conditions": [18, 1200, "v", 18000], "trial": 0, "serialpos": 17, "trial_type": "single-stim", "trial_index": 38, "time_elapsed": 515939, "internal_node_id": "0.0-29.0"}}, {"uniqueid": "MTK0765:3483FV8BEFQ6QPA5QAJZOKNBCQN260", "current_trial": 39, "dateTime": 1512752449512, "trialdata": {"rt": -1, "stimulus": "", "key_press": -1, "type": "PRE_RECALL_DELAY", "trial_type": "single-stim", "trial_index": 39, "time_elapsed": 518359, "internal_node_id": "0.0-30.0-0.0"}}, {"uniqueid": "MTK0765:3483FV8BEFQ6QPA5QAJZOKNBCQN260", "current_trial": 40, "dateTime": 1512752450015, "trialdata": {"rt": -1000, "stimulus": "/static/audio/400Hz.wav", "key_press": -1, "type": "PRE_RECALL_ALERT", "trial_type": "single-audio", "trial_index": 40, "time_elapsed": 518862, "internal_node_id": "0.0-31.0"}}, {"uniqueid": "MTK0765:3483FV8BEFQ6QPA5QAJZOKNBCQN260", "current_trial": 41, "dateTime": 1512752510025, "trialdata": {"rt": [6343, 15897, 32152, 42841], "recwords": ["maple", "basement", "knapsack", "bell"], "type": "FREE_RECALL", "conditions": [18, 1200, "v", 18000], "trial": 0, "trial_type": "free-recall", "trial_index": 41, "time_elapsed": 578867, "internal_node_id": "0.0-32.0-0.0"}}, {"uniqueid": "MTK0765:3483FV8BEFQ6QPA5QAJZOKNBCQN260", "current_trial": 42, "dateTime": 1512752518092, "trialdata": {"rt": 6064, "key_press": 83, "type": "INSTRUCTIONS", "trial_type": "text", "trial_index": 42, "time_elapsed": 586939, "internal_node_id": "0.0-33.0"}}, {"uniqueid": "MTK0765:3483FV8BEFQ6QPA5QAJZOKNBCQN260", "current_trial": 43, "dateTime": 1512752538100, "trialdata": {"rt": [6431, 11131, 17057], "responses": ["13", "17", "12"], "num1": [3, 5, 1, 3], "num2": [8, 9, 7, 3], "num3": [2, 3, 4, 1], "type": "DISTRACTOR", "conditions": [18, 1200, "a", 18000], "trial": 1, "trial_type": "math-distractor", "trial_index": 43, "time_elapsed": 606946, "internal_node_id": "0.0-34.0"}}, {"uniqueid": "MTK0765:3483FV8BEFQ6QPA5QAJZOKNBCQN260", "current_trial": 44, "dateTime": 1512752541102, "trialdata": {"rt": -1, "stimulus": "<p id=\"stim\">10</p>", "key_press": -1, "trial_type": "single-stim", "trial_index": 44, "time_elapsed": 609949, "internal_node_id": "0.0-35.0-0.0"}}, {"uniqueid": "MTK0765:3483FV8BEFQ6QPA5QAJZOKNBCQN260", "current_trial": 45, "dateTime": 1512752542105, "trialdata": {"rt": -1, "stimulus": "<p id=\"stim\">9</p>", "key_press": -1, "trial_type": "single-stim", "trial_index": 45, "time_elapsed": 610952, "internal_node_id": "0.0-35.0-1.0"}}, {"uniqueid": "MTK0765:3483FV8BEFQ6QPA5QAJZOKNBCQN260", "current_trial": 46, "dateTime": 1512752543107, "trialdata": {"rt": -1, "stimulus": "<p id=\"stim\">8</p>", "key_press": -1, "trial_type": "single-stim", "trial_index": 46, "time_elapsed": 611954, "internal_node_id": "0.0-35.0-2.0"}}, {"uniqueid": "MTK0765:3483FV8BEFQ6QPA5QAJZOKNBCQN260", "current_trial": 47, "dateTime": 1512752544110, "trialdata": {"rt": -1, "stimulus": "<p id=\"stim\">7</p>", "key_press": -1, "trial_type": "single-stim", "trial_index": 47, "time_elapsed": 612957, "internal_node_id": "0.0-35.0-3.0"}}, {"uniqueid": "MTK0765:3483FV8BEFQ6QPA5QAJZOKNBCQN260", "current_trial": 48, "dateTime": 1512752545112, "trialdata": {"rt": -1, "stimulus": "<p id=\"stim\">6</p>", "key_press": -1, "trial_type": "single-stim", "trial_index": 48, "time_elapsed": 613959, "internal_node_id": "0.0-35.0-4.0"}}, {"uniqueid": "MTK0765:3483FV8BEFQ6QPA5QAJZOKNBCQN260", "current_trial": 49, "dateTime": 1512752546115, "trialdata": {"rt": -1, "stimulus": "<p id=\"stim\">5</p>", "key_press": -1, "trial_type": "single-stim", "trial_index": 49, "time_elapsed": 614962, "internal_node_id": "0.0-35.0-5.0"}}, {"uniqueid": "MTK0765:3483FV8BEFQ6QPA5QAJZOKNBCQN260", "current_trial": 50, "dateTime": 1512752547117, "trialdata": {"rt": -1, "stimulus": "<p id=\"stim\">4</p>", "key_press": -1, "trial_type": "single-stim", "trial_index": 50, "time_elapsed": 615964, "internal_node_id": "0.0-35.0-6.0"}}, {"uniqueid": "MTK0765:3483FV8BEFQ6QPA5QAJZOKNBCQN260", "current_trial": 51, "dateTime": 1512752548119, "trialdata": {"rt": -1, "stimulus": "<p id=\"stim\">3</p>", "key_press": -1, "trial_type": "single-stim", "trial_index": 51, "time_elapsed": 616966, "internal_node_id": "0.0-35.0-7.0"}}, {"uniqueid": "MTK0765:3483FV8BEFQ6QPA5QAJZOKNBCQN260", "current_trial": 52, "dateTime": 1512752549121, "trialdata": {"rt": -1, "stimulus": "<p id=\"stim\">2</p>", "key_press": -1, "trial_type": "single-stim", "trial_index": 52, "time_elapsed": 617968, "internal_node_id": "0.0-35.0-8.0"}}, {"uniqueid": "MTK0765:3483FV8BEFQ6QPA5QAJZOKNBCQN260", "current_trial": 53, "dateTime": 1512752550123, "trialdata": {"rt": -1, "stimulus": "<p id=\"stim\">1</p>", "key_press": -1, "trial_type": "single-stim", "trial_index": 53, "time_elapsed": 618970, "internal_node_id": "0.0-35.0-9.0"}}, {"uniqueid": "MTK0765:3483FV8BEFQ6QPA5QAJZOKNBCQN260", "current_trial": 54, "dateTime": 1512752551625, "trialdata": {"rt": -1, "stimulus": "<p id=\"stim\">+</p>", "key_press": -1, "type": "FIXATION", "trial_type": "single-stim", "trial_index": 54, "time_elapsed": 620472, "internal_node_id": "0.0-36.0-0.0"}}, {"uniqueid": "MTK0765:3483FV8BEFQ6QPA5QAJZOKNBCQN260", "current_trial": 55, "dateTime": 1512752553825, "trialdata": {"rt": -1000, "stimulus": "/static/audio/wordpool/OUTLAW.wav", "key_press": -1, "type": "PRES_AUD", "word": "outlaw", "wordID": 988, "conditions": [18, 1200, "a", 18000], "trial": 1, "serialpos": 0, "trial_type": "single-audio", "trial_index": 55, "time_elapsed": 622672, "internal_node_id": "0.0-37.0"}}, {"uniqueid": "MTK0765:3483FV8BEFQ6QPA5QAJZOKNBCQN260", "current_trial": 56, "dateTime": 1512752555862, "trialdata": {"rt": -1000, "stimulus": "/static/audio/wordpool/BISON.wav", "key_press": -1, "type": "PRES_AUD", "word": "bison", "wordID": 130, "conditions": [18, 1200, "a", 18000], "trial": 1, "serialpos": 1, "trial_type": "single-audio", "trial_index": 56, "time_elapsed": 624709, "internal_node_id": "0.0-38.0"}}, {"uniqueid": "MTK0765:3483FV8BEFQ6QPA5QAJZOKNBCQN260", "current_trial": 57, "dateTime": 1512752557902, "trialdata": {"rt": -1000, "stimulus": "/static/audio/wordpool/SALAD.wav", "key_press": -1, "type": "PRES_AUD", "word": "salad", "wordID": 1223, "conditions": [18, 1200, "a", 18000], "trial": 1, "serialpos": 2, "trial_type": "single-audio", "trial_index": 57, "time_elapsed": 626749, "internal_node_id": "0.0-39.0"}}, {"uniqueid": "MTK0765:3483FV8BEFQ6QPA5QAJZOKNBCQN260", "current_trial": 58, "dateTime": 1512752559982, "trialdata": {"rt": -1000, "stimulus": "/static/audio/wordpool/TABLE.wav", "key_press": -1, "type": "PRES_AUD", "word": "table", "wordID": 1425, "conditions": [18, 1200, "a", 18000], "trial": 1, "serialpos": 3, "trial_type": "single-audio", "trial_index": 58, "time_elapsed": 628828, "internal_node_id": "0.0-40.0"}}, {"uniqueid": "MTK0765:3483FV8BEFQ6QPA5QAJZOKNBCQN260", "current_trial": 59, "dateTime": 1512752562255, "trialdata": {"rt": -1000, "stimulus": "/static/audio/wordpool/WARDROBE.wav", "key_press": -1, "type": "PRES_AUD", "word": "wardrobe", "wordID": 1586, "conditions": [18, 1200, "a", 18000], "trial": 1, "serialpos": 4, "trial_type": "single-audio", "trial_index": 59, "time_elapsed": 631101, "internal_node_id": "0.0-41.0"}}, {"uniqueid": "MTK0765:3483FV8BEFQ6QPA5QAJZOKNBCQN260", "current_trial": 60, "dateTime": 1512752564380, "trialdata": {"rt": -1000, "stimulus": "/static/audio/wordpool/SPARROW.wav", "key_press": -1, "type": "PRES_AUD", "word": "sparrow", "wordID": 1346, "conditions": [18, 1200, "a", 18000], "trial": 1, "serialpos": 5, "trial_type": "single-audio", "trial_index": 60, "time_elapsed": 633227, "internal_node_id": "0.0-42.0"}}, {"uniqueid": "MTK0765:3483FV8BEFQ6QPA5QAJZOKNBCQN260", "current_trial": 61, "dateTime": 1512752566663, "trialdata": {"rt": -1000, "stimulus": "/static/audio/wordpool/BANKER.wav", "key_press": -1, "type": "PRES_AUD", "word": "banker", "wordID": 83, "conditions": [18, 1200, "a", 18000], "trial": 1, "serialpos": 6, "trial_type": "single-audio", "trial_index": 61, "time_elapsed": 635510, "internal_node_id": "0.0-43.0"}}, {"uniqueid": "MTK0765:3483FV8BEFQ6QPA5QAJZOKNBCQN260", "current_trial": 62, "dateTime": 1512752568940, "trialdata": {"rt": -1000, "stimulus": "/static/audio/wordpool/OMELET.wav", "key_press": -1, "type": "PRES_AUD", "word": "omelet", "wordID": 975, "conditions": [18, 1200, "a", 18000], "trial": 1, "serialpos": 7, "trial_type": "single-audio", "trial_index": 62, "time_elapsed": 637787, "internal_node_id": "0.0-44.0"}}, {"uniqueid": "MTK0765:3483FV8BEFQ6QPA5QAJZOKNBCQN260", "current_trial": 63, "dateTime": 1512752571015, "trialdata": {"rt": -1000, "stimulus": "/static/audio/wordpool/CROWN.wav", "key_press": -1, "type": "PRES_AUD", "word": "crown", "wordID": 414, "conditions": [18, 1200, "a", 18000], "trial": 1, "serialpos": 8, "trial_type": "single-audio", "trial_index": 63, "time_elapsed": 639862, "internal_node_id": "0.0-45.0"}}, {"uniqueid": "MTK0765:3483FV8BEFQ6QPA5QAJZOKNBCQN260", "current_trial": 64, "dateTime": 1512752573393, "trialdata": {"rt": -1000, "stimulus": "/static/audio/wordpool/PUDDING.wav", "key_press": -1, "type": "PRES_AUD", "word": "pudding", "wordID": 1138, "conditions": [18, 1200, "a", 18000], "trial": 1, "serialpos": 9, "trial_type": "single-audio", "trial_index": 64, "time_elapsed": 642240, "internal_node_id": "0.0-46.0"}}, {"uniqueid": "MTK0765:3483FV8BEFQ6QPA5QAJZOKNBCQN260", "current_trial": 65, "dateTime": 1512752575432, "trialdata": {"rt": -1000, "stimulus": "/static/audio/wordpool/SCISSORS.wav", "key_press": -1, "type": "PRES_AUD", "word": "scissors", "wordID": 1249, "conditions": [18, 1200, "a", 18000], "trial": 1, "serialpos": 10, "trial_type": "single-audio", "trial_index": 65, "time_elapsed": 644279, "internal_node_id": "0.0-47.0"}}, {"uniqueid": "MTK0765:3483FV8BEFQ6QPA5QAJZOKNBCQN260", "current_trial": 66, "dateTime": 1512752577639, "trialdata": {"rt": -1000, "stimulus": "/static/audio/wordpool/DANCER.wav", "key_press": -1, "type": "PRES_AUD", "word": "dancer", "wordID": 436, "conditions": [18, 1200, "a", 18000], "trial": 1, "serialpos": 11, "trial_type": "single-audio", "trial_index": 66, "time_elapsed": 646486, "internal_node_id": "0.0-48.0"}}, {"uniqueid": "MTK0765:3483FV8BEFQ6QPA5QAJZOKNBCQN260", "current_trial": 67, "dateTime": 1512752579839, "trialdata": {"rt": -1000, "stimulus": "/static/audio/wordpool/HERO.wav", "key_press": -1, "type": "PRES_AUD", "word": "hero", "wordID": 705, "conditions": [18, 1200, "a", 18000], "trial": 1, "serialpos": 12, "trial_type": "single-audio", "trial_index": 67, "time_elapsed": 648686, "internal_node_id": "0.0-49.0"}}, {"uniqueid": "MTK0765:3483FV8BEFQ6QPA5QAJZOKNBCQN260", "current_trial": 68, "dateTime": 1512752582187, "trialdata": {"rt": -1000, "stimulus": "/static/audio/wordpool/TERMITE.wav", "key_press": -1, "type": "PRES_AUD", "word": "termite", "wordID": 1450, "conditions": [18, 1200, "a", 18000], "trial": 1, "serialpos": 13, "trial_type": "single-audio", "trial_index": 68, "time_elapsed": 651030, "internal_node_id": "0.0-50.0"}}, {"uniqueid": "MTK0765:3483FV8BEFQ6QPA5QAJZOKNBCQN260", "current_trial": 69, "dateTime": 1512752584291, "trialdata": {"rt": -1000, "stimulus": "/static/audio/wordpool/PLAID.wav", "key_press": -1, "type": "PRES_AUD", "word": "plaid", "wordID": 1079, "conditions": [18, 1200, "a", 18000], "trial": 1, "serialpos": 14, "trial_type": "single-audio", "trial_index": 69, "time_elapsed": 653138, "internal_node_id": "0.0-51.0"}}, {"uniqueid": "MTK0765:3483FV8BEFQ6QPA5QAJZOKNBCQN260", "current_trial": 70, "dateTime": 1512752586673, "trialdata": {"rt": -1000, "stimulus": "/static/audio/wordpool/GARDEN.wav", "key_press": -1, "type": "PRES_AUD", "word": "garden", "wordID": 622, "conditions": [18, 1200, "a", 18000], "trial": 1, "serialpos": 15, "trial_type": "single-audio", "trial_index": 70, "time_elapsed": 655520, "internal_node_id": "0.0-52.0"}}, {"uniqueid": "MTK0765:3483FV8BEFQ6QPA5QAJZOKNBCQN260", "current_trial": 71, "dateTime": 1512752588756, "trialdata": {"rt": -1000, "stimulus": "/static/audio/wordpool/GRAVE.wav", "key_press": -1, "type": "PRES_AUD", "word": "grave", "wordID": 657, "conditions": [18, 1200, "a", 18000], "trial": 1, "serialpos": 16, "trial_type": "single-audio", "trial_index": 71, "time_elapsed": 657603, "internal_node_id": "0.0-53.0"}}, {"uniqueid": "MTK0765:3483FV8BEFQ6QPA5QAJZOKNBCQN260", "current_trial": 72, "dateTime": 1512752591083, "trialdata": {"rt": -1000, "stimulus": "/static/audio/wordpool/PARROT.wav", "key_press": -1, "type": "PRES_AUD", "word": "parrot", "wordID": 1014, "conditions": [18, 1200, "a", 18000], "trial": 1, "serialpos": 17, "trial_type": "single-audio", "trial_index": 72, "time_elapsed": 659930, "internal_node_id": "0.0-54.0"}}, {"uniqueid": "MTK0765:3483FV8BEFQ6QPA5QAJZOKNBCQN260", "current_trial": 73, "dateTime": 1512752592340, "trialdata": {"rt": -1, "stimulus": "", "key_press": -1, "type": "PRE_RECALL_DELAY", "trial_type": "single-stim", "trial_index": 73, "time_elapsed": 661186, "internal_node_id": "0.0-55.0-0.0"}}, {"uniqueid": "MTK0765:3483FV8BEFQ6QPA5QAJZOKNBCQN260", "current_trial": 74, "dateTime": 1512752592843, "trialdata": {"rt": -1000, "stimulus": "/static/audio/400Hz.wav", "key_press": -1, "type": "PRE_RECALL_ALERT", "trial_type": "single-audio", "trial_index": 74, "time_elapsed": 661690, "internal_node_id": "0.0-56.0"}}, {"uniqueid": "MTK0765:3483FV8BEFQ6QPA5QAJZOKNBCQN260", "current_trial": 75, "dateTime": 1512752652852, "trialdata": {"rt": [13729, 23469, 38347, 46177, 54495], "recwords": ["bison", "table", "sparrow", "banker", "pudding"], "type": "FREE_RECALL", "conditions": [18, 1200, "a", 18000], "trial": 1, "trial_type": "free-recall", "trial_index": 75, "time_elapsed": 721695, "internal_node_id": "0.0-57.0-0.0"}}, {"uniqueid": "MTK0765:3483FV8BEFQ6QPA5QAJZOKNBCQN260", "current_trial": 76, "dateTime": 1512752776431, "trialdata": {"rt": 121574, "key_press": 13, "type": "INSTRUCTIONS", "trial_type": "text", "trial_index": 76, "time_elapsed": 845275, "internal_node_id": "0.0-58.0"}}, {"uniqueid": "MTK0765:3483FV8BEFQ6QPA5QAJZOKNBCQN260", "current_trial": 77, "dateTime": 1512752789437, "trialdata": {"rt": [4078, 8188], "responses": ["14", "7"], "num1": [8, 1, 2], "num2": [3, 1, 1], "num3": [3, 5, 5], "type": "DISTRACTOR", "conditions": [24, 1600, "a", 12000], "trial": 2, "trial_type": "math-distractor", "trial_index": 77, "time_elapsed": 858284, "internal_node_id": "0.0-59.0"}}, {"uniqueid": "MTK0765:3483FV8BEFQ6QPA5QAJZOKNBCQN260", "current_trial": 78, "dateTime": 1512752792440, "trialdata": {"rt": -1, "stimulus": "<p id=\"stim\">10</p>", "key_press": -1, "trial_type": "single-stim", "trial_index": 78, "time_elapsed": 861286, "internal_node_id": "0.0-60.0-0.0"}}, {"uniqueid": "MTK0765:3483FV8BEFQ6QPA5QAJZOKNBCQN260", "current_trial": 79, "dateTime": 1512752793442, "trialdata": {"rt": -1, "stimulus": "<p id=\"stim\">9</p>", "key_press": -1, "trial_type": "single-stim", "trial_index": 79, "time_elapsed": 862288, "internal_node_id": "0.0-60.0-1.0"}}, {"uniqueid": "MTK0765:3483FV8BEFQ6QPA5QAJZOKNBCQN260", "current_trial": 80, "dateTime": 1512752794443, "trialdata": {"rt": -1, "stimulus": "<p id=\"stim\">8</p>", "key_press": -1, "trial_type": "single-stim", "trial_index": 80, "time_elapsed": 863290, "internal_node_id": "0.0-60.0-2.0"}}, {"uniqueid": "MTK0765:3483FV8BEFQ6QPA5QAJZOKNBCQN260", "current_trial": 81, "dateTime": 1512752795447, "trialdata": {"rt": -1, "stimulus": "<p id=\"stim\">7</p>", "key_press": -1, "trial_type": "single-stim", "trial_index": 81, "time_elapsed": 864294, "internal_node_id": "0.0-60.0-3.0"}}, {"uniqueid": "MTK0765:3483FV8BEFQ6QPA5QAJZOKNBCQN260", "current_trial": 82, "dateTime": 1512752796448, "trialdata": {"rt": -1, "stimulus": "<p id=\"stim\">6</p>", "key_press": -1, "trial_type": "single-stim", "trial_index": 82, "time_elapsed": 865295, "internal_node_id": "0.0-60.0-4.0"}}, {"uniqueid": "MTK0765:3483FV8BEFQ6QPA5QAJZOKNBCQN260", "current_trial": 83, "dateTime": 1512752797450, "trialdata": {"rt": -1, "stimulus": "<p id=\"stim\">5</p>", "key_press": -1, "trial_type": "single-stim", "trial_index": 83, "time_elapsed": 866296, "internal_node_id": "0.0-60.0-5.0"}}, {"uniqueid": "MTK0765:3483FV8BEFQ6QPA5QAJZOKNBCQN260", "current_trial": 84, "dateTime": 1512752798452, "trialdata": {"rt": -1, "stimulus": "<p id=\"stim\">4</p>", "key_press": -1, "trial_type": "single-stim", "trial_index": 84, "time_elapsed": 867299, "internal_node_id": "0.0-60.0-6.0"}}, {"uniqueid": "MTK0765:3483FV8BEFQ6QPA5QAJZOKNBCQN260", "current_trial": 85, "dateTime": 1512752799453, "trialdata": {"rt": -1, "stimulus": "<p id=\"stim\">3</p>", "key_press": -1, "trial_type": "single-stim", "trial_index": 85, "time_elapsed": 868300, "internal_node_id": "0.0-60.0-7.0"}}, {"uniqueid": "MTK0765:3483FV8BEFQ6QPA5QAJZOKNBCQN260", "current_trial": 86, "dateTime": 1512752800454, "trialdata": {"rt": -1, "stimulus": "<p id=\"stim\">2</p>", "key_press": -1, "trial_type": "single-stim", "trial_index": 86, "time_elapsed": 869301, "internal_node_id": "0.0-60.0-8.0"}}, {"uniqueid": "MTK0765:3483FV8BEFQ6QPA5QAJZOKNBCQN260", "current_trial": 87, "dateTime": 1512752801458, "trialdata": {"rt": -1, "stimulus": "<p id=\"stim\">1</p>", "key_press": -1, "trial_type": "single-stim", "trial_index": 87, "time_elapsed": 870304, "internal_node_id": "0.0-60.0-9.0"}}, {"uniqueid": "MTK0765:3483FV8BEFQ6QPA5QAJZOKNBCQN260", "current_trial": 88, "dateTime": 1512752802960, "trialdata": {"rt": -1, "stimulus": "<p id=\"stim\">+</p>", "key_press": -1, "type": "FIXATION", "trial_type": "single-stim", "trial_index": 88, "time_elapsed": 871807, "internal_node_id": "0.0-61.0-0.0"}}, {"uniqueid": "MTK0765:3483FV8BEFQ6QPA5QAJZOKNBCQN260", "current_trial": 89, "dateTime": 1512752805514, "trialdata": {"rt": -1000, "stimulus": "/static/audio/wordpool/CAMEL.wav", "key_press": -1, "type": "PRES_AUD", "word": "camel", "wordID": 222, "conditions": [24, 1600, "a", 12000], "trial": 2, "serialpos": 0, "trial_type": "single-audio", "trial_index": 89, "time_elapsed": 874361, "internal_node_id": "0.0-62.0"}}, {"uniqueid": "MTK0765:3483FV8BEFQ6QPA5QAJZOKNBCQN260", "current_trial": 90, "dateTime": 1512752807969, "trialdata": {"rt": -1000, "stimulus": "/static/audio/wordpool/ULCER.wav", "key_press": -1, "type": "PRES_AUD", "word": "ulcer", "wordID": 1532, "conditions": [24, 1600, "a", 12000], "trial": 2, "serialpos": 1, "trial_type": "single-audio", "trial_index": 90, "time_elapsed": 876816, "internal_node_id": "0.0-63.0"}}, {"uniqueid": "MTK0765:3483FV8BEFQ6QPA5QAJZOKNBCQN260", "current_trial": 91, "dateTime": 1512752810751, "trialdata": {"rt": -1000, "stimulus": "/static/audio/wordpool/ITEM.wav", "key_press": -1, "type": "PRES_AUD", "word": "item", "wordID": 745, "conditions": [24, 1600, "a", 12000], "trial": 2, "serialpos": 2, "trial_type": "single-audio", "trial_index": 91, "time_elapsed": 879598, "internal_node_id": "0.0-64.0"}}, {"uniqueid": "MTK0765:3483FV8BEFQ6QPA5QAJZOKNBCQN260", "current_trial": 92, "dateTime": 1512752813209, "trialdata": {"rt": -1000, "stimulus": "/static/audio/wordpool/LADY.wav", "key_press": -1, "type": "PRES_AUD", "word": "lady", "wordID": 793, "conditions": [24, 1600, "a", 12000], "trial": 2, "serialpos": 3, "trial_type": "single-audio", "trial_index": 92, "time_elapsed": 882056, "internal_node_id": "0.0-65.0"}}, {"uniqueid": "MTK0765:3483FV8BEFQ6QPA5QAJZOKNBCQN260", "current_trial": 93, "dateTime": 1512752815783, "trialdata": {"rt": -1000, "stimulus": "/static/audio/wordpool/OUTFIT.wav", "key_press": -1, "type": "PRES_AUD", "word": "outfit", "wordID": 987, "conditions": [24, 1600, "a", 12000], "trial": 2, "serialpos": 4, "trial_type": "single-audio", "trial_index": 93, "time_elapsed": 884630, "internal_node_id": "0.0-66.0"}}, {"uniqueid": "MTK0765:3483FV8BEFQ6QPA5QAJZOKNBCQN260", "current_trial": 94, "dateTime": 1512752818198, "trialdata": {"rt": -1000, "stimulus": "/static/audio/wordpool/GUARD.wav", "key_press": -1, "type": "PRES_AUD", "word": "guard", "wordID": 666, "conditions": [24, 1600, "a", 12000], "trial": 2, "serialpos": 5, "trial_type": "single-audio", "trial_index": 94, "time_elapsed": 887045, "internal_node_id": "0.0-67.0"}}, {"uniqueid": "MTK0765:3483FV8BEFQ6QPA5QAJZOKNBCQN260", "current_trial": 95, "dateTime": 1512752820744, "trialdata": {"rt": -1000, "stimulus": "/static/audio/wordpool/DONKEY.wav", "key_press": -1, "type": "PRES_AUD", "word": "donkey", "wordID": 483, "conditions": [24, 1600, "a", 12000], "trial": 2, "serialpos": 6, "trial_type": "single-audio", "trial_index": 95, "time_elapsed": 889591, "internal_node_id": "0.0-68.0"}}, {"uniqueid": "MTK0765:3483FV8BEFQ6QPA5QAJZOKNBCQN260", "current_trial": 96, "dateTime": 1512752823182, "trialdata": {"rt": -1000, "stimulus": "/static/audio/wordpool/BREAST.wav", "key_press": -1, "type": "PRES_AUD", "word": "breast", "wordID": 170, "conditions": [24, 1600, "a", 12000], "trial": 2, "serialpos": 7, "trial_type": "single-audio", "trial_index": 96, "time_elapsed": 892029, "internal_node_id": "0.0-69.0"}}, {"uniqueid": "MTK0765:3483FV8BEFQ6QPA5QAJZOKNBCQN260", "current_trial": 97, "dateTime": 1512752825640, "trialdata": {"rt": -1000, "stimulus": "/static/audio/wordpool/SCALPEL.wav", "key_press": -1, "type": "PRES_AUD", "word": "scalpel", "wordID": 1242, "conditions": [24, 1600, "a", 12000], "trial": 2, "serialpos": 8, "trial_type": "single-audio", "trial_index": 97, "time_elapsed": 894487, "internal_node_id": "0.0-70.0"}}, {"uniqueid": "MTK0765:3483FV8BEFQ6QPA5QAJZOKNBCQN260", "current_trial": 98, "dateTime": 1512752828105, "trialdata": {"rt": -1000, "stimulus": "/static/audio/wordpool/WORKER.wav", "key_press": -1, "type": "PRES_AUD", "word": "worker", "wordID": 1620, "conditions": [24, 1600, "a", 12000], "trial": 2, "serialpos": 9, "trial_type": "single-audio", "trial_index": 98, "time_elapsed": 896952, "internal_node_id": "0.0-71.0"}}, {"uniqueid": "MTK0765:3483FV8BEFQ6QPA5QAJZOKNBCQN260", "current_trial": 99, "dateTime": 1512752830760, "trialdata": {"rt": -1000, "stimulus": "/static/audio/wordpool/FRUIT.wav", "key_press": -1, "type": "PRES_AUD", "word": "fruit", "wordID": 609, "conditions": [24, 1600, "a", 12000], "trial": 2, "serialpos": 10, "trial_type": "single-audio", "trial_index": 99, "time_elapsed": 899607, "internal_node_id": "0.0-72.0"}}, {"uniqueid": "MTK0765:3483FV8BEFQ6QPA5QAJZOKNBCQN260", "current_trial": 100, "dateTime": 1512752833245, "trialdata": {"rt": -1000, "stimulus": "/static/audio/wordpool/LETTUCE.wav", "key_press": -1, "type": "PRES_AUD", "word": "lettuce", "wordID": 813, "conditions": [24, 1600, "a", 12000], "trial": 2, "serialpos": 11, "trial_type": "single-audio", "trial_index": 100, "time_elapsed": 902092, "internal_node_id": "0.0-73.0"}}, {"uniqueid": "MTK0765:3483FV8BEFQ6QPA5QAJZOKNBCQN260", "current_trial": 101, "dateTime": 1512752836001, "trialdata": {"rt": -1000, "stimulus": "/static/audio/wordpool/ROBBER.wav", "key_press": -1, "type": "PRES_AUD", "word": "robber", "wordID": 1196, "conditions": [24, 1600, "a", 12000], "trial": 2, "serialpos": 12, "trial_type": "single-audio", "trial_index": 101, "time_elapsed": 904848, "internal_node_id": "0.0-74.0"}}, {"uniqueid": "MTK0765:3483FV8BEFQ6QPA5QAJZOKNBCQN260", "current_trial": 102, "dateTime": 1512752838464, "trialdata": {"rt": -1000, "stimulus": "/static/audio/wordpool/SHELF.wav", "key_press": -1, "type": "PRES_AUD", "word": "shelf", "wordID": 1279, "conditions": [24, 1600, "a", 12000], "trial": 2, "serialpos": 13, "trial_type": "single-audio", "trial_index": 102, "time_elapsed": 907311, "internal_node_id": "0.0-75.0"}}, {"uniqueid": "MTK0765:3483FV8BEFQ6QPA5QAJZOKNBCQN260", "current_trial": 103, "dateTime": 1512752841089, "trialdata": {"rt": -1000, "stimulus": "/static/audio/wordpool/SANDWICH.wav", "key_press": -1, "type": "PRES_AUD", "word": "sandwich", "wordID": 1231, "conditions": [24, 1600, "a", 12000], "trial": 2, "serialpos": 14, "trial_type": "single-audio", "trial_index": 103, "time_elapsed": 909936, "internal_node_id": "0.0-76.0"}}, {"uniqueid": "MTK0765:3483FV8BEFQ6QPA5QAJZOKNBCQN260", "current_trial": 104, "dateTime": 1512752843757, "trialdata": {"rt": -1000, "stimulus": "/static/audio/wordpool/MASK.wav", "key_press": -1, "type": "PRES_AUD", "word": "mask", "wordID": 875, "conditions": [24, 1600, "a", 12000], "trial": 2, "serialpos": 15, "trial_type": "single-audio", "trial_index": 104, "time_elapsed": 912604, "internal_node_id": "0.0-77.0"}}, {"uniqueid": "MTK0765:3483FV8BEFQ6QPA5QAJZOKNBCQN260", "current_trial": 105, "dateTime": 1512752846327, "trialdata": {"rt": -1000, "stimulus": "/static/audio/wordpool/NOTEBOOK.wav", "key_press": -1, "type": "PRES_AUD", "word": "notebook", "wordID": 958, "conditions": [24, 1600, "a", 12000], "trial": 2, "serialpos": 16, "trial_type": "single-audio", "trial_index": 105, "time_elapsed": 915174, "internal_node_id": "0.0-78.0"}}, {"uniqueid": "MTK0765:3483FV8BEFQ6QPA5QAJZOKNBCQN260", "current_trial": 106, "dateTime": 1512752848868, "trialdata": {"rt": -1000, "stimulus": "/static/audio/wordpool/THIEF.wav", "key_press": -1, "type": "PRES_AUD", "word": "thief", "wordID": 1455, "conditions": [24, 1600, "a", 12000], "trial": 2, "serialpos": 17, "trial_type": "single-audio", "trial_index": 106, "time_elapsed": 917715, "internal_node_id": "0.0-79.0"}}, {"uniqueid": "MTK0765:3483FV8BEFQ6QPA5QAJZOKNBCQN260", "current_trial": 107, "dateTime": 1512752851513, "trialdata": {"rt": -1000, "stimulus": "/static/audio/wordpool/NURSE.wav", "key_press": -1, "type": "PRES_AUD", "word": "nurse", "wordID": 962, "conditions": [24, 1600, "a", 12000], "trial": 2, "serialpos": 18, "trial_type": "single-audio", "trial_index": 107, "time_elapsed": 920360, "internal_node_id": "0.0-80.0"}}, {"uniqueid": "MTK0765:3483FV8BEFQ6QPA5QAJZOKNBCQN260", "current_trial": 108, "dateTime": 1512752854086, "trialdata": {"rt": -1000, "stimulus": "/static/audio/wordpool/PATIENT.wav", "key_press": -1, "type": "PRES_AUD", "word": "patient", "wordID": 1023, "conditions": [24, 1600, "a", 12000], "trial": 2, "serialpos": 19, "trial_type": "single-audio", "trial_index": 108, "time_elapsed": 922933, "internal_node_id": "0.0-81.0"}}, {"uniqueid": "MTK0765:3483FV8BEFQ6QPA5QAJZOKNBCQN260", "current_trial": 109, "dateTime": 1512752856708, "trialdata": {"rt": -1000, "stimulus": "/static/audio/wordpool/KLEENEX.wav", "key_press": -1, "type": "PRES_AUD", "word": "kleenex", "wordID": 781, "conditions": [24, 1600, "a", 12000], "trial": 2, "serialpos": 20, "trial_type": "single-audio", "trial_index": 109, "time_elapsed": 925555, "internal_node_id": "0.0-82.0"}}, {"uniqueid": "MTK0765:3483FV8BEFQ6QPA5QAJZOKNBCQN260", "current_trial": 110, "dateTime": 1512752859366, "trialdata": {"rt": -1000, "stimulus": "/static/audio/wordpool/AWARD.wav", "key_press": -1, "type": "PRES_AUD", "word": "award", "wordID": 62, "conditions": [24, 1600, "a", 12000], "trial": 2, "serialpos": 21, "trial_type": "single-audio", "trial_index": 110, "time_elapsed": 928212, "internal_node_id": "0.0-83.0"}}, {"uniqueid": "MTK0765:3483FV8BEFQ6QPA5QAJZOKNBCQN260", "current_trial": 111, "dateTime": 1512752861957, "trialdata": {"rt": -1000, "stimulus": "/static/audio/wordpool/GIFT.wav", "key_press": -1, "type": "PRES_AUD", "word": "gift", "wordID": 634, "conditions": [24, 1600, "a", 12000], "trial": 2, "serialpos": 22, "trial_type": "single-audio", "trial_index": 111, "time_elapsed": 930804, "internal_node_id": "0.0-84.0"}}, {"uniqueid": "MTK0765:3483FV8BEFQ6QPA5QAJZOKNBCQN260", "current_trial": 112, "dateTime": 1512752864734, "trialdata": {"rt": -1000, "stimulus": "/static/audio/wordpool/STREAM.wav", "key_press": -1, "type": "PRES_AUD", "word": "stream", "wordID": 1391, "conditions": [24, 1600, "a", 12000], "trial": 2, "serialpos": 23, "trial_type": "single-audio", "trial_index": 112, "time_elapsed": 933581, "internal_node_id": "0.0-85.0"}}, {"uniqueid": "MTK0765:3483FV8BEFQ6QPA5QAJZOKNBCQN260", "current_trial": 113, "dateTime": 1512752866038, "trialdata": {"rt": -1, "stimulus": "", "key_press": -1, "type": "PRE_RECALL_DELAY", "trial_type": "single-stim", "trial_index": 113, "time_elapsed": 934884, "internal_node_id": "0.0-86.0-0.0"}}, {"uniqueid": "MTK0765:3483FV8BEFQ6QPA5QAJZOKNBCQN260", "current_trial": 114, "dateTime": 1512752866540, "trialdata": {"rt": -1000, "stimulus": "/static/audio/400Hz.wav", "key_press": -1, "type": "PRE_RECALL_ALERT", "trial_type": "single-audio", "trial_index": 114, "time_elapsed": 935387, "internal_node_id": "0.0-87.0"}}, {"uniqueid": "MTK0765:3483FV8BEFQ6QPA5QAJZOKNBCQN260", "current_trial": 115, "dateTime": 1512752926551, "trialdata": {"rt": [15055, 23557, 27754, 37009, 42947, 50268], "recwords": ["utensil", "lady", "nurse", "patient", "kleenex", "robber"], "type": "FREE_RECALL", "conditions": [24, 1600, "a", 12000], "trial": 2, "trial_type": "free-recall", "trial_index": 115, "time_elapsed": 995391, "internal_node_id": "0.0-88.0-0.0"}}, {"uniqueid": "MTK0765:3483FV8BEFQ6QPA5QAJZOKNBCQN260", "current_trial": 116, "dateTime": 1512752939603, "trialdata": {"rt": 11051, "key_press": 13, "type": "INSTRUCTIONS", "trial_type": "text", "trial_index": 116, "time_elapsed": 1008450, "internal_node_id": "0.0-89.0"}}, {"uniqueid": "MTK0765:3483FV8BEFQ6QPA5QAJZOKNBCQN260", "current_trial": 117, "dateTime": 1512752965606, "trialdata": {"rt": [4165, 8791, 11999, 15596, 18777, 23178], "responses": ["13", "16", "11", "21", "19", "17"], "num1": [7, 6, 2, 9, 1, 8, 7], "num2": [5, 2, 4, 7, 9, 3, 2], "num3": [1, 8, 5, 5, 9, 6, 9], "type": "DISTRACTOR", "conditions": [24, 800, "v", 24000], "trial": 3, "trial_type": "math-distractor", "trial_index": 117, "time_elapsed": 1034453, "internal_node_id": "0.0-90.0"}}, {"uniqueid": "MTK0765:3483FV8BEFQ6QPA5QAJZOKNBCQN260", "current_trial": 118, "dateTime": 1512752968611, "trialdata": {"rt": -1, "stimulus": "<p id=\"stim\">10</p>", "key_press": -1, "trial_type": "single-stim", "trial_index": 118, "time_elapsed": 1037458, "internal_node_id": "0.0-91.0-0.0"}}, {"uniqueid": "MTK0765:3483FV8BEFQ6QPA5QAJZOKNBCQN260", "current_trial": 119, "dateTime": 1512752969612, "trialdata": {"rt": -1, "stimulus": "<p id=\"stim\">9</p>", "key_press": -1, "trial_type": "single-stim", "trial_index": 119, "time_elapsed": 1038459, "internal_node_id": "0.0-91.0-1.0"}}, {"uniqueid": "MTK0765:3483FV8BEFQ6QPA5QAJZOKNBCQN260", "current_trial": 120, "dateTime": 1512752970614, "trialdata": {"rt": -1, "stimulus": "<p id=\"stim\">8</p>", "key_press": -1, "trial_type": "single-stim", "trial_index": 120, "time_elapsed": 1039460, "internal_node_id": "0.0-91.0-2.0"}}, {"uniqueid": "MTK0765:3483FV8BEFQ6QPA5QAJZOKNBCQN260", "current_trial": 121, "dateTime": 1512752971616, "trialdata": {"rt": -1, "stimulus": "<p id=\"stim\">7</p>", "key_press": -1, "trial_type": "single-stim", "trial_index": 121, "time_elapsed": 1040462, "internal_node_id": "0.0-91.0-3.0"}}, {"uniqueid": "MTK0765:3483FV8BEFQ6QPA5QAJZOKNBCQN260", "current_trial": 122, "dateTime": 1512752972618, "trialdata": {"rt": -1, "stimulus": "<p id=\"stim\">6</p>", "key_press": -1, "trial_type": "single-stim", "trial_index": 122, "time_elapsed": 1041465, "internal_node_id": "0.0-91.0-4.0"}}, {"uniqueid": "MTK0765:3483FV8BEFQ6QPA5QAJZOKNBCQN260", "current_trial": 123, "dateTime": 1512752973620, "trialdata": {"rt": -1, "stimulus": "<p id=\"stim\">5</p>", "key_press": -1, "trial_type": "single-stim", "trial_index": 123, "time_elapsed": 1042467, "internal_node_id": "0.0-91.0-5.0"}}, {"uniqueid": "MTK0765:3483FV8BEFQ6QPA5QAJZOKNBCQN260", "current_trial": 124, "dateTime": 1512752974622, "trialdata": {"rt": -1, "stimulus": "<p id=\"stim\">4</p>", "key_press": -1, "trial_type": "single-stim", "trial_index": 124, "time_elapsed": 1043468, "internal_node_id": "0.0-91.0-6.0"}}, {"uniqueid": "MTK0765:3483FV8BEFQ6QPA5QAJZOKNBCQN260", "current_trial": 125, "dateTime": 1512752975624, "trialdata": {"rt": -1, "stimulus": "<p id=\"stim\">3</p>", "key_press": -1, "trial_type": "single-stim", "trial_index": 125, "time_elapsed": 1044470, "internal_node_id": "0.0-91.0-7.0"}}, {"uniqueid": "MTK0765:3483FV8BEFQ6QPA5QAJZOKNBCQN260", "current_trial": 126, "dateTime": 1512752976626, "trialdata": {"rt": -1, "stimulus": "<p id=\"stim\">2</p>", "key_press": -1, "trial_type": "single-stim", "trial_index": 126, "time_elapsed": 1045472, "internal_node_id": "0.0-91.0-8.0"}}, {"uniqueid": "MTK0765:3483FV8BEFQ6QPA5QAJZOKNBCQN260", "current_trial": 127, "dateTime": 1512752977627, "trialdata": {"rt": -1, "stimulus": "<p id=\"stim\">1</p>", "key_press": -1, "trial_type": "single-stim", "trial_index": 127, "time_elapsed": 1046474, "internal_node_id": "0.0-91.0-9.0"}}, {"uniqueid": "MTK0765:3483FV8BEFQ6QPA5QAJZOKNBCQN260", "current_trial": 128, "dateTime": 1512752979130, "trialdata": {"rt": -1, "stimulus": "<p id=\"stim\">+</p>", "key_press": -1, "type": "FIXATION", "trial_type": "single-stim", "trial_index": 128, "time_elapsed": 1047977, "internal_node_id": "0.0-92.0-0.0"}}, {"uniqueid": "MTK0765:3483FV8BEFQ6QPA5QAJZOKNBCQN260", "current_trial": 129, "dateTime": 1512752979931, "trialdata": {"rt": -1, "stimulus": "<p id=\"stim\">BEEF</p>", "key_press": -1, "type": "PRES_VIS", "word": "beef", "wordID": 112, "conditions": [24, 800, "v", 24000], "trial": 3, "serialpos": 0, "trial_type": "single-stim", "trial_index": 129, "time_elapsed": 1048778, "internal_node_id": "0.0-93.0"}}, {"uniqueid": "MTK0765:3483FV8BEFQ6QPA5QAJZOKNBCQN260", "current_trial": 130, "dateTime": 1512752981664, "trialdata": {"rt": -1, "stimulus": "<p id=\"stim\">SNAKE</p>", "key_press": -1, "type": "PRES_VIS", "word": "snake", "wordID": 1332, "conditions": [24, 800, "v", 24000], "trial": 3, "serialpos": 1, "trial_type": "single-stim", "trial_index": 130, "time_elapsed": 1050511, "internal_node_id": "0.0-94.0"}}, {"uniqueid": "MTK0765:3483FV8BEFQ6QPA5QAJZOKNBCQN260", "current_trial": 131, "dateTime": 1512752983283, "trialdata": {"rt": -1, "stimulus": "<p id=\"stim\">PLASTER</p>", "key_press": -1, "type": "PRES_VIS", "word": "plaster", "wordID": 1084, "conditions": [24, 800, "v", 24000], "trial": 3, "serialpos": 2, "trial_type": "single-stim", "trial_index": 131, "time_elapsed": 1052130, "internal_node_id": "0.0-95.0"}}, {"uniqueid": "MTK0765:3483FV8BEFQ6QPA5QAJZOKNBCQN260", "current_trial": 132, "dateTime": 1512752984954, "trialdata": {"rt": -1, "stimulus": "<p id=\"stim\">PORK</p>", "key_press": -1, "type": "PRES_VIS", "word": "pork", "wordID": 1107, "conditions": [24, 800, "v", 24000], "trial": 3, "serialpos": 3, "trial_type": "single-stim", "trial_index": 132, "time_elapsed": 1053801, "internal_node_id": "0.0-96.0"}}, {"uniqueid": "MTK0765:3483FV8BEFQ6QPA5QAJZOKNBCQN260", "current_trial": 133, "dateTime": 1512752986912, "trialdata": {"rt": -1, "stimulus": "<p id=\"stim\">COSTUME</p>", "key_press": -1, "type": "PRES_VIS", "word": "costume", "wordID": 382, "conditions": [24, 800, "v", 24000], "trial": 3, "serialpos": 4, "trial_type": "single-stim", "trial_index": 133, "time_elapsed": 1055758, "internal_node_id": "0.0-97.0"}}, {"uniqueid": "MTK0765:3483FV8BEFQ6QPA5QAJZOKNBCQN260", "current_trial": 134, "dateTime": 1512752988863, "trialdata": {"rt": -1, "stimulus": "<p id=\"stim\">SCARECROW</p>", "key_press": -1, "type": "PRES_VIS", "word": "scarecrow", "wordID": 1244, "conditions": [24, 800, "v", 24000], "trial": 3, "serialpos": 5, "trial_type": "single-stim", "trial_index": 134, "time_elapsed": 1057710, "internal_node_id": "0.0-98.0"}}, {"uniqueid": "MTK0765:3483FV8BEFQ6QPA5QAJZOKNBCQN260", "current_trial": 135, "dateTime": 1512752990477, "trialdata": {"rt": -1, "stimulus": "<p id=\"stim\">HATCHET</p>", "key_press": -1, "type": "PRES_VIS", "word": "hatchet", "wordID": 690, "conditions": [24, 800, "v", 24000], "trial": 3, "serialpos": 6, "trial_type": "single-stim", "trial_index": 135, "time_elapsed": 1059323, "internal_node_id": "0.0-99.0"}}, {"uniqueid": "MTK0765:3483FV8BEFQ6QPA5QAJZOKNBCQN260", "current_trial": 136, "dateTime": 1512752992428, "trialdata": {"rt": -1, "stimulus": "<p id=\"stim\">PLIERS</p>", "key_press": -1, "type": "PRES_VIS", "word": "pliers", "wordID": 1088, "conditions": [24, 800, "v", 24000], "trial": 3, "serialpos": 7, "trial_type": "single-stim", "trial_index": 136, "time_elapsed": 1061274, "internal_node_id": "0.0-100.0"}}, {"uniqueid": "MTK0765:3483FV8BEFQ6QPA5QAJZOKNBCQN260", "current_trial": 137, "dateTime": 1512752994402, "trialdata": {"rt": -1, "stimulus": "<p id=\"stim\">WORLD</p>", "key_press": -1, "type": "PRES_VIS", "word": "world", "wordID": 1621, "conditions": [24, 800, "v", 24000], "trial": 3, "serialpos": 8, "trial_type": "single-stim", "trial_index": 137, "time_elapsed": 1063249, "internal_node_id": "0.0-101.0"}}, {"uniqueid": "MTK0765:3483FV8BEFQ6QPA5QAJZOKNBCQN260", "current_trial": 138, "dateTime": 1512752996027, "trialdata": {"rt": -1, "stimulus": "<p id=\"stim\">TREAT</p>", "key_press": -1, "type": "PRES_VIS", "word": "treat", "wordID": 1500, "conditions": [24, 800, "v", 24000], "trial": 3, "serialpos": 9, "trial_type": "single-stim", "trial_index": 138, "time_elapsed": 1064874, "internal_node_id": "0.0-102.0"}}, {"uniqueid": "MTK0765:3483FV8BEFQ6QPA5QAJZOKNBCQN260", "current_trial": 139, "dateTime": 1512752997817, "trialdata": {"rt": -1, "stimulus": "<p id=\"stim\">TURNIP</p>", "key_press": -1, "type": "PRES_VIS", "word": "turnip", "wordID": 1520, "conditions": [24, 800, "v", 24000], "trial": 3, "serialpos": 10, "trial_type": "single-stim", "trial_index": 139, "time_elapsed": 1066663, "internal_node_id": "0.0-103.0"}}, {"uniqueid": "MTK0765:3483FV8BEFQ6QPA5QAJZOKNBCQN260", "current_trial": 140, "dateTime": 1512752999744, "trialdata": {"rt": -1, "stimulus": "<p id=\"stim\">UNCLE</p>", "key_press": -1, "type": "PRES_VIS", "word": "uncle", "wordID": 1535, "conditions": [24, 800, "v", 24000], "trial": 3, "serialpos": 11, "trial_type": "single-stim", "trial_index": 140, "time_elapsed": 1068591, "internal_node_id": "0.0-104.0"}}, {"uniqueid": "MTK0765:3483FV8BEFQ6QPA5QAJZOKNBCQN260", "current_trial": 141, "dateTime": 1512753001743, "trialdata": {"rt": -1, "stimulus": "<p id=\"stim\">SKIRT</p>", "key_press": -1, "type": "PRES_VIS", "word": "skirt", "wordID": 1318, "conditions": [24, 800, "v", 24000], "trial": 3, "serialpos": 12, "trial_type": "single-stim", "trial_index": 141, "time_elapsed": 1070590, "internal_node_id": "0.0-105.0"}}, {"uniqueid": "MTK0765:3483FV8BEFQ6QPA5QAJZOKNBCQN260", "current_trial": 142, "dateTime": 1512753003399, "trialdata": {"rt": -1, "stimulus": "<p id=\"stim\">LIZARD</p>", "key_press": -1, "type": "PRES_VIS", "word": "lizard", "wordID": 833, "conditions": [24, 800, "v", 24000], "trial": 3, "serialpos": 13, "trial_type": "single-stim", "trial_index": 142, "time_elapsed": 1072245, "internal_node_id": "0.0-106.0"}}, {"uniqueid": "MTK0765:3483FV8BEFQ6QPA5QAJZOKNBCQN260", "current_trial": 143, "dateTime": 1512753005223, "trialdata": {"rt": -1, "stimulus": "<p id=\"stim\">GOBLIN</p>", "key_press": -1, "type": "PRES_VIS", "word": "goblin", "wordID": 644, "conditions": [24, 800, "v", 24000], "trial": 3, "serialpos": 14, "trial_type": "single-stim", "trial_index": 143, "time_elapsed": 1074070, "internal_node_id": "0.0-107.0"}}, {"uniqueid": "MTK0765:3483FV8BEFQ6QPA5QAJZOKNBCQN260", "current_trial": 144, "dateTime": 1512753006891, "trialdata": {"rt": -1, "stimulus": "<p id=\"stim\">TEACHER</p>", "key_press": -1, "type": "PRES_VIS", "word": "teacher", "wordID": 1439, "conditions": [24, 800, "v", 24000], "trial": 3, "serialpos": 15, "trial_type": "single-stim", "trial_index": 144, "time_elapsed": 1075738, "internal_node_id": "0.0-108.0"}}, {"uniqueid": "MTK0765:3483FV8BEFQ6QPA5QAJZOKNBCQN260", "current_trial": 145, "dateTime": 1512753008545, "trialdata": {"rt": -1, "stimulus": "<p id=\"stim\">CRICKET</p>", "key_press": -1, "type": "PRES_VIS", "word": "cricket", "wordID": 407, "conditions": [24, 800, "v", 24000], "trial": 3, "serialpos": 16, "trial_type": "single-stim", "trial_index": 145, "time_elapsed": 1077391, "internal_node_id": "0.0-109.0"}}, {"uniqueid": "MTK0765:3483FV8BEFQ6QPA5QAJZOKNBCQN260", "current_trial": 146, "dateTime": 1512753010341, "trialdata": {"rt": -1, "stimulus": "<p id=\"stim\">SLOPE</p>", "key_press": -1, "type": "PRES_VIS", "word": "slope", "wordID": 1327, "conditions": [24, 800, "v", 24000], "trial": 3, "serialpos": 17, "trial_type": "single-stim", "trial_index": 146, "time_elapsed": 1079188, "internal_node_id": "0.0-110.0"}}, {"uniqueid": "MTK0765:3483FV8BEFQ6QPA5QAJZOKNBCQN260", "current_trial": 147, "dateTime": 1512753012320, "trialdata": {"rt": -1, "stimulus": "<p id=\"stim\">CONTRACT</p>", "key_press": -1, "type": "PRES_VIS", "word": "contract", "wordID": 367, "conditions": [24, 800, "v", 24000], "trial": 3, "serialpos": 18, "trial_type": "single-stim", "trial_index": 147, "time_elapsed": 1081167, "internal_node_id": "0.0-111.0"}}, {"uniqueid": "MTK0765:3483FV8BEFQ6QPA5QAJZOKNBCQN260", "current_trial": 148, "dateTime": 1512753014039, "trialdata": {"rt": -1, "stimulus": "<p id=\"stim\">MONEY</p>", "key_press": -1, "type": "PRES_VIS", "word": "money", "wordID": 907, "conditions": [24, 800, "v", 24000], "trial": 3, "serialpos": 19, "trial_type": "single-stim", "trial_index": 148, "time_elapsed": 1082886, "internal_node_id": "0.0-112.0"}}, {"uniqueid": "MTK0765:3483FV8BEFQ6QPA5QAJZOKNBCQN260", "current_trial": 149, "dateTime": 1512753015735, "trialdata": {"rt": -1, "stimulus": "<p id=\"stim\">DRESSER</p>", "key_press": -1, "type": "PRES_VIS", "word": "dresser", "wordID": 495, "conditions": [24, 800, "v", 24000], "trial": 3, "serialpos": 20, "trial_type": "single-stim", "trial_index": 149, "time_elapsed": 1084581, "internal_node_id": "0.0-113.0"}}, {"uniqueid": "MTK0765:3483FV8BEFQ6QPA5QAJZOKNBCQN260", "current_trial": 150, "dateTime": 1512753017439, "trialdata": {"rt": -1, "stimulus": "<p id=\"stim\">CUPBOARD</p>", "key_press": -1, "type": "PRES_VIS", "word": "cupboard", "wordID": 424, "conditions": [24, 800, "v", 24000], "trial": 3, "serialpos": 21, "trial_type": "single-stim", "trial_index": 150, "time_elapsed": 1086286, "internal_node_id": "0.0-114.0"}}, {"uniqueid": "MTK0765:3483FV8BEFQ6QPA5QAJZOKNBCQN260", "current_trial": 151, "dateTime": 1512753019186, "trialdata": {"rt": -1, "stimulus": "<p id=\"stim\">STUDENT</p>", "key_press": -1, "type": "PRES_VIS", "word": "student", "wordID": 1394, "conditions": [24, 800, "v", 24000], "trial": 3, "serialpos": 22, "trial_type": "single-stim", "trial_index": 151, "time_elapsed": 1088033, "internal_node_id": "0.0-115.0"}}, {"uniqueid": "MTK0765:3483FV8BEFQ6QPA5QAJZOKNBCQN260", "current_trial": 152, "dateTime": 1512753021163, "trialdata": {"rt": -1, "stimulus": "<p id=\"stim\">BROOK</p>", "key_press": -1, "type": "PRES_VIS", "word": "brook", "wordID": 176, "conditions": [24, 800, "v", 24000], "trial": 3, "serialpos": 23, "trial_type": "single-stim", "trial_index": 152, "time_elapsed": 1090010, "internal_node_id": "0.0-116.0"}}, {"uniqueid": "MTK0765:3483FV8BEFQ6QPA5QAJZOKNBCQN260", "current_trial": 153, "dateTime": 1512753023405, "trialdata": {"rt": -1, "stimulus": "", "key_press": -1, "type": "PRE_RECALL_DELAY", "trial_type": "single-stim", "trial_index": 153, "time_elapsed": 1092251, "internal_node_id": "0.0-117.0-0.0"}}, {"uniqueid": "MTK0765:3483FV8BEFQ6QPA5QAJZOKNBCQN260", "current_trial": 154, "dateTime": 1512753023907, "trialdata": {"rt": -1000, "stimulus": "/static/audio/400Hz.wav", "key_press": -1, "type": "PRE_RECALL_ALERT", "trial_type": "single-audio", "trial_index": 154, "time_elapsed": 1092754, "internal_node_id": "0.0-118.0"}}, {"uniqueid": "MTK0765:3483FV8BEFQ6QPA5QAJZOKNBCQN260", "current_trial": 155, "dateTime": 1512753083916, "trialdata": {"rt": [9261, 21173, 31560, 41755, 47619, 52964], "recwords": ["brook", "slope", "costume", "goblin", "money", "student"], "type": "FREE_RECALL", "conditions": [24, 800, "v", 24000], "trial": 3, "trial_type": "free-recall", "trial_index": 155, "time_elapsed": 1152758, "internal_node_id": "0.0-119.0-0.0"}}, {"uniqueid": "MTK0765:3483FV8BEFQ6QPA5QAJZOKNBCQN260", "current_trial": 156, "dateTime": 1512753100627, "trialdata": {"rt": 14709, "key_press": 32, "type": "INSTRUCTIONS", "trial_type": "text", "trial_index": 156, "time_elapsed": 1169474, "internal_node_id": "0.0-120.0"}}, {"uniqueid": "MTK0765:3483FV8BEFQ6QPA5QAJZOKNBCQN260", "current_trial": 157, "dateTime": 1512753126630, "trialdata": {"rt": [4970, 10476, 14509, 18751, 23340], "responses": ["21", "15", "19", "20", "20"], "num1": [9, 8, 5, 8, 8, 4], "num2": [8, 3, 6, 7, 9, 7], "num3": [4, 4, 8, 5, 3, 1], "type": "DISTRACTOR", "conditions": [24, 1600, "a", 24000], "trial": 4, "trial_type": "math-distractor", "trial_index": 157, "time_elapsed": 1195477, "internal_node_id": "0.0-121.0"}}, {"uniqueid": "MTK0765:3483FV8BEFQ6QPA5QAJZOKNBCQN260", "current_trial": 158, "dateTime": 1512753129633, "trialdata": {"rt": -1, "stimulus": "<p id=\"stim\">10</p>", "key_press": -1, "trial_type": "single-stim", "trial_index": 158, "time_elapsed": 1198479, "internal_node_id": "0.0-122.0-0.0"}}, {"uniqueid": "MTK0765:3483FV8BEFQ6QPA5QAJZOKNBCQN260", "current_trial": 159, "dateTime": 1512753130635, "trialdata": {"rt": -1, "stimulus": "<p id=\"stim\">9</p>", "key_press": -1, "trial_type": "single-stim", "trial_index": 159, "time_elapsed": 1199482, "internal_node_id": "0.0-122.0-1.0"}}, {"uniqueid": "MTK0765:3483FV8BEFQ6QPA5QAJZOKNBCQN260", "current_trial": 160, "dateTime": 1512753131638, "trialdata": {"rt": -1, "stimulus": "<p id=\"stim\">8</p>", "key_press": -1, "trial_type": "single-stim", "trial_index": 160, "time_elapsed": 1200485, "internal_node_id": "0.0-122.0-2.0"}}, {"uniqueid": "MTK0765:3483FV8BEFQ6QPA5QAJZOKNBCQN260", "current_trial": 161, "dateTime": 1512753132640, "trialdata": {"rt": -1, "stimulus": "<p id=\"stim\">7</p>", "key_press": -1, "trial_type": "single-stim", "trial_index": 161, "time_elapsed": 1201487, "internal_node_id": "0.0-122.0-3.0"}}, {"uniqueid": "MTK0765:3483FV8BEFQ6QPA5QAJZOKNBCQN260", "current_trial": 162, "dateTime": 1512753133643, "trialdata": {"rt": -1, "stimulus": "<p id=\"stim\">6</p>", "key_press": -1, "trial_type": "single-stim", "trial_index": 162, "time_elapsed": 1202490, "internal_node_id": "0.0-122.0-4.0"}}, {"uniqueid": "MTK0765:3483FV8BEFQ6QPA5QAJZOKNBCQN260", "current_trial": 163, "dateTime": 1512753134647, "trialdata": {"rt": -1, "stimulus": "<p id=\"stim\">5</p>", "key_press": -1, "trial_type": "single-stim", "trial_index": 163, "time_elapsed": 1203493, "internal_node_id": "0.0-122.0-5.0"}}, {"uniqueid": "MTK0765:3483FV8BEFQ6QPA5QAJZOKNBCQN260", "current_trial": 164, "dateTime": 1512753135647, "trialdata": {"rt": -1, "stimulus": "<p id=\"stim\">4</p>", "key_press": -1, "trial_type": "single-stim", "trial_index": 164, "time_elapsed": 1204494, "internal_node_id": "0.0-122.0-6.0"}}, {"uniqueid": "MTK0765:3483FV8BEFQ6QPA5QAJZOKNBCQN260", "current_trial": 165, "dateTime": 1512753136650, "trialdata": {"rt": -1, "stimulus": "<p id=\"stim\">3</p>", "key_press": -1, "trial_type": "single-stim", "trial_index": 165, "time_elapsed": 1205496, "internal_node_id": "0.0-122.0-7.0"}}, {"uniqueid": "MTK0765:3483FV8BEFQ6QPA5QAJZOKNBCQN260", "current_trial": 166, "dateTime": 1512753137652, "trialdata": {"rt": -1, "stimulus": "<p id=\"stim\">2</p>", "key_press": -1, "trial_type": "single-stim", "trial_index": 166, "time_elapsed": 1206499, "internal_node_id": "0.0-122.0-8.0"}}, {"uniqueid": "MTK0765:3483FV8BEFQ6QPA5QAJZOKNBCQN260", "current_trial": 167, "dateTime": 1512753138654, "trialdata": {"rt": -1, "stimulus": "<p id=\"stim\">1</p>", "key_press": -1, "trial_type": "single-stim", "trial_index": 167, "time_elapsed": 1207500, "internal_node_id": "0.0-122.0-9.0"}}, {"uniqueid": "MTK0765:3483FV8BEFQ6QPA5QAJZOKNBCQN260", "current_trial": 168, "dateTime": 1512753140156, "trialdata": {"rt": -1, "stimulus": "<p id=\"stim\">+</p>", "key_press": -1, "type": "FIXATION", "trial_type": "single-stim", "trial_index": 168, "time_elapsed": 1209003, "internal_node_id": "0.0-123.0-0.0"}}, {"uniqueid": "MTK0765:3483FV8BEFQ6QPA5QAJZOKNBCQN260", "current_trial": 169, "dateTime": 1512753142781, "trialdata": {"rt": -1000, "stimulus": "/static/audio/wordpool/FRAME.wav", "key_press": -1, "type": "PRES_AUD", "word": "frame", "wordID": 599, "conditions": [24, 1600, "a", 24000], "trial": 4, "serialpos": 0, "trial_type": "single-audio", "trial_index": 169, "time_elapsed": 1211628, "internal_node_id": "0.0-124.0"}}, {"uniqueid": "MTK0765:3483FV8BEFQ6QPA5QAJZOKNBCQN260", "current_trial": 170, "dateTime": 1512753145320, "trialdata": {"rt": -1000, "stimulus": "/static/audio/wordpool/SIDEWALK.wav", "key_press": -1, "type": "PRES_AUD", "word": "sidewalk", "wordID": 1302, "conditions": [24, 1600, "a", 24000], "trial": 4, "serialpos": 1, "trial_type": "single-audio", "trial_index": 170, "time_elapsed": 1214167, "internal_node_id": "0.0-125.0"}}, {"uniqueid": "MTK0765:3483FV8BEFQ6QPA5QAJZOKNBCQN260", "current_trial": 171, "dateTime": 1512753147850, "trialdata": {"rt": -1000, "stimulus": "/static/audio/wordpool/CLOTHES.wav", "key_press": -1, "type": "PRES_AUD", "word": "clothes", "wordID": 326, "conditions": [24, 1600, "a", 24000], "trial": 4, "serialpos": 2, "trial_type": "single-audio", "trial_index": 171, "time_elapsed": 1216697, "internal_node_id": "0.0-126.0"}}, {"uniqueid": "MTK0765:3483FV8BEFQ6QPA5QAJZOKNBCQN260", "current_trial": 172, "dateTime": 1512753150413, "trialdata": {"rt": -1000, "stimulus": "/static/audio/wordpool/PISTON.wav", "key_press": -1, "type": "PRES_AUD", "word": "piston", "wordID": 1075, "conditions": [24, 1600, "a", 24000], "trial": 4, "serialpos": 3, "trial_type": "single-audio", "trial_index": 172, "time_elapsed": 1219260, "internal_node_id": "0.0-127.0"}}, {"uniqueid": "MTK0765:3483FV8BEFQ6QPA5QAJZOKNBCQN260", "current_trial": 173, "dateTime": 1512753153175, "trialdata": {"rt": -1000, "stimulus": "/static/audio/wordpool/KNIFE.wav", "key_press": -1, "type": "PRES_AUD", "word": "knife", "wordID": 784, "conditions": [24, 1600, "a", 24000], "trial": 4, "serialpos": 4, "trial_type": "single-audio", "trial_index": 173, "time_elapsed": 1222022, "internal_node_id": "0.0-128.0"}}, {"uniqueid": "MTK0765:3483FV8BEFQ6QPA5QAJZOKNBCQN260", "current_trial": 174, "dateTime": 1512753155634, "trialdata": {"rt": -1000, "stimulus": "/static/audio/wordpool/GUITAR.wav", "key_press": -1, "type": "PRES_AUD", "word": "guitar", "wordID": 669, "conditions": [24, 1600, "a", 24000], "trial": 4, "serialpos": 5, "trial_type": "single-audio", "trial_index": 174, "time_elapsed": 1224481, "internal_node_id": "0.0-129.0"}}, {"uniqueid": "MTK0765:3483FV8BEFQ6QPA5QAJZOKNBCQN260", "current_trial": 175, "dateTime": 1512753158047, "trialdata": {"rt": -1000, "stimulus": "/static/audio/wordpool/HARP.wav", "key_press": -1, "type": "PRES_AUD", "word": "harp", "wordID": 688, "conditions": [24, 1600, "a", 24000], "trial": 4, "serialpos": 6, "trial_type": "single-audio", "trial_index": 175, "time_elapsed": 1226894, "internal_node_id": "0.0-130.0"}}, {"uniqueid": "MTK0765:3483FV8BEFQ6QPA5QAJZOKNBCQN260", "current_trial": 176, "dateTime": 1512753160612, "trialdata": {"rt": -1000, "stimulus": "/static/audio/wordpool/CREATURE.wav", "key_press": -1, "type": "PRES_AUD", "word": "creature", "wordID": 402, "conditions": [24, 1600, "a", 24000], "trial": 4, "serialpos": 7, "trial_type": "single-audio", "trial_index": 176, "time_elapsed": 1229459, "internal_node_id": "0.0-131.0"}}, {"uniqueid": "MTK0765:3483FV8BEFQ6QPA5QAJZOKNBCQN260", "current_trial": 177, "dateTime": 1512753163022, "trialdata": {"rt": -1000, "stimulus": "/static/audio/wordpool/PACKAGE.wav", "key_press": -1, "type": "PRES_AUD", "word": "package", "wordID": 996, "conditions": [24, 1600, "a", 24000], "trial": 4, "serialpos": 8, "trial_type": "single-audio", "trial_index": 177, "time_elapsed": 1231868, "internal_node_id": "0.0-132.0"}}, {"uniqueid": "MTK0765:3483FV8BEFQ6QPA5QAJZOKNBCQN260", "current_trial": 178, "dateTime": 1512753165553, "trialdata": {"rt": -1000, "stimulus": "/static/audio/wordpool/PLAZA.wav", "key_press": -1, "type": "PRES_AUD", "word": "plaza", "wordID": 1087, "conditions": [24, 1600, "a", 24000], "trial": 4, "serialpos": 9, "trial_type": "single-audio", "trial_index": 178, "time_elapsed": 1234400, "internal_node_id": "0.0-133.0"}}, {"uniqueid": "MTK0765:3483FV8BEFQ6QPA5QAJZOKNBCQN260", "current_trial": 179, "dateTime": 1512753167956, "trialdata": {"rt": -1000, "stimulus": "/static/audio/wordpool/CHAUFFEUR.wav", "key_press": -1, "type": "PRES_AUD", "word": "chauffeur", "wordID": 282, "conditions": [24, 1600, "a", 24000], "trial": 4, "serialpos": 10, "trial_type": "single-audio", "trial_index": 179, "time_elapsed": 1236803, "internal_node_id": "0.0-134.0"}}, {"uniqueid": "MTK0765:3483FV8BEFQ6QPA5QAJZOKNBCQN260", "current_trial": 180, "dateTime": 1512753170522, "trialdata": {"rt": -1000, "stimulus": "/static/audio/wordpool/TRUCK.wav", "key_press": -1, "type": "PRES_AUD", "word": "truck", "wordID": 1511, "conditions": [24, 1600, "a", 24000], "trial": 4, "serialpos": 11, "trial_type": "single-audio", "trial_index": 180, "time_elapsed": 1239369, "internal_node_id": "0.0-135.0"}}, {"uniqueid": "MTK0765:3483FV8BEFQ6QPA5QAJZOKNBCQN260", "current_trial": 181, "dateTime": 1512753173019, "trialdata": {"rt": -1000, "stimulus": "/static/audio/wordpool/GRAVEL.wav", "key_press": -1, "type": "PRES_AUD", "word": "gravel", "wordID": 658, "conditions": [24, 1600, "a", 24000], "trial": 4, "serialpos": 12, "trial_type": "single-audio", "trial_index": 181, "time_elapsed": 1241866, "internal_node_id": "0.0-136.0"}}, {"uniqueid": "MTK0765:3483FV8BEFQ6QPA5QAJZOKNBCQN260", "current_trial": 182, "dateTime": 1512753175633, "trialdata": {"rt": -1000, "stimulus": "/static/audio/wordpool/NOMAD.wav", "key_press": -1, "type": "PRES_AUD", "word": "nomad", "wordID": 954, "conditions": [24, 1600, "a", 24000], "trial": 4, "serialpos": 13, "trial_type": "single-audio", "trial_index": 182, "time_elapsed": 1244479, "internal_node_id": "0.0-137.0"}}, {"uniqueid": "MTK0765:3483FV8BEFQ6QPA5QAJZOKNBCQN260", "current_trial": 183, "dateTime": 1512753178331, "trialdata": {"rt": -1000, "stimulus": "/static/audio/wordpool/LUNCH.wav", "key_press": -1, "type": "PRES_AUD", "word": "lunch", "wordID": 848, "conditions": [24, 1600, "a", 24000], "trial": 4, "serialpos": 14, "trial_type": "single-audio", "trial_index": 183, "time_elapsed": 1247177, "internal_node_id": "0.0-138.0"}}, {"uniqueid": "MTK0765:3483FV8BEFQ6QPA5QAJZOKNBCQN260", "current_trial": 184, "dateTime": 1512753180783, "trialdata": {"rt": -1000, "stimulus": "/static/audio/wordpool/SNACK.wav", "key_press": -1, "type": "PRES_AUD", "word": "snack", "wordID": 1330, "conditions": [24, 1600, "a", 24000], "trial": 4, "serialpos": 15, "trial_type": "single-audio", "trial_index": 184, "time_elapsed": 1249630, "internal_node_id": "0.0-139.0"}}, {"uniqueid": "MTK0765:3483FV8BEFQ6QPA5QAJZOKNBCQN260", "current_trial": 185, "dateTime": 1512753183187, "trialdata": {"rt": -1000, "stimulus": "/static/audio/wordpool/DINER.wav", "key_press": -1, "type": "PRES_AUD", "word": "diner", "wordID": 466, "conditions": [24, 1600, "a", 24000], "trial": 4, "serialpos": 16, "trial_type": "single-audio", "trial_index": 185, "time_elapsed": 1252034, "internal_node_id": "0.0-140.0"}}, {"uniqueid": "MTK0765:3483FV8BEFQ6QPA5QAJZOKNBCQN260", "current_trial": 186, "dateTime": 1512753185670, "trialdata": {"rt": -1000, "stimulus": "/static/audio/wordpool/CHIPMUNK.wav", "key_press": -1, "type": "PRES_AUD", "word": "chipmunk", "wordID": 303, "conditions": [24, 1600, "a", 24000], "trial": 4, "serialpos": 17, "trial_type": "single-audio", "trial_index": 186, "time_elapsed": 1254517, "internal_node_id": "0.0-141.0"}}, {"uniqueid": "MTK0765:3483FV8BEFQ6QPA5QAJZOKNBCQN260", "current_trial": 187, "dateTime": 1512753188281, "trialdata": {"rt": -1000, "stimulus": "/static/audio/wordpool/GIRL.wav", "key_press": -1, "type": "PRES_AUD", "word": "girl", "wordID": 636, "conditions": [24, 1600, "a", 24000], "trial": 4, "serialpos": 18, "trial_type": "single-audio", "trial_index": 187, "time_elapsed": 1257128, "internal_node_id": "0.0-142.0"}}, {"uniqueid": "MTK0765:3483FV8BEFQ6QPA5QAJZOKNBCQN260", "current_trial": 188, "dateTime": 1512753190740, "trialdata": {"rt": -1000, "stimulus": "/static/audio/wordpool/GLASS.wav", "key_press": -1, "type": "PRES_AUD", "word": "glass", "wordID": 638, "conditions": [24, 1600, "a", 24000], "trial": 4, "serialpos": 19, "trial_type": "single-audio", "trial_index": 188, "time_elapsed": 1259587, "internal_node_id": "0.0-143.0"}}, {"uniqueid": "MTK0765:3483FV8BEFQ6QPA5QAJZOKNBCQN260", "current_trial": 189, "dateTime": 1512753193230, "trialdata": {"rt": -1000, "stimulus": "/static/audio/wordpool/SILK.wav", "key_press": -1, "type": "PRES_AUD", "word": "silk", "wordID": 1306, "conditions": [24, 1600, "a", 24000], "trial": 4, "serialpos": 20, "trial_type": "single-audio", "trial_index": 189, "time_elapsed": 1262077, "internal_node_id": "0.0-144.0"}}, {"uniqueid": "MTK0765:3483FV8BEFQ6QPA5QAJZOKNBCQN260", "current_trial": 190, "dateTime": 1512753195728, "trialdata": {"rt": -1000, "stimulus": "/static/audio/wordpool/VIKING.wav", "key_press": -1, "type": "PRES_AUD", "word": "viking", "wordID": 1564, "conditions": [24, 1600, "a", 24000], "trial": 4, "serialpos": 21, "trial_type": "single-audio", "trial_index": 190, "time_elapsed": 1264575, "internal_node_id": "0.0-145.0"}}, {"uniqueid": "MTK0765:3483FV8BEFQ6QPA5QAJZOKNBCQN260", "current_trial": 191, "dateTime": 1512753198183, "trialdata": {"rt": -1000, "stimulus": "/static/audio/wordpool/LIVER.wav", "key_press": -1, "type": "PRES_AUD", "word": "liver", "wordID": 832, "conditions": [24, 1600, "a", 24000], "trial": 4, "serialpos": 22, "trial_type": "single-audio", "trial_index": 191, "time_elapsed": 1267030, "internal_node_id": "0.0-146.0"}}, {"uniqueid": "MTK0765:3483FV8BEFQ6QPA5QAJZOKNBCQN260", "current_trial": 192, "dateTime": 1512753200598, "trialdata": {"rt": -1000, "stimulus": "/static/audio/wordpool/CAFE.wav", "key_press": -1, "type": "PRES_AUD", "word": "cafe", "wordID": 215, "conditions": [24, 1600, "a", 24000], "trial": 4, "serialpos": 23, "trial_type": "single-audio", "trial_index": 192, "time_elapsed": 1269445, "internal_node_id": "0.0-147.0"}}, {"uniqueid": "MTK0765:3483FV8BEFQ6QPA5QAJZOKNBCQN260", "current_trial": 193, "dateTime": 1512753201895, "trialdata": {"rt": -1, "stimulus": "", "key_press": -1, "type": "PRE_RECALL_DELAY", "trial_type": "single-stim", "trial_index": 193, "time_elapsed": 1270742, "internal_node_id": "0.0-148.0-0.0"}}, {"uniqueid": "MTK0765:3483FV8BEFQ6QPA5QAJZOKNBCQN260", "current_trial": 194, "dateTime": 1512753202397, "trialdata": {"rt": -1000, "stimulus": "/static/audio/400Hz.wav", "key_press": -1, "type": "PRE_RECALL_ALERT", "trial_type": "single-audio", "trial_index": 194, "time_elapsed": 1271244, "internal_node_id": "0.0-149.0"}}, {"uniqueid": "MTK0765:3483FV8BEFQ6QPA5QAJZOKNBCQN260", "current_trial": 195, "dateTime": 1512753262408, "trialdata": {"rt": [5906, 13373, 16732, 23485, 35444, 41909, 51534], "recwords": ["cafe", "lunch", "diner", "plaza", "gravel", "truck", "piston"], "type": "FREE_RECALL", "conditions": [24, 1600, "a", 24000], "trial": 4, "trial_type": "free-recall", "trial_index": 195, "time_elapsed": 1331249, "internal_node_id": "0.0-150.0-0.0"}}, {"uniqueid": "MTK0765:3483FV8BEFQ6QPA5QAJZOKNBCQN260", "current_trial": 196, "dateTime": 1512753300068, "trialdata": {"rt": 35658, "key_press": 32, "type": "INSTRUCTIONS", "trial_type": "text", "trial_index": 196, "time_elapsed": 1368915, "internal_node_id": "0.0-151.0"}}, {"uniqueid": "MTK0765:3483FV8BEFQ6QPA5QAJZOKNBCQN260", "current_trial": 197, "dateTime": 1512753326075, "trialdata": {"rt": [3400, 7626, 12375, 17206, 21278], "responses": ["16", "18", "18", "19", "13"], "num1": [7, 3, 8, 9, 4, 9], "num2": [1, 8, 4, 4, 7, 4], "num3": [8, 7, 5, 6, 2, 5], "type": "DISTRACTOR", "conditions": [24, 800, "a", 24000], "trial": 5, "trial_type": "math-distractor", "trial_index": 197, "time_elapsed": 1394922, "internal_node_id": "0.0-152.0"}}, {"uniqueid": "MTK0765:3483FV8BEFQ6QPA5QAJZOKNBCQN260", "current_trial": 198, "dateTime": 1512753329079, "trialdata": {"rt": -1, "stimulus": "<p id=\"stim\">10</p>", "key_press": -1, "trial_type": "single-stim", "trial_index": 198, "time_elapsed": 1397925, "internal_node_id": "0.0-153.0-0.0"}}, {"uniqueid": "MTK0765:3483FV8BEFQ6QPA5QAJZOKNBCQN260", "current_trial": 199, "dateTime": 1512753330081, "trialdata": {"rt": -1, "stimulus": "<p id=\"stim\">9</p>", "key_press": -1, "trial_type": "single-stim", "trial_index": 199, "time_elapsed": 1398928, "internal_node_id": "0.0-153.0-1.0"}}, {"uniqueid": "MTK0765:3483FV8BEFQ6QPA5QAJZOKNBCQN260", "current_trial": 200, "dateTime": 1512753331082, "trialdata": {"rt": -1, "stimulus": "<p id=\"stim\">8</p>", "key_press": -1, "trial_type": "single-stim", "trial_index": 200, "time_elapsed": 1399929, "internal_node_id": "0.0-153.0-2.0"}}, {"uniqueid": "MTK0765:3483FV8BEFQ6QPA5QAJZOKNBCQN260", "current_trial": 201, "dateTime": 1512753332084, "trialdata": {"rt": -1, "stimulus": "<p id=\"stim\">7</p>", "key_press": -1, "trial_type": "single-stim", "trial_index": 201, "time_elapsed": 1400931, "internal_node_id": "0.0-153.0-3.0"}}, {"uniqueid": "MTK0765:3483FV8BEFQ6QPA5QAJZOKNBCQN260", "current_trial": 202, "dateTime": 1512753333087, "trialdata": {"rt": -1, "stimulus": "<p id=\"stim\">6</p>", "key_press": -1, "trial_type": "single-stim", "trial_index": 202, "time_elapsed": 1401934, "internal_node_id": "0.0-153.0-4.0"}}, {"uniqueid": "MTK0765:3483FV8BEFQ6QPA5QAJZOKNBCQN260", "current_trial": 203, "dateTime": 1512753334089, "trialdata": {"rt": -1, "stimulus": "<p id=\"stim\">5</p>", "key_press": -1, "trial_type": "single-stim", "trial_index": 203, "time_elapsed": 1402935, "internal_node_id": "0.0-153.0-5.0"}}, {"uniqueid": "MTK0765:3483FV8BEFQ6QPA5QAJZOKNBCQN260", "current_trial": 204, "dateTime": 1512753335091, "trialdata": {"rt": -1, "stimulus": "<p id=\"stim\">4</p>", "key_press": -1, "trial_type": "single-stim", "trial_index": 204, "time_elapsed": 1403938, "internal_node_id": "0.0-153.0-6.0"}}, {"uniqueid": "MTK0765:3483FV8BEFQ6QPA5QAJZOKNBCQN260", "current_trial": 205, "dateTime": 1512753336092, "trialdata": {"rt": -1, "stimulus": "<p id=\"stim\">3</p>", "key_press": -1, "trial_type": "single-stim", "trial_index": 205, "time_elapsed": 1404939, "internal_node_id": "0.0-153.0-7.0"}}, {"uniqueid": "MTK0765:3483FV8BEFQ6QPA5QAJZOKNBCQN260", "current_trial": 206, "dateTime": 1512753337095, "trialdata": {"rt": -1, "stimulus": "<p id=\"stim\">2</p>", "key_press": -1, "trial_type": "single-stim", "trial_index": 206, "time_elapsed": 1405942, "internal_node_id": "0.0-153.0-8.0"}}, {"uniqueid": "MTK0765:3483FV8BEFQ6QPA5QAJZOKNBCQN260", "current_trial": 207, "dateTime": 1512753338097, "trialdata": {"rt": -1, "stimulus": "<p id=\"stim\">1</p>", "key_press": -1, "trial_type": "single-stim", "trial_index": 207, "time_elapsed": 1406943, "internal_node_id": "0.0-153.0-9.0"}}, {"uniqueid": "MTK0765:3483FV8BEFQ6QPA5QAJZOKNBCQN260", "current_trial": 208, "dateTime": 1512753339599, "trialdata": {"rt": -1, "stimulus": "<p id=\"stim\">+</p>", "key_press": -1, "type": "FIXATION", "trial_type": "single-stim", "trial_index": 208, "time_elapsed": 1408445, "internal_node_id": "0.0-154.0-0.0"}}, {"uniqueid": "MTK0765:3483FV8BEFQ6QPA5QAJZOKNBCQN260", "current_trial": 209, "dateTime": 1512753341580, "trialdata": {"rt": -1000, "stimulus": "/static/audio/wordpool/SMOG.wav", "key_press": -1, "type": "PRES_AUD", "word": "smog", "wordID": 1329, "conditions": [24, 800, "a", 24000], "trial": 5, "serialpos": 0, "trial_type": "single-audio", "trial_index": 209, "time_elapsed": 1410427, "internal_node_id": "0.0-155.0"}}, {"uniqueid": "MTK0765:3483FV8BEFQ6QPA5QAJZOKNBCQN260", "current_trial": 210, "dateTime": 1512753343188, "trialdata": {"rt": -1000, "stimulus": "/static/audio/wordpool/CABBAGE.wav", "key_press": -1, "type": "PRES_AUD", "word": "cabbage", "wordID": 209, "conditions": [24, 800, "a", 24000], "trial": 5, "serialpos": 1, "trial_type": "single-audio", "trial_index": 210, "time_elapsed": 1412035, "internal_node_id": "0.0-156.0"}}, {"uniqueid": "MTK0765:3483FV8BEFQ6QPA5QAJZOKNBCQN260", "current_trial": 211, "dateTime": 1512753345083, "trialdata": {"rt": -1000, "stimulus": "/static/audio/wordpool/GARLIC.wav", "key_press": -1, "type": "PRES_AUD", "word": "garlic", "wordID": 623, "conditions": [24, 800, "a", 24000], "trial": 5, "serialpos": 2, "trial_type": "single-audio", "trial_index": 211, "time_elapsed": 1413930, "internal_node_id": "0.0-157.0"}}, {"uniqueid": "MTK0765:3483FV8BEFQ6QPA5QAJZOKNBCQN260", "current_trial": 212, "dateTime": 1512753346897, "trialdata": {"rt": -1000, "stimulus": "/static/audio/wordpool/LEADER.wav", "key_press": -1, "type": "PRES_AUD", "word": "leader", "wordID": 806, "conditions": [24, 800, "a", 24000], "trial": 5, "serialpos": 3, "trial_type": "single-audio", "trial_index": 212, "time_elapsed": 1415744, "internal_node_id": "0.0-158.0"}}, {"uniqueid": "MTK0765:3483FV8BEFQ6QPA5QAJZOKNBCQN260", "current_trial": 213, "dateTime": 1512753348753, "trialdata": {"rt": -1000, "stimulus": "/static/audio/wordpool/MAILBOX.wav", "key_press": -1, "type": "PRES_AUD", "word": "mailbox", "wordID": 856, "conditions": [24, 800, "a", 24000], "trial": 5, "serialpos": 4, "trial_type": "single-audio", "trial_index": 213, "time_elapsed": 1417600, "internal_node_id": "0.0-159.0"}}, {"uniqueid": "MTK0765:3483FV8BEFQ6QPA5QAJZOKNBCQN260", "current_trial": 214, "dateTime": 1512753350371, "trialdata": {"rt": -1000, "stimulus": "/static/audio/wordpool/PIMPLE.wav", "key_press": -1, "type": "PRES_AUD", "word": "pimple", "wordID": 1070, "conditions": [24, 800, "a", 24000], "trial": 5, "serialpos": 5, "trial_type": "single-audio", "trial_index": 214, "time_elapsed": 1419218, "internal_node_id": "0.0-160.0"}}, {"uniqueid": "MTK0765:3483FV8BEFQ6QPA5QAJZOKNBCQN260", "current_trial": 215, "dateTime": 1512753352225, "trialdata": {"rt": -1000, "stimulus": "/static/audio/wordpool/PARTNER.wav", "key_press": -1, "type": "PRES_AUD", "word": "partner", "wordID": 1016, "conditions": [24, 800, "a", 24000], "trial": 5, "serialpos": 6, "trial_type": "single-audio", "trial_index": 215, "time_elapsed": 1421072, "internal_node_id": "0.0-161.0"}}, {"uniqueid": "MTK0765:3483FV8BEFQ6QPA5QAJZOKNBCQN260", "current_trial": 216, "dateTime": 1512753354210, "trialdata": {"rt": -1000, "stimulus": "/static/audio/wordpool/PIZZA.wav", "key_press": -1, "type": "PRES_AUD", "word": "pizza", "wordID": 1078, "conditions": [24, 800, "a", 24000], "trial": 5, "serialpos": 7, "trial_type": "single-audio", "trial_index": 216, "time_elapsed": 1423057, "internal_node_id": "0.0-162.0"}}, {"uniqueid": "MTK0765:3483FV8BEFQ6QPA5QAJZOKNBCQN260", "current_trial": 217, "dateTime": 1512753355888, "trialdata": {"rt": -1000, "stimulus": "/static/audio/wordpool/SOFTBALL.wav", "key_press": -1, "type": "PRES_AUD", "word": "softball", "wordID": 1342, "conditions": [24, 800, "a", 24000], "trial": 5, "serialpos": 8, "trial_type": "single-audio", "trial_index": 217, "time_elapsed": 1424735, "internal_node_id": "0.0-163.0"}}, {"uniqueid": "MTK0765:3483FV8BEFQ6QPA5QAJZOKNBCQN260", "current_trial": 218, "dateTime": 1512753357514, "trialdata": {"rt": -1000, "stimulus": "/static/audio/wordpool/FOOTBALL.wav", "key_press": -1, "type": "PRES_AUD", "word": "football", "wordID": 590, "conditions": [24, 800, "a", 24000], "trial": 5, "serialpos": 9, "trial_type": "single-audio", "trial_index": 218, "time_elapsed": 1426361, "internal_node_id": "0.0-164.0"}}, {"uniqueid": "MTK0765:3483FV8BEFQ6QPA5QAJZOKNBCQN260", "current_trial": 219, "dateTime": 1512753359465, "trialdata": {"rt": -1000, "stimulus": "/static/audio/wordpool/SIBLING.wav", "key_press": -1, "type": "PRES_AUD", "word": "sibling", "wordID": 1300, "conditions": [24, 800, "a", 24000], "trial": 5, "serialpos": 10, "trial_type": "single-audio", "trial_index": 219, "time_elapsed": 1428312, "internal_node_id": "0.0-165.0"}}, {"uniqueid": "MTK0765:3483FV8BEFQ6QPA5QAJZOKNBCQN260", "current_trial": 220, "dateTime": 1512753361463, "trialdata": {"rt": -1000, "stimulus": "/static/audio/wordpool/PASTA.wav", "key_press": -1, "type": "PRES_AUD", "word": "pasta", "wordID": 1020, "conditions": [24, 800, "a", 24000], "trial": 5, "serialpos": 11, "trial_type": "single-audio", "trial_index": 220, "time_elapsed": 1430310, "internal_node_id": "0.0-166.0"}}, {"uniqueid": "MTK0765:3483FV8BEFQ6QPA5QAJZOKNBCQN260", "current_trial": 221, "dateTime": 1512753363381, "trialdata": {"rt": -1000, "stimulus": "/static/audio/wordpool/PUDDLE.wav", "key_press": -1, "type": "PRES_AUD", "word": "puddle", "wordID": 1139, "conditions": [24, 800, "a", 24000], "trial": 5, "serialpos": 12, "trial_type": "single-audio", "trial_index": 221, "time_elapsed": 1432228, "internal_node_id": "0.0-167.0"}}, {"uniqueid": "MTK0765:3483FV8BEFQ6QPA5QAJZOKNBCQN260", "current_trial": 222, "dateTime": 1512753365115, "trialdata": {"rt": -1000, "stimulus": "/static/audio/wordpool/TRIBE.wav", "key_press": -1, "type": "PRES_AUD", "word": "tribe", "wordID": 1504, "conditions": [24, 800, "a", 24000], "trial": 5, "serialpos": 13, "trial_type": "single-audio", "trial_index": 222, "time_elapsed": 1433962, "internal_node_id": "0.0-168.0"}}, {"uniqueid": "MTK0765:3483FV8BEFQ6QPA5QAJZOKNBCQN260", "current_trial": 223, "dateTime": 1512753367014, "trialdata": {"rt": -1000, "stimulus": "/static/audio/wordpool/SUITCASE.wav", "key_press": -1, "type": "PRES_AUD", "word": "suitcase", "wordID": 1402, "conditions": [24, 800, "a", 24000], "trial": 5, "serialpos": 14, "trial_type": "single-audio", "trial_index": 223, "time_elapsed": 1435861, "internal_node_id": "0.0-169.0"}}, {"uniqueid": "MTK0765:3483FV8BEFQ6QPA5QAJZOKNBCQN260", "current_trial": 224, "dateTime": 1512753368682, "trialdata": {"rt": -1000, "stimulus": "/static/audio/wordpool/MARROW.wav", "key_press": -1, "type": "PRES_AUD", "word": "marrow", "wordID": 871, "conditions": [24, 800, "a", 24000], "trial": 5, "serialpos": 15, "trial_type": "single-audio", "trial_index": 224, "time_elapsed": 1437529, "internal_node_id": "0.0-170.0"}}, {"uniqueid": "MTK0765:3483FV8BEFQ6QPA5QAJZOKNBCQN260", "current_trial": 225, "dateTime": 1512753370351, "trialdata": {"rt": -1000, "stimulus": "/static/audio/wordpool/PALACE.wav", "key_press": -1, "type": "PRES_AUD", "word": "palace", "wordID": 1005, "conditions": [24, 800, "a", 24000], "trial": 5, "serialpos": 16, "trial_type": "single-audio", "trial_index": 225, "time_elapsed": 1439198, "internal_node_id": "0.0-171.0"}}, {"uniqueid": "MTK0765:3483FV8BEFQ6QPA5QAJZOKNBCQN260", "current_trial": 226, "dateTime": 1512753372122, "trialdata": {"rt": -1000, "stimulus": "/static/audio/wordpool/COCOON.wav", "key_press": -1, "type": "PRES_AUD", "word": "cocoon", "wordID": 338, "conditions": [24, 800, "a", 24000], "trial": 5, "serialpos": 17, "trial_type": "single-audio", "trial_index": 226, "time_elapsed": 1440968, "internal_node_id": "0.0-172.0"}}, {"uniqueid": "MTK0765:3483FV8BEFQ6QPA5QAJZOKNBCQN260", "current_trial": 227, "dateTime": 1512753373824, "trialdata": {"rt": -1000, "stimulus": "/static/audio/wordpool/MONSTER.wav", "key_press": -1, "type": "PRES_AUD", "word": "monster", "wordID": 911, "conditions": [24, 800, "a", 24000], "trial": 5, "serialpos": 18, "trial_type": "single-audio", "trial_index": 227, "time_elapsed": 1442670, "internal_node_id": "0.0-173.0"}}, {"uniqueid": "MTK0765:3483FV8BEFQ6QPA5QAJZOKNBCQN260", "current_trial": 228, "dateTime": 1512753375509, "trialdata": {"rt": -1000, "stimulus": "/static/audio/wordpool/PORTRAIT.wav", "key_press": -1, "type": "PRES_AUD", "word": "portrait", "wordID": 1110, "conditions": [24, 800, "a", 24000], "trial": 5, "serialpos": 19, "trial_type": "single-audio", "trial_index": 228, "time_elapsed": 1444356, "internal_node_id": "0.0-174.0"}}, {"uniqueid": "MTK0765:3483FV8BEFQ6QPA5QAJZOKNBCQN260", "current_trial": 229, "dateTime": 1512753377427, "trialdata": {"rt": -1000, "stimulus": "/static/audio/wordpool/PICTURE.wav", "key_press": -1, "type": "PRES_AUD", "word": "picture", "wordID": 1060, "conditions": [24, 800, "a", 24000], "trial": 5, "serialpos": 20, "trial_type": "single-audio", "trial_index": 229, "time_elapsed": 1446274, "internal_node_id": "0.0-175.0"}}, {"uniqueid": "MTK0765:3483FV8BEFQ6QPA5QAJZOKNBCQN260", "current_trial": 230, "dateTime": 1512753379282, "trialdata": {"rt": -1000, "stimulus": "/static/audio/wordpool/PRINCESS.wav", "key_press": -1, "type": "PRES_AUD", "word": "princess", "wordID": 1124, "conditions": [24, 800, "a", 24000], "trial": 5, "serialpos": 21, "trial_type": "single-audio", "trial_index": 230, "time_elapsed": 1448129, "internal_node_id": "0.0-176.0"}}, {"uniqueid": "MTK0765:3483FV8BEFQ6QPA5QAJZOKNBCQN260", "current_trial": 231, "dateTime": 1512753381211, "trialdata": {"rt": -1000, "stimulus": "/static/audio/wordpool/BANK.wav", "key_press": -1, "type": "PRES_AUD", "word": "bank", "wordID": 82, "conditions": [24, 800, "a", 24000], "trial": 5, "serialpos": 22, "trial_type": "single-audio", "trial_index": 231, "time_elapsed": 1450058, "internal_node_id": "0.0-177.0"}}, {"uniqueid": "MTK0765:3483FV8BEFQ6QPA5QAJZOKNBCQN260", "current_trial": 232, "dateTime": 1512753382927, "trialdata": {"rt": -1000, "stimulus": "/static/audio/wordpool/BRIEFCASE.wav", "key_press": -1, "type": "PRES_AUD", "word": "briefcase", "wordID": 174, "conditions": [24, 800, "a", 24000], "trial": 5, "serialpos": 23, "trial_type": "single-audio", "trial_index": 232, "time_elapsed": 1451774, "internal_node_id": "0.0-178.0"}}, {"uniqueid": "MTK0765:3483FV8BEFQ6QPA5QAJZOKNBCQN260", "current_trial": 233, "dateTime": 1512753384174, "trialdata": {"rt": -1, "stimulus": "", "key_press": -1, "type": "PRE_RECALL_DELAY", "trial_type": "single-stim", "trial_index": 233, "time_elapsed": 1453021, "internal_node_id": "0.0-179.0-0.0"}}, {"uniqueid": "MTK0765:3483FV8BEFQ6QPA5QAJZOKNBCQN260", "current_trial": 234, "dateTime": 1512753384676, "trialdata": {"rt": -1000, "stimulus": "/static/audio/400Hz.wav", "key_press": -1, "type": "PRE_RECALL_ALERT", "trial_type": "single-audio", "trial_index": 234, "time_elapsed": 1453523, "internal_node_id": "0.0-180.0"}}, {"uniqueid": "MTK0765:3483FV8BEFQ6QPA5QAJZOKNBCQN260", "current_trial": 235, "dateTime": 1512753444690, "trialdata": {"rt": [11411, 19420, 28874, 33868, 48419], "recwords": ["softball", "football", "tribe", "pizza", "garlic"], "type": "FREE_RECALL", "conditions": [24, 800, "a", 24000], "trial": 5, "trial_type": "free-recall", "trial_index": 235, "time_elapsed": 1513528, "internal_node_id": "0.0-181.0-0.0"}}, {"uniqueid": "MTK0765:3483FV8BEFQ6QPA5QAJZOKNBCQN260", "current_trial": 236, "dateTime": 1512753487771, "trialdata": {"rt": 41078, "key_press": 32, "type": "INSTRUCTIONS", "trial_type": "text", "trial_index": 236, "time_elapsed": 1556618, "internal_node_id": "0.0-182.0"}}, {"uniqueid": "MTK0765:3483FV8BEFQ6QPA5QAJZOKNBCQN260", "current_trial": 237, "dateTime": 1512753501778, "trialdata": {"rt": [3542, 7810, 11293], "responses": ["12", "14", "12"], "num1": [3, 5, 1, 4], "num2": [6, 8, 3, 9], "num3": [3, 1, 8, 2], "type": "DISTRACTOR", "conditions": [12, 1600, "a", 12000], "trial": 6, "trial_type": "math-distractor", "trial_index": 237, "time_elapsed": 1570625, "internal_node_id": "0.0-183.0"}}, {"uniqueid": "MTK0765:3483FV8BEFQ6QPA5QAJZOKNBCQN260", "current_trial": 238, "dateTime": 1512753504781, "trialdata": {"rt": -1, "stimulus": "<p id=\"stim\">10</p>", "key_press": -1, "trial_type": "single-stim", "trial_index": 238, "time_elapsed": 1573628, "internal_node_id": "0.0-184.0-0.0"}}, {"uniqueid": "MTK0765:3483FV8BEFQ6QPA5QAJZOKNBCQN260", "current_trial": 239, "dateTime": 1512753505783, "trialdata": {"rt": -1, "stimulus": "<p id=\"stim\">9</p>", "key_press": -1, "trial_type": "single-stim", "trial_index": 239, "time_elapsed": 1574630, "internal_node_id": "0.0-184.0-1.0"}}, {"uniqueid": "MTK0765:3483FV8BEFQ6QPA5QAJZOKNBCQN260", "current_trial": 240, "dateTime": 1512753506785, "trialdata": {"rt": -1, "stimulus": "<p id=\"stim\">8</p>", "key_press": -1, "trial_type": "single-stim", "trial_index": 240, "time_elapsed": 1575632, "internal_node_id": "0.0-184.0-2.0"}}, {"uniqueid": "MTK0765:3483FV8BEFQ6QPA5QAJZOKNBCQN260", "current_trial": 241, "dateTime": 1512753507787, "trialdata": {"rt": -1, "stimulus": "<p id=\"stim\">7</p>", "key_press": -1, "trial_type": "single-stim", "trial_index": 241, "time_elapsed": 1576633, "internal_node_id": "0.0-184.0-3.0"}}, {"uniqueid": "MTK0765:3483FV8BEFQ6QPA5QAJZOKNBCQN260", "current_trial": 242, "dateTime": 1512753508789, "trialdata": {"rt": -1, "stimulus": "<p id=\"stim\">6</p>", "key_press": -1, "trial_type": "single-stim", "trial_index": 242, "time_elapsed": 1577636, "internal_node_id": "0.0-184.0-4.0"}}, {"uniqueid": "MTK0765:3483FV8BEFQ6QPA5QAJZOKNBCQN260", "current_trial": 243, "dateTime": 1512753509791, "trialdata": {"rt": -1, "stimulus": "<p id=\"stim\">5</p>", "key_press": -1, "trial_type": "single-stim", "trial_index": 243, "time_elapsed": 1578637, "internal_node_id": "0.0-184.0-5.0"}}, {"uniqueid": "MTK0765:3483FV8BEFQ6QPA5QAJZOKNBCQN260", "current_trial": 244, "dateTime": 1512753510794, "trialdata": {"rt": -1, "stimulus": "<p id=\"stim\">4</p>", "key_press": -1, "trial_type": "single-stim", "trial_index": 244, "time_elapsed": 1579640, "internal_node_id": "0.0-184.0-6.0"}}, {"uniqueid": "MTK0765:3483FV8BEFQ6QPA5QAJZOKNBCQN260", "current_trial": 245, "dateTime": 1512753511795, "trialdata": {"rt": -1, "stimulus": "<p id=\"stim\">3</p>", "key_press": -1, "trial_type": "single-stim", "trial_index": 245, "time_elapsed": 1580642, "internal_node_id": "0.0-184.0-7.0"}}, {"uniqueid": "MTK0765:3483FV8BEFQ6QPA5QAJZOKNBCQN260", "current_trial": 246, "dateTime": 1512753512798, "trialdata": {"rt": -1, "stimulus": "<p id=\"stim\">2</p>", "key_press": -1, "trial_type": "single-stim", "trial_index": 246, "time_elapsed": 1581645, "internal_node_id": "0.0-184.0-8.0"}}, {"uniqueid": "MTK0765:3483FV8BEFQ6QPA5QAJZOKNBCQN260", "current_trial": 247, "dateTime": 1512753513801, "trialdata": {"rt": -1, "stimulus": "<p id=\"stim\">1</p>", "key_press": -1, "trial_type": "single-stim", "trial_index": 247, "time_elapsed": 1582648, "internal_node_id": "0.0-184.0-9.0"}}, {"uniqueid": "MTK0765:3483FV8BEFQ6QPA5QAJZOKNBCQN260", "current_trial": 248, "dateTime": 1512753515303, "trialdata": {"rt": -1, "stimulus": "<p id=\"stim\">+</p>", "key_press": -1, "type": "FIXATION", "trial_type": "single-stim", "trial_index": 248, "time_elapsed": 1584150, "internal_node_id": "0.0-185.0-0.0"}}, {"uniqueid": "MTK0765:3483FV8BEFQ6QPA5QAJZOKNBCQN260", "current_trial": 249, "dateTime": 1512753517903, "trialdata": {"rt": -1000, "stimulus": "/static/audio/wordpool/WHISKERS.wav", "key_press": -1, "type": "PRES_AUD", "word": "whiskers", "wordID": 1604, "conditions": [12, 1600, "a", 12000], "trial": 6, "serialpos": 0, "trial_type": "single-audio", "trial_index": 249, "time_elapsed": 1586750, "internal_node_id": "0.0-186.0"}}, {"uniqueid": "MTK0765:3483FV8BEFQ6QPA5QAJZOKNBCQN260", "current_trial": 250, "dateTime": 1512753520336, "trialdata": {"rt": -1000, "stimulus": "/static/audio/wordpool/BUREAU.wav", "key_press": -1, "type": "PRES_AUD", "word": "bureau", "wordID": 198, "conditions": [12, 1600, "a", 12000], "trial": 6, "serialpos": 1, "trial_type": "single-audio", "trial_index": 250, "time_elapsed": 1589183, "internal_node_id": "0.0-187.0"}}, {"uniqueid": "MTK0765:3483FV8BEFQ6QPA5QAJZOKNBCQN260", "current_trial": 251, "dateTime": 1512753523127, "trialdata": {"rt": -1000, "stimulus": "/static/audio/wordpool/HORNET.wav", "key_press": -1, "type": "PRES_AUD", "word": "hornet", "wordID": 717, "conditions": [12, 1600, "a", 12000], "trial": 6, "serialpos": 2, "trial_type": "single-audio", "trial_index": 251, "time_elapsed": 1591974, "internal_node_id": "0.0-188.0"}}, {"uniqueid": "MTK0765:3483FV8BEFQ6QPA5QAJZOKNBCQN260", "current_trial": 252, "dateTime": 1512753525901, "trialdata": {"rt": -1000, "stimulus": "/static/audio/wordpool/LASER.wav", "key_press": -1, "type": "PRES_AUD", "word": "laser", "wordID": 800, "conditions": [12, 1600, "a", 12000], "trial": 6, "serialpos": 3, "trial_type": "single-audio", "trial_index": 252, "time_elapsed": 1594748, "internal_node_id": "0.0-189.0"}}, {"uniqueid": "MTK0765:3483FV8BEFQ6QPA5QAJZOKNBCQN260", "current_trial": 253, "dateTime": 1512753528447, "trialdata": {"rt": -1000, "stimulus": "/static/audio/wordpool/REBEL.wav", "key_press": -1, "type": "PRES_AUD", "word": "rebel", "wordID": 1171, "conditions": [12, 1600, "a", 12000], "trial": 6, "serialpos": 4, "trial_type": "single-audio", "trial_index": 253, "time_elapsed": 1597294, "internal_node_id": "0.0-190.0"}}, {"uniqueid": "MTK0765:3483FV8BEFQ6QPA5QAJZOKNBCQN260", "current_trial": 254, "dateTime": 1512753530870, "trialdata": {"rt": -1000, "stimulus": "/static/audio/wordpool/CONVICT.wav", "key_press": -1, "type": "PRES_AUD", "word": "convict", "wordID": 370, "conditions": [12, 1600, "a", 12000], "trial": 6, "serialpos": 5, "trial_type": "single-audio", "trial_index": 254, "time_elapsed": 1599717, "internal_node_id": "0.0-191.0"}}, {"uniqueid": "MTK0765:3483FV8BEFQ6QPA5QAJZOKNBCQN260", "current_trial": 255, "dateTime": 1512753533460, "trialdata": {"rt": -1000, "stimulus": "/static/audio/wordpool/CLAM.wav", "key_press": -1, "type": "PRES_AUD", "word": "clam", "wordID": 314, "conditions": [12, 1600, "a", 12000], "trial": 6, "serialpos": 6, "trial_type": "single-audio", "trial_index": 255, "time_elapsed": 1602307, "internal_node_id": "0.0-192.0"}}, {"uniqueid": "MTK0765:3483FV8BEFQ6QPA5QAJZOKNBCQN260", "current_trial": 256, "dateTime": 1512753536242, "trialdata": {"rt": -1000, "stimulus": "/static/audio/wordpool/WASP.wav", "key_press": -1, "type": "PRES_AUD", "word": "wasp", "wordID": 1592, "conditions": [12, 1600, "a", 12000], "trial": 6, "serialpos": 7, "trial_type": "single-audio", "trial_index": 256, "time_elapsed": 1605089, "internal_node_id": "0.0-193.0"}}, {"uniqueid": "MTK0765:3483FV8BEFQ6QPA5QAJZOKNBCQN260", "current_trial": 257, "dateTime": 1512753539022, "trialdata": {"rt": -1000, "stimulus": "/static/audio/wordpool/POLICE.wav", "key_press": -1, "type": "PRES_AUD", "word": "police", "wordID": 1097, "conditions": [12, 1600, "a", 12000], "trial": 6, "serialpos": 8, "trial_type": "single-audio", "trial_index": 257, "time_elapsed": 1607869, "internal_node_id": "0.0-194.0"}}, {"uniqueid": "MTK0765:3483FV8BEFQ6QPA5QAJZOKNBCQN260", "current_trial": 258, "dateTime": 1512753541426, "trialdata": {"rt": -1000, "stimulus": "/static/audio/wordpool/BOYFRIEND.wav", "key_press": -1, "type": "PRES_AUD", "word": "boyfriend", "wordID": 161, "conditions": [12, 1600, "a", 12000], "trial": 6, "serialpos": 9, "trial_type": "single-audio", "trial_index": 258, "time_elapsed": 1610273, "internal_node_id": "0.0-195.0"}}, {"uniqueid": "MTK0765:3483FV8BEFQ6QPA5QAJZOKNBCQN260", "current_trial": 259, "dateTime": 1512753543929, "trialdata": {"rt": -1000, "stimulus": "/static/audio/wordpool/FOREHEAD.wav", "key_press": -1, "type": "PRES_AUD", "word": "forehead", "wordID": 591, "conditions": [12, 1600, "a", 12000], "trial": 6, "serialpos": 10, "trial_type": "single-audio", "trial_index": 259, "time_elapsed": 1612776, "internal_node_id": "0.0-196.0"}}, {"uniqueid": "MTK0765:3483FV8BEFQ6QPA5QAJZOKNBCQN260", "current_trial": 260, "dateTime": 1512753546692, "trialdata": {"rt": -1000, "stimulus": "/static/audio/wordpool/CHEST.wav", "key_press": -1, "type": "PRES_AUD", "word": "chest", "wordID": 294, "conditions": [12, 1600, "a", 12000], "trial": 6, "serialpos": 11, "trial_type": "single-audio", "trial_index": 260, "time_elapsed": 1615538, "internal_node_id": "0.0-197.0"}}, {"uniqueid": "MTK0765:3483FV8BEFQ6QPA5QAJZOKNBCQN260", "current_trial": 261, "dateTime": 1512753548052, "trialdata": {"rt": -1, "stimulus": "", "key_press": -1, "type": "PRE_RECALL_DELAY", "trial_type": "single-stim", "trial_index": 261, "time_elapsed": 1616899, "internal_node_id": "0.0-198.0-0.0"}}, {"uniqueid": "MTK0765:3483FV8BEFQ6QPA5QAJZOKNBCQN260", "current_trial": 262, "dateTime": 1512753548555, "trialdata": {"rt": -1000, "stimulus": "/static/audio/400Hz.wav", "key_press": -1, "type": "PRE_RECALL_ALERT", "trial_type": "single-audio", "trial_index": 262, "time_elapsed": 1617402, "internal_node_id": "0.0-199.0"}}, {"uniqueid": "MTK0765:3483FV8BEFQ6QPA5QAJZOKNBCQN260", "current_trial": 263, "dateTime": 1512753608569, "trialdata": {"rt": [11119, 17921, 29857, 35672, 42214, 52912], "recwords": ["hornet", "wasp", "blazer", "police", "convict", "rebel"], "type": "FREE_RECALL", "conditions": [12, 1600, "a", 12000], "trial": 6, "trial_type": "free-recall", "trial_index": 263, "time_elapsed": 1677407, "internal_node_id": "0.0-200.0-0.0"}}, {"uniqueid": "MTK0765:3483FV8BEFQ6QPA5QAJZOKNBCQN260", "current_trial": 264, "dateTime": 1512753615482, "trialdata": {"rt": 4911, "key_press": 13, "type": "INSTRUCTIONS", "trial_type": "text", "trial_index": 264, "time_elapsed": 1684329, "internal_node_id": "0.0-201.0"}}, {"uniqueid": "MTK0765:3483FV8BEFQ6QPA5QAJZOKNBCQN260", "current_trial": 265, "dateTime": 1512753641487, "trialdata": {"rt": [3210, 6193, 10105, 13576, 18285, 21391], "responses": ["15", "11", "19", "11", "10", "12"], "num1": [7, 3, 7, 4, 6, 1, 5], "num2": [2, 7, 6, 4, 2, 2, 4], "num3": [6, 1, 6, 3, 2, 9, 7], "type": "DISTRACTOR", "conditions": [24, 1600, "v", 24000], "trial": 7, "trial_type": "math-distractor", "trial_index": 265, "time_elapsed": 1710334, "internal_node_id": "0.0-202.0"}}, {"uniqueid": "MTK0765:3483FV8BEFQ6QPA5QAJZOKNBCQN260", "current_trial": 266, "dateTime": 1512753644490, "trialdata": {"rt": -1, "stimulus": "<p id=\"stim\">10</p>", "key_press": -1, "trial_type": "single-stim", "trial_index": 266, "time_elapsed": 1713337, "internal_node_id": "0.0-203.0-0.0"}}, {"uniqueid": "MTK0765:3483FV8BEFQ6QPA5QAJZOKNBCQN260", "current_trial": 267, "dateTime": 1512753645493, "trialdata": {"rt": -1, "stimulus": "<p id=\"stim\">9</p>", "key_press": -1, "trial_type": "single-stim", "trial_index": 267, "time_elapsed": 1714340, "internal_node_id": "0.0-203.0-1.0"}}, {"uniqueid": "MTK0765:3483FV8BEFQ6QPA5QAJZOKNBCQN260", "current_trial": 268, "dateTime": 1512753646495, "trialdata": {"rt": -1, "stimulus": "<p id=\"stim\">8</p>", "key_press": -1, "trial_type": "single-stim", "trial_index": 268, "time_elapsed": 1715341, "internal_node_id": "0.0-203.0-2.0"}}, {"uniqueid": "MTK0765:3483FV8BEFQ6QPA5QAJZOKNBCQN260", "current_trial": 269, "dateTime": 1512753647498, "trialdata": {"rt": -1, "stimulus": "<p id=\"stim\">7</p>", "key_press": -1, "trial_type": "single-stim", "trial_index": 269, "time_elapsed": 1716345, "internal_node_id": "0