{"condition": 0, "counterbalance": 203, "assignmentId": "3OE22WJIGJV8KJ2RO37308ZUT4EUQ9", "workerId": "MTK0553", "hitId": "3R868ACW4SJW694T1SWXY2ENBU5GZB", "currenttrial": 626, "bonus": 0, "data": [{"uniqueid": "MTK0553:3OE22WJIGJV8KJ2RO37308ZUT4EUQ9", "current_trial": 0, "dateTime": 1511209191901, "trialdata": {"rt": 2129, "key_press": 32, "type": "INSTRUCTIONS", "trial_type": "text", "trial_index": 0, "time_elapsed": 2135, "internal_node_id": "0.0-0.0"}}, {"uniqueid": "MTK0553:3OE22WJIGJV8KJ2RO37308ZUT4EUQ9", "current_trial": 1, "dateTime": 1511209204955, "trialdata": {"rt": 13045, "key_press": 32, "type": "INSTRUCTIONS", "trial_type": "text", "trial_index": 1, "time_elapsed": 15190, "internal_node_id": "0.0-1.0"}}, {"uniqueid": "MTK0553:3OE22WJIGJV8KJ2RO37308ZUT4EUQ9", "current_trial": 2, "dateTime": 1511209214378, "trialdata": {"rt": [9296], "responses": ["ocean"], "type": "AUDIO_TEST", "trial_type": "audio-test", "trial_index": 2, "time_elapsed": 24614, "internal_node_id": "0.0-2.0"}}, {"uniqueid": "MTK0553:3OE22WJIGJV8KJ2RO37308ZUT4EUQ9", "current_trial": 3, "dateTime": 1511209223432, "trialdata": {"rt": [9039], "responses": ["crystal"], "type": "AUDIO_TEST", "trial_type": "audio-test", "trial_index": 3, "time_elapsed": 33667, "internal_node_id": "0.0-3.0"}}, {"uniqueid": "MTK0553:3OE22WJIGJV8KJ2RO37308ZUT4EUQ9", "current_trial": 4, "dateTime": 1511209229920, "trialdata": {"rt": [6474], "responses": ["spice"], "type": "AUDIO_TEST", "trial_type": "audio-test", "trial_index": 4, "time_elapsed": 40156, "internal_node_id": "0.0-4.0"}}, {"uniqueid": "MTK0553:3OE22WJIGJV8KJ2RO37308ZUT4EUQ9", "current_trial": 5, "dateTime": 1511209250530, "trialdata": {"rt": 19852, "responses": "{\"Q0\":\"8:30\",\"Q1\":\"5\",\"Q2\":\"4\"}", "type": "SLEEP_SURVEY", "trial_type": "survey-text", "trial_index": 5, "time_elapsed": 60765, "internal_node_id": "0.0-5.0"}}, {"uniqueid": "MTK0553:3OE22WJIGJV8KJ2RO37308ZUT4EUQ9", "current_trial": 6, "dateTime": 1511209257757, "trialdata": {"rt": 6219, "key_press": 17, "type": "INSTRUCTIONS", "trial_type": "text", "trial_index": 6, "time_elapsed": 67993, "internal_node_id": "0.0-6.0"}}, {"uniqueid": "MTK0553:3OE22WJIGJV8KJ2RO37308ZUT4EUQ9", "current_trial": 7, "dateTime": 1511209278300, "trialdata": {"rt": 20038, "key_press": 32, "type": "INSTRUCTIONS", "trial_type": "text", "trial_index": 7, "time_elapsed": 88536, "internal_node_id": "0.0-7.0"}}, {"uniqueid": "MTK0553:3OE22WJIGJV8KJ2RO37308ZUT4EUQ9", "current_trial": 8, "dateTime": 1511209292413, "trialdata": {"rt": 13611, "key_press": 32, "type": "INSTRUCTIONS", "trial_type": "text", "trial_index": 8, "time_elapsed": 102649, "internal_node_id": "0.0-8.0"}}, {"uniqueid": "MTK0553:3OE22WJIGJV8KJ2RO37308ZUT4EUQ9", "current_trial": 9, "dateTime": 1511209311463, "trialdata": {"rt": [3799, 7155, 10217, 12558, 15159, 17362], "responses": ["20", "18", "7", "7", "10", "8"], "num1": [6, 9, 3, 2, 1, 1, 6], "num2": [5, 6, 2, 4, 3, 5, 9], "num3": [9, 3, 2, 1, 6, 2, 8], "type": "DISTRACTOR", "conditions": [18, 1200, "v", 18000], "trial": 0, "trial_type": "math-distractor", "trial_index": 9, "time_elapsed": 121698, "internal_node_id": "0.0-9.0"}}, {"uniqueid": "MTK0553:3OE22WJIGJV8KJ2RO37308ZUT4EUQ9", "current_trial": 10, "dateTime": 1511209314467, "trialdata": {"rt": -1, "stimulus": "<p id=\"stim\">10</p>", "key_press": -1, "trial_type": "single-stim", "trial_index": 10, "time_elapsed": 124703, "internal_node_id": "0.0-10.0-0.0"}}, {"uniqueid": "MTK0553:3OE22WJIGJV8KJ2RO37308ZUT4EUQ9", "current_trial": 11, "dateTime": 1511209315471, "trialdata": {"rt": -1, "stimulus": "<p id=\"stim\">9</p>", "key_press": -1, "trial_type": "single-stim", "trial_index": 11, "time_elapsed": 125707, "internal_node_id": "0.0-10.0-1.0"}}, {"uniqueid": "MTK0553:3OE22WJIGJV8KJ2RO37308ZUT4EUQ9", "current_trial": 12, "dateTime": 1511209316476, "trialdata": {"rt": -1, "stimulus": "<p id=\"stim\">8</p>", "key_press": -1, "trial_type": "single-stim", "trial_index": 12, "time_elapsed": 126711, "internal_node_id": "0.0-10.0-2.0"}}, {"uniqueid": "MTK0553:3OE22WJIGJV8KJ2RO37308ZUT4EUQ9", "current_trial": 13, "dateTime": 1511209317477, "trialdata": {"rt": -1, "stimulus": "<p id=\"stim\">7</p>", "key_press": -1, "trial_type": "single-stim", "trial_index": 13, "time_elapsed": 127713, "internal_node_id": "0.0-10.0-3.0"}}, {"uniqueid": "MTK0553:3OE22WJIGJV8KJ2RO37308ZUT4EUQ9", "current_trial": 14, "dateTime": 1511209318480, "trialdata": {"rt": -1, "stimulus": "<p id=\"stim\">6</p>", "key_press": -1, "trial_type": "single-stim", "trial_index": 14, "time_elapsed": 128716, "internal_node_id": "0.0-10.0-4.0"}}, {"uniqueid": "MTK0553:3OE22WJIGJV8KJ2RO37308ZUT4EUQ9", "current_trial": 15, "dateTime": 1511209319484, "trialdata": {"rt": -1, "stimulus": "<p id=\"stim\">5</p>", "key_press": -1, "trial_type": "single-stim", "trial_index": 15, "time_elapsed": 129720, "internal_node_id": "0.0-10.0-5.0"}}, {"uniqueid": "MTK0553:3OE22WJIGJV8KJ2RO37308ZUT4EUQ9", "current_trial": 16, "dateTime": 1511209320486, "trialdata": {"rt": -1, "stimulus": "<p id=\"stim\">4</p>", "key_press": -1, "trial_type": "single-stim", "trial_index": 16, "time_elapsed": 130722, "internal_node_id": "0.0-10.0-6.0"}}, {"uniqueid": "MTK0553:3OE22WJIGJV8KJ2RO37308ZUT4EUQ9", "current_trial": 17, "dateTime": 1511209321489, "trialdata": {"rt": -1, "stimulus": "<p id=\"stim\">3</p>", "key_press": -1, "trial_type": "single-stim", "trial_index": 17, "time_elapsed": 131725, "internal_node_id": "0.0-10.0-7.0"}}, {"uniqueid": "MTK0553:3OE22WJIGJV8KJ2RO37308ZUT4EUQ9", "current_trial": 18, "dateTime": 1511209322491, "trialdata": {"rt": -1, "stimulus": "<p id=\"stim\">2</p>", "key_press": -1, "trial_type": "single-stim", "trial_index": 18, "time_elapsed": 132727, "internal_node_id": "0.0-10.0-8.0"}}, {"uniqueid": "MTK0553:3OE22WJIGJV8KJ2RO37308ZUT4EUQ9", "current_trial": 19, "dateTime": 1511209323494, "trialdata": {"rt": -1, "stimulus": "<p id=\"stim\">1</p>", "key_press": -1, "trial_type": "single-stim", "trial_index": 19, "time_elapsed": 133730, "internal_node_id": "0.0-10.0-9.0"}}, {"uniqueid": "MTK0553:3OE22WJIGJV8KJ2RO37308ZUT4EUQ9", "current_trial": 20, "dateTime": 1511209324998, "trialdata": {"rt": -1, "stimulus": "<p id=\"stim\">+</p>", "key_press": -1, "type": "FIXATION", "trial_type": "single-stim", "trial_index": 20, "time_elapsed": 135233, "internal_node_id": "0.0-11.0-0.0"}}, {"uniqueid": "MTK0553:3OE22WJIGJV8KJ2RO37308ZUT4EUQ9", "current_trial": 21, "dateTime": 1511209326200, "trialdata": {"rt": -1, "stimulus": "<p id=\"stim\">ATOM</p>", "key_press": -1, "type": "PRES_VIS", "word": "atom", "wordID": 54, "conditions": [18, 1200, "v", 18000], "trial": 0, "serialpos": 0, "trial_type": "single-stim", "trial_index": 21, "time_elapsed": 136436, "internal_node_id": "0.0-12.0"}}, {"uniqueid": "MTK0553:3OE22WJIGJV8KJ2RO37308ZUT4EUQ9", "current_trial": 22, "dateTime": 1511209328528, "trialdata": {"rt": -1, "stimulus": "<p id=\"stim\">TRANSPLANT</p>", "key_press": -1, "type": "PRES_VIS", "word": "transplant", "wordID": 1495, "conditions": [18, 1200, "v", 18000], "trial": 0, "serialpos": 1, "trial_type": "single-stim", "trial_index": 22, "time_elapsed": 138764, "internal_node_id": "0.0-13.0"}}, {"uniqueid": "MTK0553:3OE22WJIGJV8KJ2RO37308ZUT4EUQ9", "current_trial": 23, "dateTime": 1511209330773, "trialdata": {"rt": -1, "stimulus": "<p id=\"stim\">FRAGRANCE</p>", "key_press": -1, "type": "PRES_VIS", "word": "fragrance", "wordID": 598, "conditions": [18, 1200, "v", 18000], "trial": 0, "serialpos": 2, "trial_type": "single-stim", "trial_index": 23, "time_elapsed": 141009, "internal_node_id": "0.0-14.0"}}, {"uniqueid": "MTK0553:3OE22WJIGJV8KJ2RO37308ZUT4EUQ9", "current_trial": 24, "dateTime": 1511209332846, "trialdata": {"rt": -1, "stimulus": "<p id=\"stim\">STAPLE</p>", "key_press": -1, "type": "PRES_VIS", "word": "staple", "wordID": 1370, "conditions": [18, 1200, "v", 18000], "trial": 0, "serialpos": 3, "trial_type": "single-stim", "trial_index": 24, "time_elapsed": 143082, "internal_node_id": "0.0-15.0"}}, {"uniqueid": "MTK0553:3OE22WJIGJV8KJ2RO37308ZUT4EUQ9", "current_trial": 25, "dateTime": 1511209335189, "trialdata": {"rt": -1, "stimulus": "<p id=\"stim\">CAPTIVE</p>", "key_press": -1, "type": "PRES_VIS", "word": "captive", "wordID": 239, "conditions": [18, 1200, "v", 18000], "trial": 0, "serialpos": 4, "trial_type": "single-stim", "trial_index": 25, "time_elapsed": 145425, "internal_node_id": "0.0-16.0"}}, {"uniqueid": "MTK0553:3OE22WJIGJV8KJ2RO37308ZUT4EUQ9", "current_trial": 26, "dateTime": 1511209337277, "trialdata": {"rt": -1, "stimulus": "<p id=\"stim\">BANQUET</p>", "key_press": -1, "type": "PRES_VIS", "word": "banquet", "wordID": 85, "conditions": [18, 1200, "v", 18000], "trial": 0, "serialpos": 5, "trial_type": "single-stim", "trial_index": 26, "time_elapsed": 147513, "internal_node_id": "0.0-17.0"}}, {"uniqueid": "MTK0553:3OE22WJIGJV8KJ2RO37308ZUT4EUQ9", "current_trial": 27, "dateTime": 1511209339462, "trialdata": {"rt": -1, "stimulus": "<p id=\"stim\">SMOG</p>", "key_press": -1, "type": "PRES_VIS", "word": "smog", "wordID": 1329, "conditions": [18, 1200, "v", 18000], "trial": 0, "serialpos": 6, "trial_type": "single-stim", "trial_index": 27, "time_elapsed": 149698, "internal_node_id": "0.0-18.0"}}, {"uniqueid": "MTK0553:3OE22WJIGJV8KJ2RO37308ZUT4EUQ9", "current_trial": 28, "dateTime": 1511209341572, "trialdata": {"rt": -1, "stimulus": "<p id=\"stim\">BISON</p>", "key_press": -1, "type": "PRES_VIS", "word": "bison", "wordID": 130, "conditions": [18, 1200, "v", 18000], "trial": 0, "serialpos": 7, "trial_type": "single-stim", "trial_index": 28, "time_elapsed": 151807, "internal_node_id": "0.0-19.0"}}, {"uniqueid": "MTK0553:3OE22WJIGJV8KJ2RO37308ZUT4EUQ9", "current_trial": 29, "dateTime": 1511209343897, "trialdata": {"rt": -1, "stimulus": "<p id=\"stim\">SCALPEL</p>", "key_press": -1, "type": "PRES_VIS", "word": "scalpel", "wordID": 1242, "conditions": [18, 1200, "v", 18000], "trial": 0, "serialpos": 8, "trial_type": "single-stim", "trial_index": 29, "time_elapsed": 154133, "internal_node_id": "0.0-20.0"}}, {"uniqueid": "MTK0553:3OE22WJIGJV8KJ2RO37308ZUT4EUQ9", "current_trial": 30, "dateTime": 1511209346118, "trialdata": {"rt": -1, "stimulus": "<p id=\"stim\">HERO</p>", "key_press": -1, "type": "PRES_VIS", "word": "hero", "wordID": 705, "conditions": [18, 1200, "v", 18000], "trial": 0, "serialpos": 9, "trial_type": "single-stim", "trial_index": 30, "time_elapsed": 156354, "internal_node_id": "0.0-21.0"}}, {"uniqueid": "MTK0553:3OE22WJIGJV8KJ2RO37308ZUT4EUQ9", "current_trial": 31, "dateTime": 1511209348228, "trialdata": {"rt": -1, "stimulus": "<p id=\"stim\">VENUS</p>", "key_press": -1, "type": "PRES_VIS", "word": "venus", "wordID": 1556, "conditions": [18, 1200, "v", 18000], "trial": 0, "serialpos": 10, "trial_type": "single-stim", "trial_index": 31, "time_elapsed": 158464, "internal_node_id": "0.0-22.0"}}, {"uniqueid": "MTK0553:3OE22WJIGJV8KJ2RO37308ZUT4EUQ9", "current_trial": 32, "dateTime": 1511209350589, "trialdata": {"rt": -1, "stimulus": "<p id=\"stim\">SEAL</p>", "key_press": -1, "type": "PRES_VIS", "word": "seal", "wordID": 1261, "conditions": [18, 1200, "v", 18000], "trial": 0, "serialpos": 11, "trial_type": "single-stim", "trial_index": 32, "time_elapsed": 160825, "internal_node_id": "0.0-23.0"}}, {"uniqueid": "MTK0553:3OE22WJIGJV8KJ2RO37308ZUT4EUQ9", "current_trial": 33, "dateTime": 1511209352935, "trialdata": {"rt": -1, "stimulus": "<p id=\"stim\">BEAVER</p>", "key_press": -1, "type": "PRES_VIS", "word": "beaver", "wordID": 108, "conditions": [18, 1200, "v", 18000], "trial": 0, "serialpos": 12, "trial_type": "single-stim", "trial_index": 33, "time_elapsed": 163171, "internal_node_id": "0.0-24.0"}}, {"uniqueid": "MTK0553:3OE22WJIGJV8KJ2RO37308ZUT4EUQ9", "current_trial": 34, "dateTime": 1511209355046, "trialdata": {"rt": -1, "stimulus": "<p id=\"stim\">GAZELLE</p>", "key_press": -1, "type": "PRES_VIS", "word": "gazelle", "wordID": 627, "conditions": [18, 1200, "v", 18000], "trial": 0, "serialpos": 13, "trial_type": "single-stim", "trial_index": 34, "time_elapsed": 165282, "internal_node_id": "0.0-25.0"}}, {"uniqueid": "MTK0553:3OE22WJIGJV8KJ2RO37308ZUT4EUQ9", "current_trial": 35, "dateTime": 1511209357167, "trialdata": {"rt": -1, "stimulus": "<p id=\"stim\">BRANDY</p>", "key_press": -1, "type": "PRES_VIS", "word": "brandy", "wordID": 168, "conditions": [18, 1200, "v", 18000], "trial": 0, "serialpos": 14, "trial_type": "single-stim", "trial_index": 35, "time_elapsed": 167402, "internal_node_id": "0.0-26.0"}}, {"uniqueid": "MTK0553:3OE22WJIGJV8KJ2RO37308ZUT4EUQ9", "current_trial": 36, "dateTime": 1511209359198, "trialdata": {"rt": -1, "stimulus": "<p id=\"stim\">FOX</p>", "key_press": -1, "type": "PRES_VIS", "word": "fox", "wordID": 597, "conditions": [18, 1200, "v", 18000], "trial": 0, "serialpos": 15, "trial_type": "single-stim", "trial_index": 36, "time_elapsed": 169433, "internal_node_id": "0.0-27.0"}}, {"uniqueid": "MTK0553:3OE22WJIGJV8KJ2RO37308ZUT4EUQ9", "current_trial": 37, "dateTime": 1511209361591, "trialdata": {"rt": -1, "stimulus": "<p id=\"stim\">BANJO</p>", "key_press": -1, "type": "PRES_VIS", "word": "banjo", "wordID": 81, "conditions": [18, 1200, "v", 18000], "trial": 0, "serialpos": 16, "trial_type": "single-stim", "trial_index": 37, "time_elapsed": 171826, "internal_node_id": "0.0-28.0"}}, {"uniqueid": "MTK0553:3OE22WJIGJV8KJ2RO37308ZUT4EUQ9", "current_trial": 38, "dateTime": 1511209363713, "trialdata": {"rt": -1, "stimulus": "<p id=\"stim\">BULLET</p>", "key_press": -1, "type": "PRES_VIS", "word": "bullet", "wordID": 193, "conditions": [18, 1200, "v", 18000], "trial": 0, "serialpos": 17, "trial_type": "single-stim", "trial_index": 38, "time_elapsed": 173949, "internal_node_id": "0.0-29.0"}}, {"uniqueid": "MTK0553:3OE22WJIGJV8KJ2RO37308ZUT4EUQ9", "current_trial": 39, "dateTime": 1511209366124, "trialdata": {"rt": -1, "stimulus": "", "key_press": -1, "type": "PRE_RECALL_DELAY", "trial_type": "single-stim", "trial_index": 39, "time_elapsed": 176360, "internal_node_id": "0.0-30.0-0.0"}}, {"uniqueid": "MTK0553:3OE22WJIGJV8KJ2RO37308ZUT4EUQ9", "current_trial": 40, "dateTime": 1511209366629, "trialdata": {"rt": -1000, "stimulus": "/static/audio/400Hz.wav", "key_press": -1, "type": "PRE_RECALL_ALERT", "trial_type": "single-audio", "trial_index": 40, "time_elapsed": 176865, "internal_node_id": "0.0-31.0"}}, {"uniqueid": "MTK0553:3OE22WJIGJV8KJ2RO37308ZUT4EUQ9", "current_trial": 41, "dateTime": 1511209426646, "trialdata": {"rt": [4313, 7241, 10607, 13098, 16074, 19380, 20931, 25311, 28274, 30638, 48604], "recwords": ["banjo", "bullet", "venus", "fox", "gazelle", "bison", "atom", "transplant", "scalpel", "hero", ""], "type": "FREE_RECALL", "conditions": [18, 1200, "v", 18000], "trial": 0, "trial_type": "free-recall", "trial_index": 41, "time_elapsed": 236874, "internal_node_id": "0.0-32.0-0.0"}}, {"uniqueid": "MTK0553:3OE22WJIGJV8KJ2RO37308ZUT4EUQ9", "current_trial": 42, "dateTime": 1511209431405, "trialdata": {"rt": 2756, "key_press": 32, "type": "INSTRUCTIONS", "trial_type": "text", "trial_index": 42, "time_elapsed": 241640, "internal_node_id": "0.0-33.0"}}, {"uniqueid": "MTK0553:3OE22WJIGJV8KJ2RO37308ZUT4EUQ9", "current_trial": 43, "dateTime": 1511209451419, "trialdata": {"rt": [3564, 6320, 8456, 10986, 13804, 17501], "responses": ["16", "20", "11", "10", "15", "18"], "num1": [9, 8, 6, 8, 9, 5, 5], "num2": [3, 6, 1, 1, 4, 9, 7], "num3": [4, 8, 4, 1, 2, 4, 3], "type": "DISTRACTOR", "conditions": [18, 1200, "a", 18000], "trial": 1, "trial_type": "math-distractor", "trial_index": 43, "time_elapsed": 261655, "internal_node_id": "0.0-34.0"}}, {"uniqueid": "MTK0553:3OE22WJIGJV8KJ2RO37308ZUT4EUQ9", "current_trial": 44, "dateTime": 1511209454423, "trialdata": {"rt": -1, "stimulus": "<p id=\"stim\">10</p>", "key_press": -1, "trial_type": "single-stim", "trial_index": 44, "time_elapsed": 264658, "internal_node_id": "0.0-35.0-0.0"}}, {"uniqueid": "MTK0553:3OE22WJIGJV8KJ2RO37308ZUT4EUQ9", "current_trial": 45, "dateTime": 1511209455444, "trialdata": {"rt": -1, "stimulus": "<p id=\"stim\">9</p>", "key_press": -1, "trial_type": "single-stim", "trial_index": 45, "time_elapsed": 265680, "internal_node_id": "0.0-35.0-1.0"}}, {"uniqueid": "MTK0553:3OE22WJIGJV8KJ2RO37308ZUT4EUQ9", "current_trial": 46, "dateTime": 1511209456447, "trialdata": {"rt": -1, "stimulus": "<p id=\"stim\">8</p>", "key_press": -1, "trial_type": "single-stim", "trial_index": 46, "time_elapsed": 266682, "internal_node_id": "0.0-35.0-2.0"}}, {"uniqueid": "MTK0553:3OE22WJIGJV8KJ2RO37308ZUT4EUQ9", "current_trial": 47, "dateTime": 1511209457449, "trialdata": {"rt": -1, "stimulus": "<p id=\"stim\">7</p>", "key_press": -1, "trial_type": "single-stim", "trial_index": 47, "time_elapsed": 267685, "internal_node_id": "0.0-35.0-3.0"}}, {"uniqueid": "MTK0553:3OE22WJIGJV8KJ2RO37308ZUT4EUQ9", "current_trial": 48, "dateTime": 1511209458452, "trialdata": {"rt": -1, "stimulus": "<p id=\"stim\">6</p>", "key_press": -1, "trial_type": "single-stim", "trial_index": 48, "time_elapsed": 268687, "internal_node_id": "0.0-35.0-4.0"}}, {"uniqueid": "MTK0553:3OE22WJIGJV8KJ2RO37308ZUT4EUQ9", "current_trial": 49, "dateTime": 1511209459453, "trialdata": {"rt": -1, "stimulus": "<p id=\"stim\">5</p>", "key_press": -1, "trial_type": "single-stim", "trial_index": 49, "time_elapsed": 269689, "internal_node_id": "0.0-35.0-5.0"}}, {"uniqueid": "MTK0553:3OE22WJIGJV8KJ2RO37308ZUT4EUQ9", "current_trial": 50, "dateTime": 1511209460456, "trialdata": {"rt": -1, "stimulus": "<p id=\"stim\">4</p>", "key_press": -1, "trial_type": "single-stim", "trial_index": 50, "time_elapsed": 270692, "internal_node_id": "0.0-35.0-6.0"}}, {"uniqueid": "MTK0553:3OE22WJIGJV8KJ2RO37308ZUT4EUQ9", "current_trial": 51, "dateTime": 1511209461458, "trialdata": {"rt": -1, "stimulus": "<p id=\"stim\">3</p>", "key_press": -1, "trial_type": "single-stim", "trial_index": 51, "time_elapsed": 271694, "internal_node_id": "0.0-35.0-7.0"}}, {"uniqueid": "MTK0553:3OE22WJIGJV8KJ2RO37308ZUT4EUQ9", "current_trial": 52, "dateTime": 1511209462461, "trialdata": {"rt": -1, "stimulus": "<p id=\"stim\">2</p>", "key_press": -1, "trial_type": "single-stim", "trial_index": 52, "time_elapsed": 272697, "internal_node_id": "0.0-35.0-8.0"}}, {"uniqueid": "MTK0553:3OE22WJIGJV8KJ2RO37308ZUT4EUQ9", "current_trial": 53, "dateTime": 1511209463464, "trialdata": {"rt": -1, "stimulus": "<p id=\"stim\">1</p>", "key_press": -1, "trial_type": "single-stim", "trial_index": 53, "time_elapsed": 273699, "internal_node_id": "0.0-35.0-9.0"}}, {"uniqueid": "MTK0553:3OE22WJIGJV8KJ2RO37308ZUT4EUQ9", "current_trial": 54, "dateTime": 1511209464968, "trialdata": {"rt": -1, "stimulus": "<p id=\"stim\">+</p>", "key_press": -1, "type": "FIXATION", "trial_type": "single-stim", "trial_index": 54, "time_elapsed": 275204, "internal_node_id": "0.0-36.0-0.0"}}, {"uniqueid": "MTK0553:3OE22WJIGJV8KJ2RO37308ZUT4EUQ9", "current_trial": 55, "dateTime": 1511209467121, "trialdata": {"rt": -1000, "stimulus": "/static/audio/wordpool/WHISKERS.wav", "key_press": -1, "type": "PRES_AUD", "word": "whiskers", "wordID": 1604, "conditions": [18, 1200, "a", 18000], "trial": 1, "serialpos": 0, "trial_type": "single-audio", "trial_index": 55, "time_elapsed": 277356, "internal_node_id": "0.0-37.0"}}, {"uniqueid": "MTK0553:3OE22WJIGJV8KJ2RO37308ZUT4EUQ9", "current_trial": 56, "dateTime": 1511209469498, "trialdata": {"rt": -1000, "stimulus": "/static/audio/wordpool/LIPSTICK.wav", "key_press": -1, "type": "PRES_AUD", "word": "lipstick", "wordID": 828, "conditions": [18, 1200, "a", 18000], "trial": 1, "serialpos": 1, "trial_type": "single-audio", "trial_index": 56, "time_elapsed": 279733, "internal_node_id": "0.0-38.0"}}, {"uniqueid": "MTK0553:3OE22WJIGJV8KJ2RO37308ZUT4EUQ9", "current_trial": 57, "dateTime": 1511209471839, "trialdata": {"rt": -1000, "stimulus": "/static/audio/wordpool/WASP.wav", "key_press": -1, "type": "PRES_AUD", "word": "wasp", "wordID": 1592, "conditions": [18, 1200, "a", 18000], "trial": 1, "serialpos": 2, "trial_type": "single-audio", "trial_index": 57, "time_elapsed": 282075, "internal_node_id": "0.0-39.0"}}, {"uniqueid": "MTK0553:3OE22WJIGJV8KJ2RO37308ZUT4EUQ9", "current_trial": 58, "dateTime": 1511209474056, "trialdata": {"rt": -1000, "stimulus": "/static/audio/wordpool/BRIEFCASE.wav", "key_press": -1, "type": "PRES_AUD", "word": "briefcase", "wordID": 174, "conditions": [18, 1200, "a", 18000], "trial": 1, "serialpos": 3, "trial_type": "single-audio", "trial_index": 58, "time_elapsed": 284291, "internal_node_id": "0.0-40.0"}}, {"uniqueid": "MTK0553:3OE22WJIGJV8KJ2RO37308ZUT4EUQ9", "current_trial": 59, "dateTime": 1511209476142, "trialdata": {"rt": -1000, "stimulus": "/static/audio/wordpool/PILOT.wav", "key_press": -1, "type": "PRES_AUD", "word": "pilot", "wordID": 1069, "conditions": [18, 1200, "a", 18000], "trial": 1, "serialpos": 4, "trial_type": "single-audio", "trial_index": 59, "time_elapsed": 286377, "internal_node_id": "0.0-41.0"}}, {"uniqueid": "MTK0553:3OE22WJIGJV8KJ2RO37308ZUT4EUQ9", "current_trial": 60, "dateTime": 1511209478458, "trialdata": {"rt": -1000, "stimulus": "/static/audio/wordpool/LOFT.wav", "key_press": -1, "type": "PRES_AUD", "word": "loft", "wordID": 839, "conditions": [18, 1200, "a", 18000], "trial": 1, "serialpos": 5, "trial_type": "single-audio", "trial_index": 60, "time_elapsed": 288693, "internal_node_id": "0.0-42.0"}}, {"uniqueid": "MTK0553:3OE22WJIGJV8KJ2RO37308ZUT4EUQ9", "current_trial": 61, "dateTime": 1511209480497, "trialdata": {"rt": -1000, "stimulus": "/static/audio/wordpool/BEEF.wav", "key_press": -1, "type": "PRES_AUD", "word": "beef", "wordID": 112, "conditions": [18, 1200, "a", 18000], "trial": 1, "serialpos": 6, "trial_type": "single-audio", "trial_index": 61, "time_elapsed": 290732, "internal_node_id": "0.0-43.0"}}, {"uniqueid": "MTK0553:3OE22WJIGJV8KJ2RO37308ZUT4EUQ9", "current_trial": 62, "dateTime": 1511209482820, "trialdata": {"rt": -1000, "stimulus": "/static/audio/wordpool/PEBBLE.wav", "key_press": -1, "type": "PRES_AUD", "word": "pebble", "wordID": 1034, "conditions": [18, 1200, "a", 18000], "trial": 1, "serialpos": 7, "trial_type": "single-audio", "trial_index": 62, "time_elapsed": 293055, "internal_node_id": "0.0-44.0"}}, {"uniqueid": "MTK0553:3OE22WJIGJV8KJ2RO37308ZUT4EUQ9", "current_trial": 63, "dateTime": 1511209484979, "trialdata": {"rt": -1000, "stimulus": "/static/audio/wordpool/DORM.wav", "key_press": -1, "type": "PRES_AUD", "word": "dorm", "wordID": 487, "conditions": [18, 1200, "a", 18000], "trial": 1, "serialpos": 8, "trial_type": "single-audio", "trial_index": 63, "time_elapsed": 295215, "internal_node_id": "0.0-45.0"}}, {"uniqueid": "MTK0553:3OE22WJIGJV8KJ2RO37308ZUT4EUQ9", "current_trial": 64, "dateTime": 1511209487026, "trialdata": {"rt": -1000, "stimulus": "/static/audio/wordpool/CONCERT.wav", "key_press": -1, "type": "PRES_AUD", "word": "concert", "wordID": 359, "conditions": [18, 1200, "a", 18000], "trial": 1, "serialpos": 9, "trial_type": "single-audio", "trial_index": 64, "time_elapsed": 297262, "internal_node_id": "0.0-46.0"}}, {"uniqueid": "MTK0553:3OE22WJIGJV8KJ2RO37308ZUT4EUQ9", "current_trial": 65, "dateTime": 1511209489251, "trialdata": {"rt": -1000, "stimulus": "/static/audio/wordpool/TURNIP.wav", "key_press": -1, "type": "PRES_AUD", "word": "turnip", "wordID": 1520, "conditions": [18, 1200, "a", 18000], "trial": 1, "serialpos": 10, "trial_type": "single-audio", "trial_index": 65, "time_elapsed": 299486, "internal_node_id": "0.0-47.0"}}, {"uniqueid": "MTK0553:3OE22WJIGJV8KJ2RO37308ZUT4EUQ9", "current_trial": 66, "dateTime": 1511209491304, "trialdata": {"rt": -1000, "stimulus": "/static/audio/wordpool/PAPER.wav", "key_press": -1, "type": "PRES_AUD", "word": "paper", "wordID": 1010, "conditions": [18, 1200, "a", 18000], "trial": 1, "serialpos": 11, "trial_type": "single-audio", "trial_index": 66, "time_elapsed": 301539, "internal_node_id": "0.0-48.0"}}, {"uniqueid": "MTK0553:3OE22WJIGJV8KJ2RO37308ZUT4EUQ9", "current_trial": 67, "dateTime": 1511209493579, "trialdata": {"rt": -1000, "stimulus": "/static/audio/wordpool/SERVANT.wav", "key_press": -1, "type": "PRES_AUD", "word": "servant", "wordID": 1270, "conditions": [18, 1200, "a", 18000], "trial": 1, "serialpos": 12, "trial_type": "single-audio", "trial_index": 67, "time_elapsed": 303815, "internal_node_id": "0.0-49.0"}}, {"uniqueid": "MTK0553:3OE22WJIGJV8KJ2RO37308ZUT4EUQ9", "current_trial": 68, "dateTime": 1511209495966, "trialdata": {"rt": -1000, "stimulus": "/static/audio/wordpool/BADGE.wav", "key_press": -1, "type": "PRES_AUD", "word": "badge", "wordID": 67, "conditions": [18, 1200, "a", 18000], "trial": 1, "serialpos": 13, "trial_type": "single-audio", "trial_index": 68, "time_elapsed": 306195, "internal_node_id": "0.0-50.0"}}, {"uniqueid": "MTK0553:3OE22WJIGJV8KJ2RO37308ZUT4EUQ9", "current_trial": 69, "dateTime": 1511209498119, "trialdata": {"rt": -1000, "stimulus": "/static/audio/wordpool/PALACE.wav", "key_press": -1, "type": "PRES_AUD", "word": "palace", "wordID": 1005, "conditions": [18, 1200, "a", 18000], "trial": 1, "serialpos": 14, "trial_type": "single-audio", "trial_index": 69, "time_elapsed": 308354, "internal_node_id": "0.0-51.0"}}, {"uniqueid": "MTK0553:3OE22WJIGJV8KJ2RO37308ZUT4EUQ9", "current_trial": 70, "dateTime": 1511209500131, "trialdata": {"rt": -1000, "stimulus": "/static/audio/wordpool/POWDER.wav", "key_press": -1, "type": "PRES_AUD", "word": "powder", "wordID": 1116, "conditions": [18, 1200, "a", 18000], "trial": 1, "serialpos": 15, "trial_type": "single-audio", "trial_index": 70, "time_elapsed": 310367, "internal_node_id": "0.0-52.0"}}, {"uniqueid": "MTK0553:3OE22WJIGJV8KJ2RO37308ZUT4EUQ9", "current_trial": 71, "dateTime": 1511209502223, "trialdata": {"rt": -1000, "stimulus": "/static/audio/wordpool/ORCHID.wav", "key_press": -1, "type": "PRES_AUD", "word": "orchid", "wordID": 981, "conditions": [18, 1200, "a", 18000], "trial": 1, "serialpos": 16, "trial_type": "single-audio", "trial_index": 71, "time_elapsed": 312459, "internal_node_id": "0.0-53.0"}}, {"uniqueid": "MTK0553:3OE22WJIGJV8KJ2RO37308ZUT4EUQ9", "current_trial": 72, "dateTime": 1511209504288, "trialdata": {"rt": -1000, "stimulus": "/static/audio/wordpool/SCOTCH.wav", "key_press": -1, "type": "PRES_AUD", "word": "scotch", "wordID": 1250, "conditions": [18, 1200, "a", 18000], "trial": 1, "serialpos": 17, "trial_type": "single-audio", "trial_index": 72, "time_elapsed": 314524, "internal_node_id": "0.0-54.0"}}, {"uniqueid": "MTK0553:3OE22WJIGJV8KJ2RO37308ZUT4EUQ9", "current_trial": 73, "dateTime": 1511209505527, "trialdata": {"rt": -1, "stimulus": "", "key_press": -1, "type": "PRE_RECALL_DELAY", "trial_type": "single-stim", "trial_index": 73, "time_elapsed": 315762, "internal_node_id": "0.0-55.0-0.0"}}, {"uniqueid": "MTK0553:3OE22WJIGJV8KJ2RO37308ZUT4EUQ9", "current_trial": 74, "dateTime": 1511209506029, "trialdata": {"rt": -1000, "stimulus": "/static/audio/400Hz.wav", "key_press": -1, "type": "PRE_RECALL_ALERT", "trial_type": "single-audio", "trial_index": 74, "time_elapsed": 316264, "internal_node_id": "0.0-56.0"}}, {"uniqueid": "MTK0553:3OE22WJIGJV8KJ2RO37308ZUT4EUQ9", "current_trial": 75, "dateTime": 1511209566043, "trialdata": {"rt": [13511, 15242, 20087, 21951, 25390, 28857, 37743, 46505], "recwords": ["scotch", "wasp", "briefcase", "dorm", "whiskers", "lipstick", "dorm", "paper"], "type": "FREE_RECALL", "conditions": [18, 1200, "a", 18000], "trial": 1, "trial_type": "free-recall", "trial_index": 75, "time_elapsed": 376272, "internal_node_id": "0.0-57.0-0.0"}}, {"uniqueid": "MTK0553:3OE22WJIGJV8KJ2RO37308ZUT4EUQ9", "current_trial": 76, "dateTime": 1511209640400, "trialdata": {"rt": 72339, "key_press": 32, "type": "INSTRUCTIONS", "trial_type": "text", "trial_index": 76, "time_elapsed": 450622, "internal_node_id": "0.0-58.0"}}, {"uniqueid": "MTK0553:3OE22WJIGJV8KJ2RO37308ZUT4EUQ9", "current_trial": 77, "dateTime": 1511209653408, "trialdata": {"rt": [2392, 4350, 6870, 8817, 10991], "responses": ["8", "12", "14", "9", "17"], "num1": [3, 1, 4, 4, 7, 1], "num2": [2, 7, 4, 1, 5, 3], "num3": [2, 4, 6, 4, 5, 6], "type": "DISTRACTOR", "conditions": [12, 1600, "v", 12000], "trial": 2, "trial_type": "math-distractor", "trial_index": 77, "time_elapsed": 463644, "internal_node_id": "0.0-59.0"}}, {"uniqueid": "MTK0553:3OE22WJIGJV8KJ2RO37308ZUT4EUQ9", "current_trial": 78, "dateTime": 1511209656411, "trialdata": {"rt": -1, "stimulus": "<p id=\"stim\">10</p>", "key_press": -1, "trial_type": "single-stim", "trial_index": 78, "time_elapsed": 466646, "internal_node_id": "0.0-60.0-0.0"}}, {"uniqueid": "MTK0553:3OE22WJIGJV8KJ2RO37308ZUT4EUQ9", "current_trial": 79, "dateTime": 1511209657419, "trialdata": {"rt": -1, "stimulus": "<p id=\"stim\">9</p>", "key_press": -1, "trial_type": "single-stim", "trial_index": 79, "time_elapsed": 467649, "internal_node_id": "0.0-60.0-1.0"}}, {"uniqueid": "MTK0553:3OE22WJIGJV8KJ2RO37308ZUT4EUQ9", "current_trial": 80, "dateTime": 1511209658423, "trialdata": {"rt": -1, "stimulus": "<p id=\"stim\">8</p>", "key_press": -1, "trial_type": "single-stim", "trial_index": 80, "time_elapsed": 468659, "internal_node_id": "0.0-60.0-2.0"}}, {"uniqueid": "MTK0553:3OE22WJIGJV8KJ2RO37308ZUT4EUQ9", "current_trial": 81, "dateTime": 1511209659426, "trialdata": {"rt": -1, "stimulus": "<p id=\"stim\">7</p>", "key_press": -1, "trial_type": "single-stim", "trial_index": 81, "time_elapsed": 469662, "internal_node_id": "0.0-60.0-3.0"}}, {"uniqueid": "MTK0553:3OE22WJIGJV8KJ2RO37308ZUT4EUQ9", "current_trial": 82, "dateTime": 1511209660429, "trialdata": {"rt": -1, "stimulus": "<p id=\"stim\">6</p>", "key_press": -1, "trial_type": "single-stim", "trial_index": 82, "time_elapsed": 470665, "internal_node_id": "0.0-60.0-4.0"}}, {"uniqueid": "MTK0553:3OE22WJIGJV8KJ2RO37308ZUT4EUQ9", "current_trial": 83, "dateTime": 1511209661432, "trialdata": {"rt": -1, "stimulus": "<p id=\"stim\">5</p>", "key_press": -1, "trial_type": "single-stim", "trial_index": 83, "time_elapsed": 471668, "internal_node_id": "0.0-60.0-5.0"}}, {"uniqueid": "MTK0553:3OE22WJIGJV8KJ2RO37308ZUT4EUQ9", "current_trial": 84, "dateTime": 1511209662434, "trialdata": {"rt": -1, "stimulus": "<p id=\"stim\">4</p>", "key_press": -1, "trial_type": "single-stim", "trial_index": 84, "time_elapsed": 472670, "internal_node_id": "0.0-60.0-6.0"}}, {"uniqueid": "MTK0553:3OE22WJIGJV8KJ2RO37308ZUT4EUQ9", "current_trial": 85, "dateTime": 1511209663436, "trialdata": {"rt": -1, "stimulus": "<p id=\"stim\">3</p>", "key_press": -1, "trial_type": "single-stim", "trial_index": 85, "time_elapsed": 473672, "internal_node_id": "0.0-60.0-7.0"}}, {"uniqueid": "MTK0553:3OE22WJIGJV8KJ2RO37308ZUT4EUQ9", "current_trial": 86, "dateTime": 1511209664438, "trialdata": {"rt": -1, "stimulus": "<p id=\"stim\">2</p>", "key_press": -1, "trial_type": "single-stim", "trial_index": 86, "time_elapsed": 474674, "internal_node_id": "0.0-60.0-8.0"}}, {"uniqueid": "MTK0553:3OE22WJIGJV8KJ2RO37308ZUT4EUQ9", "current_trial": 87, "dateTime": 1511209665441, "trialdata": {"rt": -1, "stimulus": "<p id=\"stim\">1</p>", "key_press": -1, "trial_type": "single-stim", "trial_index": 87, "time_elapsed": 475677, "internal_node_id": "0.0-60.0-9.0"}}, {"uniqueid": "MTK0553:3OE22WJIGJV8KJ2RO37308ZUT4EUQ9", "current_trial": 88, "dateTime": 1511209666944, "trialdata": {"rt": -1, "stimulus": "<p id=\"stim\">+</p>", "key_press": -1, "type": "FIXATION", "trial_type": "single-stim", "trial_index": 88, "time_elapsed": 477180, "internal_node_id": "0.0-61.0-0.0"}}, {"uniqueid": "MTK0553:3OE22WJIGJV8KJ2RO37308ZUT4EUQ9", "current_trial": 89, "dateTime": 1511209668548, "trialdata": {"rt": -1, "stimulus": "<p id=\"stim\">ACTOR</p>", "key_press": -1, "type": "PRES_VIS", "word": "actor", "wordID": 4, "conditions": [12, 1600, "v", 12000], "trial": 2, "serialpos": 0, "trial_type": "single-stim", "trial_index": 89, "time_elapsed": 478784, "internal_node_id": "0.0-62.0"}}, {"uniqueid": "MTK0553:3OE22WJIGJV8KJ2RO37308ZUT4EUQ9", "current_trial": 90, "dateTime": 1511209671086, "trialdata": {"rt": -1, "stimulus": "<p id=\"stim\">MARS</p>", "key_press": -1, "type": "PRES_VIS", "word": "mars", "wordID": 872, "conditions": [12, 1600, "v", 12000], "trial": 2, "serialpos": 1, "trial_type": "single-stim", "trial_index": 90, "time_elapsed": 481321, "internal_node_id": "0.0-63.0"}}, {"uniqueid": "MTK0553:3OE22WJIGJV8KJ2RO37308ZUT4EUQ9", "current_trial": 91, "dateTime": 1511209673889, "trialdata": {"rt": -1, "stimulus": "<p id=\"stim\">SUBWAY</p>", "key_press": -1, "type": "PRES_VIS", "word": "subway", "wordID": 1399, "conditions": [12, 1600, "v", 12000], "trial": 2, "serialpos": 2, "trial_type": "single-stim", "trial_index": 91, "time_elapsed": 484125, "internal_node_id": "0.0-64.0"}}, {"uniqueid": "MTK0553:3OE22WJIGJV8KJ2RO37308ZUT4EUQ9", "current_trial": 92, "dateTime": 1511209676626, "trialdata": {"rt": -1, "stimulus": "<p id=\"stim\">SALT</p>", "key_press": -1, "type": "PRES_VIS", "word": "salt", "wordID": 1228, "conditions": [12, 1600, "v", 12000], "trial": 2, "serialpos": 3, "trial_type": "single-stim", "trial_index": 92, "time_elapsed": 486862, "internal_node_id": "0.0-65.0"}}, {"uniqueid": "MTK0553:3OE22WJIGJV8KJ2RO37308ZUT4EUQ9", "current_trial": 93, "dateTime": 1511209679413, "trialdata": {"rt": -1, "stimulus": "<p id=\"stim\">HIGHWAY</p>", "key_press": -1, "type": "PRES_VIS", "word": "highway", "wordID": 706, "conditions": [12, 1600, "v", 12000], "trial": 2, "serialpos": 4, "trial_type": "single-stim", "trial_index": 93, "time_elapsed": 489649, "internal_node_id": "0.0-66.0"}}, {"uniqueid": "MTK0553:3OE22WJIGJV8KJ2RO37308ZUT4EUQ9", "current_trial": 94, "dateTime": 1511209682158, "trialdata": {"rt": -1, "stimulus": "<p id=\"stim\">TURTLE</p>", "key_press": -1, "type": "PRES_VIS", "word": "turtle", "wordID": 1521, "conditions": [12, 1600, "v", 12000], "trial": 2, "serialpos": 5, "trial_type": "single-stim", "trial_index": 94, "time_elapsed": 492393, "internal_node_id": "0.0-67.0"}}, {"uniqueid": "MTK0553:3OE22WJIGJV8KJ2RO37308ZUT4EUQ9", "current_trial": 95, "dateTime": 1511209684657, "trialdata": {"rt": -1, "stimulus": "<p id=\"stim\">HOUND</p>", "key_press": -1, "type": "PRES_VIS", "word": "hound", "wordID": 723, "conditions": [12, 1600, "v", 12000], "trial": 2, "serialpos": 6, "trial_type": "single-stim", "trial_index": 95, "time_elapsed": 494893, "internal_node_id": "0.0-68.0"}}, {"uniqueid": "MTK0553:3OE22WJIGJV8KJ2RO37308ZUT4EUQ9", "current_trial": 96, "dateTime": 1511209687246, "trialdata": {"rt": -1, "stimulus": "<p id=\"stim\">TERMITE</p>", "key_press": -1, "type": "PRES_VIS", "word": "termite", "wordID": 1450, "conditions": [12, 1600, "v", 12000], "trial": 2, "serialpos": 7, "trial_type": "single-stim", "trial_index": 96, "time_elapsed": 497482, "internal_node_id": "0.0-69.0"}}, {"uniqueid": "MTK0553:3OE22WJIGJV8KJ2RO37308ZUT4EUQ9", "current_trial": 97, "dateTime": 1511209689916, "trialdata": {"rt": -1, "stimulus": "<p id=\"stim\">PENGUIN</p>", "key_press": -1, "type": "PRES_VIS", "word": "penguin", "wordID": 1043, "conditions": [12, 1600, "v", 12000], "trial": 2, "serialpos": 8, "trial_type": "single-stim", "trial_index": 97, "time_elapsed": 500152, "internal_node_id": "0.0-70.0"}}, {"uniqueid": "MTK0553:3OE22WJIGJV8KJ2RO37308ZUT4EUQ9", "current_trial": 98, "dateTime": 1511209692684, "trialdata": {"rt": -1, "stimulus": "<p id=\"stim\">LIZARD</p>", "key_press": -1, "type": "PRES_VIS", "word": "lizard", "wordID": 833, "conditions": [12, 1600, "v", 12000], "trial": 2, "serialpos": 9, "trial_type": "single-stim", "trial_index": 98, "time_elapsed": 502920, "internal_node_id": "0.0-71.0"}}, {"uniqueid": "MTK0553:3OE22WJIGJV8KJ2RO37308ZUT4EUQ9", "current_trial": 99, "dateTime": 1511209695401, "trialdata": {"rt": -1, "stimulus": "<p id=\"stim\">FRANCE</p>", "key_press": -1, "type": "PRES_VIS", "word": "france", "wordID": 600, "conditions": [12, 1600, "v", 12000], "trial": 2, "serialpos": 10, "trial_type": "single-stim", "trial_index": 99, "time_elapsed": 505636, "internal_node_id": "0.0-72.0"}}, {"uniqueid": "MTK0553:3OE22WJIGJV8KJ2RO37308ZUT4EUQ9", "current_trial": 100, "dateTime": 1511209697844, "trialdata": {"rt": -1, "stimulus": "<p id=\"stim\">ACTRESS</p>", "key_press": -1, "type": "PRES_VIS", "word": "actress", "wordID": 5, "conditions": [12, 1600, "v", 12000], "trial": 2, "serialpos": 11, "trial_type": "single-stim", "trial_index": 100, "time_elapsed": 508080, "internal_node_id": "0.0-73.0"}}, {"uniqueid": "MTK0553:3OE22WJIGJV8KJ2RO37308ZUT4EUQ9", "current_trial": 101, "dateTime": 1511209700045, "trialdata": {"rt": -1, "stimulus": "", "key_press": -1, "type": "PRE_RECALL_DELAY", "trial_type": "single-stim", "trial_index": 101, "time_elapsed": 510281, "internal_node_id": "0.0-74.0-0.0"}}, {"uniqueid": "MTK0553:3OE22WJIGJV8KJ2RO37308ZUT4EUQ9", "current_trial": 102, "dateTime": 1511209700548, "trialdata": {"rt": -1000, "stimulus": "/static/audio/400Hz.wav", "key_press": -1, "type": "PRE_RECALL_ALERT", "trial_type": "single-audio", "trial_index": 102, "time_elapsed": 510783, "internal_node_id": "0.0-75.0"}}, {"uniqueid": "MTK0553:3OE22WJIGJV8KJ2RO37308ZUT4EUQ9", "current_trial": 103, "dateTime": 1511209760563, "trialdata": {"rt": [3253, 5806, 7716, 9923, 13957, 47525], "recwords": ["actor", "actress", "mars", "termite", "beaver", ""], "type": "FREE_RECALL", "conditions": [12, 1600, "v", 12000], "trial": 2, "trial_type": "free-recall", "trial_index": 103, "time_elapsed": 570791, "internal_node_id": "0.0-76.0-0.0"}}, {"uniqueid": "MTK0553:3OE22WJIGJV8KJ2RO37308ZUT4EUQ9", "current_trial": 104, "dateTime": 1511209764566, "trialdata": {"rt": 2000, "key_press": 32, "type": "INSTRUCTIONS", "trial_type": "text", "trial_index": 104, "time_elapsed": 574802, "internal_node_id": "0.0-77.0"}}, {"uniqueid": "MTK0553:3OE22WJIGJV8KJ2RO37308ZUT4EUQ9", "current_trial": 105, "dateTime": 1511209778575, "trialdata": {"rt": [2357, 4167, 6479, 8387, 10392], "responses": ["9", "5", "19", "7", "12"], "num1": [6, 1, 2, 3, 8, 2], "num2": [2, 2, 9, 3, 1, 4], "num3": [1, 2, 8, 1, 3, 5], "type": "DISTRACTOR", "conditions": [12, 800, "a", 12000], "trial": 3, "trial_type": "math-distractor", "trial_index": 105, "time_elapsed": 588811, "internal_node_id": "0.0-78.0"}}, {"uniqueid": "MTK0553:3OE22WJIGJV8KJ2RO37308ZUT4EUQ9", "current_trial": 106, "dateTime": 1511209781578, "trialdata": {"rt": -1, "stimulus": "<p id=\"stim\">10</p>", "key_press": -1, "trial_type": "single-stim", "trial_index": 106, "time_elapsed": 591814, "internal_node_id": "0.0-79.0-0.0"}}, {"uniqueid": "MTK0553:3OE22WJIGJV8KJ2RO37308ZUT4EUQ9", "current_trial": 107, "dateTime": 1511209782581, "trialdata": {"rt": -1, "stimulus": "<p id=\"stim\">9</p>", "key_press": -1, "trial_type": "single-stim", "trial_index": 107, "time_elapsed": 592816, "internal_node_id": "0.0-79.0-1.0"}}, {"uniqueid": "MTK0553:3OE22WJIGJV8KJ2RO37308ZUT4EUQ9", "current_trial": 108, "dateTime": 1511209783584, "trialdata": {"rt": -1, "stimulus": "<p id=\"stim\">8</p>", "key_press": -1, "trial_type": "single-stim", "trial_index": 108, "time_elapsed": 593820, "internal_node_id": "0.0-79.0-2.0"}}, {"uniqueid": "MTK0553:3OE22WJIGJV8KJ2RO37308ZUT4EUQ9", "current_trial": 109, "dateTime": 1511209784586, "trialdata": {"rt": -1, "stimulus": "<p id=\"stim\">7</p>", "key_press": -1, "trial_type": "single-stim", "trial_index": 109, "time_elapsed": 594822, "internal_node_id": "0.0-79.0-3.0"}}, {"uniqueid": "MTK0553:3OE22WJIGJV8KJ2RO37308ZUT4EUQ9", "current_trial": 110, "dateTime": 1511209785589, "trialdata": {"rt": -1, "stimulus": "<p id=\"stim\">6</p>", "key_press": -1, "trial_type": "single-stim", "trial_index": 110, "time_elapsed": 595825, "internal_node_id": "0.0-79.0-4.0"}}, {"uniqueid": "MTK0553:3OE22WJIGJV8KJ2RO37308ZUT4EUQ9", "current_trial": 111, "dateTime": 1511209786593, "trialdata": {"rt": -1, "stimulus": "<p id=\"stim\">5</p>", "key_press": -1, "trial_type": "single-stim", "trial_index": 111, "time_elapsed": 596829, "internal_node_id": "0.0-79.0-5.0"}}, {"uniqueid": "MTK0553:3OE22WJIGJV8KJ2RO37308ZUT4EUQ9", "current_trial": 112, "dateTime": 1511209787596, "trialdata": {"rt": -1, "stimulus": "<p id=\"stim\">4</p>", "key_press": -1, "trial_type": "single-stim", "trial_index": 112, "time_elapsed": 597831, "internal_node_id": "0.0-79.0-6.0"}}, {"uniqueid": "MTK0553:3OE22WJIGJV8KJ2RO37308ZUT4EUQ9", "current_trial": 113, "dateTime": 1511209788598, "trialdata": {"rt": -1, "stimulus": "<p id=\"stim\">3</p>", "key_press": -1, "trial_type": "single-stim", "trial_index": 113, "time_elapsed": 598833, "internal_node_id": "0.0-79.0-7.0"}}, {"uniqueid": "MTK0553:3OE22WJIGJV8KJ2RO37308ZUT4EUQ9", "current_trial": 114, "dateTime": 1511209789600, "trialdata": {"rt": -1, "stimulus": "<p id=\"stim\">2</p>", "key_press": -1, "trial_type": "single-stim", "trial_index": 114, "time_elapsed": 599836, "internal_node_id": "0.0-79.0-8.0"}}, {"uniqueid": "MTK0553:3OE22WJIGJV8KJ2RO37308ZUT4EUQ9", "current_trial": 115, "dateTime": 1511209790602, "trialdata": {"rt": -1, "stimulus": "<p id=\"stim\">1</p>", "key_press": -1, "trial_type": "single-stim", "trial_index": 115, "time_elapsed": 600838, "internal_node_id": "0.0-79.0-9.0"}}, {"uniqueid": "MTK0553:3OE22WJIGJV8KJ2RO37308ZUT4EUQ9", "current_trial": 116, "dateTime": 1511209792104, "trialdata": {"rt": -1, "stimulus": "<p id=\"stim\">+</p>", "key_press": -1, "type": "FIXATION", "trial_type": "single-stim", "trial_index": 116, "time_elapsed": 602340, "internal_node_id": "0.0-80.0-0.0"}}, {"uniqueid": "MTK0553:3OE22WJIGJV8KJ2RO37308ZUT4EUQ9", "current_trial": 117, "dateTime": 1511209793920, "trialdata": {"rt": -1000, "stimulus": "/static/audio/wordpool/BUCKET.wav", "key_press": -1, "type": "PRES_AUD", "word": "bucket", "wordID": 183, "conditions": [12, 800, "a", 12000], "trial": 3, "serialpos": 0, "trial_type": "single-audio", "trial_index": 117, "time_elapsed": 604155, "internal_node_id": "0.0-81.0"}}, {"uniqueid": "MTK0553:3OE22WJIGJV8KJ2RO37308ZUT4EUQ9", "current_trial": 118, "dateTime": 1511209795602, "trialdata": {"rt": -1000, "stimulus": "/static/audio/wordpool/VICTIM.wav", "key_press": -1, "type": "PRES_AUD", "word": "victim", "wordID": 1561, "conditions": [12, 800, "a", 12000], "trial": 3, "serialpos": 1, "trial_type": "single-audio", "trial_index": 118, "time_elapsed": 605838, "internal_node_id": "0.0-82.0"}}, {"uniqueid": "MTK0553:3OE22WJIGJV8KJ2RO37308ZUT4EUQ9", "current_trial": 119, "dateTime": 1511209797588, "trialdata": {"rt": -1000, "stimulus": "/static/audio/wordpool/WOMAN.wav", "key_press": -1, "type": "PRES_AUD", "word": "woman", "wordID": 1619, "conditions": [12, 800, "a", 12000], "trial": 3, "serialpos": 2, "trial_type": "single-audio", "trial_index": 119, "time_elapsed": 607824, "internal_node_id": "0.0-83.0"}}, {"uniqueid": "MTK0553:3OE22WJIGJV8KJ2RO37308ZUT4EUQ9", "current_trial": 120, "dateTime": 1511209799359, "trialdata": {"rt": -1000, "stimulus": "/static/audio/wordpool/CLAM.wav", "key_press": -1, "type": "PRES_AUD", "word": "clam", "wordID": 314, "conditions": [12, 800, "a", 12000], "trial": 3, "serialpos": 3, "trial_type": "single-audio", "trial_index": 120, "time_elapsed": 609595, "internal_node_id": "0.0-84.0"}}, {"uniqueid": "MTK0553:3OE22WJIGJV8KJ2RO37308ZUT4EUQ9", "current_trial": 121, "dateTime": 1511209801275, "trialdata": {"rt": -1000, "stimulus": "/static/audio/wordpool/GUARD.wav", "key_press": -1, "type": "PRES_AUD", "word": "guard", "wordID": 666, "conditions": [12, 800, "a", 12000], "trial": 3, "serialpos": 4, "trial_type": "single-audio", "trial_index": 121, "time_elapsed": 611511, "internal_node_id": "0.0-85.0"}}, {"uniqueid": "MTK0553:3OE22WJIGJV8KJ2RO37308ZUT4EUQ9", "current_trial": 122, "dateTime": 1511209803207, "trialdata": {"rt": -1000, "stimulus": "/static/audio/wordpool/SODA.wav", "key_press": -1, "type": "PRES_AUD", "word": "soda", "wordID": 1340, "conditions": [12, 800, "a", 12000], "trial": 3, "serialpos": 5, "trial_type": "single-audio", "trial_index": 122, "time_elapsed": 613442, "internal_node_id": "0.0-86.0"}}, {"uniqueid": "MTK0553:3OE22WJIGJV8KJ2RO37308ZUT4EUQ9", "current_trial": 123, "dateTime": 1511209805097, "trialdata": {"rt": -1000, "stimulus": "/static/audio/wordpool/HAMPER.wav", "key_press": -1, "type": "PRES_AUD", "word": "hamper", "wordID": 681, "conditions": [12, 800, "a", 12000], "trial": 3, "serialpos": 6, "trial_type": "single-audio", "trial_index": 123, "time_elapsed": 615333, "internal_node_id": "0.0-87.0"}}, {"uniqueid": "MTK0553:3OE22WJIGJV8KJ2RO37308ZUT4EUQ9", "current_trial": 124, "dateTime": 1511209806712, "trialdata": {"rt": -1000, "stimulus": "/static/audio/wordpool/BANKER.wav", "key_press": -1, "type": "PRES_AUD", "word": "banker", "wordID": 83, "conditions": [12, 800, "a", 12000], "trial": 3, "serialpos": 7, "trial_type": "single-audio", "trial_index": 124, "time_elapsed": 616948, "internal_node_id": "0.0-88.0"}}, {"uniqueid": "MTK0553:3OE22WJIGJV8KJ2RO37308ZUT4EUQ9", "current_trial": 125, "dateTime": 1511209808532, "trialdata": {"rt": -1000, "stimulus": "/static/audio/wordpool/BRANCH.wav", "key_press": -1, "type": "PRES_AUD", "word": "branch", "wordID": 167, "conditions": [12, 800, "a", 12000], "trial": 3, "serialpos": 8, "trial_type": "single-audio", "trial_index": 125, "time_elapsed": 618768, "internal_node_id": "0.0-89.0"}}, {"uniqueid": "MTK0553:3OE22WJIGJV8KJ2RO37308ZUT4EUQ9", "current_trial": 126, "dateTime": 1511209810197, "trialdata": {"rt": -1000, "stimulus": "/static/audio/wordpool/SALMON.wav", "key_press": -1, "type": "PRES_AUD", "word": "salmon", "wordID": 1226, "conditions": [12, 800, "a", 12000], "trial": 3, "serialpos": 9, "trial_type": "single-audio", "trial_index": 126, "time_elapsed": 620433, "internal_node_id": "0.0-90.0"}}, {"uniqueid": "MTK0553:3OE22WJIGJV8KJ2RO37308ZUT4EUQ9", "current_trial": 127, "dateTime": 1511209811990, "trialdata": {"rt": -1000, "stimulus": "/static/audio/wordpool/WARDROBE.wav", "key_press": -1, "type": "PRES_AUD", "word": "wardrobe", "wordID": 1586, "conditions": [12, 800, "a", 12000], "trial": 3, "serialpos": 10, "trial_type": "single-audio", "trial_index": 127, "time_elapsed": 622226, "internal_node_id": "0.0-91.0"}}, {"uniqueid": "MTK0553:3OE22WJIGJV8KJ2RO37308ZUT4EUQ9", "current_trial": 128, "dateTime": 1511209813848, "trialdata": {"rt": -1000, "stimulus": "/static/audio/wordpool/POPCORN.wav", "key_press": -1, "type": "PRES_AUD", "word": "popcorn", "wordID": 1103, "conditions": [12, 800, "a", 12000], "trial": 3, "serialpos": 11, "trial_type": "single-audio", "trial_index": 128, "time_elapsed": 624084, "internal_node_id": "0.0-92.0"}}, {"uniqueid": "MTK0553:3OE22WJIGJV8KJ2RO37308ZUT4EUQ9", "current_trial": 129, "dateTime": 1511209815220, "trialdata": {"rt": -1, "stimulus": "", "key_press": -1, "type": "PRE_RECALL_DELAY", "trial_type": "single-stim", "trial_index": 129, "time_elapsed": 625455, "internal_node_id": "0.0-93.0-0.0"}}, {"uniqueid": "MTK0553:3OE22WJIGJV8KJ2RO37308ZUT4EUQ9", "current_trial": 130, "dateTime": 1511209815723, "trialdata": {"rt": -1000, "stimulus": "/static/audio/400Hz.wav", "key_press": -1, "type": "PRE_RECALL_ALERT", "trial_type": "single-audio", "trial_index": 130, "time_elapsed": 625958, "internal_node_id": "0.0-94.0"}}, {"uniqueid": "MTK0553:3OE22WJIGJV8KJ2RO37308ZUT4EUQ9", "current_trial": 131, "dateTime": 1511209875739, "trialdata": {"rt": [3869, 6344, 9326, 13339, 16252, 27450, 29297], "recwords": ["popcorn", "banker", "branch", "wardrobe", "hamper", "victim", "woman"], "type": "FREE_RECALL", "conditions": [12, 800, "a", 12000], "trial": 3, "trial_type": "free-recall", "trial_index": 131, "time_elapsed": 685965, "internal_node_id": "0.0-95.0-0.0"}}, {"uniqueid": "MTK0553:3OE22WJIGJV8KJ2RO37308ZUT4EUQ9", "current_trial": 132, "dateTime": 1511209878993, "trialdata": {"rt": 1252, "key_press": 32, "type": "INSTRUCTIONS", "trial_type": "text", "trial_index": 132, "time_elapsed": 689228, "internal_node_id": "0.0-96.0"}}, {"uniqueid": "MTK0553:3OE22WJIGJV8KJ2RO37308ZUT4EUQ9", "current_trial": 133, "dateTime": 1511209893000, "trialdata": {"rt": [2824, 5177, 6839, 11135], "responses": ["16", "20", "7", "20"], "num1": [8, 5, 1, 4, 1], "num2": [2, 6, 5, 7, 7], "num3": [6, 9, 1, 9, 3], "type": "DISTRACTOR", "conditions": [12, 1600, "a", 12000], "trial": 4, "trial_type": "math-distractor", "trial_index": 133, "time_elapsed": 703236, "internal_node_id": "0.0-97.0"}}, {"uniqueid": "MTK0553:3OE22WJIGJV8KJ2RO37308ZUT4EUQ9", "current_trial": 134, "dateTime": 1511209896004, "trialdata": {"rt": -1, "stimulus": "<p id=\"stim\">10</p>", "key_press": -1, "trial_type": "single-stim", "trial_index": 134, "time_elapsed": 706240, "internal_node_id": "0.0-98.0-0.0"}}, {"uniqueid": "MTK0553:3OE22WJIGJV8KJ2RO37308ZUT4EUQ9", "current_trial": 135, "dateTime": 1511209897011, "trialdata": {"rt": -1, "stimulus": "<p id=\"stim\">9</p>", "key_press": -1, "trial_type": "single-stim", "trial_index": 135, "time_elapsed": 707247, "internal_node_id": "0.0-98.0-1.0"}}, {"uniqueid": "MTK0553:3OE22WJIGJV8KJ2RO37308ZUT4EUQ9", "current_trial": 136, "dateTime": 1511209898014, "trialdata": {"rt": -1, "stimulus": "<p id=\"stim\">8</p>", "key_press": -1, "trial_type": "single-stim", "trial_index": 136, "time_elapsed": 708249, "internal_node_id": "0.0-98.0-2.0"}}, {"uniqueid": "MTK0553:3OE22WJIGJV8KJ2RO37308ZUT4EUQ9", "current_trial": 137, "dateTime": 1511209899016, "trialdata": {"rt": -1, "stimulus": "<p id=\"stim\">7</p>", "key_press": -1, "trial_type": "single-stim", "trial_index": 137, "time_elapsed": 709252, "internal_node_id": "0.0-98.0-3.0"}}, {"uniqueid": "MTK0553:3OE22WJIGJV8KJ2RO37308ZUT4EUQ9", "current_trial": 138, "dateTime": 1511209900018, "trialdata": {"rt": -1, "stimulus": "<p id=\"stim\">6</p>", "key_press": -1, "trial_type": "single-stim", "trial_index": 138, "time_elapsed": 710253, "internal_node_id": "0.0-98.0-4.0"}}, {"uniqueid": "MTK0553:3OE22WJIGJV8KJ2RO37308ZUT4EUQ9", "current_trial": 139, "dateTime": 1511209901023, "trialdata": {"rt": -1, "stimulus": "<p id=\"stim\">5</p>", "key_press": -1, "trial_type": "single-stim", "trial_index": 139, "time_elapsed": 711259, "internal_node_id": "0.0-98.0-5.0"}}, {"uniqueid": "MTK0553:3OE22WJIGJV8KJ2RO37308ZUT4EUQ9", "current_trial": 140, "dateTime": 1511209902026, "trialdata": {"rt": -1, "stimulus": "<p id=\"stim\">4</p>", "key_press": -1, "trial_type": "single-stim", "trial_index": 140, "time_elapsed": 712262, "internal_node_id": "0.0-98.0-6.0"}}, {"uniqueid": "MTK0553:3OE22WJIGJV8KJ2RO37308ZUT4EUQ9", "current_trial": 141, "dateTime": 1511209903028, "trialdata": {"rt": -1, "stimulus": "<p id=\"stim\">3</p>", "key_press": -1, "trial_type": "single-stim", "trial_index": 141, "time_elapsed": 713264, "internal_node_id": "0.0-98.0-7.0"}}, {"uniqueid": "MTK0553:3OE22WJIGJV8KJ2RO37308ZUT4EUQ9", "current_trial": 142, "dateTime": 1511209904031, "trialdata": {"rt": -1, "stimulus": "<p id=\"stim\">2</p>", "key_press": -1, "trial_type": "single-stim", "trial_index": 142, "time_elapsed": 714266, "internal_node_id": "0.0-98.0-8.0"}}, {"uniqueid": "MTK0553:3OE22WJIGJV8KJ2RO37308ZUT4EUQ9", "current_trial": 143, "dateTime": 1511209905033, "trialdata": {"rt": -1, "stimulus": "<p id=\"stim\">1</p>", "key_press": -1, "trial_type": "single-stim", "trial_index": 143, "time_elapsed": 715269, "internal_node_id": "0.0-98.0-9.0"}}, {"uniqueid": "MTK0553:3OE22WJIGJV8KJ2RO37308ZUT4EUQ9", "current_trial": 144, "dateTime": 1511209906534, "trialdata": {"rt": -1, "stimulus": "<p id=\"stim\">+</p>", "key_press": -1, "type": "FIXATION", "trial_type": "single-stim", "trial_index": 144, "time_elapsed": 716770, "internal_node_id": "0.0-99.0-0.0"}}, {"uniqueid": "MTK0553:3OE22WJIGJV8KJ2RO37308ZUT4EUQ9", "current_trial": 145, "dateTime": 1511209909029, "trialdata": {"rt": -1000, "stimulus": "/static/audio/wordpool/PUDDING.wav", "key_press": -1, "type": "PRES_AUD", "word": "pudding", "wordID": 1138, "conditions": [12, 1600, "a", 12000], "trial": 4, "serialpos": 0, "trial_type": "single-audio", "trial_index": 145, "time_elapsed": 719265, "internal_node_id": "0.0-100.0"}}, {"uniqueid": "MTK0553:3OE22WJIGJV8KJ2RO37308ZUT4EUQ9", "current_trial": 146, "dateTime": 1511209911436, "trialdata": {"rt": -1000, "stimulus": "/static/audio/wordpool/FEMALE.wav", "key_press": -1, "type": "PRES_AUD", "word": "female", "wordID": 558, "conditions": [12, 1600, "a", 12000], "trial": 4, "serialpos": 1, "trial_type": "single-audio", "trial_index": 146, "time_elapsed": 721672, "internal_node_id": "0.0-101.0"}}, {"uniqueid": "MTK0553:3OE22WJIGJV8KJ2RO37308ZUT4EUQ9", "current_trial": 147, "dateTime": 1511209914088, "trialdata": {"rt": -1000, "stimulus": "/static/audio/wordpool/PATROL.wav", "key_press": -1, "type": "PRES_AUD", "word": "patrol", "wordID": 1026, "conditions": [12, 1600, "a", 12000], "trial": 4, "serialpos": 2, "trial_type": "single-audio", "trial_index": 147, "time_elapsed": 724323, "internal_node_id": "0.0-102.0"}}, {"uniqueid": "MTK0553:3OE22WJIGJV8KJ2RO37308ZUT4EUQ9", "current_trial": 148, "dateTime": 1511209916727, "trialdata": {"rt": -1000, "stimulus": "/static/audio/wordpool/COCKTAIL.wav", "key_press": -1, "type": "PRES_AUD", "word": "cocktail", "wordID": 337, "conditions": [12, 1600, "a", 12000], "trial": 4, "serialpos": 3, "trial_type": "single-audio", "trial_index": 148, "time_elapsed": 726963, "internal_node_id": "0.0-103.0"}}, {"uniqueid": "MTK0553:3OE22WJIGJV8KJ2RO37308ZUT4EUQ9", "current_trial": 149, "dateTime": 1511209919514, "trialdata": {"rt": -1000, "stimulus": "/static/audio/wordpool/MATTRESS.wav", "key_press": -1, "type": "PRES_AUD", "word": "mattress", "wordID": 878, "conditions": [12, 1600, "a", 12000], "trial": 4, "serialpos": 4, "trial_type": "single-audio", "trial_index": 149, "time_elapsed": 729750, "internal_node_id": "0.0-104.0"}}, {"uniqueid": "MTK0553:3OE22WJIGJV8KJ2RO37308ZUT4EUQ9", "current_trial": 150, "dateTime": 1511209921981, "trialdata": {"rt": -1000, "stimulus": "/static/audio/wordpool/KLEENEX.wav", "key_press": -1, "type": "PRES_AUD", "word": "kleenex", "wordID": 781, "conditions": [12, 1600, "a", 12000], "trial": 4, "serialpos": 5, "trial_type": "single-audio", "trial_index": 150, "time_elapsed": 732217, "internal_node_id": "0.0-105.0"}}, {"uniqueid": "MTK0553:3OE22WJIGJV8KJ2RO37308ZUT4EUQ9", "current_trial": 151, "dateTime": 1511209924434, "trialdata": {"rt": -1000, "stimulus": "/static/audio/wordpool/ROBIN.wav", "key_press": -1, "type": "PRES_AUD", "word": "robin", "wordID": 1198, "conditions": [12, 1600, "a", 12000], "trial": 4, "serialpos": 6, "trial_type": "single-audio", "trial_index": 151, "time_elapsed": 734670, "internal_node_id": "0.0-106.0"}}, {"uniqueid": "MTK0553:3OE22WJIGJV8KJ2RO37308ZUT4EUQ9", "current_trial": 152, "dateTime": 1511209926862, "trialdata": {"rt": -1000, "stimulus": "/static/audio/wordpool/SPARROW.wav", "key_press": -1, "type": "PRES_AUD", "word": "sparrow", "wordID": 1346, "conditions": [12, 1600, "a", 12000], "trial": 4, "serialpos": 7, "trial_type": "single-audio", "trial_index": 152, "time_elapsed": 737098, "internal_node_id": "0.0-107.0"}}, {"uniqueid": "MTK0553:3OE22WJIGJV8KJ2RO37308ZUT4EUQ9", "current_trial": 153, "dateTime": 1511209929624, "trialdata": {"rt": -1000, "stimulus": "/static/audio/wordpool/CRIB.wav", "key_press": -1, "type": "PRES_AUD", "word": "crib", "wordID": 406, "conditions": [12, 1600, "a", 12000], "trial": 4, "serialpos": 8, "trial_type": "single-audio", "trial_index": 153, "time_elapsed": 739860, "internal_node_id": "0.0-108.0"}}, {"uniqueid": "MTK0553:3OE22WJIGJV8KJ2RO37308ZUT4EUQ9", "current_trial": 154, "dateTime": 1511209932324, "trialdata": {"rt": -1000, "stimulus": "/static/audio/wordpool/DRUG.wav", "key_press": -1, "type": "PRES_AUD", "word": "drug", "wordID": 500, "conditions": [12, 1600, "a", 12000], "trial": 4, "serialpos": 9, "trial_type": "single-audio", "trial_index": 154, "time_elapsed": 742559, "internal_node_id": "0.0-109.0"}}, {"uniqueid": "MTK0553:3OE22WJIGJV8KJ2RO37308ZUT4EUQ9", "current_trial": 155, "dateTime": 1511209935032, "trialdata": {"rt": -1000, "stimulus": "/static/audio/wordpool/POISON.wav", "key_press": -1, "type": "PRES_AUD", "word": "poison", "wordID": 1095, "conditions": [12, 1600, "a", 12000], "trial": 4, "serialpos": 10, "trial_type": "single-audio", "trial_index": 155, "time_elapsed": 745267, "internal_node_id": "0.0-110.0"}}, {"uniqueid": "MTK0553:3OE22WJIGJV8KJ2RO37308ZUT4EUQ9", "current_trial": 156, "dateTime": 1511209937590, "trialdata": {"rt": -1000, "stimulus": "/static/audio/wordpool/BLADE.wav", "key_press": -1, "type": "PRES_AUD", "word": "blade", "wordID": 133, "conditions": [12, 1600, "a", 12000], "trial": 4, "serialpos": 11, "trial_type": "single-audio", "trial_index": 156, "time_elapsed": 747826, "internal_node_id": "0.0-111.0"}}, {"uniqueid": "MTK0553:3OE22WJIGJV8KJ2RO37308ZUT4EUQ9", "current_trial": 157, "dateTime": 1511209938950, "trialdata": {"rt": -1, "stimulus": "", "key_press": -1, "type": "PRE_RECALL_DELAY", "trial_type": "single-stim", "trial_index": 157, "time_elapsed": 749186, "internal_node_id": "0.0-112.0-0.0"}}, {"uniqueid": "MTK0553:3OE22WJIGJV8KJ2RO37308ZUT4EUQ9", "current_trial": 158, "dateTime": 1511209939453, "trialdata": {"rt": -1000, "stimulus": "/static/audio/400Hz.wav", "key_press": -1, "type": "PRE_RECALL_ALERT", "trial_type": "single-audio", "trial_index": 158, "time_elapsed": 749689, "internal_node_id": "0.0-113.0"}}, {"uniqueid": "MTK0553:3OE22WJIGJV8KJ2RO37308ZUT4EUQ9", "current_trial": 159, "dateTime": 1511209999468, "trialdata": {"rt": [4032, 6471, 8528, 12820, 16397, 18430, 26388], "recwords": ["crib", "blade", "drup", "poison", "mattress", "female", "cocktail"], "type": "FREE_RECALL", "conditions": [12, 1600, "a", 12000], "trial": 4, "trial_type": "free-recall", "trial_index": 159, "time_elapsed": 809695, "internal_node_id": "0.0-114.0-0.0"}}, {"uniqueid": "MTK0553:3OE22WJIGJV8KJ2RO37308ZUT4EUQ9", "current_trial": 160, "dateTime": 1511210002690, "trialdata": {"rt": 1221, "key_press": 32, "type": "INSTRUCTIONS", "trial_type": "text", "trial_index": 160, "time_elapsed": 812926, "internal_node_id": "0.0-115.0"}}, {"uniqueid": "MTK0553:3OE22WJIGJV8KJ2RO37308ZUT4EUQ9", "current_trial": 161, "dateTime": 1511210028699, "trialdata": {"rt": [2275, 5802, 8110, 10690, 12634, 15527, 17465, 19115, 21662], "responses": ["15", "16", "14", "13", "10", "17", "11", "8", "17"], "num1": [7, 9, 4, 8, 4, 9, 6, 3, 7, 8], "num2": [1, 5, 8, 3, 2, 7, 4, 4, 6, 3], "num3": [7, 2, 2, 2, 4, 1, 1, 1, 4, 5], "type": "DISTRACTOR", "conditions": [12, 800, "a", 24000], "trial": 5, "trial_type": "math-distractor", "trial_index": 161, "time_elapsed": 838934, "internal_node_id": "0.0-116.0"}}, {"uniqueid": "MTK0553:3OE22WJIGJV8KJ2RO37308ZUT4EUQ9", "current_trial": 162, "dateTime": 1511210031702, "trialdata": {"rt": -1, "stimulus": "<p id=\"stim\">10</p>", "key_press": -1, "trial_type": "single-stim", "trial_index": 162, "time_elapsed": 841938, "internal_node_id": "0.0-117.0-0.0"}}, {"uniqueid": "MTK0553:3OE22WJIGJV8KJ2RO37308ZUT4EUQ9", "current_trial": 163, "dateTime": 1511210032705, "trialdata": {"rt": -1, "stimulus": "<p id=\"stim\">9</p>", "key_press": -1, "trial_type": "single-stim", "trial_index": 163, "time_elapsed": 842940, "internal_node_id": "0.0-117.0-1.0"}}, {"uniqueid": "MTK0553:3OE22WJIGJV8KJ2RO37308ZUT4EUQ9", "current_trial": 164, "dateTime": 1511210033706, "trialdata": {"rt": -1, "stimulus": "<p id=\"stim\">8</p>", "key_press": -1, "trial_type": "single-stim", "trial_index": 164, "time_elapsed": 843941, "internal_node_id": "0.0-117.0-2.0"}}, {"uniqueid": "MTK0553:3OE22WJIGJV8KJ2RO37308ZUT4EUQ9", "current_trial": 165, "dateTime": 1511210034707, "trialdata": {"rt": -1, "stimulus": "<p id=\"stim\">7</p>", "key_press": -1, "trial_type": "single-stim", "trial_index": 165, "time_elapsed": 844943, "internal_node_id": "0.0-117.0-3.0"}}, {"uniqueid": "MTK0553:3OE22WJIGJV8KJ2RO37308ZUT4EUQ9", "current_trial": 166, "dateTime": 1511210035710, "trialdata": {"rt": -1, "stimulus": "<p id=\"stim\">6</p>", "key_press": -1, "trial_type": "single-stim", "trial_index": 166, "time_elapsed": 845945, "internal_node_id": "0.0-117.0-4.0"}}, {"uniqueid": "MTK0553:3OE22WJIGJV8KJ2RO37308ZUT4EUQ9", "current_trial": 167, "dateTime": 1511210036713, "trialdata": {"rt": -1, "stimulus": "<p id=\"stim\">5</p>", "key_press": -1, "trial_type": "single-stim", "trial_index": 167, "time_elapsed": 846949, "internal_node_id": "0.0-117.0-5.0"}}, {"uniqueid": "MTK0553:3OE22WJIGJV8KJ2RO37308ZUT4EUQ9", "current_trial": 168, "dateTime": 1511210037715, "trialdata": {"rt": -1, "stimulus": "<p id=\"stim\">4</p>", "key_press": -1, "trial_type": "single-stim", "trial_index": 168, "time_elapsed": 847950, "internal_node_id": "0.0-117.0-6.0"}}, {"uniqueid": "MTK0553:3OE22WJIGJV8KJ2RO37308ZUT4EUQ9", "current_trial": 169, "dateTime": 1511210038717, "trialdata": {"rt": -1, "stimulus": "<p id=\"stim\">3</p>", "key_press": -1, "trial_type": "single-stim", "trial_index": 169, "time_elapsed": 848953, "internal_node_id": "0.0-117.0-7.0"}}, {"uniqueid": "MTK0553:3OE22WJIGJV8KJ2RO37308ZUT4EUQ9", "current_trial": 170, "dateTime": 1511210039718, "trialdata": {"rt": -1, "stimulus": "<p id=\"stim\">2</p>", "key_press": -1, "trial_type": "single-stim", "trial_index": 170, "time_elapsed": 849954, "internal_node_id": "0.0-117.0-8.0"}}, {"uniqueid": "MTK0553:3OE22WJIGJV8KJ2RO37308ZUT4EUQ9", "current_trial": 171, "dateTime": 1511210040720, "trialdata": {"rt": -1, "stimulus": "<p id=\"stim\">1</p>", "key_press": -1, "trial_type": "single-stim", "trial_index": 171, "time_elapsed": 850956, "internal_node_id": "0.0-117.0-9.0"}}, {"uniqueid": "MTK0553:3OE22WJIGJV8KJ2RO37308ZUT4EUQ9", "current_trial": 172, "dateTime": 1511210042223, "trialdata": {"rt": -1, "stimulus": "<p id=\"stim\">+</p>", "key_press": -1, "type": "FIXATION", "trial_type": "single-stim", "trial_index": 172, "time_elapsed": 852459, "internal_node_id": "0.0-118.0-0.0"}}, {"uniqueid": "MTK0553:3OE22WJIGJV8KJ2RO37308ZUT4EUQ9", "current_trial": 173, "dateTime": 1511210043922, "trialdata": {"rt": -1000, "stimulus": "/static/audio/wordpool/HEADBAND.wav", "key_press": -1, "type": "PRES_AUD", "word": "headband", "wordID": 695, "conditions": [12, 800, "a", 24000], "trial": 5, "serialpos": 0, "trial_type": "single-audio", "trial_index": 173, "time_elapsed": 854157, "internal_node_id": "0.0-119.0"}}, {"uniqueid": "MTK0553:3OE22WJIGJV8KJ2RO37308ZUT4EUQ9", "current_trial": 174, "dateTime": 1511210045884, "trialdata": {"rt": -1000, "stimulus": "/static/audio/wordpool/SHIRT.wav", "key_press": -1, "type": "PRES_AUD", "word": "shirt", "wordID": 1286, "conditions": [12, 800, "a", 24000], "trial": 5, "serialpos": 1, "trial_type": "single-audio", "trial_index": 174, "time_elapsed": 856120, "internal_node_id": "0.0-120.0"}}, {"uniqueid": "MTK0553:3OE22WJIGJV8KJ2RO37308ZUT4EUQ9", "current_trial": 175, "dateTime": 1511210047532, "trialdata": {"rt": -1000, "stimulus": "/static/audio/wordpool/WRENCH.wav", "key_press": -1, "type": "PRES_AUD", "word": "wrench", "wordID": 1624, "conditions": [12, 800, "a", 24000], "trial": 5, "serialpos": 2, "trial_type": "single-audio", "trial_index": 175, "time_elapsed": 857767, "internal_node_id": "0.0-121.0"}}, {"uniqueid": "MTK0553:3OE22WJIGJV8KJ2RO37308ZUT4EUQ9", "current_trial": 176, "dateTime": 1511210049503, "trialdata": {"rt": -1000, "stimulus": "/static/audio/wordpool/SCISSORS.wav", "key_press": -1, "type": "PRES_AUD", "word": "scissors", "wordID": 1249, "conditions": [12, 800, "a", 24000], "trial": 5, "serialpos": 3, "trial_type": "single-audio", "trial_index": 176, "time_elapsed": 859738, "internal_node_id": "0.0-122.0"}}, {"uniqueid": "MTK0553:3OE22WJIGJV8KJ2RO37308ZUT4EUQ9", "current_trial": 177, "dateTime": 1511210051338, "trialdata": {"rt": -1000, "stimulus": "/static/audio/wordpool/SHELF.wav", "key_press": -1, "type": "PRES_AUD", "word": "shelf", "wordID": 1279, "conditions": [12, 800, "a", 24000], "trial": 5, "serialpos": 4, "trial_type": "single-audio", "trial_index": 177, "time_elapsed": 861573, "internal_node_id": "0.0-123.0"}}, {"uniqueid": "MTK0553:3OE22WJIGJV8KJ2RO37308ZUT4EUQ9", "current_trial": 178, "dateTime": 1511210053147, "trialdata": {"rt": -1000, "stimulus": "/static/audio/wordpool/PASTA.wav", "key_press": -1, "type": "PRES_AUD", "word": "pasta", "wordID": 1020, "conditions": [12, 800, "a", 24000], "trial": 5, "serialpos": 5, "trial_type": "single-audio", "trial_index": 178, "time_elapsed": 863382, "internal_node_id": "0.0-124.0"}}, {"uniqueid": "MTK0553:3OE22WJIGJV8KJ2RO37308ZUT4EUQ9", "current_trial": 179, "dateTime": 1511210054988, "trialdata": {"rt": -1000, "stimulus": "/static/audio/wordpool/QUAIL.wav", "key_press": -1, "type": "PRES_AUD", "word": "quail", "wordID": 1146, "conditions": [12, 800, "a", 24000], "trial": 5, "serialpos": 6, "trial_type": "single-audio", "trial_index": 179, "time_elapsed": 865224, "internal_node_id": "0.0-125.0"}}, {"uniqueid": "MTK0553:3OE22WJIGJV8KJ2RO37308ZUT4EUQ9", "current_trial": 180, "dateTime": 1511210056709, "trialdata": {"rt": -1000, "stimulus": "/static/audio/wordpool/HAWK.wav", "key_press": -1, "type": "PRES_AUD", "word": "hawk", "wordID": 691, "conditions": [12, 800, "a", 24000], "trial": 5, "serialpos": 7, "trial_type": "single-audio", "trial_index": 180, "time_elapsed": 866945, "internal_node_id": "0.0-126.0"}}, {"uniqueid": "MTK0553:3OE22WJIGJV8KJ2RO37308ZUT4EUQ9", "current_trial": 181, "dateTime": 1511210058655, "trialdata": {"rt": -1000, "stimulus": "/static/audio/wordpool/BODY.wav", "key_press": -1, "type": "PRES_AUD", "word": "body", "wordID": 144, "conditions": [12, 800, "a", 24000], "trial": 5, "serialpos": 8, "trial_type": "single-audio", "trial_index": 181, "time_elapsed": 868890, "internal_node_id": "0.0-127.0"}}, {"uniqueid": "MTK0553:3OE22WJIGJV8KJ2RO37308ZUT4EUQ9", "current_trial": 182, "dateTime": 1511210060364, "trialdata": {"rt": -1000, "stimulus": "/static/audio/wordpool/FLIPPER.wav", "key_press": -1, "type": "PRES_AUD", "word": "flipper", "wordID": 579, "conditions": [12, 800, "a", 24000], "trial": 5, "serialpos": 9, "trial_type": "single-audio", "trial_index": 182, "time_elapsed": 870600, "internal_node_id": "0.0-128.0"}}, {"uniqueid": "MTK0553:3OE22WJIGJV8KJ2RO37308ZUT4EUQ9", "current_trial": 183, "dateTime": 1511210062007, "trialdata": {"rt": -1000, "stimulus": "/static/audio/wordpool/TWEEZERS.wav", "key_press": -1, "type": "PRES_AUD", "word": "tweezers", "wordID": 1525, "conditions": [12, 800, "a", 24000], "trial": 5, "serialpos": 10, "trial_type": "single-audio", "trial_index": 183, "time_elapsed": 872243, "internal_node_id": "0.0-129.0"}}, {"uniqueid": "MTK0553:3OE22WJIGJV8KJ2RO37308ZUT4EUQ9", "current_trial": 184, "dateTime": 1511210063982, "trialdata": {"rt": -1000, "stimulus": "/static/audio/wordpool/GLOVE.wav", "key_press": -1, "type": "PRES_AUD", "word": "glove", "wordID": 641, "conditions": [12, 800, "a", 24000], "trial": 5, "serialpos": 11, "trial_type": "single-audio", "trial_index": 184, "time_elapsed": 874218, "internal_node_id": "0.0-130.0"}}, {"uniqueid": "MTK0553:3OE22WJIGJV8KJ2RO37308ZUT4EUQ9", "current_trial": 185, "dateTime": 1511210065299, "trialdata": {"rt": -1, "stimulus": "", "key_press": -1, "type": "PRE_RECALL_DELAY", "trial_type": "single-stim", "trial_index": 185, "time_elapsed": 875535, "internal_node_id": "0.0-131.0-0.0"}}, {"uniqueid": "MTK0553:3OE22WJIGJV8KJ2RO37308ZUT4EUQ9", "current_trial": 186, "dateTime": 1511210065802, "trialdata": {"rt": -1000, "stimulus": "/static/audio/400Hz.wav", "key_press": -1, "type": "PRE_RECALL_ALERT", "trial_type": "single-audio", "trial_index": 186, "time_elapsed": 876037, "internal_node_id": "0.0-132.0"}}, {"uniqueid": "MTK0553:3OE22WJIGJV8KJ2RO37308ZUT4EUQ9", "current_trial": 187, "dateTime": 1511210125819, "trialdata": {"rt": [3942, 7137, 10812, 19730, 25109, 38502, 41559, 45356], "recwords": ["flipper", "glove", "penguin", "pudding", "shirt", "quail", "pharoah", "hawk"], "type": "FREE_RECALL", "conditions": [12, 800, "a", 24000], "trial": 5, "trial_type": "free-recall", "trial_index": 187, "time_elapsed": 936046, "internal_node_id": "0.0-133.0-0.0"}}, {"uniqueid": "MTK0553:3OE22WJIGJV8KJ2RO37308ZUT4EUQ9", "current_trial": 188, "dateTime": 1511210128679, "trialdata": {"rt": 859, "key_press": 32, "type": "INSTRUCTIONS", "trial_type": "text", "trial_index": 188, "time_elapsed": 938915, "internal_node_id": "0.0-134.0"}}, {"uniqueid": "MTK0553:3OE22WJIGJV8KJ2RO37308ZUT4EUQ9", "current_trial": 189, "dateTime": 1511210142688, "trialdata": {"rt": [3394, 5489, 7507, 9884], "responses": ["14", "13", "16", "19"], "num1": [4, 5, 3, 6, 2], "num2": [5, 7, 7, 4, 7], "num3": [5, 1, 6, 9, 7], "type": "DISTRACTOR", "conditions": [12, 800, "v", 12000], "trial": 6, "trial_type": "math-distractor", "trial_index": 189, "time_elapsed": 952924, "internal_node_id": "0.0-135.0"}}, {"uniqueid": "MTK0553:3OE22WJIGJV8KJ2RO37308ZUT4EUQ9", "current_trial": 190, "dateTime": 1511210145691, "trialdata": {"rt": -1, "stimulus": "<p id=\"stim\">10</p>", "key_press": -1, "trial_type": "single-stim", "trial_index": 190, "time_elapsed": 955927, "internal_node_id": "0.0-136.0-0.0"}}, {"uniqueid": "MTK0553:3OE22WJIGJV8KJ2RO37308ZUT4EUQ9", "current_trial": 191, "dateTime": 1511210146693, "trialdata": {"rt": -1, "stimulus": "<p id=\"stim\">9</p>", "key_press": -1, "trial_type": "single-stim", "trial_index": 191, "time_elapsed": 956929, "internal_node_id": "0.0-136.0-1.0"}}, {"uniqueid": "MTK0553:3OE22WJIGJV8KJ2RO37308ZUT4EUQ9", "current_trial": 192, "dateTime": 1511210147695, "trialdata": {"rt": -1, "stimulus": "<p id=\"stim\">8</p>", "key_press": -1, "trial_type": "single-stim", "trial_index": 192, "time_elapsed": 957931, "internal_node_id": "0.0-136.0-2.0"}}, {"uniqueid": "MTK0553:3OE22WJIGJV8KJ2RO37308ZUT4EUQ9", "current_trial": 193, "dateTime": 1511210148697, "trialdata": {"rt": -1, "stimulus": "<p id=\"stim\">7</p>", "key_press": -1, "trial_type": "single-stim", "trial_index": 193, "time_elapsed": 958933, "internal_node_id": "0.0-136.0-3.0"}}, {"uniqueid": "MTK0553:3OE22WJIGJV8KJ2RO37308ZUT4EUQ9", "current_trial": 194, "dateTime": 1511210149700, "trialdata": {"rt": -1, "stimulus": "<p id=\"stim\">6</p>", "key_press": -1, "trial_type": "single-stim", "trial_index": 194, "time_elapsed": 959935, "internal_node_id": "0.0-136.0-4.0"}}, {"uniqueid": "MTK0553:3OE22WJIGJV8KJ2RO37308ZUT4EUQ9", "current_trial": 195, "dateTime": 1511210150703, "trialdata": {"rt": -1, "stimulus": "<p id=\"stim\">5</p>", "key_press": -1, "trial_type": "single-stim", "trial_index": 195, "time_elapsed": 960939, "internal_node_id": "0.0-136.0-5.0"}}, {"uniqueid": "MTK0553:3OE22WJIGJV8KJ2RO37308ZUT4EUQ9", "current_trial": 196, "dateTime": 1511210151706, "trialdata": {"rt": -1, "stimulus": "<p id=\"stim\">4</p>", "key_press": -1, "trial_type": "single-stim", "trial_index": 196, "time_elapsed": 961941, "internal_node_id": "0.0-136.0-6.0"}}, {"uniqueid": "MTK0553:3OE22WJIGJV8KJ2RO37308ZUT4EUQ9", "current_trial": 197, "dateTime": 1511210152709, "trialdata": {"rt": -1, "stimulus": "<p id=\"stim\">3</p>", "key_press": -1, "trial_type": "single-stim", "trial_index": 197, "time_elapsed": 962945, "internal_node_id": "0.0-136.0-7.0"}}, {"uniqueid": "MTK0553:3OE22WJIGJV8KJ2RO37308ZUT4EUQ9", "current_trial": 198, "dateTime": 1511210153712, "trialdata": {"rt": -1, "stimulus": "<p id=\"stim\">2</p>", "key_press": -1, "trial_type": "single-stim", "trial_index": 198, "time_elapsed": 963948, "internal_node_id": "0.0-136.0-8.0"}}, {"uniqueid": "MTK0553:3OE22WJIGJV8KJ2RO37308ZUT4EUQ9", "current_trial": 199, "dateTime": 1511210154715, "trialdata": {"rt": -1, "stimulus": "<p id=\"stim\">1</p>", "key_press": -1, "trial_type": "single-stim", "trial_index": 199, "time_elapsed": 964950, "internal_node_id": "0.0-136.0-9.0"}}, {"uniqueid": "MTK0553:3OE22WJIGJV8KJ2RO37308ZUT4EUQ9", "current_trial": 200, "dateTime": 1511210156217, "trialdata": {"rt": -1, "stimulus": "<p id=\"stim\">+</p>", "key_press": -1, "type": "FIXATION", "trial_type": "single-stim", "trial_index": 200, "time_elapsed": 966453, "internal_node_id": "0.0-137.0-0.0"}}, {"uniqueid": "MTK0553:3OE22WJIGJV8KJ2RO37308ZUT4EUQ9", "current_trial": 201, "dateTime": 1511210157021, "trialdata": {"rt": -1, "stimulus": "<p id=\"stim\">WAITRESS</p>", "key_press": -1, "type": "PRES_VIS", "word": "waitress", "wordID": 1580, "conditions": [12, 800, "v", 12000], "trial": 6, "serialpos": 0, "trial_type": "single-stim", "trial_index": 201, "time_elapsed": 967257, "internal_node_id": "0.0-138.0"}}, {"uniqueid": "MTK0553:3OE22WJIGJV8KJ2RO37308ZUT4EUQ9", "current_trial": 202, "dateTime": 1511210158650, "trialdata": {"rt": -1, "stimulus": "<p id=\"stim\">CRATER</p>", "key_press": -1, "type": "PRES_VIS", "word": "crater", "wordID": 399, "conditions": [12, 800, "v", 12000], "trial": 6, "serialpos": 1, "trial_type": "single-stim", "trial_index": 202, "time_elapsed": 968886, "internal_node_id": "0.0-139.0"}}, {"uniqueid": "MTK0553:3OE22WJIGJV8KJ2RO37308ZUT4EUQ9", "current_trial": 203, "dateTime": 1511210160596, "trialdata": {"rt": -1, "stimulus": "<p id=\"stim\">CRITIC</p>", "key_press": -1, "type": "PRES_VIS", "word": "critic", "wordID": 409, "conditions": [12, 800, "v", 12000], "trial": 6, "serialpos": 2, "trial_type": "single-stim", "trial_index": 203, "time_elapsed": 970831, "internal_node_id": "0.0-140.0"}}, {"uniqueid": "MTK0553:3OE22WJIGJV8KJ2RO37308ZUT4EUQ9", "current_trial": 204, "dateTime": 1511210162543, "trialdata": {"rt": -1, "stimulus": "<p id=\"stim\">FOOTBALL</p>", "key_press": -1, "type": "PRES_VIS", "word": "football", "wordID": 590, "conditions": [12, 800, "v", 12000], "trial": 6, "serialpos": 3, "trial_type": "single-stim", "trial_index": 204, "time_elapsed": 972778, "internal_node_id": "0.0-141.0"}}, {"uniqueid": "MTK0553:3OE22WJIGJV8KJ2RO37308ZUT4EUQ9", "current_trial": 205, "dateTime": 1511210164440, "trialdata": {"rt": -1, "stimulus": "<p id=\"stim\">PARTNER</p>", "key_press": -1, "type": "PRES_VIS", "word": "partner", "wordID": 1016, "conditions": [12, 800, "v", 12000], "trial": 6, "serialpos": 4, "trial_type": "single-stim", "trial_index": 205, "time_elapsed": 974675, "internal_node_id": "0.0-142.0"}}, {"uniqueid": "MTK0553:3OE22WJIGJV8KJ2RO37308ZUT4EUQ9", "current_trial": 206, "dateTime": 1511210166395, "trialdata": {"rt": -1, "stimulus": "<p id=\"stim\">SHORTCAKE</p>", "key_press": -1, "type": "PRES_VIS", "word": "shortcake", "wordID": 1291, "conditions": [12, 800, "v", 12000], "trial": 6, "serialpos": 5, "trial_type": "single-stim", "trial_index": 206, "time_elapsed": 976631, "internal_node_id": "0.0-143.0"}}, {"uniqueid": "MTK0553:3OE22WJIGJV8KJ2RO37308ZUT4EUQ9", "current_trial": 207, "dateTime": 1511210168390, "trialdata": {"rt": -1, "stimulus": "<p id=\"stim\">OMELET</p>", "key_press": -1, "type": "PRES_VIS", "word": "omelet", "wordID": 975, "conditions": [12, 800, "v", 12000], "trial": 6, "serialpos": 6, "trial_type": "single-stim", "trial_index": 207, "time_elapsed": 978626, "internal_node_id": "0.0-144.0"}}, {"uniqueid": "MTK0553:3OE22WJIGJV8KJ2RO37308ZUT4EUQ9", "current_trial": 208, "dateTime": 1511210170290, "trialdata": {"rt": -1, "stimulus": "<p id=\"stim\">CASHIER</p>", "key_press": -1, "type": "PRES_VIS", "word": "cashier", "wordID": 253, "conditions": [12, 800, "v", 12000], "trial": 6, "serialpos": 7, "trial_type": "single-stim", "trial_index": 208, "time_elapsed": 980526, "internal_node_id": "0.0-145.0"}}, {"uniqueid": "MTK0553:3OE22WJIGJV8KJ2RO37308ZUT4EUQ9", "current_trial": 209, "dateTime": 1511210172182, "trialdata": {"rt": -1, "stimulus": "<p id=\"stim\">PISTON</p>", "key_press": -1, "type": "PRES_VIS", "word": "piston", "wordID": 1075, "conditions": [12, 800, "v", 12000], "trial": 6, "serialpos": 8, "trial_type": "single-stim", "trial_index": 209, "time_elapsed": 982417, "internal_node_id": "0.0-146.0"}}, {"uniqueid": "MTK0553:3OE22WJIGJV8KJ2RO37308ZUT4EUQ9", "current_trial": 210, "dateTime": 1511210174100, "trialdata": {"rt": -1, "stimulus": "<p id=\"stim\">PREACHER</p>", "key_press": -1, "type": "PRES_VIS", "word": "preacher", "wordID": 1118, "conditions": [12, 800, "v", 12000], "trial": 6, "serialpos": 9, "trial_type": "single-stim", "trial_index": 210, "time_elapsed": 984336, "internal_node_id": "0.0-147.0"}}, {"uniqueid": "MTK0553:3OE22WJIGJV8KJ2RO37308ZUT4EUQ9", "current_trial": 211, "dateTime": 1511210175777, "trialdata": {"rt": -1, "stimulus": "<p id=\"stim\">GANGSTER</p>", "key_press": -1, "type": "PRES_VIS", "word": "gangster", "wordID": 619, "conditions": [12, 800, "v", 12000], "trial": 6, "serialpos": 10, "trial_type": "single-stim", "trial_index": 211, "time_elapsed": 986013, "internal_node_id": "0.0-148.0"}}, {"uniqueid": "MTK0553:3OE22WJIGJV8KJ2RO37308ZUT4EUQ9", "current_trial": 212, "dateTime": 1511210177713, "trialdata": {"rt": -1, "stimulus": "<p id=\"stim\">FRIEND</p>", "key_press": -1, "type": "PRES_VIS", "word": "friend", "wordID": 605, "conditions": [12, 800, "v", 12000], "trial": 6, "serialpos": 11, "trial_type": "single-stim", "trial_index": 212, "time_elapsed": 987948, "internal_node_id": "0.0-149.0"}}, {"uniqueid": "MTK0553:3OE22WJIGJV8KJ2RO37308ZUT4EUQ9", "current_trial": 213, "dateTime": 1511210180146, "trialdata": {"rt": -1, "stimulus": "", "key_press": -1, "type": "PRE_RECALL_DELAY", "trial_type": "single-stim", "trial_index": 213, "time_elapsed": 990382, "internal_node_id": "0.0-150.0-0.0"}}, {"uniqueid": "MTK0553:3OE22WJIGJV8KJ2RO37308ZUT4EUQ9", "current_trial": 214, "dateTime": 1511210180648, "trialdata": {"rt": -1000, "stimulus": "/static/audio/400Hz.wav", "key_press": -1, "type": "PRE_RECALL_ALERT", "trial_type": "single-audio", "trial_index": 214, "time_elapsed": 990883, "internal_node_id": "0.0-151.0"}}, {"uniqueid": "MTK0553:3OE22WJIGJV8KJ2RO37308ZUT4EUQ9", "current_trial": 215, "dateTime": 1511210240667, "trialdata": {"rt": [3403, 5802, 8462, 10608, 13023], "recwords": ["waitress", "friend", "cashier", "crater", "critic"], "type": "FREE_RECALL", "conditions": [12, 800, "v", 12000], "trial": 6, "trial_type": "free-recall", "trial_index": 215, "time_elapsed": 1050890, "internal_node_id": "0.0-152.0-0.0"}}, {"uniqueid": "MTK0553:3OE22WJIGJV8KJ2RO37308ZUT4EUQ9", "current_trial": 216, "dateTime": 1511210243394, "trialdata": {"rt": 726, "key_press": 13, "type": "INSTRUCTIONS", "trial_type": "text", "trial_index": 216, "time_elapsed": 1053630, "internal_node_id": "0.0-153.0"}}, {"uniqueid": "MTK0553:3OE22WJIGJV8KJ2RO37308ZUT4EUQ9", "current_trial": 217, "dateTime": 1511210257402, "trialdata": {"rt": [2869, 5417, 7662, 9578], "responses": ["15", "22", "14", "12"], "num1": [9, 8, 2, 2, 1], "num2": [5, 7, 5, 8, 9], "num3": [1, 7, 7, 2, 2], "type": "DISTRACTOR", "conditions": [24, 800, "a", 12000], "trial": 7, "trial_type": "math-distractor", "trial_index": 217, "time_elapsed": 1067637, "internal_node_id": "0.0-154.0"}}, {"uniqueid": "MTK0553:3OE22WJIGJV8KJ2RO37308ZUT4EUQ9", "current_trial": 218, "dateTime": 1511210260405, "trialdata": {"rt": -1, "stimulus": "<p id=\"stim\">10</p>", "key_press": -1, "trial_type": "single-stim", "trial_index": 218, "time_elapsed": 1070641, "internal_node_id": "0.0-155.0-0.0"}}, {"uniqueid": "MTK0553:3OE22WJIGJV8KJ2RO37308ZUT4EUQ9", "current_trial": 219, "dateTime": 1511210261407, "trialdata": {"rt": -1, "stimulus": "<p id=\"stim\">9</p>", "key_press": -1, "trial_type": "single-stim", "trial_index": 219, "time_elapsed": 1071643, "internal_node_id": "0.0-155.0-1.0"}}, {"uniqueid": "MTK0553:3OE22WJIGJV8KJ2RO37308ZUT4EUQ9", "current_trial": 220, "dateTime": 1511210262410, "trialdata": {"rt": -1, "stimulus": "<p id=\"stim\">8</p>", "key_press": -1, "trial_type": "single-stim", "trial_index": 220, "time_elapsed": 1072645, "internal_node_id": "0.0-155.0-2.0"}}, {"uniqueid": "MTK0553:3OE22WJIGJV8KJ2RO37308ZUT4EUQ9", "current_trial": 221, "dateTime": 1511210263411, "trialdata": {"rt": -1, "stimulus": "<p id=\"stim\">7</p>", "key_press": -1, "trial_type": "single-stim", "trial_index": 221, "time_elapsed": 1073647, "internal_node_id": "0.0-155.0-3.0"}}, {"uniqueid": "MTK0553:3OE22WJIGJV8KJ2RO37308ZUT4EUQ9", "current_trial": 222, "dateTime": 1511210264414, "trialdata": {"rt": -1, "stimulus": "<p id=\"stim\">6</p>", "key_press": -1, "trial_type": "single-stim", "trial_index": 222, "time_elapsed": 1074649, "internal_node_id": "0.0-155.0-4.0"}}, {"uniqueid": "MTK0553:3OE22WJIGJV8KJ2RO37308ZUT4EUQ9", "current_trial": 223, "dateTime": 1511210265417, "trialdata": {"rt": -1, "stimulus": "<p id=\"stim\">5</p>", "key_press": -1, "trial_type": "single-stim", "trial_index": 223, "time_elapsed": 1075653, "internal_node_id": "0.0-155.0-5.0"}}, {"uniqueid": "MTK0553:3OE22WJIGJV8KJ2RO37308ZUT4EUQ9", "current_trial": 224, "dateTime": 1511210266420, "trialdata": {"rt": -1, "stimulus": "<p id=\"stim\">4</p>", "key_press": -1, "trial_type": "single-stim", "trial_index": 224, "time_elapsed": 1076655, "internal_node_id": "0.0-155.0-6.0"}}, {"uniqueid": "MTK0553:3OE22WJIGJV8KJ2RO37308ZUT4EUQ9", "current_trial": 225, "dateTime": 1511210267421, "trialdata": {"rt": -1, "stimulus": "<p id=\"stim\">3</p>", "key_press": -1, "trial_type": "single-stim", "trial_index": 225, "time_elapsed": 1077657, "internal_node_id": "0.0-155.0-7.0"}}, {"uniqueid": "MTK0553:3OE22WJIGJV8KJ2RO37308ZUT4EUQ9", "current_trial": 226, "dateTime": 1511210268424, "trialdata": {"rt": -1, "stimulus": "<p id=\"stim\">2</p>", "key_press": -1, "trial_type": "single-stim", "trial_index": 226, "time_elapsed": 1078660, "internal_node_id": "0.0-155.0-8.0"}}, {"uniqueid": "MTK0553:3OE22WJIGJV8KJ2RO37308ZUT4EUQ9", "current_trial": 227, "dateTime": 1511210269427, "trialdata": {"rt": -1, "stimulus": "<p id=\"stim\">1</p>", "key_press": -1, "trial_type": "single-stim", "trial_index": 227, "time_elapsed": 1079663, "internal_node_id": "0.0-155.0-9.0"}}, {"uniqueid": "MTK0553:3OE22WJIGJV8KJ2RO37308ZUT4EUQ9", "current_trial": 228, "dateTime": 1511210270930, "trialdata": {"rt": -1, "stimulus": "<p id=\"stim\">+</p>", "key_press": -1, "type": "FIXATION", "trial_type": "single-stim", "trial_index": 228, "time_elapsed": 1081166, "internal_node_id": "0.0-156.0-0.0"}}, {"uniqueid": "MTK0553:3OE22WJIGJV8KJ2RO37308ZUT4EUQ9", "current_trial": 229, "dateTime": 1511210272729, "trialdata": {"rt": -1000, "stimulus": "/static/audio/wordpool/DRESS.wav", "key_press": -1, "type": "PRES_AUD", "word": "dress", "wordID": 494, "conditions": [24, 800, "a", 12000], "trial": 7, "serialpos": 0, "trial_type": "single-audio", "trial_index": 229, "time_elapsed": 1082965, "internal_node_id": "0.0-157.0"}}, {"uniqueid": "MTK0553:3OE22WJIGJV8KJ2RO37308ZUT4EUQ9", "current_trial": 230, "dateTime": 1511210274513, "trialdata": {"rt": -1000, "stimulus": "/static/audio/wordpool/DAISY.wav", "key_press": -1, "type": "PRES_AUD", "word": "daisy", "wordID": 434, "conditions": [24, 800, "a", 12000], "trial": 7, "serialpos": 1, "trial_type": "single-audio", "trial_index": 230, "time_elapsed": 1084744, "internal_node_id": "0.0-158.0"}}, {"uniqueid": "MTK0553:3OE22WJIGJV8KJ2RO37308ZUT4EUQ9", "current_trial": 231, "dateTime": 1511210276271, "trialdata": {"rt": -1000, "stimulus": "/static/audio/wordpool/SURVEY.wav", "key_press": -1, "type": "PRES_AUD", "word": "survey", "wordID": 1413, "conditions": [24, 800, "a", 12000], "trial": 7, "serialpos": 2, "trial_type": "single-audio", "trial_index": 231, "time_elapsed": 1086507, "internal_node_id": "0.0-159.0"}}, {"uniqueid": "MTK0553:3OE22WJIGJV8KJ2RO37308ZUT4EUQ9", "current_trial": 232, "dateTime": 1511210278214, "trialdata": {"rt": -1000, "stimulus": "/static/audio/wordpool/SHRUB.wav", "key_press": -1, "type": "PRES_AUD", "word": "shrub", "wordID": 1298, "conditions": [24, 800, "a", 12000], "trial": 7, "serialpos": 3, "trial_type": "single-audio", "trial_index": 232, "time_elapsed": 1088450, "internal_node_id": "0.0-160.0"}}, {"uniqueid": "MTK0553:3OE22WJIGJV8KJ2RO37308ZUT4EUQ9", "current_trial": 233, "dateTime": 1511210280142, "trialdata": {"rt": -1000, "stimulus": "/static/audio/wordpool/PLIERS.wav", "key_press": -1, "type": "PRES_AUD", "word": "pliers", "wordID": 1088, "conditions": [24, 800, "a", 12000], "trial": 7, "serialpos": 4, "trial_type": "single-audio", "trial_index": 233, "time_elapsed": 1090378, "internal_node_id": "0.0-161.0"}}, {"uniqueid": "MTK0553:3OE22WJIGJV8KJ2RO37308ZUT4EUQ9", "current_trial": 234, "dateTime": 1511210282113, "trialdata": {"rt": -1000, "stimulus": "/static/audio/wordpool/GARBAGE.wav", "key_press": -1, "type": "PRES_AUD", "word": "garbage", "wordID": 621, "conditions": [24, 800, "a", 12000], "trial": 7, "serialpos": 5, "trial_type": "single-audio", "trial_index": 234, "time_elapsed": 1092349, "internal_node_id": "0.0-162.0"}}, {"uniqueid": "MTK0553:3OE22WJIGJV8KJ2RO37308ZUT4EUQ9", "current_trial": 235, "dateTime": 1511210283803, "trialdata": {"rt": -1000, "stimulus": "/static/audio/wordpool/FLAG.wav", "key_press": -1, "type": "PRES_AUD", "word": "flag", "wordID": 572, "conditions": [24, 800, "a", 12000], "trial": 7, "serialpos": 6, "trial_type": "single-audio", "trial_index": 235, "time_elapsed": 1094039, "internal_node_id": "0.0-163.0"}}, {"uniqueid": "MTK0553:3OE22WJIGJV8KJ2RO37308ZUT4EUQ9", "current_trial": 236, "dateTime": 1511210285415, "trialdata": {"rt": -1000, "stimulus": "/static/audio/wordpool/THIEF.wav", "key_press": -1, "type": "PRES_AUD", "word": "thief", "wordID": 1455, "conditions": [24, 800, "a", 12000], "trial": 7, "serialpos": 7, "trial_type": "single-audio", "trial_index": 236, "time_elapsed": 1095650, "internal_node_id": "0.0-164.0"}}, {"uniqueid": "MTK0553:3OE22WJIGJV8KJ2RO37308ZUT4EUQ9", "current_trial": 237, "dateTime": 1511210287215, "trialdata": {"rt": -1000, "stimulus": "/static/audio/wordpool/RAZOR.wav", "key_press": -1, "type": "PRES_AUD", "word": "razor", "wordID": 1170, "conditions": [24, 800, "a", 12000], "trial": 7, "serialpos": 8, "trial_type": "single-audio", "trial_index": 237, "time_elapsed": 1097451, "internal_node_id": "0.0-165.0"}}, {"uniqueid": "MTK0553:3OE22WJIGJV8KJ2RO37308ZUT4EUQ9", "current_trial": 238, "dateTime": 1511210288931, "trialdata": {"rt": -1000, "stimulus": "/static/audio/wordpool/KNIFE.wav", "key_press": -1, "type": "PRES_AUD", "word": "knife", "wordID": 784, "conditions": [24, 800, "a", 12000], "trial": 7, "serialpos": 9, "trial_type": "single-audio", "trial_index": 238, "time_elapsed": 1099167, "internal_node_id": "0.0-166.0"}}, {"uniqueid": "MTK0553:3OE22WJIGJV8KJ2RO37308ZUT4EUQ9", "current_trial": 239, "dateTime": 1511210290755, "trialdata": {"rt": -1000, "stimulus": "/static/audio/wordpool/CROSS.wav", "key_press": -1, "type": "PRES_AUD", "word": "cross", "wordID": 412, "conditions": [24, 800, "a", 12000], "trial": 7, "serialpos": 10, "trial_type": "single-audio", "trial_index": 239, "time_elapsed": 1100991, "internal_node_id": "0.0-167.0"}}, {"uniqueid": "MTK0553:3OE22WJIGJV8KJ2RO37308ZUT4EUQ9", "current_trial": 240, "dateTime": 1511210292606, "trialdata": {"rt": -1000, "stimulus": "/static/audio/wordpool/REPORT.wav", "key_press": -1, "type": "PRES_AUD", "word": "report", "wordID": 1183, "conditions": [24, 800, "a", 12000], "trial": 7, "serialpos": 11, "trial_type": "single-audio", "trial_index": 240, "time_elapsed": 1102841, "internal_node_id": "0.0-168.0"}}, {"uniqueid": "MTK0553:3OE22WJIGJV8KJ2RO37308ZUT4EUQ9", "current_trial": 241, "dateTime": 1511210294323, "trialdata": {"rt": -1000, "stimulus": "/static/audio/wordpool/POET.wav", "key_press": -1, "type": "PRES_AUD", "word": "poet", "wordID": 1094, "conditions": [24, 800, "a", 12000], "trial": 7, "serialpos": 12, "trial_type": "single-audio", "trial_index": 241, "time_elapsed": 1104559, "internal_node_id": "0.0-169.0"}}, {"uniqueid": "MTK0553:3OE22WJIGJV8KJ2RO37308ZUT4EUQ9", "current_trial": 242, "dateTime": 1511210295964, "trialdata": {"rt": -1000, "stimulus": "/static/audio/wordpool/SUMMIT.wav", "key_press": -1, "type": "PRES_AUD", "word": "summit", "wordID": 1404, "conditions": [24, 800, "a", 12000], "trial": 7, "serialpos": 13, "trial_type": "single-audio", "trial_index": 242, "time_elapsed": 1106200, "internal_node_id": "0.0-170.0"}}, {"uniqueid": "MTK0553:3OE22WJIGJV8KJ2RO37308ZUT4EUQ9", "current_trial": 243, "dateTime": 1511210297584, "trialdata": {"rt": -1000, "stimulus": "/static/audio/wordpool/MARSH.wav", "key_press": -1, "type": "PRES_AUD", "word": "marsh", "wordID": 873, "conditions": [24, 800, "a", 12000], "trial": 7, "serialpos": 14, "trial_type": "single-audio", "trial_index": 243, "time_elapsed": 1107819, "internal_node_id": "0.0-171.0"}}, {"uniqueid": "MTK0553:3OE22WJIGJV8KJ2RO37308ZUT4EUQ9", "current_trial": 244, "dateTime": 1511210299222, "trialdata": {"rt": -1000, "stimulus": "/static/audio/wordpool/BIKE.wav", "key_press": -1, "type": "PRES_AUD", "word": "bike", "wordID": 124, "conditions": [24, 800, "a", 12000], "trial": 7, "serialpos": 15, "trial_type": "single-audio", "trial_index": 244, "time_elapsed": 1109457, "internal_node_id": "0.0-172.0"}}, {"uniqueid": "MTK0553:3OE22WJIGJV8KJ2RO37308ZUT4EUQ9", "current_trial": 245, "dateTime": 1511210300837, "trialdata": {"rt": -1000, "stimulus": "/static/audio/wordpool/HIKER.wav", "key_press": -1, "type": "PRES_AUD", "word": "hiker", "wordID": 707, "conditions": [24, 800, "a", 12000], "trial": 7, "serialpos": 16, "trial_type": "single-audio", "trial_index": 245, "time_elapsed": 1111072, "internal_node_id": "0.0-173.0"}}, {"uniqueid": "MTK0553:3OE22WJIGJV8KJ2RO37308ZUT4EUQ9", "current_trial": 246, "dateTime": 1511210302704, "trialdata": {"rt": -1000, "stimulus": "/static/audio/wordpool/LAGOON.wav", "key_press": -1, "type": "PRES_AUD", "word": "lagoon", "wordID": 794, "conditions": [24, 800, "a", 12000], "trial": 7, "serialpos": 17, "trial_type": "single-audio", "trial_index": 246, "time_elapsed": 1112940, "internal_node_id": "0.0-174.0"}}, {"uniqueid": "MTK0553:3OE22WJIGJV8KJ2RO37308ZUT4EUQ9", "current_trial": 247, "dateTime": 1511210304413, "trialdata": {"rt": -1000, "stimulus": "/static/audio/wordpool/VIRUS.wav", "key_press": -1, "type": "PRES_AUD", "word": "virus", "wordID": 1571, "conditions": [24, 800, "a", 12000], "trial": 7, "serialpos": 18, "trial_type": "single-audio", "trial_index": 247, "time_elapsed": 1114649, "internal_node_id": "0.0-175.0"}}, {"uniqueid": "MTK0553:3OE22WJIGJV8KJ2RO37308ZUT4EUQ9", "current_trial": 248, "dateTime": 1511210306028, "trialdata": {"rt": -1000, "stimulus": "/static/audio/wordpool/BOX.wav", "key_press": -1, "type": "PRES_AUD", "word": "box", "wordID": 158, "conditions": [24, 800, "a", 12000], "trial": 7, "serialpos": 19, "trial_type": "single-audio", "trial_index": 248, "time_elapsed": 1116264, "internal_node_id": "0.0-176.0"}}, {"uniqueid": "MTK0553:3OE22WJIGJV8KJ2RO37308ZUT4EUQ9", "current_trial": 249, "dateTime": 1511210307950, "trialdata": {"rt": -1000, "stimulus": "/static/audio/wordpool/DONOR.wav", "key_press": -1, "type": "PRES_AUD", "word": "donor", "wordID": 484, "conditions": [24, 800, "a", 12000], "trial": 7, "serialpos": 20, "trial_type": "single-audio", "trial_index": 249, "time_elapsed": 1118186, "internal_node_id": "0.0-177.0"}}, {"uniqueid": "MTK0553:3OE22WJIGJV8KJ2RO37308ZUT4EUQ9", "current_trial": 250, "dateTime": 1511210309761, "trialdata": {"rt": -1000, "stimulus": "/static/audio/wordpool/BUNNY.wav", "key_press": -1, "type": "PRES_AUD", "word": "bunny", "wordID": 197, "conditions": [24, 800, "a", 12000], "trial": 7, "serialpos": 21, "trial_type": "single-audio", "trial_index": 250, "time_elapsed": 1119997, "internal_node_id": "0.0-178.0"}}, {"uniqueid": "MTK0553:3OE22WJIGJV8KJ2RO37308ZUT4EUQ9", "current_trial": 251, "dateTime": 1511210311479, "trialdata": {"rt": -1000, "stimulus": "/static/audio/wordpool/CHIPMUNK.wav", "key_press": -1, "type": "PRES_AUD", "word": "chipmunk", "wordID": 303, "conditions": [24, 800, "a", 12000], "trial": 7, "serialpos": 22, "trial_type": "single-audio", "trial_index": 251, "time_elapsed": 1121715, "internal_node_id": "0.0-179.0"}}, {"uniqueid": "MTK0553:3OE22WJIGJV8KJ2RO37308ZUT4EUQ9", "current_trial": 252, "dateTime": 1511210313177, "trialdata": {"rt": -1000, "stimulus": "/static/audio/wordpool/TEACHER.wav", "key_press": -1, "type": "PRES_AUD", "word": "teacher", "wordID": 1439, "conditions": [24, 800, "a", 12000], "trial": 7, "serialpos": 23, "trial_type": "single-audio", "trial_index": 252, "time_elapsed": 1123413, "internal_node_id": "0.0-180.0"}}, {"uniqueid": "MTK0553:3OE22WJIGJV8KJ2RO37308ZUT4EUQ9", "current_trial": 253, "dateTime": 1511210314438, "trialdata": {"rt": -1, "stimulus": "", "key_press": -1, "type": "PRE_RECALL_DELAY", "trial_type": "single-stim", "trial_index": 253, "time_elapsed": 1124674, "internal_node_id": "0.0-181.0-0.0"}}, {"uniqueid": "MTK0553:3OE22WJIGJV8KJ2RO37308ZUT4EUQ9", "current_trial": 254, "dateTime": 1511210314940, "trialdata": {"rt": -1000, "stimulus": "/static/audio/400Hz.wav", "key_press": -1, "type": "PRE_RECALL_ALERT", "trial_type": "single-audio", "trial_index": 254, "time_elapsed": 1125176, "internal_node_id": "0.0-182.0"}}, {"uniqueid": "MTK0553:3OE22WJIGJV8KJ2RO37308ZUT4EUQ9", "current_trial": 255, "dateTime": 1511210374964, "trialdata": {"rt": [3163, 7485, 10217, 14286, 17212, 29573, 38831, 46560], "recwords": ["bunny", "chipmunk", "teacher", "bike", "hiker", "wrench", "hammer", "lift"], "type": "FREE_RECALL", "conditions": [24, 800, "a", 12000], "trial": 7, "trial_type": "free-recall", "trial_index": 255, "time_elapsed": 1185184, "internal_node_id": "0.0-183.0-0.0"}}, {"uniqueid": "MTK0553:3OE22WJIGJV8KJ2RO37308ZUT4EUQ9", "current_trial": 256, "dateTime": 1511210378035, "trialdata": {"rt": 1067, "key_press": 32, "type": "INSTRUCTIONS", "trial_type": "text", "trial_index": 256, "time_elapsed": 1188271, "internal_node_id": "0.0-184.0"}}, {"uniqueid": "MTK0553:3OE22WJIGJV8KJ2RO37308ZUT4EUQ9", "current_trial": 257, "dateTime": 1511210404043, "trialdata": {"rt": [2923, 5363, 8246, 9969, 12111, 14378, 16753, 19171, 21223, 23530], "responses": ["15", "10", "19", "9", "10", "14", "18", "17", "17", "12"], "num1": [8, 3, 3, 6, 5, 9, 7, 6, 5, 4, 1], "num2": [2, 3, 9, 2, 4, 3, 4, 3, 5, 3, 8], "num3": [5, 4, 7, 1, 1, 2, 7, 8, 7, 5, 1], "type": "DISTRACTOR", "conditions": [24, 1600, "a", 24000], "trial": 8, "trial_type": "math-distractor", "trial_index": 257, "time_elapsed": 1214279, "internal_node_id": "0.0-185.0"}}, {"uniqueid": "MTK0553:3OE22WJIGJV8KJ2RO37308ZUT4EUQ9", "current_trial": 258, "dateTime": 1511210407048, "trialdata": {"rt": -1, "stimulus": "<p id=\"stim\">10</p>", "key_press": -1, "trial_type": "single-stim", "trial_index": 258, "time_elapsed": 1217284, "internal_node_id": "0.0-186.0-0.0"}}, {"uniqueid": "MTK0553:3OE22WJIGJV8KJ2RO37308ZUT4EUQ9", "current_trial": 259, "dateTime": 1511210408051, "trialdata": {"rt": -1, "stimulus": "<p id=\"stim\">9</p>", "key_press": -1, "trial_type": "single-stim", "trial_index": 259, "time_elapsed": 1218286, "internal_node_id": "0.0-186.0-1.0"}}, {"uniqueid": "MTK0553:3OE22WJIGJV8KJ2RO37308ZUT4EUQ9", "current_trial": 260, "dateTime": 1511210409054, "trialdata": {"rt": -1, "stimulus": "<p id=\"stim\">8</p>", "key_press": -1, "trial_type": "single-stim", "trial_index": 260, "time_elapsed": 1219290, "internal_node_id": "0.0-186.0-2.0"}}, {"uniqueid": "MTK0553:3OE22WJIGJV8KJ2RO37308ZUT4EUQ9", "current_trial": 261, "dateTime": 1511210410059, "trialdata": {"rt": -1, "stimulus": "<p id=\"stim\">7</p>", "key_press": -1, "trial_type": "single-stim", "trial_index": 261, "time_elapsed": 1220293, "internal_node_id": "0.0-186.0-3.0"}}, {"uniqueid": "MTK0553:3OE22WJIGJV8KJ2RO37308ZUT4EUQ9", "current_trial": 262, "dateTime": 1511210411069, "trialdata": {"rt": -1, "stimulus": "<p id=\"stim\">6</p>", "key_press": -1, "trial_type": "single-stim", "trial_index": 262, "time_elapsed": 1221300, "internal_node_id": "0.0-186.0-4.0"}}, {"uniqueid": "MTK0553:3OE22WJIGJV8KJ2RO37308ZUT4EUQ9", "current_trial": 263, "dateTime": 1511210412070, "trialdata": {"rt": -1, "stimulus": "<p id=\"stim\">5</p>", "key_press": -1, "trial_type": "single-stim", "trial_index": 263, "time_elapsed": 1222306, "internal_node_id": "0.0-186.0-5.0"}}, {"uniqueid": "MTK0553:3OE22WJIGJV8KJ2RO37308ZUT4EUQ9", "current_trial": 264, "dateTime": 1511210413073, "trialdata": {"rt": -1, "stimulus": "<p id=\"stim\">4</p>", "key_press": -1, "trial_type": "single-stim", "trial_index": 264, "time_elapsed": 1223309, "internal_node_id": "0.0-186.0-6.0"}}, {"uniqueid": "MTK0553:3OE22WJIGJV8KJ2RO37308ZUT4EUQ9", "current_trial": 265, "dateTime": 1511210414077, "trialdata": {"rt": -1, "stimulus": "<p id=\"stim\">3</p>", "key_press": -1, "trial_type": "single-stim", "trial_index": 265, "time_elapsed": 1224312, "internal_node_id": "0.0-186.0-7.0"}}, {"uniqueid": "MTK0553:3OE22WJIGJV8KJ2RO37308ZUT4EUQ9", "current_trial": 266, "dateTime": 1511210415079, "trialdata": {"rt": -1, "stimulus": "<p id=\"stim\">2</p>", "key_press": -1, "trial_type": "single-stim", "trial_index": 266, "time_elapsed": 1225315, "internal_node_id": "0.0-186.0-8.0"}}, {"uniqueid": "MTK0553:3OE22WJIGJV8KJ2RO37308ZUT4EUQ9", "current_trial": 267, "dateTime": 1511210416083, "trialdata": {"rt": -1, "stimulus": "<p id=\"stim\">1</p>", "key_press": -1, "trial_type": "single-stim", "trial_index": 267, "time_elapsed": 1226318, "internal_node_id": "0.0-186.0-9.0"}}, {"uniqueid": "MTK0553:3OE22WJIGJV8KJ2RO37308ZUT4EUQ9", "current_trial": 268, "dateTime": 1511210417586, "trialdata": {"rt": -1, "stimulus": "<p id=\"stim\">+</p>", "key_press": -1, "type": "FIXATION", "trial_type": "single-stim", "trial_index": 268, "time_elapsed": 1227822, "internal_node_id": "0.0-187.0-0.0"}}, {"uniqueid": "MTK0553:3OE22WJIGJV8KJ2RO37308ZUT4EUQ9", "current_trial": 269, "dateTime": 1511210420044, "trialdata": {"rt": -1000, "stimulus": "/static/audio/wordpool/SALAD.wav", "key_press": -1, "type": "PRES_AUD", "word": "salad", "wordID": 1223, "conditions": [24, 1600, "a", 24000], "trial": 8, "serialpos": 0, "trial_type": "single-audio", "trial_index": 269, "time_elapsed": 1230280, "internal_node_id": "0.0-188.0"}}, {"uniqueid": "MTK0553:3OE22WJIGJV8KJ2RO37308ZUT4EUQ9", "current_trial": 270, "dateTime": 1511210422593, "trialdata": {"rt": -1000, "stimulus": "/static/audio/wordpool/BACON.wav", "key_press": -1, "type": "PRES_AUD", "word": "bacon", "wordID": 66, "conditions": [24, 1600, "a", 24000], "trial": 8, "serialpos": 1, "trial_type": "single-audio", "trial_index": 270, "time_elapsed": 1232829, "internal_node_id": "0.0-189.0"}}, {"uniqueid": "MTK0553:3OE22WJIGJV8KJ2RO37308ZUT4EUQ9", "current_trial": 271, "dateTime": 1511210425389, "trialdata": {"rt": -1000, "stimulus": "/static/audio/wordpool/HELMET.wav", "key_press": -1, "type": "PRES_AUD", "word": "helmet", "wordID": 701, "conditions": [24, 1600, "a", 24000], "trial": 8, "serialpos": 2, "trial_type": "single-audio", "trial_index": 271, "time_elapsed": 1235625, "internal_node_id": "0.0-190.0"}}, {"uniqueid": "MTK0553:3OE22WJIGJV8KJ2RO37308ZUT4EUQ9", "current_trial": 272, "dateTime": 1511210427914, "trialdata": {"rt": -1000, "stimulus": "/static/audio/wordpool/ANTLER.wav", "key_press": -1, "type": "PRES_AUD", "word": "antler", "wordID": 28, "conditions": [24, 1600, "a", 24000], "trial": 8, "serialpos": 3, "trial_type": "single-audio", "trial_index": 272, "time_elapsed": 1238149, "internal_node_id": "0.0-191.0"}}, {"uniqueid": "MTK0553:3OE22WJIGJV8KJ2RO37308ZUT4EUQ9", "current_trial": 273, "dateTime": 1511210430545, "trialdata": {"rt": -1000, "stimulus": "/static/audio/wordpool/PADDLE.wav", "key_press": -1, "type": "PRES_AUD", "word": "paddle", "wordID": 999, "conditions": [24, 1600, "a", 24000], "trial": 8, "serialpos": 4, "trial_type": "single-audio", "trial_index": 273, "time_elapsed": 1240781, "internal_node_id": "0.0-192.0"}}, {"uniqueid": "MTK0553:3OE22WJIGJV8KJ2RO37308ZUT4EUQ9", "current_trial": 274, "dateTime": 1511210432963, "trialdata": {"rt": -1000, "stimulus": "/static/audio/wordpool/WASHER.wav", "key_press": -1, "type": "PRES_AUD", "word": "washer", "wordID": 1591, "conditions": [24, 1600, "a", 24000], "trial": 8, "serialpos": 5, "trial_type": "single-audio", "trial_index": 274, "time_elapsed": 1243198, "internal_node_id": "0.0-193.0"}}, {"uniqueid": "MTK0553:3OE22WJIGJV8KJ2RO37308ZUT4EUQ9", "current_trial": 275, "dateTime": 1511210435548, "trialdata": {"rt": -1000, "stimulus": "/static/audio/wordpool/BROTHER.wav", "key_press": -1, "