{"condition": 0, "counterbalance": 656, "assignmentId": "3WQ3B2KGE9N57G943X0TUHZYYJB1BQ", "workerId": "MTK0739", "hitId": "3OZ4VAIBEXMPORPK81SXA9T7FNAVJC", "currenttrial": 626, "bonus": 0, "data": [{"uniqueid": "MTK0739:3WQ3B2KGE9N57G943X0TUHZYYJB1BQ", "current_trial": 0, "dateTime": 1512679459068, "trialdata": {"rt": 2670, "key_press": 32, "type": "INSTRUCTIONS", "trial_type": "text", "trial_index": 0, "time_elapsed": 2674, "internal_node_id": "0.0-0.0"}}, {"uniqueid": "MTK0739:3WQ3B2KGE9N57G943X0TUHZYYJB1BQ", "current_trial": 1, "dateTime": 1512679487865, "trialdata": {"rt": 28794, "key_press": 32, "type": "INSTRUCTIONS", "trial_type": "text", "trial_index": 1, "time_elapsed": 31471, "internal_node_id": "0.0-1.0"}}, {"uniqueid": "MTK0739:3WQ3B2KGE9N57G943X0TUHZYYJB1BQ", "current_trial": 2, "dateTime": 1512679495972, "trialdata": {"rt": [8045], "responses": ["ocean"], "type": "AUDIO_TEST", "trial_type": "audio-test", "trial_index": 2, "time_elapsed": 39579, "internal_node_id": "0.0-2.0"}}, {"uniqueid": "MTK0739:3WQ3B2KGE9N57G943X0TUHZYYJB1BQ", "current_trial": 3, "dateTime": 1512679502306, "trialdata": {"rt": [6314], "responses": ["crystal"], "type": "AUDIO_TEST", "trial_type": "audio-test", "trial_index": 3, "time_elapsed": 45913, "internal_node_id": "0.0-3.0"}}, {"uniqueid": "MTK0739:3WQ3B2KGE9N57G943X0TUHZYYJB1BQ", "current_trial": 4, "dateTime": 1512679507916, "trialdata": {"rt": [5591], "responses": ["spice"], "type": "AUDIO_TEST", "trial_type": "audio-test", "trial_index": 4, "time_elapsed": 51522, "internal_node_id": "0.0-4.0"}}, {"uniqueid": "MTK0739:3WQ3B2KGE9N57G943X0TUHZYYJB1BQ", "current_trial": 5, "dateTime": 1512679558437, "trialdata": {"rt": 49766, "responses": "{\"Q0\":\"10\",\"Q1\":\"8 am\",\"Q2\":\"5\"}", "type": "SLEEP_SURVEY", "trial_type": "survey-text", "trial_index": 5, "time_elapsed": 102043, "internal_node_id": "0.0-5.0"}}, {"uniqueid": "MTK0739:3WQ3B2KGE9N57G943X0TUHZYYJB1BQ", "current_trial": 6, "dateTime": 1512679613553, "trialdata": {"rt": 54113, "key_press": 32, "type": "INSTRUCTIONS", "trial_type": "text", "trial_index": 6, "time_elapsed": 157160, "internal_node_id": "0.0-6.0"}}, {"uniqueid": "MTK0739:3WQ3B2KGE9N57G943X0TUHZYYJB1BQ", "current_trial": 7, "dateTime": 1512679643896, "trialdata": {"rt": 29840, "key_press": 32, "type": "INSTRUCTIONS", "trial_type": "text", "trial_index": 7, "time_elapsed": 187503, "internal_node_id": "0.0-7.0"}}, {"uniqueid": "MTK0739:3WQ3B2KGE9N57G943X0TUHZYYJB1BQ", "current_trial": 8, "dateTime": 1512679658458, "trialdata": {"rt": 14060, "key_press": 32, "type": "INSTRUCTIONS", "trial_type": "text", "trial_index": 8, "time_elapsed": 202065, "internal_node_id": "0.0-8.0"}}, {"uniqueid": "MTK0739:3WQ3B2KGE9N57G943X0TUHZYYJB1BQ", "current_trial": 9, "dateTime": 1512679677465, "trialdata": {"rt": [5882, 8210, 12505, 15265], "responses": ["13", "12", "20", "17"], "num1": [1, 1, 9, 9, 2], "num2": [5, 7, 3, 2, 7], "num3": [7, 4, 8, 6, 3], "type": "DISTRACTOR", "conditions": [18, 1200, "a", 18000], "trial": 0, "trial_type": "math-distractor", "trial_index": 9, "time_elapsed": 221071, "internal_node_id": "0.0-9.0"}}, {"uniqueid": "MTK0739:3WQ3B2KGE9N57G943X0TUHZYYJB1BQ", "current_trial": 10, "dateTime": 1512679680469, "trialdata": {"rt": -1, "stimulus": "<p id=\"stim\">10</p>", "key_press": -1, "trial_type": "single-stim", "trial_index": 10, "time_elapsed": 224076, "internal_node_id": "0.0-10.0-0.0"}}, {"uniqueid": "MTK0739:3WQ3B2KGE9N57G943X0TUHZYYJB1BQ", "current_trial": 11, "dateTime": 1512679681471, "trialdata": {"rt": -1, "stimulus": "<p id=\"stim\">9</p>", "key_press": -1, "trial_type": "single-stim", "trial_index": 11, "time_elapsed": 225078, "internal_node_id": "0.0-10.0-1.0"}}, {"uniqueid": "MTK0739:3WQ3B2KGE9N57G943X0TUHZYYJB1BQ", "current_trial": 12, "dateTime": 1512679682474, "trialdata": {"rt": -1, "stimulus": "<p id=\"stim\">8</p>", "key_press": -1, "trial_type": "single-stim", "trial_index": 12, "time_elapsed": 226081, "internal_node_id": "0.0-10.0-2.0"}}, {"uniqueid": "MTK0739:3WQ3B2KGE9N57G943X0TUHZYYJB1BQ", "current_trial": 13, "dateTime": 1512679683475, "trialdata": {"rt": -1, "stimulus": "<p id=\"stim\">7</p>", "key_press": -1, "trial_type": "single-stim", "trial_index": 13, "time_elapsed": 227082, "internal_node_id": "0.0-10.0-3.0"}}, {"uniqueid": "MTK0739:3WQ3B2KGE9N57G943X0TUHZYYJB1BQ", "current_trial": 14, "dateTime": 1512679684479, "trialdata": {"rt": -1, "stimulus": "<p id=\"stim\">6</p>", "key_press": -1, "trial_type": "single-stim", "trial_index": 14, "time_elapsed": 228085, "internal_node_id": "0.0-10.0-4.0"}}, {"uniqueid": "MTK0739:3WQ3B2KGE9N57G943X0TUHZYYJB1BQ", "current_trial": 15, "dateTime": 1512679685480, "trialdata": {"rt": -1, "stimulus": "<p id=\"stim\">5</p>", "key_press": -1, "trial_type": "single-stim", "trial_index": 15, "time_elapsed": 229087, "internal_node_id": "0.0-10.0-5.0"}}, {"uniqueid": "MTK0739:3WQ3B2KGE9N57G943X0TUHZYYJB1BQ", "current_trial": 16, "dateTime": 1512679686482, "trialdata": {"rt": -1, "stimulus": "<p id=\"stim\">4</p>", "key_press": -1, "trial_type": "single-stim", "trial_index": 16, "time_elapsed": 230089, "internal_node_id": "0.0-10.0-6.0"}}, {"uniqueid": "MTK0739:3WQ3B2KGE9N57G943X0TUHZYYJB1BQ", "current_trial": 17, "dateTime": 1512679687484, "trialdata": {"rt": -1, "stimulus": "<p id=\"stim\">3</p>", "key_press": -1, "trial_type": "single-stim", "trial_index": 17, "time_elapsed": 231091, "internal_node_id": "0.0-10.0-7.0"}}, {"uniqueid": "MTK0739:3WQ3B2KGE9N57G943X0TUHZYYJB1BQ", "current_trial": 18, "dateTime": 1512679688486, "trialdata": {"rt": -1, "stimulus": "<p id=\"stim\">2</p>", "key_press": -1, "trial_type": "single-stim", "trial_index": 18, "time_elapsed": 232092, "internal_node_id": "0.0-10.0-8.0"}}, {"uniqueid": "MTK0739:3WQ3B2KGE9N57G943X0TUHZYYJB1BQ", "current_trial": 19, "dateTime": 1512679689487, "trialdata": {"rt": -1, "stimulus": "<p id=\"stim\">1</p>", "key_press": -1, "trial_type": "single-stim", "trial_index": 19, "time_elapsed": 233094, "internal_node_id": "0.0-10.0-9.0"}}, {"uniqueid": "MTK0739:3WQ3B2KGE9N57G943X0TUHZYYJB1BQ", "current_trial": 20, "dateTime": 1512679690991, "trialdata": {"rt": -1, "stimulus": "<p id=\"stim\">+</p>", "key_press": -1, "type": "FIXATION", "trial_type": "single-stim", "trial_index": 20, "time_elapsed": 234597, "internal_node_id": "0.0-11.0-0.0"}}, {"uniqueid": "MTK0739:3WQ3B2KGE9N57G943X0TUHZYYJB1BQ", "current_trial": 21, "dateTime": 1512679693148, "trialdata": {"rt": -1000, "stimulus": "/static/audio/wordpool/BADGE.wav", "key_press": -1, "type": "PRES_AUD", "word": "badge", "wordID": 67, "conditions": [18, 1200, "a", 18000], "trial": 0, "serialpos": 0, "trial_type": "single-audio", "trial_index": 21, "time_elapsed": 236754, "internal_node_id": "0.0-12.0"}}, {"uniqueid": "MTK0739:3WQ3B2KGE9N57G943X0TUHZYYJB1BQ", "current_trial": 22, "dateTime": 1512679695282, "trialdata": {"rt": -1000, "stimulus": "/static/audio/wordpool/JELLO.wav", "key_press": -1, "type": "PRES_AUD", "word": "jello", "wordID": 753, "conditions": [18, 1200, "a", 18000], "trial": 0, "serialpos": 1, "trial_type": "single-audio", "trial_index": 22, "time_elapsed": 238889, "internal_node_id": "0.0-13.0"}}, {"uniqueid": "MTK0739:3WQ3B2KGE9N57G943X0TUHZYYJB1BQ", "current_trial": 23, "dateTime": 1512679697592, "trialdata": {"rt": -1000, "stimulus": "/static/audio/wordpool/SHELF.wav", "key_press": -1, "type": "PRES_AUD", "word": "shelf", "wordID": 1279, "conditions": [18, 1200, "a", 18000], "trial": 0, "serialpos": 2, "trial_type": "single-audio", "trial_index": 23, "time_elapsed": 241199, "internal_node_id": "0.0-14.0"}}, {"uniqueid": "MTK0739:3WQ3B2KGE9N57G943X0TUHZYYJB1BQ", "current_trial": 24, "dateTime": 1512679699862, "trialdata": {"rt": -1000, "stimulus": "/static/audio/wordpool/PLAID.wav", "key_press": -1, "type": "PRES_AUD", "word": "plaid", "wordID": 1079, "conditions": [18, 1200, "a", 18000], "trial": 0, "serialpos": 3, "trial_type": "single-audio", "trial_index": 24, "time_elapsed": 243469, "internal_node_id": "0.0-15.0"}}, {"uniqueid": "MTK0739:3WQ3B2KGE9N57G943X0TUHZYYJB1BQ", "current_trial": 25, "dateTime": 1512679702135, "trialdata": {"rt": -1000, "stimulus": "/static/audio/wordpool/PIMPLE.wav", "key_press": -1, "type": "PRES_AUD", "word": "pimple", "wordID": 1070, "conditions": [18, 1200, "a", 18000], "trial": 0, "serialpos": 4, "trial_type": "single-audio", "trial_index": 25, "time_elapsed": 245742, "internal_node_id": "0.0-16.0"}}, {"uniqueid": "MTK0739:3WQ3B2KGE9N57G943X0TUHZYYJB1BQ", "current_trial": 26, "dateTime": 1512679704431, "trialdata": {"rt": -1000, "stimulus": "/static/audio/wordpool/ROCKET.wav", "key_press": -1, "type": "PRES_AUD", "word": "rocket", "wordID": 1201, "conditions": [18, 1200, "a", 18000], "trial": 0, "serialpos": 5, "trial_type": "single-audio", "trial_index": 26, "time_elapsed": 248038, "internal_node_id": "0.0-17.0"}}, {"uniqueid": "MTK0739:3WQ3B2KGE9N57G943X0TUHZYYJB1BQ", "current_trial": 27, "dateTime": 1512679706802, "trialdata": {"rt": -1000, "stimulus": "/static/audio/wordpool/CREATURE.wav", "key_press": -1, "type": "PRES_AUD", "word": "creature", "wordID": 402, "conditions": [18, 1200, "a", 18000], "trial": 0, "serialpos": 6, "trial_type": "single-audio", "trial_index": 27, "time_elapsed": 250409, "internal_node_id": "0.0-18.0"}}, {"uniqueid": "MTK0739:3WQ3B2KGE9N57G943X0TUHZYYJB1BQ", "current_trial": 28, "dateTime": 1512679708900, "trialdata": {"rt": -1000, "stimulus": "/static/audio/wordpool/CASKET.wav", "key_press": -1, "type": "PRES_AUD", "word": "casket", "wordID": 254, "conditions": [18, 1200, "a", 18000], "trial": 0, "serialpos": 7, "trial_type": "single-audio", "trial_index": 28, "time_elapsed": 252506, "internal_node_id": "0.0-19.0"}}, {"uniqueid": "MTK0739:3WQ3B2KGE9N57G943X0TUHZYYJB1BQ", "current_trial": 29, "dateTime": 1512679710978, "trialdata": {"rt": -1000, "stimulus": "/static/audio/wordpool/BACKBONE.wav", "key_press": -1, "type": "PRES_AUD", "word": "backbone", "wordID": 65, "conditions": [18, 1200, "a", 18000], "trial": 0, "serialpos": 8, "trial_type": "single-audio", "trial_index": 29, "time_elapsed": 254584, "internal_node_id": "0.0-20.0"}}, {"uniqueid": "MTK0739:3WQ3B2KGE9N57G943X0TUHZYYJB1BQ", "current_trial": 30, "dateTime": 1512679713072, "trialdata": {"rt": -1000, "stimulus": "/static/audio/wordpool/NECKLACE.wav", "key_press": -1, "type": "PRES_AUD", "word": "necklace", "wordID": 939, "conditions": [18, 1200, "a", 18000], "trial": 0, "serialpos": 9, "trial_type": "single-audio", "trial_index": 30, "time_elapsed": 256679, "internal_node_id": "0.0-21.0"}}, {"uniqueid": "MTK0739:3WQ3B2KGE9N57G943X0TUHZYYJB1BQ", "current_trial": 31, "dateTime": 1512679715157, "trialdata": {"rt": -1000, "stimulus": "/static/audio/wordpool/COWBOY.wav", "key_press": -1, "type": "PRES_AUD", "word": "cowboy", "wordID": 394, "conditions": [18, 1200, "a", 18000], "trial": 0, "serialpos": 10, "trial_type": "single-audio", "trial_index": 31, "time_elapsed": 258763, "internal_node_id": "0.0-22.0"}}, {"uniqueid": "MTK0739:3WQ3B2KGE9N57G943X0TUHZYYJB1BQ", "current_trial": 32, "dateTime": 1512679717217, "trialdata": {"rt": -1000, "stimulus": "/static/audio/wordpool/DUSTPAN.wav", "key_press": -1, "type": "PRES_AUD", "word": "dustpan", "wordID": 508, "conditions": [18, 1200, "a", 18000], "trial": 0, "serialpos": 11, "trial_type": "single-audio", "trial_index": 32, "time_elapsed": 260824, "internal_node_id": "0.0-23.0"}}, {"uniqueid": "MTK0739:3WQ3B2KGE9N57G943X0TUHZYYJB1BQ", "current_trial": 33, "dateTime": 1512679719442, "trialdata": {"rt": -1000, "stimulus": "/static/audio/wordpool/FOX.wav", "key_press": -1, "type": "PRES_AUD", "word": "fox", "wordID": 597, "conditions": [18, 1200, "a", 18000], "trial": 0, "serialpos": 12, "trial_type": "single-audio", "trial_index": 33, "time_elapsed": 263048, "internal_node_id": "0.0-24.0"}}, {"uniqueid": "MTK0739:3WQ3B2KGE9N57G943X0TUHZYYJB1BQ", "current_trial": 34, "dateTime": 1512679721570, "trialdata": {"rt": -1000, "stimulus": "/static/audio/wordpool/TOASTER.wav", "key_press": -1, "type": "PRES_AUD", "word": "toaster", "wordID": 1471, "conditions": [18, 1200, "a", 18000], "trial": 0, "serialpos": 13, "trial_type": "single-audio", "trial_index": 34, "time_elapsed": 265177, "internal_node_id": "0.0-25.0"}}, {"uniqueid": "MTK0739:3WQ3B2KGE9N57G943X0TUHZYYJB1BQ", "current_trial": 35, "dateTime": 1512679723814, "trialdata": {"rt": -1000, "stimulus": "/static/audio/wordpool/PLASTER.wav", "key_press": -1, "type": "PRES_AUD", "word": "plaster", "wordID": 1084, "conditions": [18, 1200, "a", 18000], "trial": 0, "serialpos": 14, "trial_type": "single-audio", "trial_index": 35, "time_elapsed": 267420, "internal_node_id": "0.0-26.0"}}, {"uniqueid": "MTK0739:3WQ3B2KGE9N57G943X0TUHZYYJB1BQ", "current_trial": 36, "dateTime": 1512679726129, "trialdata": {"rt": -1000, "stimulus": "/static/audio/wordpool/POSSUM.wav", "key_press": -1, "type": "PRES_AUD", "word": "possum", "wordID": 1111, "conditions": [18, 1200, "a", 18000], "trial": 0, "serialpos": 15, "trial_type": "single-audio", "trial_index": 36, "time_elapsed": 269736, "internal_node_id": "0.0-27.0"}}, {"uniqueid": "MTK0739:3WQ3B2KGE9N57G943X0TUHZYYJB1BQ", "current_trial": 37, "dateTime": 1512679728341, "trialdata": {"rt": -1000, "stimulus": "/static/audio/wordpool/CRAB.wav", "key_press": -1, "type": "PRES_AUD", "word": "crab", "wordID": 396, "conditions": [18, 1200, "a", 18000], "trial": 0, "serialpos": 16, "trial_type": "single-audio", "trial_index": 37, "time_elapsed": 271948, "internal_node_id": "0.0-28.0"}}, {"uniqueid": "MTK0739:3WQ3B2KGE9N57G943X0TUHZYYJB1BQ", "current_trial": 38, "dateTime": 1512679730484, "trialdata": {"rt": -1000, "stimulus": "/static/audio/wordpool/HOOD.wav", "key_press": -1, "type": "PRES_AUD", "word": "hood", "wordID": 713, "conditions": [18, 1200, "a", 18000], "trial": 0, "serialpos": 17, "trial_type": "single-audio", "trial_index": 38, "time_elapsed": 274091, "internal_node_id": "0.0-29.0"}}, {"uniqueid": "MTK0739:3WQ3B2KGE9N57G943X0TUHZYYJB1BQ", "current_trial": 39, "dateTime": 1512679731752, "trialdata": {"rt": -1, "stimulus": "", "key_press": -1, "type": "PRE_RECALL_DELAY", "trial_type": "single-stim", "trial_index": 39, "time_elapsed": 275359, "internal_node_id": "0.0-30.0-0.0"}}, {"uniqueid": "MTK0739:3WQ3B2KGE9N57G943X0TUHZYYJB1BQ", "current_trial": 40, "dateTime": 1512679732262, "trialdata": {"rt": -1000, "stimulus": "/static/audio/400Hz.wav", "key_press": -1, "type": "PRE_RECALL_ALERT", "trial_type": "single-audio", "trial_index": 40, "time_elapsed": 275869, "internal_node_id": "0.0-31.0"}}, {"uniqueid": "MTK0739:3WQ3B2KGE9N57G943X0TUHZYYJB1BQ", "current_trial": 41, "dateTime": 1512679792281, "trialdata": {"rt": [3643, 6242, 7714, 10010, 11314, 13482, 16470, 18394, 20920, 37922, 47634], "recwords": ["badge", "pimple", "toaster", "hood", "badge", "toaster", "fox", "shelf", "hood", "book", "casket"], "type": "FREE_RECALL", "conditions": [18, 1200, "a", 18000], "trial": 0, "trial_type": "free-recall", "trial_index": 41, "time_elapsed": 335879, "internal_node_id": "0.0-32.0-0.0"}}, {"uniqueid": "MTK0739:3WQ3B2KGE9N57G943X0TUHZYYJB1BQ", "current_trial": 42, "dateTime": 1512679796001, "trialdata": {"rt": 1718, "key_press": 32, "type": "INSTRUCTIONS", "trial_type": "text", "trial_index": 42, "time_elapsed": 339608, "internal_node_id": "0.0-33.0"}}, {"uniqueid": "MTK0739:3WQ3B2KGE9N57G943X0TUHZYYJB1BQ", "current_trial": 43, "dateTime": 1512679816014, "trialdata": {"rt": [4252, 7636, 9834, 11755, 13827], "responses": ["13", "9", "9", "11", "19"], "num1": [3, 1, 2, 5, 6, 9], "num2": [4, 6, 5, 3, 6, 8], "num3": [6, 2, 1, 3, 7, 9], "type": "DISTRACTOR", "conditions": [18, 1200, "v", 18000], "trial": 1, "trial_type": "math-distractor", "trial_index": 43, "time_elapsed": 359621, "internal_node_id": "0.0-34.0"}}, {"uniqueid": "MTK0739:3WQ3B2KGE9N57G943X0TUHZYYJB1BQ", "current_trial": 44, "dateTime": 1512679819017, "trialdata": {"rt": -1, "stimulus": "<p id=\"stim\">10</p>", "key_press": -1, "trial_type": "single-stim", "trial_index": 44, "time_elapsed": 362624, "internal_node_id": "0.0-35.0-0.0"}}, {"uniqueid": "MTK0739:3WQ3B2KGE9N57G943X0TUHZYYJB1BQ", "current_trial": 45, "dateTime": 1512679820021, "trialdata": {"rt": -1, "stimulus": "<p id=\"stim\">9</p>", "key_press": -1, "trial_type": "single-stim", "trial_index": 45, "time_elapsed": 363628, "internal_node_id": "0.0-35.0-1.0"}}, {"uniqueid": "MTK0739:3WQ3B2KGE9N57G943X0TUHZYYJB1BQ", "current_trial": 46, "dateTime": 1512679821025, "trialdata": {"rt": -1, "stimulus": "<p id=\"stim\">8</p>", "key_press": -1, "trial_type": "single-stim", "trial_index": 46, "time_elapsed": 364632, "internal_node_id": "0.0-35.0-2.0"}}, {"uniqueid": "MTK0739:3WQ3B2KGE9N57G943X0TUHZYYJB1BQ", "current_trial": 47, "dateTime": 1512679822028, "trialdata": {"rt": -1, "stimulus": "<p id=\"stim\">7</p>", "key_press": -1, "trial_type": "single-stim", "trial_index": 47, "time_elapsed": 365634, "internal_node_id": "0.0-35.0-3.0"}}, {"uniqueid": "MTK0739:3WQ3B2KGE9N57G943X0TUHZYYJB1BQ", "current_trial": 48, "dateTime": 1512679823031, "trialdata": {"rt": -1, "stimulus": "<p id=\"stim\">6</p>", "key_press": -1, "trial_type": "single-stim", "trial_index": 48, "time_elapsed": 366637, "internal_node_id": "0.0-35.0-4.0"}}, {"uniqueid": "MTK0739:3WQ3B2KGE9N57G943X0TUHZYYJB1BQ", "current_trial": 49, "dateTime": 1512679824033, "trialdata": {"rt": -1, "stimulus": "<p id=\"stim\">5</p>", "key_press": -1, "trial_type": "single-stim", "trial_index": 49, "time_elapsed": 367639, "internal_node_id": "0.0-35.0-5.0"}}, {"uniqueid": "MTK0739:3WQ3B2KGE9N57G943X0TUHZYYJB1BQ", "current_trial": 50, "dateTime": 1512679825035, "trialdata": {"rt": -1, "stimulus": "<p id=\"stim\">4</p>", "key_press": -1, "trial_type": "single-stim", "trial_index": 50, "time_elapsed": 368641, "internal_node_id": "0.0-35.0-6.0"}}, {"uniqueid": "MTK0739:3WQ3B2KGE9N57G943X0TUHZYYJB1BQ", "current_trial": 51, "dateTime": 1512679826036, "trialdata": {"rt": -1, "stimulus": "<p id=\"stim\">3</p>", "key_press": -1, "trial_type": "single-stim", "trial_index": 51, "time_elapsed": 369643, "internal_node_id": "0.0-35.0-7.0"}}, {"uniqueid": "MTK0739:3WQ3B2KGE9N57G943X0TUHZYYJB1BQ", "current_trial": 52, "dateTime": 1512679827039, "trialdata": {"rt": -1, "stimulus": "<p id=\"stim\">2</p>", "key_press": -1, "trial_type": "single-stim", "trial_index": 52, "time_elapsed": 370645, "internal_node_id": "0.0-35.0-8.0"}}, {"uniqueid": "MTK0739:3WQ3B2KGE9N57G943X0TUHZYYJB1BQ", "current_trial": 53, "dateTime": 1512679828041, "trialdata": {"rt": -1, "stimulus": "<p id=\"stim\">1</p>", "key_press": -1, "trial_type": "single-stim", "trial_index": 53, "time_elapsed": 371648, "internal_node_id": "0.0-35.0-9.0"}}, {"uniqueid": "MTK0739:3WQ3B2KGE9N57G943X0TUHZYYJB1BQ", "current_trial": 54, "dateTime": 1512679829544, "trialdata": {"rt": -1, "stimulus": "<p id=\"stim\">+</p>", "key_press": -1, "type": "FIXATION", "trial_type": "single-stim", "trial_index": 54, "time_elapsed": 373151, "internal_node_id": "0.0-36.0-0.0"}}, {"uniqueid": "MTK0739:3WQ3B2KGE9N57G943X0TUHZYYJB1BQ", "current_trial": 55, "dateTime": 1512679830746, "trialdata": {"rt": -1, "stimulus": "<p id=\"stim\">SPHINX</p>", "key_press": -1, "type": "PRES_VIS", "word": "sphinx", "wordID": 1348, "conditions": [18, 1200, "v", 18000], "trial": 1, "serialpos": 0, "trial_type": "single-stim", "trial_index": 55, "time_elapsed": 374353, "internal_node_id": "0.0-37.0"}}, {"uniqueid": "MTK0739:3WQ3B2KGE9N57G943X0TUHZYYJB1BQ", "current_trial": 56, "dateTime": 1512679832964, "trialdata": {"rt": -1, "stimulus": "<p id=\"stim\">JELLY</p>", "key_press": -1, "type": "PRES_VIS", "word": "jelly", "wordID": 754, "conditions": [18, 1200, "v", 18000], "trial": 1, "serialpos": 1, "trial_type": "single-stim", "trial_index": 56, "time_elapsed": 376570, "internal_node_id": "0.0-38.0"}}, {"uniqueid": "MTK0739:3WQ3B2KGE9N57G943X0TUHZYYJB1BQ", "current_trial": 57, "dateTime": 1512679835074, "trialdata": {"rt": -1, "stimulus": "<p id=\"stim\">BUREAU</p>", "key_press": -1, "type": "PRES_VIS", "word": "bureau", "wordID": 198, "conditions": [18, 1200, "v", 18000], "trial": 1, "serialpos": 2, "trial_type": "single-stim", "trial_index": 57, "time_elapsed": 378681, "internal_node_id": "0.0-39.0"}}, {"uniqueid": "MTK0739:3WQ3B2KGE9N57G943X0TUHZYYJB1BQ", "current_trial": 58, "dateTime": 1512679837172, "trialdata": {"rt": -1, "stimulus": "<p id=\"stim\">CRIB</p>", "key_press": -1, "type": "PRES_VIS", "word": "crib", "wordID": 406, "conditions": [18, 1200, "v", 18000], "trial": 1, "serialpos": 3, "trial_type": "single-stim", "trial_index": 58, "time_elapsed": 380779, "internal_node_id": "0.0-40.0"}}, {"uniqueid": "MTK0739:3WQ3B2KGE9N57G943X0TUHZYYJB1BQ", "current_trial": 59, "dateTime": 1512679839345, "trialdata": {"rt": -1, "stimulus": "<p id=\"stim\">BINDER</p>", "key_press": -1, "type": "PRES_VIS", "word": "binder", "wordID": 126, "conditions": [18, 1200, "v", 18000], "trial": 1, "serialpos": 4, "trial_type": "single-stim", "trial_index": 59, "time_elapsed": 382951, "internal_node_id": "0.0-41.0"}}, {"uniqueid": "MTK0739:3WQ3B2KGE9N57G943X0TUHZYYJB1BQ", "current_trial": 60, "dateTime": 1512679841441, "trialdata": {"rt": -1, "stimulus": "<p id=\"stim\">COUCH</p>", "key_press": -1, "type": "PRES_VIS", "word": "couch", "wordID": 385, "conditions": [18, 1200, "v", 18000], "trial": 1, "serialpos": 5, "trial_type": "single-stim", "trial_index": 60, "time_elapsed": 385048, "internal_node_id": "0.0-42.0"}}, {"uniqueid": "MTK0739:3WQ3B2KGE9N57G943X0TUHZYYJB1BQ", "current_trial": 61, "dateTime": 1512679843715, "trialdata": {"rt": -1, "stimulus": "<p id=\"stim\">SPOUSE</p>", "key_press": -1, "type": "PRES_VIS", "word": "spouse", "wordID": 1357, "conditions": [18, 1200, "v", 18000], "trial": 1, "serialpos": 6, "trial_type": "single-stim", "trial_index": 61, "time_elapsed": 387322, "internal_node_id": "0.0-43.0"}}, {"uniqueid": "MTK0739:3WQ3B2KGE9N57G943X0TUHZYYJB1BQ", "current_trial": 62, "dateTime": 1512679845986, "trialdata": {"rt": -1, "stimulus": "<p id=\"stim\">GHETTO</p>", "key_press": -1, "type": "PRES_VIS", "word": "ghetto", "wordID": 632, "conditions": [18, 1200, "v", 18000], "trial": 1, "serialpos": 7, "trial_type": "single-stim", "trial_index": 62, "time_elapsed": 389593, "internal_node_id": "0.0-44.0"}}, {"uniqueid": "MTK0739:3WQ3B2KGE9N57G943X0TUHZYYJB1BQ", "current_trial": 63, "dateTime": 1512679848328, "trialdata": {"rt": -1, "stimulus": "<p id=\"stim\">PEACH</p>", "key_press": -1, "type": "PRES_VIS", "word": "peach", "wordID": 1030, "conditions": [18, 1200, "v", 18000], "trial": 1, "serialpos": 8, "trial_type": "single-stim", "trial_index": 63, "time_elapsed": 391935, "internal_node_id": "0.0-45.0"}}, {"uniqueid": "MTK0739:3WQ3B2KGE9N57G943X0TUHZYYJB1BQ", "current_trial": 64, "dateTime": 1512679850677, "trialdata": {"rt": -1, "stimulus": "<p id=\"stim\">COCKTAIL</p>", "key_press": -1, "type": "PRES_VIS", "word": "cocktail", "wordID": 337, "conditions": [18, 1200, "v", 18000], "trial": 1, "serialpos": 9, "trial_type": "single-stim", "trial_index": 64, "time_elapsed": 394284, "internal_node_id": "0.0-46.0"}}, {"uniqueid": "MTK0739:3WQ3B2KGE9N57G943X0TUHZYYJB1BQ", "current_trial": 65, "dateTime": 1512679853045, "trialdata": {"rt": -1, "stimulus": "<p id=\"stim\">SCARECROW</p>", "key_press": -1, "type": "PRES_VIS", "word": "scarecrow", "wordID": 1244, "conditions": [18, 1200, "v", 18000], "trial": 1, "serialpos": 10, "trial_type": "single-stim", "trial_index": 65, "time_elapsed": 396651, "internal_node_id": "0.0-47.0"}}, {"uniqueid": "MTK0739:3WQ3B2KGE9N57G943X0TUHZYYJB1BQ", "current_trial": 66, "dateTime": 1512679855325, "trialdata": {"rt": -1, "stimulus": "<p id=\"stim\">TROMBONE</p>", "key_press": -1, "type": "PRES_VIS", "word": "trombone", "wordID": 1507, "conditions": [18, 1200, "v", 18000], "trial": 1, "serialpos": 11, "trial_type": "single-stim", "trial_index": 66, "time_elapsed": 398932, "internal_node_id": "0.0-48.0"}}, {"uniqueid": "MTK0739:3WQ3B2KGE9N57G943X0TUHZYYJB1BQ", "current_trial": 67, "dateTime": 1512679857722, "trialdata": {"rt": -1, "stimulus": "<p id=\"stim\">LOVER</p>", "key_press": -1, "type": "PRES_VIS", "word": "lover", "wordID": 845, "conditions": [18, 1200, "v", 18000], "trial": 1, "serialpos": 12, "trial_type": "single-stim", "trial_index": 67, "time_elapsed": 401328, "internal_node_id": "0.0-49.0"}}, {"uniqueid": "MTK0739:3WQ3B2KGE9N57G943X0TUHZYYJB1BQ", "current_trial": 68, "dateTime": 1512679860075, "trialdata": {"rt": -1, "stimulus": "<p id=\"stim\">DOLPHIN</p>", "key_press": -1, "type": "PRES_VIS", "word": "dolphin", "wordID": 482, "conditions": [18, 1200, "v", 18000], "trial": 1, "serialpos": 13, "trial_type": "single-stim", "trial_index": 68, "time_elapsed": 403682, "internal_node_id": "0.0-50.0"}}, {"uniqueid": "MTK0739:3WQ3B2KGE9N57G943X0TUHZYYJB1BQ", "current_trial": 69, "dateTime": 1512679862249, "trialdata": {"rt": -1, "stimulus": "<p id=\"stim\">POSTAGE</p>", "key_press": -1, "type": "PRES_VIS", "word": "postage", "wordID": 1112, "conditions": [18, 1200, "v", 18000], "trial": 1, "serialpos": 14, "trial_type": "single-stim", "trial_index": 69, "time_elapsed": 405856, "internal_node_id": "0.0-51.0"}}, {"uniqueid": "MTK0739:3WQ3B2KGE9N57G943X0TUHZYYJB1BQ", "current_trial": 70, "dateTime": 1512679864329, "trialdata": {"rt": -1, "stimulus": "<p id=\"stim\">SUPPER</p>", "key_press": -1, "type": "PRES_VIS", "word": "supper", "wordID": 1410, "conditions": [18, 1200, "v", 18000], "trial": 1, "serialpos": 15, "trial_type": "single-stim", "trial_index": 70, "time_elapsed": 407936, "internal_node_id": "0.0-52.0"}}, {"uniqueid": "MTK0739:3WQ3B2KGE9N57G943X0TUHZYYJB1BQ", "current_trial": 71, "dateTime": 1512679866720, "trialdata": {"rt": -1, "stimulus": "<p id=\"stim\">CARRIAGE</p>", "key_press": -1, "type": "PRES_VIS", "word": "carriage", "wordID": 247, "conditions": [18, 1200, "v", 18000], "trial": 1, "serialpos": 16, "trial_type": "single-stim", "trial_index": 71, "time_elapsed": 410326, "internal_node_id": "0.0-53.0"}}, {"uniqueid": "MTK0739:3WQ3B2KGE9N57G943X0TUHZYYJB1BQ", "current_trial": 72, "dateTime": 1512679869052, "trialdata": {"rt": -1, "stimulus": "<p id=\"stim\">OYSTER</p>", "key_press": -1, "type": "PRES_VIS", "word": "oyster", "wordID": 994, "conditions": [18, 1200, "v", 18000], "trial": 1, "serialpos": 17, "trial_type": "single-stim", "trial_index": 72, "time_elapsed": 412659, "internal_node_id": "0.0-54.0"}}, {"uniqueid": "MTK0739:3WQ3B2KGE9N57G943X0TUHZYYJB1BQ", "current_trial": 73, "dateTime": 1512679871535, "trialdata": {"rt": -1, "stimulus": "", "key_press": -1, "type": "PRE_RECALL_DELAY", "trial_type": "single-stim", "trial_index": 73, "time_elapsed": 415142, "internal_node_id": "0.0-55.0-0.0"}}, {"uniqueid": "MTK0739:3WQ3B2KGE9N57G943X0TUHZYYJB1BQ", "current_trial": 74, "dateTime": 1512679872037, "trialdata": {"rt": -1000, "stimulus": "/static/audio/400Hz.wav", "key_press": -1, "type": "PRE_RECALL_ALERT", "trial_type": "single-audio", "trial_index": 74, "time_elapsed": 415644, "internal_node_id": "0.0-56.0"}}, {"uniqueid": "MTK0739:3WQ3B2KGE9N57G943X0TUHZYYJB1BQ", "current_trial": 75, "dateTime": 1512679932053, "trialdata": {"rt": [2903, 5192, 14135, 25360, 31735, 36176, 42009, 54432], "recwords": ["oyster", "lover", "supper", "sphynx", "ocean", "jelly", "badge", "coffin"], "type": "FREE_RECALL", "conditions": [18, 1200, "v", 18000], "trial": 1, "trial_type": "free-recall", "trial_index": 75, "time_elapsed": 475651, "internal_node_id": "0.0-57.0-0.0"}}, {"uniqueid": "MTK0739:3WQ3B2KGE9N57G943X0TUHZYYJB1BQ", "current_trial": 76, "dateTime": 1512679936575, "trialdata": {"rt": 2504, "key_press": 32, "type": "INSTRUCTIONS", "trial_type": "text", "trial_index": 76, "time_elapsed": 480168, "internal_node_id": "0.0-58.0"}}, {"uniqueid": "MTK0739:3WQ3B2KGE9N57G943X0TUHZYYJB1BQ", "current_trial": 77, "dateTime": 1512679949583, "trialdata": {"rt": [5211, 7675, 10347], "responses": ["18", "14", "17"], "num1": [6, 8, 5, 4], "num2": [9, 4, 3, 8], "num3": [3, 2, 9, 3], "type": "DISTRACTOR", "conditions": [24, 800, "a", 12000], "trial": 2, "trial_type": "math-distractor", "trial_index": 77, "time_elapsed": 493190, "internal_node_id": "0.0-59.0"}}, {"uniqueid": "MTK0739:3WQ3B2KGE9N57G943X0TUHZYYJB1BQ", "current_trial": 78, "dateTime": 1512679952586, "trialdata": {"rt": -1, "stimulus": "<p id=\"stim\">10</p>", "key_press": -1, "trial_type": "single-stim", "trial_index": 78, "time_elapsed": 496193, "internal_node_id": "0.0-60.0-0.0"}}, {"uniqueid": "MTK0739:3WQ3B2KGE9N57G943X0TUHZYYJB1BQ", "current_trial": 79, "dateTime": 1512679953589, "trialdata": {"rt": -1, "stimulus": "<p id=\"stim\">9</p>", "key_press": -1, "trial_type": "single-stim", "trial_index": 79, "time_elapsed": 497195, "internal_node_id": "0.0-60.0-1.0"}}, {"uniqueid": "MTK0739:3WQ3B2KGE9N57G943X0TUHZYYJB1BQ", "current_trial": 80, "dateTime": 1512679954591, "trialdata": {"rt": -1, "stimulus": "<p id=\"stim\">8</p>", "key_press": -1, "trial_type": "single-stim", "trial_index": 80, "time_elapsed": 498197, "internal_node_id": "0.0-60.0-2.0"}}, {"uniqueid": "MTK0739:3WQ3B2KGE9N57G943X0TUHZYYJB1BQ", "current_trial": 81, "dateTime": 1512679955592, "trialdata": {"rt": -1, "stimulus": "<p id=\"stim\">7</p>", "key_press": -1, "trial_type": "single-stim", "trial_index": 81, "time_elapsed": 499199, "internal_node_id": "0.0-60.0-3.0"}}, {"uniqueid": "MTK0739:3WQ3B2KGE9N57G943X0TUHZYYJB1BQ", "current_trial": 82, "dateTime": 1512679956594, "trialdata": {"rt": -1, "stimulus": "<p id=\"stim\">6</p>", "key_press": -1, "trial_type": "single-stim", "trial_index": 82, "time_elapsed": 500201, "internal_node_id": "0.0-60.0-4.0"}}, {"uniqueid": "MTK0739:3WQ3B2KGE9N57G943X0TUHZYYJB1BQ", "current_trial": 83, "dateTime": 1512679957595, "trialdata": {"rt": -1, "stimulus": "<p id=\"stim\">5</p>", "key_press": -1, "trial_type": "single-stim", "trial_index": 83, "time_elapsed": 501202, "internal_node_id": "0.0-60.0-5.0"}}, {"uniqueid": "MTK0739:3WQ3B2KGE9N57G943X0TUHZYYJB1BQ", "current_trial": 84, "dateTime": 1512679958596, "trialdata": {"rt": -1, "stimulus": "<p id=\"stim\">4</p>", "key_press": -1, "trial_type": "single-stim", "trial_index": 84, "time_elapsed": 502203, "internal_node_id": "0.0-60.0-6.0"}}, {"uniqueid": "MTK0739:3WQ3B2KGE9N57G943X0TUHZYYJB1BQ", "current_trial": 85, "dateTime": 1512679959599, "trialdata": {"rt": -1, "stimulus": "<p id=\"stim\">3</p>", "key_press": -1, "trial_type": "single-stim", "trial_index": 85, "time_elapsed": 503205, "internal_node_id": "0.0-60.0-7.0"}}, {"uniqueid": "MTK0739:3WQ3B2KGE9N57G943X0TUHZYYJB1BQ", "current_trial": 86, "dateTime": 1512679960601, "trialdata": {"rt": -1, "stimulus": "<p id=\"stim\">2</p>", "key_press": -1, "trial_type": "single-stim", "trial_index": 86, "time_elapsed": 504208, "internal_node_id": "0.0-60.0-8.0"}}, {"uniqueid": "MTK0739:3WQ3B2KGE9N57G943X0TUHZYYJB1BQ", "current_trial": 87, "dateTime": 1512679961603, "trialdata": {"rt": -1, "stimulus": "<p id=\"stim\">1</p>", "key_press": -1, "trial_type": "single-stim", "trial_index": 87, "time_elapsed": 505210, "internal_node_id": "0.0-60.0-9.0"}}, {"uniqueid": "MTK0739:3WQ3B2KGE9N57G943X0TUHZYYJB1BQ", "current_trial": 88, "dateTime": 1512679963105, "trialdata": {"rt": -1, "stimulus": "<p id=\"stim\">+</p>", "key_press": -1, "type": "FIXATION", "trial_type": "single-stim", "trial_index": 88, "time_elapsed": 506712, "internal_node_id": "0.0-61.0-0.0"}}, {"uniqueid": "MTK0739:3WQ3B2KGE9N57G943X0TUHZYYJB1BQ", "current_trial": 89, "dateTime": 1512679964963, "trialdata": {"rt": -1000, "stimulus": "/static/audio/wordpool/KITCHEN.wav", "key_press": -1, "type": "PRES_AUD", "word": "kitchen", "wordID": 777, "conditions": [24, 800, "a", 12000], "trial": 2, "serialpos": 0, "trial_type": "single-audio", "trial_index": 89, "time_elapsed": 508569, "internal_node_id": "0.0-62.0"}}, {"uniqueid": "MTK0739:3WQ3B2KGE9N57G943X0TUHZYYJB1BQ", "current_trial": 90, "dateTime": 1512679966726, "trialdata": {"rt": -1000, "stimulus": "/static/audio/wordpool/VICTIM.wav", "key_press": -1, "type": "PRES_AUD", "word": "victim", "wordID": 1561, "conditions": [24, 800, "a", 12000], "trial": 2, "serialpos": 1, "trial_type": "single-audio", "trial_index": 90, "time_elapsed": 510333, "internal_node_id": "0.0-63.0"}}, {"uniqueid": "MTK0739:3WQ3B2KGE9N57G943X0TUHZYYJB1BQ", "current_trial": 91, "dateTime": 1512679968425, "trialdata": {"rt": -1000, "stimulus": "/static/audio/wordpool/SUSPECT.wav", "key_press": -1, "type": "PRES_AUD", "word": "suspect", "wordID": 1414, "conditions": [24, 800, "a", 12000], "trial": 2, "serialpos": 2, "trial_type": "single-audio", "trial_index": 91, "time_elapsed": 512032, "internal_node_id": "0.0-64.0"}}, {"uniqueid": "MTK0739:3WQ3B2KGE9N57G943X0TUHZYYJB1BQ", "current_trial": 92, "dateTime": 1512679970349, "trialdata": {"rt": -1000, "stimulus": "/static/audio/wordpool/PIGEON.wav", "key_press": -1, "type": "PRES_AUD", "word": "pigeon", "wordID": 1064, "conditions": [24, 800, "a", 12000], "trial": 2, "serialpos": 3, "trial_type": "single-audio", "trial_index": 92, "time_elapsed": 513955, "internal_node_id": "0.0-65.0"}}, {"uniqueid": "MTK0739:3WQ3B2KGE9N57G943X0TUHZYYJB1BQ", "current_trial": 93, "dateTime": 1512679972118, "trialdata": {"rt": -1000, "stimulus": "/static/audio/wordpool/STOVE.wav", "key_press": -1, "type": "PRES_AUD", "word": "stove", "wordID": 1387, "conditions": [24, 800, "a", 12000], "trial": 2, "serialpos": 4, "trial_type": "single-audio", "trial_index": 93, "time_elapsed": 515724, "internal_node_id": "0.0-66.0"}}, {"uniqueid": "MTK0739:3WQ3B2KGE9N57G943X0TUHZYYJB1BQ", "current_trial": 94, "dateTime": 1512679973935, "trialdata": {"rt": -1000, "stimulus": "/static/audio/wordpool/DRESS.wav", "key_press": -1, "type": "PRES_AUD", "word": "dress", "wordID": 494, "conditions": [24, 800, "a", 12000], "trial": 2, "serialpos": 5, "trial_type": "single-audio", "trial_index": 94, "time_elapsed": 517541, "internal_node_id": "0.0-67.0"}}, {"uniqueid": "MTK0739:3WQ3B2KGE9N57G943X0TUHZYYJB1BQ", "current_trial": 95, "dateTime": 1512679975876, "trialdata": {"rt": -1000, "stimulus": "/static/audio/wordpool/BULLET.wav", "key_press": -1, "type": "PRES_AUD", "word": "bullet", "wordID": 193, "conditions": [24, 800, "a", 12000], "trial": 2, "serialpos": 6, "trial_type": "single-audio", "trial_index": 95, "time_elapsed": 519482, "internal_node_id": "0.0-68.0"}}, {"uniqueid": "MTK0739:3WQ3B2KGE9N57G943X0TUHZYYJB1BQ", "current_trial": 96, "dateTime": 1512679977705, "trialdata": {"rt": -1000, "stimulus": "/static/audio/wordpool/MARS.wav", "key_press": -1, "type": "PRES_AUD", "word": "mars", "wordID": 872, "conditions": [24, 800, "a", 12000], "trial": 2, "serialpos": 7, "trial_type": "single-audio", "trial_index": 96, "time_elapsed": 521311, "internal_node_id": "0.0-69.0"}}, {"uniqueid": "MTK0739:3WQ3B2KGE9N57G943X0TUHZYYJB1BQ", "current_trial": 97, "dateTime": 1512679979366, "trialdata": {"rt": -1000, "stimulus": "/static/audio/wordpool/SODA.wav", "key_press": -1, "type": "PRES_AUD", "word": "soda", "wordID": 1340, "conditions": [24, 800, "a", 12000], "trial": 2, "serialpos": 8, "trial_type": "single-audio", "trial_index": 97, "time_elapsed": 522973, "internal_node_id": "0.0-70.0"}}, {"uniqueid": "MTK0739:3WQ3B2KGE9N57G943X0TUHZYYJB1BQ", "current_trial": 98, "dateTime": 1512679981199, "trialdata": {"rt": -1000, "stimulus": "/static/audio/wordpool/FRAGRANCE.wav", "key_press": -1, "type": "PRES_AUD", "word": "fragrance", "wordID": 598, "conditions": [24, 800, "a", 12000], "trial": 2, "serialpos": 9, "trial_type": "single-audio", "trial_index": 98, "time_elapsed": 524806, "internal_node_id": "0.0-71.0"}}, {"uniqueid": "MTK0739:3WQ3B2KGE9N57G943X0TUHZYYJB1BQ", "current_trial": 99, "dateTime": 1512679983186, "trialdata": {"rt": -1000, "stimulus": "/static/audio/wordpool/TERMITE.wav", "key_press": -1, "type": "PRES_AUD", "word": "termite", "wordID": 1450, "conditions": [24, 800, "a", 12000], "trial": 2, "serialpos": 10, "trial_type": "single-audio", "trial_index": 99, "time_elapsed": 526793, "internal_node_id": "0.0-72.0"}}, {"uniqueid": "MTK0739:3WQ3B2KGE9N57G943X0TUHZYYJB1BQ", "current_trial": 100, "dateTime": 1512679985087, "trialdata": {"rt": -1000, "stimulus": "/static/audio/wordpool/BIKE.wav", "key_press": -1, "type": "PRES_AUD", "word": "bike", "wordID": 124, "conditions": [24, 800, "a", 12000], "trial": 2, "serialpos": 11, "trial_type": "single-audio", "trial_index": 100, "time_elapsed": 528693, "internal_node_id": "0.0-73.0"}}, {"uniqueid": "MTK0739:3WQ3B2KGE9N57G943X0TUHZYYJB1BQ", "current_trial": 101, "dateTime": 1512679986988, "trialdata": {"rt": -1000, "stimulus": "/static/audio/wordpool/SPIDER.wav", "key_press": -1, "type": "PRES_AUD", "word": "spider", "wordID": 1350, "conditions": [24, 800, "a", 12000], "trial": 2, "serialpos": 12, "trial_type": "single-audio", "trial_index": 101, "time_elapsed": 530594, "internal_node_id": "0.0-74.0"}}, {"uniqueid": "MTK0739:3WQ3B2KGE9N57G943X0TUHZYYJB1BQ", "current_trial": 102, "dateTime": 1512679988833, "trialdata": {"rt": -1000, "stimulus": "/static/audio/wordpool/TUTU.wav", "key_press": -1, "type": "PRES_AUD", "word": "tutu", "wordID": 1523, "conditions": [24, 800, "a", 12000], "trial": 2, "serialpos": 13, "trial_type": "single-audio", "trial_index": 102, "time_elapsed": 532439, "internal_node_id": "0.0-75.0"}}, {"uniqueid": "MTK0739:3WQ3B2KGE9N57G943X0TUHZYYJB1BQ", "current_trial": 103, "dateTime": 1512679990537, "trialdata": {"rt": -1000, "stimulus": "/static/audio/wordpool/LODGE.wav", "key_press": -1, "type": "PRES_AUD", "word": "lodge", "wordID": 838, "conditions": [24, 800, "a", 12000], "trial": 2, "serialpos": 14, "trial_type": "single-audio", "trial_index": 103, "time_elapsed": 534144, "internal_node_id": "0.0-76.0"}}, {"uniqueid": "MTK0739:3WQ3B2KGE9N57G943X0TUHZYYJB1BQ", "current_trial": 104, "dateTime": 1512679992525, "trialdata": {"rt": -1000, "stimulus": "/static/audio/wordpool/BISON.wav", "key_press": -1, "type": "PRES_AUD", "word": "bison", "wordID": 130, "conditions": [24, 800, "a", 12000], "trial": 2, "serialpos": 15, "trial_type": "single-audio", "trial_index": 104, "time_elapsed": 536131, "internal_node_id": "0.0-77.0"}}, {"uniqueid": "MTK0739:3WQ3B2KGE9N57G943X0TUHZYYJB1BQ", "current_trial": 105, "dateTime": 1512679994260, "trialdata": {"rt": -1000, "stimulus": "/static/audio/wordpool/CATTLE.wav", "key_press": -1, "type": "PRES_AUD", "word": "cattle", "wordID": 260, "conditions": [24, 800, "a", 12000], "trial": 2, "serialpos": 16, "trial_type": "single-audio", "trial_index": 105, "time_elapsed": 537867, "internal_node_id": "0.0-78.0"}}, {"uniqueid": "MTK0739:3WQ3B2KGE9N57G943X0TUHZYYJB1BQ", "current_trial": 106, "dateTime": 1512679995895, "trialdata": {"rt": -1000, "stimulus": "/static/audio/wordpool/SADDLE.wav", "key_press": -1, "type": "PRES_AUD", "word": "saddle", "wordID": 1220, "conditions": [24, 800, "a", 12000], "trial": 2, "serialpos": 17, "trial_type": "single-audio", "trial_index": 106, "time_elapsed": 539502, "internal_node_id": "0.0-79.0"}}, {"uniqueid": "MTK0739:3WQ3B2KGE9N57G943X0TUHZYYJB1BQ", "current_trial": 107, "dateTime": 1512679997827, "trialdata": {"rt": -1000, "stimulus": "/static/audio/wordpool/BARREL.wav", "key_press": -1, "type": "PRES_AUD", "word": "barrel", "wordID": 90, "conditions": [24, 800, "a", 12000], "trial": 2, "serialpos": 18, "trial_type": "single-audio", "trial_index": 107, "time_elapsed": 541434, "internal_node_id": "0.0-80.0"}}, {"uniqueid": "MTK0739:3WQ3B2KGE9N57G943X0TUHZYYJB1BQ", "current_trial": 108, "dateTime": 1512679999612, "trialdata": {"rt": -1000, "stimulus": "/static/audio/wordpool/PLAYGROUND.wav", "key_press": -1, "type": "PRES_AUD", "word": "playground", "wordID": 1086, "conditions": [24, 800, "a", 12000], "trial": 2, "serialpos": 19, "trial_type": "single-audio", "trial_index": 108, "time_elapsed": 543219, "internal_node_id": "0.0-81.0"}}, {"uniqueid": "MTK0739:3WQ3B2KGE9N57G943X0TUHZYYJB1BQ", "current_trial": 109, "dateTime": 1512680001265, "trialdata": {"rt": -1000, "stimulus": "/static/audio/wordpool/NIGHTGOWN.wav", "key_press": -1, "type": "PRES_AUD", "word": "nightgown", "wordID": 952, "conditions": [24, 800, "a", 12000], "trial": 2, "serialpos": 20, "trial_type": "single-audio", "trial_index": 109, "time_elapsed": 544871, "internal_node_id": "0.0-82.0"}}, {"uniqueid": "MTK0739:3WQ3B2KGE9N57G943X0TUHZYYJB1BQ", "current_trial": 110, "dateTime": 1512680003219, "trialdata": {"rt": -1000, "stimulus": "/static/audio/wordpool/LACE.wav", "key_press": -1, "type": "PRES_AUD", "word": "lace", "wordID": 791, "conditions": [24, 800, "a", 12000], "trial": 2, "serialpos": 21, "trial_type": "single-audio", "trial_index": 110, "time_elapsed": 546826, "internal_node_id": "0.0-83.0"}}, {"uniqueid": "MTK0739:3WQ3B2KGE9N57G943X0TUHZYYJB1BQ", "current_trial": 111, "dateTime": 1512680004854, "trialdata": {"rt": -1000, "stimulus": "/static/audio/wordpool/ISLAND.wav", "key_press": -1, "type": "PRES_AUD", "word": "island", "wordID": 744, "conditions": [24, 800, "a", 12000], "trial": 2, "serialpos": 22, "trial_type": "single-audio", "trial_index": 111, "time_elapsed": 548461, "internal_node_id": "0.0-84.0"}}, {"uniqueid": "MTK0739:3WQ3B2KGE9N57G943X0TUHZYYJB1BQ", "current_trial": 112, "dateTime": 1512680006850, "trialdata": {"rt": -1000, "stimulus": "/static/audio/wordpool/CHEMIST.wav", "key_press": -1, "type": "PRES_AUD", "word": "chemist", "wordID": 291, "conditions": [24, 800, "a", 12000], "trial": 2, "serialpos": 23, "trial_type": "single-audio", "trial_index": 112, "time_elapsed": 550457, "internal_node_id": "0.0-85.0"}}, {"uniqueid": "MTK0739:3WQ3B2KGE9N57G943X0TUHZYYJB1BQ", "current_trial": 113, "dateTime": 1512680008188, "trialdata": {"rt": -1, "stimulus": "", "key_press": -1, "type": "PRE_RECALL_DELAY", "trial_type": "single-stim", "trial_index": 113, "time_elapsed": 551795, "internal_node_id": "0.0-86.0-0.0"}}, {"uniqueid": "MTK0739:3WQ3B2KGE9N57G943X0TUHZYYJB1BQ", "current_trial": 114, "dateTime": 1512680008697, "trialdata": {"rt": -1000, "stimulus": "/static/audio/400Hz.wav", "key_press": -1, "type": "PRE_RECALL_ALERT", "trial_type": "single-audio", "trial_index": 114, "time_elapsed": 552303, "internal_node_id": "0.0-87.0"}}, {"uniqueid": "MTK0739:3WQ3B2KGE9N57G943X0TUHZYYJB1BQ", "current_trial": 115, "dateTime": 1512680068706, "trialdata": {"rt": [2435, 4338, 9930, 14274, 19306, 26130, 27762, 33286, 45439, 47834], "recwords": ["chemist", "pidgeon", "barrel", "playground", "victim", "cattle", "sattle", "tutu", "kitchen", "stove"], "type": "FREE_RECALL", "conditions": [24, 800, "a", 12000], "trial": 2, "trial_type": "free-recall", "trial_index": 115, "time_elapsed": 612309, "internal_node_id": "0.0-88.0-0.0"}}, {"uniqueid": "MTK0739:3WQ3B2KGE9N57G943X0TUHZYYJB1BQ", "current_trial": 116, "dateTime": 1512680072402, "trialdata": {"rt": 1690, "key_press": 66, "type": "INSTRUCTIONS", "trial_type": "text", "trial_index": 116, "time_elapsed": 616008, "internal_node_id": "0.0-89.0"}}, {"uniqueid": "MTK0739:3WQ3B2KGE9N57G943X0TUHZYYJB1BQ", "current_trial": 117, "dateTime": 1512680098406, "trialdata": {"rt": [4130, 7594, 10978, 13218, 15002, 18642, 22274], "responses": ["11", "24", "15", "20", "11", "21", "17"], "num1": [4, 8, 5, 8, 2, 6, 8, 2], "num2": [3, 8, 3, 4, 1, 8, 8, 9], "num3": [4, 8, 7, 8, 8, 7, 1, 2], "type": "DISTRACTOR", "conditions": [12, 1600, "a", 24000], "trial": 3, "trial_type": "math-distractor", "trial_index": 117, "time_elapsed": 642013, "internal_node_id": "0.0-90.0"}}, {"uniqueid": "MTK0739:3WQ3B2KGE9N57G943X0TUHZYYJB1BQ", "current_trial": 118, "dateTime": 1512680101409, "trialdata": {"rt": -1, "stimulus": "<p id=\"stim\">10</p>", "key_press": -1, "trial_type": "single-stim", "trial_index": 118, "time_elapsed": 645015, "internal_node_id": "0.0-91.0-0.0"}}, {"uniqueid": "MTK0739:3WQ3B2KGE9N57G943X0TUHZYYJB1BQ", "current_trial": 119, "dateTime": 1512680102411, "trialdata": {"rt": -1, "stimulus": "<p id=\"stim\">9</p>", "key_press": -1, "trial_type": "single-stim", "trial_index": 119, "time_elapsed": 646018, "internal_node_id": "0.0-91.0-1.0"}}, {"uniqueid": "MTK0739:3WQ3B2KGE9N57G943X0TUHZYYJB1BQ", "current_trial": 120, "dateTime": 1512680103413, "trialdata": {"rt": -1, "stimulus": "<p id=\"stim\">8</p>", "key_press": -1, "trial_type": "single-stim", "trial_index": 120, "time_elapsed": 647020, "internal_node_id": "0.0-91.0-2.0"}}, {"uniqueid": "MTK0739:3WQ3B2KGE9N57G943X0TUHZYYJB1BQ", "current_trial": 121, "dateTime": 1512680104415, "trialdata": {"rt": -1, "stimulus": "<p id=\"stim\">7</p>", "key_press": -1, "trial_type": "single-stim", "trial_index": 121, "time_elapsed": 648021, "internal_node_id": "0.0-91.0-3.0"}}, {"uniqueid": "MTK0739:3WQ3B2KGE9N57G943X0TUHZYYJB1BQ", "current_trial": 122, "dateTime": 1512680105416, "trialdata": {"rt": -1, "stimulus": "<p id=\"stim\">6</p>", "key_press": -1, "trial_type": "single-stim", "trial_index": 122, "time_elapsed": 649023, "internal_node_id": "0.0-91.0-4.0"}}, {"uniqueid": "MTK0739:3WQ3B2KGE9N57G943X0TUHZYYJB1BQ", "current_trial": 123, "dateTime": 1512680106417, "trialdata": {"rt": -1, "stimulus": "<p id=\"stim\">5</p>", "key_press": -1, "trial_type": "single-stim", "trial_index": 123, "time_elapsed": 650024, "internal_node_id": "0.0-91.0-5.0"}}, {"uniqueid": "MTK0739:3WQ3B2KGE9N57G943X0TUHZYYJB1BQ", "current_trial": 124, "dateTime": 1512680107418, "trialdata": {"rt": -1, "stimulus": "<p id=\"stim\">4</p>", "key_press": -1, "trial_type": "single-stim", "trial_index": 124, "time_elapsed": 651025, "internal_node_id": "0.0-91.0-6.0"}}, {"uniqueid": "MTK0739:3WQ3B2KGE9N57G943X0TUHZYYJB1BQ", "current_trial": 125, "dateTime": 1512680108420, "trialdata": {"rt": -1, "stimulus": "<p id=\"stim\">3</p>", "key_press": -1, "trial_type": "single-stim", "trial_index": 125, "time_elapsed": 652026, "internal_node_id": "0.0-91.0-7.0"}}, {"uniqueid": "MTK0739:3WQ3B2KGE9N57G943X0TUHZYYJB1BQ", "current_trial": 126, "dateTime": 1512680109421, "trialdata": {"rt": -1, "stimulus": "<p id=\"stim\">2</p>", "key_press": -1, "trial_type": "single-stim", "trial_index": 126, "time_elapsed": 653028, "internal_node_id": "0.0-91.0-8.0"}}, {"uniqueid": "MTK0739:3WQ3B2KGE9N57G943X0TUHZYYJB1BQ", "current_trial": 127, "dateTime": 1512680110424, "trialdata": {"rt": -1, "stimulus": "<p id=\"stim\">1</p>", "key_press": -1, "trial_type": "single-stim", "trial_index": 127, "time_elapsed": 654031, "internal_node_id": "0.0-91.0-9.0"}}, {"uniqueid": "MTK0739:3WQ3B2KGE9N57G943X0TUHZYYJB1BQ", "current_trial": 128, "dateTime": 1512680111925, "trialdata": {"rt": -1, "stimulus": "<p id=\"stim\">+</p>", "key_press": -1, "type": "FIXATION", "trial_type": "single-stim", "trial_index": 128, "time_elapsed": 655532, "internal_node_id": "0.0-92.0-0.0"}}, {"uniqueid": "MTK0739:3WQ3B2KGE9N57G943X0TUHZYYJB1BQ", "current_trial": 129, "dateTime": 1512680114582, "trialdata": {"rt": -1000, "stimulus": "/static/audio/wordpool/PASTA.wav", "key_press": -1, "type": "PRES_AUD", "word": "pasta", "wordID": 1020, "conditions": [12, 1600, "a", 24000], "trial": 3, "serialpos": 0, "trial_type": "single-audio", "trial_index": 129, "time_elapsed": 658188, "internal_node_id": "0.0-93.0"}}, {"uniqueid": "MTK0739:3WQ3B2KGE9N57G943X0TUHZYYJB1BQ", "current_trial": 130, "dateTime": 1512680117381, "trialdata": {"rt": -1000, "stimulus": "/static/audio/wordpool/LIVER.wav", "key_press": -1, "type": "PRES_AUD", "word": "liver", "wordID": 832, "conditions": [12, 1600, "a", 24000], "trial": 3, "serialpos": 1, "trial_type": "single-audio", "trial_index": 130, "time_elapsed": 660988, "internal_node_id": "0.0-94.0"}}, {"uniqueid": "MTK0739:3WQ3B2KGE9N57G943X0TUHZYYJB1BQ", "current_trial": 131, "dateTime": 1512680119847, "trialdata": {"rt": -1000, "stimulus": "/static/audio/wordpool/KIDNEY.wav", "key_press": -1, "type": "PRES_AUD", "word": "kidney", "wordID": 775, "conditions": [12, 1600, "a", 24000], "trial": 3, "serialpos": 2, "trial_type": "single-audio", "trial_index": 131, "time_elapsed": 663454, "internal_node_id": "0.0-95.0"}}, {"uniqueid": "MTK0739:3WQ3B2KGE9N57G943X0TUHZYYJB1BQ", "current_trial": 132, "dateTime": 1512680122413, "trialdata": {"rt": -1000, "stimulus": "/static/audio/wordpool/POLICE.wav", "key_press": -1, "type": "PRES_AUD", "word": "police", "wordID": 1097, "conditions": [12, 1600, "a", 24000], "trial": 3, "serialpos": 3, "trial_type": "single-audio", "trial_index": 132, "time_elapsed": 666020, "internal_node_id": "0.0-96.0"}}, {"uniqueid": "MTK0739:3WQ3B2KGE9N57G943X0TUHZYYJB1BQ", "current_trial": 133, "dateTime": 1512680125056, "trialdata": {"rt": -1000, "stimulus": "/static/audio/wordpool/STREAM.wav", "key_press": -1, "type": "PRES_AUD", "word": "stream", "wordID": 1391, "conditions": [12, 1600, "a", 24000], "trial": 3, "serialpos": 4, "trial_type": "single-audio", "trial_index": 133, "time_elapsed": 668663, "internal_node_id": "0.0-97.0"}}, {"uniqueid": "MTK0739:3WQ3B2KGE9N57G943X0TUHZYYJB1BQ", "current_trial": 134, "dateTime": 1512680127615, "trialdata": {"rt": -1000, "stimulus": "/static/audio/wordpool/ARMY.wav", "key_press": -1, "type": "PRES_AUD", "word": "army", "wordID": 38, "conditions": [12, 1600, "a", 24000], "trial": 3, "serialpos": 5, "trial_type": "single-audio", "trial_index": 134, "time_elapsed": 671222, "internal_node_id": "0.0-98.0"}}, {"uniqueid": "MTK0739:3WQ3B2KGE9N57G943X0TUHZYYJB1BQ", "current_trial": 135, "dateTime": 1512680130360, "trialdata": {"rt": -1000, "stimulus": "/static/audio/wordpool/POCKET.wav", "key_press": -1, "type": "PRES_AUD", "word": "pocket", "wordID": 1092, "conditions": [12, 1600, "a", 24000], "trial": 3, "serialpos": 6, "trial_type": "single-audio", "trial_index": 135, "time_elapsed": 673967, "internal_node_id": "0.0-99.0"}}, {"uniqueid": "MTK0739:3WQ3B2KGE9N57G943X0TUHZYYJB1BQ", "current_trial": 136, "dateTime": 1512680132897, "trialdata": {"rt": -1000, "stimulus": "/static/audio/wordpool/DRIVER.wav", "key_press": -1, "type": "PRES_AUD", "word": "driver", "wordID": 498, "conditions": [12, 1600, "a", 24000], "trial": 3, "serialpos": 7, "trial_type": "single-audio", "trial_index": 136, "time_elapsed": 676503, "internal_node_id": "0.0-100.0"}}, {"uniqueid": "MTK0739:3WQ3B2KGE9N57G943X0TUHZYYJB1BQ", "current_trial": 137, "dateTime": 1512680135486, "trialdata": {"rt": -1000, "stimulus": "/static/audio/wordpool/SWIMMER.wav", "key_press": -1, "type": "PRES_AUD", "word": "swimmer", "wordID": 1419, "conditions": [12, 1600, "a", 24000], "trial": 3, "serialpos": 8, "trial_type": "single-audio", "trial_index": 137, "time_elapsed": 679093, "internal_node_id": "0.0-101.0"}}, {"uniqueid": "MTK0739:3WQ3B2KGE9N57G943X0TUHZYYJB1BQ", "current_trial": 138, "dateTime": 1512680138074, "trialdata": {"rt": -1000, "stimulus": "/static/audio/wordpool/BLUEPRINT.wav", "key_press": -1, "type": "PRES_AUD", "word": "blueprint", "wordID": 141, "conditions": [12, 1600, "a", 24000], "trial": 3, "serialpos": 9, "trial_type": "single-audio", "trial_index": 138, "time_elapsed": 681681, "internal_node_id": "0.0-102.0"}}, {"uniqueid": "MTK0739:3WQ3B2KGE9N57G943X0TUHZYYJB1BQ", "current_trial": 139, "dateTime": 1512680140619, "trialdata": {"rt": -1000, "stimulus": "/static/audio/wordpool/BLOUSE.wav", "key_press": -1, "type": "PRES_AUD", "word": "blouse", "wordID": 138, "conditions": [12, 1600, "a", 24000], "trial": 3, "serialpos": 10, "trial_type": "single-audio", "trial_index": 139, "time_elapsed": 684226, "internal_node_id": "0.0-103.0"}}, {"uniqueid": "MTK0739:3WQ3B2KGE9N57G943X0TUHZYYJB1BQ", "current_trial": 140, "dateTime": 1512680143173, "trialdata": {"rt": -1000, "stimulus": "/static/audio/wordpool/PATROL.wav", "key_press": -1, "type": "PRES_AUD", "word": "patrol", "wordID": 1026, "conditions": [12, 1600, "a", 24000], "trial": 3, "serialpos": 11, "trial_type": "single-audio", "trial_index": 140, "time_elapsed": 686780, "internal_node_id": "0.0-104.0"}}, {"uniqueid": "MTK0739:3WQ3B2KGE9N57G943X0TUHZYYJB1BQ", "current_trial": 141, "dateTime": 1512680144439, "trialdata": {"rt": -1, "stimulus": "", "key_press": -1, "type": "PRE_RECALL_DELAY", "trial_type": "single-stim", "trial_index": 141, "time_elapsed": 688046, "internal_node_id": "0.0-105.0-0.0"}}, {"uniqueid": "MTK0739:3WQ3B2KGE9N57G943X0TUHZYYJB1BQ", "current_trial": 142, "dateTime": 1512680144942, "trialdata": {"rt": -1000, "stimulus": "/static/audio/400Hz.wav", "key_press": -1, "type": "PRE_RECALL_ALERT", "trial_type": "single-audio", "trial_index": 142, "time_elapsed": 688549, "internal_node_id": "0.0-106.0"}}, {"uniqueid": "MTK0739:3WQ3B2KGE9N57G943X0TUHZYYJB1BQ", "current_trial": 143, "dateTime": 1512680204955, "trialdata": {"rt": [2968, 6615, 8919, 20047, 24871, 35743], "recwords": ["patrol", "liver", "swimmer", "cook", "lister", "river"], "type": "FREE_RECALL", "conditions": [12, 1600, "a", 24000], "trial": 3, "trial_type": "free-recall", "trial_index": 143, "time_elapsed": 748555, "internal_node_id": "0.0-107.0-0.0"}}, {"uniqueid": "MTK0739:3WQ3B2KGE9N57G943X0TUHZYYJB1BQ", "current_trial": 144, "dateTime": 1512680208359, "trialdata": {"rt": 1402, "key_press": 13, "type": "INSTRUCTIONS", "trial_type": "text", "trial_index": 144, "time_elapsed": 751966, "internal_node_id": "0.0-108.0"}}, {"uniqueid": "MTK0739:3WQ3B2KGE9N57G943X0TUHZYYJB1BQ", "current_trial": 145, "dateTime": 1512680222365, "trialdata": {"rt": [2324, 4293, 7101, 9557], "responses": ["15", "13", "21", "13"], "num1": [7, 2, 9, 9, 9], "num2": [2, 7, 4, 2, 5], "num3": [6, 4, 8, 1, 9], "type": "DISTRACTOR", "conditions": [24, 1600, "a", 12000], "trial": 4, "trial_type": "math-distractor", "trial_index": 145, "time_elapsed": 765971, "internal_node_id": "0.0-109.0"}}, {"uniqueid": "MTK0739:3WQ3B2KGE9N57G943X0TUHZYYJB1BQ", "current_trial": 146, "dateTime": 1512680225373, "trialdata": {"rt": -1, "stimulus": "<p id=\"stim\">10</p>", "key_press": -1, "trial_type": "single-stim", "trial_index": 146, "time_elapsed": 768979, "internal_node_id": "0.0-110.0-0.0"}}, {"uniqueid": "MTK0739:3WQ3B2KGE9N57G943X0TUHZYYJB1BQ", "current_trial": 147, "dateTime": 1512680226374, "trialdata": {"rt": -1, "stimulus": "<p id=\"stim\">9</p>", "key_press": -1, "trial_type": "single-stim", "trial_index": 147, "time_elapsed": 769980, "internal_node_id": "0.0-110.0-1.0"}}, {"uniqueid": "MTK0739:3WQ3B2KGE9N57G943X0TUHZYYJB1BQ", "current_trial": 148, "dateTime": 1512680227376, "trialdata": {"rt": -1, "stimulus": "<p id=\"stim\">8</p>", "key_press": -1, "trial_type": "single-stim", "trial_index": 148, "time_elapsed": 770983, "internal_node_id": "0.0-110.0-2.0"}}, {"uniqueid": "MTK0739:3WQ3B2KGE9N57G943X0TUHZYYJB1BQ", "current_trial": 149, "dateTime": 1512680228378, "trialdata": {"rt": -1, "stimulus": "<p id=\"stim\">7</p>", "key_press": -1, "trial_type": "single-stim", "trial_index": 149, "time_elapsed": 771984, "internal_node_id": "0.0-110.0-3.0"}}, {"uniqueid": "MTK0739:3WQ3B2KGE9N57G943X0TUHZYYJB1BQ", "current_trial": 150, "dateTime": 1512680229379, "trialdata": {"rt": -1, "stimulus": "<p id=\"stim\">6</p>", "key_press": -1, "trial_type": "single-stim", "trial_index": 150, "time_elapsed": 772986, "internal_node_id": "0.0-110.0-4.0"}}, {"uniqueid": "MTK0739:3WQ3B2KGE9N57G943X0TUHZYYJB1BQ", "current_trial": 151, "dateTime": 1512680230381, "trialdata": {"rt": -1, "stimulus": "<p id=\"stim\">5</p>", "key_press": -1, "trial_type": "single-stim", "trial_index": 151, "time_elapsed": 773987, "internal_node_id": "0.0-110.0-5.0"}}, {"uniqueid": "MTK0739:3WQ3B2KGE9N57G943X0TUHZYYJB1BQ", "current_trial": 152, "dateTime": 1512680231382, "trialdata": {"rt": -1, "stimulus": "<p id=\"stim\">4</p>", "key_press": -1, "trial_type": "single-stim", "trial_index": 152, "time_elapsed": 774988, "internal_node_id": "0.0-110.0-6.0"}}, {"uniqueid": "MTK0739:3WQ3B2KGE9N57G943X0TUHZYYJB1BQ", "current_trial": 153, "dateTime": 1512680232383, "trialdata": {"rt": -1, "stimulus": "<p id=\"stim\">3</p>", "key_press": -1, "trial_type": "single-stim", "trial_index": 153, "time_elapsed": 775989, "internal_node_id": "0.0-110.0-7.0"}}, {"uniqueid": "MTK0739:3WQ3B2KGE9N57G943X0TUHZYYJB1BQ", "current_trial": 154, "dateTime": 1512680233384, "trialdata": {"rt": -1, "stimulus": "<p id=\"stim\">2</p>", "key_press": -1, "trial_type": "single-stim", "trial_index": 154, "time_elapsed": 776990, "internal_node_id": "0.0-110.0-8.0"}}, {"uniqueid": "MTK0739:3WQ3B2KGE9N57G943X0TUHZYYJB1BQ", "current_trial": 155, "dateTime": 1512680234384, "trialdata": {"rt": -1, "stimulus": "<p id=\"stim\">1</p>", "key_press": -1, "trial_type": "single-stim", "trial_index": 155, "time_elapsed": 777991, "internal_node_id": "0.0-110.0-9.0"}}, {"uniqueid": "MTK0739:3WQ3B2KGE9N57G943X0TUHZYYJB1BQ", "current_trial": 156, "dateTime": 1512680235886, "trialdata": {"rt": -1, "stimulus": "<p id=\"stim\">+</p>", "key_press": -1, "type": "FIXATION", "trial_type": "single-stim", "trial_index": 156, "time_elapsed": 779493, "internal_node_id": "0.0-111.0-0.0"}}, {"uniqueid": "MTK0739:3WQ3B2KGE9N57G943X0TUHZYYJB1BQ", "current_trial": 157, "dateTime": 1512680238622, "trialdata": {"rt": -1000, "stimulus": "/static/audio/wordpool/VIKING.wav", "key_press": -1, "type": "PRES_AUD", "word": "viking", "wordID": 1564, "conditions": [24, 1600, "a", 12000], "trial": 4, "serialpos": 0, "trial_type": "single-audio", "trial_index": 157, "time_elapsed": 782229, "internal_node_id": "0.0-112.0"}}, {"uniqueid": "MTK0739:3WQ3B2KGE9N57G943X0TUHZYYJB1BQ", "current_trial": 158, "dateTime": 1512680241168, "trialdata": {"rt": -1000, "stimulus": "/static/audio/wordpool/XEROX.wav", "key_press": -1, "type": "PRES_AUD", "word": "xerox", "wordID": 1627, "conditions": [24, 1600, "a", 12000], "trial": 4, "serialpos": 1, "trial_type": "single-audio", "trial_index": 158, "time_elapsed": 784775, "internal_node_id": "0.0-113.0"}}, {"uniqueid": "MTK0739:3WQ3B2KGE9N57G943X0TUHZYYJB1BQ", "current_trial": 159, "dateTime": 1512680243909, "trialdata": {"rt": -1000, "stimulus": "/static/audio/wordpool/SCULPTURE.wav", "key_press": -1, "type": "PRES_AUD", "word": "sculpture", "wordID": 1257, "conditions": [24, 1600, "a", 12000], "trial": 4, "serialpos": 2, "trial_type": "single-audio", "trial_index": 159, "time_elapsed": 787515, "internal_node_id": "0.0-114.0"}}, {"uniqueid": "MTK0739:3WQ3B2KGE9N57G943X0TUHZYYJB1BQ", "current_trial": 160, "dateTime": 1512680246325, "trialdata": {"rt": -1000, "stimulus": "/static/audio/wordpool/AUTHOR.wav", "key_press": -1, "type": "PRES_AUD", "word": "author", "wordID": 60, "conditions": [24, 1600, "a", 12000], "trial": 4, "serialpos": 3, "trial_type": "single-audio", "trial_index": 160, "time_elapsed": 789931, "internal_node_id": "0.0-115.0"}}, {"uniqueid": "MTK0739:3WQ3B2KGE9N57G943X0TUHZYYJB1BQ", "current_trial": 161, "dateTime": 1512680249057, "trialdata": {"rt": -1000, "stimulus": "/static/audio/wordpool/COOKBOOK.wav", "key_press": -1, "type": "PRES_AUD", "word": "cookbook", "wordID": 372, "conditions": [24, 1600, "a", 12000], "trial": 4, "serialpos": 4, "trial_type": "single-audio", "trial_index": 161, "time_elapsed": 792663, "internal_node_id": "0.0-116.0"}}, {"uniqueid": "MTK0739:3WQ3B2KGE9N57G943X0TUHZYYJB1BQ", "current_trial": 162, "dateTime": 1512680251722, "trialdata": {"rt": -1000, "stimulus": "/static/audio/wordpool/WRIST.wav", "key_press": -1, "type": "PRES_AUD", "word": "wrist", "wordID": 1625, "conditions": [24, 1600, "a", 12000], "trial": 4, "serialpos": 5, "trial_type": "single-audio", "trial_index": 162, "time_elapsed": 795328, "internal_node_id": "0.0-117.0"}}, {"uniqueid": "MTK0739:3WQ3B2KGE9N57G943X0TUHZYYJB1BQ", "current_trial": 163, "dateTime": 1512680254499, "trialdata": {"rt": -1000, "stimulus": "/static/audio/wordpool/SCOTCH.wav", "key_press": -1, "type": "PRES_AUD", "word": "scotch", "wordID": 1250, "conditions": [24, 1600, "a", 12000], "trial": 4, "serialpos": 6, "trial_type": "single-audio", "trial_index": 163, "time_elapsed": 798105, "internal_node_id": "0.0-118.0"}}, {"uniqueid": "MTK0739:3WQ3B2KGE9N57G943X0TUHZYYJB1BQ", "current_trial": 164, "dateTime": 1512680256960, "trialdata": {"rt": -1000, "stimulus": "/static/audio/wordpool/LAVA.wav", "key_press": -1, "type": "PRES_AUD", "word": "lava", "wordID": 803, "conditions": [24, 1600, "a", 12000], "trial": 4, "serialpos": 7, "trial_type": "single-audio", "trial_index": 164, "time_elapsed": 800566, "internal_node_id": "0.0-119.0"}}, {"uniqueid": "MTK0739:3WQ3B2KGE9N57G943X0TUHZYYJB1BQ", "current_trial": 165, "dateTime": 1512680259725, "trialdata": {"rt": -1000, "stimulus": "/static/audio/wordpool/ANKLE.wav", "key_press": -1, "type": "PRES_AUD", "word": "ankle", "wordID": 23, "conditions": [24, 1600, "a", 12000], "trial": 4, "serialpos": 8, "trial_type": "single-audio", "trial_index": 165, "time_elapsed": 803331, "internal_node_id": "0.0-120.0"}}, {"uniqueid": "MTK0739:3WQ3B2KGE9N57G943X0TUHZYYJB1BQ", "current_trial": 166, "dateTime": 1512680262309, "trialdata": {"rt": -1000, "stimulus": "/static/audio/wordpool/CHILD.wav", "key_press": -1, "type": "PRES_AUD", "word": "child", "wordID": 298, "conditions": [24, 1600, "a", 12000], "trial": 4, "serialpos": 9, "trial_type": "single-audio", "trial_index": 166, "time_elapsed": 805916, "internal_node_id": "0.0-121.0"}}, {"uniqueid": "MTK0739:3WQ3B2KGE9N57G943X0TUHZYYJB1BQ", "current_trial": 167, "dateTime": 1512680264731, "trialdata": {"rt": -1000, "stimulus": "/static/audio/wordpool/FRANCE.wav", "key_press": -1, "type": "PRES_AUD", "word": "france", "wordID": 600, "conditions": [24, 1600, "a", 12000], "trial": 4, "serialpos": 10, "trial_type": "single-audio", "trial_index": 167, "time_elapsed": 808338, "internal_node_id": "0.0-122.0"}}, {"uniqueid": "MTK0739:3WQ3B2KGE9N57G943X0TUHZYYJB1BQ", "current_trial": 168, "dateTime": 1512680267165, "trialdata": {"rt": -1000, "stimulus": "/static/audio/wordpool/JAPAN.wav", "key_press": -1, "type": "PRES_AUD", "word": "japan", "wordID": 748, "conditions": [24, 1600, "a", 12000], "trial": 4, "serialpos": 11, "trial_type": "single-audio", "trial_index": 168, "time_elapsed": 810772, "internal_node_id": "0.0-123.0"}}, {"uniqueid": "MTK0739:3WQ3B2KGE9N57G943X0TUHZYYJB1BQ", "current_trial": 169, "dateTime": 1512680269869, "trialdata": {"rt": -1000, "stimulus": "/static/audio/wordpool/CHEST.wav", "key_press": -1, "type": "PRES_AUD", "word": "chest", "wordID": 294, "conditions": [24, 1600, "a", 12000], "trial": 4, "serialpos": 12, "trial_type": "single-audio", "trial_index": 169, "time_elapsed": 813475, "internal_node_id": "0.0-124.0"}}, {"uniqueid": "MTK0739:3WQ3B2KGE9N57G943X0TUHZYYJB1BQ", "current_trial": 170, "dateTime": 1512680272435, "trialdata": {"rt": -1000, "stimulus": "/static/audio/wordpool/KNIFE.wav", "key_press": -1, "type": "PRES_AUD", "word": "knife", "wordID": 784, "conditions": [24, 1600, "a", 12000], "trial": 4, "serialpos": 13, "trial_type": "single-audio", "trial_index": 170, "time_elapsed": 816041, "internal_node_id": "0.0-125.0"}}, {"uniqueid": "MTK0739:3WQ3B2KGE9N57G943X0TUHZYYJB1BQ", "current_trial": 171, "dateTime": 1512680275030, "trialdata": {"rt": -1000, "stimulus": "/static/audio/wordpool/SWORD.wav", "key_press": -1, "type": "PRES_AUD", "word": "sword", "wordID": 1422, "conditions": [24, 1600, "a", 12000], "trial": 4, "serialpos": 14, "trial_type": "single-audio", "trial_index": 171, "time_elapsed": 818637, "internal_node_id": "0.0-126.0"}}, {"uniqueid": "MTK0739:3WQ3B2KGE9N57G943X0TUHZYYJB1BQ", "current_trial": 172, "dateTime": 1512680277556, "trialdata": {"rt": -1000, "stimulus": "/static/audio/wordpool/CRICKET.wav", "key_press": -1, "type": "PRES_AUD", "word": "cricket", "wordID": 407, "conditions": [24, 1600, "a", 12000], "trial": 4, "serialpos": 15, "trial_type": "single-audio", "trial_index": 172, "time_elapsed": 821162, "internal_node_id": "0.0-127.0"}}, {"uniqueid": "MTK0739:3WQ3B2KGE9N57G943X0TUHZYYJB1BQ", "current_trial": 173, "dateTime": 1512680280226, "trialdata": {"rt": -1000, "stimulus": "/static/audio/wordpool/LABEL.wav", "key_press": -1, "type": "PRES_AUD", "word": "label", "wordID": 789, "conditions": [24, 1600, "a", 12000], "trial": 4, "serialpos": 16, "trial_type": "single-audio", "trial_index": 173, "time_elapsed": 823833, "internal_node_id": "0.0-128.0"}}, {"uniqueid": "MTK0739:3WQ3B2KGE9N57G943X0TUHZYYJB1BQ", "current_trial": 174, "dateTime": 1512680282789, "trialdata": {"rt": -1000, "stimulus": "/static/audio/wordpool/SIBLING.wav", "key_press": -1, "type": "PRES_AUD", "word": "sibling", "wordID": 1300, "conditions": [24, 1600, "a", 12000], "trial": 4, "serialpos": 17, "trial_type": "single-audio", "trial_index": 174, "time_elapsed": 826396, "internal_node_id": "0.0-129.0"}}, {"uniqueid": "MTK0739:3WQ3B2KGE9N57G943X0TUHZYYJB1BQ", "current_trial": 175, "dateTime": 1512680285563, "trialdata": {"rt": -1000, "stimulus": "/static/audio/wordpool/DRINK.wav", "key_press": -1, "type": "PRES_AUD", "word": "drink", "wordID": 497, "conditions": [24, 1600, "a", 12000], "trial": 4, "serialpos": 18, "trial_type": "single-audio", "trial_index": 175, "time_elapsed": 829170, "internal_node_id": "0.0-130.0"}}, {"uniqueid": "MTK0739:3WQ3B2KGE9N57G943X0TUHZYYJB1BQ", "current_trial": 176, "dateTime": 1512680288105, "trialdata": {"rt": -1000, "stimulus": "/static/audio/wordpool/STALLION.wav", "key_press": -1, "type": "PRES_AUD", "word": "stallion", "wordID": 1368, "conditions": [24, 1600, "a", 12000], "trial": 4, "serialpos": 19, "trial_type": "single-audio", "trial_index": 176, "time_elapsed": 831712, "internal_node_id": "0.0-131.0"}}, {"uniqueid": "MTK0739:3WQ3B2KGE9N57G943X0TUHZYYJB1BQ", "current_trial": 177, "dateTime": 1512680290767, "trialdata": {"rt": -1000, "stimulus": "/static/audio/wordpool/MILK.wav", "key_press": -1, "type": "PRES_AUD", "word": "milk", "wordID": 894, "conditions": [24, 1600, "a", 12000], "trial": 4, "serialpos": 20, "trial_type": "single-audio", "trial_index": 177, "time_elapsed": 834373, "internal_node_id": "0.0-132.0"}}, {"uniqueid": "MTK0739:3WQ3B2KGE9N57G943X0TUHZYYJB1BQ", "current_trial": 178, "dateTime": 1512680293243, "trialdata": {"rt": -1000, "stimulus": "/static/audio/wordpool/SLUG.wav", "key_press": -1, "type": "PRES_AUD", "word": "slug", "wordID": 1328, "conditions": [24, 1600, "a", 12000], "trial": 4, "serialpos": 21, "trial_type": "single-audio", "trial_index": 178, "time_elapsed": 836850, "internal_node_id": "0.0-133.0"}}, {"uniqueid": "MTK0739:3WQ3B2KGE9N57G943X0TUHZYYJB1BQ", "current_trial": 179, "dateTime": 1512680295835, "trialdata": {"rt": -1000, "stimulus": "/static/audio/wordpool/FOREHEAD.wav", "key_press": -1, "type": "PRES_AUD", "word": "forehead", "wordID": 591, "conditions": [24, 1600, "a", 12000], "trial": 4, "serialpos": 22, "trial_type": "single-audio", "trial_index": 179, "time_elapsed": 839442, "internal_node_id": "0.0-134.0"}}, {"uniqueid": "MTK0739:3WQ3B2KGE9N57G943X0TUHZYYJB1BQ", "current_trial": 180, "dateTime": 1512680298446, "trialdata": {"rt": -1000, "stimulus": "/static/audio/wordpool/CLAM.wav", "key_press": -1, "type": "PRES_AUD", "word": "clam", "wordID": 314, "conditions": [24, 1600, "a", 12000], "trial": 4, "serialpos": 23, "trial_type": "single-audio", "trial_index": 180, "time_elapsed": 842053, "internal_node_id": "0.0-135.0"}}, {"uniqueid": "MTK0739:3WQ3B2KGE9N57G943X0TUHZYYJB1BQ", "current_trial": 181, "dateTime": 1512680299829, "trialdata": {"rt": -1, "stimulus": "", "key_press": -1, "type": "PRE_RECALL_DELAY", "trial_type": "single-stim", "trial_index": 181, "time_elapsed": 843436, "internal_node_id": "0.0-136.0-0.0"}}, {"uniqueid": "MTK0739:3WQ3B2KGE9N57G943X0TUHZYYJB1BQ", "current_trial": 182, "dateTime": 1512680300331, "trialdata": {"rt": -1000, "stimulus": "/static/audio/400Hz.wav", "key_press": -1, "type": "PRE_RECALL_ALERT", "trial_type": "single-audio", "trial_index": 182, "time_elapsed": 843938, "internal_node_id": "0.0-137.0"}}, {"uniqueid": "MTK0739:3WQ3B2KGE9N57G943X0TUHZYYJB1BQ", "current_trial": 183, "dateTime": 1512680360350, "trialdata": {"rt": [1783, 5526, 7110, 9958, 11174, 14006, 15646, 18454, 19694, 21126, 23566, 31030, 39943, 52746, 57204], "recwords": ["clam", "forehead", "stab", "knife", "sword", "france", "japan", "scotch", "drink", "milk", "stab", "xerox", "cookbook", "stallion", "chest"], "type": "FREE_RECALL", "conditions": [24, 1600, "a", 12000], "trial": 4, "trial_type": "free-recall", "trial_index": 183, "time_elapsed": 903946, "internal_node_id": "0.0-138.0-0.0"}}, {"uniqueid": "MTK0739:3WQ3B2KGE9N57G943X0TUHZYYJB1BQ", "current_trial": 184, "dateTime": 1512680363473, "trialdata": {"rt": 1121, "key_press": 32, "type": "INSTRUCTIONS", "trial_type": "text", "trial_index": 184, "time_elapsed": 907080, "internal_node_id": "0.0-139.0"}}, {"uniqueid": "MTK0739:3WQ3B2KGE9N57G943X0TUHZYYJB1BQ", "current_trial": 185, "dateTime": 1512680389486, "trialdata": {"rt": [3888, 7848, 11544, 14408, 16472, 19080, 21224, 23217], "responses": ["16", "20", "18", "15", "12", "10", "7", "13"], "num1": [8, 5, 8, 2, 7, 5, 1, 9, 4], "num2": [6, 6, 5, 5, 4, 3, 1, 2, 9], "num3": [2, 9, 5, 8, 1, 2, 5, 2, 6], "type": "DISTRACTOR", "conditions": [12, 1600, "v", 24000], "trial": 5, "trial_type": "math-distractor", "trial_index": 185, "time_elapsed": 933092, "internal_node_id": "0.0-140.0"}}, {"uniqueid": "MTK0739:3WQ3B2KGE9N57G943X0TUHZYYJB1BQ", "current_trial": 186, "dateTime": 1512680392490, "trialdata": {"rt": -1, "stimulus": "<p id=\"stim\">10</p>", "key_press": -1, "trial_type": "single-stim", "trial_index": 186, "time_elapsed": 936096, "internal_node_id": "0.0-141.0-0.0"}}, {"uniqueid": "MTK0739:3WQ3B2KGE9N57G943X0TUHZYYJB1BQ", "current_trial": 187, "dateTime": 1512680393492, "trialdata": {"rt": -1, "stimulus": "<p id=\"stim\">9</p>", "key_press": -1, "trial_type": "single-stim", "trial_index": 187, "time_elapsed": 937099, "internal_node_id": "0.0-141.0-1.0"}}, {"uniqueid": "MTK0739:3WQ3B2KGE9N57G943X0TUHZYYJB1BQ", "current_trial": 188, "dateTime": 1512680394497, "trialdata": {"rt": -1, "stimulus": "<p id=\"stim\">8</p>", "key_press": -1, "trial_type": "single-stim", "trial_index": 188, "time_elapsed": 938102, "internal_node_id": "0.0-141.0-2.0"}}, {"uniqueid": "MTK0739:3WQ3B2KGE9N57G943X0TUHZYYJB1BQ", "current_trial": 189, "dateTime": 1512680395499, "trialdata": {"rt": -1, "stimulus": "<p id=\"stim\">7</p>", "key_press": -1, "trial_type": "single-stim", "trial_index": 189, "time_elapsed": 939106, "internal_node_id": "0.0-141.0-3.0"}}, {"uniqueid": "MTK0739:3WQ3B2KGE9N57G943X0TUHZYYJB1BQ", "current_trial": 190, "dateTime": 1512680396501, "trialdata": {"rt": -1, "stimulus": "<p id=\"stim\">6</p>", "key_press": -1, "trial_type": "single-stim", "trial_index": 190, "time_elapsed": 940107, "internal_node_id": "0.0-141.0-4.0"}}, {"uniqueid": "MTK0739:3WQ3B2KGE9N57G943X0TUHZYYJB1BQ", "current_trial": 191, "dateTime": 1512680397503, "trialdata": {"rt": -1, "stimulus": "<p id=\"stim\">5</p>", "key_press": -1, "trial_type": "single-stim", "trial_index": 191, "time_elapsed": 941110, "internal_node_id": "0.0-141.0-5.0"}}, {"uniqueid": "MTK0739:3WQ3B2KGE9N57G943X0TUHZYYJB1BQ", "current_trial": 192, "dateTime": 1512680398505, "trialdata": {"rt": -1, "stimulus": "<p id=\"stim\">4</p>", "key_press": -1, "trial_type": "single-stim", "trial_index": 192, "time_elapsed": 942112, "internal_node_id": "0.0-141.0-6.0"}}, {"uniqueid": "MTK0739:3WQ3B2KGE9N57G943X0TUHZYYJB1BQ", "current_trial": 193, "dateTime": 1512680399507, "trialdata": {"rt": -1, "stimulus": "<p id=\"stim\">3</p>", "key_press": -1, "trial_type": "single-stim", "trial_index": 193, "time_elapsed": 943114, "internal_node_id": "0.0-141.0-7.0"}}, {"uniqueid": "MTK0739:3WQ3B2KGE9N57G943X0TUHZYYJB1BQ", "current_trial": 194, "dateTime": 1512680400509, "trialdata": {"rt": -1, "stimulus": "<p id=\"stim\">2</p>", "key_press": -1, "trial_type": "single-stim", "trial_index": 194, "time_elapsed": 944116, "internal_node_id": "0.0-141.0-8.0"}}, {"uniqueid": "MTK0739:3WQ3B2KGE9N57G943X0TUHZYYJB1BQ", "current_trial": 195, "dateTime": 1512680401511, "trialdata": {"rt": -1, "stimulus": "<p id=\"stim\">1</p>", "key_press": -1, "trial_type": "single-stim", "trial_index": 195, "time_elapsed": 945118, "internal_node_id": "0.0-141.0-9.0"}}, {"uniqueid": "MTK0739:3WQ3B2KGE9N57G943X0TUHZYYJB1BQ", "current_trial": 196, "dateTime": 1512680403014, "trialdata": {"rt": -1, "stimulus": "<p id=\"stim\">+</p>", "key_press": -1, "type": "FIXATION", "trial_type": "single-stim", "trial_index": 196, "time_elapsed": 946621, "internal_node_id": "0.0-142.0-0.0"}}, {"uniqueid": "MTK0739:3WQ3B2KGE9N57G943X0TUHZYYJB1BQ", "current_trial": 197, "dateTime": 1512680404616, "trialdata": {"rt": -1, "stimulus": "<p id=\"stim\">REPORT</p>", "key_press": -1, "type": "PRES_VIS", "word": "report", "wordID": 1183, "conditions": [12, 1600, "v", 24000], "trial": 5, "serialpos": 0, "trial_type": "single-stim", "trial_index": 197, "time_elapsed": 948222, "internal_node_id": "0.0-143.0"}}, {"uniqueid": "MTK0739:3WQ3B2KGE9N57G943X0TUHZYYJB1BQ", "current_trial": 198, "dateTime": 1512680407350, "trialdata": {"rt": -1, "stimulus": "<p id=\"stim\">BEAST</p>", "key_press": -1, "type": "PRES_VIS", "word": "beast", "wordID": 107, "conditions": [12, 1600, "v", 24000], "trial": 5, "serialpos": 1, "trial_type": "single-stim", "trial_index": 198, "time_elapsed": 950957, "internal_node_id": "0.0-144.0"}}, {"uniqueid": "MTK0739:3WQ3B2KGE9N57G943X0TUHZYYJB1BQ", "current_trial": 199, "dateTime": 1512680410126, "trialdata": {"rt": -1, "stimulus": "<p id=\"stim\">SPOON</p>", "key_press": -1, "type": "PRES_VIS", "word": "spoon", "wordID": 1356, "conditions": [12, 1600, "v", 24000], "trial": 5, "serialpos": 2, "trial_type": "single-stim", "trial_index": 199, "time_elapsed": 953733, "internal_node_id": "0.0-145.0"}}, {"uniqueid": "MTK0739:3WQ3B2KGE9N57G943X0TUHZYYJB1BQ", "current_trial": 200, "dateTime": 1512680412606, "trialdata": {"rt": -1, "stimulus": "<p id=\"stim\">SKILLET</p>", "key_press": -1, "type": "PRES_VIS", "word": "skillet", "wordID": 1316, "conditions": [12, 1600, "v", 24000], "trial": 5, "serialpos": 3, "trial_type": "single-stim", "trial_index": 200, "time_elapsed": 956213, "internal_node_id": "0.0-146.0"}}, {"uniqueid": "MTK0739:3WQ3B2KGE9N57G943X0TUHZYYJB1BQ", "current_trial": 201, "dateTime": 1512680415341, "trialdata": {"rt": -1, "stimulus": "<p id=\"stim\">BELLY</p>", "key_press": -1, "type": "PRES_VIS", "word": "belly", "wordID": 118, "conditions": [12, 1600, "v", 24000], "trial": 5, "serialpos": 4, "trial_type": "single-stim", "trial_index": 201, "time_elapsed": 958948, "internal_node_id": "0.0-147.0"}}, {"uniqueid": "MTK0739:3WQ3B2KGE9N57G943X0TUHZYYJB1BQ", "current_trial": 202, "dateTime": 1512680418005, "trialdata": {"rt": -1, "stimulus": "<p id=\"stim\">GALLON</p>", "key_press": -1, "type": "PRES_VIS", "word": "gallon", "wordID": 617, "conditions": [12, 1600, "v", 24000], "trial": 5, "serialpos": 5, "trial_type": "single-stim", "trial_index": 202, "time_elapsed": 961612, "internal_node_id": "0.0-148.0"}}, {"uniqueid": "MTK0739:3WQ3B2KGE9N57G943X0TUHZYYJB1BQ", "current_trial": 203, "dateTime": 1512680420784, "trialdata": {"rt": -1, "stimulus": "<p id=\"stim\">DIME</p>", "key_press": -1, "type": "PRES_VIS", "word": "dime", "wordID": 465, "conditions": [12, 1600, "v", 24000], "trial": 5, "serialpos": 6, "trial_type": "single-stim", "trial_index": 203, "time_elapsed": 964391, "internal_node_id": "0.0-149.0"}}, {"uniqueid": "MTK0739:3WQ3B2KGE9N57G943X0TUHZYYJB1BQ", "current_trial": 204, "dateTime": 1512680423430, "trialdata": {"rt": -1, "stimulus": "<p id=\"stim\">ULCER</p>", "key_press": -1, "type": "PRES_VIS", "word": "ulcer", "wordID": 1532, "conditions": [12, 1600, "v", 24000], "trial": 5, "serialpos": 7, "trial_type": "single-stim", "trial_index": 204, "time_elapsed": 967036, "internal_node_id": "0.0-150.0"}}, {"uniqueid": "MTK0739:3WQ3B2KGE9N57G943X0TUHZYYJB1BQ", "current_trial": 205, "dateTime": 1512680425950, "trialdata": {"rt": -1, "stimulus": "<p id=\"stim\">SPARROW</p>", "key_press": -1, "type": "PRES_VIS", "word": "sparrow", "wordID": 1346, "conditions": [12, 1600, "v", 24000], "trial": 5, "serialpos": 8, "trial_type": "single-stim", "trial_index": 205, "time_elapsed": 969557, "internal_node_id": "0.0-151.0"}}, {"uniqueid": "MTK0739:3WQ3B2KGE9N57G943X0TUHZYYJB1BQ", "current_trial": 206, "dateTime": 1512680428408, "trialdata": {"rt": -1, "stimulus": "<p id=\"stim\">SURVEY</p>", "key_press": -1, "type": "PRES_VIS", "word": "survey", "wordID": 1413, "conditions": [12, 1600, "v", 24000], "trial": 5, "serialpos": 9, "trial_type": "single-stim", "trial_index": 206, "time_elapsed": 972015, "internal_node_id": "0.0-152.0"}}, {"uniqueid": "MTK0739:3WQ3B2KGE9N57G943X0TUHZYYJB1BQ", "current_trial": 207, "dateTime": 1512680431092, "trialdata": {"rt": -1, "stimulus": "<p id=\"stim\">VIRUS</p>", "key_press": -1, "type": "PRES_VIS", "word": "virus", "wordID": 1571, "conditions": [12, 1600, "v", 24000], "trial": 5, "serialpos": 10, "trial_type": "single-stim", "trial_index": 207, "time_elapsed": 974699, "internal_node_id": "0.0-153.0"}}, {"uniqueid": "MTK0739:3WQ3B2KGE9N57G943X0TUHZYYJB1BQ", "current_trial": 208, "dateTime": 1512680433871, "trialdata": {"rt": -1, "stimulus": "<p id=\"stim\">GAZELLE</p>", "key_press": -1, "type": "PRES_VIS", "word": "gazelle", "wordID": 627, "conditions": [12, 1600, "v", 24000], "trial": 5, "serialpos": 11, "trial_type": "single-stim", "trial_index": 208, "time_elapsed": 977478, "internal_node_id": "0.0-154.0"}}, {"uniqueid": "MTK0739:3WQ3B2KGE9N57G943X0TUHZYYJB1BQ", "current_trial": 209, "dateTime": 1512680436159, "trialdata": {"rt": -1, "stimulus": "", "key_press": -1, "type": "PRE_RECALL_DELAY", "trial_type": "single-stim", "trial_index": 209, "time_elapsed": 979766, "internal_node_id": "0.0-155.0-0.0"}}, {"uniqueid": "MTK0739:3WQ3B2KGE9N57G943X0TUHZYYJB1BQ", "current_trial": 210, "dateTime": 1512680436661, "trialdata": {"rt": -1000, "stimulus": "/static/audio/400Hz.wav", "key_press": -1, "type": "PRE_RECALL_ALERT", "trial_type": "single-audio", "trial_index": 210, "time_elapsed": 980267, "internal_node_id": "0.0-156.0"}}, {"uniqueid": "MTK0739:3WQ3B2KGE9N57G943X0TUHZYYJB1BQ", "current_trial": 211, "dateTime": 1512680496676, "trialdata": {"rt": [3174, 4454, 8790, 12158, 16958, 34094], "recwords": ["survey", "virus", "gazell", "report", "beast", "wound"], "type": "FREE_RECALL", "conditions": [12, 1600, "v", 24000], "trial": 5, "trial_type": "free-recall", "trial_index": 211, "time_elapsed": 1040273, "internal_node_id": "0.0-157.0-0.0"}}, {"uniqueid": "MTK0739:3WQ3B2KGE9N57G943X0TUHZYYJB1BQ", "current_trial": 212, "dateTime": 1512680506329, "trialdata": {"rt": 7650, "key_press": 32, "type": "INSTRUCTIONS", "trial_type": "text", "trial_index": 212, "time_elapsed": 1049936, "internal_node_id": "0.0-158.0"}}, {"uniqueid": "MTK0739:3WQ3B2KGE9N57G943X0TUHZYYJB1BQ", "current_trial": 213, "dateTime": 1512680532336, "trialdata": {"rt": [4296, 6808, 10512, 12688, 16456, 19891, 22544], "responses": ["18", "21", "20", "22", "8", "20", "8"], "num1": [4, 6, 5, 8, 3, 9, 1, 7], "num2": [4, 6, 9, 5, 1, 3, 2, 4], "num3": [6, 9, 6, 9, 4, 8, 5, 4], "type": "DISTRACTOR", "conditions": [12, 800, "a", 24000], "trial": 6, "trial_type": "math-distractor", "trial_index": 213, "time_elapsed": 1075943, "internal_node_id": "0.0-159.0"}}, {"uniqueid": "MTK0739:3WQ3B2KGE9N57G943X0TUHZYYJB1BQ", "current_trial": 214, "dateTime": 1512680535338, "trialdata": {"rt": -1, "stimulus": "<p id=\"stim\">10</p>", "key_press": -1, "trial_type": "single-stim", "trial_index": 214, "time_elapsed": 1078944, "internal_node_id": "0.0-160.0-0.0"}}, {"uniqueid": "MTK0739:3WQ3B2KGE9N57G943X0TUHZYYJB1BQ", "current_trial": 215, "dateTime": 1512680536338, "trialdata": {"rt": -1, "stimulus": "<p id=\"stim\">9</p>", "key_press": -1, "trial_type": "single-stim", "trial_index": 215, "time_elapsed": 1079945, "internal_node_id": "0.0-160.0-1.0"}}, {"uniqueid": "MTK0739:3WQ3B2KGE9N57G943X0TUHZYYJB1BQ", "current_trial": 216, "dateTime": 1512680537340, "trialdata": {"rt": -1, "stimulus": "<p id=\"stim\">8</p>", "key_press": -1, "trial_type": "single-stim", "trial_index": 216, "time_elapsed": 1080947, "internal_node_id": "0.0-160.0-2.0"}}, {"uniqueid": "MTK0739:3WQ3B2KGE9N57G943X0TUHZYYJB1BQ", "current_trial": 217, "dateTime": 1512680538342, "trialdata": {"rt": -1, "stimulus": "<p id=\"stim\">7</p>", "key_press": -1, "trial_type": "single-stim", "trial_index": 217, "time_elapsed": 1081949, "internal_node_id": "0.0-160.0-3.0"}}, {"uniqueid": "MTK0739:3WQ3B2KGE9N57G943X0TUHZYYJB1BQ", "current_trial": 218, "dateTime": 1512680539343, "trialdata": {"rt": -1, "stimulus": "<p id=\"stim\">6</p>", "key_press": -1, "trial_type": "single-stim", "trial_index": 218, "time_elapsed": 1082950, "internal_node_id": "0.0-160.0-4.0"}}, {"uniqueid": "MTK0739:3WQ3B2KGE9N57G943X0TUHZYYJB1BQ", "current_trial": 219, "dateTime": 1512680540345, "trialdata": {"rt": -1, "stimulus": "<p id=\"stim\">5</p>", "key_press": -1, "trial_type": "single-stim", "trial_index": 219, "time_elapsed": 1083951, "internal_node_id": "0.0-160.0-5.0"}}, {"uniqueid": "MTK0739:3WQ3B2KGE9N57G943X0TUHZYYJB1BQ", "current_trial": 220, "dateTime": 1512680541346, "trialdata": {"rt": -1, "stimulus": "<p id=\"stim\">4</p>", "key_press": -1, "trial_type": "single-stim", "trial_index": 220, "time_elapsed": 1084953, "internal_node_id": "0.0-160.0-6.0"}}, {"uniqueid": "MTK0739:3WQ3B2KGE9N57G943X0TUHZYYJB1BQ", "current_trial": 221, "dateTime": 1512680542347, "trialdata": {"rt": -1, "stimulus": "<p id=\"stim\">3</p>", "key_press": -1, "trial_type": "single-stim", "trial_index": 221, "time_elapsed": 1085953, "internal_node_id": "0.0-160.0-7.0"}}, {"uniqueid": "MTK0739:3WQ3B2KGE9N57G943X0TUHZYYJB1BQ", "current_trial": 222, "dateTime": 1512680543348, "trialdata": {"rt": -1, "stimulus": "<p id=\"stim\">2</p>", "key_press": -1, "trial_type": "single-stim", "trial_index": 222, "time_elapsed": 1086954, "internal_node_id": "0.0-160.0-8.0"}}, {"uniqueid": "MTK0739:3WQ3B2KGE9N57G943X0TUHZYYJB1BQ", "current_trial": 223, "dateTime": 1512680544349, "trialdata": {"rt": -1, "stimulus": "<p id=\"stim\">1</p>", "key_press": -1, "trial_type": "single-stim", "trial_index": 223, "time_elapsed": 1087956, "internal_node_id": "0.0-160.0-9.0"}}, {"uniqueid": "MTK0739:3WQ3B2KGE9N57G943X0TUHZYYJB1BQ", "current_trial": 224, "dateTime": 1512680545852, "trialdata": {"rt": -1, "stimulus": "<p id=\"stim\">+</p>", "key_press": -1, "type": "FIXATION", "trial_type": "single-stim", "trial_index": 224, "time_elapsed": 1089459, "internal_node_id": "0.0-161.0-0.0"}}, {"uniqueid": "MTK0739:3WQ3B2KGE9N57G943X0TUHZYYJB1BQ", "current_trial": 225, "dateTime": 1512680547650, "trialdata": {"rt": -1000, "stimulus": "/static/audio/wordpool/LIZARD.wav", "key_press": -1, "type": "PRES_AUD", "word": "lizard", "wordID": 833, "conditions": [12, 800, "a", 24000], "trial": 6, "serialpos": 0, "trial_type": "single-audio", "trial_index": 225, "time_elapsed": 1091257, "internal_node_id": "0.0-162.0"}}, {"uniqueid": "MTK0739:3WQ3B2KGE9N57G943X0TUHZYYJB1BQ", "current_trial": 226, "dateTime": 1512680549348, "trialdata": {"rt": -1000, "stimulus": "/static/audio/wordpool/PALACE.wav", "key_press": -1, "type": "PRES_AUD", "word": "palace", "wordID": 1005, "conditions": [12, 800, "a", 24000], "trial": 6, "serialpos": 1, "trial_type": "single-audio", "trial_index": 226, "time_elapsed": 1092955, "internal_node_id": "0.0-163.0"}}, {"uniqueid": "MTK0739:3WQ3B2KGE9N57G943X0TUHZYYJB1BQ", "current_trial": 227, "dateTime": 1512680550962, "trialdata": {"rt": -1000, "stimulus": "/static/audio/wordpool/CARROT.wav", "key_press": -1, "type": "PRES_AUD", "word": "carrot", "wordID": 248, "conditions": [12, 800, "a", 24000], "trial": 6, "serialpos": 2, "trial_type": "single-audio", "trial_index": 227, "time_elapsed": 1094568, "internal_node_id": "0.0-164.0"}}, {"uniqueid": "MTK0739:3WQ3B2KGE9N57G943X0TUHZYYJB1BQ", "current_trial": 228, "dateTime": 1512680552878, "trialdata": {"rt": -1000, "stimulus": "/static/audio/wordpool/PACKAGE.wav", "key_press": -1, "type": "PRES_AUD", "word": "package", "wordID": 996, "conditions": [12, 800, "a", 24000], "trial": 6, "serialpos": 3, "trial_type": "single-audio", "trial_index": 228, "time_elapsed": 1096485, "internal_node_id": "0.0-165.0"}}, {"uniqueid": "MTK0739:3WQ3B2KGE9N57G943X0TUHZYYJB1BQ", "current_trial": 229, "dateTime": 1512680554732, "trialdata": {"rt": -1000, "stimulus": "/static/audio/wordpool/CRUTCH.wav", "key_press": -1, "type": "PRES_AUD", "word": "crutch", "wordID": 416, "conditions": [12, 800, "a", 24000], "trial": 6, "serialpos": 4, "trial_type": "single-audio", "trial_index": 229, "time_elapsed": 1098338, "internal_node_id": "0.0-166.0"}}, {"uniqueid": "MTK0739:3WQ3B2KGE9N57G943X0TUHZYYJB1BQ", "current_trial": 230, "dateTime": 1512680556624, "trialdata": {"rt": -1000, "stimulus": "/static/audio/wordpool/COBRA.wav", "key_press": -1, "type": "PRES_AUD", "word": "cobra", "wordID": 335, "conditions": [12, 800, "a", 24000], "trial": 6, "serialpos": 5, "trial_type": "single-audio", "trial_index": 230, "time_elapsed": 1100231, "internal_node_id": "0.0-167.0"}}, {"uniqueid": "MTK0739:3WQ3B2KGE9N57G943X0TUHZYYJB1BQ", "current_trial": 231, "dateTime": 1512680558592, "trialdata": {"rt": -1000, "stimulus": "/static/audio/wordpool/PEANUT.wav", "key_press": -1, "type": "PRES_AUD", "word": "peanut", "wordID": 1031, "conditions": [12, 800, "a", 24000], "trial": 6, "serialpos": 6, "trial_type": "single-audio", "trial_index": 231, "time_elapsed": 1102198, "internal_node_id": "0.0-168.0"}}, {"uniqueid": "MTK0739:3WQ3B2KGE9N57G943X0TUHZYYJB1BQ", "current_trial": 232, "dateTime": 1512680560442, "trialdata": {"rt": -1000, "stimulus": "/static/audio/wordpool/BRACES.wav", "key_press": -1, "type": "PRES_AUD", "word": "braces", "wordID": 163, "conditions": [12, 800, "a", 24000], "trial": 6, "serialpos": 7, "trial_type": "single-audio", "trial_index": 232, "time_elapsed": 1104048, "internal_node_id": "0.0-169.0"}}, {"uniqueid": "MTK0739:3WQ3B2KGE9N57G943X0TUHZYYJB1BQ", "current_trial": 233, "dateTime": 1512680562271, "trialdata": {"rt": -1000, "stimulus": "/static/audio/wordpool/TUNNEL.wav", "key_press": -1, "type": "PRES_AUD", "word": "tunnel", "wordID": 1518, "conditions": [12, 800, "a", 24000], "trial": 6, "serialpos": 8, "trial_type": "single-audio", "trial_index": 233, "time_elapsed": 1105877, "internal_node_id": "0.0-170.0"}}, {"uniqueid": "MTK0739:3WQ3B2KGE9N57G943X0TUHZYYJB1BQ", "current_trial": 234, "dateTime": 1512680564034, "trialdata": {"rt": -1000, "stimulus": "/static/audio/wordpool/LUNCH.wav", "key_press": -1, "type": "PRES_AUD", "word": "lunch", "wordID": 848, "conditions": [12, 800, "a", 24000], "trial": 6, "serialpos": 9, "trial_type": "single-audio", "trial_index": 234, "time_elapsed": 1107641, "internal_node_id": "0.0-171.0"}}, {"uniqueid": "MTK0739:3WQ3B2KGE9N57G943X0TUHZYYJB1BQ", "current_trial": 235, "dateTime": 1512680565752, "trialdata": {"rt": -1000, "stimulus": "/static/audio/wordpool/SNACK.wav", "key_press": -1, "type": "PRES_AUD", "word": "snack", "wordID": 1330, "conditions": [12, 800, "a", 24000], "trial": 6, "serialpos": 10, "trial_type": "single-audio", "trial_index": 235, "time_elapsed": 1109359, "internal_node_id": "0.0-172.0"}}, {"uniqueid": "MTK0739:3WQ3B2KGE9N57G943X0TUHZYYJB1BQ", "current_trial": 236, "dateTime": 1512680567420, "trialdata": {"rt": -1000, "stimulus": "/static/audio/wordpool/PILOT.wav", "key_press": -1, "type": "PRES_AUD", "word": "pilot", "wordID": 1069, "conditions": [12, 800, "a", 24000], "trial": 6, "serialpos": 11, "trial_type": "single-audio", "trial_index": 236, "time_elapsed": 1111027, "internal_node_id": "0.0-173.0"}}, {"uniqueid": "MTK0739:3WQ3B2KGE9N57G943X0TUHZYYJB1BQ", "current_trial": 237, "dateTime": 1512680568814, "trialdata": {"rt": -1, "stimulus": "", "key_press": -1, "type": "PRE_RECALL_DELAY", "trial_type": "single-stim", "trial_index": 237, "time_elapsed": 1112421, "internal_node_id": "0.0-174.0-0.0"}}, {"uniqueid": "MTK0739:3WQ3B2KGE9N57G943X0TUHZYYJB1BQ", "current_trial": 238, "dateTime": 1512680569316, "trialdata": {"rt": -1000, "stimulus": "/static/audio/400Hz.wav", "key_press": -1, "type": "PRE_RECALL_ALERT", "trial_type": "single-audio", "trial_index": 238, "time_elapsed": 1112923, "internal_node_id": "0.0-175.0"}}, {"uniqueid": "MTK0739:3WQ3B2KGE9N57G943X0TUHZYYJB1BQ", "current_trial": 239, "dateTime": 1512680629332, "trialdata": {"rt": [3551, 5511, 7207, 11159, 15239, 19207], "recwords": ["peanut", "braces", "pilot", "lizard", "peanut", "listen"], "type": "FREE_RECALL", "conditions": [12, 800, "a", 24000], "trial": 6, "trial_type": "free-recall", "trial_index": 239, "time_elapsed": 1172929, "internal_node_id": "0.0-176.0-0.0"}}, {"uniqueid": "MTK0739:3WQ3B2KGE9N57G943X0TUHZYYJB1BQ", "current_trial": 240, "dateTime": 1512680635615, "trialdata": {"rt": 4281, "key_press": 32, "type": "INSTRUCTIONS", "trial_type": "text", "trial_index": 240, "time_elapsed": 1179222, "internal_node_id": "0.0-177.0"}}, {"uniqueid": "MTK0739:3WQ3B2KGE9N57G943X0TUHZYYJB1BQ", "current_trial": 241, "dateTime": 1512680661622, "trialdata": {"rt": [2251, 4333, 6195, 8654, 10291, 12563, 15011, 17515, 20339, 23291], "responses": ["16", "11", "19", "10", "15", "13", "13", "17", "17", "22"], "num1": [1, 4, 2, 3, 7, 2, 4, 5, 2, 8, 5], "num2": [8, 1, 8, 3, 2, 9, 3, 3, 7, 9, 7], "num3": [7, 6, 9, 4, 6, 2, 6, 9, 8, 5, 7], "type": "DISTRACTOR", "conditions": [24, 1600, "a", 24000], "trial": 7, "trial_type": "math-distractor", "trial_index": 241, "time_elapsed": 1205229, "internal_node_id": "0.0-178.0"}}, {"uniqueid": "MTK0739:3WQ3B2KGE9N57G943X0TUHZYYJB1BQ", "current_trial": 242, "dateTime": 1512680664626, "trialdata": {"rt": -1, "stimulus": "<p id=\"stim\">10</p>", "key_press": -1, "trial_type": "single-stim", "trial_index": 242, "time_elapsed": 1208233, "internal_node_id": "0.0-179.0-0.0"}}, {"uniqueid": "MTK0739:3WQ3B2KGE9N57G943X0TUHZYYJB1BQ", "current_trial": 243, "dateTime": 1512680665627, "trialdata": {"rt": -1, "stimulus": "<p id=\"stim\">9</p>", "key_press": -1, "trial_type": "single-stim", "trial_index": 243, "time_elapsed": 1209233, "internal_node_id": "0.0-179.0-1.0"}}, {"uniqueid": "MTK0739:3WQ3B2KGE9N57G943X0TUHZYYJB1BQ", "current_trial": 244, "dateTime": 1512680666628, "trialdata": {"rt": -1, "stimulus": "<p id=\"stim\">8</p>", "key_press": -1, "trial_type": "single-stim", "trial_index": 244, "time_elapsed": 1210235, "internal_node_id": "0.0-179.0-2.0"}}, {"uniqueid": "MTK0739:3WQ3B2KGE9N57G943X0TUHZYYJB1BQ", "current_trial": 245, "dateTime": 1512680667630, "trialdata": {"rt": -1, "stimulus": "<p id=\"stim\">7</p>", "key_press": -1, "trial_type": "single-stim", "trial_index": 245, "time_elapsed": 1211237, "internal_node_id": "0.0-179.0-3.0"}}, {"uniqueid": "MTK0739:3WQ3B2KGE9N57G943X0TUHZYYJB1BQ", "current_trial": 246, "dateTime": 1512680668632, "trialdata": {"rt": -1, "stimulus": "<p id=\"stim\">6</p>", "key_press": -1, "trial_type": "single-stim", "trial_index": 246, "time_elapsed": 1212238, "internal_node_id": "0.0-179.0-4.0"}}, {"uniqueid": "MTK0739:3WQ3B2KGE9N57G943X0TUHZYYJB1BQ", "current_trial": 247, "dateTime": 1512680669633, "trialdata": {"rt": -1, "stimulus": "<p id=\"stim\">5</p>", "key_press": -1, "trial_type": "single-stim", "trial_index": 247, "time_elapsed": 1213239, "internal_node_id": "0.0-179.0-5.0"}}, {"uniqueid": "MTK0739:3WQ3B2KGE9N57G943X0TUHZYYJB1BQ", "current_trial": 248, "dateTime": 1512680670635, "trialdata": {"rt": -1, "stimulus": "<p id=\"stim\">4</p>", "key_press": -1, "trial_type": "single-stim", "trial_index": 248, "time_elapsed": 1214241, "internal_node_id": "0.0-179.0-6.0"}}, {"uniqueid": "MTK0739:3WQ3B2KGE9N57G943X0TUHZYYJB1BQ", "current_trial": 249, "dateTime": 1512680671637, "trialdata": {"rt": -1, "stimulus": "<p id=\"stim\">3</p>", "key_press": -1, "trial_type": "single-stim", "trial_index": 249, "time_elapsed": 1215243, "internal_node_id": "0.0-179.0-7.0"}}, {"uniqueid": "MTK0739:3WQ3B2KGE9N57G943X0TUHZYYJB1BQ", "current_trial": 250, "dateTime": 1512680672638, "trialdata": {"rt": -1, "stimulus": "<p id=\"stim\">2</p>", "key_press": -1, "trial_type": "single-stim", "trial_index": 250, "time_elapsed": 1216245, "internal_node_id": "0.0-179.0-8.0"}}, {"uniqueid": "MTK0739:3WQ3B2KGE9N57G943X0TUHZYYJB1BQ", "current_trial": 251, "dateTime": 1512680673639, "trialdata": {"rt": -1, "stimulus": "<p id=\"stim\">1</p>", "key_press": -1, "trial_type": "single-stim", "trial_index": 251, "time_elapsed": 1217246, "internal_node_id": "0.0-179.0-9.0"}}, {"uniqueid": "MTK0739:3WQ3B2KGE9N57G943X0TUHZYYJB1BQ", "current_trial": 252, "dateTime": 1512680675140, "trialdata": {"rt": -1, "stimulus": "<p id=\"stim\">+</p>", "key_press": -1, "type": "FIXATION", "trial_type": "single-stim", "trial_index": 252, "time_elapsed": 1218747, "internal_node_id": "0.0-180.0-0.0"}}, {"uniqueid": "MTK0739:3WQ3B2KGE9N57G943X0TUHZYYJB1BQ", "current_trial": 253, "dateTime": 1512680677737, "trialdata": {"rt": -1000, "stimulus": "/static/audio/wordpool/COUNTRY.wav", "key_press": -1, "type": "PRES_AUD", "word": "country", "wordID": 387, "conditions": [24, 1600, "a", 24000], "trial": 7, "serialpos": 0, "trial_type": "single-audio", "trial_index": 253, "time_elapsed": 1221343, "internal_node_id": "0.0-181.0"}}, {"uniqueid": "MTK0739:3WQ3B2KGE9N57G943X0TUHZYYJB1BQ", "current_trial": 254, "dateTime": 1512680680435, "trialdata": {"rt": -1000, "stimulus": "/static/audio/wordpool/PERCH.wav", "key_press": -1, "type": "PRES_AUD", "word": "perch", "wordID": 1047, "conditions": [24, 1600, "a", 24000], "trial": 7, "serialpos": 1, "trial_type": "single-audio", "trial_index": 254, "time_elapsed": 1224041, "internal_node_id": "0.0-182.0"}}, {"uniqueid": "MTK0739:3WQ3B2KGE9N57G943X0TUHZYYJB1BQ", "current_trial": 255, "dateTime": 1512680683109, "trialdata": {"rt": -1000, "stimulus": "/static/audio/wordpool/SCARF.wav", "key_press": -1, "type": "PRES_AUD", "word": "scarf", "wordID": 1245, "conditions": [24, 1600, "a", 24000], "trial": 7, "serialpos": 2, "trial_type": "single-audio", "trial_index": 255, "time_elapsed": 1226715, "internal_node_id": "0.0-183.0"}}, {"uniqueid": "MTK0739:3WQ3B2KGE9N57G943X0TUHZYYJB1BQ", "current_trial": 256, "dateTime": 1512680685824, "trialdata": {"rt": -1000, "stimulus": "/static/audio/wordpool/FLASK.wav", "key_press": -1, "type": "PRES_AUD", "word": "flask", "wordID": 575, "conditions": [24, 1600, "a", 24000], "trial": 7, "serialpos": 3, "trial_type": "single-audio", "trial_index": 256, "time_elapsed": 1229430, "internal_node_id": "0.0-184.0"}}, {"uniqueid": "MTK0739:3WQ3B2KGE9N57G943X0TUHZYYJB1BQ", "current_trial": 257, "dateTime": 1512680688469, "trialdata": {"rt": -1000, "stimulus": "/static/audio/wordpool/BASEMENT.wav", "key_press": -1, "type": "PRES_AUD", "word": "basement", "wordID": 93, "conditions": [24, 1600, "a", 24000], "trial": 7, "serialpos": 4, "trial_type": "single-audio", "trial_index": 257, "time_elapsed": 1232076, "internal_node_id": "0.0-185.0"}}, {"uniqueid": "MTK0739:3WQ3B2KGE9N57G943X0TUHZYYJB1BQ", "current_trial": 258, "dateTime": 1512680691037, "trialdata": {"rt": -1000, "stimulus": "/static/audio/wordpool/WORLD.wav", "key_press": -1, "type": "PRES_AUD", "word": "world", "wordID": 1621, "conditions": [24, 1600, "a", 24000], "trial": 7, "serialpos": 5, "trial_type": "single-audio", "trial_index": 258, "time_elapsed": 1234644, "internal_node_id": "0.0-186.0"}}, {"uniqueid": "MTK0739:3WQ3B2KGE9N57G943X0TUHZYYJB1BQ", "current_trial": 259, "dateTime": 1512680693768, "trialdata": {"rt": -1000, "stimulus": "/static/audio/wordpool/CHAMPAGNE.wav", "key_press": -1, "type": "PRES_AUD", "word": "champagne", "wordID": 277, "conditions": [24, 1600, "a", 24000], "trial": 7, "serialpos": 6, "trial_type": "single-audio", "trial_index": 259, "time_elapsed": 1237375, "internal_node_id": "0.0-187.0"}}, {"uniqueid": "MTK0739:3WQ3B2KGE9N57G943X0TUHZYYJB1BQ", "current_trial": 260, "dateTime": 1512680696404, "trialdata": {"rt": -1000, "stimulus": "/static/audio/wordpool/GYMNAST.wav", "key_press": -1, "type": "PRES_AUD", "word": "gymnast", "wordID": 674, "conditions": [24, 1600, "a", 24000], "trial": 7, "serialpos": 7, "trial_type": "single-audio", "trial_index": 260, "time_elapsed": 1240011, "internal_node_id": "0.0-188.0"}}, {"uniqueid": "MTK0739:3WQ3B2KGE9N57G943X0TUHZYYJB1BQ", "current_trial": 261, "dateTime": 1512680699075, "trialdata": {"rt": -1000, "stimulus": "/static/audio/wordpool/DANCER.wav", "key_press": -1, "type": "PRES_AUD", "word": "dancer", "wordID": 436, "conditions": [24, 1600, "a", 24000], "trial": 7, "serialpos": 8, "trial_type": "single-audio", "trial_index": 261, "time_elapsed": 1242682, "internal_node_id": "0.0-189.0"}}, {"uniqueid": "MTK0739:3WQ3B2KGE9N57G943X0TUHZYYJB1BQ", "current_trial": 262, "dateTime": 1512680701610, "trialdata": {"rt": -1000, "stimulus": "/static/audio/wordpool/HIGHWAY.wav", "key_press": -1, "type": "PRES_AUD", "word": "highway", "wordID": 706, "conditions": [24, 1600, "a", 24000], "trial": 7, "serialpos": 9, "trial_type": "single-audio", "trial_index": 262, "time_elapsed": 1245216, "internal_node_id": "0.0-190.0"}}, {"uniqueid": "MTK0739:3WQ3B2KGE9N57G943X0TUHZYYJB1BQ", "current_trial": 263, "dateTime": 1512680704017, "trialdata": {"rt": -1000, "stimulus": "/static/audio/wordpool/PADDING.wav", "key_press": -1, "type": "PRES_AUD", "word": "padding", "wordID": 998, "conditions": [24, 1600, "a", 24000], "trial": 7, "serialpos": 10, "trial_type": "single-audio", "trial_index": 263, "time_elapsed": 1247623, "internal_node_id": "0.0-191.0"}}, {"uniqueid": "MTK0739:3WQ3B2KGE9N57G943X0TUHZYYJB1BQ", "current_trial": 264, "dateTime": 1512680706641, "trialdata": {"rt": -1000, "stimulus": "/static/audio/wordpool/CUPBOARD.wav", "key_press": -1, "type": "PRES_AUD", "word": "cupboard", "wordID": 424, "conditions": [24, 1600, "a", 24000], "trial": 7, "serialpos": 11, "trial_type": "single-audio", "trial_index": 264, "time_elapsed": 1250248, "internal_node_id": "0.0-192.0"}}, {"uniqueid": "MTK0739:3WQ3B2KGE9N57G943X0TUHZYYJB1BQ", "current_trial": 265, "dateTime": 1512680709054, "trialdata": {"rt": -1000, "stimulus": "/static/audio/wordpool/MARROW.wav", "key_press": -1, "type": "PRES_AUD", "word": "marrow", "wordID": 871, "conditions": [24, 1600, "a", 24000], "trial": 7, "serialpos": 12, "trial_type": "single-audio", "trial_index": 265, "time_elapsed": 1252660, "internal_node_id": "0.0-193.0"}}, {"uniqueid": "MTK0739:3WQ3B2KGE9N57G943X0TUHZYYJB1BQ", "current_trial": 266, "dateTime": 1512680711543, "trialdata": {"rt": -1000, "stimulus": "/static/audio/wordpool/COD.wav", "key_press": -1, "type": "PRES_AUD", "word": "cod", "wordID": 339, "conditions": [24, 1600, "a", 24000], "trial": 7, "serialpos": 13, "trial_type": "single-audio", "trial_index": 266, "time_elapsed": 1255150, "internal_node_id": "0.0-194.0"}}, {"uniqueid": "MTK0739:3WQ3B2KGE9N57G943X0TUHZYYJB1BQ", "current_trial": 267, "dateTime": 1512680714082, "trialdata": {"rt": -1000, "stimulus": "/static/audio/wordpool/SALMON.wav", "key_press": -1, "type": "PRES_AUD", "word": "salmon", "wordID": 1226, "conditions": [24, 1600, "a", 24000], "trial": 7, "serialpos": 14, "trial_type": "single-audio", "trial_index": 267, "time_elapsed": 1257689, "internal_node_id": "0.0-195.0"}}, {"uniqueid": "MTK0739:3WQ3B2KGE9N57G943X0TUHZYYJB1BQ", "current_trial": 268, "dateTime": 1512680716540, "trialdata": {"rt": -1000, "stimulus": "/static/audio/wordpool/LEOPARD.wav", "key_press": -1, "type": "PRES_AUD", "word": "leopard", "wordID": 811, "conditions": [24, 1600, "a", 24000], "trial": 7, "serialpos": 15, "trial_type": "single-audio", "trial_index": 268, "time_elapsed": 1260147, "internal_node_id": "0.0-196.0"}}, {"uniqueid": "MTK0739:3WQ3B2KGE9N57G943X0TUHZYYJB1BQ", "current_trial": 269, "dateTime": 1512680719143, "trialdata": {"rt": -1000, "stimulus": "/static/audio/wordpool/CHAUFFEUR.wav", "key_press": -1, "type": "PRES_AUD", "word": "chauffeur", "wordID": 282, "conditions": [24, 1600, "a", 24000], "trial": 7, "serialpos": 16, "trial_type": "single-audio", "trial_index": 269, "time_elapsed": 1262750, "internal_node_id": "0.0-197.0"}}, {"uniqueid": "MTK0739:3WQ3B2KGE9N57G943X0TUHZYYJB1BQ", "current_trial": 270, "dateTime": 1512680721754, "trialdata": {"rt": -1000, "stimulus": "/static/audio/wordpool/SUNSET.wav", "key_press