{"condition": 0, "counterbalance": 506, "assignmentId": "3AWETUDC93ZCPK8IHI128YNN21NZIN", "workerId": "MTK0106", "hitId": "3FSEU3P2NR7ET8RG7MWWB3QV3XIRRV", "currenttrial": 623, "bonus": 0, "data": [{"uniqueid": "MTK0106:3AWETUDC93ZCPK8IHI128YNN21NZIN", "current_trial": 0, "dateTime": 1509156637604, "trialdata": {"rt": 14241, "key_press": 32, "type": "INSTRUCTIONS", "trial_type": "text", "trial_index": 0, "time_elapsed": 14243, "internal_node_id": "0.0-0.0"}}, {"uniqueid": "MTK0106:3AWETUDC93ZCPK8IHI128YNN21NZIN", "current_trial": 1, "dateTime": 1509156656703, "trialdata": {"rt": 19098, "key_press": 32, "type": "INSTRUCTIONS", "trial_type": "text", "trial_index": 1, "time_elapsed": 33342, "internal_node_id": "0.0-1.0"}}, {"uniqueid": "MTK0106:3AWETUDC93ZCPK8IHI128YNN21NZIN", "current_trial": 2, "dateTime": 1509156673192, "trialdata": {"rt": [16482], "responses": ["ocean"], "type": "AUDIO_TEST", "trial_type": "audio-test", "trial_index": 2, "time_elapsed": 49830, "internal_node_id": "0.0-2.0"}}, {"uniqueid": "MTK0106:3AWETUDC93ZCPK8IHI128YNN21NZIN", "current_trial": 3, "dateTime": 1509156712409, "trialdata": {"rt": [21679, 39215], "responses": ["kristal", "crystal"], "type": "AUDIO_TEST", "trial_type": "audio-test", "trial_index": 3, "time_elapsed": 89048, "internal_node_id": "0.0-3.0"}}, {"uniqueid": "MTK0106:3AWETUDC93ZCPK8IHI128YNN21NZIN", "current_trial": 4, "dateTime": 1509156716401, "trialdata": {"rt": [3987], "responses": ["spice"], "type": "AUDIO_TEST", "trial_type": "audio-test", "trial_index": 4, "time_elapsed": 93040, "internal_node_id": "0.0-4.0"}}, {"uniqueid": "MTK0106:3AWETUDC93ZCPK8IHI128YNN21NZIN", "current_trial": 5, "dateTime": 1509156719380, "trialdata": {"rt": 2227, "key_press": 32, "type": "INSTRUCTIONS", "trial_type": "text", "trial_index": 5, "time_elapsed": 96019, "internal_node_id": "0.0-5.0"}}, {"uniqueid": "MTK0106:3AWETUDC93ZCPK8IHI128YNN21NZIN", "current_trial": 6, "dateTime": 1509156754398, "trialdata": {"rt": 35018, "key_press": 32, "type": "INSTRUCTIONS", "trial_type": "text", "trial_index": 6, "time_elapsed": 131037, "internal_node_id": "0.0-6.0"}}, {"uniqueid": "MTK0106:3AWETUDC93ZCPK8IHI128YNN21NZIN", "current_trial": 7, "dateTime": 1509156767285, "trialdata": {"rt": 12886, "key_press": 32, "type": "INSTRUCTIONS", "trial_type": "text", "trial_index": 7, "time_elapsed": 143923, "internal_node_id": "0.0-7.0"}}, {"uniqueid": "MTK0106:3AWETUDC93ZCPK8IHI128YNN21NZIN", "current_trial": 8, "dateTime": 1509156771706, "trialdata": {"rt": 4420, "key_press": 32, "type": "INSTRUCTIONS", "trial_type": "text", "trial_index": 8, "time_elapsed": 148344, "internal_node_id": "0.0-8.0"}}, {"uniqueid": "MTK0106:3AWETUDC93ZCPK8IHI128YNN21NZIN", "current_trial": 9, "dateTime": 1509156790707, "trialdata": {"rt": [4447, 7500, 9169, 11066, 12999, 14562, 16113, 17824], "responses": ["21", "12", "10", "9", "14", "20", "8", "18"], "num1": [6, 1, 2, 1, 8, 9, 5, 8, 4], "num2": [6, 8, 1, 3, 4, 2, 1, 5, 9], "num3": [9, 3, 7, 5, 2, 9, 2, 5, 9], "type": "DISTRACTOR", "conditions": [18, 1200, "v", 18000], "trial": 0, "trial_type": "math-distractor", "trial_index": 9, "time_elapsed": 167346, "internal_node_id": "0.0-9.0"}}, {"uniqueid": "MTK0106:3AWETUDC93ZCPK8IHI128YNN21NZIN", "current_trial": 10, "dateTime": 1509156793709, "trialdata": {"rt": -1, "stimulus": "<p id=\"stim\">10</p>", "key_press": -1, "trial_type": "single-stim", "trial_index": 10, "time_elapsed": 170348, "internal_node_id": "0.0-10.0-0.0"}}, {"uniqueid": "MTK0106:3AWETUDC93ZCPK8IHI128YNN21NZIN", "current_trial": 11, "dateTime": 1509156794709, "trialdata": {"rt": -1, "stimulus": "<p id=\"stim\">9</p>", "key_press": -1, "trial_type": "single-stim", "trial_index": 11, "time_elapsed": 171348, "internal_node_id": "0.0-10.0-1.0"}}, {"uniqueid": "MTK0106:3AWETUDC93ZCPK8IHI128YNN21NZIN", "current_trial": 12, "dateTime": 1509156795709, "trialdata": {"rt": -1, "stimulus": "<p id=\"stim\">8</p>", "key_press": -1, "trial_type": "single-stim", "trial_index": 12, "time_elapsed": 172348, "internal_node_id": "0.0-10.0-2.0"}}, {"uniqueid": "MTK0106:3AWETUDC93ZCPK8IHI128YNN21NZIN", "current_trial": 13, "dateTime": 1509156796709, "trialdata": {"rt": -1, "stimulus": "<p id=\"stim\">7</p>", "key_press": -1, "trial_type": "single-stim", "trial_index": 13, "time_elapsed": 173348, "internal_node_id": "0.0-10.0-3.0"}}, {"uniqueid": "MTK0106:3AWETUDC93ZCPK8IHI128YNN21NZIN", "current_trial": 14, "dateTime": 1509156797709, "trialdata": {"rt": -1, "stimulus": "<p id=\"stim\">6</p>", "key_press": -1, "trial_type": "single-stim", "trial_index": 14, "time_elapsed": 174348, "internal_node_id": "0.0-10.0-4.0"}}, {"uniqueid": "MTK0106:3AWETUDC93ZCPK8IHI128YNN21NZIN", "current_trial": 15, "dateTime": 1509156798709, "trialdata": {"rt": -1, "stimulus": "<p id=\"stim\">5</p>", "key_press": -1, "trial_type": "single-stim", "trial_index": 15, "time_elapsed": 175348, "internal_node_id": "0.0-10.0-5.0"}}, {"uniqueid": "MTK0106:3AWETUDC93ZCPK8IHI128YNN21NZIN", "current_trial": 16, "dateTime": 1509156799709, "trialdata": {"rt": -1, "stimulus": "<p id=\"stim\">4</p>", "key_press": -1, "trial_type": "single-stim", "trial_index": 16, "time_elapsed": 176348, "internal_node_id": "0.0-10.0-6.0"}}, {"uniqueid": "MTK0106:3AWETUDC93ZCPK8IHI128YNN21NZIN", "current_trial": 17, "dateTime": 1509156800709, "trialdata": {"rt": -1, "stimulus": "<p id=\"stim\">3</p>", "key_press": -1, "trial_type": "single-stim", "trial_index": 17, "time_elapsed": 177348, "internal_node_id": "0.0-10.0-7.0"}}, {"uniqueid": "MTK0106:3AWETUDC93ZCPK8IHI128YNN21NZIN", "current_trial": 18, "dateTime": 1509156801709, "trialdata": {"rt": -1, "stimulus": "<p id=\"stim\">2</p>", "key_press": -1, "trial_type": "single-stim", "trial_index": 18, "time_elapsed": 178348, "internal_node_id": "0.0-10.0-8.0"}}, {"uniqueid": "MTK0106:3AWETUDC93ZCPK8IHI128YNN21NZIN", "current_trial": 19, "dateTime": 1509156802709, "trialdata": {"rt": -1, "stimulus": "<p id=\"stim\">1</p>", "key_press": -1, "trial_type": "single-stim", "trial_index": 19, "time_elapsed": 179348, "internal_node_id": "0.0-10.0-9.0"}}, {"uniqueid": "MTK0106:3AWETUDC93ZCPK8IHI128YNN21NZIN", "current_trial": 20, "dateTime": 1509156804209, "trialdata": {"rt": -1, "stimulus": "<p id=\"stim\">+</p>", "key_press": -1, "type": "FIXATION", "trial_type": "single-stim", "trial_index": 20, "time_elapsed": 180848, "internal_node_id": "0.0-11.0-0.0"}}, {"uniqueid": "MTK0106:3AWETUDC93ZCPK8IHI128YNN21NZIN", "current_trial": 21, "dateTime": 1509156805409, "trialdata": {"rt": -1, "stimulus": "<p id=\"stim\">DORM</p>", "key_press": -1, "type": "PRES_VIS", "word": "dorm", "wordID": 487, "conditions": [18, 1200, "v", 18000], "trial": 0, "serialpos": 0, "trial_type": "single-stim", "trial_index": 21, "time_elapsed": 182048, "internal_node_id": "0.0-12.0"}}, {"uniqueid": "MTK0106:3AWETUDC93ZCPK8IHI128YNN21NZIN", "current_trial": 22, "dateTime": 1509156807458, "trialdata": {"rt": -1, "stimulus": "<p id=\"stim\">PERCH</p>", "key_press": -1, "type": "PRES_VIS", "word": "perch", "wordID": 1047, "conditions": [18, 1200, "v", 18000], "trial": 0, "serialpos": 1, "trial_type": "single-stim", "trial_index": 22, "time_elapsed": 184097, "internal_node_id": "0.0-13.0"}}, {"uniqueid": "MTK0106:3AWETUDC93ZCPK8IHI128YNN21NZIN", "current_trial": 23, "dateTime": 1509156809647, "trialdata": {"rt": -1, "stimulus": "<p id=\"stim\">CASKET</p>", "key_press": -1, "type": "PRES_VIS", "word": "casket", "wordID": 254, "conditions": [18, 1200, "v", 18000], "trial": 0, "serialpos": 2, "trial_type": "single-stim", "trial_index": 23, "time_elapsed": 186286, "internal_node_id": "0.0-14.0"}}, {"uniqueid": "MTK0106:3AWETUDC93ZCPK8IHI128YNN21NZIN", "current_trial": 24, "dateTime": 1509156811939, "trialdata": {"rt": -1, "stimulus": "<p id=\"stim\">CURTAIN</p>", "key_press": -1, "type": "PRES_VIS", "word": "curtain", "wordID": 426, "conditions": [18, 1200, "v", 18000], "trial": 0, "serialpos": 3, "trial_type": "single-stim", "trial_index": 24, "time_elapsed": 188578, "internal_node_id": "0.0-15.0"}}, {"uniqueid": "MTK0106:3AWETUDC93ZCPK8IHI128YNN21NZIN", "current_trial": 25, "dateTime": 1509156814186, "trialdata": {"rt": -1, "stimulus": "<p id=\"stim\">FIDDLE</p>", "key_press": -1, "type": "PRES_VIS", "word": "fiddle", "wordID": 560, "conditions": [18, 1200, "v", 18000], "trial": 0, "serialpos": 4, "trial_type": "single-stim", "trial_index": 25, "time_elapsed": 190825, "internal_node_id": "0.0-16.0"}}, {"uniqueid": "MTK0106:3AWETUDC93ZCPK8IHI128YNN21NZIN", "current_trial": 26, "dateTime": 1509156816471, "trialdata": {"rt": -1, "stimulus": "<p id=\"stim\">SNACK</p>", "key_press": -1, "type": "PRES_VIS", "word": "snack", "wordID": 1330, "conditions": [18, 1200, "v", 18000], "trial": 0, "serialpos": 5, "trial_type": "single-stim", "trial_index": 26, "time_elapsed": 193110, "internal_node_id": "0.0-17.0"}}, {"uniqueid": "MTK0106:3AWETUDC93ZCPK8IHI128YNN21NZIN", "current_trial": 27, "dateTime": 1509156818554, "trialdata": {"rt": 701, "stimulus": "<p id=\"stim\">JUNGLE</p>", "key_press": 107, "type": "PRES_VIS", "word": "jungle", "wordID": 763, "conditions": [18, 1200, "v", 18000], "trial": 0, "serialpos": 6, "trial_type": "single-stim", "trial_index": 27, "time_elapsed": 195193, "internal_node_id": "0.0-18.0"}}, {"uniqueid": "MTK0106:3AWETUDC93ZCPK8IHI128YNN21NZIN", "current_trial": 28, "dateTime": 1509156820628, "trialdata": {"rt": 252, "stimulus": "<p id=\"stim\">UNCLE</p>", "key_press": 109, "type": "PRES_VIS", "word": "uncle", "wordID": 1535, "conditions": [18, 1200, "v", 18000], "trial": 0, "serialpos": 7, "trial_type": "single-stim", "trial_index": 28, "time_elapsed": 197267, "internal_node_id": "0.0-19.0"}}, {"uniqueid": "MTK0106:3AWETUDC93ZCPK8IHI128YNN21NZIN", "current_trial": 29, "dateTime": 1509156822681, "trialdata": {"rt": -1, "stimulus": "<p id=\"stim\">MISTER</p>", "key_press": -1, "type": "PRES_VIS", "word": "mister", "wordID": 900, "conditions": [18, 1200, "v", 18000], "trial": 0, "serialpos": 8, "trial_type": "single-stim", "trial_index": 29, "time_elapsed": 199320, "internal_node_id": "0.0-20.0"}}, {"uniqueid": "MTK0106:3AWETUDC93ZCPK8IHI128YNN21NZIN", "current_trial": 30, "dateTime": 1509156824863, "trialdata": {"rt": -1, "stimulus": "<p id=\"stim\">MAILMAN</p>", "key_press": -1, "type": "PRES_VIS", "word": "mailman", "wordID": 857, "conditions": [18, 1200, "v", 18000], "trial": 0, "serialpos": 9, "trial_type": "single-stim", "trial_index": 30, "time_elapsed": 201502, "internal_node_id": "0.0-21.0"}}, {"uniqueid": "MTK0106:3AWETUDC93ZCPK8IHI128YNN21NZIN", "current_trial": 31, "dateTime": 1509156827107, "trialdata": {"rt": -1, "stimulus": "<p id=\"stim\">GAVEL</p>", "key_press": -1, "type": "PRES_VIS", "word": "gavel", "wordID": 626, "conditions": [18, 1200, "v", 18000], "trial": 0, "serialpos": 10, "trial_type": "single-stim", "trial_index": 31, "time_elapsed": 203746, "internal_node_id": "0.0-22.0"}}, {"uniqueid": "MTK0106:3AWETUDC93ZCPK8IHI128YNN21NZIN", "current_trial": 32, "dateTime": 1509156829413, "trialdata": {"rt": -1, "stimulus": "<p id=\"stim\">PEACH</p>", "key_press": -1, "type": "PRES_VIS", "word": "peach", "wordID": 1030, "conditions": [18, 1200, "v", 18000], "trial": 0, "serialpos": 11, "trial_type": "single-stim", "trial_index": 32, "time_elapsed": 206052, "internal_node_id": "0.0-23.0"}}, {"uniqueid": "MTK0106:3AWETUDC93ZCPK8IHI128YNN21NZIN", "current_trial": 33, "dateTime": 1509156831632, "trialdata": {"rt": -1, "stimulus": "<p id=\"stim\">ORANGE</p>", "key_press": -1, "type": "PRES_VIS", "word": "orange", "wordID": 979, "conditions": [18, 1200, "v", 18000], "trial": 0, "serialpos": 12, "trial_type": "single-stim", "trial_index": 33, "time_elapsed": 208271, "internal_node_id": "0.0-24.0"}}, {"uniqueid": "MTK0106:3AWETUDC93ZCPK8IHI128YNN21NZIN", "current_trial": 34, "dateTime": 1509156833841, "trialdata": {"rt": -1, "stimulus": "<p id=\"stim\">PISTOL</p>", "key_press": -1, "type": "PRES_VIS", "word": "pistol", "wordID": 1074, "conditions": [18, 1200, "v", 18000], "trial": 0, "serialpos": 13, "trial_type": "single-stim", "trial_index": 34, "time_elapsed": 210480, "internal_node_id": "0.0-25.0"}}, {"uniqueid": "MTK0106:3AWETUDC93ZCPK8IHI128YNN21NZIN", "current_trial": 35, "dateTime": 1509156836073, "trialdata": {"rt": -1, "stimulus": "<p id=\"stim\">TABLET</p>", "key_press": -1, "type": "PRES_VIS", "word": "tablet", "wordID": 1426, "conditions": [18, 1200, "v", 18000], "trial": 0, "serialpos": 14, "trial_type": "single-stim", "trial_index": 35, "time_elapsed": 212711, "internal_node_id": "0.0-26.0"}}, {"uniqueid": "MTK0106:3AWETUDC93ZCPK8IHI128YNN21NZIN", "current_trial": 36, "dateTime": 1509156838434, "trialdata": {"rt": -1, "stimulus": "<p id=\"stim\">CAFE</p>", "key_press": -1, "type": "PRES_VIS", "word": "cafe", "wordID": 215, "conditions": [18, 1200, "v", 18000], "trial": 0, "serialpos": 15, "trial_type": "single-stim", "trial_index": 36, "time_elapsed": 215073, "internal_node_id": "0.0-27.0"}}, {"uniqueid": "MTK0106:3AWETUDC93ZCPK8IHI128YNN21NZIN", "current_trial": 37, "dateTime": 1509156840591, "trialdata": {"rt": -1, "stimulus": "<p id=\"stim\">HARP</p>", "key_press": -1, "type": "PRES_VIS", "word": "harp", "wordID": 688, "conditions": [18, 1200, "v", 18000], "trial": 0, "serialpos": 16, "trial_type": "single-stim", "trial_index": 37, "time_elapsed": 217230, "internal_node_id": "0.0-28.0"}}, {"uniqueid": "MTK0106:3AWETUDC93ZCPK8IHI128YNN21NZIN", "current_trial": 38, "dateTime": 1509156842678, "trialdata": {"rt": -1, "stimulus": "<p id=\"stim\">OUTLAW</p>", "key_press": -1, "type": "PRES_VIS", "word": "outlaw", "wordID": 988, "conditions": [18, 1200, "v", 18000], "trial": 0, "serialpos": 17, "trial_type": "single-stim", "trial_index": 38, "time_elapsed": 219317, "internal_node_id": "0.0-29.0"}}, {"uniqueid": "MTK0106:3AWETUDC93ZCPK8IHI128YNN21NZIN", "current_trial": 39, "dateTime": 1509156845051, "trialdata": {"rt": -1, "stimulus": "", "key_press": -1, "type": "PRE_RECALL_DELAY", "trial_type": "single-stim", "trial_index": 39, "time_elapsed": 221690, "internal_node_id": "0.0-30.0-0.0"}}, {"uniqueid": "MTK0106:3AWETUDC93ZCPK8IHI128YNN21NZIN", "current_trial": 40, "dateTime": 1509156845552, "trialdata": {"rt": -1000, "stimulus": "/static/audio/400Hz.wav", "key_press": -1, "type": "PRE_RECALL_ALERT", "trial_type": "single-audio", "trial_index": 40, "time_elapsed": 222191, "internal_node_id": "0.0-31.0"}}, {"uniqueid": "MTK0106:3AWETUDC93ZCPK8IHI128YNN21NZIN", "current_trial": 41, "dateTime": 1509156905554, "trialdata": {"rt": [5024, 6651, 7946, 9097, 11836, 25460, 33783], "recwords": ["snack", "jungle", "uncle", "cafe", "attic", "", "hour"], "type": "FREE_RECALL", "conditions": [18, 1200, "v", 18000], "trial": 0, "trial_type": "free-recall", "trial_index": 41, "time_elapsed": 282191, "internal_node_id": "0.0-32.0-0.0"}}, {"uniqueid": "MTK0106:3AWETUDC93ZCPK8IHI128YNN21NZIN", "current_trial": 42, "dateTime": 1509156908524, "trialdata": {"rt": 969, "key_press": 32, "type": "INSTRUCTIONS", "trial_type": "text", "trial_index": 42, "time_elapsed": 285163, "internal_node_id": "0.0-33.0"}}, {"uniqueid": "MTK0106:3AWETUDC93ZCPK8IHI128YNN21NZIN", "current_trial": 43, "dateTime": 1509156928524, "trialdata": {"rt": [4615, 7400, 10918, 13631, 16141], "responses": ["23", "16", "19", "18", "18"], "num1": [9, 1, 6, 9, 9, 2], "num2": [6, 8, 8, 6, 8, 5], "num3": [7, 7, 2, 3, 1, 9], "type": "DISTRACTOR", "conditions": [18, 1200, "a", 18000], "trial": 1, "trial_type": "math-distractor", "trial_index": 43, "time_elapsed": 305163, "internal_node_id": "0.0-34.0"}}, {"uniqueid": "MTK0106:3AWETUDC93ZCPK8IHI128YNN21NZIN", "current_trial": 44, "dateTime": 1509156931524, "trialdata": {"rt": -1, "stimulus": "<p id=\"stim\">10</p>", "key_press": -1, "trial_type": "single-stim", "trial_index": 44, "time_elapsed": 308163, "internal_node_id": "0.0-35.0-0.0"}}, {"uniqueid": "MTK0106:3AWETUDC93ZCPK8IHI128YNN21NZIN", "current_trial": 45, "dateTime": 1509156932524, "trialdata": {"rt": -1, "stimulus": "<p id=\"stim\">9</p>", "key_press": -1, "trial_type": "single-stim", "trial_index": 45, "time_elapsed": 309163, "internal_node_id": "0.0-35.0-1.0"}}, {"uniqueid": "MTK0106:3AWETUDC93ZCPK8IHI128YNN21NZIN", "current_trial": 46, "dateTime": 1509156933524, "trialdata": {"rt": -1, "stimulus": "<p id=\"stim\">8</p>", "key_press": -1, "trial_type": "single-stim", "trial_index": 46, "time_elapsed": 310163, "internal_node_id": "0.0-35.0-2.0"}}, {"uniqueid": "MTK0106:3AWETUDC93ZCPK8IHI128YNN21NZIN", "current_trial": 47, "dateTime": 1509156934524, "trialdata": {"rt": -1, "stimulus": "<p id=\"stim\">7</p>", "key_press": -1, "trial_type": "single-stim", "trial_index": 47, "time_elapsed": 311163, "internal_node_id": "0.0-35.0-3.0"}}, {"uniqueid": "MTK0106:3AWETUDC93ZCPK8IHI128YNN21NZIN", "current_trial": 48, "dateTime": 1509156935524, "trialdata": {"rt": -1, "stimulus": "<p id=\"stim\">6</p>", "key_press": -1, "trial_type": "single-stim", "trial_index": 48, "time_elapsed": 312163, "internal_node_id": "0.0-35.0-4.0"}}, {"uniqueid": "MTK0106:3AWETUDC93ZCPK8IHI128YNN21NZIN", "current_trial": 49, "dateTime": 1509156936524, "trialdata": {"rt": -1, "stimulus": "<p id=\"stim\">5</p>", "key_press": -1, "trial_type": "single-stim", "trial_index": 49, "time_elapsed": 313163, "internal_node_id": "0.0-35.0-5.0"}}, {"uniqueid": "MTK0106:3AWETUDC93ZCPK8IHI128YNN21NZIN", "current_trial": 50, "dateTime": 1509156937524, "trialdata": {"rt": -1, "stimulus": "<p id=\"stim\">4</p>", "key_press": -1, "trial_type": "single-stim", "trial_index": 50, "time_elapsed": 314163, "internal_node_id": "0.0-35.0-6.0"}}, {"uniqueid": "MTK0106:3AWETUDC93ZCPK8IHI128YNN21NZIN", "current_trial": 51, "dateTime": 1509156938524, "trialdata": {"rt": -1, "stimulus": "<p id=\"stim\">3</p>", "key_press": -1, "trial_type": "single-stim", "trial_index": 51, "time_elapsed": 315163, "internal_node_id": "0.0-35.0-7.0"}}, {"uniqueid": "MTK0106:3AWETUDC93ZCPK8IHI128YNN21NZIN", "current_trial": 52, "dateTime": 1509156939524, "trialdata": {"rt": -1, "stimulus": "<p id=\"stim\">2</p>", "key_press": -1, "trial_type": "single-stim", "trial_index": 52, "time_elapsed": 316163, "internal_node_id": "0.0-35.0-8.0"}}, {"uniqueid": "MTK0106:3AWETUDC93ZCPK8IHI128YNN21NZIN", "current_trial": 53, "dateTime": 1509156940524, "trialdata": {"rt": -1, "stimulus": "<p id=\"stim\">1</p>", "key_press": -1, "trial_type": "single-stim", "trial_index": 53, "time_elapsed": 317163, "internal_node_id": "0.0-35.0-9.0"}}, {"uniqueid": "MTK0106:3AWETUDC93ZCPK8IHI128YNN21NZIN", "current_trial": 54, "dateTime": 1509156942024, "trialdata": {"rt": -1, "stimulus": "<p id=\"stim\">+</p>", "key_press": -1, "type": "FIXATION", "trial_type": "single-stim", "trial_index": 54, "time_elapsed": 318663, "internal_node_id": "0.0-36.0-0.0"}}, {"uniqueid": "MTK0106:3AWETUDC93ZCPK8IHI128YNN21NZIN", "current_trial": 55, "dateTime": 1509156944273, "trialdata": {"rt": -1000, "stimulus": "/static/audio/wordpool/SCALLOP.wav", "key_press": -1, "type": "PRES_AUD", "word": "scallop", "wordID": 1241, "conditions": [18, 1200, "a", 18000], "trial": 1, "serialpos": 0, "trial_type": "single-audio", "trial_index": 55, "time_elapsed": 320912, "internal_node_id": "0.0-37.0"}}, {"uniqueid": "MTK0106:3AWETUDC93ZCPK8IHI128YNN21NZIN", "current_trial": 56, "dateTime": 1509156946381, "trialdata": {"rt": -1000, "stimulus": "/static/audio/wordpool/JELLO.wav", "key_press": -1, "type": "PRES_AUD", "word": "jello", "wordID": 753, "conditions": [18, 1200, "a", 18000], "trial": 1, "serialpos": 1, "trial_type": "single-audio", "trial_index": 56, "time_elapsed": 323020, "internal_node_id": "0.0-38.0"}}, {"uniqueid": "MTK0106:3AWETUDC93ZCPK8IHI128YNN21NZIN", "current_trial": 57, "dateTime": 1509156948659, "trialdata": {"rt": -1000, "stimulus": "/static/audio/wordpool/DRIVER.wav", "key_press": -1, "type": "PRES_AUD", "word": "driver", "wordID": 498, "conditions": [18, 1200, "a", 18000], "trial": 1, "serialpos": 2, "trial_type": "single-audio", "trial_index": 57, "time_elapsed": 325298, "internal_node_id": "0.0-39.0"}}, {"uniqueid": "MTK0106:3AWETUDC93ZCPK8IHI128YNN21NZIN", "current_trial": 58, "dateTime": 1509156950902, "trialdata": {"rt": -1000, "stimulus": "/static/audio/wordpool/MARKER.wav", "key_press": -1, "type": "PRES_AUD", "word": "marker", "wordID": 869, "conditions": [18, 1200, "a", 18000], "trial": 1, "serialpos": 3, "trial_type": "single-audio", "trial_index": 58, "time_elapsed": 327541, "internal_node_id": "0.0-40.0"}}, {"uniqueid": "MTK0106:3AWETUDC93ZCPK8IHI128YNN21NZIN", "current_trial": 59, "dateTime": 1509156953129, "trialdata": {"rt": -1000, "stimulus": "/static/audio/wordpool/GALLON.wav", "key_press": -1, "type": "PRES_AUD", "word": "gallon", "wordID": 617, "conditions": [18, 1200, "a", 18000], "trial": 1, "serialpos": 4, "trial_type": "single-audio", "trial_index": 59, "time_elapsed": 329768, "internal_node_id": "0.0-41.0"}}, {"uniqueid": "MTK0106:3AWETUDC93ZCPK8IHI128YNN21NZIN", "current_trial": 60, "dateTime": 1509156955321, "trialdata": {"rt": -1000, "stimulus": "/static/audio/wordpool/SHELF.wav", "key_press": -1, "type": "PRES_AUD", "word": "shelf", "wordID": 1279, "conditions": [18, 1200, "a", 18000], "trial": 1, "serialpos": 5, "trial_type": "single-audio", "trial_index": 60, "time_elapsed": 331960, "internal_node_id": "0.0-42.0"}}, {"uniqueid": "MTK0106:3AWETUDC93ZCPK8IHI128YNN21NZIN", "current_trial": 61, "dateTime": 1509156957655, "trialdata": {"rt": -1000, "stimulus": "/static/audio/wordpool/WHISKERS.wav", "key_press": -1, "type": "PRES_AUD", "word": "whiskers", "wordID": 1604, "conditions": [18, 1200, "a", 18000], "trial": 1, "serialpos": 6, "trial_type": "single-audio", "trial_index": 61, "time_elapsed": 334294, "internal_node_id": "0.0-43.0"}}, {"uniqueid": "MTK0106:3AWETUDC93ZCPK8IHI128YNN21NZIN", "current_trial": 62, "dateTime": 1509156959851, "trialdata": {"rt": -1000, "stimulus": "/static/audio/wordpool/HEDGE.wav", "key_press": -1, "type": "PRES_AUD", "word": "hedge", "wordID": 698, "conditions": [18, 1200, "a", 18000], "trial": 1, "serialpos": 7, "trial_type": "single-audio", "trial_index": 62, "time_elapsed": 336490, "internal_node_id": "0.0-44.0"}}, {"uniqueid": "MTK0106:3AWETUDC93ZCPK8IHI128YNN21NZIN", "current_trial": 63, "dateTime": 1509156962073, "trialdata": {"rt": -1000, "stimulus": "/static/audio/wordpool/PASSAGE.wav", "key_press": -1, "type": "PRES_AUD", "word": "passage", "wordID": 1018, "conditions": [18, 1200, "a", 18000], "trial": 1, "serialpos": 8, "trial_type": "single-audio", "trial_index": 63, "time_elapsed": 338712, "internal_node_id": "0.0-45.0"}}, {"uniqueid": "MTK0106:3AWETUDC93ZCPK8IHI128YNN21NZIN", "current_trial": 64, "dateTime": 1509156964268, "trialdata": {"rt": -1000, "stimulus": "/static/audio/wordpool/LAPEL.wav", "key_press": -1, "type": "PRES_AUD", "word": "lapel", "wordID": 799, "conditions": [18, 1200, "a", 18000], "trial": 1, "serialpos": 9, "trial_type": "single-audio", "trial_index": 64, "time_elapsed": 340907, "internal_node_id": "0.0-46.0"}}, {"uniqueid": "MTK0106:3AWETUDC93ZCPK8IHI128YNN21NZIN", "current_trial": 65, "dateTime": 1509156966598, "trialdata": {"rt": -1000, "stimulus": "/static/audio/wordpool/TURKEY.wav", "key_press": -1, "type": "PRES_AUD", "word": "turkey", "wordID": 1519, "conditions": [18, 1200, "a", 18000], "trial": 1, "serialpos": 10, "trial_type": "single-audio", "trial_index": 65, "time_elapsed": 343237, "internal_node_id": "0.0-47.0"}}, {"uniqueid": "MTK0106:3AWETUDC93ZCPK8IHI128YNN21NZIN", "current_trial": 66, "dateTime": 1509156968692, "trialdata": {"rt": -1000, "stimulus": "/static/audio/wordpool/PLASTER.wav", "key_press": -1, "type": "PRES_AUD", "word": "plaster", "wordID": 1084, "conditions": [18, 1200, "a", 18000], "trial": 1, "serialpos": 11, "trial_type": "single-audio", "trial_index": 66, "time_elapsed": 345331, "internal_node_id": "0.0-48.0"}}, {"uniqueid": "MTK0106:3AWETUDC93ZCPK8IHI128YNN21NZIN", "current_trial": 67, "dateTime": 1509156970901, "trialdata": {"rt": -1000, "stimulus": "/static/audio/wordpool/GAZELLE.wav", "key_press": -1, "type": "PRES_AUD", "word": "gazelle", "wordID": 627, "conditions": [18, 1200, "a", 18000], "trial": 1, "serialpos": 12, "trial_type": "single-audio", "trial_index": 67, "time_elapsed": 347540, "internal_node_id": "0.0-49.0"}}, {"uniqueid": "MTK0106:3AWETUDC93ZCPK8IHI128YNN21NZIN", "current_trial": 68, "dateTime": 1509156972959, "trialdata": {"rt": -1000, "stimulus": "/static/audio/wordpool/TABLE.wav", "key_press": -1, "type": "PRES_AUD", "word": "table", "wordID": 1425, "conditions": [18, 1200, "a", 18000], "trial": 1, "serialpos": 13, "trial_type": "single-audio", "trial_index": 68, "time_elapsed": 349597, "internal_node_id": "0.0-50.0"}}, {"uniqueid": "MTK0106:3AWETUDC93ZCPK8IHI128YNN21NZIN", "current_trial": 69, "dateTime": 1509156975317, "trialdata": {"rt": -1000, "stimulus": "/static/audio/wordpool/TRENCH.wav", "key_press": -1, "type": "PRES_AUD", "word": "trench", "wordID": 1502, "conditions": [18, 1200, "a", 18000], "trial": 1, "serialpos": 14, "trial_type": "single-audio", "trial_index": 69, "time_elapsed": 351956, "internal_node_id": "0.0-51.0"}}, {"uniqueid": "MTK0106:3AWETUDC93ZCPK8IHI128YNN21NZIN", "current_trial": 70, "dateTime": 1509156977533, "trialdata": {"rt": -1000, "stimulus": "/static/audio/wordpool/PARSLEY.wav", "key_press": -1, "type": "PRES_AUD", "word": "parsley", "wordID": 1015, "conditions": [18, 1200, "a", 18000], "trial": 1, "serialpos": 15, "trial_type": "single-audio", "trial_index": 70, "time_elapsed": 354172, "internal_node_id": "0.0-52.0"}}, {"uniqueid": "MTK0106:3AWETUDC93ZCPK8IHI128YNN21NZIN", "current_trial": 71, "dateTime": 1509156979738, "trialdata": {"rt": -1000, "stimulus": "/static/audio/wordpool/LUNCH.wav", "key_press": -1, "type": "PRES_AUD", "word": "lunch", "wordID": 848, "conditions": [18, 1200, "a", 18000], "trial": 1, "serialpos": 16, "trial_type": "single-audio", "trial_index": 71, "time_elapsed": 356377, "internal_node_id": "0.0-53.0"}}, {"uniqueid": "MTK0106:3AWETUDC93ZCPK8IHI128YNN21NZIN", "current_trial": 72, "dateTime": 1509156981818, "trialdata": {"rt": -1000, "stimulus": "/static/audio/wordpool/CANYON.wav", "key_press": -1, "type": "PRES_AUD", "word": "canyon", "wordID": 234, "conditions": [18, 1200, "a", 18000], "trial": 1, "serialpos": 17, "trial_type": "single-audio", "trial_index": 72, "time_elapsed": 358457, "internal_node_id": "0.0-54.0"}}, {"uniqueid": "MTK0106:3AWETUDC93ZCPK8IHI128YNN21NZIN", "current_trial": 73, "dateTime": 1509156983094, "trialdata": {"rt": -1, "stimulus": "", "key_press": -1, "type": "PRE_RECALL_DELAY", "trial_type": "single-stim", "trial_index": 73, "time_elapsed": 359733, "internal_node_id": "0.0-55.0-0.0"}}, {"uniqueid": "MTK0106:3AWETUDC93ZCPK8IHI128YNN21NZIN", "current_trial": 74, "dateTime": 1509156983594, "trialdata": {"rt": -1000, "stimulus": "/static/audio/400Hz.wav", "key_press": -1, "type": "PRE_RECALL_ALERT", "trial_type": "single-audio", "trial_index": 74, "time_elapsed": 360233, "internal_node_id": "0.0-56.0"}}, {"uniqueid": "MTK0106:3AWETUDC93ZCPK8IHI128YNN21NZIN", "current_trial": 75, "dateTime": 1509157043596, "trialdata": {"rt": [3607, 5900, 7249, 8557, 10759, 12124, 16918, 18179, 51942], "recwords": ["jello", "whiskers", "gallon", "shelf", "trick", "lunch", "gazelle", "table", "make"], "type": "FREE_RECALL", "conditions": [18, 1200, "a", 18000], "trial": 1, "trial_type": "free-recall", "trial_index": 75, "time_elapsed": 420233, "internal_node_id": "0.0-57.0-0.0"}}, {"uniqueid": "MTK0106:3AWETUDC93ZCPK8IHI128YNN21NZIN", "current_trial": 76, "dateTime": 1509157047942, "trialdata": {"rt": 2345, "key_press": 32, "type": "INSTRUCTIONS", "trial_type": "text", "trial_index": 76, "time_elapsed": 424581, "internal_node_id": "0.0-58.0"}}, {"uniqueid": "MTK0106:3AWETUDC93ZCPK8IHI128YNN21NZIN", "current_trial": 77, "dateTime": 1509157060942, "trialdata": {"rt": [3578, 7059, 8841], "responses": ["11", "13", "12"], "num1": [2, 2, 1, 4], "num2": [2, 2, 7, 7], "num3": [7, 9, 4, 9], "type": "DISTRACTOR", "conditions": [24, 1600, "a", 12000], "trial": 2, "trial_type": "math-distractor", "trial_index": 77, "time_elapsed": 437581, "internal_node_id": "0.0-59.0"}}, {"uniqueid": "MTK0106:3AWETUDC93ZCPK8IHI128YNN21NZIN", "current_trial": 78, "dateTime": 1509157063942, "trialdata": {"rt": -1, "stimulus": "<p id=\"stim\">10</p>", "key_press": -1, "trial_type": "single-stim", "trial_index": 78, "time_elapsed": 440581, "internal_node_id": "0.0-60.0-0.0"}}, {"uniqueid": "MTK0106:3AWETUDC93ZCPK8IHI128YNN21NZIN", "current_trial": 79, "dateTime": 1509157064942, "trialdata": {"rt": -1, "stimulus": "<p id=\"stim\">9</p>", "key_press": -1, "trial_type": "single-stim", "trial_index": 79, "time_elapsed": 441581, "internal_node_id": "0.0-60.0-1.0"}}, {"uniqueid": "MTK0106:3AWETUDC93ZCPK8IHI128YNN21NZIN", "current_trial": 80, "dateTime": 1509157065942, "trialdata": {"rt": -1, "stimulus": "<p id=\"stim\">8</p>", "key_press": -1, "trial_type": "single-stim", "trial_index": 80, "time_elapsed": 442581, "internal_node_id": "0.0-60.0-2.0"}}, {"uniqueid": "MTK0106:3AWETUDC93ZCPK8IHI128YNN21NZIN", "current_trial": 81, "dateTime": 1509157066942, "trialdata": {"rt": -1, "stimulus": "<p id=\"stim\">7</p>", "key_press": -1, "trial_type": "single-stim", "trial_index": 81, "time_elapsed": 443581, "internal_node_id": "0.0-60.0-3.0"}}, {"uniqueid": "MTK0106:3AWETUDC93ZCPK8IHI128YNN21NZIN", "current_trial": 82, "dateTime": 1509157067942, "trialdata": {"rt": -1, "stimulus": "<p id=\"stim\">6</p>", "key_press": -1, "trial_type": "single-stim", "trial_index": 82, "time_elapsed": 444581, "internal_node_id": "0.0-60.0-4.0"}}, {"uniqueid": "MTK0106:3AWETUDC93ZCPK8IHI128YNN21NZIN", "current_trial": 83, "dateTime": 1509157068942, "trialdata": {"rt": -1, "stimulus": "<p id=\"stim\">5</p>", "key_press": -1, "trial_type": "single-stim", "trial_index": 83, "time_elapsed": 445581, "internal_node_id": "0.0-60.0-5.0"}}, {"uniqueid": "MTK0106:3AWETUDC93ZCPK8IHI128YNN21NZIN", "current_trial": 84, "dateTime": 1509157069942, "trialdata": {"rt": -1, "stimulus": "<p id=\"stim\">4</p>", "key_press": -1, "trial_type": "single-stim", "trial_index": 84, "time_elapsed": 446581, "internal_node_id": "0.0-60.0-6.0"}}, {"uniqueid": "MTK0106:3AWETUDC93ZCPK8IHI128YNN21NZIN", "current_trial": 85, "dateTime": 1509157070942, "trialdata": {"rt": -1, "stimulus": "<p id=\"stim\">3</p>", "key_press": -1, "trial_type": "single-stim", "trial_index": 85, "time_elapsed": 447581, "internal_node_id": "0.0-60.0-7.0"}}, {"uniqueid": "MTK0106:3AWETUDC93ZCPK8IHI128YNN21NZIN", "current_trial": 86, "dateTime": 1509157071942, "trialdata": {"rt": -1, "stimulus": "<p id=\"stim\">2</p>", "key_press": -1, "trial_type": "single-stim", "trial_index": 86, "time_elapsed": 448581, "internal_node_id": "0.0-60.0-8.0"}}, {"uniqueid": "MTK0106:3AWETUDC93ZCPK8IHI128YNN21NZIN", "current_trial": 87, "dateTime": 1509157072943, "trialdata": {"rt": -1, "stimulus": "<p id=\"stim\">1</p>", "key_press": -1, "trial_type": "single-stim", "trial_index": 87, "time_elapsed": 449582, "internal_node_id": "0.0-60.0-9.0"}}, {"uniqueid": "MTK0106:3AWETUDC93ZCPK8IHI128YNN21NZIN", "current_trial": 88, "dateTime": 1509157074443, "trialdata": {"rt": -1, "stimulus": "<p id=\"stim\">+</p>", "key_press": -1, "type": "FIXATION", "trial_type": "single-stim", "trial_index": 88, "time_elapsed": 451082, "internal_node_id": "0.0-61.0-0.0"}}, {"uniqueid": "MTK0106:3AWETUDC93ZCPK8IHI128YNN21NZIN", "current_trial": 89, "dateTime": 1509157077236, "trialdata": {"rt": -1000, "stimulus": "/static/audio/wordpool/BLUEPRINT.wav", "key_press": -1, "type": "PRES_AUD", "word": "blueprint", "wordID": 141, "conditions": [24, 1600, "a", 12000], "trial": 2, "serialpos": 0, "trial_type": "single-audio", "trial_index": 89, "time_elapsed": 453875, "internal_node_id": "0.0-62.0"}}, {"uniqueid": "MTK0106:3AWETUDC93ZCPK8IHI128YNN21NZIN", "current_trial": 90, "dateTime": 1509157079692, "trialdata": {"rt": -1000, "stimulus": "/static/audio/wordpool/SILK.wav", "key_press": -1, "type": "PRES_AUD", "word": "silk", "wordID": 1306, "conditions": [24, 1600, "a", 12000], "trial": 2, "serialpos": 1, "trial_type": "single-audio", "trial_index": 90, "time_elapsed": 456331, "internal_node_id": "0.0-63.0"}}, {"uniqueid": "MTK0106:3AWETUDC93ZCPK8IHI128YNN21NZIN", "current_trial": 91, "dateTime": 1509157082249, "trialdata": {"rt": -1000, "stimulus": "/static/audio/wordpool/LACE.wav", "key_press": -1, "type": "PRES_AUD", "word": "lace", "wordID": 791, "conditions": [24, 1600, "a", 12000], "trial": 2, "serialpos": 2, "trial_type": "single-audio", "trial_index": 91, "time_elapsed": 458888, "internal_node_id": "0.0-64.0"}}, {"uniqueid": "MTK0106:3AWETUDC93ZCPK8IHI128YNN21NZIN", "current_trial": 92, "dateTime": 1509157085022, "trialdata": {"rt": -1000, "stimulus": "/static/audio/wordpool/PLAID.wav", "key_press": -1, "type": "PRES_AUD", "word": "plaid", "wordID": 1079, "conditions": [24, 1600, "a", 12000], "trial": 2, "serialpos": 3, "trial_type": "single-audio", "trial_index": 92, "time_elapsed": 461661, "internal_node_id": "0.0-65.0"}}, {"uniqueid": "MTK0106:3AWETUDC93ZCPK8IHI128YNN21NZIN", "current_trial": 93, "dateTime": 1509157087594, "trialdata": {"rt": -1000, "stimulus": "/static/audio/wordpool/SPOOL.wav", "key_press": -1, "type": "PRES_AUD", "word": "spool", "wordID": 1355, "conditions": [24, 1600, "a", 12000], "trial": 2, "serialpos": 4, "trial_type": "single-audio", "trial_index": 93, "time_elapsed": 464233, "internal_node_id": "0.0-66.0"}}, {"uniqueid": "MTK0106:3AWETUDC93ZCPK8IHI128YNN21NZIN", "current_trial": 94, "dateTime": 1509157090251, "trialdata": {"rt": -1000, "stimulus": "/static/audio/wordpool/NECKLACE.wav", "key_press": -1, "type": "PRES_AUD", "word": "necklace", "wordID": 939, "conditions": [24, 1600, "a", 12000], "trial": 2, "serialpos": 5, "trial_type": "single-audio", "trial_index": 94, "time_elapsed": 466890, "internal_node_id": "0.0-67.0"}}, {"uniqueid": "MTK0106:3AWETUDC93ZCPK8IHI128YNN21NZIN", "current_trial": 95, "dateTime": 1509157092743, "trialdata": {"rt": -1000, "stimulus": "/static/audio/wordpool/FLOWER.wav", "key_press": -1, "type": "PRES_AUD", "word": "flower", "wordID": 583, "conditions": [24, 1600, "a", 12000], "trial": 2, "serialpos": 6, "trial_type": "single-audio", "trial_index": 95, "time_elapsed": 469382, "internal_node_id": "0.0-68.0"}}, {"uniqueid": "MTK0106:3AWETUDC93ZCPK8IHI128YNN21NZIN", "current_trial": 96, "dateTime": 1509157095466, "trialdata": {"rt": -1000, "stimulus": "/static/audio/wordpool/FIREPLACE.wav", "key_press": -1, "type": "PRES_AUD", "word": "fireplace", "wordID": 569, "conditions": [24, 1600, "a", 12000], "trial": 2, "serialpos": 7, "trial_type": "single-audio", "trial_index": 96, "time_elapsed": 472105, "internal_node_id": "0.0-69.0"}}, {"uniqueid": "MTK0106:3AWETUDC93ZCPK8IHI128YNN21NZIN", "current_trial": 97, "dateTime": 1509157097868, "trialdata": {"rt": -1000, "stimulus": "/static/audio/wordpool/ZEBRA.wav", "key_press": -1, "type": "PRES_AUD", "word": "zebra", "wordID": 1634, "conditions": [24, 1600, "a", 12000], "trial": 2, "serialpos": 8, "trial_type": "single-audio", "trial_index": 97, "time_elapsed": 474507, "internal_node_id": "0.0-70.0"}}, {"uniqueid": "MTK0106:3AWETUDC93ZCPK8IHI128YNN21NZIN", "current_trial": 98, "dateTime": 1509157100649, "trialdata": {"rt": -1000, "stimulus": "/static/audio/wordpool/ZIPPER.wav", "key_press": -1, "type": "PRES_AUD", "word": "zipper", "wordID": 1635, "conditions": [24, 1600, "a", 12000], "trial": 2, "serialpos": 9, "trial_type": "single-audio", "trial_index": 98, "time_elapsed": 477288, "internal_node_id": "0.0-71.0"}}, {"uniqueid": "MTK0106:3AWETUDC93ZCPK8IHI128YNN21NZIN", "current_trial": 99, "dateTime": 1509157103324, "trialdata": {"rt": -1000, "stimulus": "/static/audio/wordpool/LONDON.wav", "key_press": -1, "type": "PRES_AUD", "word": "london", "wordID": 842, "conditions": [24, 1600, "a", 12000], "trial": 2, "serialpos": 10, "trial_type": "single-audio", "trial_index": 99, "time_elapsed": 479963, "internal_node_id": "0.0-72.0"}}, {"uniqueid": "MTK0106:3AWETUDC93ZCPK8IHI128YNN21NZIN", "current_trial": 100, "dateTime": 1509157106030, "trialdata": {"rt": -1000, "stimulus": "/static/audio/wordpool/LEOPARD.wav", "key_press": -1, "type": "PRES_AUD", "word": "leopard", "wordID": 811, "conditions": [24, 1600, "a", 12000], "trial": 2, "serialpos": 11, "trial_type": "single-audio", "trial_index": 100, "time_elapsed": 482669, "internal_node_id": "0.0-73.0"}}, {"uniqueid": "MTK0106:3AWETUDC93ZCPK8IHI128YNN21NZIN", "current_trial": 101, "dateTime": 1509157108644, "trialdata": {"rt": -1000, "stimulus": "/static/audio/wordpool/BUG.wav", "key_press": -1, "type": "PRES_AUD", "word": "bug", "wordID": 186, "conditions": [24, 1600, "a", 12000], "trial": 2, "serialpos": 12, "trial_type": "single-audio", "trial_index": 101, "time_elapsed": 485283, "internal_node_id": "0.0-74.0"}}, {"uniqueid": "MTK0106:3AWETUDC93ZCPK8IHI128YNN21NZIN", "current_trial": 102, "dateTime": 1509157111382, "trialdata": {"rt": -1000, "stimulus": "/static/audio/wordpool/MAMMAL.wav", "key_press": -1, "type": "PRES_AUD", "word": "mammal", "wordID": 860, "conditions": [24, 1600, "a", 12000], "trial": 2, "serialpos": 13, "trial_type": "single-audio", "trial_index": 102, "time_elapsed": 488021, "internal_node_id": "0.0-75.0"}}, {"uniqueid": "MTK0106:3AWETUDC93ZCPK8IHI128YNN21NZIN", "current_trial": 103, "dateTime": 1509157113996, "trialdata": {"rt": -1000, "stimulus": "/static/audio/wordpool/DRUG.wav", "key_press": -1, "type": "PRES_AUD", "word": "drug", "wordID": 500, "conditions": [24, 1600, "a", 12000], "trial": 2, "serialpos": 14, "trial_type": "single-audio", "trial_index": 103, "time_elapsed": 490635, "internal_node_id": "0.0-76.0"}}, {"uniqueid": "MTK0106:3AWETUDC93ZCPK8IHI128YNN21NZIN", "current_trial": 104, "dateTime": 1509157116755, "trialdata": {"rt": -1000, "stimulus": "/static/audio/wordpool/VELVET.wav", "key_press": -1, "type": "PRES_AUD", "word": "velvet", "wordID": 1554, "conditions": [24, 1600, "a", 12000], "trial": 2, "serialpos": 15, "trial_type": "single-audio", "trial_index": 104, "time_elapsed": 493394, "internal_node_id": "0.0-77.0"}}, {"uniqueid": "MTK0106:3AWETUDC93ZCPK8IHI128YNN21NZIN", "current_trial": 105, "dateTime": 1509157119273, "trialdata": {"rt": -1000, "stimulus": "/static/audio/wordpool/BOYFRIEND.wav", "key_press": -1, "type": "PRES_AUD", "word": "boyfriend", "wordID": 161, "conditions": [24, 1600, "a", 12000], "trial": 2, "serialpos": 16, "trial_type": "single-audio", "trial_index": 105, "time_elapsed": 495912, "internal_node_id": "0.0-78.0"}}, {"uniqueid": "MTK0106:3AWETUDC93ZCPK8IHI128YNN21NZIN", "current_trial": 106, "dateTime": 1509157122057, "trialdata": {"rt": -1000, "stimulus": "/static/audio/wordpool/VALVE.wav", "key_press": -1, "type": "PRES_AUD", "word": "valve", "wordID": 1545, "conditions": [24, 1600, "a", 12000], "trial": 2, "serialpos": 17, "trial_type": "single-audio", "trial_index": 106, "time_elapsed": 498696, "internal_node_id": "0.0-79.0"}}, {"uniqueid": "MTK0106:3AWETUDC93ZCPK8IHI128YNN21NZIN", "current_trial": 107, "dateTime": 1509157124476, "trialdata": {"rt": -1000, "stimulus": "/static/audio/wordpool/PISTON.wav", "key_press": -1, "type": "PRES_AUD", "word": "piston", "wordID": 1075, "conditions": [24, 1600, "a", 12000], "trial": 2, "serialpos": 18, "trial_type": "single-audio", "trial_index": 107, "time_elapsed": 501115, "internal_node_id": "0.0-80.0"}}, {"uniqueid": "MTK0106:3AWETUDC93ZCPK8IHI128YNN21NZIN", "current_trial": 108, "dateTime": 1509157126983, "trialdata": {"rt": -1000, "stimulus": "/static/audio/wordpool/KETCHUP.wav", "key_press": -1, "type": "PRES_AUD", "word": "ketchup", "wordID": 770, "conditions": [24, 1600, "a", 12000], "trial": 2, "serialpos": 19, "trial_type": "single-audio", "trial_index": 108, "time_elapsed": 503622, "internal_node_id": "0.0-81.0"}}, {"uniqueid": "MTK0106:3AWETUDC93ZCPK8IHI128YNN21NZIN", "current_trial": 109, "dateTime": 1509157129664, "trialdata": {"rt": -1000, "stimulus": "/static/audio/wordpool/WASHER.wav", "key_press": -1, "type": "PRES_AUD", "word": "washer", "wordID": 1591, "conditions": [24, 1600, "a", 12000], "trial": 2, "serialpos": 20, "trial_type": "single-audio", "trial_index": 109, "time_elapsed": 506303, "internal_node_id": "0.0-82.0"}}, {"uniqueid": "MTK0106:3AWETUDC93ZCPK8IHI128YNN21NZIN", "current_trial": 110, "dateTime": 1509157132420, "trialdata": {"rt": -1000, "stimulus": "/static/audio/wordpool/CYCLONE.wav", "key_press": -1, "type": "PRES_AUD", "word": "cyclone", "wordID": 430, "conditions": [24, 1600, "a", 12000], "trial": 2, "serialpos": 21, "trial_type": "single-audio", "trial_index": 110, "time_elapsed": 509059, "internal_node_id": "0.0-83.0"}}, {"uniqueid": "MTK0106:3AWETUDC93ZCPK8IHI128YNN21NZIN", "current_trial": 111, "dateTime": 1509157135152, "trialdata": {"rt": -1000, "stimulus": "/static/audio/wordpool/WIFE.wav", "key_press": -1, "type": "PRES_AUD", "word": "wife", "wordID": 1608, "conditions": [24, 1600, "a", 12000], "trial": 2, "serialpos": 22, "trial_type": "single-audio", "trial_index": 111, "time_elapsed": 511791, "internal_node_id": "0.0-84.0"}}, {"uniqueid": "MTK0106:3AWETUDC93ZCPK8IHI128YNN21NZIN", "current_trial": 112, "dateTime": 1509157137596, "trialdata": {"rt": -1000, "stimulus": "/static/audio/wordpool/SPOON.wav", "key_press": -1, "type": "PRES_AUD", "word": "spoon", "wordID": 1356, "conditions": [24, 1600, "a", 12000], "trial": 2, "serialpos": 23, "trial_type": "single-audio", "trial_index": 112, "time_elapsed": 514235, "internal_node_id": "0.0-85.0"}}, {"uniqueid": "MTK0106:3AWETUDC93ZCPK8IHI128YNN21NZIN", "current_trial": 113, "dateTime": 1509157138992, "trialdata": {"rt": -1, "stimulus": "", "key_press": -1, "type": "PRE_RECALL_DELAY", "trial_type": "single-stim", "trial_index": 113, "time_elapsed": 515631, "internal_node_id": "0.0-86.0-0.0"}}, {"uniqueid": "MTK0106:3AWETUDC93ZCPK8IHI128YNN21NZIN", "current_trial": 114, "dateTime": 1509157139492, "trialdata": {"rt": -1000, "stimulus": "/static/audio/400Hz.wav", "key_press": -1, "type": "PRE_RECALL_ALERT", "trial_type": "single-audio", "trial_index": 114, "time_elapsed": 516131, "internal_node_id": "0.0-87.0"}}, {"uniqueid": "MTK0106:3AWETUDC93ZCPK8IHI128YNN21NZIN", "current_trial": 115, "dateTime": 1509157199496, "trialdata": {"rt": [3654, 12935, 14534, 15965, 18465, 19794, 21107, 22439, 24443, 26073, 30821, 35393, 51578], "recwords": ["spoon", "velvet", "zebra", "zipper", "plad", "lace", "silk", "school", "flower", "mammal", "boyfriend", "necklace", "mammal"], "type": "FREE_RECALL", "conditions": [24, 1600, "a", 12000], "trial": 2, "trial_type": "free-recall", "trial_index": 115, "time_elapsed": 576132, "internal_node_id": "0.0-88.0-0.0"}}, {"uniqueid": "MTK0106:3AWETUDC93ZCPK8IHI128YNN21NZIN", "current_trial": 116, "dateTime": 1509157202930, "trialdata": {"rt": 1434, "key_press": 32, "type": "INSTRUCTIONS", "trial_type": "text", "trial_index": 116, "time_elapsed": 579569, "internal_node_id": "0.0-89.0"}}, {"uniqueid": "MTK0106:3AWETUDC93ZCPK8IHI128YNN21NZIN", "current_trial": 117, "dateTime": 1509157228930, "trialdata": {"rt": [2804, 4978, 7832, 9592, 12048, 14496, 16867, 19055, 20708, 23419], "responses": ["18", "15", "12", "13", "12", "20", "19", "25", "15", "17"], "num1": [3, 7, 6, 1, 6, 4, 1, 7, 1, 1, 4], "num2": [8, 7, 2, 4, 2, 7, 9, 9, 7, 9, 5], "num3": [7, 1, 4, 8, 4, 9, 9, 9, 7, 7, 7], "type": "DISTRACTOR", "conditions": [12, 1600, "a", 24000], "trial": 3, "trial_type": "math-distractor", "trial_index": 117, "time_elapsed": 605569, "internal_node_id": "0.0-90.0"}}, {"uniqueid": "MTK0106:3AWETUDC93ZCPK8IHI128YNN21NZIN", "current_trial": 118, "dateTime": 1509157231931, "trialdata": {"rt": -1, "stimulus": "<p id=\"stim\">10</p>", "key_press": -1, "trial_type": "single-stim", "trial_index": 118, "time_elapsed": 608570, "internal_node_id": "0.0-91.0-0.0"}}, {"uniqueid": "MTK0106:3AWETUDC93ZCPK8IHI128YNN21NZIN", "current_trial": 119, "dateTime": 1509157232931, "trialdata": {"rt": -1, "stimulus": "<p id=\"stim\">9</p>", "key_press": -1, "trial_type": "single-stim", "trial_index": 119, "time_elapsed": 609570, "internal_node_id": "0.0-91.0-1.0"}}, {"uniqueid": "MTK0106:3AWETUDC93ZCPK8IHI128YNN21NZIN", "current_trial": 120, "dateTime": 1509157233931, "trialdata": {"rt": -1, "stimulus": "<p id=\"stim\">8</p>", "key_press": -1, "trial_type": "single-stim", "trial_index": 120, "time_elapsed": 610570, "internal_node_id": "0.0-91.0-2.0"}}, {"uniqueid": "MTK0106:3AWETUDC93ZCPK8IHI128YNN21NZIN", "current_trial": 121, "dateTime": 1509157234931, "trialdata": {"rt": -1, "stimulus": "<p id=\"stim\">7</p>", "key_press": -1, "trial_type": "single-stim", "trial_index": 121, "time_elapsed": 611570, "internal_node_id": "0.0-91.0-3.0"}}, {"uniqueid": "MTK0106:3AWETUDC93ZCPK8IHI128YNN21NZIN", "current_trial": 122, "dateTime": 1509157235931, "trialdata": {"rt": -1, "stimulus": "<p id=\"stim\">6</p>", "key_press": -1, "trial_type": "single-stim", "trial_index": 122, "time_elapsed": 612570, "internal_node_id": "0.0-91.0-4.0"}}, {"uniqueid": "MTK0106:3AWETUDC93ZCPK8IHI128YNN21NZIN", "current_trial": 123, "dateTime": 1509157236931, "trialdata": {"rt": -1, "stimulus": "<p id=\"stim\">5</p>", "key_press": -1, "trial_type": "single-stim", "trial_index": 123, "time_elapsed": 613570, "internal_node_id": "0.0-91.0-5.0"}}, {"uniqueid": "MTK0106:3AWETUDC93ZCPK8IHI128YNN21NZIN", "current_trial": 124, "dateTime": 1509157237931, "trialdata": {"rt": -1, "stimulus": "<p id=\"stim\">4</p>", "key_press": -1, "trial_type": "single-stim", "trial_index": 124, "time_elapsed": 614570, "internal_node_id": "0.0-91.0-6.0"}}, {"uniqueid": "MTK0106:3AWETUDC93ZCPK8IHI128YNN21NZIN", "current_trial": 125, "dateTime": 1509157238931, "trialdata": {"rt": -1, "stimulus": "<p id=\"stim\">3</p>", "key_press": -1, "trial_type": "single-stim", "trial_index": 125, "time_elapsed": 615570, "internal_node_id": "0.0-91.0-7.0"}}, {"uniqueid": "MTK0106:3AWETUDC93ZCPK8IHI128YNN21NZIN", "current_trial": 126, "dateTime": 1509157239931, "trialdata": {"rt": -1, "stimulus": "<p id=\"stim\">2</p>", "key_press": -1, "trial_type": "single-stim", "trial_index": 126, "time_elapsed": 616570, "internal_node_id": "0.0-91.0-8.0"}}, {"uniqueid": "MTK0106:3AWETUDC93ZCPK8IHI128YNN21NZIN", "current_trial": 127, "dateTime": 1509157240931, "trialdata": {"rt": -1, "stimulus": "<p id=\"stim\">1</p>", "key_press": -1, "trial_type": "single-stim", "trial_index": 127, "time_elapsed": 617570, "internal_node_id": "0.0-91.0-9.0"}}, {"uniqueid": "MTK0106:3AWETUDC93ZCPK8IHI128YNN21NZIN", "current_trial": 128, "dateTime": 1509157242432, "trialdata": {"rt": -1, "stimulus": "<p id=\"stim\">+</p>", "key_press": -1, "type": "FIXATION", "trial_type": "single-stim", "trial_index": 128, "time_elapsed": 619071, "internal_node_id": "0.0-92.0-0.0"}}, {"uniqueid": "MTK0106:3AWETUDC93ZCPK8IHI128YNN21NZIN", "current_trial": 129, "dateTime": 1509157244994, "trialdata": {"rt": -1000, "stimulus": "/static/audio/wordpool/TROMBONE.wav", "key_press": -1, "type": "PRES_AUD", "word": "trombone", "wordID": 1507, "conditions": [12, 1600, "a", 24000], "trial": 3, "serialpos": 0, "trial_type": "single-audio", "trial_index": 129, "time_elapsed": 621633, "internal_node_id": "0.0-93.0"}}, {"uniqueid": "MTK0106:3AWETUDC93ZCPK8IHI128YNN21NZIN", "current_trial": 130, "dateTime": 1509157247404, "trialdata": {"rt": -1000, "stimulus": "/static/audio/wordpool/MARSH.wav", "key_press": -1, "type": "PRES_AUD", "word": "marsh", "wordID": 873, "conditions": [12, 1600, "a", 24000], "trial": 3, "serialpos": 1, "trial_type": "single-audio", "trial_index": 130, "time_elapsed": 624043, "internal_node_id": "0.0-94.0"}}, {"uniqueid": "MTK0106:3AWETUDC93ZCPK8IHI128YNN21NZIN", "current_trial": 131, "dateTime": 1509157249920, "trialdata": {"rt": -1000, "stimulus": "/static/audio/wordpool/GRILL.wav", "key_press": -1, "type": "PRES_AUD", "word": "grill", "wordID": 660, "conditions": [12, 1600, "a", 24000], "trial": 3, "serialpos": 2, "trial_type": "single-audio", "trial_index": 131, "time_elapsed": 626559, "internal_node_id": "0.0-95.0"}}, {"uniqueid": "MTK0106:3AWETUDC93ZCPK8IHI128YNN21NZIN", "current_trial": 132, "dateTime": 1509157252363, "trialdata": {"rt": -1000, "stimulus": "/static/audio/wordpool/APRON.wav", "key_press": -1, "type": "PRES_AUD", "word": "apron", "wordID": 34, "conditions": [12, 1600, "a", 24000], "trial": 3, "serialpos": 3, "trial_type": "single-audio", "trial_index": 132, "time_elapsed": 629002, "internal_node_id": "0.0-96.0"}}, {"uniqueid": "MTK0106:3AWETUDC93ZCPK8IHI128YNN21NZIN", "current_trial": 133, "dateTime": 1509157255053, "trialdata": {"rt": -1000, "stimulus": "/static/audio/wordpool/POPCORN.wav", "key_press": -1, "type": "PRES_AUD", "word": "popcorn", "wordID": 1103, "conditions": [12, 1600, "a", 24000], "trial": 3, "serialpos": 4, "trial_type": "single-audio", "trial_index": 133, "time_elapsed": 631692, "internal_node_id": "0.0-97.0"}}, {"uniqueid": "MTK0106:3AWETUDC93ZCPK8IHI128YNN21NZIN", "current_trial": 134, "dateTime": 1509157257472, "trialdata": {"rt": -1000, "stimulus": "/static/audio/wordpool/SLIDE.wav", "key_press": -1, "type": "PRES_AUD", "word": "slide", "wordID": 1325, "conditions": [12, 1600, "a", 24000], "trial": 3, "serialpos": 5, "trial_type": "single-audio", "trial_index": 134, "time_elapsed": 634111, "internal_node_id": "0.0-98.0"}}, {"uniqueid": "MTK0106:3AWETUDC93ZCPK8IHI128YNN21NZIN", "current_trial": 135, "dateTime": 1509157259997, "trialdata": {"rt": -1000, "stimulus": "/static/audio/wordpool/CUPBOARD.wav", "key_press": -1, "type": "PRES_AUD", "word": "cupboard", "wordID": 424, "conditions": [12, 1600, "a", 24000], "trial": 3, "serialpos": 6, "trial_type": "single-audio", "trial_index": 135, "time_elapsed": 636636, "internal_node_id": "0.0-99.0"}}, {"uniqueid": "MTK0106:3AWETUDC93ZCPK8IHI128YNN21NZIN", "current_trial": 136, "dateTime": 1509157262597, "trialdata": {"rt": -1000, "stimulus": "/static/audio/wordpool/CHAMPAGNE.wav", "key_press": -1, "type": "PRES_AUD", "word": "champagne", "wordID": 277, "conditions": [12, 1600, "a", 24000], "trial": 3, "serialpos": 7, "trial_type": "single-audio", "trial_index": 136, "time_elapsed": 639236, "internal_node_id": "0.0-100.0"}}, {"uniqueid": "MTK0106:3AWETUDC93ZCPK8IHI128YNN21NZIN", "current_trial": 137, "dateTime": 1509157265020, "trialdata": {"rt": -1000, "stimulus": "/static/audio/wordpool/CRUTCH.wav", "key_press": -1, "type": "PRES_AUD", "word": "crutch", "wordID": 416, "conditions": [12, 1600, "a", 24000], "trial": 3, "serialpos": 8, "trial_type": "single-audio", "trial_index": 137, "time_elapsed": 641659, "internal_node_id": "0.0-101.0"}}, {"uniqueid": "MTK0106:3AWETUDC93ZCPK8IHI128YNN21NZIN", "current_trial": 138, "dateTime": 1509157267819, "trialdata": {"rt": -1000, "stimulus": "/static/audio/wordpool/NIGHTGOWN.wav", "key_press": -1, "type": "PRES_AUD", "word": "nightgown", "wordID": 952, "conditions": [12, 1600, "a", 24000], "trial": 3, "serialpos": 9, "trial_type": "single-audio", "trial_index": 138, "time_elapsed": 644458, "internal_node_id": "0.0-102.0"}}, {"uniqueid": "MTK0106:3AWETUDC93ZCPK8IHI128YNN21NZIN", "current_trial": 139, "dateTime": 1509157270432, "trialdata": {"rt": -1000, "stimulus": "/static/audio/wordpool/CLOTHES.wav", "key_press": -1, "type": "PRES_AUD", "word": "clothes", "wordID": 326, "conditions": [12, 1600, "a", 24000], "trial": 3, "serialpos": 10, "trial_type": "single-audio", "trial_index": 139, "time_elapsed": 647071, "internal_node_id": "0.0-103.0"}}, {"uniqueid": "MTK0106:3AWETUDC93ZCPK8IHI128YNN21NZIN", "current_trial": 140, "dateTime": 1509157273222, "trialdata": {"rt": -1000, "stimulus": "/static/audio/wordpool/DRESSER.wav", "key_press": -1, "type": "PRES_AUD", "word": "dresser", "wordID": 495, "conditions": [12, 1600, "a", 24000], "trial": 3, "serialpos": 11, "trial_type": "single-audio", "trial_index": 140, "time_elapsed": 649861, "internal_node_id": "0.0-104.0"}}, {"uniqueid": "MTK0106:3AWETUDC93ZCPK8IHI128YNN21NZIN", "current_trial": 141, "dateTime": 1509157274562, "trialdata": {"rt": -1, "stimulus": "", "key_press": -1, "type": "PRE_RECALL_DELAY", "trial_type": "single-stim", "trial_index": 141, "time_elapsed": 651201, "internal_node_id": "0.0-105.0-0.0"}}, {"uniqueid": "MTK0106:3AWETUDC93ZCPK8IHI128YNN21NZIN", "current_trial": 142, "dateTime": 1509157275062, "trialdata": {"rt": -1000, "stimulus": "/static/audio/400Hz.wav", "key_press": -1, "type": "PRE_RECALL_ALERT", "trial_type": "single-audio", "trial_index": 142, "time_elapsed": 651701, "internal_node_id": "0.0-106.0"}}, {"uniqueid": "MTK0106:3AWETUDC93ZCPK8IHI128YNN21NZIN", "current_trial": 143, "dateTime": 1509157335064, "trialdata": {"rt": [6645, 8137, 10255, 11529, 13582, 14696], "recwords": ["dresser", "crutch", "nightgown", "clothes", "champagne", "copper"], "type": "FREE_RECALL", "conditions": [12, 1600, "a", 24000], "trial": 3, "trial_type": "free-recall", "trial_index": 143, "time_elapsed": 711701, "internal_node_id": "0.0-107.0-0.0"}}, {"uniqueid": "MTK0106:3AWETUDC93ZCPK8IHI128YNN21NZIN", "current_trial": 144, "dateTime": 1509157340441, "trialdata": {"rt": 3377, "key_press": 32, "type": "INSTRUCTIONS", "trial_type": "text", "trial_index": 144, "time_elapsed": 717080, "internal_node_id": "0.0-108.0"}}, {"uniqueid": "MTK0106:3AWETUDC93ZCPK8IHI128YNN21NZIN", "current_trial": 145, "dateTime": 1509157354441, "trialdata": {"rt": [3480, 6126, 8451, 10590], "responses": ["15", "14", "11", "12"], "num1": [4, 6, 1, 7, 6], "num2": [6, 7, 6, 4, 9], "num3": [5, 1, 4, 1, 8], "type": "DISTRACTOR", "conditions": [12, 1600, "v", 12000], "trial": 4, "trial_type": "math-distractor", "trial_index": 145, "time_elapsed": 731080, "internal_node_id": "0.0-109.0"}}, {"uniqueid": "MTK0106:3AWETUDC93ZCPK8IHI128YNN21NZIN", "current_trial": 146, "dateTime": 1509157357441, "trialdata": {"rt": -1, "stimulus": "<p id=\"stim\">10</p>", "key_press": -1, "trial_type": "single-stim", "trial_index": 146, "time_elapsed": 734080, "internal_node_id": "0.0-110.0-0.0"}}, {"uniqueid": "MTK0106:3AWETUDC93ZCPK8IHI128YNN21NZIN", "current_trial": 147, "dateTime": 1509157358441, "trialdata": {"rt": -1, "stimulus": "<p id=\"stim\">9</p>", "key_press": -1, "trial_type": "single-stim", "trial_index": 147, "time_elapsed": 735080, "internal_node_id": "0.0-110.0-1.0"}}, {"uniqueid": "MTK0106:3AWETUDC93ZCPK8IHI128YNN21NZIN", "current_trial": 148, "dateTime": 1509157359441, "trialdata": {"rt": -1, "stimulus": "<p id=\"stim\">8</p>", "key_press": -1, "trial_type": "single-stim", "trial_index": 148, "time_elapsed": 736080, "internal_node_id": "0.0-110.0-2.0"}}, {"uniqueid": "MTK0106:3AWETUDC93ZCPK8IHI128YNN21NZIN", "current_trial": 149, "dateTime": 1509157360441, "trialdata": {"rt": -1, "stimulus": "<p id=\"stim\">7</p>", "key_press": -1, "trial_type": "single-stim", "trial_index": 149, "time_elapsed": 737080, "internal_node_id": "0.0-110.0-3.0"}}, {"uniqueid": "MTK0106:3AWETUDC93ZCPK8IHI128YNN21NZIN", "current_trial": 150, "dateTime": 1509157361441, "trialdata": {"rt": -1, "stimulus": "<p id=\"stim\">6</p>", "key_press": -1, "trial_type": "single-stim", "trial_index": 150, "time_elapsed": 738080, "internal_node_id": "0.0-110.0-4.0"}}, {"uniqueid": "MTK0106:3AWETUDC93ZCPK8IHI128YNN21NZIN", "current_trial": 151, "dateTime": 1509157362441, "trialdata": {"rt": -1, "stimulus": "<p id=\"stim\">5</p>", "key_press": -1, "trial_type": "single-stim", "trial_index": 151, "time_elapsed": 739080, "internal_node_id": "0.0-110.0-5.0"}}, {"uniqueid": "MTK0106:3AWETUDC93ZCPK8IHI128YNN21NZIN", "current_trial": 152, "dateTime": 1509157363441, "trialdata": {"rt": -1, "stimulus": "<p id=\"stim\">4</p>", "key_press": -1, "trial_type": "single-stim", "trial_index": 152, "time_elapsed": 740080, "internal_node_id": "0.0-110.0-6.0"}}, {"uniqueid": "MTK0106:3AWETUDC93ZCPK8IHI128YNN21NZIN", "current_trial": 153, "dateTime": 1509157364441, "trialdata": {"rt": -1, "stimulus": "<p id=\"stim\">3</p>", "key_press": -1, "trial_type": "single-stim", "trial_index": 153, "time_elapsed": 741080, "internal_node_id": "0.0-110.0-7.0"}}, {"uniqueid": "MTK0106:3AWETUDC93ZCPK8IHI128YNN21NZIN", "current_trial": 154, "dateTime": 1509157365441, "trialdata": {"rt": -1, "stimulus": "<p id=\"stim\">2</p>", "key_press": -1, "trial_type": "single-stim", "trial_index": 154, "time_elapsed": 742080, "internal_node_id": "0.0-110.0-8.0"}}, {"uniqueid": "MTK0106:3AWETUDC93ZCPK8IHI128YNN21NZIN", "current_trial": 155, "dateTime": 1509157366441, "trialdata": {"rt": -1, "stimulus": "<p id=\"stim\">1</p>", "key_press": -1, "trial_type": "single-stim", "trial_index": 155, "time_elapsed": 743080, "internal_node_id": "0.0-110.0-9.0"}}, {"uniqueid": "MTK0106:3AWETUDC93ZCPK8IHI128YNN21NZIN", "current_trial": 156, "dateTime": 1509157367941, "trialdata": {"rt": -1, "stimulus": "<p id=\"stim\">+</p>", "key_press": -1, "type": "FIXATION", "trial_type": "single-stim", "trial_index": 156, "time_elapsed": 744580, "internal_node_id": "0.0-111.0-0.0"}}, {"uniqueid": "MTK0106:3AWETUDC93ZCPK8IHI128YNN21NZIN", "current_trial": 157, "dateTime": 1509157369541, "trialdata": {"rt": -1, "stimulus": "<p id=\"stim\">RECEIPT</p>", "key_press": -1, "type": "PRES_VIS", "word": "receipt", "wordID": 1172, "conditions": [12, 1600, "v", 12000], "trial": 4, "serialpos": 0, "trial_type": "single-stim", "trial_index": 157, "time_elapsed": 746180, "internal_node_id": "0.0-112.0"}}, {"uniqueid": "MTK0106:3AWETUDC93ZCPK8IHI128YNN21NZIN", "current_trial": 158, "dateTime": 1509157372097, "trialdata": {"rt": -1, "stimulus": "<p id=\"stim\">WAITER</p>", "key_press": -1, "type": "PRES_VIS", "word": "waiter", "wordID": 1579, "conditions": [12, 1600, "v", 12000], "trial": 4, "serialpos": 1, "trial_type": "single-stim", "trial_index": 158, "time_elapsed": 748736, "internal_node_id": "0.0-113.0"}}, {"uniqueid": "MTK0106:3AWETUDC93ZCPK8IHI128YNN21NZIN", "current_trial": 159, "dateTime": 1509157374745, "trialdata": {"rt": -1, "stimulus": "<p id=\"stim\">PORK</p>", "key_press": -1, "type": "PRES_VIS", "word": "pork", "wordID": 1107, "conditions": [12, 1600, "v", 12000], "trial": 4, "serialpos": 2, "trial_type": "single-stim", "trial_index": 159, "time_elapsed": 751384, "internal_node_id": "0.0-114.0"}}, {"uniqueid": "MTK0106:3AWETUDC93ZCPK8IHI128YNN21NZIN", "current_trial": 160, "dateTime": 1509157377251, "trialdata": {"rt": -1, "stimulus": "<p id=\"stim\">BEEF</p>", "key_press": -1, "type": "PRES_VIS", "word": "beef", "wordID": 112, "conditions": [12, 1600, "v", 12000], "trial": 4, "serialpos": 3, "trial_type": "single-stim", "trial_index": 160, "time_elapsed": 753890, "internal_node_id": "0.0-115.0"}}, {"uniqueid": "MTK0106:3AWETUDC93ZCPK8IHI128YNN21NZIN", "current_trial": 161, "dateTime": 1509157380022, "trialdata": {"rt": -1, "stimulus": "<p id=\"stim\">CLOUD</p>", "key_press": -1, "type": "PRES_VIS", "word": "cloud", "wordID": 327, "conditions": [12, 1600, "v", 12000], "trial": 4, "serialpos": 4, "trial_type": "single-stim", "trial_index": 161, "time_elapsed": 756660, "internal_node_id": "0.0-116.0"}}, {"uniqueid": "MTK0106:3AWETUDC93ZCPK8IHI128YNN21NZIN", "current_trial": 162, "dateTime": 1509157382495, "trialdata": {"rt": -1, "stimulus": "<p id=\"stim\">TWEEZERS</p>", "key_press": -1, "type": "PRES_VIS", "word": "tweezers", "wordID": 1525, "conditions": [12, 1600, "v", 12000], "trial": 4, "serialpos": 5, "trial_type": "single-stim", "trial_index": 162, "time_elapsed": 759134, "internal_node_id": "0.0-117.0"}}, {"uniqueid": "MTK0106:3AWETUDC93ZCPK8IHI128YNN21NZIN", "current_trial": 163, "dateTime": 1509157385191, "trialdata": {"rt": -1, "stimulus": "<p id=\"stim\">INMATE</p>", "key_press": -1, "type": "PRES_VIS", "word": "inmate", "wordID": 737, "conditions": [12, 1600, "v", 12000], "trial": 4, "serialpos": 6, "trial_type": "single-stim", "trial_index": 163, "time_elapsed": 761830, "internal_node_id": "0.0-118.0"}}, {"uniqueid": "MTK0106:3AWETUDC93ZCPK8IHI128YNN21NZIN", "current_trial": 164, "dateTime": 1509157387736, "trialdata": {"rt": -1, "stimulus": "<p id=\"stim\">WITNESS</p>", "key_press": -1, "type": "PRES_VIS", "word": "witness", "wordID": 1617, "conditions": [12, 1600, "v", 12000], "trial": 4, "serialpos": 7, "trial_type": "single-stim", "trial_index": 164, "time_elapsed": 764375, "internal_node_id": "0.0-119.0"}}, {"uniqueid": "MTK0106:3AWETUDC93ZCPK8IHI128YNN21NZIN", "current_trial": 165, "dateTime": 1509157390488, "trialdata": {"rt": -1, "stimulus": "<p id=\"stim\">OX</p>", "key_press": -1, "type": "PRES_VIS", "word": "ox", "wordID": 993, "conditions": [12, 1600, "v", 12000], "trial": 4, "serialpos": 8, "trial_type": "single-stim", "trial_index": 165, "time_elapsed": 767127, "internal_node_id": "0.0-120.0"}}, {"uniqueid": "MTK0106:3AWETUDC93ZCPK8IHI128YNN21NZIN", "current_trial": 166, "dateTime": 1509157392996, "trialdata": {"rt": -1, "stimulus": "<p id=\"stim\">PLIERS</p>", "key_press": -1, "type": "PRES_VIS", "word": "pliers", "wordID": 1088, "conditions": [12, 1600, "v", 12000], "trial": 4, "serialpos": 9, "trial_type": "single-stim", "trial_index": 166, "time_elapsed": 769635, "internal_node_id": "0.0-121.0"}}, {"uniqueid": "MTK0106:3AWETUDC93ZCPK8IHI128YNN21NZIN", "current_trial": 167, "dateTime": 1509157395519, "trialdata": {"rt": -1, "stimulus": "<p id=\"stim\">SALAD</p>", "key_press": -1, "type": "PRES_VIS", "word": "salad", "wordID": 1223, "conditions": [12, 1600, "v", 12000], "trial": 4, "serialpos": 10, "trial_type": "single-stim", "trial_index": 167, "time_elapsed": 772158, "internal_node_id": "0.0-122.0"}}, {"uniqueid": "MTK0106:3AWETUDC93ZCPK8IHI128YNN21NZIN", "current_trial": 168, "dateTime": 1509157398170, "trialdata": {"rt": -1, "stimulus": "<p id=\"stim\">BODY</p>", "key_press": -1, "type": "PRES_VIS", "word": "body", "wordID": 144, "conditions": [12, 1600, "v", 12000], "trial": 4, "serialpos": 11, "trial_type": "single-stim", "trial_index": 168, "time_elapsed": 774809, "internal_node_id": "0.0-123.0"}}, {"uniqueid": "MTK0106:3AWETUDC93ZCPK8IHI128YNN21NZIN", "current_trial": 169, "dateTime": 1509157400553, "trialdata": {"rt": -1, "stimulus": "", "key_press": -1, "type": "PRE_RECALL_DELAY", "trial_type": "single-stim", "trial_index": 169, "time_elapsed": 777192, "internal_node_id": "0.0-124.0-0.0"}}, {"uniqueid": "MTK0106:3AWETUDC93ZCPK8IHI128YNN21NZIN", "current_trial": 170, "dateTime": 1509157401053, "trialdata": {"rt": -1000, "stimulus": "/static/audio/400Hz.wav", "key_press": -1, "type": "PRE_RECALL_ALERT", "trial_type": "single-audio", "trial_index": 170, "time_elapsed": 777692, "internal_node_id": "0.0-125.0"}}, {"uniqueid": "MTK0106:3AWETUDC93ZCPK8IHI128YNN21NZIN", "current_trial": 171, "dateTime": 1509157461055, "trialdata": {"rt": [3215, 4826, 5890, 7619, 8733, 9892, 12789, 14055, 17962], "recwords": ["waiter", "salad", "pork", "beef", "body", "water", "ox", "pliers", "receipt"], "type": "FREE_RECALL", "conditions": [12, 1600, "v", 12000], "trial": 4, "trial_type": "free-recall", "trial_index": 171, "time_elapsed": 837692, "internal_node_id": "0.0-126.0-0.0"}}, {"uniqueid": "MTK0106:3AWETUDC93ZCPK8IHI128YNN21NZIN", "current_trial": 172, "dateTime": 1509157473422, "trialdata": {"rt": 10367, "key_press": 32, "type": "INSTRUCTIONS", "trial_type": "text", "trial_index": 172, "time_elapsed": 850061, "internal_node_id": "0.0-127.0"}}, {"uniqueid": "MTK0106:3AWETUDC93ZCPK8IHI128YNN21NZIN", "current_trial": 173, "dateTime": 1509157487423, "trialdata": {"rt": [8848, 11306], "responses": ["7", "16"], "num1": [3, 8, 2], "num2": [3, 2, 7], "num3": [1, 6, 6], "type": "DISTRACTOR", "conditions": [12, 1600, "a", 12000], "trial": 5, "trial_type": "math-distractor", "trial_index": 173, "time_elapsed": 864062, "internal_node_id": "0.0-128.0"}}, {"uniqueid": "MTK0106:3AWETUDC93ZCPK8IHI128YNN21NZIN", "current_trial": 174, "dateTime": 1509157490423, "trialdata": {"rt": -1, "stimulus": "<p id=\"stim\">10</p>", "key_press": -1, "trial_type": "single-stim", "trial_index": 174, "time_elapsed": 867062, "internal_node_id": "0.0-129.0-0.0"}}, {"uniqueid": "MTK0106:3AWETUDC93ZCPK8IHI128YNN21NZIN", "current_trial": 175, "dateTime": 1509157491423, "trialdata": {"rt": -1, "stimulus": "<p id=\"stim\">9</p>", "key_press": -1, "trial_type": "single-stim", "trial_index": 175, "time_elapsed": 868062, "internal_node_id": "0.0-129.0-1.0"}}, {"uniqueid": "MTK0106:3AWETUDC93ZCPK8IHI128YNN21NZIN", "current_trial": 176, "dateTime": 1509157492425, "trialdata": {"rt": -1, "stimulus": "<p id=\"stim\">8</p>", "key_press": -1, "trial_type": "single-stim", "trial_index": 176, "time_elapsed": 869063, "internal_node_id": "0.0-129.0-2.0"}}, {"uniqueid": "MTK0106:3AWETUDC93ZCPK8IHI128YNN21NZIN", "current_trial": 177, "dateTime": 1509157493425, "trialdata": {"rt": -1, "stimulus": "<p id=\"stim\">7</p>", "key_press": -1, "trial_type": "single-stim", "trial_index": 177, "time_elapsed": 870064, "internal_node_id": "0.0-129.0-3.0"}}, {"uniqueid": "MTK0106:3AWETUDC93ZCPK8IHI128YNN21NZIN", "current_trial": 178, "dateTime": 1509157494425, "trialdata": {"rt": -1, "stimulus": "<p id=\"stim\">6</p>", "key_press": -1, "trial_type": "single-stim", "trial_index": 178, "time_elapsed": 871064, "internal_node_id": "0.0-129.0-4.0"}}, {"uniqueid": "MTK0106:3AWETUDC93ZCPK8IHI128YNN21NZIN", "current_trial": 179, "dateTime": 1509157495425, "trialdata": {"rt": -1, "stimulus": "<p id=\"stim\">5</p>", "key_press": -1, "trial_type": "single-stim", "trial_index": 179, "time_elapsed": 872064, "internal_node_id": "0.0-129.0-5.0"}}, {"uniqueid": "MTK0106:3AWETUDC93ZCPK8IHI128YNN21NZIN", "current_trial": 180, "dateTime": 1509157496425, "trialdata": {"rt": -1, "stimulus": "<p id=\"stim\">4</p>", "key_press": -1, "trial_type": "single-stim", "trial_index": 180, "time_elapsed": 873064, "internal_node_id": "0.0-129.0-6.0"}}, {"uniqueid": "MTK0106:3AWETUDC93ZCPK8IHI128YNN21NZIN", "current_trial": 181, "dateTime": 1509157497425, "trialdata": {"rt": -1, "stimulus": "<p id=\"stim\">3</p>", "key_press": -1, "trial_type": "single-stim", "trial_index": 181, "time_elapsed": 874064, "internal_node_id": "0.0-129.0-7.0"}}, {"uniqueid": "MTK0106:3AWETUDC93ZCPK8IHI128YNN21NZIN", "current_trial": 182, "dateTime": 1509157498425, "trialdata": {"rt": -1, "stimulus": "<p id=\"stim\">2</p>", "key_press": -1, "trial_type": "single-stim", "trial_index": 182, "time_elapsed": 875064, "internal_node_id": "0.0-129.0-8.0"}}, {"uniqueid": "MTK0106:3AWETUDC93ZCPK8IHI128YNN21NZIN", "current_trial": 183, "dateTime": 1509157499425, "trialdata": {"rt": -1, "stimulus": "<p id=\"stim\">1</p>", "key_press": -1, "trial_type": "single-stim", "trial_index": 183, "time_elapsed": 876064, "internal_node_id": "0.0-129.0-9.0"}}, {"uniqueid": "MTK0106:3AWETUDC93ZCPK8IHI128YNN21NZIN", "current_trial": 184, "dateTime": 1509157500925, "trialdata": {"rt": -1, "stimulus": "<p id=\"stim\">+</p>", "key_press": -1, "type": "FIXATION", "trial_type": "single-stim", "trial_index": 184, "time_elapsed": 877564, "internal_node_id": "0.0-130.0-0.0"}}, {"uniqueid": "MTK0106:3AWETUDC93ZCPK8IHI128YNN21NZIN", "current_trial": 185, "dateTime": 1509157503395, "trialdata": {"rt": -1000, "stimulus": "/static/audio/wordpool/MATTRESS.wav", "key_press": -1, "type": "PRES_AUD", "word": "mattress", "wordID": 878, "conditions": [12, 1600, "a", 12000], "trial": 5, "serialpos": 0, "trial_type": "single-audio", "trial_index": 185, "time_elapsed": 880034, "internal_node_id": "0.0-131.0"}}, {"uniqueid": "MTK0106:3AWETUDC93ZCPK8IHI128YNN21NZIN", "current_trial": 186, "dateTime": 1509157506063, "trialdata": {"rt": -1000, "stimulus": "/static/audio/wordpool/SPOUSE.wav", "key_press": -1, "type": "PRES_AUD", "word": "spouse", "wordID": 1357, "conditions": [12, 1600, "a", 12000], "trial": 5, "serialpos": 1, "trial_type": "single-audio", "trial_index": 186, "time_elapsed": 882702, "internal_node_id": "0.0-132.0"}}, {"uniqueid": "MTK0106:3AWETUDC93ZCPK8IHI128YNN21NZIN", "current_trial": 187, "dateTime": 1509157508740, "trialdata": {"rt": -1000, "stimulus": "/static/audio/wordpool/PECAN.wav", "key_press": -1, "type": "PRES_AUD", "word": "pecan", "wordID": 1035, "conditions": [12, 1600, "a", 12000], "trial": 5, "serialpos": 2, "trial_type": "single-audio", "trial_index": 187, "time_elapsed": 885379, "internal_node_id": "0.0-133.0"}}, {"uniqueid": "MTK0106:3AWETUDC93ZCPK8IHI128YNN21NZIN", "current_trial": 188, "dateTime": 1509157511483, "trialdata": {"rt": -1000, "stimulus": "/static/audio/wordpool/CARRIAGE.wav", "key_press": -1, "type": "PRES_AUD", "word": "carriage", "wordID": 247, "conditions": [12, 1600, "a", 12000], "trial": 5, "serialpos": 3, "trial_type": "single-audio", "trial_index": 188, "time_elapsed": 888122, "internal_node_id": "0.0-134.0"}}, {"uniqueid": "MTK0106:3AWETUDC93ZCPK8IHI128YNN21NZIN", "current_trial": 189, "dateTime": 1509157514068, "trialdata": {"rt": -1000, "stimulus": "/static/audio/wordpool/SHARK.wav", "key_press": -1, "type": "PRES_AUD", "word": "shark", "wordID": 1274, "conditions": [12, 1600, "a", 12000], "trial": 5, "serialpos": 4, "trial_type": "single-audio", "trial_index": 189, "time_elapsed": 890707, "internal_node_id": "0.0-135.0"}}, {"uniqueid": "MTK0106:3AWETUDC93ZCPK8IHI128YNN21NZIN", "current_trial": 190, "dateTime": 1509157516528, "trialdata": {"rt": -1000, "stimulus": "/static/audio/wordpool/CUSTARD.wav", "key_press": -1, "type": "PRES_AUD", "word": "custard", "wordID": 428, "conditions": [12, 1600, "a", 12000], "trial": 5, "serialpos": 5, "trial_type": "single-audio", "trial_index": 190, "time_elapsed": 893167, "internal_node_id": "0.0-136.0"}}, {"uniqueid": "MTK0106:3AWETUDC93ZCPK8IHI128YNN21NZIN", "current_trial": 191, "dateTime": 1509157519175, "trialdata": {"rt": -1000, "stimulus": "/static/audio/wordpool/SHORTCAKE.wav", "key_press": -1, "type": "PRES_AUD", "word": "shortcake", "wordID": 1291, "conditions": [12, 1600, "a", 12000], "trial": 5, "serialpos": 6, "trial_type": "single-audio", "trial_index": 191, "time_elapsed": 895814, "internal_node_id": "0.0-137.0"}}, {"uniqueid": "MTK0106:3AWETUDC93ZCPK8IHI128YNN21NZIN", "current_trial": 192, "dateTime": 1509157521774, "trialdata": {"rt": -1000, "stimulus": "/static/audio/wordpool/STOMACH.wav", "key_press": -1, "type": "PRES_AUD", "word": "stomach", "wordID": 1383, "conditions": [12, 1600, "a", 12000], "trial": 5, "serialpos": 7, "trial_type": "single-audio", "trial_index": 192, "time_elapsed": 898413, "internal_node_id": "0.0-138.0"}}, {"uniqueid": "MTK0106:3AWETUDC93ZCPK8IHI128YNN21NZIN", "current_trial": 193, "dateTime": 1509157524462, "trialdata": {"rt": -1000, "stimulus": "/static/audio/wordpool/GLASS.wav", "key_press": -1, "type": "PRES_AUD", "word": "glass", "wordID": 638, "conditions": [12, 1600, "a", 12000], "trial": 5, "serialpos": 8, "trial_type": "single-audio", "trial_index": 193, "time_elapsed": 901101, "internal_node_id": "0.0-139.0"}}, {"uniqueid": "MTK0106:3AWETUDC93ZCPK8IHI128YNN21NZIN", "current_trial": 194, "dateTime": 1509157527049, "trialdata": {"rt": -1000, "stimulus": "/static/audio/wordpool/PASTRY.wav", "key_press": -1, "type": "PRES_AUD", "word": "pastry", "wordID": 1021, "conditions": [12, 1600, "a", 12000], "trial": 5, "serialpos": 9, "trial_type": "single-audio", "trial_index": 194, "time_elapsed": 903688, "internal_node_id": "0.0-140.0"}}, {"uniqueid": "MTK0106:3AWETUDC93ZCPK8IHI128YNN21NZIN", "current_trial": 195, "dateTime": 1509157529617, "trialdata": {"rt": -1000, "stimulus": "/static/audio/wordpool/CHEST.wav", "key_press": -1, "type": "PRES_AUD", "word": "chest", "wordID": 294, "conditions": [12, 1600, "a", 12000], "trial": 5, "serialpos": 10, "trial_type": "single-audio", "trial_index": 195, "time_elapsed": 906256, "internal_node_id": "0.0-141.0"}}, {"uniqueid": "MTK0106:3AWETUDC93ZCPK8IHI128YNN21NZIN", "current_trial": 196, "dateTime": 1509157532129, "trialdata": {"rt": -1000, "stimulus": "/static/audio/wordpool/FLASHLIGHT.wav", "key_press": -1, "type": "PRES_AUD", "word": "flashlight", "wordID": 574, "conditions": [12, 1600, "a", 12000], "trial": 5, "serialpos": 11, "trial_type": "single-audio", "trial_index": 196, "time_elapsed": 908768, "internal_node_id": "0.0-142.0"}}, {"uniqueid": "MTK0106:3AWETUDC93ZCPK8IHI128YNN21NZIN", "current_trial": 197, "dateTime": 1509157533388, "trialdata": {"rt": -1, "stimulus": "", "key_press": -1, "type": "PRE_RECALL_DELAY", "trial_type": "single-stim", "trial_index": 197, "time_elapsed": 910027, "internal_node_id": "0.0-143.0-0.0"}}, {"uniqueid": "MTK0106:3AWETUDC93ZCPK8IHI128YNN21NZIN", "current_trial": 198, "dateTime": 1509157533888, "trialdata": {"rt": -1000, "stimulus": "/static/audio/400Hz.wav", "key_press": -1, "type": "PRE_RECALL_ALERT", "trial_type": "single-audio", "trial_index": 198, "time_elapsed": 910527, "internal_node_id": "0.0-144.0"}}, {"uniqueid": "MTK0106:3AWETUDC93ZCPK8IHI128YNN21NZIN", "current_trial": 199, "dateTime": 1509157593890, "trialdata": {"rt": [5213, 7816, 10196, 14137, 15503, 17440], "recwords": ["custard", "pastry", "flashlight", "mattress", "stomach", "bloat"], "type": "FREE_RECALL", "conditions": [12, 1600, "a", 12000], "trial": 5, "trial_type": "free-recall", "trial_index": 199, "time_elapsed": 970527, "internal_node_id": "0.0-145.0-0.0"}}, {"uniqueid": "MTK0106:3AWETUDC93ZCPK8IHI128YNN21NZIN", "current_trial": 200, "dateTime": 1509157596701, "trialdata": {"rt": 810, "key_press": 32, "type": "INSTRUCTIONS", "trial_type": "text", "trial_index": 200, "time_elapsed": 973339, "internal_node_id": "0.0-146.0"}}, {"uniqueid": "MTK0106:3AWETUDC93ZCPK8IHI128YNN21NZIN", "current_trial": 201, "dateTime": 1509157622702, "trialdata": {"rt": [5807, 8929, 12078, 15737, 19468, 21560, 23445], "responses": ["12", "12", "15", "15", "17", "19", "7"], "num1": [4, 7, 7, 9, 8, 3, 3, 5], "num2": [4, 4, 1, 2, 7, 8, 1, 7], "num3": [4, 1, 7, 4, 2, 8, 3, 5], "type": "DISTRACTOR", "conditions": [12, 800, "v", 24000], "trial": 6, "trial_type": "math-distractor", "trial_index": 201, "time_elapsed": 999341, "internal_node_id": "0.0-147.0"}}, {"uniqueid": "MTK0106:3AWETUDC93ZCPK8IHI128YNN21NZIN", "current_trial": 202, "dateTime": 1509157625702, "trialdata": {"rt": -1, "stimulus": "<p id=\"stim\">10</p>", "key_press": -1, "trial_type": "single-stim", "trial_index": 202, "time_elapsed": 1002341, "internal_node_id": "0.0-148.0-0.0"}}, {"uniqueid": "MTK0106:3AWETUDC93ZCPK8IHI128YNN21NZIN", "current_trial": 203, "dateTime": 1509157626702, "trialdata": {"rt": -1, "stimulus": "<p id=\"stim\">9</p>", "key_press": -1, "trial_type": "single-stim", "trial_index": 203, "time_elapsed": 1003341, "internal_node_id": "0.0-148.0-1.0"}}, {"uniqueid": "MTK0106:3AWETUDC93ZCPK8IHI128YNN21NZIN", "current_trial": 204, "dateTime": 1509157627703, "trialdata": {"rt": -1, "stimulus": "<p id=\"stim\">8</p>", "key_press": -1, "trial_type": "single-stim", "trial_index": 204, "time_elapsed": 1004342, "internal_node_id": "0.0-148.0-2.0"}}, {"uniqueid": "MTK0106:3AWETUDC93ZCPK8IHI128YNN21NZIN", "current_trial": 205, "dateTime": 1509157628703, "trialdata": {"rt": -1, "stimulus": "<p id=\"stim\">7</p>", "key_press": -1, "trial_type": "single-stim", "trial_index": 205, "time_elapsed": 1005342, "internal_node_id": "0.0-148.0-3.0"}}, {"uniqueid": "MTK0106:3AWETUDC93ZCPK8IHI128YNN21NZIN", "current_trial": 206, "dateTime": 1509157629703, "trialdata": {"rt": -1, "stimulus": "<p id=\"stim\">6</p>", "key_press": -1, "trial_type": "single-stim", "trial_index": 206, "time_elapsed": 1006342, "internal_node_id": "0.0-148.0-4.0"}}, {"uniqueid": "MTK0106:3AWETUDC93ZCPK8IHI128YNN21NZIN", "current_trial": 207, "dateTime": 1509157630703, "trialdata": {"rt": -1, "stimulus": "<p id=\"stim\">5</p>", "key_press": -1, "trial_type": "single-stim", "trial_index": 207, "time_elapsed": 1007342, "internal_node_id": "0.0-148.0-5.0"}}, {"uniqueid": "MTK0106:3AWETUDC93ZCPK8IHI128YNN21NZIN", "current_trial": 208, "dateTime": 1509157631704, "trialdata": {"rt": -1, "stimulus": "<p id=\"stim\">4</p>", "key_press": -1, "trial_type": "single-stim", "trial_index": 208, "time_elapsed": 1008343, "internal_node_id": "0.0-148.0-6.0"}}, {"uniqueid": "MTK0106:3AWETUDC93ZCPK8IHI128YNN21NZIN", "current_trial": 209, "dateTime": 1509157632705, "trialdata": {"rt": -1, "stimulus": "<p id=\"stim\">3</p>", "key_press": -1, "trial_type": "single-stim", "trial_index": 209, "time_elapsed": 1009344, "internal_node_id": "0.0-148.0-7.0"}}, {"uniqueid": "MTK0106:3AWETUDC93ZCPK8IHI128YNN21NZIN", "current_trial": 210, "dateTime": 1509157633705, "trialdata": {"rt": -1, "stimulus": "<p id=\"stim\">2</p>", "key_press": -1, "trial_type": "single-stim", "trial_index": 210, "time_elapsed": 1010344, "internal_node_id": "0.0-148.0-8.0"}}, {"uniqueid": "MTK0106:3AWETUDC93ZCPK8IHI128YNN21NZIN", "current_trial": 211, "dateTime": 1509157634705, "trialdata": {"rt": -1, "stimulus": "<p id=\"stim\">1</p>", "key_press": -1, "trial_type": "single-stim", "trial_index": 211, "time_elapsed": 1011344, "internal_node_id": "0.0-148.0-9.0"}}, {"uniqueid": "MTK0106:3AWETUDC93ZCPK8IHI128YNN21NZIN", "current_trial": 212, "dateTime": 1509157636205, "trialdata": {"rt": -1, "stimulus": "<p id=\"stim\">+</p>", "key_press": -1, "type": "FIXATION", "trial_type": "single-stim", "trial_index": 212, "time_elapsed": 1012844, "internal_node_id": "0.0-149.0-0.0"}}, {"uniqueid": "MTK0106:3AWETUDC93ZCPK8IHI128YNN21NZIN", "current_trial": 213, "dateTime": 1509157637005, "trialdata": {"rt": -1, "stimulus": "<p id=\"stim\">COOK</p>", "key_press": -1, "type": "PRES_VIS", "word": "cook", "wordID": 371, "conditions": [12, 800, "v", 24000], "trial": 6, "serialpos": 0, "trial_type": "single-stim", "trial_index": 213, "time_elapsed": 1013644, "internal_node_id": "0.0-150.0"}}, {"uniqueid": "MTK0106:3AWETUDC93ZCPK8IHI128YNN21NZIN", "current_trial": 214, "dateTime": 1509157638844, "trialdata": {"rt": -1, "stimulus": "<p id=\"stim\">SADDLE</p>", "key_press": -1, "type": "PRES_VIS", "word": "saddle", "wordID": 1220, "conditions": [12, 800, "v", 24000], "trial": 6, "serialpos": 1, "trial_type": "single-stim", "trial_index": 214, "time_elapsed": 1015483, "internal_node_id": "0.0-151.0"}}, {"uniqueid": "MTK0106:3AWETUDC93ZCPK8IHI128YNN21NZIN", "current_trial": 215, "dateTime": 1509157640760, "trialdata": {"rt": -1, "stimulus": "<p id=\"stim\">HEART</p>", "key_press": -1, "type": "PRES_VIS", "word": "heart", "wordID": 696, "conditions": [12, 800, "v", 24000], "trial": 6, "serialpos": 2, "trial_type": "single-stim", "trial_index": 215, "time_elapsed": 1017399, "internal_node_id": "0.0-152.0"}}, {"uniqueid": "MTK0106:3AWETUDC93ZCPK8IHI128YNN21NZIN", "current_trial": 216, "dateTime": 1509157642364, "trialdata": {"rt": -1, "stimulus": "<p id=\"stim\">SCISSORS</p>", "key_press": -1, "type": "PRES_VIS", "word": "scissors", "wordID": 1249, "conditions": [12, 800, "v", 24000], "trial": 6, "serialpos": 3, "trial_type": "single-stim", "trial_index": 216, "time_elapsed": 1019003, "internal_node_id": "0.0-153.0"}}, {"uniqueid": "MTK0106:3AWETUDC93ZCPK8IHI128YNN21NZIN", "current_trial": 217, "dateTime": 1509157644277, "trialdata": {"rt": -1, "stimulus": "<p id=\"stim\">GUITAR</p>", "key_press": -1, "type": "PRES_VIS", "word": "guitar", "wordID": 669, "conditions": [12, 800, "v", 24000], "trial": 6, "serialpos": 4, "trial_type": "single-stim", "trial_index": 217, "time_elapsed": 1020916, "internal_node_id": "0.0-154.0"}}, {"uniqueid": "MTK0106:3AWETUDC93ZCPK8IHI128YNN21NZIN", "current_trial": 218, "dateTime": 1509157646160, "trialdata": {"rt": -1, "stimulus": "<p id=\"stim\">TUBA</p>", "key_press": -1, "type": "PRES_VIS", "word": "tuba", "wordID": 1514, "conditions": [12, 800, "v", 24000], "trial": 6, "serialpos": 5, "trial_type": "single-stim", "trial_index": 218, "time_elapsed": 1022799, "internal_node_id": "0.0-155.0"}}, {"uniqueid": "MTK0106:3AWETUDC93ZCPK8IHI128YNN21NZIN", "current_trial": 219, "dateTime": 1509157647934, "trialdata": {"rt": -1, "stimulus": "<p id=\"stim\">TREAT</p>", "key_press": -1, "type": "PRES_VIS", "word": "treat", "wordID": 1500, "conditions": [12, 800, "v", 24000], "trial": 6, "serialpos": 6, "trial_type": "single-stim", "trial_index": 219, "time_elapsed": 1024573, "internal_node_id": "0.0-156.0"}}, {"uniqueid": "MTK0106:3AWETUDC93ZCPK8IHI128YNN21NZIN", "current_trial": 220, "dateTime": 1509157649544, "trialdata": {"rt": -1, "stimulus": "<p id=\"stim\">SUITCASE</p>", "key_press": -1, "type": "PRES_VIS", "word": "suitcase", "wordID": 1402, "conditions": [12, 800, "v", 24000], "trial": 6, "serialpos": 7, "trial_type": "single-stim", "trial_index": 220, "time_elapsed": 1026183, "internal_node_id": "0.0-157.0"}}, {"uniqueid": "MTK0106:3AWETUDC93ZCPK8IHI128YNN21NZIN", "current_trial": 221, "dateTime": 1509157651300, "trialdata": {"rt": -1, "stimulus": "<p id=\"stim\">SPONGE</p>", "key_press": -1, "type": "PRES_VIS", "word": "sponge", "wordID": 1354, "conditions": [12, 800, "v", 24000], "trial": 6, "serialpos": 8, "trial_type": "single-stim", "trial_index": 221, "time_elapsed": 1027939, "internal_node_id": "0.0-158.0"}}, {"uniqueid": "MTK0106:3AWETUDC93ZCPK8IHI128YNN21NZIN", "current_trial": 222, "dateTime": 1509157653177, "trialdata": {"rt": -1, "stimulus": "<p id=\"stim\">COUSIN</p>", "key_press": -1, "type": "PRES_VIS", "word": "cousin", "wordID": 391, "conditions": [12, 800, "v", 24000], "trial": 6, "serialpos": 9, "trial_type": "single-stim", "trial_index": 222, "time_elapsed": 1029816, "internal_node_id": "0.0-159.0"}}, {"uniqueid": "MTK0106:3AWETUDC93ZCPK8IHI128YNN21NZIN", "current_trial": 223, "dateTime": 1509157655121, "trialdata": {"rt": -1, "stimulus": "<p id=\"stim\">CHAUFFEUR</p>", "key_press": -1, "type": "PRES_VIS", "word": "chauffeur", "wordID": 282, "conditions": [12, 800, "v", 24000], "trial": 6, "serialpos": 10, "trial_type": "single-stim", "trial_index": 223, "time_elapsed": 1031760, "internal_node_id": "0.0-160.0"}}, {"uniqueid": "MTK0106:3AWETUDC93ZCPK8IHI128YNN21NZIN", "current_trial": 224, "dateTime": 1509157656882, "trialdata": {"rt": -1, "stimulus": "<p id=\"stim\">BRIEFCASE</p>", "key_press": -1, "type": "PRES_VIS", "word": "briefcase", "wordID": 174, "conditions": [12, 800, "v", 24000], "trial": 6, "serialpos": 11, "trial_type": "single-stim", "trial_index": 224, "time_elapsed": 1033521, "internal_node_id": "0.0-161.0"}}, {"uniqueid": "MTK0106:3AWETUDC93ZCPK8IHI128YNN21NZIN", "current_trial": 225, "dateTime": 1509157659078, "trialdata": {"rt": -1, "stimulus": "", "key_press": -1, "type": "PRE_RECALL_DELAY", "trial_type": "single-stim", "trial_index": 225, "time_elapsed": 1035717, "internal_node_id": "0.0-162.0-0.0"}}, {"uniqueid": "MTK0106:3AWETUDC93ZCPK8IHI128YNN21NZIN", "current_trial": 226, "dateTime": 1509157659578, "trialdata": {"rt": -1000, "stimulus": "/static/audio/400Hz.wav", "key_press": -1, "type": "PRE_RECALL_ALERT", "trial_type": "single-audio", "trial_index": 226, "time_elapsed": 1036217, "internal_node_id": "0.0-163.0"}}, {"uniqueid": "MTK0106:3AWETUDC93ZCPK8IHI128YNN21NZIN", "current_trial": 227, "dateTime": 1509157719581, "trialdata": {"rt": [5372, 6780, 8059, 9205, 10401], "recwords": ["briefcase", "cousin", "treat", "cook", "guitar"], "type": "FREE_RECALL", "conditions": [12, 800, "v", 24000], "trial": 6, "trial_type": "free-recall", "trial_index": 227, "time_elapsed": 1096217, "internal_node_id": "0.0-164.0-0.0"}}, {"uniqueid": "MTK0106:3AWETUDC93ZCPK8IHI128YNN21NZIN", "current_trial": 228, "dateTime": 1509157721968, "trialdata": {"rt": 387, "key_press": 32, "type": "INSTRUCTIONS", "trial_type": "text", "trial_index": 228, "time_elapsed": 1098607, "internal_node_id": "0.0-165.0"}}, {"uniqueid": "MTK0106:3AWETUDC93ZCPK8IHI128YNN21NZIN", "current_trial": 229, "dateTime": 1509157735968, "trialdata": {"rt": [5405, 8109], "responses": ["19", "9"], "num1": [8, 2, 9], "num2": [4, 6, 6], "num3": [7, 1, 4], "type": "DISTRACTOR", "conditions": [24, 800, "v", 12000], "trial": 7, "trial_type": "math-distractor", "trial_index": 229, "time_elapsed": 1112607, "internal_node_id": "0.0-166.0"}}, {"uniqueid": "MTK0106:3AWETUDC93ZCPK8IHI128YNN21NZIN", "current_trial": 230, "dateTime": 1509157738968, "trialdata": {"rt": -1, "stimulus": "<p id=\"stim\">10</p>", "key_press": -1, "trial_type": "single-stim", "trial_index": 230, "time_elapsed": 1115607, "internal_node_id": "0.0-167.0-0.0"}}, {"uniqueid": "MTK0106:3AWETUDC93ZCPK8IHI128YNN21NZIN", "current_trial": 231, "dateTime": 1509157739968, "trialdata": {"rt": -1, "stimulus": "<p id=\"stim\">9</p>", "key_press": -1, "trial_type": "single-stim", "trial_index": 231, "time_elapsed": 1116607, "internal_node_id": "0.0-167.0-1.0"}}, {"uniqueid": "MTK0106:3AWETUDC93ZCPK8IHI128YNN21NZIN", "current_trial": 232, "dateTime": 1509157740968, "trialdata": {"rt": -1, "stimulus": "<p id=\"stim\">8</p>", "key_press": -1, "trial_type": "single-stim", "trial_index": 232, "time_elapsed": 1117607, "internal_node_id": "0.0-167.0-2.0"}}, {"uniqueid": "MTK0106:3AWETUDC93ZCPK8IHI128YNN21NZIN", "current_trial": 233, "dateTime": 1509157741968, "trialdata": {"rt": -1, "stimulus": "<p id=\"stim\">7</p>", "key_press": -1, "trial_type": "single-stim", "trial_index": 233, "time_elapsed": 1118607, "internal_node_id": "0.0-167.0-3.0"}}, {"uniqueid": "MTK0106:3AWETUDC93ZCPK8IHI128YNN21NZIN", "current_trial": 234, "dateTime": 1509157742968, "trialdata": {"rt": -1, "stimulus": "<p id=\"stim\">6</p>", "key_press": -1, "trial_type": "single-stim", "trial_index": 234, "time_elapsed": 1119607, "internal_node_id": "0.0-167.0-4.0"}}, {"uniqueid": "MTK0106:3AWETUDC93ZCPK8IHI128YNN21NZIN", "current_trial": 235, "dateTime": 1509157743968, "trialdata": {"rt": -1, "stimulus": "<p id=\"stim\">5</p>", "key_press": -1, "trial_type": "single-stim", "trial_index": 235, "time_elapsed": 1120607, "internal_node_id": "0.0-167.0-5.0"}}, {"uniqueid": "MTK0106:3AWETUDC93ZCPK8IHI128YNN21NZIN", "current_trial": 236, "dateTime": 1509157744968, "trialdata": {"rt": -1, "stimulus": "<p id=\"stim\">4</p>", "key_press": -1, "trial_type": "single-stim", "trial_index": 236, "time_elapsed": 1121607, "internal_node_id": "0.0-167.0-6.0"}}, {"uniqueid": "MTK0106:3AWETUDC93ZCPK8IHI128YNN21NZIN", "current_trial": 237, "dateTime": 1509157745968, "trialdata": {"rt": -1, "stimulus": "<p id=\"stim\">3</p>", "key_press": -1, "trial_type": "single-stim", "trial_index": 237, "time_elapsed": 1122607, "internal_node_id": "0.0-167.0-7.0"}}, {"uniqueid": "MTK0106:3AWETUDC93ZCPK8IHI128YNN21NZIN", "current_trial": 238, "dateTime": 1509157746968, "trialdata": {"rt": -1, "stimulus": "<p id=\"stim\">2</p>", "key_press": -1, "trial_type": "single-stim", "trial_index": 238, "time_elapsed": 1123607, "internal_node_id": "0.0-167.0-8.0"}}, {"uniqueid": "MTK0106:3AWETUDC93ZCPK8IHI128YNN21NZIN", "current_trial": 239, "dateTime": 1509157747969, "trialdata": {"rt": -1, "stimulus": "<p id=\"stim\">1</p>", "key_press": -1, "trial_type": "single-stim", "trial_index": 239, "time_elapsed": 1124608, "internal_node_id": "0.0-167.0-9.0"}}, {"uniqueid": "MTK0106:3AWETUDC93ZCPK8IHI128YNN21NZIN", "current_trial": 240, "dateTime": 1509157749469, "trialdata": {"rt": -1, "stimulus": "<p id=\"stim\">+</p>", "key_press": -1, "type": "FIXATION", "trial_type": "single-stim", "trial_index": 240, "time_elapsed": 1126108, "internal_node_id": "0.0-168.0-0.0"}}, {"uniqueid": "MTK0106:3AWETUDC93ZCPK8IHI128YNN21NZIN", "current_trial": 241, "dateTime": 1509157750269, "trialdata": {"rt": -1, "stimulus": "<p id=\"stim\">ROBBER</p>", "key_press": -1, "type": "PRES_VIS", "word": "robber", "wordID": 1196, "conditions": [24, 800, "v", 12000], "trial": 7, "serialpos": 0, "trial_type": "single-stim", "trial_index": 241, "time_elapsed": 1126908, "internal_node_id": "0.0-169.0"}}, {"uniqueid": "MTK0106:3AWETUDC93ZCPK8IHI128YNN21NZIN", "current_trial": 242, "dateTime": 1509157752012, "trialdata": {"rt": -1, "stimulus": "<p id=\"stim\">YACHT</p>", "key_press": -1, "type": "PRES_VIS", "word": "yacht", "wordID": 1628, "conditions": [24, 800, "v", 12000], "trial": 7, "serialpos": 1, "trial_type": "single-stim", "trial_index": 242, "time_elapsed": 1128651, "internal_node_id": "0.0-170.0"}}, {"uniqueid": "MTK0106:3AWETUDC93ZCPK8IHI128YNN21NZIN", "current_trial": 243, "dateTime": 1509157753938, "trialdata": {"rt": -1, "stimulus": "<p id=\"stim\">POWDER</p>", "key_press": -1, "type": "PRES_VIS", "word": "powder", "wordID": 1116, "conditions": [24, 800, "v", 12000], "trial": 7, "serialpos": 2, "trial_type": "single-stim", "trial_index": 243, "time_elapsed": 1130577, "internal_node_id": "0.0-171.0"}}, {"uniqueid": "MTK0106:3AWETUDC93ZCPK8IHI128YNN21NZIN", "current_trial": 244, "dateTime": 1509157755897, "trialdata": {"rt": -1, "stimulus": "<p id=\"stim\">EUROPE</p>", "key_press": -1, "type": "PRES_VIS", "word": "europe", "wordID": 540, "conditions": [24, 800, "v", 12000], "trial": 7, "serialpos": 3, "trial_type": "single-stim", "trial_index": 244, "time_elapsed": 1132536, "internal_node_id": "0.0-172.0"}}, {"uniqueid": "MTK0106:3AWETUDC93ZCPK8IHI128YNN21NZIN", "current_trial": 245, "dateTime": 1509157757659, "trialdata": {"rt": -1, "stimulus": "<p id=\"stim\">ITEM</p>", "key_press": -1, "type": "PRES_VIS", "word": "item", "wordID": 745, "conditions": [24, 800, "v", 12000], "trial": 7, "serialpos": 4, "trial_type": "single-stim", "trial_index": 245, "time_elapsed": 1134298, "internal_node_id": "0.0-173.0"}}, {"uniqueid": "MTK0106:3AWETUDC93ZCPK8IHI128YNN21NZIN", "current_trial": 246, "dateTime": 1509157759505, "trialdata": {"rt": -1, "stimulus": "<p id=\"stim\">PANTHER</p>", "key_press": -1, "type": "PRES_VIS", "word": "panther", "wordID": 1008, "conditions": [24, 800, "v", 12000], "trial": 7, "serialpos": 5, "trial_type": "single-stim", "trial_index": 246, "time_elapsed": 1136144, "internal_node_id": "0.0-174.0"}}, {"uniqueid": "MTK0106:3AWETUDC93ZCPK8IHI128YNN21NZIN", "current_trial": 247, "dateTime": 1509157761262, "trialdata": {"rt": -1, "stimulus": "<p id=\"stim\">COUNTY</p>", "key_press": -1, "type": "PRES_VIS", "word": "county", "wordID": 388, "conditions": [24, 800, "v", 12000], "trial": 7, "serialpos": 6, "trial_type": "single-stim", "trial_index": 247, "time_elapsed": 1137901, "internal_node_id": "0.0-175.0"}}, {"uniqueid": "MTK0106:3AWETUDC93ZCPK8IHI128YNN21NZIN", "current_trial": 248, "dateTime": 1509157762862, "trialdata": {"rt": -1, "stimulus": "<p id=\"stim\">TRIBE</p>", "key_press": -1, "type": "PRES_VIS", "word": "tribe", "wordID": 1504, "conditions": [24, 800, "v", 12000], "trial": 7, "serialpos": 7, "trial_type": "single-stim", "trial_index": 248, "time_elapsed": 1139501, "internal_node_id": "0.0-176.0"}}, {"uniqueid": "MTK0106:3AWETUDC93ZCPK8IHI128YNN21NZIN", "current_trial": 249, "dateTime": 1509157764846, "trialdata": {"rt": -1, "stimulus": "<p id=\"stim\">PARROT</p>", "key_press": -1, "type": "PRES_VIS", "word": "parrot", "wordID": 1014, "conditions": [24, 800, "v", 12000], "trial": 7, "serialpos": 8, "trial_type": "single-stim", "trial_index": 249, "time_elapsed": 1141485, "internal_node_id": "0.0-177.0"}}, {"uniqueid": "MTK0106:3AWETUDC93ZCPK8IHI128YNN21NZIN", "current_trial": 250, "dateTime": 1509157766566, "trialdata": {"rt": -1, "stimulus": "<p id=\"stim\">ROOSTER</p>", "key_press": -1, "type": "PRES_VIS", "word": "rooster", "wordID": 1208, "conditions": [24, 800, "v", 12000], "trial": 7, "serialpos": 9, "trial_type": "single-stim", "trial_index": 250, "time_elapsed": 1143205, "internal_node_id": "0.0-178.0"}}, {"uniqueid": "MTK0106:3AWETUDC93ZCPK8IHI128YNN21NZIN", "current_trial": 251, "dateTime": 1509157768205, "trialdata": {"rt": -1, "stimulus": "<p id=\"stim\">SUSPECT</p>", "key_press": -1, "type": "PRES_VIS", "word": "suspect", "wordID": 1414, "conditions": [24, 800, "v", 12000], "trial": 7, "serialpos": 10, "trial_type": "single-stim", "trial_index": 251, "time_elapsed": 1144844, "internal_node_id": "0.0-179.0"}}, {"uniqueid": "MTK0106:3AWETUDC93ZCPK8IHI128YNN21NZIN", "current_trial": 252, "dateTime": 1509157770163, "trialdata": {"rt": -1, "stimulus": "<p id=\"stim\">SNAIL</p>", "key_press": -1, "type": "PRES_VIS", "word": "snail", "wordID": 1331, "conditions": [24, 800, "v", 12000], "trial": 7, "serialpos": 11, "trial_type": "single-stim", "trial_index": 252, "time_elapsed": 1146802, "internal_node_id": "0.0-180.0"}}, {"uniqueid": "MTK0106:3AWETUDC93ZCPK8IHI128YNN21NZIN", "current_trial": 253, "dateTime": 1509157771983, "trialdata": {"rt": -1, "stimulus": "<p id=\"stim\">HAWK</p>", "key_press": -1, "type": "PRES_VIS", "word": "hawk", "wordID": 691, "conditions": [24, 800, "v", 12000], "trial": 7, "serialpos": 12, "trial_type": "single-stim", "trial_index": 253, "time_elapsed": 1148622, "internal_node_id": "0.0-181.0"}}, {"uniqueid": "MTK0106:3AWETUDC93ZCPK8IHI128YNN21NZIN", "current_trial": 254, "dateTime": 1509157773666, "trialdata": {"rt": -1, "stimulus": "<p id=\"stim\">FLESH</p>", "key_press": -1, "type": "PRES_VIS", "word": "flesh", "wordID": 578, "conditions": [24, 800, "v", 12000], "trial": 7, "serialpos": 13, "trial_type": "single-stim", "trial_index": 254, "time_elapsed": 1150305, "internal_node_id": "0.0-182.0"}}, {"uniqueid": "MTK0106:3AWETUDC93ZCPK8IHI128YNN21NZIN", "current_trial": 255, "dateTime": 1509157775557, "trialdata": {"rt": -1, "stimulus": "<p id=\"stim\">MILDEW</p>", "key_press": -1, "type": "PRES_VIS", "word": "mildew", "wordID": 892, "conditions": [24, 800, "v", 12000], "trial": 7, "serialpos": 14, "trial_type": "single-stim", "trial_index": 255, "time_elapsed": 1152196, "internal_node_id": "0.0-183.0"}}, {"uniqueid": "MTK0106:3AWETUDC93ZCPK8IHI128YNN21NZIN", "current_trial": 256, "dateTime": 1509157777193, "trialdata": {"rt": -1, "stimulus": "<p id=\"stim\">GIRL</p>", "key_press": -1, "type": "PRES_VIS", "word": "girl", "wordID": 636, "conditions": [24, 800, "v", 12000], "trial": 7, "serialpos": 15, "trial_type": "single-stim", "trial_index": 256, "time_elapsed": 1153832, "internal_node_id": "0.0-184.0"}}, {"uniqueid": "MTK0106:3AWETUDC93ZCPK8IHI128YNN21NZIN", "current_trial": 257, "dateTime": 1509157778843, "trialdata": {"rt": -1, "stimulus": "<p id=\"stim\">TOASTER</p>", "key_press": -1, "type": "PRES_VIS", "word": "toaster", "wordID": 1471, "conditions": [24, 800, "v", 12000], "trial": 7, "serialpos": 16, "trial_type": "single-stim", "trial_index": 257, "time_elapsed": 1155482, "internal_node_id": "0.0-185.0"}}, {"uniqueid": "MTK0106:3AWETUDC93ZCPK8IHI128YNN21NZIN", "current_trial": 258, "dateTime": 1509157780578, "trialdata": {"rt": -1, "stimulus": "<p id=\"stim\">ATOM</p>", "key_press": -1, "type": "PRES_VIS", "word": "atom", "wordID": 54, "conditions": [24, 800, "v", 12000], "trial": 7, "serialpos": 17, "trial_type": "single-stim", "trial_index": 258, "time_elapsed": 1157217, "internal_node_id": "0.0-186.0"}}, {"uniqueid": "MTK0106:3AWETUDC93ZCPK8IHI128YNN21NZIN", "current_trial": 259, "dateTime": 1509157782384, "trialdata": {"rt": -1, "stimulus": "<p id=\"stim\">LASER</p>", "key_press": -1, "type": "PRES_VIS", "word": "laser", "wordID": 800, "conditions": [24, 800, "v", 12000], "trial": 7, "serialpos": 18, "trial_type": "single-stim", "trial_index": 259, "time_elapsed": 1159023, "internal_node_id": "0.0-187.0"}}, {"uniqueid": "MTK0106:3AWETUDC93ZCPK8IHI128YNN21NZIN", "current_trial": 260, "dateTime": 1509157784305, "trialdata": {"rt": -1, "stimulus": "<p id=\"stim\">DOUGHNUT</p>", "key_press": -1, "type": "PRES_VIS", "word": "doughnut", "wordID": 489, "conditions": [24, 800, "v", 12000], "trial": 7, "serialpos": 19, "trial_type": "single-stim", "trial_index": 260, "time_elapsed": 1160944, "internal_node_id": "0.0-188.0"}}, {"uniqueid": "MTK0106:3AWETUDC93ZCPK8IHI128YNN21NZIN", "current_trial": 261, "dateTime": 1509157786173, "trialdata": {"rt": -1, "stimulus": "<p id=\"stim\">PASTA</p>", "key_press": -1, "type": "PRES_VIS", "word": "pasta", "wordID": 1020, "conditions": [24, 800, "v", 12000], "trial": 7, "serialpos": 20, "trial_type": "single-stim", "trial_index": 261, "time_elapsed": 1162812, "internal_node_id": "0.0-189.0"}}, {"uniqueid": "MTK0106:3AWETUDC93ZCPK8IHI128YNN21NZIN", "current_trial": 262, "dateTime": 1509157788101, "trialdata": {"rt": -1, "stimulus": "<p id=\"stim\">SCARF</p>", "key_press": -1, "type": "PRES_VIS", "word": "scarf", "wordID": 1245, "conditions": [24, 800, "v", 12000], "trial": 7, "serialpos": 21, "trial_type": "single-stim", "trial_index": 262, "time_elapsed": 1164740, "internal_node_id": "0.0-190.0"}}, {"uniqueid": "MTK0106:3AWETUDC93ZCPK8IHI128YNN21NZIN", "current_trial": 263, "dateTime": 1509157790095, "trialdata": {"rt": -1, "stimulus": "<p id=\"stim\">DRESS</p>", "key_press": -1, "type": "PRES_VIS", "word": "dress", "wordID": 494, "conditions": [24, 800, "v", 12000], "trial": 7, "serialpos": 22, "trial_type": "single-stim", "trial_index": 263, "time_elapsed": 1166734, "internal_node_id": "0.0-191.0"}}, {"uniqueid": "MTK0106:3AWETUDC93ZCPK8IHI128YNN21NZIN", "current_trial": 264, "dateTime": 1509157791891, "trialdata": {"rt": -1, "stimulus": "<p id=\"stim\">FUNGUS</p>", "key_press": -1, "type": "PRES_VIS", "word": "fungus", "wordID": 613, "conditions": [24, 800, "v", 12000], "trial": 7, "serialpos": 23, "trial_type": "single-stim", "trial_index": 264, "time_elapsed": 1168530, "internal_node_id": "0.0-192.0"}}, {"uniqueid": "MTK0106:3AWETUDC93ZCPK8IHI128YNN21NZIN", "current_trial": 265, "dateTime": 1509157794407, "trialdata": {"rt": -1, "stimulus": "", "key_press": -1, "type": "PRE_RECALL_DELAY", "trial_type": "single-stim", "trial_index": 265, "time_elapsed": 1171046, "internal_node_id": "0.0-193.0-0.0"}}, {"uniqueid": "MTK0106:3AWETUDC93ZCPK8IHI128YNN21NZIN", "current_trial": 266, "dateTime": 1509157794907, "trialdata": {"rt": -1000, "stimulus": "/static/audio/400Hz.wav", "key_press": -1, "type": "PRE_RECALL_ALERT", "trial_type": "single-audio", "trial_index": 266, "time_elapsed": 1171546, "internal_node_id": "0.0-194.0"}}, {"uniqueid": "MTK0106:3AWETUDC93ZCPK8IHI128YNN21NZIN", "current_trial": 267, "dateTime": 1509157854911, "trialdata": {"rt": [2736, 4412, 6916, 8725, 10165, 11961, 13210, 38547], "recwords": ["girl", "dress", "robber", "jacket", "snail", "flesh", "parrot", "item"], "type": "FREE_RECALL", "conditions": [24, 800, "v", 12000], "trial": 7, "trial_type": "free-recall", "trial_index": 267, "time_elapsed": 1231546, "internal_node_id": "0.0-195.0-0.0"}}, {"uniqueid": "MTK0106:3AWETUDC93ZCPK8IHI128YNN21NZIN", "current_trial": 268, "dateTime": 1509157857586, "trialdata": {"rt": 674, "key_press": 32, "type": "INSTRUCTIONS", "trial_type": "text", "trial_index": 268, "time_elapsed": 1234225, "internal_node_id": "0.0-196.0"}}, {"uniqueid": "MTK0106:3AWETUDC93ZCPK8IHI128YNN21NZIN", "current_trial": 269, "dateTime": 1509157883588, "trialdata": {"rt": [4366, 7859, 10804, 15398, 18057, 20685, 22435], "responses": ["16", "23", "12", "7", "17", "20", "15"], "num1": [4, 8, 1, 2, 7, 8, 5, 2], "num2": [9, 8, 8, 4, 1, 3, 3, 5], "num3": [3, 7, 3, 1, 9, 9, 7, 4], "type": "DISTRACTOR", "conditions": [24, 1600, "v", 24000], "trial": 8, "trial_type": "math-distractor", "trial_index": 269, "time_elapsed": 1260227, "internal_node_id": "0.0-197.0"}}, {"uniqueid": "MTK0106:3AWETUDC93ZCPK8IHI128YNN21NZIN", "current_trial": 270, "dateTime": 1509157886588, "trialdata": {"rt": -1, "stimulus": "<p id=\"stim\">10</p>", "key_press": -1, "trial_type": "single-stim", "trial_index": 270, "time_elapsed": 1263227, "internal_node_id": "0.0-198.0-0.0"}}, {"uniqueid": "MTK0106:3AWETUDC93ZCPK8IHI128YNN21NZIN", "current_trial": 271, "dateTime": 1509157887588, "trialdata": {"rt": -1, "stimulus": "<p id=\"stim\">9</p>", "key_press": -1, "trial_type": "single-stim", "trial_index": 271, "time_elapsed": 1264227, "internal_node_id": "0.0-198.0-1.0"}}, {"uniqueid": "MTK0106:3AWETUDC93ZCPK8IHI128YNN21NZIN", "current_trial": 272, "dateTime": 1509157888588, "trialdata": {"rt": -1, "stimulus": "<p id=\"stim\">8</p>", "key_press": -1, "trial_type": "single-stim", "trial_index": 272, "time_elapsed": 1265227, "internal_node_id": "0.0-198.0-2.0"}}, {"uniqueid": "MTK0106:3AWETUDC93ZCPK8IHI128YNN21NZIN", "current_trial": 273, "dateTime": 1509157889588, "trialdata": {"rt": -1, "stimulus": "<p id=\"stim\">7</p>", "key_press": -1, "trial_type": "single-stim", "trial_index": 273, "time_elapsed": 1266227, "internal_node_id": "0.0-198.0-3.0"