{"condition": 0, "counterbalance": 1479, "assignmentId": "3JW0YLFXRUNQWKNIVCLAAL2D42DWWL", "workerId": "MTK0941", "hitId": "385MDVINFCM23GPPYBXTWBCLMYTWJ8", "currenttrial": 626, "bonus": 0, "data": [{"uniqueid": "MTK0941:3JW0YLFXRUNQWKNIVCLAAL2D42DWWL", "current_trial": 0, "dateTime": 1512929801135, "trialdata": {"rt": 2460, "key_press": 32, "type": "INSTRUCTIONS", "trial_type": "text", "trial_index": 0, "time_elapsed": 2463, "internal_node_id": "0.0-0.0"}}, {"uniqueid": "MTK0941:3JW0YLFXRUNQWKNIVCLAAL2D42DWWL", "current_trial": 1, "dateTime": 1512929811175, "trialdata": {"rt": 10037, "key_press": 32, "type": "INSTRUCTIONS", "trial_type": "text", "trial_index": 1, "time_elapsed": 12502, "internal_node_id": "0.0-1.0"}}, {"uniqueid": "MTK0941:3JW0YLFXRUNQWKNIVCLAAL2D42DWWL", "current_trial": 2, "dateTime": 1512929823686, "trialdata": {"rt": [12498], "responses": ["ocean"], "type": "AUDIO_TEST", "trial_type": "audio-test", "trial_index": 2, "time_elapsed": 25014, "internal_node_id": "0.0-2.0"}}, {"uniqueid": "MTK0941:3JW0YLFXRUNQWKNIVCLAAL2D42DWWL", "current_trial": 3, "dateTime": 1512929833262, "trialdata": {"rt": [9571], "responses": ["crystal"], "type": "AUDIO_TEST", "trial_type": "audio-test", "trial_index": 3, "time_elapsed": 34590, "internal_node_id": "0.0-3.0"}}, {"uniqueid": "MTK0941:3JW0YLFXRUNQWKNIVCLAAL2D42DWWL", "current_trial": 4, "dateTime": 1512929843126, "trialdata": {"rt": [9859], "responses": ["spice"], "type": "AUDIO_TEST", "trial_type": "audio-test", "trial_index": 4, "time_elapsed": 44454, "internal_node_id": "0.0-4.0"}}, {"uniqueid": "MTK0941:3JW0YLFXRUNQWKNIVCLAAL2D42DWWL", "current_trial": 5, "dateTime": 1512929879717, "trialdata": {"rt": 35840, "responses": "{\"Q0\":\"9:00\",\"Q1\":\"7:00\",\"Q2\":\"4\"}", "type": "SLEEP_SURVEY", "trial_type": "survey-text", "trial_index": 5, "time_elapsed": 81045, "internal_node_id": "0.0-5.0"}}, {"uniqueid": "MTK0941:3JW0YLFXRUNQWKNIVCLAAL2D42DWWL", "current_trial": 6, "dateTime": 1512929917772, "trialdata": {"rt": 37053, "key_press": 16, "type": "INSTRUCTIONS", "trial_type": "text", "trial_index": 6, "time_elapsed": 119100, "internal_node_id": "0.0-6.0"}}, {"uniqueid": "MTK0941:3JW0YLFXRUNQWKNIVCLAAL2D42DWWL", "current_trial": 7, "dateTime": 1512929932796, "trialdata": {"rt": 14521, "key_press": 13, "type": "INSTRUCTIONS", "trial_type": "text", "trial_index": 7, "time_elapsed": 134124, "internal_node_id": "0.0-7.0"}}, {"uniqueid": "MTK0941:3JW0YLFXRUNQWKNIVCLAAL2D42DWWL", "current_trial": 8, "dateTime": 1512929942388, "trialdata": {"rt": 9090, "key_press": 13, "type": "INSTRUCTIONS", "trial_type": "text", "trial_index": 8, "time_elapsed": 143716, "internal_node_id": "0.0-8.0"}}, {"uniqueid": "MTK0941:3JW0YLFXRUNQWKNIVCLAAL2D42DWWL", "current_trial": 9, "dateTime": 1512929961396, "trialdata": {"rt": [3426, 8442, 12882, 17737], "responses": ["13", "21", "12", "16"], "num1": [3, 4, 1, 9, 1], "num2": [9, 8, 7, 3, 9], "num3": [1, 9, 4, 4, 1], "type": "DISTRACTOR", "conditions": [18, 1200, "v", 18000], "trial": 0, "trial_type": "math-distractor", "trial_index": 9, "time_elapsed": 162724, "internal_node_id": "0.0-9.0"}}, {"uniqueid": "MTK0941:3JW0YLFXRUNQWKNIVCLAAL2D42DWWL", "current_trial": 10, "dateTime": 1512929964400, "trialdata": {"rt": -1, "stimulus": "<p id=\"stim\">10</p>", "key_press": -1, "trial_type": "single-stim", "trial_index": 10, "time_elapsed": 165728, "internal_node_id": "0.0-10.0-0.0"}}, {"uniqueid": "MTK0941:3JW0YLFXRUNQWKNIVCLAAL2D42DWWL", "current_trial": 11, "dateTime": 1512929965401, "trialdata": {"rt": -1, "stimulus": "<p id=\"stim\">9</p>", "key_press": -1, "trial_type": "single-stim", "trial_index": 11, "time_elapsed": 166729, "internal_node_id": "0.0-10.0-1.0"}}, {"uniqueid": "MTK0941:3JW0YLFXRUNQWKNIVCLAAL2D42DWWL", "current_trial": 12, "dateTime": 1512929966403, "trialdata": {"rt": -1, "stimulus": "<p id=\"stim\">8</p>", "key_press": -1, "trial_type": "single-stim", "trial_index": 12, "time_elapsed": 167731, "internal_node_id": "0.0-10.0-2.0"}}, {"uniqueid": "MTK0941:3JW0YLFXRUNQWKNIVCLAAL2D42DWWL", "current_trial": 13, "dateTime": 1512929967404, "trialdata": {"rt": -1, "stimulus": "<p id=\"stim\">7</p>", "key_press": -1, "trial_type": "single-stim", "trial_index": 13, "time_elapsed": 168732, "internal_node_id": "0.0-10.0-3.0"}}, {"uniqueid": "MTK0941:3JW0YLFXRUNQWKNIVCLAAL2D42DWWL", "current_trial": 14, "dateTime": 1512929968406, "trialdata": {"rt": -1, "stimulus": "<p id=\"stim\">6</p>", "key_press": -1, "trial_type": "single-stim", "trial_index": 14, "time_elapsed": 169734, "internal_node_id": "0.0-10.0-4.0"}}, {"uniqueid": "MTK0941:3JW0YLFXRUNQWKNIVCLAAL2D42DWWL", "current_trial": 15, "dateTime": 1512929969408, "trialdata": {"rt": -1, "stimulus": "<p id=\"stim\">5</p>", "key_press": -1, "trial_type": "single-stim", "trial_index": 15, "time_elapsed": 170736, "internal_node_id": "0.0-10.0-5.0"}}, {"uniqueid": "MTK0941:3JW0YLFXRUNQWKNIVCLAAL2D42DWWL", "current_trial": 16, "dateTime": 1512929970411, "trialdata": {"rt": -1, "stimulus": "<p id=\"stim\">4</p>", "key_press": -1, "trial_type": "single-stim", "trial_index": 16, "time_elapsed": 171739, "internal_node_id": "0.0-10.0-6.0"}}, {"uniqueid": "MTK0941:3JW0YLFXRUNQWKNIVCLAAL2D42DWWL", "current_trial": 17, "dateTime": 1512929971413, "trialdata": {"rt": -1, "stimulus": "<p id=\"stim\">3</p>", "key_press": -1, "trial_type": "single-stim", "trial_index": 17, "time_elapsed": 172741, "internal_node_id": "0.0-10.0-7.0"}}, {"uniqueid": "MTK0941:3JW0YLFXRUNQWKNIVCLAAL2D42DWWL", "current_trial": 18, "dateTime": 1512929972415, "trialdata": {"rt": -1, "stimulus": "<p id=\"stim\">2</p>", "key_press": -1, "trial_type": "single-stim", "trial_index": 18, "time_elapsed": 173743, "internal_node_id": "0.0-10.0-8.0"}}, {"uniqueid": "MTK0941:3JW0YLFXRUNQWKNIVCLAAL2D42DWWL", "current_trial": 19, "dateTime": 1512929973416, "trialdata": {"rt": -1, "stimulus": "<p id=\"stim\">1</p>", "key_press": -1, "trial_type": "single-stim", "trial_index": 19, "time_elapsed": 174744, "internal_node_id": "0.0-10.0-9.0"}}, {"uniqueid": "MTK0941:3JW0YLFXRUNQWKNIVCLAAL2D42DWWL", "current_trial": 20, "dateTime": 1512929974917, "trialdata": {"rt": -1, "stimulus": "<p id=\"stim\">+</p>", "key_press": -1, "type": "FIXATION", "trial_type": "single-stim", "trial_index": 20, "time_elapsed": 176245, "internal_node_id": "0.0-11.0-0.0"}}, {"uniqueid": "MTK0941:3JW0YLFXRUNQWKNIVCLAAL2D42DWWL", "current_trial": 21, "dateTime": 1512929976120, "trialdata": {"rt": -1, "stimulus": "<p id=\"stim\">TERMITE</p>", "key_press": -1, "type": "PRES_VIS", "word": "termite", "wordID": 1450, "conditions": [18, 1200, "v", 18000], "trial": 0, "serialpos": 0, "trial_type": "single-stim", "trial_index": 21, "time_elapsed": 177448, "internal_node_id": "0.0-12.0"}}, {"uniqueid": "MTK0941:3JW0YLFXRUNQWKNIVCLAAL2D42DWWL", "current_trial": 22, "dateTime": 1512929978379, "trialdata": {"rt": -1, "stimulus": "<p id=\"stim\">DUSTPAN</p>", "key_press": -1, "type": "PRES_VIS", "word": "dustpan", "wordID": 508, "conditions": [18, 1200, "v", 18000], "trial": 0, "serialpos": 1, "trial_type": "single-stim", "trial_index": 22, "time_elapsed": 179707, "internal_node_id": "0.0-13.0"}}, {"uniqueid": "MTK0941:3JW0YLFXRUNQWKNIVCLAAL2D42DWWL", "current_trial": 23, "dateTime": 1512929980626, "trialdata": {"rt": -1, "stimulus": "<p id=\"stim\">SCALPEL</p>", "key_press": -1, "type": "PRES_VIS", "word": "scalpel", "wordID": 1242, "conditions": [18, 1200, "v", 18000], "trial": 0, "serialpos": 2, "trial_type": "single-stim", "trial_index": 23, "time_elapsed": 181954, "internal_node_id": "0.0-14.0"}}, {"uniqueid": "MTK0941:3JW0YLFXRUNQWKNIVCLAAL2D42DWWL", "current_trial": 24, "dateTime": 1512929982827, "trialdata": {"rt": -1, "stimulus": "<p id=\"stim\">PAPER</p>", "key_press": -1, "type": "PRES_VIS", "word": "paper", "wordID": 1010, "conditions": [18, 1200, "v", 18000], "trial": 0, "serialpos": 3, "trial_type": "single-stim", "trial_index": 24, "time_elapsed": 184155, "internal_node_id": "0.0-15.0"}}, {"uniqueid": "MTK0941:3JW0YLFXRUNQWKNIVCLAAL2D42DWWL", "current_trial": 25, "dateTime": 1512929985153, "trialdata": {"rt": -1, "stimulus": "<p id=\"stim\">PIMPLE</p>", "key_press": -1, "type": "PRES_VIS", "word": "pimple", "wordID": 1070, "conditions": [18, 1200, "v", 18000], "trial": 0, "serialpos": 4, "trial_type": "single-stim", "trial_index": 25, "time_elapsed": 186481, "internal_node_id": "0.0-16.0"}}, {"uniqueid": "MTK0941:3JW0YLFXRUNQWKNIVCLAAL2D42DWWL", "current_trial": 26, "dateTime": 1512929987200, "trialdata": {"rt": -1, "stimulus": "<p id=\"stim\">MARKER</p>", "key_press": -1, "type": "PRES_VIS", "word": "marker", "wordID": 869, "conditions": [18, 1200, "v", 18000], "trial": 0, "serialpos": 5, "trial_type": "single-stim", "trial_index": 26, "time_elapsed": 188528, "internal_node_id": "0.0-17.0"}}, {"uniqueid": "MTK0941:3JW0YLFXRUNQWKNIVCLAAL2D42DWWL", "current_trial": 27, "dateTime": 1512929989488, "trialdata": {"rt": -1, "stimulus": "<p id=\"stim\">HATCHET</p>", "key_press": -1, "type": "PRES_VIS", "word": "hatchet", "wordID": 690, "conditions": [18, 1200, "v", 18000], "trial": 0, "serialpos": 6, "trial_type": "single-stim", "trial_index": 27, "time_elapsed": 190816, "internal_node_id": "0.0-18.0"}}, {"uniqueid": "MTK0941:3JW0YLFXRUNQWKNIVCLAAL2D42DWWL", "current_trial": 28, "dateTime": 1512929991874, "trialdata": {"rt": -1, "stimulus": "<p id=\"stim\">MOTEL</p>", "key_press": -1, "type": "PRES_VIS", "word": "motel", "wordID": 918, "conditions": [18, 1200, "v", 18000], "trial": 0, "serialpos": 7, "trial_type": "single-stim", "trial_index": 28, "time_elapsed": 193202, "internal_node_id": "0.0-19.0"}}, {"uniqueid": "MTK0941:3JW0YLFXRUNQWKNIVCLAAL2D42DWWL", "current_trial": 29, "dateTime": 1512929994001, "trialdata": {"rt": -1, "stimulus": "<p id=\"stim\">HONEY</p>", "key_press": -1, "type": "PRES_VIS", "word": "honey", "wordID": 712, "conditions": [18, 1200, "v", 18000], "trial": 0, "serialpos": 8, "trial_type": "single-stim", "trial_index": 29, "time_elapsed": 195329, "internal_node_id": "0.0-20.0"}}, {"uniqueid": "MTK0941:3JW0YLFXRUNQWKNIVCLAAL2D42DWWL", "current_trial": 30, "dateTime": 1512929996352, "trialdata": {"rt": -1, "stimulus": "<p id=\"stim\">TEMPLE</p>", "key_press": -1, "type": "PRES_VIS", "word": "temple", "wordID": 1447, "conditions": [18, 1200, "v", 18000], "trial": 0, "serialpos": 9, "trial_type": "single-stim", "trial_index": 30, "time_elapsed": 197680, "internal_node_id": "0.0-21.0"}}, {"uniqueid": "MTK0941:3JW0YLFXRUNQWKNIVCLAAL2D42DWWL", "current_trial": 31, "dateTime": 1512929998402, "trialdata": {"rt": -1, "stimulus": "<p id=\"stim\">COUNTY</p>", "key_press": -1, "type": "PRES_VIS", "word": "county", "wordID": 388, "conditions": [18, 1200, "v", 18000], "trial": 0, "serialpos": 10, "trial_type": "single-stim", "trial_index": 31, "time_elapsed": 199730, "internal_node_id": "0.0-22.0"}}, {"uniqueid": "MTK0941:3JW0YLFXRUNQWKNIVCLAAL2D42DWWL", "current_trial": 32, "dateTime": 1512930000721, "trialdata": {"rt": -1, "stimulus": "<p id=\"stim\">HAND</p>", "key_press": -1, "type": "PRES_VIS", "word": "hand", "wordID": 682, "conditions": [18, 1200, "v", 18000], "trial": 0, "serialpos": 11, "trial_type": "single-stim", "trial_index": 32, "time_elapsed": 202049, "internal_node_id": "0.0-23.0"}}, {"uniqueid": "MTK0941:3JW0YLFXRUNQWKNIVCLAAL2D42DWWL", "current_trial": 33, "dateTime": 1512930003118, "trialdata": {"rt": -1, "stimulus": "<p id=\"stim\">SIDEWALK</p>", "key_press": -1, "type": "PRES_VIS", "word": "sidewalk", "wordID": 1302, "conditions": [18, 1200, "v", 18000], "trial": 0, "serialpos": 12, "trial_type": "single-stim", "trial_index": 33, "time_elapsed": 204446, "internal_node_id": "0.0-24.0"}}, {"uniqueid": "MTK0941:3JW0YLFXRUNQWKNIVCLAAL2D42DWWL", "current_trial": 34, "dateTime": 1512930005512, "trialdata": {"rt": -1, "stimulus": "<p id=\"stim\">THIEF</p>", "key_press": -1, "type": "PRES_VIS", "word": "thief", "wordID": 1455, "conditions": [18, 1200, "v", 18000], "trial": 0, "serialpos": 13, "trial_type": "single-stim", "trial_index": 34, "time_elapsed": 206840, "internal_node_id": "0.0-25.0"}}, {"uniqueid": "MTK0941:3JW0YLFXRUNQWKNIVCLAAL2D42DWWL", "current_trial": 35, "dateTime": 1512930007680, "trialdata": {"rt": -1, "stimulus": "<p id=\"stim\">RUG</p>", "key_press": -1, "type": "PRES_VIS", "word": "rug", "wordID": 1214, "conditions": [18, 1200, "v", 18000], "trial": 0, "serialpos": 14, "trial_type": "single-stim", "trial_index": 35, "time_elapsed": 209008, "internal_node_id": "0.0-26.0"}}, {"uniqueid": "MTK0941:3JW0YLFXRUNQWKNIVCLAAL2D42DWWL", "current_trial": 36, "dateTime": 1512930009758, "trialdata": {"rt": -1, "stimulus": "<p id=\"stim\">STALLION</p>", "key_press": -1, "type": "PRES_VIS", "word": "stallion", "wordID": 1368, "conditions": [18, 1200, "v", 18000], "trial": 0, "serialpos": 15, "trial_type": "single-stim", "trial_index": 36, "time_elapsed": 211086, "internal_node_id": "0.0-27.0"}}, {"uniqueid": "MTK0941:3JW0YLFXRUNQWKNIVCLAAL2D42DWWL", "current_trial": 37, "dateTime": 1512930011956, "trialdata": {"rt": -1, "stimulus": "<p id=\"stim\">SALAD</p>", "key_press": -1, "type": "PRES_VIS", "word": "salad", "wordID": 1223, "conditions": [18, 1200, "v", 18000], "trial": 0, "serialpos": 16, "trial_type": "single-stim", "trial_index": 37, "time_elapsed": 213284, "internal_node_id": "0.0-28.0"}}, {"uniqueid": "MTK0941:3JW0YLFXRUNQWKNIVCLAAL2D42DWWL", "current_trial": 38, "dateTime": 1512930014195, "trialdata": {"rt": -1, "stimulus": "<p id=\"stim\">STOMACH</p>", "key_press": -1, "type": "PRES_VIS", "word": "stomach", "wordID": 1383, "conditions": [18, 1200, "v", 18000], "trial": 0, "serialpos": 17, "trial_type": "single-stim", "trial_index": 38, "time_elapsed": 215523, "internal_node_id": "0.0-29.0"}}, {"uniqueid": "MTK0941:3JW0YLFXRUNQWKNIVCLAAL2D42DWWL", "current_trial": 39, "dateTime": 1512930016369, "trialdata": {"rt": -1, "stimulus": "", "key_press": -1, "type": "PRE_RECALL_DELAY", "trial_type": "single-stim", "trial_index": 39, "time_elapsed": 217697, "internal_node_id": "0.0-30.0-0.0"}}, {"uniqueid": "MTK0941:3JW0YLFXRUNQWKNIVCLAAL2D42DWWL", "current_trial": 40, "dateTime": 1512930016873, "trialdata": {"rt": -1000, "stimulus": "/static/audio/400Hz.wav", "key_press": -1, "type": "PRE_RECALL_ALERT", "trial_type": "single-audio", "trial_index": 40, "time_elapsed": 218201, "internal_node_id": "0.0-31.0"}}, {"uniqueid": "MTK0941:3JW0YLFXRUNQWKNIVCLAAL2D42DWWL", "current_trial": 41, "dateTime": 1512930076881, "trialdata": {"rt": [4022, 12758, 15423, 17279, 20209, 23215, 27783, 36126, 40959, 46771, 59878], "recwords": ["stomach", "dustpan", "scaple", "paper", "pimple", "marker", "hotel", "temple", "thief", "termite", "horse"], "type": "FREE_RECALL", "conditions": [18, 1200, "v", 18000], "trial": 0, "trial_type": "free-recall", "trial_index": 41, "time_elapsed": 278206, "internal_node_id": "0.0-32.0-0.0"}}, {"uniqueid": "MTK0941:3JW0YLFXRUNQWKNIVCLAAL2D42DWWL", "current_trial": 42, "dateTime": 1512930080289, "trialdata": {"rt": 1407, "key_press": 32, "type": "INSTRUCTIONS", "trial_type": "text", "trial_index": 42, "time_elapsed": 281617, "internal_node_id": "0.0-33.0"}}, {"uniqueid": "MTK0941:3JW0YLFXRUNQWKNIVCLAAL2D42DWWL", "current_trial": 43, "dateTime": 1512930100292, "trialdata": {"rt": [3973, 6717, 11420, 15300], "responses": ["16", "17", "20", "14"], "num1": [6, 7, 7, 2, 8], "num2": [1, 4, 9, 3, 3], "num3": [9, 6, 4, 9, 3], "type": "DISTRACTOR", "conditions": [18, 1200, "a", 18000], "trial": 1, "trial_type": "math-distractor", "trial_index": 43, "time_elapsed": 301620, "internal_node_id": "0.0-34.0"}}, {"uniqueid": "MTK0941:3JW0YLFXRUNQWKNIVCLAAL2D42DWWL", "current_trial": 44, "dateTime": 1512930103296, "trialdata": {"rt": -1, "stimulus": "<p id=\"stim\">10</p>", "key_press": -1, "trial_type": "single-stim", "trial_index": 44, "time_elapsed": 304624, "internal_node_id": "0.0-35.0-0.0"}}, {"uniqueid": "MTK0941:3JW0YLFXRUNQWKNIVCLAAL2D42DWWL", "current_trial": 45, "dateTime": 1512930104298, "trialdata": {"rt": -1, "stimulus": "<p id=\"stim\">9</p>", "key_press": -1, "trial_type": "single-stim", "trial_index": 45, "time_elapsed": 305626, "internal_node_id": "0.0-35.0-1.0"}}, {"uniqueid": "MTK0941:3JW0YLFXRUNQWKNIVCLAAL2D42DWWL", "current_trial": 46, "dateTime": 1512930105299, "trialdata": {"rt": -1, "stimulus": "<p id=\"stim\">8</p>", "key_press": -1, "trial_type": "single-stim", "trial_index": 46, "time_elapsed": 306627, "internal_node_id": "0.0-35.0-2.0"}}, {"uniqueid": "MTK0941:3JW0YLFXRUNQWKNIVCLAAL2D42DWWL", "current_trial": 47, "dateTime": 1512930106300, "trialdata": {"rt": -1, "stimulus": "<p id=\"stim\">7</p>", "key_press": -1, "trial_type": "single-stim", "trial_index": 47, "time_elapsed": 307628, "internal_node_id": "0.0-35.0-3.0"}}, {"uniqueid": "MTK0941:3JW0YLFXRUNQWKNIVCLAAL2D42DWWL", "current_trial": 48, "dateTime": 1512930107302, "trialdata": {"rt": -1, "stimulus": "<p id=\"stim\">6</p>", "key_press": -1, "trial_type": "single-stim", "trial_index": 48, "time_elapsed": 308630, "internal_node_id": "0.0-35.0-4.0"}}, {"uniqueid": "MTK0941:3JW0YLFXRUNQWKNIVCLAAL2D42DWWL", "current_trial": 49, "dateTime": 1512930108304, "trialdata": {"rt": -1, "stimulus": "<p id=\"stim\">5</p>", "key_press": -1, "trial_type": "single-stim", "trial_index": 49, "time_elapsed": 309632, "internal_node_id": "0.0-35.0-5.0"}}, {"uniqueid": "MTK0941:3JW0YLFXRUNQWKNIVCLAAL2D42DWWL", "current_trial": 50, "dateTime": 1512930109306, "trialdata": {"rt": -1, "stimulus": "<p id=\"stim\">4</p>", "key_press": -1, "trial_type": "single-stim", "trial_index": 50, "time_elapsed": 310634, "internal_node_id": "0.0-35.0-6.0"}}, {"uniqueid": "MTK0941:3JW0YLFXRUNQWKNIVCLAAL2D42DWWL", "current_trial": 51, "dateTime": 1512930110307, "trialdata": {"rt": -1, "stimulus": "<p id=\"stim\">3</p>", "key_press": -1, "trial_type": "single-stim", "trial_index": 51, "time_elapsed": 311635, "internal_node_id": "0.0-35.0-7.0"}}, {"uniqueid": "MTK0941:3JW0YLFXRUNQWKNIVCLAAL2D42DWWL", "current_trial": 52, "dateTime": 1512930111308, "trialdata": {"rt": -1, "stimulus": "<p id=\"stim\">2</p>", "key_press": -1, "trial_type": "single-stim", "trial_index": 52, "time_elapsed": 312636, "internal_node_id": "0.0-35.0-8.0"}}, {"uniqueid": "MTK0941:3JW0YLFXRUNQWKNIVCLAAL2D42DWWL", "current_trial": 53, "dateTime": 1512930112309, "trialdata": {"rt": -1, "stimulus": "<p id=\"stim\">1</p>", "key_press": -1, "trial_type": "single-stim", "trial_index": 53, "time_elapsed": 313637, "internal_node_id": "0.0-35.0-9.0"}}, {"uniqueid": "MTK0941:3JW0YLFXRUNQWKNIVCLAAL2D42DWWL", "current_trial": 54, "dateTime": 1512930113811, "trialdata": {"rt": -1, "stimulus": "<p id=\"stim\">+</p>", "key_press": -1, "type": "FIXATION", "trial_type": "single-stim", "trial_index": 54, "time_elapsed": 315139, "internal_node_id": "0.0-36.0-0.0"}}, {"uniqueid": "MTK0941:3JW0YLFXRUNQWKNIVCLAAL2D42DWWL", "current_trial": 55, "dateTime": 1512930116140, "trialdata": {"rt": -1000, "stimulus": "/static/audio/wordpool/CLAMP.wav", "key_press": -1, "type": "PRES_AUD", "word": "clamp", "wordID": 315, "conditions": [18, 1200, "a", 18000], "trial": 1, "serialpos": 0, "trial_type": "single-audio", "trial_index": 55, "time_elapsed": 317468, "internal_node_id": "0.0-37.0"}}, {"uniqueid": "MTK0941:3JW0YLFXRUNQWKNIVCLAAL2D42DWWL", "current_trial": 56, "dateTime": 1512930118521, "trialdata": {"rt": -1000, "stimulus": "/static/audio/wordpool/MILDEW.wav", "key_press": -1, "type": "PRES_AUD", "word": "mildew", "wordID": 892, "conditions": [18, 1200, "a", 18000], "trial": 1, "serialpos": 1, "trial_type": "single-audio", "trial_index": 56, "time_elapsed": 319849, "internal_node_id": "0.0-38.0"}}, {"uniqueid": "MTK0941:3JW0YLFXRUNQWKNIVCLAAL2D42DWWL", "current_trial": 57, "dateTime": 1512930120690, "trialdata": {"rt": -1000, "stimulus": "/static/audio/wordpool/BRICK.wav", "key_press": -1, "type": "PRES_AUD", "word": "brick", "wordID": 171, "conditions": [18, 1200, "a", 18000], "trial": 1, "serialpos": 2, "trial_type": "single-audio", "trial_index": 57, "time_elapsed": 322018, "internal_node_id": "0.0-39.0"}}, {"uniqueid": "MTK0941:3JW0YLFXRUNQWKNIVCLAAL2D42DWWL", "current_trial": 58, "dateTime": 1512930122759, "trialdata": {"rt": -1000, "stimulus": "/static/audio/wordpool/ROD.wav", "key_press": -1, "type": "PRES_AUD", "word": "rod", "wordID": 1202, "conditions": [18, 1200, "a", 18000], "trial": 1, "serialpos": 3, "trial_type": "single-audio", "trial_index": 58, "time_elapsed": 324086, "internal_node_id": "0.0-40.0"}}, {"uniqueid": "MTK0941:3JW0YLFXRUNQWKNIVCLAAL2D42DWWL", "current_trial": 59, "dateTime": 1512930124903, "trialdata": {"rt": -1000, "stimulus": "/static/audio/wordpool/CARRIAGE.wav", "key_press": -1, "type": "PRES_AUD", "word": "carriage", "wordID": 247, "conditions": [18, 1200, "a", 18000], "trial": 1, "serialpos": 4, "trial_type": "single-audio", "trial_index": 59, "time_elapsed": 326231, "internal_node_id": "0.0-41.0"}}, {"uniqueid": "MTK0941:3JW0YLFXRUNQWKNIVCLAAL2D42DWWL", "current_trial": 60, "dateTime": 1512930127256, "trialdata": {"rt": -1000, "stimulus": "/static/audio/wordpool/FUNGUS.wav", "key_press": -1, "type": "PRES_AUD", "word": "fungus", "wordID": 613, "conditions": [18, 1200, "a", 18000], "trial": 1, "serialpos": 5, "trial_type": "single-audio", "trial_index": 60, "time_elapsed": 328584, "internal_node_id": "0.0-42.0"}}, {"uniqueid": "MTK0941:3JW0YLFXRUNQWKNIVCLAAL2D42DWWL", "current_trial": 61, "dateTime": 1512930129334, "trialdata": {"rt": -1000, "stimulus": "/static/audio/wordpool/ZEBRA.wav", "key_press": -1, "type": "PRES_AUD", "word": "zebra", "wordID": 1634, "conditions": [18, 1200, "a", 18000], "trial": 1, "serialpos": 6, "trial_type": "single-audio", "trial_index": 61, "time_elapsed": 330661, "internal_node_id": "0.0-43.0"}}, {"uniqueid": "MTK0941:3JW0YLFXRUNQWKNIVCLAAL2D42DWWL", "current_trial": 62, "dateTime": 1512930131482, "trialdata": {"rt": -1000, "stimulus": "/static/audio/wordpool/BACON.wav", "key_press": -1, "type": "PRES_AUD", "word": "bacon", "wordID": 66, "conditions": [18, 1200, "a", 18000], "trial": 1, "serialpos": 7, "trial_type": "single-audio", "trial_index": 62, "time_elapsed": 332809, "internal_node_id": "0.0-44.0"}}, {"uniqueid": "MTK0941:3JW0YLFXRUNQWKNIVCLAAL2D42DWWL", "current_trial": 63, "dateTime": 1512930133821, "trialdata": {"rt": -1000, "stimulus": "/static/audio/wordpool/ICING.wav", "key_press": -1, "type": "PRES_AUD", "word": "icing", "wordID": 731, "conditions": [18, 1200, "a", 18000], "trial": 1, "serialpos": 8, "trial_type": "single-audio", "trial_index": 63, "time_elapsed": 335148, "internal_node_id": "0.0-45.0"}}, {"uniqueid": "MTK0941:3JW0YLFXRUNQWKNIVCLAAL2D42DWWL", "current_trial": 64, "dateTime": 1512930136101, "trialdata": {"rt": -1000, "stimulus": "/static/audio/wordpool/PEACH.wav", "key_press": -1, "type": "PRES_AUD", "word": "peach", "wordID": 1030, "conditions": [18, 1200, "a", 18000], "trial": 1, "serialpos": 9, "trial_type": "single-audio", "trial_index": 64, "time_elapsed": 337429, "internal_node_id": "0.0-46.0"}}, {"uniqueid": "MTK0941:3JW0YLFXRUNQWKNIVCLAAL2D42DWWL", "current_trial": 65, "dateTime": 1512930138281, "trialdata": {"rt": -1000, "stimulus": "/static/audio/wordpool/UNCLE.wav", "key_press": -1, "type": "PRES_AUD", "word": "uncle", "wordID": 1535, "conditions": [18, 1200, "a", 18000], "trial": 1, "serialpos": 10, "trial_type": "single-audio", "trial_index": 65, "time_elapsed": 339609, "internal_node_id": "0.0-47.0"}}, {"uniqueid": "MTK0941:3JW0YLFXRUNQWKNIVCLAAL2D42DWWL", "current_trial": 66, "dateTime": 1512930140370, "trialdata": {"rt": -1000, "stimulus": "/static/audio/wordpool/COUNTRY.wav", "key_press": -1, "type": "PRES_AUD", "word": "country", "wordID": 387, "conditions": [18, 1200, "a", 18000], "trial": 1, "serialpos": 11, "trial_type": "single-audio", "trial_index": 66, "time_elapsed": 341697, "internal_node_id": "0.0-48.0"}}, {"uniqueid": "MTK0941:3JW0YLFXRUNQWKNIVCLAAL2D42DWWL", "current_trial": 67, "dateTime": 1512930142734, "trialdata": {"rt": -1000, "stimulus": "/static/audio/wordpool/FIREMAN.wav", "key_press": -1, "type": "PRES_AUD", "word": "fireman", "wordID": 568, "conditions": [18, 1200, "a", 18000], "trial": 1, "serialpos": 12, "trial_type": "single-audio", "trial_index": 67, "time_elapsed": 344061, "internal_node_id": "0.0-49.0"}}, {"uniqueid": "MTK0941:3JW0YLFXRUNQWKNIVCLAAL2D42DWWL", "current_trial": 68, "dateTime": 1512930144801, "trialdata": {"rt": -1000, "stimulus": "/static/audio/wordpool/SLIME.wav", "key_press": -1, "type": "PRES_AUD", "word": "slime", "wordID": 1326, "conditions": [18, 1200, "a", 18000], "trial": 1, "serialpos": 13, "trial_type": "single-audio", "trial_index": 68, "time_elapsed": 346129, "internal_node_id": "0.0-50.0"}}, {"uniqueid": "MTK0941:3JW0YLFXRUNQWKNIVCLAAL2D42DWWL", "current_trial": 69, "dateTime": 1512930147094, "trialdata": {"rt": -1000, "stimulus": "/static/audio/wordpool/SUNSET.wav", "key_press": -1, "type": "PRES_AUD", "word": "sunset", "wordID": 1407, "conditions": [18, 1200, "a", 18000], "trial": 1, "serialpos": 14, "trial_type": "single-audio", "trial_index": 69, "time_elapsed": 348421, "internal_node_id": "0.0-51.0"}}, {"uniqueid": "MTK0941:3JW0YLFXRUNQWKNIVCLAAL2D42DWWL", "current_trial": 70, "dateTime": 1512930149343, "trialdata": {"rt": -1000, "stimulus": "/static/audio/wordpool/RIFLE.wav", "key_press": -1, "type": "PRES_AUD", "word": "rifle", "wordID": 1191, "conditions": [18, 1200, "a", 18000], "trial": 1, "serialpos": 15, "trial_type": "single-audio", "trial_index": 70, "time_elapsed": 350671, "internal_node_id": "0.0-52.0"}}, {"uniqueid": "MTK0941:3JW0YLFXRUNQWKNIVCLAAL2D42DWWL", "current_trial": 71, "dateTime": 1512930151367, "trialdata": {"rt": -1000, "stimulus": "/static/audio/wordpool/PLUTO.wav", "key_press": -1, "type": "PRES_AUD", "word": "pluto", "wordID": 1091, "conditions": [18, 1200, "a", 18000], "trial": 1, "serialpos": 16, "trial_type": "single-audio", "trial_index": 71, "time_elapsed": 352694, "internal_node_id": "0.0-53.0"}}, {"uniqueid": "MTK0941:3JW0YLFXRUNQWKNIVCLAAL2D42DWWL", "current_trial": 72, "dateTime": 1512930153410, "trialdata": {"rt": -1000, "stimulus": "/static/audio/wordpool/WHISTLE.wav", "key_press": -1, "type": "PRES_AUD", "word": "whistle", "wordID": 1605, "conditions": [18, 1200, "a", 18000], "trial": 1, "serialpos": 17, "trial_type": "single-audio", "trial_index": 72, "time_elapsed": 354738, "internal_node_id": "0.0-54.0"}}, {"uniqueid": "MTK0941:3JW0YLFXRUNQWKNIVCLAAL2D42DWWL", "current_trial": 73, "dateTime": 1512930154633, "trialdata": {"rt": -1, "stimulus": "", "key_press": -1, "type": "PRE_RECALL_DELAY", "trial_type": "single-stim", "trial_index": 73, "time_elapsed": 355961, "internal_node_id": "0.0-55.0-0.0"}}, {"uniqueid": "MTK0941:3JW0YLFXRUNQWKNIVCLAAL2D42DWWL", "current_trial": 74, "dateTime": 1512930155135, "trialdata": {"rt": -1000, "stimulus": "/static/audio/400Hz.wav", "key_press": -1, "type": "PRE_RECALL_ALERT", "trial_type": "single-audio", "trial_index": 74, "time_elapsed": 356462, "internal_node_id": "0.0-56.0"}}, {"uniqueid": "MTK0941:3JW0YLFXRUNQWKNIVCLAAL2D42DWWL", "current_trial": 75, "dateTime": 1512930215141, "trialdata": {"rt": [6024, 7927, 9343, 12439, 15640, 17727, 19807, 22887, 29687, 35719, 48471], "recwords": ["mildew", "brick", "rod", "carrige", "fungus", "zebra", "bacon", "icing", "country", "whistle", "fireman"], "type": "FREE_RECALL", "conditions": [18, 1200, "a", 18000], "trial": 1, "trial_type": "free-recall", "trial_index": 75, "time_elapsed": 416466, "internal_node_id": "0.0-57.0-0.0"}}, {"uniqueid": "MTK0941:3JW0YLFXRUNQWKNIVCLAAL2D42DWWL", "current_trial": 76, "dateTime": 1512930231514, "trialdata": {"rt": 14353, "key_press": 13, "type": "INSTRUCTIONS", "trial_type": "text", "trial_index": 76, "time_elapsed": 432838, "internal_node_id": "0.0-58.0"}}, {"uniqueid": "MTK0941:3JW0YLFXRUNQWKNIVCLAAL2D42DWWL", "current_trial": 77, "dateTime": 1512930256519, "trialdata": {"rt": [3208, 6656, 15505, 17688, 20960], "responses": ["13", "20", "21", "7", "21"], "num1": [1, 7, 8, 3, 7, 5], "num2": [6, 8, 6, 1, 7, 7], "num3": [6, 5, 7, 3, 6, 7], "type": "DISTRACTOR", "conditions": [24, 1600, "v", 24000], "trial": 2, "trial_type": "math-distractor", "trial_index": 77, "time_elapsed": 457847, "internal_node_id": "0.0-59.0"}}, {"uniqueid": "MTK0941:3JW0YLFXRUNQWKNIVCLAAL2D42DWWL", "current_trial": 78, "dateTime": 1512930259523, "trialdata": {"rt": -1, "stimulus": "<p id=\"stim\">10</p>", "key_press": -1, "trial_type": "single-stim", "trial_index": 78, "time_elapsed": 460851, "internal_node_id": "0.0-60.0-0.0"}}, {"uniqueid": "MTK0941:3JW0YLFXRUNQWKNIVCLAAL2D42DWWL", "current_trial": 79, "dateTime": 1512930260524, "trialdata": {"rt": -1, "stimulus": "<p id=\"stim\">9</p>", "key_press": -1, "trial_type": "single-stim", "trial_index": 79, "time_elapsed": 461852, "internal_node_id": "0.0-60.0-1.0"}}, {"uniqueid": "MTK0941:3JW0YLFXRUNQWKNIVCLAAL2D42DWWL", "current_trial": 80, "dateTime": 1512930261525, "trialdata": {"rt": -1, "stimulus": "<p id=\"stim\">8</p>", "key_press": -1, "trial_type": "single-stim", "trial_index": 80, "time_elapsed": 462853, "internal_node_id": "0.0-60.0-2.0"}}, {"uniqueid": "MTK0941:3JW0YLFXRUNQWKNIVCLAAL2D42DWWL", "current_trial": 81, "dateTime": 1512930262526, "trialdata": {"rt": -1, "stimulus": "<p id=\"stim\">7</p>", "key_press": -1, "trial_type": "single-stim", "trial_index": 81, "time_elapsed": 463854, "internal_node_id": "0.0-60.0-3.0"}}, {"uniqueid": "MTK0941:3JW0YLFXRUNQWKNIVCLAAL2D42DWWL", "current_trial": 82, "dateTime": 1512930263528, "trialdata": {"rt": -1, "stimulus": "<p id=\"stim\">6</p>", "key_press": -1, "trial_type": "single-stim", "trial_index": 82, "time_elapsed": 464856, "internal_node_id": "0.0-60.0-4.0"}}, {"uniqueid": "MTK0941:3JW0YLFXRUNQWKNIVCLAAL2D42DWWL", "current_trial": 83, "dateTime": 1512930264529, "trialdata": {"rt": -1, "stimulus": "<p id=\"stim\">5</p>", "key_press": -1, "trial_type": "single-stim", "trial_index": 83, "time_elapsed": 465857, "internal_node_id": "0.0-60.0-5.0"}}, {"uniqueid": "MTK0941:3JW0YLFXRUNQWKNIVCLAAL2D42DWWL", "current_trial": 84, "dateTime": 1512930265531, "trialdata": {"rt": -1, "stimulus": "<p id=\"stim\">4</p>", "key_press": -1, "trial_type": "single-stim", "trial_index": 84, "time_elapsed": 466859, "internal_node_id": "0.0-60.0-6.0"}}, {"uniqueid": "MTK0941:3JW0YLFXRUNQWKNIVCLAAL2D42DWWL", "current_trial": 85, "dateTime": 1512930266532, "trialdata": {"rt": -1, "stimulus": "<p id=\"stim\">3</p>", "key_press": -1, "trial_type": "single-stim", "trial_index": 85, "time_elapsed": 467860, "internal_node_id": "0.0-60.0-7.0"}}, {"uniqueid": "MTK0941:3JW0YLFXRUNQWKNIVCLAAL2D42DWWL", "current_trial": 86, "dateTime": 1512930267536, "trialdata": {"rt": -1, "stimulus": "<p id=\"stim\">2</p>", "key_press": -1, "trial_type": "single-stim", "trial_index": 86, "time_elapsed": 468864, "internal_node_id": "0.0-60.0-8.0"}}, {"uniqueid": "MTK0941:3JW0YLFXRUNQWKNIVCLAAL2D42DWWL", "current_trial": 87, "dateTime": 1512930268541, "trialdata": {"rt": -1, "stimulus": "<p id=\"stim\">1</p>", "key_press": -1, "trial_type": "single-stim", "trial_index": 87, "time_elapsed": 469866, "internal_node_id": "0.0-60.0-9.0"}}, {"uniqueid": "MTK0941:3JW0YLFXRUNQWKNIVCLAAL2D42DWWL", "current_trial": 88, "dateTime": 1512930270041, "trialdata": {"rt": -1, "stimulus": "<p id=\"stim\">+</p>", "key_press": -1, "type": "FIXATION", "trial_type": "single-stim", "trial_index": 88, "time_elapsed": 471369, "internal_node_id": "0.0-61.0-0.0"}}, {"uniqueid": "MTK0941:3JW0YLFXRUNQWKNIVCLAAL2D42DWWL", "current_trial": 89, "dateTime": 1512930271643, "trialdata": {"rt": -1, "stimulus": "<p id=\"stim\">DRESSER</p>", "key_press": -1, "type": "PRES_VIS", "word": "dresser", "wordID": 495, "conditions": [24, 1600, "v", 24000], "trial": 2, "serialpos": 0, "trial_type": "single-stim", "trial_index": 89, "time_elapsed": 472971, "internal_node_id": "0.0-62.0"}}, {"uniqueid": "MTK0941:3JW0YLFXRUNQWKNIVCLAAL2D42DWWL", "current_trial": 90, "dateTime": 1512930274427, "trialdata": {"rt": -1, "stimulus": "<p id=\"stim\">DRIVER</p>", "key_press": -1, "type": "PRES_VIS", "word": "driver", "wordID": 498, "conditions": [24, 1600, "v", 24000], "trial": 2, "serialpos": 1, "trial_type": "single-stim", "trial_index": 90, "time_elapsed": 475755, "internal_node_id": "0.0-63.0"}}, {"uniqueid": "MTK0941:3JW0YLFXRUNQWKNIVCLAAL2D42DWWL", "current_trial": 91, "dateTime": 1512930277122, "trialdata": {"rt": -1, "stimulus": "<p id=\"stim\">TRUCK</p>", "key_press": -1, "type": "PRES_VIS", "word": "truck", "wordID": 1511, "conditions": [24, 1600, "v", 24000], "trial": 2, "serialpos": 2, "trial_type": "single-stim", "trial_index": 91, "time_elapsed": 478450, "internal_node_id": "0.0-64.0"}}, {"uniqueid": "MTK0941:3JW0YLFXRUNQWKNIVCLAAL2D42DWWL", "current_trial": 92, "dateTime": 1512930279525, "trialdata": {"rt": -1, "stimulus": "<p id=\"stim\">POET</p>", "key_press": -1, "type": "PRES_VIS", "word": "poet", "wordID": 1094, "conditions": [24, 1600, "v", 24000], "trial": 2, "serialpos": 3, "trial_type": "single-stim", "trial_index": 92, "time_elapsed": 480853, "internal_node_id": "0.0-65.0"}}, {"uniqueid": "MTK0941:3JW0YLFXRUNQWKNIVCLAAL2D42DWWL", "current_trial": 93, "dateTime": 1512930282281, "trialdata": {"rt": -1, "stimulus": "<p id=\"stim\">WASHER</p>", "key_press": -1, "type": "PRES_VIS", "word": "washer", "wordID": 1591, "conditions": [24, 1600, "v", 24000], "trial": 2, "serialpos": 4, "trial_type": "single-stim", "trial_index": 93, "time_elapsed": 483609, "internal_node_id": "0.0-66.0"}}, {"uniqueid": "MTK0941:3JW0YLFXRUNQWKNIVCLAAL2D42DWWL", "current_trial": 94, "dateTime": 1512930284984, "trialdata": {"rt": -1, "stimulus": "<p id=\"stim\">LIPSTICK</p>", "key_press": -1, "type": "PRES_VIS", "word": "lipstick", "wordID": 828, "conditions": [24, 1600, "v", 24000], "trial": 2, "serialpos": 5, "trial_type": "single-stim", "trial_index": 94, "time_elapsed": 486312, "internal_node_id": "0.0-67.0"}}, {"uniqueid": "MTK0941:3JW0YLFXRUNQWKNIVCLAAL2D42DWWL", "current_trial": 95, "dateTime": 1512930287444, "trialdata": {"rt": -1, "stimulus": "<p id=\"stim\">STAPLE</p>", "key_press": -1, "type": "PRES_VIS", "word": "staple", "wordID": 1370, "conditions": [24, 1600, "v", 24000], "trial": 2, "serialpos": 6, "trial_type": "single-stim", "trial_index": 95, "time_elapsed": 488772, "internal_node_id": "0.0-68.0"}}, {"uniqueid": "MTK0941:3JW0YLFXRUNQWKNIVCLAAL2D42DWWL", "current_trial": 96, "dateTime": 1512930290043, "trialdata": {"rt": -1, "stimulus": "<p id=\"stim\">PASTRY</p>", "key_press": -1, "type": "PRES_VIS", "word": "pastry", "wordID": 1021, "conditions": [24, 1600, "v", 24000], "trial": 2, "serialpos": 7, "trial_type": "single-stim", "trial_index": 96, "time_elapsed": 491371, "internal_node_id": "0.0-69.0"}}, {"uniqueid": "MTK0941:3JW0YLFXRUNQWKNIVCLAAL2D42DWWL", "current_trial": 97, "dateTime": 1512930292483, "trialdata": {"rt": -1, "stimulus": "<p id=\"stim\">TUBA</p>", "key_press": -1, "type": "PRES_VIS", "word": "tuba", "wordID": 1514, "conditions": [24, 1600, "v", 24000], "trial": 2, "serialpos": 8, "trial_type": "single-stim", "trial_index": 97, "time_elapsed": 493811, "internal_node_id": "0.0-70.0"}}, {"uniqueid": "MTK0941:3JW0YLFXRUNQWKNIVCLAAL2D42DWWL", "current_trial": 98, "dateTime": 1512930294901, "trialdata": {"rt": -1, "stimulus": "<p id=\"stim\">ORCHID</p>", "key_press": -1, "type": "PRES_VIS", "word": "orchid", "wordID": 981, "conditions": [24, 1600, "v", 24000], "trial": 2, "serialpos": 9, "trial_type": "single-stim", "trial_index": 98, "time_elapsed": 496229, "internal_node_id": "0.0-71.0"}}, {"uniqueid": "MTK0941:3JW0YLFXRUNQWKNIVCLAAL2D42DWWL", "current_trial": 99, "dateTime": 1512930297517, "trialdata": {"rt": -1, "stimulus": "<p id=\"stim\">DOUGHNUT</p>", "key_press": -1, "type": "PRES_VIS", "word": "doughnut", "wordID": 489, "conditions": [24, 1600, "v", 24000], "trial": 2, "serialpos": 10, "trial_type": "single-stim", "trial_index": 99, "time_elapsed": 498845, "internal_node_id": "0.0-72.0"}}, {"uniqueid": "MTK0941:3JW0YLFXRUNQWKNIVCLAAL2D42DWWL", "current_trial": 100, "dateTime": 1512930300011, "trialdata": {"rt": -1, "stimulus": "<p id=\"stim\">GUITAR</p>", "key_press": -1, "type": "PRES_VIS", "word": "guitar", "wordID": 669, "conditions": [24, 1600, "v", 24000], "trial": 2, "serialpos": 11, "trial_type": "single-stim", "trial_index": 100, "time_elapsed": 501339, "internal_node_id": "0.0-73.0"}}, {"uniqueid": "MTK0941:3JW0YLFXRUNQWKNIVCLAAL2D42DWWL", "current_trial": 101, "dateTime": 1512930302771, "trialdata": {"rt": -1, "stimulus": "<p id=\"stim\">GARBAGE</p>", "key_press": -1, "type": "PRES_VIS", "word": "garbage", "wordID": 621, "conditions": [24, 1600, "v", 24000], "trial": 2, "serialpos": 12, "trial_type": "single-stim", "trial_index": 101, "time_elapsed": 504099, "internal_node_id": "0.0-74.0"}}, {"uniqueid": "MTK0941:3JW0YLFXRUNQWKNIVCLAAL2D42DWWL", "current_trial": 102, "dateTime": 1512930305409, "trialdata": {"rt": -1, "stimulus": "<p id=\"stim\">GYMNAST</p>", "key_press": -1, "type": "PRES_VIS", "word": "gymnast", "wordID": 674, "conditions": [24, 1600, "v", 24000], "trial": 2, "serialpos": 13, "trial_type": "single-stim", "trial_index": 102, "time_elapsed": 506737, "internal_node_id": "0.0-75.0"}}, {"uniqueid": "MTK0941:3JW0YLFXRUNQWKNIVCLAAL2D42DWWL", "current_trial": 103, "dateTime": 1512930308073, "trialdata": {"rt": -1, "stimulus": "<p id=\"stim\">BEAVER</p>", "key_press": -1, "type": "PRES_VIS", "word": "beaver", "wordID": 108, "conditions": [24, 1600, "v", 24000], "trial": 2, "serialpos": 14, "trial_type": "single-stim", "trial_index": 103, "time_elapsed": 509401, "internal_node_id": "0.0-76.0"}}, {"uniqueid": "MTK0941:3JW0YLFXRUNQWKNIVCLAAL2D42DWWL", "current_trial": 104, "dateTime": 1512930310616, "trialdata": {"rt": -1, "stimulus": "<p id=\"stim\">STOVE</p>", "key_press": -1, "type": "PRES_VIS", "word": "stove", "wordID": 1387, "conditions": [24, 1600, "v", 24000], "trial": 2, "serialpos": 15, "trial_type": "single-stim", "trial_index": 104, "time_elapsed": 511944, "internal_node_id": "0.0-77.0"}}, {"uniqueid": "MTK0941:3JW0YLFXRUNQWKNIVCLAAL2D42DWWL", "current_trial": 105, "dateTime": 1512930313263, "trialdata": {"rt": -1, "stimulus": "<p id=\"stim\">PERFUME</p>", "key_press": -1, "type": "PRES_VIS", "word": "perfume", "wordID": 1048, "conditions": [24, 1600, "v", 24000], "trial": 2, "serialpos": 16, "trial_type": "single-stim", "trial_index": 105, "time_elapsed": 514591, "internal_node_id": "0.0-78.0"}}, {"uniqueid": "MTK0941:3JW0YLFXRUNQWKNIVCLAAL2D42DWWL", "current_trial": 106, "dateTime": 1512930315804, "trialdata": {"rt": -1, "stimulus": "<p id=\"stim\">VALVE</p>", "key_press": -1, "type": "PRES_VIS", "word": "valve", "wordID": 1545, "conditions": [24, 1600, "v", 24000], "trial": 2, "serialpos": 17, "trial_type": "single-stim", "trial_index": 106, "time_elapsed": 517132, "internal_node_id": "0.0-79.0"}}, {"uniqueid": "MTK0941:3JW0YLFXRUNQWKNIVCLAAL2D42DWWL", "current_trial": 107, "dateTime": 1512930318555, "trialdata": {"rt": -1, "stimulus": "<p id=\"stim\">BUTCHER</p>", "key_press": -1, "type": "PRES_VIS", "word": "butcher", "wordID": 202, "conditions": [24, 1600, "v", 24000], "trial": 2, "serialpos": 18, "trial_type": "single-stim", "trial_index": 107, "time_elapsed": 519883, "internal_node_id": "0.0-80.0"}}, {"uniqueid": "MTK0941:3JW0YLFXRUNQWKNIVCLAAL2D42DWWL", "current_trial": 108, "dateTime": 1512930321287, "trialdata": {"rt": -1, "stimulus": "<p id=\"stim\">KITCHEN</p>", "key_press": -1, "type": "PRES_VIS", "word": "kitchen", "wordID": 777, "conditions": [24, 1600, "v", 24000], "trial": 2, "serialpos": 19, "trial_type": "single-stim", "trial_index": 108, "time_elapsed": 522615, "internal_node_id": "0.0-81.0"}}, {"uniqueid": "MTK0941:3JW0YLFXRUNQWKNIVCLAAL2D42DWWL", "current_trial": 109, "dateTime": 1512930324006, "trialdata": {"rt": -1, "stimulus": "<p id=\"stim\">FRAGRANCE</p>", "key_press": -1, "type": "PRES_VIS", "word": "fragrance", "wordID": 598, "conditions": [24, 1600, "v", 24000], "trial": 2, "serialpos": 20, "trial_type": "single-stim", "trial_index": 109, "time_elapsed": 525334, "internal_node_id": "0.0-82.0"}}, {"uniqueid": "MTK0941:3JW0YLFXRUNQWKNIVCLAAL2D42DWWL", "current_trial": 110, "dateTime": 1512930326474, "trialdata": {"rt": -1, "stimulus": "<p id=\"stim\">ROOSTER</p>", "key_press": -1, "type": "PRES_VIS", "word": "rooster", "wordID": 1208, "conditions": [24, 1600, "v", 24000], "trial": 2, "serialpos": 21, "trial_type": "single-stim", "trial_index": 110, "time_elapsed": 527802, "internal_node_id": "0.0-83.0"}}, {"uniqueid": "MTK0941:3JW0YLFXRUNQWKNIVCLAAL2D42DWWL", "current_trial": 111, "dateTime": 1512930329099, "trialdata": {"rt": -1, "stimulus": "<p id=\"stim\">RABBIT</p>", "key_press": -1, "type": "PRES_VIS", "word": "rabbit", "wordID": 1151, "conditions": [24, 1600, "v", 24000], "trial": 2, "serialpos": 22, "trial_type": "single-stim", "trial_index": 111, "time_elapsed": 530427, "internal_node_id": "0.0-84.0"}}, {"uniqueid": "MTK0941:3JW0YLFXRUNQWKNIVCLAAL2D42DWWL", "current_trial": 112, "dateTime": 1512930331841, "trialdata": {"rt": -1, "stimulus": "<p id=\"stim\">CLAM</p>", "key_press": -1, "type": "PRES_VIS", "word": "clam", "wordID": 314, "conditions": [24, 1600, "v", 24000], "trial": 2, "serialpos": 23, "trial_type": "single-stim", "trial_index": 112, "time_elapsed": 533169, "internal_node_id": "0.0-85.0"}}, {"uniqueid": "MTK0941:3JW0YLFXRUNQWKNIVCLAAL2D42DWWL", "current_trial": 113, "dateTime": 1512930334009, "trialdata": {"rt": -1, "stimulus": "", "key_press": -1, "type": "PRE_RECALL_DELAY", "trial_type": "single-stim", "trial_index": 113, "time_elapsed": 535337, "internal_node_id": "0.0-86.0-0.0"}}, {"uniqueid": "MTK0941:3JW0YLFXRUNQWKNIVCLAAL2D42DWWL", "current_trial": 114, "dateTime": 1512930334512, "trialdata": {"rt": -1000, "stimulus": "/static/audio/400Hz.wav", "key_press": -1, "type": "PRE_RECALL_ALERT", "trial_type": "single-audio", "trial_index": 114, "time_elapsed": 535840, "internal_node_id": "0.0-87.0"}}, {"uniqueid": "MTK0941:3JW0YLFXRUNQWKNIVCLAAL2D42DWWL", "current_trial": 115, "dateTime": 1512930394518, "trialdata": {"rt": [3005, 4933, 7302, 9653, 12568, 17077, 18789, 20261, 23885, 27877, 33996], "recwords": ["clam", "rooster", "rabbit", "kitchen", "butcher", "dresser", "driver", "truck", "poet", "washer", "donut"], "type": "FREE_RECALL", "conditions": [24, 1600, "v", 24000], "trial": 2, "trial_type": "free-recall", "trial_index": 115, "time_elapsed": 595841, "internal_node_id": "0.0-88.0-0.0"}}, {"uniqueid": "MTK0941:3JW0YLFXRUNQWKNIVCLAAL2D42DWWL", "current_trial": 116, "dateTime": 1512930398342, "trialdata": {"rt": 1822, "key_press": 32, "type": "INSTRUCTIONS", "trial_type": "text", "trial_index": 116, "time_elapsed": 599670, "internal_node_id": "0.0-89.0"}}, {"uniqueid": "MTK0941:3JW0YLFXRUNQWKNIVCLAAL2D42DWWL", "current_trial": 117, "dateTime": 1512930412346, "trialdata": {"rt": [4685, 8564, 11332], "responses": ["17", "13", "9"], "num1": [5, 4, 4, 8], "num2": [4, 2, 1, 7], "num3": [8, 7, 5, 2], "type": "DISTRACTOR", "conditions": [24, 800, "a", 12000], "trial": 3, "trial_type": "math-distractor", "trial_index": 117, "time_elapsed": 613673, "internal_node_id": "0.0-90.0"}}, {"uniqueid": "MTK0941:3JW0YLFXRUNQWKNIVCLAAL2D42DWWL", "current_trial": 118, "dateTime": 1512930415347, "trialdata": {"rt": -1, "stimulus": "<p id=\"stim\">10</p>", "key_press": -1, "trial_type": "single-stim", "trial_index": 118, "time_elapsed": 616675, "internal_node_id": "0.0-91.0-0.0"}}, {"uniqueid": "MTK0941:3JW0YLFXRUNQWKNIVCLAAL2D42DWWL", "current_trial": 119, "dateTime": 1512930416348, "trialdata": {"rt": -1, "stimulus": "<p id=\"stim\">9</p>", "key_press": -1, "trial_type": "single-stim", "trial_index": 119, "time_elapsed": 617676, "internal_node_id": "0.0-91.0-1.0"}}, {"uniqueid": "MTK0941:3JW0YLFXRUNQWKNIVCLAAL2D42DWWL", "current_trial": 120, "dateTime": 1512930417350, "trialdata": {"rt": -1, "stimulus": "<p id=\"stim\">8</p>", "key_press": -1, "trial_type": "single-stim", "trial_index": 120, "time_elapsed": 618678, "internal_node_id": "0.0-91.0-2.0"}}, {"uniqueid": "MTK0941:3JW0YLFXRUNQWKNIVCLAAL2D42DWWL", "current_trial": 121, "dateTime": 1512930418351, "trialdata": {"rt": -1, "stimulus": "<p id=\"stim\">7</p>", "key_press": -1, "trial_type": "single-stim", "trial_index": 121, "time_elapsed": 619679, "internal_node_id": "0.0-91.0-3.0"}}, {"uniqueid": "MTK0941:3JW0YLFXRUNQWKNIVCLAAL2D42DWWL", "current_trial": 122, "dateTime": 1512930419352, "trialdata": {"rt": -1, "stimulus": "<p id=\"stim\">6</p>", "key_press": -1, "trial_type": "single-stim", "trial_index": 122, "time_elapsed": 620680, "internal_node_id": "0.0-91.0-4.0"}}, {"uniqueid": "MTK0941:3JW0YLFXRUNQWKNIVCLAAL2D42DWWL", "current_trial": 123, "dateTime": 1512930420354, "trialdata": {"rt": -1, "stimulus": "<p id=\"stim\">5</p>", "key_press": -1, "trial_type": "single-stim", "trial_index": 123, "time_elapsed": 621682, "internal_node_id": "0.0-91.0-5.0"}}, {"uniqueid": "MTK0941:3JW0YLFXRUNQWKNIVCLAAL2D42DWWL", "current_trial": 124, "dateTime": 1512930421355, "trialdata": {"rt": -1, "stimulus": "<p id=\"stim\">4</p>", "key_press": -1, "trial_type": "single-stim", "trial_index": 124, "time_elapsed": 622683, "internal_node_id": "0.0-91.0-6.0"}}, {"uniqueid": "MTK0941:3JW0YLFXRUNQWKNIVCLAAL2D42DWWL", "current_trial": 125, "dateTime": 1512930422356, "trialdata": {"rt": -1, "stimulus": "<p id=\"stim\">3</p>", "key_press": -1, "trial_type": "single-stim", "trial_index": 125, "time_elapsed": 623684, "internal_node_id": "0.0-91.0-7.0"}}, {"uniqueid": "MTK0941:3JW0YLFXRUNQWKNIVCLAAL2D42DWWL", "current_trial": 126, "dateTime": 1512930423358, "trialdata": {"rt": -1, "stimulus": "<p id=\"stim\">2</p>", "key_press": -1, "trial_type": "single-stim", "trial_index": 126, "time_elapsed": 624686, "internal_node_id": "0.0-91.0-8.0"}}, {"uniqueid": "MTK0941:3JW0YLFXRUNQWKNIVCLAAL2D42DWWL", "current_trial": 127, "dateTime": 1512930424359, "trialdata": {"rt": -1, "stimulus": "<p id=\"stim\">1</p>", "key_press": -1, "trial_type": "single-stim", "trial_index": 127, "time_elapsed": 625687, "internal_node_id": "0.0-91.0-9.0"}}, {"uniqueid": "MTK0941:3JW0YLFXRUNQWKNIVCLAAL2D42DWWL", "current_trial": 128, "dateTime": 1512930425860, "trialdata": {"rt": -1, "stimulus": "<p id=\"stim\">+</p>", "key_press": -1, "type": "FIXATION", "trial_type": "single-stim", "trial_index": 128, "time_elapsed": 627188, "internal_node_id": "0.0-92.0-0.0"}}, {"uniqueid": "MTK0941:3JW0YLFXRUNQWKNIVCLAAL2D42DWWL", "current_trial": 129, "dateTime": 1512930427776, "trialdata": {"rt": -1000, "stimulus": "/static/audio/wordpool/ROBIN.wav", "key_press": -1, "type": "PRES_AUD", "word": "robin", "wordID": 1198, "conditions": [24, 800, "a", 12000], "trial": 3, "serialpos": 0, "trial_type": "single-audio", "trial_index": 129, "time_elapsed": 629103, "internal_node_id": "0.0-93.0"}}, {"uniqueid": "MTK0941:3JW0YLFXRUNQWKNIVCLAAL2D42DWWL", "current_trial": 130, "dateTime": 1512930429563, "trialdata": {"rt": -1000, "stimulus": "/static/audio/wordpool/LABEL.wav", "key_press": -1, "type": "PRES_AUD", "word": "label", "wordID": 789, "conditions": [24, 800, "a", 12000], "trial": 3, "serialpos": 1, "trial_type": "single-audio", "trial_index": 130, "time_elapsed": 630890, "internal_node_id": "0.0-94.0"}}, {"uniqueid": "MTK0941:3JW0YLFXRUNQWKNIVCLAAL2D42DWWL", "current_trial": 131, "dateTime": 1512930431464, "trialdata": {"rt": -1000, "stimulus": "/static/audio/wordpool/RADISH.wav", "key_press": -1, "type": "PRES_AUD", "word": "radish", "wordID": 1157, "conditions": [24, 800, "a", 12000], "trial": 3, "serialpos": 2, "trial_type": "single-audio", "trial_index": 131, "time_elapsed": 632792, "internal_node_id": "0.0-95.0"}}, {"uniqueid": "MTK0941:3JW0YLFXRUNQWKNIVCLAAL2D42DWWL", "current_trial": 132, "dateTime": 1512930433247, "trialdata": {"rt": -1000, "stimulus": "/static/audio/wordpool/SCALLOP.wav", "key_press": -1, "type": "PRES_AUD", "word": "scallop", "wordID": 1241, "conditions": [24, 800, "a", 12000], "trial": 3, "serialpos": 3, "trial_type": "single-audio", "trial_index": 132, "time_elapsed": 634575, "internal_node_id": "0.0-96.0"}}, {"uniqueid": "MTK0941:3JW0YLFXRUNQWKNIVCLAAL2D42DWWL", "current_trial": 133, "dateTime": 1512930434863, "trialdata": {"rt": -1000, "stimulus": "/static/audio/wordpool/RECORD.wav", "key_press": -1, "type": "PRES_AUD", "word": "record", "wordID": 1175, "conditions": [24, 800, "a", 12000], "trial": 3, "serialpos": 4, "trial_type": "single-audio", "trial_index": 133, "time_elapsed": 636190, "internal_node_id": "0.0-97.0"}}, {"uniqueid": "MTK0941:3JW0YLFXRUNQWKNIVCLAAL2D42DWWL", "current_trial": 134, "dateTime": 1512930436674, "trialdata": {"rt": -1000, "stimulus": "/static/audio/wordpool/STATUE.wav", "key_press": -1, "type": "PRES_AUD", "word": "statue", "wordID": 1373, "conditions": [24, 800, "a", 12000], "trial": 3, "serialpos": 5, "trial_type": "single-audio", "trial_index": 134, "time_elapsed": 638002, "internal_node_id": "0.0-98.0"}}, {"uniqueid": "MTK0941:3JW0YLFXRUNQWKNIVCLAAL2D42DWWL", "current_trial": 135, "dateTime": 1512930438311, "trialdata": {"rt": -1000, "stimulus": "/static/audio/wordpool/COUCH.wav", "key_press": -1, "type": "PRES_AUD", "word": "couch", "wordID": 385, "conditions": [24, 800, "a", 12000], "trial": 3, "serialpos": 6, "trial_type": "single-audio", "trial_index": 135, "time_elapsed": 639639, "internal_node_id": "0.0-99.0"}}, {"uniqueid": "MTK0941:3JW0YLFXRUNQWKNIVCLAAL2D42DWWL", "current_trial": 136, "dateTime": 1512930440225, "trialdata": {"rt": -1000, "stimulus": "/static/audio/wordpool/MAMMAL.wav", "key_press": -1, "type": "PRES_AUD", "word": "mammal", "wordID": 860, "conditions": [24, 800, "a", 12000], "trial": 3, "serialpos": 7, "trial_type": "single-audio", "trial_index": 136, "time_elapsed": 641552, "internal_node_id": "0.0-100.0"}}, {"uniqueid": "MTK0941:3JW0YLFXRUNQWKNIVCLAAL2D42DWWL", "current_trial": 137, "dateTime": 1512930441867, "trialdata": {"rt": -1000, "stimulus": "/static/audio/wordpool/DOLPHIN.wav", "key_press": -1, "type": "PRES_AUD", "word": "dolphin", "wordID": 482, "conditions": [24, 800, "a", 12000], "trial": 3, "serialpos": 8, "trial_type": "single-audio", "trial_index": 137, "time_elapsed": 643195, "internal_node_id": "0.0-101.0"}}, {"uniqueid": "MTK0941:3JW0YLFXRUNQWKNIVCLAAL2D42DWWL", "current_trial": 138, "dateTime": 1512930443618, "trialdata": {"rt": -1000, "stimulus": "/static/audio/wordpool/YARN.wav", "key_press": -1, "type": "PRES_AUD", "word": "yarn", "wordID": 1630, "conditions": [24, 800, "a", 12000], "trial": 3, "serialpos": 9, "trial_type": "single-audio", "trial_index": 138, "time_elapsed": 644946, "internal_node_id": "0.0-102.0"}}, {"uniqueid": "MTK0941:3JW0YLFXRUNQWKNIVCLAAL2D42DWWL", "current_trial": 139, "dateTime": 1512930445274, "trialdata": {"rt": -1000, "stimulus": "/static/audio/wordpool/BACKBONE.wav", "key_press": -1, "type": "PRES_AUD", "word": "backbone", "wordID": 65, "conditions": [24, 800, "a", 12000], "trial": 3, "serialpos": 10, "trial_type": "single-audio", "trial_index": 139, "time_elapsed": 646602, "internal_node_id": "0.0-103.0"}}, {"uniqueid": "MTK0941:3JW0YLFXRUNQWKNIVCLAAL2D42DWWL", "current_trial": 140, "dateTime": 1512930446877, "trialdata": {"rt": -1000, "stimulus": "/static/audio/wordpool/TOMBSTONE.wav", "key_press": -1, "type": "PRES_AUD", "word": "tombstone", "wordID": 1477, "conditions": [24, 800, "a", 12000], "trial": 3, "serialpos": 11, "trial_type": "single-audio", "trial_index": 140, "time_elapsed": 648205, "internal_node_id": "0.0-104.0"}}, {"uniqueid": "MTK0941:3JW0YLFXRUNQWKNIVCLAAL2D42DWWL", "current_trial": 141, "dateTime": 1512930448751, "trialdata": {"rt": -1000, "stimulus": "/static/audio/wordpool/LASER.wav", "key_press": -1, "type": "PRES_AUD", "word": "laser", "wordID": 800, "conditions": [24, 800, "a", 12000], "trial": 3, "serialpos": 12, "trial_type": "single-audio", "trial_index": 141, "time_elapsed": 650079, "internal_node_id": "0.0-105.0"}}, {"uniqueid": "MTK0941:3JW0YLFXRUNQWKNIVCLAAL2D42DWWL", "current_trial": 142, "dateTime": 1512930450353, "trialdata": {"rt": -1000, "stimulus": "/static/audio/wordpool/SUITCASE.wav", "key_press": -1, "type": "PRES_AUD", "word": "suitcase", "wordID": 1402, "conditions": [24, 800, "a", 12000], "trial": 3, "serialpos": 13, "trial_type": "single-audio", "trial_index": 142, "time_elapsed": 651681, "internal_node_id": "0.0-106.0"}}, {"uniqueid": "MTK0941:3JW0YLFXRUNQWKNIVCLAAL2D42DWWL", "current_trial": 143, "dateTime": 1512930452146, "trialdata": {"rt": -1000, "stimulus": "/static/audio/wordpool/BLADE.wav", "key_press": -1, "type": "PRES_AUD", "word": "blade", "wordID": 133, "conditions": [24, 800, "a", 12000], "trial": 3, "serialpos": 14, "trial_type": "single-audio", "trial_index": 143, "time_elapsed": 653474, "internal_node_id": "0.0-107.0"}}, {"uniqueid": "MTK0941:3JW0YLFXRUNQWKNIVCLAAL2D42DWWL", "current_trial": 144, "dateTime": 1512930454000, "trialdata": {"rt": -1000, "stimulus": "/static/audio/wordpool/THREAD.wav", "key_press": -1, "type": "PRES_AUD", "word": "thread", "wordID": 1459, "conditions": [24, 800, "a", 12000], "trial": 3, "serialpos": 15, "trial_type": "single-audio", "trial_index": 144, "time_elapsed": 655328, "internal_node_id": "0.0-108.0"}}, {"uniqueid": "MTK0941:3JW0YLFXRUNQWKNIVCLAAL2D42DWWL", "current_trial": 145, "dateTime": 1512930455900, "trialdata": {"rt": -1000, "stimulus": "/static/audio/wordpool/FINGER.wav", "key_press": -1, "type": "PRES_AUD", "word": "finger", "wordID": 566, "conditions": [24, 800, "a", 12000], "trial": 3, "serialpos": 16, "trial_type": "single-audio", "trial_index": 145, "time_elapsed": 657228, "internal_node_id": "0.0-109.0"}}, {"uniqueid": "MTK0941:3JW0YLFXRUNQWKNIVCLAAL2D42DWWL", "current_trial": 146, "dateTime": 1512930457837, "trialdata": {"rt": -1000, "stimulus": "/static/audio/wordpool/TABLE.wav", "key_press": -1, "type": "PRES_AUD", "word": "table", "wordID": 1425, "conditions": [24, 800, "a", 12000], "trial": 3, "serialpos": 17, "trial_type": "single-audio", "trial_index": 146, "time_elapsed": 659164, "internal_node_id": "0.0-110.0"}}, {"uniqueid": "MTK0941:3JW0YLFXRUNQWKNIVCLAAL2D42DWWL", "current_trial": 147, "dateTime": 1512930459567, "trialdata": {"rt": -1000, "stimulus": "/static/audio/wordpool/BUREAU.wav", "key_press": -1, "type": "PRES_AUD", "word": "bureau", "wordID": 198, "conditions": [24, 800, "a", 12000], "trial": 3, "serialpos": 18, "trial_type": "single-audio", "trial_index": 147, "time_elapsed": 660895, "internal_node_id": "0.0-111.0"}}, {"uniqueid": "MTK0941:3JW0YLFXRUNQWKNIVCLAAL2D42DWWL", "current_trial": 148, "dateTime": 1512930461319, "trialdata": {"rt": -1000, "stimulus": "/static/audio/wordpool/ANTLER.wav", "key_press": -1, "type": "PRES_AUD", "word": "antler", "wordID": 28, "conditions": [24, 800, "a", 12000], "trial": 3, "serialpos": 19, "trial_type": "single-audio", "trial_index": 148, "time_elapsed": 662647, "internal_node_id": "0.0-112.0"}}, {"uniqueid": "MTK0941:3JW0YLFXRUNQWKNIVCLAAL2D42DWWL", "current_trial": 149, "dateTime": 1512930463306, "trialdata": {"rt": -1000, "stimulus": "/static/audio/wordpool/HANDBAG.wav", "key_press": -1, "type": "PRES_AUD", "word": "handbag", "wordID": 683, "conditions": [24, 800, "a", 12000], "trial": 3, "serialpos": 20, "trial_type": "single-audio", "trial_index": 149, "time_elapsed": 664634, "internal_node_id": "0.0-113.0"}}, {"uniqueid": "MTK0941:3JW0YLFXRUNQWKNIVCLAAL2D42DWWL", "current_trial": 150, "dateTime": 1512930464974, "trialdata": {"rt": -1000, "stimulus": "/static/audio/wordpool/SHERIFF.wav", "key_press": -1, "type": "PRES_AUD", "word": "sheriff", "wordID": 1283, "conditions": [24, 800, "a", 12000], "trial": 3, "serialpos": 21, "trial_type": "single-audio", "trial_index": 150, "time_elapsed": 666302, "internal_node_id": "0.0-114.0"}}, {"uniqueid": "MTK0941:3JW0YLFXRUNQWKNIVCLAAL2D42DWWL", "current_trial": 151, "dateTime": 1512930466665, "trialdata": {"rt": -1000, "stimulus": "/static/audio/wordpool/CHAPEL.wav", "key_press": -1, "type": "PRES_AUD", "word": "chapel", "wordID": 279, "conditions": [24, 800, "a", 12000], "trial": 3, "serialpos": 22, "trial_type": "single-audio", "trial_index": 151, "time_elapsed": 667993, "internal_node_id": "0.0-115.0"}}, {"uniqueid": "MTK0941:3JW0YLFXRUNQWKNIVCLAAL2D42DWWL", "current_trial": 152, "dateTime": 1512930468454, "trialdata": {"rt": -1000, "stimulus": "/static/audio/wordpool/CHURCH.wav", "key_press": -1, "type": "PRES_AUD", "word": "church", "wordID": 306, "conditions": [24, 800, "a", 12000], "trial": 3, "serialpos": 23, "trial_type": "single-audio", "trial_index": 152, "time_elapsed": 669782, "internal_node_id": "0.0-116.0"}}, {"uniqueid": "MTK0941:3JW0YLFXRUNQWKNIVCLAAL2D42DWWL", "current_trial": 153, "dateTime": 1512930469771, "trialdata": {"rt": -1, "stimulus": "", "key_press": -1, "type": "PRE_RECALL_DELAY", "trial_type": "single-stim", "trial_index": 153, "time_elapsed": 671099, "internal_node_id": "0.0-117.0-0.0"}}, {"uniqueid": "MTK0941:3JW0YLFXRUNQWKNIVCLAAL2D42DWWL", "current_trial": 154, "dateTime": 1512930470273, "trialdata": {"rt": -1000, "stimulus": "/static/audio/400Hz.wav", "key_press": -1, "type": "PRE_RECALL_ALERT", "trial_type": "single-audio", "trial_index": 154, "time_elapsed": 671601, "internal_node_id": "0.0-118.0"}}, {"uniqueid": "MTK0941:3JW0YLFXRUNQWKNIVCLAAL2D42DWWL", "current_trial": 155, "dateTime": 1512930530282, "trialdata": {"rt": [2706, 9034, 11906, 13914, 15450, 18162, 20282, 23026, 28801, 32497, 35017, 41690, 47201, 54273], "recwords": ["church", "sherrif", "chapel", "", "euro", "label", "robin", "label", "scallop", "couch", "dolfin", "tomb", "finer", "sofa"], "type": "FREE_RECALL", "conditions": [24, 800, "a", 12000], "trial": 3, "trial_type": "free-recall", "trial_index": 155, "time_elapsed": 731604, "internal_node_id": "0.0-119.0-0.0"}}, {"uniqueid": "MTK0941:3JW0YLFXRUNQWKNIVCLAAL2D42DWWL", "current_trial": 156, "dateTime": 1512930534348, "trialdata": {"rt": 2063, "key_press": 13, "type": "INSTRUCTIONS", "trial_type": "text", "trial_index": 156, "time_elapsed": 735676, "internal_node_id": "0.0-120.0"}}, {"uniqueid": "MTK0941:3JW0YLFXRUNQWKNIVCLAAL2D42DWWL", "current_trial": 157, "dateTime": 1512930560351, "trialdata": {"rt": [7268, 9291, 11412, 14733, 17452, 19204, 22364], "responses": ["23", "10", "16", "13", "10", "17", "19"], "num1": [7, 5, 7, 5, 4, 7, 9, 5], "num2": [7, 2, 1, 6, 3, 9, 8, 3], "num3": [9, 3, 8, 2, 3, 1, 2, 6], "type": "DISTRACTOR", "conditions": [12, 800, "v", 24000], "trial": 4, "trial_type": "math-distractor", "trial_index": 157, "time_elapsed": 761679, "internal_node_id": "0.0-121.0"}}, {"uniqueid": "MTK0941:3JW0YLFXRUNQWKNIVCLAAL2D42DWWL", "current_trial": 158, "dateTime": 1512930563354, "trialdata": {"rt": -1, "stimulus": "<p id=\"stim\">10</p>", "key_press": -1, "trial_type": "single-stim", "trial_index": 158, "time_elapsed": 764682, "internal_node_id": "0.0-122.0-0.0"}}, {"uniqueid": "MTK0941:3JW0YLFXRUNQWKNIVCLAAL2D42DWWL", "current_trial": 159, "dateTime": 1512930564356, "trialdata": {"rt": -1, "stimulus": "<p id=\"stim\">9</p>", "key_press": -1, "trial_type": "single-stim", "trial_index": 159, "time_elapsed": 765684, "internal_node_id": "0.0-122.0-1.0"}}, {"uniqueid": "MTK0941:3JW0YLFXRUNQWKNIVCLAAL2D42DWWL", "current_trial": 160, "dateTime": 1512930565357, "trialdata": {"rt": -1, "stimulus": "<p id=\"stim\">8</p>", "key_press": -1, "trial_type": "single-stim", "trial_index": 160, "time_elapsed": 766685, "internal_node_id": "0.0-122.0-2.0"}}, {"uniqueid": "MTK0941:3JW0YLFXRUNQWKNIVCLAAL2D42DWWL", "current_trial": 161, "dateTime": 1512930566358, "trialdata": {"rt": -1, "stimulus": "<p id=\"stim\">7</p>", "key_press": -1, "trial_type": "single-stim", "trial_index": 161, "time_elapsed": 767686, "internal_node_id": "0.0-122.0-3.0"}}, {"uniqueid": "MTK0941:3JW0YLFXRUNQWKNIVCLAAL2D42DWWL", "current_trial": 162, "dateTime": 1512930567361, "trialdata": {"rt": -1, "stimulus": "<p id=\"stim\">6</p>", "key_press": -1, "trial_type": "single-stim", "trial_index": 162, "time_elapsed": 768689, "internal_node_id": "0.0-122.0-4.0"}}, {"uniqueid": "MTK0941:3JW0YLFXRUNQWKNIVCLAAL2D42DWWL", "current_trial": 163, "dateTime": 1512930568362, "trialdata": {"rt": -1, "stimulus": "<p id=\"stim\">5</p>", "key_press": -1, "trial_type": "single-stim", "trial_index": 163, "time_elapsed": 769690, "internal_node_id": "0.0-122.0-5.0"}}, {"uniqueid": "MTK0941:3JW0YLFXRUNQWKNIVCLAAL2D42DWWL", "current_trial": 164, "dateTime": 1512930569364, "trialdata": {"rt": -1, "stimulus": "<p id=\"stim\">4</p>", "key_press": -1, "trial_type": "single-stim", "trial_index": 164, "time_elapsed": 770692, "internal_node_id": "0.0-122.0-6.0"}}, {"uniqueid": "MTK0941:3JW0YLFXRUNQWKNIVCLAAL2D42DWWL", "current_trial": 165, "dateTime": 1512930570365, "trialdata": {"rt": -1, "stimulus": "<p id=\"stim\">3</p>", "key_press": -1, "trial_type": "single-stim", "trial_index": 165, "time_elapsed": 771693, "internal_node_id": "0.0-122.0-7.0"}}, {"uniqueid": "MTK0941:3JW0YLFXRUNQWKNIVCLAAL2D42DWWL", "current_trial": 166, "dateTime": 1512930571367, "trialdata": {"rt": -1, "stimulus": "<p id=\"stim\">2</p>", "key_press": -1, "trial_type": "single-stim", "trial_index": 166, "time_elapsed": 772695, "internal_node_id": "0.0-122.0-8.0"}}, {"uniqueid": "MTK0941:3JW0YLFXRUNQWKNIVCLAAL2D42DWWL", "current_trial": 167, "dateTime": 1512930572368, "trialdata": {"rt": -1, "stimulus": "<p id=\"stim\">1</p>", "key_press": -1, "trial_type": "single-stim", "trial_index": 167, "time_elapsed": 773696, "internal_node_id": "0.0-122.0-9.0"}}, {"uniqueid": "MTK0941:3JW0YLFXRUNQWKNIVCLAAL2D42DWWL", "current_trial": 168, "dateTime": 1512930573870, "trialdata": {"rt": -1, "stimulus": "<p id=\"stim\">+</p>", "key_press": -1, "type": "FIXATION", "trial_type": "single-stim", "trial_index": 168, "time_elapsed": 775198, "internal_node_id": "0.0-123.0-0.0"}}, {"uniqueid": "MTK0941:3JW0YLFXRUNQWKNIVCLAAL2D42DWWL", "current_trial": 169, "dateTime": 1512930574672, "trialdata": {"rt": -1, "stimulus": "<p id=\"stim\">CANYON</p>", "key_press": -1, "type": "PRES_VIS", "word": "canyon", "wordID": 234, "conditions": [12, 800, "v", 24000], "trial": 4, "serialpos": 0, "trial_type": "single-stim", "trial_index": 169, "time_elapsed": 776000, "internal_node_id": "0.0-124.0"}}, {"uniqueid": "MTK0941:3JW0YLFXRUNQWKNIVCLAAL2D42DWWL", "current_trial": 170, "dateTime": 1512930576444, "trialdata": {"rt": -1, "stimulus": "<p id=\"stim\">VALLEY</p>", "key_press": -1, "type": "PRES_VIS", "word": "valley", "wordID": 1544, "conditions": [12, 800, "v", 24000], "trial": 4, "serialpos": 1, "trial_type": "single-stim", "trial_index": 170, "time_elapsed": 777772, "internal_node_id": "0.0-125.0"}}, {"uniqueid": "MTK0941:3JW0YLFXRUNQWKNIVCLAAL2D42DWWL", "current_trial": 171, "dateTime": 1512930578208, "trialdata": {"rt": -1, "stimulus": "<p id=\"stim\">HELMET</p>", "key_press": -1, "type": "PRES_VIS", "word": "helmet", "wordID": 701, "conditions": [12, 800, "v", 24000], "trial": 4, "serialpos": 2, "trial_type": "single-stim", "trial_index": 171, "time_elapsed": 779536, "internal_node_id": "0.0-126.0"}}, {"uniqueid": "MTK0941:3JW0YLFXRUNQWKNIVCLAAL2D42DWWL", "current_trial": 172, "dateTime": 1512930579962, "trialdata": {"rt": -1, "stimulus": "<p id=\"stim\">EMPIRE</p>", "key_press": -1, "type": "PRES_VIS", "word": "empire", "wordID": 529, "conditions": [12, 800, "v", 24000], "trial": 4, "serialpos": 3, "trial_type": "single-stim", "trial_index": 172, "time_elapsed": 781290, "internal_node_id": "0.0-127.0"}}, {"uniqueid": "MTK0941:3JW0YLFXRUNQWKNIVCLAAL2D42DWWL", "current_trial": 173, "dateTime": 1512930581785, "trialdata": {"rt": -1, "stimulus": "<p id=\"stim\">BRIEFCASE</p>", "key_press": -1, "type": "PRES_VIS", "word": "briefcase", "wordID": 174, "conditions": [12, 800, "v", 24000], "trial": 4, "serialpos": 4, "trial_type": "single-stim", "trial_index": 173, "time_elapsed": 783113, "internal_node_id": "0.0-128.0"}}, {"uniqueid": "MTK0941:3JW0YLFXRUNQWKNIVCLAAL2D42DWWL", "current_trial": 174, "dateTime": 1512930583655, "trialdata": {"rt": -1, "stimulus": "<p id=\"stim\">WRIST</p>", "key_press": -1, "type": "PRES_VIS", "word": "wrist", "wordID": 1625, "conditions": [12, 800, "v", 24000], "trial": 4, "serialpos": 5, "trial_type": "single-stim", "trial_index": 174, "time_elapsed": 784983, "internal_node_id": "0.0-129.0"}}, {"uniqueid": "MTK0941:3JW0YLFXRUNQWKNIVCLAAL2D42DWWL", "current_trial": 175, "dateTime": 1512930585488, "trialdata": {"rt": -1, "stimulus": "<p id=\"stim\">LION</p>", "key_press": -1, "type": "PRES_VIS", "word": "lion", "wordID": 826, "conditions": [12, 800, "v", 24000], "trial": 4, "serialpos": 6, "trial_type": "single-stim", "trial_index": 175, "time_elapsed": 786816, "internal_node_id": "0.0-130.0"}}, {"uniqueid": "MTK0941:3JW0YLFXRUNQWKNIVCLAAL2D42DWWL", "current_trial": 176, "dateTime": 1512930587236, "trialdata": {"rt": -1, "stimulus": "<p id=\"stim\">CROWN</p>", "key_press": -1, "type": "PRES_VIS", "word": "crown", "wordID": 414, "conditions": [12, 800, "v", 24000], "trial": 4, "serialpos": 7, "trial_type": "single-stim", "trial_index": 176, "time_elapsed": 788564, "internal_node_id": "0.0-131.0"}}, {"uniqueid": "MTK0941:3JW0YLFXRUNQWKNIVCLAAL2D42DWWL", "current_trial": 177, "dateTime": 1512930589142, "trialdata": {"rt": -1, "stimulus": "<p id=\"stim\">KNAPSACK</p>", "key_press": -1, "type": "PRES_VIS", "word": "knapsack", "wordID": 782, "conditions": [12, 800, "v", 24000], "trial": 4, "serialpos": 8, "trial_type": "single-stim", "trial_index": 177, "time_elapsed": 790470, "internal_node_id": "0.0-132.0"}}, {"uniqueid": "MTK0941:3JW0YLFXRUNQWKNIVCLAAL2D42DWWL", "current_trial": 178, "dateTime": 1512930590979, "trialdata": {"rt": -1, "stimulus": "<p id=\"stim\">LEOPARD</p>", "key_press": -1, "type": "PRES_VIS", "word": "leopard", "wordID": 811, "conditions": [12, 800, "v", 24000], "trial": 4, "serialpos": 9, "trial_type": "single-stim", "trial_index": 178, "time_elapsed": 792307, "internal_node_id": "0.0-133.0"}}, {"uniqueid": "MTK0941:3JW0YLFXRUNQWKNIVCLAAL2D42DWWL", "current_trial": 179, "dateTime": 1512930592701, "trialdata": {"rt": -1, "stimulus": "<p id=\"stim\">SPOON</p>", "key_press": -1, "type": "PRES_VIS", "word": "spoon", "wordID": 1356, "conditions": [12, 800, "v", 24000], "trial": 4, "serialpos": 10, "trial_type": "single-stim", "trial_index": 179, "time_elapsed": 794029, "internal_node_id": "0.0-134.0"}}, {"uniqueid": "MTK0941:3JW0YLFXRUNQWKNIVCLAAL2D42DWWL", "current_trial": 180, "dateTime": 1512930594309, "trialdata": {"rt": -1, "stimulus": "<p id=\"stim\">PIGEON</p>", "key_press": -1, "type": "PRES_VIS", "word": "pigeon", "wordID": 1064, "conditions": [12, 800, "v", 24000], "trial": 4, "serialpos": 11, "trial_type": "single-stim", "trial_index": 180, "time_elapsed": 795637, "internal_node_id": "0.0-135.0"}}, {"uniqueid": "MTK0941:3JW0YLFXRUNQWKNIVCLAAL2D42DWWL", "current_trial": 181, "dateTime": 1512930596404, "trialdata": {"rt": -1, "stimulus": "", "key_press": -1, "type": "PRE_RECALL_DELAY", "trial_type": "single-stim", "trial_index": 181, "time_elapsed": 797732, "internal_node_id": "0.0-136.0-0.0"}}, {"uniqueid": "MTK0941:3JW0YLFXRUNQWKNIVCLAAL2D42DWWL", "current_trial": 182, "dateTime": 1512930596906, "trialdata": {"rt": -1000, "stimulus": "/static/audio/400Hz.wav", "key_press": -1, "type": "PRE_RECALL_ALERT", "trial_type": "single-audio", "trial_index": 182, "time_elapsed": 798233, "internal_node_id": "0.0-137.0"}}, {"uniqueid": "MTK0941:3JW0YLFXRUNQWKNIVCLAAL2D42DWWL", "current_trial": 183, "dateTime": 1512930656910, "trialdata": {"rt": [5409, 7544, 10264, 14352, 18448, 20944, 24328, 27416, 39336], "recwords": ["canyon", "valley", "helmet", "empire", "wrist", "briefcase", "lion", "leopard", "spoon"], "type": "FREE_RECALL", "conditions": [12, 800, "v", 24000], "trial": 4, "trial_type": "free-recall", "trial_index": 183, "time_elapsed": 858235, "internal_node_id": "0.0-138.0-0.0"}}, {"uniqueid": "MTK0941:3JW0YLFXRUNQWKNIVCLAAL2D42DWWL", "current_trial": 184, "dateTime": 1512930660395, "trialdata": {"rt": 1483, "key_press": 13, "type": "INSTRUCTIONS", "trial_type": "text", "trial_index": 184, "time_elapsed": 861723, "internal_node_id": "0.0-139.0"}}, {"uniqueid": "MTK0941:3JW0YLFXRUNQWKNIVCLAAL2D42DWWL", "current_trial": 185, "dateTime": 1512930674400, "trialdata": {"rt": [4397, 6436, 10061], "responses": ["23", "16", "24"], "num1": [7, 2, 8, 1], "num2": [8, 8, 9, 2], "num3": [9, 6, 7, 3], "type": "DISTRACTOR", "conditions": [24, 1600, "v", 12000], "trial": 5, "trial_type": "math-distractor", "trial_index": 185, "time_elapsed": 875727, "internal_node_id": "0.0-140.0"}}, {"uniqueid": "MTK0941:3JW0YLFXRUNQWKNIVCLAAL2D42DWWL", "current_trial": 186, "dateTime": 1512930677403, "trialdata": {"rt": -1, "stimulus": "<p id=\"stim\">10</p>", "key_press": -1, "trial_type": "single-stim", "trial_index": 186, "time_elapsed": 878731, "internal_node_id": "0.0-141.0-0.0"}}, {"uniqueid": "MTK0941:3JW0YLFXRUNQWKNIVCLAAL2D42DWWL", "current_trial": 187, "dateTime": 1512930678405, "trialdata": {"rt": -1, "stimulus": "<p id=\"stim\">9</p>", "key_press": -1, "trial_type": "single-stim", "trial_index": 187, "time_elapsed": 879733, "internal_node_id": "0.0-141.0-1.0"}}, {"uniqueid": "MTK0941:3JW0YLFXRUNQWKNIVCLAAL2D42DWWL", "current_trial": 188, "dateTime": 1512930679406, "trialdata": {"rt": -1, "stimulus": "<p id=\"stim\">8</p>", "key_press": -1, "trial_type": "single-stim", "trial_index": 188, "time_elapsed": 880734, "internal_node_id": "0.0-141.0-2.0"}}, {"uniqueid": "MTK0941:3JW0YLFXRUNQWKNIVCLAAL2D42DWWL", "current_trial": 189, "dateTime": 1512930680409, "trialdata": {"rt": -1, "stimulus": "<p id=\"stim\">7</p>", "key_press": -1, "trial_type": "single-stim", "trial_index": 189, "time_elapsed": 881737, "internal_node_id": "0.0-141.0-3.0"}}, {"uniqueid": "MTK0941:3JW0YLFXRUNQWKNIVCLAAL2D42DWWL", "current_trial": 190, "dateTime": 1512930681410, "trialdata": {"rt": -1, "stimulus": "<p id=\"stim\">6</p>", "key_press": -1, "trial_type": "single-stim", "trial_index": 190, "time_elapsed": 882738, "internal_node_id": "0.0-141.0-4.0"}}, {"uniqueid": "MTK0941:3JW0YLFXRUNQWKNIVCLAAL2D42DWWL", "current_trial": 191, "dateTime": 1512930682412, "trialdata": {"rt": -1, "stimulus": "<p id=\"stim\">5</p>", "key_press": -1, "trial_type": "single-stim", "trial_index": 191, "time_elapsed": 883740, "internal_node_id": "0.0-141.0-5.0"}}, {"uniqueid": "MTK0941:3JW0YLFXRUNQWKNIVCLAAL2D42DWWL", "current_trial": 192, "dateTime": 1512930683413, "trialdata": {"rt": -1, "stimulus": "<p id=\"stim\">4</p>", "key_press": -1, "trial_type": "single-stim", "trial_index": 192, "time_elapsed": 884741, "internal_node_id": "0.0-141.0-6.0"}}, {"uniqueid": "MTK0941:3JW0YLFXRUNQWKNIVCLAAL2D42DWWL", "current_trial": 193, "dateTime": 1512930684418, "trialdata": {"rt": -1, "stimulus": "<p id=\"stim\">3</p>", "key_press": -1, "trial_type": "single-stim", "trial_index": 193, "time_elapsed": 885746, "internal_node_id": "0.0-141.0-7.0"}}, {"uniqueid": "MTK0941:3JW0YLFXRUNQWKNIVCLAAL2D42DWWL", "current_trial": 194, "dateTime": 1512930685421, "trialdata": {"rt": -1, "stimulus": "<p id=\"stim\">2</p>", "key_press": -1, "trial_type": "single-stim", "trial_index": 194, "time_elapsed": 886749, "internal_node_id": "0.0-141.0-8.0"}}, {"uniqueid": "MTK0941:3JW0YLFXRUNQWKNIVCLAAL2D42DWWL", "current_trial": 195, "dateTime": 1512930686422, "trialdata": {"rt": -1, "stimulus": "<p id=\"stim\">1</p>", "key_press": -1, "trial_type": "single-stim", "trial_index": 195, "time_elapsed": 887750, "internal_node_id": "0.0-141.0-9.0"}}, {"uniqueid": "MTK0941:3JW0YLFXRUNQWKNIVCLAAL2D42DWWL", "current_trial": 196, "dateTime": 1512930687924, "trialdata": {"rt": -1, "stimulus": "<p id=\"stim\">+</p>", "key_press": -1, "type": "FIXATION", "trial_type": "single-stim", "trial_index": 196, "time_elapsed": 889252, "internal_node_id": "0.0-142.0-0.0"}}, {"uniqueid": "MTK0941:3JW0YLFXRUNQWKNIVCLAAL2D42DWWL", "current_trial": 197, "dateTime": 1512930689526, "trialdata": {"rt": -1, "stimulus": "<p id=\"stim\">VIKING</p>", "key_press": -1, "type": "PRES_VIS", "word": "viking", "wordID": 1564, "conditions": [24, 1600, "v", 12000], "trial": 5, "serialpos": 0, "trial_type": "single-stim", "trial_index": 197, "time_elapsed": 890854, "internal_node_id": "0.0-143.0"}}, {"uniqueid": "MTK0941:3JW0YLFXRUNQWKNIVCLAAL2D42DWWL", "current_trial": 198, "dateTime": 1512930691955, "trialdata": {"rt": -1, "stimulus": "<p id=\"stim\">CHILD</p>", "key_press": -1, "type": "PRES_VIS", "word": "child", "wordID": 298, "conditions": [24, 1600, "v", 12000], "trial": 5, "serialpos": 1, "trial_type": "single-stim", "trial_index": 198, "time_elapsed": 893283, "internal_node_id": "0.0-144.0"}}, {"uniqueid": "MTK0941:3JW0YLFXRUNQWKNIVCLAAL2D42DWWL", "current_trial": 199, "dateTime": 1512930694470, "trialdata": {"rt": -1, "stimulus": "<p id=\"stim\">LUMBER</p>", "key_press": -1, "type": "PRES_VIS", "word": "lumber", "wordID": 847, "conditions": [24, 1600, "v", 12000], "trial": 5, "serialpos": 2, "trial_type": "single-stim", "trial_index": 199, "time_elapsed": 895798, "internal_node_id": "0.0-145.0"}}, {"uniqueid": "MTK0941:3JW0YLFXRUNQWKNIVCLAAL2D42DWWL", "current_trial": 200, "dateTime": 1512930697105, "trialdata": {"rt": -1, "stimulus": "<p id=\"stim\">SIBLING</p>", "key_press": -1, "type": "PRES_VIS", "word": "sibling", "wordID": 1300, "conditions": [24, 1600, "v", 12000], "trial": 5, "serialpos": 3, "trial_type": "single-stim", "trial_index": 200, "time_elapsed": 898433, "internal_node_id": "0.0-146.0"}}, {"uniqueid": "MTK0941:3JW0YLFXRUNQWKNIVCLAAL2D42DWWL", "current_trial": 201, "dateTime": 1512930699518, "trialdata": {"rt": -1, "stimulus": "<p id=\"stim\">KNIFE</p>", "key_press": -1, "type": "PRES_VIS", "word": "knife", "wordID": 784, "conditions": [24, 1600, "v", 12000], "trial": 5, "serialpos": 4, "trial_type": "single-stim", "trial_index": 201, "time_elapsed": 900846, "internal_node_id": "0.0-147.0"}}, {"uniqueid": "MTK0941:3JW0YLFXRUNQWKNIVCLAAL2D42DWWL", "current_trial": 202, "dateTime": 1512930702210, "trialdata": {"rt": -1, "stimulus": "<p id=\"stim\">SHORTCAKE</p>", "key_press": -1, "type": "PRES_VIS", "word": "shortcake", "wordID": 1291, "conditions": [24, 1600, "v", 12000], "trial": 5, "serialpos": 5, "trial_type": "single-stim", "trial_index": 202, "time_elapsed": 903538, "internal_node_id": "0.0-148.0"}}, {"uniqueid": "MTK0941:3JW0YLFXRUNQWKNIVCLAAL2D42DWWL", "current_trial": 203, "dateTime": 1512930704614, "trialdata": {"rt": -1, "stimulus": "<p id=\"stim\">MUFFIN</p>", "key_press": -1, "type": "PRES_VIS", "word": "muffin", "wordID": 928, "conditions": [24, 1600, "v", 12000], "trial": 5, "serialpos": 6, "trial_type": "single-stim", "trial_index": 203, "time_elapsed": 905942, "internal_node_id": "0.0-149.0"}}, {"uniqueid": "MTK0941:3JW0YLFXRUNQWKNIVCLAAL2D42DWWL", "current_trial": 204, "dateTime": 1512930707047, "trialdata": {"rt": -1, "stimulus": "<p id=\"stim\">BUGGY</p>", "key_press": -1, "type": "PRES_VIS", "word": "buggy", "wordID": 187, "conditions": [24, 1600, "v", 12000], "trial": 5, "serialpos": 7, "trial_type": "single-stim", "trial_index": 204, "time_elapsed": 908373, "internal_node_id": "0.0-150.0"}}, {"uniqueid": "MTK0941:3JW0YLFXRUNQWKNIVCLAAL2D42DWWL", "current_trial": 205, "dateTime": 1512930709823, "trialdata": {"rt": -1, "stimulus": "<p id=\"stim\">SISTER</p>", "key_press": -1, "type": "PRES_VIS", "word": "sister", "wordID": 1311, "conditions": [24, 1600, "v", 12000], "trial": 5, "serialpos": 8, "trial_type": "single-stim", "trial_index": 205, "time_elapsed": 911151, "internal_node_id": "0.0-151.0"}}, {"uniqueid": "MTK0941:3JW0YLFXRUNQWKNIVCLAAL2D42DWWL", "current_trial": 206, "dateTime": 1512930712286, "trialdata": {"rt": -1, "stimulus": "<p id=\"stim\">GROUND</p>", "key_press": -1, "type": "PRES_VIS", "word": "ground", "wordID": 665, "conditions": [24, 1600, "v", 12000], "trial": 5, "serialpos": 9, "trial_type": "single-stim", "trial_index": 206, "time_elapsed": 913614, "internal_node_id": "0.0-152.0"}}, {"uniqueid": "MTK0941:3JW0YLFXRUNQWKNIVCLAAL2D42DWWL", "current_trial": 207, "dateTime": 1512930714800, "trialdata": {"rt": -1, "stimulus": "<p id=\"stim\">DRILL</p>", "key_press": -1, "type": "PRES_VIS", "word": "drill", "wordID": 496, "conditions": [24, 1600, "v", 12000], "trial": 5, "serialpos": 10, "trial_type": "single-stim", "trial_index": 207, "time_elapsed": 916128, "internal_node_id": "0.0-153.0"}}, {"uniqueid": "MTK0941:3JW0YLFXRUNQWKNIVCLAAL2D42DWWL", "current_trial": 208, "dateTime": 1512930717458, "trialdata": {"rt": -1, "stimulus": "<p id=\"stim\">JOURNAL</p>", "key_press": -1, "type": "PRES_VIS", "word": "journal", "wordID": 759, "conditions": [24, 1600, "v", 12000], "trial": 5, "serialpos": 11, "trial_type": "single-stim", "trial_index": 208, "time_elapsed": 918786, "internal_node_id": "0.0-154.0"}}, {"uniqueid": "MTK0941:3JW0YLFXRUNQWKNIVCLAAL2D42DWWL", "current_trial": 209, "dateTime": 1512930720134, "trialdata": {"rt": -1, "stimulus": "<p id=\"stim\">STUDENT</p>", "key_press": -1, "type": "PRES_VIS", "word": "student", "wordID": 1394, "conditions": [24, 1600, "v", 12000], "trial": 5, "serialpos": 12, "trial_type": "single-stim", "trial_index": 209, "time_elapsed": 921462, "internal_node_id": "0.0-155.0"}}, {"uniqueid": "MTK0941:3JW0YLFXRUNQWKNIVCLAAL2D42DWWL", "current_trial": 210, "dateTime": 1512930722890, "trialdata": {"rt": -1, "stimulus": "<p id=\"stim\">DORM</p>", "key_press": -1, "type": "PRES_VIS", "word": "dorm", "wordID": 487, "conditions": [24, 1600, "v", 12000], "trial": 5, "serialpos": 13, "trial_type": "single-stim", "trial_index": 210, "time_elapsed": 924218, "internal_node_id": "0.0-156.0"}}, {"uniqueid": "MTK0941:3JW0YLFXRUNQWKNIVCLAAL2D42DWWL", "current_trial": 211, "dateTime": 1512930725449, "trialdata": {"rt": -1, "stimulus": "<p id=\"stim\">PUPPY</p>", "key_press": -1, "type": "PRES_VIS", "word": "puppy", "wordID": 1143, "conditions": [24, 1600, "v", 12000], "trial": 5, "serialpos": 14, "trial_type": "single-stim", "trial_index": 211, "time_elapsed": 926777, "internal_node_id": "0.0-157.0"}}, {"uniqueid": "MTK0941:3JW0YLFXRUNQWKNIVCLAAL2D42DWWL", "current_trial": 212, "dateTime": 1512930727990, "trialdata": {"rt": -1, "stimulus": "<p id=\"stim\">POPCORN</p>", "key_press": -1, "type": "PRES_VIS", "word": "popcorn", "wordID": 1103, "conditions": [24, 1600, "v", 12000], "trial": 5, "serialpos": 15, "trial_type": "single-stim", "trial_index": 212, "time_elapsed": 929318, "internal_node_id": "0.0-158.0"}}, {"uniqueid": "MTK0941:3JW0YLFXRUNQWKNIVCLAAL2D42DWWL", "current_trial": 213, "dateTime": 1512930730614, "trialdata": {"rt": -1, "stimulus": "<p id=\"stim\">FIREPLACE</p>", "key_press": -1, "type": "PRES_VIS", "word": "fireplace", "wordID": 569, "conditions": [24, 1600, "v", 12000], "trial": 5, "serialpos": 16, "trial_type": "single-stim", "trial_index": 213, "time_elapsed": 931942, "internal_node_id": "0.0-159.0"}}, {"uniqueid": "MTK0941:3JW0YLFXRUNQWKNIVCLAAL2D42DWWL", "current_trial": 214, "dateTime": 1512930733303, "trialdata": {"rt": -1, "stimulus": "<p id=\"stim\">NURSE</p>", "key_press": -1, "type": "PRES_VIS", "word": "nurse", "wordID": 962, "conditions": [24, 1600, "v", 12000], "trial": 5, "serialpos": 17, "trial_type": "single-stim", "trial_index": 214, "time_elapsed": 934631, "internal_node_id": "0.0-160.0"}}, {"uniqueid": "MTK0941:3JW0YLFXRUNQWKNIVCLAAL2D42DWWL", "current_trial": 215, "dateTime": 1512930736087, "trialdata": {"rt": -1, "stimulus": "<p id=\"stim\">PISTOL</p>", "key_press": -1, "type": "PRES_VIS", "word": "pistol", "wordID": 1074, "conditions": [24, 1600, "v", 12000], "trial": 5, "serialpos": 18, "trial_type": "single-stim", "trial_index": 215, "time_elapsed": 937415, "internal_node_id": "0.0-161.0"}}, {"uniqueid": "MTK0941:3JW0YLFXRUNQWKNIVCLAAL2D42DWWL", "current_trial": 216, "dateTime": 1512930738700, "trialdata": {"rt": -1, "stimulus": "<p id=\"stim\">RATTLE</p>", "key_press": -1, "type": "PRES_VIS", "word": "rattle", "wordID": 1169, "conditions": [24, 1600, "v", 12000], "trial": 5, "serialpos": 19, "trial_type": "single-stim", "trial_index": 216, "time_elapsed": 940028, "internal_node_id": "0.0-162.0"}}, {"uniqueid": "MTK0941:3JW0YLFXRUNQWKNIVCLAAL2D42DWWL", "current_trial": 217, "dateTime": 1512930741167, "trialdata": {"rt": -1, "stimulus": "<p id=\"stim\">COUSIN</p>", "key_press": -1, "type": "PRES_VIS", "word": "cousin", "wordID": 391, "conditions": [24, 1600, "v", 12000], "trial": 5, "serialpos": 20, "trial_type": "single-stim", "trial_index": 217, "time_elapsed": 942495, "internal_node_id": "0.0-163.0"}}, {"uniqueid": "MTK0941:3JW0YLFXRUNQWKNIVCLAAL2D42DWWL", "current_trial": 218, "dateTime": 1512930743706, "trialdata": {"rt": -1, "stimulus": "<p id=\"stim\">ROBBER</p>", "key_press": -1, "type": "PRES_VIS", "word": "robber", "wordID": 1196, "conditions": [24, 1600, "v", 12000], "trial": 5, "serialpos": 21, "trial_type": "single-stim", "trial_index": 218, "time_elapsed": 945034, "internal_node_id": "0.0-164.0"}}, {"uniqueid": "MTK0941:3JW0YLFXRUNQWKNIVCLAAL2D42DWWL", "current_trial": 219, "dateTime": 1512930746310, "trialdata": {"rt": -1, "stimulus": "<p id=\"stim\">PATIENT</p>", "key_press": -1, "type": "PRES_VIS", "word": "patient", "wordID": 1023, "conditions": [24, 1600, "v", 12000], "trial": 5, "serialpos": 22, "trial_type": "single-stim", "trial_index": 219, "time_elapsed": 947638, "internal_node_id": "0.0-165.0"}}, {"uniqueid": "MTK0941:3JW0YLFXRUNQWKNIVCLAAL2D42DWWL", "current_trial": 220, "dateTime": 1512930749013, "trialdata": {"rt": -1, "stimulus": "<p id=\"stim\">SHOVEL</p>", "key_press": -1, "type": "PRES_VIS", "word": "shovel", "wordID": 1294, "conditions": [24, 1600, "v", 12000], "trial": 5, "serialpos": 23, "trial_type": "single-stim", "trial_index": 220, "time_elapsed": 950341, "internal_node_id": "0.0-166.0"}}, {"uniqueid": "MTK0941:3JW0YLFXRUNQWKNIVCLAAL2D42DWWL", "current_trial": 221, "dateTime": 1512930751423, "trialdata": {"rt": -1, "stimulus": "", "key_press": -1, "type": "PRE_RECALL_DELAY", "trial_type": "single-stim", "trial_index": 221, "time_elapsed": 952751, "internal_node_id": "0.0-167.0-0.0"}}, {"uniqueid": "MTK0941:3JW0YLFXRUNQWKNIVCLAAL2D42DWWL", "current_trial": 222, "dateTime": 1512930751926, "trialdata": {"rt": -1000, "stimulus": "/static/audio/400Hz.wav", "key_press": -1, "type": "PRE_RECALL_ALERT", "trial_type": "single-audio", "trial_index": 222, "time_elapsed": 953254, "internal_node_id": "0.0-168.0"}}, {"uniqueid": "MTK0941:3JW0YLFXRUNQWKNIVCLAAL2D42DWWL", "current_trial": 223, "dateTime": 1512930811934, "trialdata": {"rt": [3009, 7593, 10930, 13945, 17787, 19969, 23121, 29425, 31833, 41929, 43625, 58504], "recwords": ["shovel", "cousin", "robber", "patient", "pistol", "fireman", "popcorn", "child", "sister", "student", "dorm", "cake"], "type": "FREE_RECALL", "conditions": [24, 1600, "v", 12000], "trial": 5, "trial_type": "free-recall", "trial_index": 223, "time_elapsed": 1013257, "internal_node_id": "0.0-169.0-0.0"}}, {"uniqueid": "MTK0941:3JW0YLFXRUNQWKNIVCLAAL2D42DWWL", "current_trial": 224, "dateTime": 1512930815208, "trialdata": {"rt": 1273, "key_press": 13, "type": "INSTRUCTIONS", "trial_type": "text", "trial_index": 224, "time_elapsed": 1016536, "internal_node_id": "0.0-170.0"}}, {"uniqueid": "MTK0941:3JW0YLFXRUNQWKNIVCLAAL2D42DWWL", "current_trial": 225, "dateTime": 1512930841212, "trialdata": {"rt": [6078, 11613, 15078, 16981, 19917, 23109], "responses": ["20", "28", "15", "8", "13", "22"], "num1": [7, 8, 2, 4, 8, 9, 6], "num2": [9, 9, 9, 2, 3, 8, 6], "num3": [4, 9, 4, 2, 3, 5, 9], "type": "DISTRACTOR", "conditions": [24, 800, "v", 24000], "trial": 6, "trial_type": "math-distractor", "trial_index": 225, "time_elapsed": 1042540, "internal_node_id": "0.0-171.0"}}, {"uniqueid": "MTK0941:3JW0YLFXRUNQWKNIVCLAAL2D42DWWL", "current_trial": 226, "dateTime": 1512930844215, "trialdata": {"rt": -1, "stimulus": "<p id=\"stim\">10</p>", "key_press": -1, "trial_type": "single-stim", "trial_index": 226, "time_elapsed": 1045543, "internal_node_id": "0.0-172.0-0.0"}}, {"uniqueid": "MTK0941:3JW0YLFXRUNQWKNIVCLAAL2D42DWWL", "current_trial": 227, "dateTime": 1512930845216, "trialdata": {"rt": -1, "stimulus": "<p id=\"stim\">9</p>", "key_press": -1, "trial_type": "single-stim", "trial_index": 227, "time_elapsed": 1046544, "internal_node_id": "0.0-172.0-1.0"}}, {"uniqueid": "MTK0941:3JW0YLFXRUNQWKNIVCLAAL2D42DWWL", "current_trial": 228, "dateTime": 1512930846218, "trialdata": {"rt": -1, "stimulus": "<p id=\"stim\">8</p>", "key_press": -1, "trial_type": "single-stim", "trial_index": 228, "time_elapsed": 1047546, "internal_node_id": "0.0-172.0-2.0"}}, {"uniqueid": "MTK0941:3JW0YLFXRUNQWKNIVCLAAL2D42DWWL", "current_trial": 229, "dateTime": 1512930847221, "trialdata": {"rt": -1, "stimulus": "<p id=\"stim\">7</p>", "key_press": -1, "trial_type": "single-stim", "trial_index": 229, "time_elapsed": 1048549, "internal_node_id": "0.0-172.0-3.0"}}, {"uniqueid": "MTK0941:3JW0YLFXRUNQWKNIVCLAAL2D42DWWL", "current_trial": 230, "dateTime": 1512930848222, "trialdata": {"rt": -1, "stimulus": "<p id=\"stim\">6</p>", "key_press": -1, "trial_type": "single-stim", "trial_index": 230, "time_elapsed": 1049550, "internal_node_id": "0.0-172.0-4.0"}}, {"uniqueid": "MTK0941:3JW0YLFXRUNQWKNIVCLAAL2D42DWWL", "current_trial": 231, "dateTime": 1512930849224, "trialdata": {"rt": -1, "stimulus": "<p id=\"stim\">5</p>", "key_press": -1, "trial_type": "single-stim", "trial_index": 231, "time_elapsed": 1050552, "internal_node_id": "0.0-172.0-5.0"}}, {"uniqueid": "MTK0941:3JW0YLFXRUNQWKNIVCLAAL2D42DWWL", "current_trial": 232, "dateTime": 1512930850225, "trialdata": {"rt": -1, "stimulus": "<p id=\"stim\">4</p>", "key_press": -1, "trial_type": "single-stim", "trial_index": 232, "time_elapsed": 1051553, "internal_node_id": "0.0-172.0-6.0"}}, {"uniqueid": "MTK0941:3JW0YLFXRUNQWKNIVCLAAL2D42DWWL", "current_trial": 233, "dateTime": 1512930851227, "trialdata": {"rt": -1, "stimulus": "<p id=\"stim\">3</p>", "key_press": -1, "trial_type": "single-stim", "trial_index": 233, "time_elapsed": 1052555, "internal_node_id": "0.0-172.0-7.0"}}, {"uniqueid": "MTK0941:3JW0YLFXRUNQWKNIVCLAAL2D42DWWL", "current_trial": 234, "dateTime": 1512930852228, "trialdata": {"rt": -1, "stimulus": "<p id=\"stim\">2</p>", "key_press": -1, "trial_type": "single-stim", "trial_index": 234, "time_elapsed": 1053556, "internal_node_id": "0.0-172.0-8.0"}}, {"uniqueid": "MTK0941:3JW0YLFXRUNQWKNIVCLAAL2D42DWWL", "current_trial": 235, "dateTime": 1512930853229, "trialdata": {"rt": -1, "stimulus": "<p id=\"stim\">1</p>", "key_press": -1, "trial_type": "single-stim", "trial_index": 235, "time_elapsed": 1054557, "internal_node_id": "0.0-172.0-9.0"}}, {"uniqueid": "MTK0941:3JW0YLFXRUNQWKNIVCLAAL2D42DWWL", "current_trial": 236, "dateTime": 1512930854730, "trialdata": {"rt": -1, "stimulus": "<p id=\"stim\">+</p>", "key_press": -1, "type": "FIXATION", "trial_type": "single-stim", "trial_index": 236, "time_elapsed": 1056058, "internal_node_id": "0.0-173.0-0.0"}}, {"uniqueid": "MTK0941:3JW0YLFXRUNQWKNIVCLAAL2D42DWWL", "current_trial": 237, "dateTime": 1512930855533, "trialdata": {"rt": -1, "stimulus": "<p id=\"stim\">BUNNY</p>", "key_press": -1, "type": "PRES_VIS", "word": "bunny", "wordID": 197, "conditions": [24, 800, "v", 24000], "trial": 6, "serialpos": 0, "trial_type": "single-stim", "trial_index": 237, "time_elapsed": 1056861, "internal_node_id": "0.0-174.0"}}, {"uniqueid": "MTK0941:3JW0YLFXRUNQWKNIVCLAAL2D42DWWL", "current_trial": 238, "dateTime": 1512930857308, "trialdata": {"rt": -1, "stimulus": "<p id=\"stim\">SKILLET</p>", "key_press": -1, "type": "PRES_VIS", "word": "skillet", "wordID": 1316, "conditions": [24, 800, "v", 24000], "trial": 6, "serialpos": 1, "trial_type": "single-stim", "trial_index": 238, "time_elapsed": 1058636, "internal_node_id": "0.0-175.0"}}, {"uniqueid": "MTK0941:3JW0YLFXRUNQWKNIVCLAAL2D42DWWL", "current_trial": 239, "dateTime": 1512930859091, "trialdata": {"rt": -1, "stimulus": "<p id=\"stim\">GRILL</p>", "key_press": -1, "type": "PRES_VIS", "word": "grill", "wordID": 660, "conditions": [24, 800, "v", 24000], "trial": 6, "serialpos": 2, "trial_type": "single-stim", "trial_index": 239, "time_elapsed": 1060419, "internal_node_id": "0.0-176.0"}}, {"uniqueid": "MTK0941:3JW0YLFXRUNQWKNIVCLAAL2D42DWWL", "current_trial": 240, "dateTime": 1512930860836, "trialdata": {"rt": -1, "stimulus": "<p id=\"stim\">CHIPMUNK</p>", "key_press": -1, "type": "PRES_VIS", "word": "chipmunk", "wordID": 303, "conditions": [24, 800, "v", 24000], "trial": 6, "serialpos": 3, "trial_type": "single-stim", "trial_index": 240, "time_elapsed": 1062164, "internal_node_id": "0.0-177.0"}}, {"uniqueid": "MTK0941:3JW0YLFXRUNQWKNIVCLAAL2D42DWWL", "current_trial": 241, "dateTime": 1512930862550, "trialdata": {"rt": -1, "stimulus": "<p id=\"stim\">COOK</p>", "key_press": -1, "type": "PRES_VIS", "word": "cook", "wordID": 371, "conditions": [24, 800, "v", 24000], "trial": 6, "serialpos": 4, "trial_type": "single-stim", "trial_index": 241, "time_elapsed": 1063878, "internal_node_id": "0.0-178.0"}}, {"uniqueid": "MTK0941:3JW0YLFXRUNQWKNIVCLAAL2D42DWWL", "current_trial": 242, "dateTime": 1512930864224, "trialdata": {"rt": -1, "stimulus": "<p id=\"stim\">WARDROBE</p>", "key_press": -1, "type": "PRES_VIS", "word": "wardrobe", "wordID": 1586, "conditions": [24, 800, "v", 24000], "trial": 6, "serialpos": 5, "trial_type": "single-stim", "trial_index": 242, "time_elapsed": 1065552, "internal_node_id": "0.0-179.0"}}, {"uniqueid": "MTK0941:3JW0YLFXRUNQWKNIVCLAAL2D42DWWL", "current_trial": 243, "dateTime": 1512930866108, "trialdata": {"rt": -1, "stimulus": "<p id=\"stim\">WIDOW</p>", "key_press": -1, "type": "PRES_VIS", "word": "widow", "wordID": 1607, "conditions": [24, 800, "v", 24000], "trial": 6, "serialpos": 6, "trial_type": "single-stim", "trial_index": 243, "time_elapsed": 1067436, "internal_node_id": "0.0-180.0"}}, {"uniqueid": "MTK0941:3JW0YLFXRUNQWKNIVCLAAL2D42DWWL", "current_trial": 244, "dateTime": 1512930867968, "trialdata": {"rt": -1, "stimulus": "<p id=\"stim\">CRUTCH</p>", "key_press": -1, "type": "PRES_VIS", "word": "crutch", "wordID": 416, "conditions": [24, 800, "v", 24000], "trial": 6, "serialpos": 7, "trial_type": "single-stim", "trial_index": 244, "time_elapsed": 1069296, "internal_node_id": "0.0-181.0"}}, {"uniqueid": "MTK0941:3JW0YLFXRUNQWKNIVCLAAL2D42DWWL", "current_trial": 245, "dateTime": 1512930869797, "trialdata": {"rt": -1, "stimulus": "<p id=\"stim\">EXPERT</p>", "key_press": -1, "type": "PRES_VIS", "word": "expert", "wordID": 542, "conditions": [24, 800, "v", 24000], "trial": 6, "serialpos": 8, "trial_type": "single-stim", "trial_index": 245, "time_elapsed": 1071125, "internal_node_id": "0.0-182.0"}}, {"uniqueid": "MTK0941:3JW0YLFXRUNQWKNIVCLAAL2D42DWWL", "current_trial": 246, "dateTime": 1512930871403, "trialdata": {"rt": -1, "stimulus": "<p id=\"stim\">AUTHOR</p>", "key_press": -1, "type": "PRES_VIS", "word": "author", "wordID": 60, "conditions": [24, 800, "v", 24000], "trial": 6, "serialpos": 9, "trial_type": "single-stim", "trial_index": 246, "time_elapsed": 1072731, "internal_node_id": "0.0-183.0"}}, {"uniqueid": "MTK0941:3JW0YLFXRUNQWKNIVCLAAL2D42DWWL", "current_trial": 247, "dateTime": 1512930873351, "trialdata": {"rt": -1, "stimulus": "<p id=\"stim\">GARDEN</p>", "key_press": -1, "type": "PRES_VIS", "word": "garden", "wordID": 622, "conditions": [24, 800, "v", 24000], "trial": 6, "serialpos": 10, "trial_type": "single-stim", "trial_index": 247, "time_elapsed": 1074679, "internal_node_id": "0.0-184.0"}}, {"uniqueid": "MTK0941:3JW0YLFXRUNQWKNIVCLAAL2D42DWWL", "current_trial": 248, "dateTime": 1512930875167, "trialdata": {"rt": -1, "stimulus": "<p id=\"stim\">FRAME</p>", "key_press": -1, "type": "PRES_VIS", "word": "frame", "wordID": 599, "conditions": [24, 800, "v", 24000], "trial": 6, "serialpos": 11, "trial_type": "single-stim", "trial_index": 248, "time_elapsed": 1076495, "internal_node_id": "0.0-185.0"}}, {"uniqueid": "MTK0941:3JW0YLFXRUNQWKNIVCLAAL2D42DWWL", "current_trial": 249, "dateTime": 1512930877166, "trialdata": {"rt": -1, "stimulus": "<p id=\"stim\">VICTIM</p>", "key_press": -1, "type": "PRES_VIS", "word": "victim", "wordID": 1561, "conditions": [24, 800, "v", 24000], "trial": 6, "serialpos": 12, "trial_type": "single-stim", "trial_index": 249, "time_elapsed": 1078494, "internal_node_id": "0.0-186.0"}}, {"uniqueid": "MTK0941:3JW0YLFXRUNQWKNIVCLAAL2D42DWWL", "current_trial": 250, "dateTime": 1512930879060, "trialdata": {"rt": -1, "stimulus": "<p id=\"stim\">CATTLE</p>", "key_press": -1, "type": "PRES_VIS", "word": "cattle", "wordID": 260, "conditions": [24, 800, "v", 24000], "trial": 6, "serialpos": 13, "trial_type": "single-stim", "trial_index": 250, "time_elapsed": 1080388, "internal_node_id": "0.0-187.0"}}, {"uniqueid": "MTK0941:3JW0YLFXRUNQWKNIVCLAAL2D42DWWL", "current_trial": 251, "dateTime": 1512930880939, "trialdata": {"rt": -1, "stimulus": "<p id=\"stim\">FRANCE</p>", "key_press": -1, "type": "PRES_VIS", "word": "france", "wordID": 600, "conditions": [24, 800, "v", 24000], "trial": 6, "serialpos": 14, "trial_type": "single-stim", "trial_index": 251, "time_elapsed": 1082267, "internal_node_id": "0.0-188.0"}}, {"uniqueid": "MTK0941:3JW0YLFXRUNQWKNIVCLAAL2D42DWWL", "current_trial": 252, "dateTime": 1512930882920, "trialdata": {"rt": -1, "stimulus": "<p id=\"stim\">NOMAD</p>", "key_press": -1, "type": "PRES_VIS", "word": "nomad", "wordID": 954, "conditions": [24, 800, "v", 24000], "trial": 6, "serialpos": 15, "trial_type": "single-stim", "trial_index": 252, "time_elapsed": 1084248, "internal_node_id": "0.0-189.0"}}, {"uniqueid": "MTK0941:3JW0YLFXRUNQWKNIVCLAAL2D42DWWL", "current_trial": 253, "dateTime": 1512930884860, "trialdata": {"rt": -1, "stimulus": "<p id=\"stim\">PLATE</p>", "key_press": -1, "type": "PRES_VIS", "word": "plate", "wordID": 1085, "conditions": [24, 800, "v", 24000], "trial": 6, "serialpos": 16, "trial_type": "single-stim", "trial_index": 253, "time_elapsed": 1086188, "internal_node_id": "0.0-190.0"}}, {"uniqueid": "MTK0941:3JW0YLFXRUNQWKNIVCLAAL2D42DWWL", "current_trial": 254, "dateTime": 1512930886670, "trialdata": {"rt": -1, "stimulus": "<p id=\"stim\">LIZARD</p>", "key_press": -1, "type": "PRES_VIS", "word": "lizard", "wordID": 833, "conditions": [24, 800, "v", 24000], "trial": 6, "serialpos": 17, "trial_type": "single-stim", "trial_index": 254, "time_elapsed": 1087998, "internal_node_id": "0.0-191.0"}}, {"uniqueid": "MTK0941:3JW0YLFXRUNQWKNIVCLAAL2D42DWWL", "current_trial": 255, "dateTime": 1512930888571, "trialdata": {"rt": -1, "stimulus": "<p id=\"stim\">PANTHER</p>", "key_press": -1, "type": "PRES_VIS", "word": "panther", "wordID": 1008, "conditions": [24, 800, "v", 24000], "trial": 6, "serialpos": 18, "trial_type": "single-stim", "trial_index": 255, "time_elapsed": 1089899, "internal_node_id": "0.0-192.0"}}, {"uniqueid": "MTK0941:3JW0YLFXRUNQWKNIVCLAAL2D42DWWL", "current_trial": 256, "dateTime": 1512930890402, "trialdata": {"rt": -1, "stimulus": "<p id=\"stim\">APRON</p>", "key_press": -1, "type": "PRES_VIS", "word": "apron", "wordID": 34, "conditions": [24, 800, "v", 24000], "trial": 6, "serialpos": 19, "trial_type": "single-stim", "trial_index": 256, "time_elapsed": 1091730, "internal_node_id": "0.0-193.0"}}, {"uniqueid": "MTK0941:3JW0YLFXRUNQWKNIVCLAAL2D42DWWL", "current_trial": 257, "dateTime": 1512930892050, "trialdata": {"rt": -1, "stimulus": "<p id=\"stim\">SUSPECT</p>", "key_press": -1, "type": "PRES_VIS", "word": "suspect", "wordID": 1414, "conditions": [24, 800, "v", 24000], "trial": 6, "serialpos": 20, "trial_type": "single-stim", "trial_index": 257, "time_elapsed": 1093378, "internal_node_id": "0.0-194.0"}}, {"uniqueid": "MTK0941:3JW0YLFXRUNQWKNIVCLAAL2D42DWWL", "current_trial": 258, "dateTime": 1512930894050, "trialdata": {"rt": -1, "stimulus": "<p id=\"stim\">FLASK</p>", "key_press": -1, "type": "PRES_VIS", "word": "flask", "wordID": 575, "conditions": [24, 800, "v", 24000], "trial": 6, "serialpos": 21, "trial_type": "single-stim", "trial_index": 258, "time_elapsed": 1095378, "internal_node_id": "0.0-195.0"}}, {"uniqueid": "MTK0941:3JW0YLFXRUNQWKNIVCLAAL2D42DWWL", "current_trial": 259, "dateTime": 1512930895798, "trialdata": {"rt": -1, "stimulus": "<p id=\"stim\">SANDWICH</p>", "key_press": -1, "type": "PRES_VIS", "word": "sandwich", "wordID": 1231, "conditions": [24, 800, "v", 24000], "trial": 6, "serialpos": 22, "trial_type": "single-stim", "trial_index": 259, "time_elapsed": 1097126, "internal_node_id": "0.0-196.0"}}, {"uniqueid": "MTK0941:3JW0YLFXRUNQWKNIVCLAAL2D42DWWL", "current_trial": 260, "dateTime": 1512930897470, "trialdata": {"rt": -1, "stimulus": "<p id=\"stim\">DASHBOARD</p>", "key_press": -1, "type": "PRES_VIS", "word": "dashboard", "wordID": 440, "conditions": [24, 800, "v", 24000], "trial": 6, "serialpos": 23, "trial_type": "single-stim", "trial_index": 260, "time_elapsed": 1098798, "internal_node_id": "0.0-197.0"}}, {"uniqueid": "MTK0941:3JW0YLFXRUNQWKNIVCLAAL2D42DWWL", "current_trial": 261, "dateTime": 1512930899592, "trialdata": {"rt": -1, "stimulus": "", "key_press": -1, "type": "PRE_RECALL_DELAY", "trial_type": "single-stim", "trial_index": 261, "time_elapsed": 1100920, "internal_node_id": "0.0-198.0-0.0"}}, {"uniqueid": "MTK0941:3JW0YLFXRUNQWKNIVCLAAL2D42DWWL", "current_trial": 262, "dateTime": 1512930900095, "trialdata": {"rt": -1000, "stimulus": "/static/audio/400Hz.wav", "key_press": -1, "type": "PRE_RECALL_ALERT", "trial_type": "single-audio", "trial_index": 262, "time_elapsed": 1101423, "internal_node_id": "0.0-199.0"}}, {"uniqueid": "MTK0941:3JW0YLFXRUNQWKNIVCLAAL2D42DWWL", "current_trial": 263, "dateTime": 1512930960105, "trialdata": {"rt": [4951, 7439, 12615, 14823, 22406, 31534, 37974, 46526, 53110], "recwords": ["sandwich", "apron", "panther", "bunny", "cook", "plate", "garden", "grill", "cow"], "type": "FREE_RECALL", "conditions": [24, 800, "v", 24000], "trial": 6, "trial_type": "free-recall", "trial_index": 263, "time_elapsed": 1161425, "internal_node_id": "0.0-200.0-0.0"}}, {"uniqueid": "MTK0941:3JW0YLFXRUNQWKNIVCLAAL2D42DWWL", "current_trial": 264, "dateTime": 1512930963935, "trialdata": {"rt": 1828, "key_press": 13, "type": "INSTRUCTIONS", "trial_type": "text", "trial_index": 264, "time_elapsed": 1165263, "internal_node_id": "0.0-201.0"}}, {"uniqueid": "MTK0941:3JW0YLFXRUNQWKNIVCLAAL2D42DWWL", "current_trial": 265, "dateTime": 1512930989938, "trialdata": {"rt": [2541, 4404, 6028, 8764, 11125, 12941, 15012, 16972, 19013, 22156], "responses": ["16", "15", "15", "11", "10", "7", "16", "13", "9", "18"], "num1": [2, 9, 1, 5, 1, 1, 6, 8, 1, 6, 3], "num2": [8, 5, 9, 1, 4, 5, 1, 2, 4, 3, 6], "num3": [6, 1, 5, 5, 5, 1, 9, 3, 4, 9, 8], "type": "DISTRACTOR", "conditions": [24, 1600, "a", 24000], "trial": 7, "trial_type": "math-distractor", "trial_index": 265, "time_elapsed": 1191266, "internal_node_id": "0.0-202.0"}}, {"uniqueid": "MTK0941:3JW0YLFXRUNQWKNIVCLAAL2D42DWWL", "current_trial": 266, "dateTime": 1512930992941, "trialdata": {"rt": -1, "stimulus": "<p id=\"stim\">10</p>", "key_press": -1, "trial_type": "single-stim", "trial_index": 266, "time_elapsed": 1194269, "internal_node_id": "0.0-203.0-0.0"}}, {"uniqueid": "MTK0941:3JW0YLFXRUNQWKNIVCLAAL2D42DWWL", "current_trial": 267, "dateTime": 1512930993943, "trialdata": {"rt": -1, "stimulus": "<p id=\"stim\">9</p>", "key_press": -1, "trial_type": "single-stim", "trial_index": 267, "time_elapsed": 1195271, "internal_node_id": "0.0-203.0-1.0"}}, {"uniqueid": "MTK0941:3JW0YLFXRUNQWKNIVCLAAL2D42DWWL", "current_trial": 268, "dateTime": 1512930994944, "trialdata": {"rt": -1, "stimulus": "<p id=\"stim\">8</p>", "key_press": -1, "trial_type": "single-stim", "trial_index": 268, "time_elapsed": 1196272, "internal_node_id": "0.0-203.0-2.0"}}, {"uniqueid": "MTK0941:3JW0YLFXRUNQWKNIVCLAAL2D42DWWL", "current_trial": 269, "dateTime": 1512930995945, "trialdata": {"rt": -1, "stimulus": "<p id=\"stim\">7</p>", "key_press": -1, "trial_type": "single-stim", "trial_index": 269, "time_elapsed": 1197273, "internal_node_id": "0.0-203.0-3.0"}}, {"uniqueid