{"condition": 0, "counterbalance": 461, "assignmentId": "37M28K1J0RK7JNKGN86336BE65WAJK", "workerId": "MTK0216", "hitId": "304QEQWKZPRNW1F1LHWDXCK3JN5O0X", "currenttrial": 625, "bonus": 0, "data": [{"uniqueid": "MTK0216:37M28K1J0RK7JNKGN86336BE65WAJK", "current_trial": 0, "dateTime": 1509551908009, "trialdata": {"rt": 1981, "key_press": 74, "type": "INSTRUCTIONS", "trial_type": "text", "trial_index": 0, "time_elapsed": 1983, "internal_node_id": "0.0-0.0"}}, {"uniqueid": "MTK0216:37M28K1J0RK7JNKGN86336BE65WAJK", "current_trial": 1, "dateTime": 1509551919883, "trialdata": {"rt": 11872, "key_press": 77, "type": "INSTRUCTIONS", "trial_type": "text", "trial_index": 1, "time_elapsed": 13858, "internal_node_id": "0.0-1.0"}}, {"uniqueid": "MTK0216:37M28K1J0RK7JNKGN86336BE65WAJK", "current_trial": 2, "dateTime": 1509551939544, "trialdata": {"rt": [19630], "responses": ["ocean"], "type": "AUDIO_TEST", "trial_type": "audio-test", "trial_index": 2, "time_elapsed": 33519, "internal_node_id": "0.0-2.0"}}, {"uniqueid": "MTK0216:37M28K1J0RK7JNKGN86336BE65WAJK", "current_trial": 3, "dateTime": 1509551949089, "trialdata": {"rt": [9531], "responses": ["crystal"], "type": "AUDIO_TEST", "trial_type": "audio-test", "trial_index": 3, "time_elapsed": 43064, "internal_node_id": "0.0-3.0"}}, {"uniqueid": "MTK0216:37M28K1J0RK7JNKGN86336BE65WAJK", "current_trial": 4, "dateTime": 1509551957490, "trialdata": {"rt": [8385], "responses": ["spice"], "type": "AUDIO_TEST", "trial_type": "audio-test", "trial_index": 4, "time_elapsed": 51465, "internal_node_id": "0.0-4.0"}}, {"uniqueid": "MTK0216:37M28K1J0RK7JNKGN86336BE65WAJK", "current_trial": 5, "dateTime": 1509551960686, "trialdata": {"rt": 2444, "key_press": 74, "type": "INSTRUCTIONS", "trial_type": "text", "trial_index": 5, "time_elapsed": 54661, "internal_node_id": "0.0-5.0"}}, {"uniqueid": "MTK0216:37M28K1J0RK7JNKGN86336BE65WAJK", "current_trial": 6, "dateTime": 1509551965328, "trialdata": {"rt": 4641, "key_press": 38, "type": "INSTRUCTIONS", "trial_type": "text", "trial_index": 6, "time_elapsed": 59302, "internal_node_id": "0.0-6.0"}}, {"uniqueid": "MTK0216:37M28K1J0RK7JNKGN86336BE65WAJK", "current_trial": 7, "dateTime": 1509551965529, "trialdata": {"rt": 200, "key_press": 38, "type": "INSTRUCTIONS", "trial_type": "text", "trial_index": 7, "time_elapsed": 59504, "internal_node_id": "0.0-7.0"}}, {"uniqueid": "MTK0216:37M28K1J0RK7JNKGN86336BE65WAJK", "current_trial": 8, "dateTime": 1509551976114, "trialdata": {"rt": 10584, "key_press": 78, "type": "INSTRUCTIONS", "trial_type": "text", "trial_index": 8, "time_elapsed": 70089, "internal_node_id": "0.0-8.0"}}, {"uniqueid": "MTK0216:37M28K1J0RK7JNKGN86336BE65WAJK", "current_trial": 9, "dateTime": 1509551995132, "trialdata": {"rt": [4891, 10523, 12785, 15857], "responses": ["11", "20", "11", "18"], "num1": [7, 8, 1, 6, 1], "num2": [2, 7, 9, 6, 9], "num3": [2, 5, 1, 6, 8], "type": "DISTRACTOR", "conditions": [18, 1200, "v", 18000], "trial": 0, "trial_type": "math-distractor", "trial_index": 9, "time_elapsed": 89107, "internal_node_id": "0.0-9.0"}}, {"uniqueid": "MTK0216:37M28K1J0RK7JNKGN86336BE65WAJK", "current_trial": 10, "dateTime": 1509551998135, "trialdata": {"rt": -1, "stimulus": "<p id=\"stim\">10</p>", "key_press": -1, "trial_type": "single-stim", "trial_index": 10, "time_elapsed": 92110, "internal_node_id": "0.0-10.0-0.0"}}, {"uniqueid": "MTK0216:37M28K1J0RK7JNKGN86336BE65WAJK", "current_trial": 11, "dateTime": 1509551999137, "trialdata": {"rt": -1, "stimulus": "<p id=\"stim\">9</p>", "key_press": -1, "trial_type": "single-stim", "trial_index": 11, "time_elapsed": 93112, "internal_node_id": "0.0-10.0-1.0"}}, {"uniqueid": "MTK0216:37M28K1J0RK7JNKGN86336BE65WAJK", "current_trial": 12, "dateTime": 1509552000139, "trialdata": {"rt": -1, "stimulus": "<p id=\"stim\">8</p>", "key_press": -1, "trial_type": "single-stim", "trial_index": 12, "time_elapsed": 94114, "internal_node_id": "0.0-10.0-2.0"}}, {"uniqueid": "MTK0216:37M28K1J0RK7JNKGN86336BE65WAJK", "current_trial": 13, "dateTime": 1509552001140, "trialdata": {"rt": -1, "stimulus": "<p id=\"stim\">7</p>", "key_press": -1, "trial_type": "single-stim", "trial_index": 13, "time_elapsed": 95115, "internal_node_id": "0.0-10.0-3.0"}}, {"uniqueid": "MTK0216:37M28K1J0RK7JNKGN86336BE65WAJK", "current_trial": 14, "dateTime": 1509552002142, "trialdata": {"rt": -1, "stimulus": "<p id=\"stim\">6</p>", "key_press": -1, "trial_type": "single-stim", "trial_index": 14, "time_elapsed": 96117, "internal_node_id": "0.0-10.0-4.0"}}, {"uniqueid": "MTK0216:37M28K1J0RK7JNKGN86336BE65WAJK", "current_trial": 15, "dateTime": 1509552003143, "trialdata": {"rt": -1, "stimulus": "<p id=\"stim\">5</p>", "key_press": -1, "trial_type": "single-stim", "trial_index": 15, "time_elapsed": 97118, "internal_node_id": "0.0-10.0-5.0"}}, {"uniqueid": "MTK0216:37M28K1J0RK7JNKGN86336BE65WAJK", "current_trial": 16, "dateTime": 1509552004145, "trialdata": {"rt": -1, "stimulus": "<p id=\"stim\">4</p>", "key_press": -1, "trial_type": "single-stim", "trial_index": 16, "time_elapsed": 98119, "internal_node_id": "0.0-10.0-6.0"}}, {"uniqueid": "MTK0216:37M28K1J0RK7JNKGN86336BE65WAJK", "current_trial": 17, "dateTime": 1509552005151, "trialdata": {"rt": -1, "stimulus": "<p id=\"stim\">3</p>", "key_press": -1, "trial_type": "single-stim", "trial_index": 17, "time_elapsed": 99126, "internal_node_id": "0.0-10.0-7.0"}}, {"uniqueid": "MTK0216:37M28K1J0RK7JNKGN86336BE65WAJK", "current_trial": 18, "dateTime": 1509552006218, "trialdata": {"rt": -1, "stimulus": "<p id=\"stim\">2</p>", "key_press": -1, "trial_type": "single-stim", "trial_index": 18, "time_elapsed": 100193, "internal_node_id": "0.0-10.0-8.0"}}, {"uniqueid": "MTK0216:37M28K1J0RK7JNKGN86336BE65WAJK", "current_trial": 19, "dateTime": 1509552007220, "trialdata": {"rt": -1, "stimulus": "<p id=\"stim\">1</p>", "key_press": -1, "trial_type": "single-stim", "trial_index": 19, "time_elapsed": 101195, "internal_node_id": "0.0-10.0-9.0"}}, {"uniqueid": "MTK0216:37M28K1J0RK7JNKGN86336BE65WAJK", "current_trial": 20, "dateTime": 1509552008723, "trialdata": {"rt": -1, "stimulus": "<p id=\"stim\">+</p>", "key_press": -1, "type": "FIXATION", "trial_type": "single-stim", "trial_index": 20, "time_elapsed": 102698, "internal_node_id": "0.0-11.0-0.0"}}, {"uniqueid": "MTK0216:37M28K1J0RK7JNKGN86336BE65WAJK", "current_trial": 21, "dateTime": 1509552009926, "trialdata": {"rt": -1, "stimulus": "<p id=\"stim\">CABBAGE</p>", "key_press": -1, "type": "PRES_VIS", "word": "cabbage", "wordID": 209, "conditions": [18, 1200, "v", 18000], "trial": 0, "serialpos": 0, "trial_type": "single-stim", "trial_index": 21, "time_elapsed": 103900, "internal_node_id": "0.0-12.0"}}, {"uniqueid": "MTK0216:37M28K1J0RK7JNKGN86336BE65WAJK", "current_trial": 22, "dateTime": 1509552011982, "trialdata": {"rt": -1, "stimulus": "<p id=\"stim\">GRAPE</p>", "key_press": -1, "type": "PRES_VIS", "word": "grape", "wordID": 653, "conditions": [18, 1200, "v", 18000], "trial": 0, "serialpos": 1, "trial_type": "single-stim", "trial_index": 22, "time_elapsed": 105957, "internal_node_id": "0.0-13.0"}}, {"uniqueid": "MTK0216:37M28K1J0RK7JNKGN86336BE65WAJK", "current_trial": 23, "dateTime": 1509552014202, "trialdata": {"rt": -1, "stimulus": "<p id=\"stim\">NURSE</p>", "key_press": -1, "type": "PRES_VIS", "word": "nurse", "wordID": 962, "conditions": [18, 1200, "v", 18000], "trial": 0, "serialpos": 2, "trial_type": "single-stim", "trial_index": 23, "time_elapsed": 108176, "internal_node_id": "0.0-14.0"}}, {"uniqueid": "MTK0216:37M28K1J0RK7JNKGN86336BE65WAJK", "current_trial": 24, "dateTime": 1509552016464, "trialdata": {"rt": -1, "stimulus": "<p id=\"stim\">PIMPLE</p>", "key_press": -1, "type": "PRES_VIS", "word": "pimple", "wordID": 1070, "conditions": [18, 1200, "v", 18000], "trial": 0, "serialpos": 3, "trial_type": "single-stim", "trial_index": 24, "time_elapsed": 110439, "internal_node_id": "0.0-15.0"}}, {"uniqueid": "MTK0216:37M28K1J0RK7JNKGN86336BE65WAJK", "current_trial": 25, "dateTime": 1509552018771, "trialdata": {"rt": -1, "stimulus": "<p id=\"stim\">BLADE</p>", "key_press": -1, "type": "PRES_VIS", "word": "blade", "wordID": 133, "conditions": [18, 1200, "v", 18000], "trial": 0, "serialpos": 4, "trial_type": "single-stim", "trial_index": 25, "time_elapsed": 112746, "internal_node_id": "0.0-16.0"}}, {"uniqueid": "MTK0216:37M28K1J0RK7JNKGN86336BE65WAJK", "current_trial": 26, "dateTime": 1509552021050, "trialdata": {"rt": -1, "stimulus": "<p id=\"stim\">ROBIN</p>", "key_press": -1, "type": "PRES_VIS", "word": "robin", "wordID": 1198, "conditions": [18, 1200, "v", 18000], "trial": 0, "serialpos": 5, "trial_type": "single-stim", "trial_index": 26, "time_elapsed": 115025, "internal_node_id": "0.0-17.0"}}, {"uniqueid": "MTK0216:37M28K1J0RK7JNKGN86336BE65WAJK", "current_trial": 27, "dateTime": 1509552023407, "trialdata": {"rt": -1, "stimulus": "<p id=\"stim\">HUMAN</p>", "key_press": -1, "type": "PRES_VIS", "word": "human", "wordID": 725, "conditions": [18, 1200, "v", 18000], "trial": 0, "serialpos": 6, "trial_type": "single-stim", "trial_index": 27, "time_elapsed": 117382, "internal_node_id": "0.0-18.0"}}, {"uniqueid": "MTK0216:37M28K1J0RK7JNKGN86336BE65WAJK", "current_trial": 28, "dateTime": 1509552025510, "trialdata": {"rt": -1, "stimulus": "<p id=\"stim\">THREAD</p>", "key_press": -1, "type": "PRES_VIS", "word": "thread", "wordID": 1459, "conditions": [18, 1200, "v", 18000], "trial": 0, "serialpos": 7, "trial_type": "single-stim", "trial_index": 28, "time_elapsed": 119484, "internal_node_id": "0.0-19.0"}}, {"uniqueid": "MTK0216:37M28K1J0RK7JNKGN86336BE65WAJK", "current_trial": 29, "dateTime": 1509552027525, "trialdata": {"rt": -1, "stimulus": "<p id=\"stim\">GRAVE</p>", "key_press": -1, "type": "PRES_VIS", "word": "grave", "wordID": 657, "conditions": [18, 1200, "v", 18000], "trial": 0, "serialpos": 8, "trial_type": "single-stim", "trial_index": 29, "time_elapsed": 121500, "internal_node_id": "0.0-20.0"}}, {"uniqueid": "MTK0216:37M28K1J0RK7JNKGN86336BE65WAJK", "current_trial": 30, "dateTime": 1509552029624, "trialdata": {"rt": -1, "stimulus": "<p id=\"stim\">TORTOISE</p>", "key_press": -1, "type": "PRES_VIS", "word": "tortoise", "wordID": 1485, "conditions": [18, 1200, "v", 18000], "trial": 0, "serialpos": 9, "trial_type": "single-stim", "trial_index": 30, "time_elapsed": 123598, "internal_node_id": "0.0-21.0"}}, {"uniqueid": "MTK0216:37M28K1J0RK7JNKGN86336BE65WAJK", "current_trial": 31, "dateTime": 1509552031742, "trialdata": {"rt": -1, "stimulus": "<p id=\"stim\">STREAM</p>", "key_press": -1, "type": "PRES_VIS", "word": "stream", "wordID": 1391, "conditions": [18, 1200, "v", 18000], "trial": 0, "serialpos": 10, "trial_type": "single-stim", "trial_index": 31, "time_elapsed": 125716, "internal_node_id": "0.0-22.0"}}, {"uniqueid": "MTK0216:37M28K1J0RK7JNKGN86336BE65WAJK", "current_trial": 32, "dateTime": 1509552034077, "trialdata": {"rt": -1, "stimulus": "<p id=\"stim\">STONE</p>", "key_press": -1, "type": "PRES_VIS", "word": "stone", "wordID": 1384, "conditions": [18, 1200, "v", 18000], "trial": 0, "serialpos": 11, "trial_type": "single-stim", "trial_index": 32, "time_elapsed": 128050, "internal_node_id": "0.0-23.0"}}, {"uniqueid": "MTK0216:37M28K1J0RK7JNKGN86336BE65WAJK", "current_trial": 33, "dateTime": 1509552036333, "trialdata": {"rt": -1, "stimulus": "<p id=\"stim\">SWORD</p>", "key_press": -1, "type": "PRES_VIS", "word": "sword", "wordID": 1422, "conditions": [18, 1200, "v", 18000], "trial": 0, "serialpos": 12, "trial_type": "single-stim", "trial_index": 33, "time_elapsed": 130307, "internal_node_id": "0.0-24.0"}}, {"uniqueid": "MTK0216:37M28K1J0RK7JNKGN86336BE65WAJK", "current_trial": 34, "dateTime": 1509552038362, "trialdata": {"rt": -1, "stimulus": "<p id=\"stim\">NAPKIN</p>", "key_press": -1, "type": "PRES_VIS", "word": "napkin", "wordID": 936, "conditions": [18, 1200, "v", 18000], "trial": 0, "serialpos": 13, "trial_type": "single-stim", "trial_index": 34, "time_elapsed": 132337, "internal_node_id": "0.0-25.0"}}, {"uniqueid": "MTK0216:37M28K1J0RK7JNKGN86336BE65WAJK", "current_trial": 35, "dateTime": 1509552040662, "trialdata": {"rt": -1, "stimulus": "<p id=\"stim\">PISTOL</p>", "key_press": -1, "type": "PRES_VIS", "word": "pistol", "wordID": 1074, "conditions": [18, 1200, "v", 18000], "trial": 0, "serialpos": 14, "trial_type": "single-stim", "trial_index": 35, "time_elapsed": 134637, "internal_node_id": "0.0-26.0"}}, {"uniqueid": "MTK0216:37M28K1J0RK7JNKGN86336BE65WAJK", "current_trial": 36, "dateTime": 1509552042939, "trialdata": {"rt": -1, "stimulus": "<p id=\"stim\">GUARD</p>", "key_press": -1, "type": "PRES_VIS", "word": "guard", "wordID": 666, "conditions": [18, 1200, "v", 18000], "trial": 0, "serialpos": 15, "trial_type": "single-stim", "trial_index": 36, "time_elapsed": 136913, "internal_node_id": "0.0-27.0"}}, {"uniqueid": "MTK0216:37M28K1J0RK7JNKGN86336BE65WAJK", "current_trial": 37, "dateTime": 1509552045065, "trialdata": {"rt": -1, "stimulus": "<p id=\"stim\">BLENDER</p>", "key_press": -1, "type": "PRES_VIS", "word": "blender", "wordID": 135, "conditions": [18, 1200, "v", 18000], "trial": 0, "serialpos": 16, "trial_type": "single-stim", "trial_index": 37, "time_elapsed": 139040, "internal_node_id": "0.0-28.0"}}, {"uniqueid": "MTK0216:37M28K1J0RK7JNKGN86336BE65WAJK", "current_trial": 38, "dateTime": 1509552047156, "trialdata": {"rt": -1, "stimulus": "<p id=\"stim\">SHRUB</p>", "key_press": -1, "type": "PRES_VIS", "word": "shrub", "wordID": 1298, "conditions": [18, 1200, "v", 18000], "trial": 0, "serialpos": 17, "trial_type": "single-stim", "trial_index": 38, "time_elapsed": 141130, "internal_node_id": "0.0-29.0"}}, {"uniqueid": "MTK0216:37M28K1J0RK7JNKGN86336BE65WAJK", "current_trial": 39, "dateTime": 1509552049631, "trialdata": {"rt": -1, "stimulus": "", "key_press": -1, "type": "PRE_RECALL_DELAY", "trial_type": "single-stim", "trial_index": 39, "time_elapsed": 143606, "internal_node_id": "0.0-30.0-0.0"}}, {"uniqueid": "MTK0216:37M28K1J0RK7JNKGN86336BE65WAJK", "current_trial": 40, "dateTime": 1509552050136, "trialdata": {"rt": -1000, "stimulus": "/static/audio/400Hz.wav", "key_press": -1, "type": "PRE_RECALL_ALERT", "trial_type": "single-audio", "trial_index": 40, "time_elapsed": 144111, "internal_node_id": "0.0-31.0"}}, {"uniqueid": "MTK0216:37M28K1J0RK7JNKGN86336BE65WAJK", "current_trial": 41, "dateTime": 1509552110155, "trialdata": {"rt": [5908, 8094, 9705, 12418, 14959, 15406], "recwords": ["grape", "nurse", "humna", "blender", "", ""], "type": "FREE_RECALL", "conditions": [18, 1200, "v", 18000], "trial": 0, "trial_type": "free-recall", "trial_index": 41, "time_elapsed": 204126, "internal_node_id": "0.0-32.0-0.0"}}, {"uniqueid": "MTK0216:37M28K1J0RK7JNKGN86336BE65WAJK", "current_trial": 42, "dateTime": 1509552114127, "trialdata": {"rt": 1970, "key_press": 74, "type": "INSTRUCTIONS", "trial_type": "text", "trial_index": 42, "time_elapsed": 208102, "internal_node_id": "0.0-33.0"}}, {"uniqueid": "MTK0216:37M28K1J0RK7JNKGN86336BE65WAJK", "current_trial": 43, "dateTime": 1509552134146, "trialdata": {"rt": [6321, 13806], "responses": ["13", "19"], "num1": [5, 6, 8], "num2": [1, 7, 7], "num3": [7, 6, 6], "type": "DISTRACTOR", "conditions": [18, 1200, "a", 18000], "trial": 1, "trial_type": "math-distractor", "trial_index": 43, "time_elapsed": 228121, "internal_node_id": "0.0-34.0"}}, {"uniqueid": "MTK0216:37M28K1J0RK7JNKGN86336BE65WAJK", "current_trial": 44, "dateTime": 1509552137151, "trialdata": {"rt": -1, "stimulus": "<p id=\"stim\">10</p>", "key_press": -1, "trial_type": "single-stim", "trial_index": 44, "time_elapsed": 231125, "internal_node_id": "0.0-35.0-0.0"}}, {"uniqueid": "MTK0216:37M28K1J0RK7JNKGN86336BE65WAJK", "current_trial": 45, "dateTime": 1509552138155, "trialdata": {"rt": -1, "stimulus": "<p id=\"stim\">9</p>", "key_press": -1, "trial_type": "single-stim", "trial_index": 45, "time_elapsed": 232128, "internal_node_id": "0.0-35.0-1.0"}}, {"uniqueid": "MTK0216:37M28K1J0RK7JNKGN86336BE65WAJK", "current_trial": 46, "dateTime": 1509552139159, "trialdata": {"rt": -1, "stimulus": "<p id=\"stim\">8</p>", "key_press": -1, "trial_type": "single-stim", "trial_index": 46, "time_elapsed": 233133, "internal_node_id": "0.0-35.0-2.0"}}, {"uniqueid": "MTK0216:37M28K1J0RK7JNKGN86336BE65WAJK", "current_trial": 47, "dateTime": 1509552140162, "trialdata": {"rt": -1, "stimulus": "<p id=\"stim\">7</p>", "key_press": -1, "trial_type": "single-stim", "trial_index": 47, "time_elapsed": 234136, "internal_node_id": "0.0-35.0-3.0"}}, {"uniqueid": "MTK0216:37M28K1J0RK7JNKGN86336BE65WAJK", "current_trial": 48, "dateTime": 1509552141164, "trialdata": {"rt": -1, "stimulus": "<p id=\"stim\">6</p>", "key_press": -1, "trial_type": "single-stim", "trial_index": 48, "time_elapsed": 235139, "internal_node_id": "0.0-35.0-4.0"}}, {"uniqueid": "MTK0216:37M28K1J0RK7JNKGN86336BE65WAJK", "current_trial": 49, "dateTime": 1509552142166, "trialdata": {"rt": -1, "stimulus": "<p id=\"stim\">5</p>", "key_press": -1, "trial_type": "single-stim", "trial_index": 49, "time_elapsed": 236141, "internal_node_id": "0.0-35.0-5.0"}}, {"uniqueid": "MTK0216:37M28K1J0RK7JNKGN86336BE65WAJK", "current_trial": 50, "dateTime": 1509552143169, "trialdata": {"rt": -1, "stimulus": "<p id=\"stim\">4</p>", "key_press": -1, "trial_type": "single-stim", "trial_index": 50, "time_elapsed": 237143, "internal_node_id": "0.0-35.0-6.0"}}, {"uniqueid": "MTK0216:37M28K1J0RK7JNKGN86336BE65WAJK", "current_trial": 51, "dateTime": 1509552144174, "trialdata": {"rt": -1, "stimulus": "<p id=\"stim\">3</p>", "key_press": -1, "trial_type": "single-stim", "trial_index": 51, "time_elapsed": 238148, "internal_node_id": "0.0-35.0-7.0"}}, {"uniqueid": "MTK0216:37M28K1J0RK7JNKGN86336BE65WAJK", "current_trial": 52, "dateTime": 1509552145176, "trialdata": {"rt": -1, "stimulus": "<p id=\"stim\">2</p>", "key_press": -1, "trial_type": "single-stim", "trial_index": 52, "time_elapsed": 239151, "internal_node_id": "0.0-35.0-8.0"}}, {"uniqueid": "MTK0216:37M28K1J0RK7JNKGN86336BE65WAJK", "current_trial": 53, "dateTime": 1509552146178, "trialdata": {"rt": -1, "stimulus": "<p id=\"stim\">1</p>", "key_press": -1, "trial_type": "single-stim", "trial_index": 53, "time_elapsed": 240152, "internal_node_id": "0.0-35.0-9.0"}}, {"uniqueid": "MTK0216:37M28K1J0RK7JNKGN86336BE65WAJK", "current_trial": 54, "dateTime": 1509552147680, "trialdata": {"rt": -1, "stimulus": "<p id=\"stim\">+</p>", "key_press": -1, "type": "FIXATION", "trial_type": "single-stim", "trial_index": 54, "time_elapsed": 241654, "internal_node_id": "0.0-36.0-0.0"}}, {"uniqueid": "MTK0216:37M28K1J0RK7JNKGN86336BE65WAJK", "current_trial": 55, "dateTime": 1509552149785, "trialdata": {"rt": -1000, "stimulus": "/static/audio/wordpool/STAPLE.wav", "key_press": -1, "type": "PRES_AUD", "word": "staple", "wordID": 1370, "conditions": [18, 1200, "a", 18000], "trial": 1, "serialpos": 0, "trial_type": "single-audio", "trial_index": 55, "time_elapsed": 243759, "internal_node_id": "0.0-37.0"}}, {"uniqueid": "MTK0216:37M28K1J0RK7JNKGN86336BE65WAJK", "current_trial": 56, "dateTime": 1509552152093, "trialdata": {"rt": -1000, "stimulus": "/static/audio/wordpool/BABY.wav", "key_press": -1, "type": "PRES_AUD", "word": "baby", "wordID": 63, "conditions": [18, 1200, "a", 18000], "trial": 1, "serialpos": 1, "trial_type": "single-audio", "trial_index": 56, "time_elapsed": 246068, "internal_node_id": "0.0-38.0"}}, {"uniqueid": "MTK0216:37M28K1J0RK7JNKGN86336BE65WAJK", "current_trial": 57, "dateTime": 1509552154182, "trialdata": {"rt": -1000, "stimulus": "/static/audio/wordpool/STOMACH.wav", "key_press": -1, "type": "PRES_AUD", "word": "stomach", "wordID": 1383, "conditions": [18, 1200, "a", 18000], "trial": 1, "serialpos": 2, "trial_type": "single-audio", "trial_index": 57, "time_elapsed": 248156, "internal_node_id": "0.0-39.0"}}, {"uniqueid": "MTK0216:37M28K1J0RK7JNKGN86336BE65WAJK", "current_trial": 58, "dateTime": 1509552156559, "trialdata": {"rt": -1000, "stimulus": "/static/audio/wordpool/FLIPPER.wav", "key_press": -1, "type": "PRES_AUD", "word": "flipper", "wordID": 579, "conditions": [18, 1200, "a", 18000], "trial": 1, "serialpos": 3, "trial_type": "single-audio", "trial_index": 58, "time_elapsed": 250534, "internal_node_id": "0.0-40.0"}}, {"uniqueid": "MTK0216:37M28K1J0RK7JNKGN86336BE65WAJK", "current_trial": 59, "dateTime": 1509552158789, "trialdata": {"rt": -1000, "stimulus": "/static/audio/wordpool/QUAIL.wav", "key_press": -1, "type": "PRES_AUD", "word": "quail", "wordID": 1146, "conditions": [18, 1200, "a", 18000], "trial": 1, "serialpos": 4, "trial_type": "single-audio", "trial_index": 59, "time_elapsed": 252764, "internal_node_id": "0.0-41.0"}}, {"uniqueid": "MTK0216:37M28K1J0RK7JNKGN86336BE65WAJK", "current_trial": 60, "dateTime": 1509552160849, "trialdata": {"rt": -1000, "stimulus": "/static/audio/wordpool/SNACK.wav", "key_press": -1, "type": "PRES_AUD", "word": "snack", "wordID": 1330, "conditions": [18, 1200, "a", 18000], "trial": 1, "serialpos": 5, "trial_type": "single-audio", "trial_index": 60, "time_elapsed": 254824, "internal_node_id": "0.0-42.0"}}, {"uniqueid": "MTK0216:37M28K1J0RK7JNKGN86336BE65WAJK", "current_trial": 61, "dateTime": 1509552162878, "trialdata": {"rt": -1000, "stimulus": "/static/audio/wordpool/LEADER.wav", "key_press": -1, "type": "PRES_AUD", "word": "leader", "wordID": 806, "conditions": [18, 1200, "a", 18000], "trial": 1, "serialpos": 6, "trial_type": "single-audio", "trial_index": 61, "time_elapsed": 256853, "internal_node_id": "0.0-43.0"}}, {"uniqueid": "MTK0216:37M28K1J0RK7JNKGN86336BE65WAJK", "current_trial": 62, "dateTime": 1509552165034, "trialdata": {"rt": -1000, "stimulus": "/static/audio/wordpool/SUSPECT.wav", "key_press": -1, "type": "PRES_AUD", "word": "suspect", "wordID": 1414, "conditions": [18, 1200, "a", 18000], "trial": 1, "serialpos": 7, "trial_type": "single-audio", "trial_index": 62, "time_elapsed": 259008, "internal_node_id": "0.0-44.0"}}, {"uniqueid": "MTK0216:37M28K1J0RK7JNKGN86336BE65WAJK", "current_trial": 63, "dateTime": 1509552167289, "trialdata": {"rt": -1000, "stimulus": "/static/audio/wordpool/INFANT.wav", "key_press": -1, "type": "PRES_AUD", "word": "infant", "wordID": 736, "conditions": [18, 1200, "a", 18000], "trial": 1, "serialpos": 8, "trial_type": "single-audio", "trial_index": 63, "time_elapsed": 261264, "internal_node_id": "0.0-45.0"}}, {"uniqueid": "MTK0216:37M28K1J0RK7JNKGN86336BE65WAJK", "current_trial": 64, "dateTime": 1509552169572, "trialdata": {"rt": -1000, "stimulus": "/static/audio/wordpool/MARROW.wav", "key_press": -1, "type": "PRES_AUD", "word": "marrow", "wordID": 871, "conditions": [18, 1200, "a", 18000], "trial": 1, "serialpos": 9, "trial_type": "single-audio", "trial_index": 64, "time_elapsed": 263547, "internal_node_id": "0.0-46.0"}}, {"uniqueid": "MTK0216:37M28K1J0RK7JNKGN86336BE65WAJK", "current_trial": 65, "dateTime": 1509552171644, "trialdata": {"rt": -1000, "stimulus": "/static/audio/wordpool/SANDWICH.wav", "key_press": -1, "type": "PRES_AUD", "word": "sandwich", "wordID": 1231, "conditions": [18, 1200, "a", 18000], "trial": 1, "serialpos": 10, "trial_type": "single-audio", "trial_index": 65, "time_elapsed": 265619, "internal_node_id": "0.0-47.0"}}, {"uniqueid": "MTK0216:37M28K1J0RK7JNKGN86336BE65WAJK", "current_trial": 66, "dateTime": 1509552173799, "trialdata": {"rt": -1000, "stimulus": "/static/audio/wordpool/CONVICT.wav", "key_press": -1, "type": "PRES_AUD", "word": "convict", "wordID": 370, "conditions": [18, 1200, "a", 18000], "trial": 1, "serialpos": 11, "trial_type": "single-audio", "trial_index": 66, "time_elapsed": 267773, "internal_node_id": "0.0-48.0"}}, {"uniqueid": "MTK0216:37M28K1J0RK7JNKGN86336BE65WAJK", "current_trial": 67, "dateTime": 1509552176021, "trialdata": {"rt": -1000, "stimulus": "/static/audio/wordpool/BOUQUET.wav", "key_press": -1, "type": "PRES_AUD", "word": "bouquet", "wordID": 156, "conditions": [18, 1200, "a", 18000], "trial": 1, "serialpos": 12, "trial_type": "single-audio", "trial_index": 67, "time_elapsed": 269995, "internal_node_id": "0.0-49.0"}}, {"uniqueid": "MTK0216:37M28K1J0RK7JNKGN86336BE65WAJK", "current_trial": 68, "dateTime": 1509552178259, "trialdata": {"rt": -1000, "stimulus": "/static/audio/wordpool/SUNSET.wav", "key_press": -1, "type": "PRES_AUD", "word": "sunset", "wordID": 1407, "conditions": [18, 1200, "a", 18000], "trial": 1, "serialpos": 13, "trial_type": "single-audio", "trial_index": 68, "time_elapsed": 272233, "internal_node_id": "0.0-50.0"}}, {"uniqueid": "MTK0216:37M28K1J0RK7JNKGN86336BE65WAJK", "current_trial": 69, "dateTime": 1509552180278, "trialdata": {"rt": -1000, "stimulus": "/static/audio/wordpool/DORM.wav", "key_press": -1, "type": "PRES_AUD", "word": "dorm", "wordID": 487, "conditions": [18, 1200, "a", 18000], "trial": 1, "serialpos": 14, "trial_type": "single-audio", "trial_index": 69, "time_elapsed": 274253, "internal_node_id": "0.0-51.0"}}, {"uniqueid": "MTK0216:37M28K1J0RK7JNKGN86336BE65WAJK", "current_trial": 70, "dateTime": 1509552182494, "trialdata": {"rt": -1000, "stimulus": "/static/audio/wordpool/SPARROW.wav", "key_press": -1, "type": "PRES_AUD", "word": "sparrow", "wordID": 1346, "conditions": [18, 1200, "a", 18000], "trial": 1, "serialpos": 15, "trial_type": "single-audio", "trial_index": 70, "time_elapsed": 276468, "internal_node_id": "0.0-52.0"}}, {"uniqueid": "MTK0216:37M28K1J0RK7JNKGN86336BE65WAJK", "current_trial": 71, "dateTime": 1509552184732, "trialdata": {"rt": -1000, "stimulus": "/static/audio/wordpool/VICTIM.wav", "key_press": -1, "type": "PRES_AUD", "word": "victim", "wordID": 1561, "conditions": [18, 1200, "a", 18000], "trial": 1, "serialpos": 16, "trial_type": "single-audio", "trial_index": 71, "time_elapsed": 278707, "internal_node_id": "0.0-53.0"}}, {"uniqueid": "MTK0216:37M28K1J0RK7JNKGN86336BE65WAJK", "current_trial": 72, "dateTime": 1509552187026, "trialdata": {"rt": -1000, "stimulus": "/static/audio/wordpool/HOOD.wav", "key_press": -1, "type": "PRES_AUD", "word": "hood", "wordID": 713, "conditions": [18, 1200, "a", 18000], "trial": 1, "serialpos": 17, "trial_type": "single-audio", "trial_index": 72, "time_elapsed": 281000, "internal_node_id": "0.0-54.0"}}, {"uniqueid": "MTK0216:37M28K1J0RK7JNKGN86336BE65WAJK", "current_trial": 73, "dateTime": 1509552188355, "trialdata": {"rt": -1, "stimulus": "", "key_press": -1, "type": "PRE_RECALL_DELAY", "trial_type": "single-stim", "trial_index": 73, "time_elapsed": 282330, "internal_node_id": "0.0-55.0-0.0"}}, {"uniqueid": "MTK0216:37M28K1J0RK7JNKGN86336BE65WAJK", "current_trial": 74, "dateTime": 1509552188857, "trialdata": {"rt": -1000, "stimulus": "/static/audio/400Hz.wav", "key_press": -1, "type": "PRE_RECALL_ALERT", "trial_type": "single-audio", "trial_index": 74, "time_elapsed": 282832, "internal_node_id": "0.0-56.0"}}, {"uniqueid": "MTK0216:37M28K1J0RK7JNKGN86336BE65WAJK", "current_trial": 75, "dateTime": 1509552248881, "trialdata": {"rt": [3427, 5516, 8906, 10939, 15440, 17031, 19132], "recwords": ["baby", "infant", "victim", "convict", "sandwich", "snack", "storm"], "type": "FREE_RECALL", "conditions": [18, 1200, "a", 18000], "trial": 1, "trial_type": "free-recall", "trial_index": 75, "time_elapsed": 342848, "internal_node_id": "0.0-57.0-0.0"}}, {"uniqueid": "MTK0216:37M28K1J0RK7JNKGN86336BE65WAJK", "current_trial": 76, "dateTime": 1509552253901, "trialdata": {"rt": 3017, "key_press": 75, "type": "INSTRUCTIONS", "trial_type": "text", "trial_index": 76, "time_elapsed": 347876, "internal_node_id": "0.0-58.0"}}, {"uniqueid": "MTK0216:37M28K1J0RK7JNKGN86336BE65WAJK", "current_trial": 77, "dateTime": 1509552278913, "trialdata": {"rt": [5125, 8510, 12922, 14674, 17375, 20682], "responses": ["17", "12", "19", "11", "16", "16"], "num1": [7, 3, 7, 1, 8, 6, 1], "num2": [1, 3, 5, 5, 7, 7, 8], "num3": [9, 6, 7, 5, 1, 3, 7], "type": "DISTRACTOR", "conditions": [12, 1600, "v", 24000], "trial": 2, "trial_type": "math-distractor", "trial_index": 77, "time_elapsed": 372887, "internal_node_id": "0.0-59.0"}}, {"uniqueid": "MTK0216:37M28K1J0RK7JNKGN86336BE65WAJK", "current_trial": 78, "dateTime": 1509552281921, "trialdata": {"rt": -1, "stimulus": "<p id=\"stim\">10</p>", "key_press": -1, "trial_type": "single-stim", "trial_index": 78, "time_elapsed": 375895, "internal_node_id": "0.0-60.0-0.0"}}, {"uniqueid": "MTK0216:37M28K1J0RK7JNKGN86336BE65WAJK", "current_trial": 79, "dateTime": 1509552282922, "trialdata": {"rt": -1, "stimulus": "<p id=\"stim\">9</p>", "key_press": -1, "trial_type": "single-stim", "trial_index": 79, "time_elapsed": 376897, "internal_node_id": "0.0-60.0-1.0"}}, {"uniqueid": "MTK0216:37M28K1J0RK7JNKGN86336BE65WAJK", "current_trial": 80, "dateTime": 1509552283923, "trialdata": {"rt": -1, "stimulus": "<p id=\"stim\">8</p>", "key_press": -1, "trial_type": "single-stim", "trial_index": 80, "time_elapsed": 377898, "internal_node_id": "0.0-60.0-2.0"}}, {"uniqueid": "MTK0216:37M28K1J0RK7JNKGN86336BE65WAJK", "current_trial": 81, "dateTime": 1509552284924, "trialdata": {"rt": -1, "stimulus": "<p id=\"stim\">7</p>", "key_press": -1, "trial_type": "single-stim", "trial_index": 81, "time_elapsed": 378899, "internal_node_id": "0.0-60.0-3.0"}}, {"uniqueid": "MTK0216:37M28K1J0RK7JNKGN86336BE65WAJK", "current_trial": 82, "dateTime": 1509552285926, "trialdata": {"rt": -1, "stimulus": "<p id=\"stim\">6</p>", "key_press": -1, "trial_type": "single-stim", "trial_index": 82, "time_elapsed": 379901, "internal_node_id": "0.0-60.0-4.0"}}, {"uniqueid": "MTK0216:37M28K1J0RK7JNKGN86336BE65WAJK", "current_trial": 83, "dateTime": 1509552286928, "trialdata": {"rt": -1, "stimulus": "<p id=\"stim\">5</p>", "key_press": -1, "trial_type": "single-stim", "trial_index": 83, "time_elapsed": 380903, "internal_node_id": "0.0-60.0-5.0"}}, {"uniqueid": "MTK0216:37M28K1J0RK7JNKGN86336BE65WAJK", "current_trial": 84, "dateTime": 1509552287930, "trialdata": {"rt": -1, "stimulus": "<p id=\"stim\">4</p>", "key_press": -1, "trial_type": "single-stim", "trial_index": 84, "time_elapsed": 381904, "internal_node_id": "0.0-60.0-6.0"}}, {"uniqueid": "MTK0216:37M28K1J0RK7JNKGN86336BE65WAJK", "current_trial": 85, "dateTime": 1509552288943, "trialdata": {"rt": -1, "stimulus": "<p id=\"stim\">3</p>", "key_press": -1, "trial_type": "single-stim", "trial_index": 85, "time_elapsed": 382917, "internal_node_id": "0.0-60.0-7.0"}}, {"uniqueid": "MTK0216:37M28K1J0RK7JNKGN86336BE65WAJK", "current_trial": 86, "dateTime": 1509552289945, "trialdata": {"rt": -1, "stimulus": "<p id=\"stim\">2</p>", "key_press": -1, "trial_type": "single-stim", "trial_index": 86, "time_elapsed": 383920, "internal_node_id": "0.0-60.0-8.0"}}, {"uniqueid": "MTK0216:37M28K1J0RK7JNKGN86336BE65WAJK", "current_trial": 87, "dateTime": 1509552290957, "trialdata": {"rt": -1, "stimulus": "<p id=\"stim\">1</p>", "key_press": -1, "trial_type": "single-stim", "trial_index": 87, "time_elapsed": 384932, "internal_node_id": "0.0-60.0-9.0"}}, {"uniqueid": "MTK0216:37M28K1J0RK7JNKGN86336BE65WAJK", "current_trial": 88, "dateTime": 1509552292460, "trialdata": {"rt": -1, "stimulus": "<p id=\"stim\">+</p>", "key_press": -1, "type": "FIXATION", "trial_type": "single-stim", "trial_index": 88, "time_elapsed": 386435, "internal_node_id": "0.0-61.0-0.0"}}, {"uniqueid": "MTK0216:37M28K1J0RK7JNKGN86336BE65WAJK", "current_trial": 89, "dateTime": 1509552294062, "trialdata": {"rt": -1, "stimulus": "<p id=\"stim\">CASHIER</p>", "key_press": -1, "type": "PRES_VIS", "word": "cashier", "wordID": 253, "conditions": [12, 1600, "v", 24000], "trial": 2, "serialpos": 0, "trial_type": "single-stim", "trial_index": 89, "time_elapsed": 388037, "internal_node_id": "0.0-62.0"}}, {"uniqueid": "MTK0216:37M28K1J0RK7JNKGN86336BE65WAJK", "current_trial": 90, "dateTime": 1509552296685, "trialdata": {"rt": -1, "stimulus": "<p id=\"stim\">DAISY</p>", "key_press": -1, "type": "PRES_VIS", "word": "daisy", "wordID": 434, "conditions": [12, 1600, "v", 24000], "trial": 2, "serialpos": 1, "trial_type": "single-stim", "trial_index": 90, "time_elapsed": 390660, "internal_node_id": "0.0-63.0"}}, {"uniqueid": "MTK0216:37M28K1J0RK7JNKGN86336BE65WAJK", "current_trial": 91, "dateTime": 1509552299169, "trialdata": {"rt": -1, "stimulus": "<p id=\"stim\">GANGSTER</p>", "key_press": -1, "type": "PRES_VIS", "word": "gangster", "wordID": 619, "conditions": [12, 1600, "v", 24000], "trial": 2, "serialpos": 2, "trial_type": "single-stim", "trial_index": 91, "time_elapsed": 393144, "internal_node_id": "0.0-64.0"}}, {"uniqueid": "MTK0216:37M28K1J0RK7JNKGN86336BE65WAJK", "current_trial": 92, "dateTime": 1509552301945, "trialdata": {"rt": -1, "stimulus": "<p id=\"stim\">HAWK</p>", "key_press": -1, "type": "PRES_VIS", "word": "hawk", "wordID": 691, "conditions": [12, 1600, "v", 24000], "trial": 2, "serialpos": 3, "trial_type": "single-stim", "trial_index": 92, "time_elapsed": 395919, "internal_node_id": "0.0-65.0"}}, {"uniqueid": "MTK0216:37M28K1J0RK7JNKGN86336BE65WAJK", "current_trial": 93, "dateTime": 1509552304571, "trialdata": {"rt": -1, "stimulus": "<p id=\"stim\">POCKET</p>", "key_press": -1, "type": "PRES_VIS", "word": "pocket", "wordID": 1092, "conditions": [12, 1600, "v", 24000], "trial": 2, "serialpos": 4, "trial_type": "single-stim", "trial_index": 93, "time_elapsed": 398546, "internal_node_id": "0.0-66.0"}}, {"uniqueid": "MTK0216:37M28K1J0RK7JNKGN86336BE65WAJK", "current_trial": 94, "dateTime": 1509552306981, "trialdata": {"rt": -1, "stimulus": "<p id=\"stim\">PECAN</p>", "key_press": -1, "type": "PRES_VIS", "word": "pecan", "wordID": 1035, "conditions": [12, 1600, "v", 24000], "trial": 2, "serialpos": 5, "trial_type": "single-stim", "trial_index": 94, "time_elapsed": 400956, "internal_node_id": "0.0-67.0"}}, {"uniqueid": "MTK0216:37M28K1J0RK7JNKGN86336BE65WAJK", "current_trial": 95, "dateTime": 1509552309707, "trialdata": {"rt": -1, "stimulus": "<p id=\"stim\">PEANUT</p>", "key_press": -1, "type": "PRES_VIS", "word": "peanut", "wordID": 1031, "conditions": [12, 1600, "v", 24000], "trial": 2, "serialpos": 6, "trial_type": "single-stim", "trial_index": 95, "time_elapsed": 403680, "internal_node_id": "0.0-68.0"}}, {"uniqueid": "MTK0216:37M28K1J0RK7JNKGN86336BE65WAJK", "current_trial": 96, "dateTime": 1509552312335, "trialdata": {"rt": -1, "stimulus": "<p id=\"stim\">LAPEL</p>", "key_press": -1, "type": "PRES_VIS", "word": "lapel", "wordID": 799, "conditions": [12, 1600, "v", 24000], "trial": 2, "serialpos": 7, "trial_type": "single-stim", "trial_index": 96, "time_elapsed": 406309, "internal_node_id": "0.0-69.0"}}, {"uniqueid": "MTK0216:37M28K1J0RK7JNKGN86336BE65WAJK", "current_trial": 97, "dateTime": 1509552314845, "trialdata": {"rt": -1, "stimulus": "<p id=\"stim\">OMELET</p>", "key_press": -1, "type": "PRES_VIS", "word": "omelet", "wordID": 975, "conditions": [12, 1600, "v", 24000], "trial": 2, "serialpos": 8, "trial_type": "single-stim", "trial_index": 97, "time_elapsed": 408819, "internal_node_id": "0.0-70.0"}}, {"uniqueid": "MTK0216:37M28K1J0RK7JNKGN86336BE65WAJK", "current_trial": 98, "dateTime": 1509552317426, "trialdata": {"rt": -1, "stimulus": "<p id=\"stim\">RUST</p>", "key_press": -1, "type": "PRES_VIS", "word": "rust", "wordID": 1218, "conditions": [12, 1600, "v", 24000], "trial": 2, "serialpos": 9, "trial_type": "single-stim", "trial_index": 98, "time_elapsed": 411400, "internal_node_id": "0.0-71.0"}}, {"uniqueid": "MTK0216:37M28K1J0RK7JNKGN86336BE65WAJK", "current_trial": 99, "dateTime": 1509552320218, "trialdata": {"rt": -1, "stimulus": "<p id=\"stim\">FLOWER</p>", "key_press": -1, "type": "PRES_VIS", "word": "flower", "wordID": 583, "conditions": [12, 1600, "v", 24000], "trial": 2, "serialpos": 10, "trial_type": "single-stim", "trial_index": 99, "time_elapsed": 414193, "internal_node_id": "0.0-72.0"}}, {"uniqueid": "MTK0216:37M28K1J0RK7JNKGN86336BE65WAJK", "current_trial": 100, "dateTime": 1509552323003, "trialdata": {"rt": -1, "stimulus": "<p id=\"stim\">ACTOR</p>", "key_press": -1, "type": "PRES_VIS", "word": "actor", "wordID": 4, "conditions": [12, 1600, "v", 24000], "trial": 2, "serialpos": 11, "trial_type": "single-stim", "trial_index": 100, "time_elapsed": 416977, "internal_node_id": "0.0-73.0"}}, {"uniqueid": "MTK0216:37M28K1J0RK7JNKGN86336BE65WAJK", "current_trial": 101, "dateTime": 1509552325169, "trialdata": {"rt": -1, "stimulus": "", "key_press": -1, "type": "PRE_RECALL_DELAY", "trial_type": "single-stim", "trial_index": 101, "time_elapsed": 419144, "internal_node_id": "0.0-74.0-0.0"}}, {"uniqueid": "MTK0216:37M28K1J0RK7JNKGN86336BE65WAJK", "current_trial": 102, "dateTime": 1509552325672, "trialdata": {"rt": -1000, "stimulus": "/static/audio/400Hz.wav", "key_press": -1, "type": "PRE_RECALL_ALERT", "trial_type": "single-audio", "trial_index": 102, "time_elapsed": 419647, "internal_node_id": "0.0-75.0"}}, {"uniqueid": "MTK0216:37M28K1J0RK7JNKGN86336BE65WAJK", "current_trial": 103, "dateTime": 1509552385696, "trialdata": {"rt": [2687, 5475, 7267, 26776], "recwords": ["cashier", "daisy", "actor", "gangster"], "type": "FREE_RECALL", "conditions": [12, 1600, "v", 24000], "trial": 2, "trial_type": "free-recall", "trial_index": 103, "time_elapsed": 479661, "internal_node_id": "0.0-76.0-0.0"}}, {"uniqueid": "MTK0216:37M28K1J0RK7JNKGN86336BE65WAJK", "current_trial": 104, "dateTime": 1509552389403, "trialdata": {"rt": 1703, "key_press": 72, "type": "INSTRUCTIONS", "trial_type": "text", "trial_index": 104, "time_elapsed": 483377, "internal_node_id": "0.0-77.0"}}, {"uniqueid": "MTK0216:37M28K1J0RK7JNKGN86336BE65WAJK", "current_trial": 105, "dateTime": 1509552415429, "trialdata": {"rt": [8044, 14547, 21600], "responses": ["20", "19", "22"], "num1": [5, 2, 8, 7], "num2": [8, 8, 9, 6], "num3": [7, 9, 5, 2], "type": "DISTRACTOR", "conditions": [12, 1600, "a", 24000], "trial": 3, "trial_type": "math-distractor", "trial_index": 105, "time_elapsed": 509404, "internal_node_id": "0.0-78.0"}}, {"uniqueid": "MTK0216:37M28K1J0RK7JNKGN86336BE65WAJK", "current_trial": 106, "dateTime": 1509552418460, "trialdata": {"rt": -1, "stimulus": "<p id=\"stim\">10</p>", "key_press": -1, "trial_type": "single-stim", "trial_index": 106, "time_elapsed": 512435, "internal_node_id": "0.0-79.0-0.0"}}, {"uniqueid": "MTK0216:37M28K1J0RK7JNKGN86336BE65WAJK", "current_trial": 107, "dateTime": 1509552419463, "trialdata": {"rt": -1, "stimulus": "<p id=\"stim\">9</p>", "key_press": -1, "trial_type": "single-stim", "trial_index": 107, "time_elapsed": 513437, "internal_node_id": "0.0-79.0-1.0"}}, {"uniqueid": "MTK0216:37M28K1J0RK7JNKGN86336BE65WAJK", "current_trial": 108, "dateTime": 1509552420482, "trialdata": {"rt": -1, "stimulus": "<p id=\"stim\">8</p>", "key_press": -1, "trial_type": "single-stim", "trial_index": 108, "time_elapsed": 514457, "internal_node_id": "0.0-79.0-2.0"}}, {"uniqueid": "MTK0216:37M28K1J0RK7JNKGN86336BE65WAJK", "current_trial": 109, "dateTime": 1509552421486, "trialdata": {"rt": -1, "stimulus": "<p id=\"stim\">7</p>", "key_press": -1, "trial_type": "single-stim", "trial_index": 109, "time_elapsed": 515461, "internal_node_id": "0.0-79.0-3.0"}}, {"uniqueid": "MTK0216:37M28K1J0RK7JNKGN86336BE65WAJK", "current_trial": 110, "dateTime": 1509552422491, "trialdata": {"rt": -1, "stimulus": "<p id=\"stim\">6</p>", "key_press": -1, "trial_type": "single-stim", "trial_index": 110, "time_elapsed": 516465, "internal_node_id": "0.0-79.0-4.0"}}, {"uniqueid": "MTK0216:37M28K1J0RK7JNKGN86336BE65WAJK", "current_trial": 111, "dateTime": 1509552423530, "trialdata": {"rt": -1, "stimulus": "<p id=\"stim\">5</p>", "key_press": -1, "trial_type": "single-stim", "trial_index": 111, "time_elapsed": 517505, "internal_node_id": "0.0-79.0-5.0"}}, {"uniqueid": "MTK0216:37M28K1J0RK7JNKGN86336BE65WAJK", "current_trial": 112, "dateTime": 1509552424546, "trialdata": {"rt": -1, "stimulus": "<p id=\"stim\">4</p>", "key_press": -1, "trial_type": "single-stim", "trial_index": 112, "time_elapsed": 518521, "internal_node_id": "0.0-79.0-6.0"}}, {"uniqueid": "MTK0216:37M28K1J0RK7JNKGN86336BE65WAJK", "current_trial": 113, "dateTime": 1509552425551, "trialdata": {"rt": -1, "stimulus": "<p id=\"stim\">3</p>", "key_press": -1, "trial_type": "single-stim", "trial_index": 113, "time_elapsed": 519525, "internal_node_id": "0.0-79.0-7.0"}}, {"uniqueid": "MTK0216:37M28K1J0RK7JNKGN86336BE65WAJK", "current_trial": 114, "dateTime": 1509552426560, "trialdata": {"rt": -1, "stimulus": "<p id=\"stim\">2</p>", "key_press": -1, "trial_type": "single-stim", "trial_index": 114, "time_elapsed": 520535, "internal_node_id": "0.0-79.0-8.0"}}, {"uniqueid": "MTK0216:37M28K1J0RK7JNKGN86336BE65WAJK", "current_trial": 115, "dateTime": 1509552427562, "trialdata": {"rt": -1, "stimulus": "<p id=\"stim\">1</p>", "key_press": -1, "trial_type": "single-stim", "trial_index": 115, "time_elapsed": 521536, "internal_node_id": "0.0-79.0-9.0"}}, {"uniqueid": "MTK0216:37M28K1J0RK7JNKGN86336BE65WAJK", "current_trial": 116, "dateTime": 1509552429066, "trialdata": {"rt": -1, "stimulus": "<p id=\"stim\">+</p>", "key_press": -1, "type": "FIXATION", "trial_type": "single-stim", "trial_index": 116, "time_elapsed": 523040, "internal_node_id": "0.0-80.0-0.0"}}, {"uniqueid": "MTK0216:37M28K1J0RK7JNKGN86336BE65WAJK", "current_trial": 117, "dateTime": 1509552431633, "trialdata": {"rt": -1000, "stimulus": "/static/audio/wordpool/VELVET.wav", "key_press": -1, "type": "PRES_AUD", "word": "velvet", "wordID": 1554, "conditions": [12, 1600, "a", 24000], "trial": 3, "serialpos": 0, "trial_type": "single-audio", "trial_index": 117, "time_elapsed": 525608, "internal_node_id": "0.0-81.0"}}, {"uniqueid": "MTK0216:37M28K1J0RK7JNKGN86336BE65WAJK", "current_trial": 118, "dateTime": 1509552434301, "trialdata": {"rt": -1000, "stimulus": "/static/audio/wordpool/CLOCK.wav", "key_press": -1, "type": "PRES_AUD", "word": "clock", "wordID": 324, "conditions": [12, 1600, "a", 24000], "trial": 3, "serialpos": 1, "trial_type": "single-audio", "trial_index": 118, "time_elapsed": 528275, "internal_node_id": "0.0-82.0"}}, {"uniqueid": "MTK0216:37M28K1J0RK7JNKGN86336BE65WAJK", "current_trial": 119, "dateTime": 1509552436710, "trialdata": {"rt": -1000, "stimulus": "/static/audio/wordpool/OUTDOORS.wav", "key_press": -1, "type": "PRES_AUD", "word": "outdoors", "wordID": 986, "conditions": [12, 1600, "a", 24000], "trial": 3, "serialpos": 2, "trial_type": "single-audio", "trial_index": 119, "time_elapsed": 530685, "internal_node_id": "0.0-83.0"}}, {"uniqueid": "MTK0216:37M28K1J0RK7JNKGN86336BE65WAJK", "current_trial": 120, "dateTime": 1509552439334, "trialdata": {"rt": -1000, "stimulus": "/static/audio/wordpool/RIVER.wav", "key_press": -1, "type": "PRES_AUD", "word": "river", "wordID": 1193, "conditions": [12, 1600, "a", 24000], "trial": 3, "serialpos": 3, "trial_type": "single-audio", "trial_index": 120, "time_elapsed": 533308, "internal_node_id": "0.0-84.0"}}, {"uniqueid": "MTK0216:37M28K1J0RK7JNKGN86336BE65WAJK", "current_trial": 121, "dateTime": 1509552442070, "trialdata": {"rt": -1000, "stimulus": "/static/audio/wordpool/TABLE.wav", "key_press": -1, "type": "PRES_AUD", "word": "table", "wordID": 1425, "conditions": [12, 1600, "a", 24000], "trial": 3, "serialpos": 4, "trial_type": "single-audio", "trial_index": 121, "time_elapsed": 536045, "internal_node_id": "0.0-85.0"}}, {"uniqueid": "MTK0216:37M28K1J0RK7JNKGN86336BE65WAJK", "current_trial": 122, "dateTime": 1509552444738, "trialdata": {"rt": -1000, "stimulus": "/static/audio/wordpool/ONION.wav", "key_press": -1, "type": "PRES_AUD", "word": "onion", "wordID": 976, "conditions": [12, 1600, "a", 24000], "trial": 3, "serialpos": 5, "trial_type": "single-audio", "trial_index": 122, "time_elapsed": 538713, "internal_node_id": "0.0-86.0"}}, {"uniqueid": "MTK0216:37M28K1J0RK7JNKGN86336BE65WAJK", "current_trial": 123, "dateTime": 1509552447256, "trialdata": {"rt": -1000, "stimulus": "/static/audio/wordpool/GARLIC.wav", "key_press": -1, "type": "PRES_AUD", "word": "garlic", "wordID": 623, "conditions": [12, 1600, "a", 24000], "trial": 3, "serialpos": 6, "trial_type": "single-audio", "trial_index": 123, "time_elapsed": 541230, "internal_node_id": "0.0-87.0"}}, {"uniqueid": "MTK0216:37M28K1J0RK7JNKGN86336BE65WAJK", "current_trial": 124, "dateTime": 1509552449709, "trialdata": {"rt": -1000, "stimulus": "/static/audio/wordpool/SODA.wav", "key_press": -1, "type": "PRES_AUD", "word": "soda", "wordID": 1340, "conditions": [12, 1600, "a", 24000], "trial": 3, "serialpos": 7, "trial_type": "single-audio", "trial_index": 124, "time_elapsed": 543683, "internal_node_id": "0.0-88.0"}}, {"uniqueid": "MTK0216:37M28K1J0RK7JNKGN86336BE65WAJK", "current_trial": 125, "dateTime": 1509552452222, "trialdata": {"rt": -1000, "stimulus": "/static/audio/wordpool/CHAMPAGNE.wav", "key_press": -1, "type": "PRES_AUD", "word": "champagne", "wordID": 277, "conditions": [12, 1600, "a", 24000], "trial": 3, "serialpos": 8, "trial_type": "single-audio", "trial_index": 125, "time_elapsed": 546197, "internal_node_id": "0.0-89.0"}}, {"uniqueid": "MTK0216:37M28K1J0RK7JNKGN86336BE65WAJK", "current_trial": 126, "dateTime": 1509552454880, "trialdata": {"rt": -1000, "stimulus": "/static/audio/wordpool/SWITCH.wav", "key_press": -1, "type": "PRES_AUD", "word": "switch", "wordID": 1421, "conditions": [12, 1600, "a", 24000], "trial": 3, "serialpos": 9, "trial_type": "single-audio", "trial_index": 126, "time_elapsed": 548855, "internal_node_id": "0.0-90.0"}}, {"uniqueid": "MTK0216:37M28K1J0RK7JNKGN86336BE65WAJK", "current_trial": 127, "dateTime": 1509552457435, "trialdata": {"rt": -1000, "stimulus": "/static/audio/wordpool/CANDY.wav", "key_press": -1, "type": "PRES_AUD", "word": "candy", "wordID": 229, "conditions": [12, 1600, "a", 24000], "trial": 3, "serialpos": 10, "trial_type": "single-audio", "trial_index": 127, "time_elapsed": 551409, "internal_node_id": "0.0-91.0"}}, {"uniqueid": "MTK0216:37M28K1J0RK7JNKGN86336BE65WAJK", "current_trial": 128, "dateTime": 1509552460223, "trialdata": {"rt": -1000, "stimulus": "/static/audio/wordpool/BACKBONE.wav", "key_press": -1, "type": "PRES_AUD", "word": "backbone", "wordID": 65, "conditions": [12, 1600, "a", 24000], "trial": 3, "serialpos": 11, "trial_type": "single-audio", "trial_index": 128, "time_elapsed": 554198, "internal_node_id": "0.0-92.0"}}, {"uniqueid": "MTK0216:37M28K1J0RK7JNKGN86336BE65WAJK", "current_trial": 129, "dateTime": 1509552461452, "trialdata": {"rt": -1, "stimulus": "", "key_press": -1, "type": "PRE_RECALL_DELAY", "trial_type": "single-stim", "trial_index": 129, "time_elapsed": 555426, "internal_node_id": "0.0-93.0-0.0"}}, {"uniqueid": "MTK0216:37M28K1J0RK7JNKGN86336BE65WAJK", "current_trial": 130, "dateTime": 1509552461953, "trialdata": {"rt": -1000, "stimulus": "/static/audio/400Hz.wav", "key_press": -1, "type": "PRE_RECALL_ALERT", "trial_type": "single-audio", "trial_index": 130, "time_elapsed": 555928, "internal_node_id": "0.0-94.0"}}, {"uniqueid": "MTK0216:37M28K1J0RK7JNKGN86336BE65WAJK", "current_trial": 131, "dateTime": 1509552521975, "trialdata": {"rt": [5327, 7201, 9045, 11125, 13269], "recwords": ["apple", "candy", "soda", "onion", "garlic"], "type": "FREE_RECALL", "conditions": [12, 1600, "a", 24000], "trial": 3, "trial_type": "free-recall", "trial_index": 131, "time_elapsed": 615937, "internal_node_id": "0.0-95.0-0.0"}}, {"uniqueid": "MTK0216:37M28K1J0RK7JNKGN86336BE65WAJK", "current_trial": 132, "dateTime": 1509552525251, "trialdata": {"rt": 1273, "key_press": 74, "type": "INSTRUCTIONS", "trial_type": "text", "trial_index": 132, "time_elapsed": 619225, "internal_node_id": "0.0-96.0"}}, {"uniqueid": "MTK0216:37M28K1J0RK7JNKGN86336BE65WAJK", "current_trial": 133, "dateTime": 1509552539275, "trialdata": {"rt": [4274, 8171, 10845], "responses": ["18", "9", "17"], "num1": [4, 2, 1, 1], "num2": [7, 2, 7, 4], "num3": [7, 5, 9, 3], "type": "DISTRACTOR", "conditions": [12, 800, "a", 12000], "trial": 4, "trial_type": "math-distractor", "trial_index": 133, "time_elapsed": 633248, "internal_node_id": "0.0-97.0"}}, {"uniqueid": "MTK0216:37M28K1J0RK7JNKGN86336BE65WAJK", "current_trial": 134, "dateTime": 1509552542280, "trialdata": {"rt": -1, "stimulus": "<p id=\"stim\">10</p>", "key_press": -1, "trial_type": "single-stim", "trial_index": 134, "time_elapsed": 636254, "internal_node_id": "0.0-98.0-0.0"}}, {"uniqueid": "MTK0216:37M28K1J0RK7JNKGN86336BE65WAJK", "current_trial": 135, "dateTime": 1509552543282, "trialdata": {"rt": -1, "stimulus": "<p id=\"stim\">9</p>", "key_press": -1, "trial_type": "single-stim", "trial_index": 135, "time_elapsed": 637257, "internal_node_id": "0.0-98.0-1.0"}}, {"uniqueid": "MTK0216:37M28K1J0RK7JNKGN86336BE65WAJK", "current_trial": 136, "dateTime": 1509552544283, "trialdata": {"rt": -1, "stimulus": "<p id=\"stim\">8</p>", "key_press": -1, "trial_type": "single-stim", "trial_index": 136, "time_elapsed": 638258, "internal_node_id": "0.0-98.0-2.0"}}, {"uniqueid": "MTK0216:37M28K1J0RK7JNKGN86336BE65WAJK", "current_trial": 137, "dateTime": 1509552545286, "trialdata": {"rt": -1, "stimulus": "<p id=\"stim\">7</p>", "key_press": -1, "trial_type": "single-stim", "trial_index": 137, "time_elapsed": 639260, "internal_node_id": "0.0-98.0-3.0"}}, {"uniqueid": "MTK0216:37M28K1J0RK7JNKGN86336BE65WAJK", "current_trial": 138, "dateTime": 1509552546289, "trialdata": {"rt": -1, "stimulus": "<p id=\"stim\">6</p>", "key_press": -1, "trial_type": "single-stim", "trial_index": 138, "time_elapsed": 640264, "internal_node_id": "0.0-98.0-4.0"}}, {"uniqueid": "MTK0216:37M28K1J0RK7JNKGN86336BE65WAJK", "current_trial": 139, "dateTime": 1509552547292, "trialdata": {"rt": -1, "stimulus": "<p id=\"stim\">5</p>", "key_press": -1, "trial_type": "single-stim", "trial_index": 139, "time_elapsed": 641267, "internal_node_id": "0.0-98.0-5.0"}}, {"uniqueid": "MTK0216:37M28K1J0RK7JNKGN86336BE65WAJK", "current_trial": 140, "dateTime": 1509552548294, "trialdata": {"rt": -1, "stimulus": "<p id=\"stim\">4</p>", "key_press": -1, "trial_type": "single-stim", "trial_index": 140, "time_elapsed": 642269, "internal_node_id": "0.0-98.0-6.0"}}, {"uniqueid": "MTK0216:37M28K1J0RK7JNKGN86336BE65WAJK", "current_trial": 141, "dateTime": 1509552549301, "trialdata": {"rt": -1, "stimulus": "<p id=\"stim\">3</p>", "key_press": -1, "trial_type": "single-stim", "trial_index": 141, "time_elapsed": 643274, "internal_node_id": "0.0-98.0-7.0"}}, {"uniqueid": "MTK0216:37M28K1J0RK7JNKGN86336BE65WAJK", "current_trial": 142, "dateTime": 1509552550304, "trialdata": {"rt": -1, "stimulus": "<p id=\"stim\">2</p>", "key_press": -1, "trial_type": "single-stim", "trial_index": 142, "time_elapsed": 644278, "internal_node_id": "0.0-98.0-8.0"}}, {"uniqueid": "MTK0216:37M28K1J0RK7JNKGN86336BE65WAJK", "current_trial": 143, "dateTime": 1509552551307, "trialdata": {"rt": -1, "stimulus": "<p id=\"stim\">1</p>", "key_press": -1, "trial_type": "single-stim", "trial_index": 143, "time_elapsed": 645281, "internal_node_id": "0.0-98.0-9.0"}}, {"uniqueid": "MTK0216:37M28K1J0RK7JNKGN86336BE65WAJK", "current_trial": 144, "dateTime": 1509552552809, "trialdata": {"rt": -1, "stimulus": "<p id=\"stim\">+</p>", "key_press": -1, "type": "FIXATION", "trial_type": "single-stim", "trial_index": 144, "time_elapsed": 646783, "internal_node_id": "0.0-99.0-0.0"}}, {"uniqueid": "MTK0216:37M28K1J0RK7JNKGN86336BE65WAJK", "current_trial": 145, "dateTime": 1509552554639, "trialdata": {"rt": -1000, "stimulus": "/static/audio/wordpool/PIGMENT.wav", "key_press": -1, "type": "PRES_AUD", "word": "pigment", "wordID": 1065, "conditions": [12, 800, "a", 12000], "trial": 4, "serialpos": 0, "trial_type": "single-audio", "trial_index": 145, "time_elapsed": 648614, "internal_node_id": "0.0-100.0"}}, {"uniqueid": "MTK0216:37M28K1J0RK7JNKGN86336BE65WAJK", "current_trial": 146, "dateTime": 1509552556419, "trialdata": {"rt": -1000, "stimulus": "/static/audio/wordpool/SEAFOOD.wav", "key_press": -1, "type": "PRES_AUD", "word": "seafood", "wordID": 1259, "conditions": [12, 800, "a", 12000], "trial": 4, "serialpos": 1, "trial_type": "single-audio", "trial_index": 146, "time_elapsed": 650392, "internal_node_id": "0.0-101.0"}}, {"uniqueid": "MTK0216:37M28K1J0RK7JNKGN86336BE65WAJK", "current_trial": 147, "dateTime": 1509552558052, "trialdata": {"rt": -1000, "stimulus": "/static/audio/wordpool/POSTAGE.wav", "key_press": -1, "type": "PRES_AUD", "word": "postage", "wordID": 1112, "conditions": [12, 800, "a", 12000], "trial": 4, "serialpos": 2, "trial_type": "single-audio", "trial_index": 147, "time_elapsed": 652025, "internal_node_id": "0.0-102.0"}}, {"uniqueid": "MTK0216:37M28K1J0RK7JNKGN86336BE65WAJK", "current_trial": 148, "dateTime": 1509552559870, "trialdata": {"rt": -1000, "stimulus": "/static/audio/wordpool/MAMMAL.wav", "key_press": -1, "type": "PRES_AUD", "word": "mammal", "wordID": 860, "conditions": [12, 800, "a", 12000], "trial": 4, "serialpos": 3, "trial_type": "single-audio", "trial_index": 148, "time_elapsed": 653844, "internal_node_id": "0.0-103.0"}}, {"uniqueid": "MTK0216:37M28K1J0RK7JNKGN86336BE65WAJK", "current_trial": 149, "dateTime": 1509552561814, "trialdata": {"rt": -1000, "stimulus": "/static/audio/wordpool/CYCLONE.wav", "key_press": -1, "type": "PRES_AUD", "word": "cyclone", "wordID": 430, "conditions": [12, 800, "a", 12000], "trial": 4, "serialpos": 4, "trial_type": "single-audio", "trial_index": 149, "time_elapsed": 655789, "internal_node_id": "0.0-104.0"}}, {"uniqueid": "MTK0216:37M28K1J0RK7JNKGN86336BE65WAJK", "current_trial": 150, "dateTime": 1509552563483, "trialdata": {"rt": -1000, "stimulus": "/static/audio/wordpool/FUNGUS.wav", "key_press": -1, "type": "PRES_AUD", "word": "fungus", "wordID": 613, "conditions": [12, 800, "a", 12000], "trial": 4, "serialpos": 5, "trial_type": "single-audio", "trial_index": 150, "time_elapsed": 657458, "internal_node_id": "0.0-105.0"}}, {"uniqueid": "MTK0216:37M28K1J0RK7JNKGN86336BE65WAJK", "current_trial": 151, "dateTime": 1509552565402, "trialdata": {"rt": -1000, "stimulus": "/static/audio/wordpool/KIDNEY.wav", "key_press": -1, "type": "PRES_AUD", "word": "kidney", "wordID": 775, "conditions": [12, 800, "a", 12000], "trial": 4, "serialpos": 6, "trial_type": "single-audio", "trial_index": 151, "time_elapsed": 659376, "internal_node_id": "0.0-106.0"}}, {"uniqueid": "MTK0216:37M28K1J0RK7JNKGN86336BE65WAJK", "current_trial": 152, "dateTime": 1509552567045, "trialdata": {"rt": -1000, "stimulus": "/static/audio/wordpool/COTTAGE.wav", "key_press": -1, "type": "PRES_AUD", "word": "cottage", "wordID": 383, "conditions": [12, 800, "a", 12000], "trial": 4, "serialpos": 7, "trial_type": "single-audio", "trial_index": 152, "time_elapsed": 661019, "internal_node_id": "0.0-107.0"}}, {"uniqueid": "MTK0216:37M28K1J0RK7JNKGN86336BE65WAJK", "current_trial": 153, "dateTime": 1509552569023, "trialdata": {"rt": -1000, "stimulus": "/static/audio/wordpool/COWBOY.wav", "key_press": -1, "type": "PRES_AUD", "word": "cowboy", "wordID": 394, "conditions": [12, 800, "a", 12000], "trial": 4, "serialpos": 8, "trial_type": "single-audio", "trial_index": 153, "time_elapsed": 662997, "internal_node_id": "0.0-108.0"}}, {"uniqueid": "MTK0216:37M28K1J0RK7JNKGN86336BE65WAJK", "current_trial": 154, "dateTime": 1509552570981, "trialdata": {"rt": -1000, "stimulus": "/static/audio/wordpool/SHOULDER.wav", "key_press": -1, "type": "PRES_AUD", "word": "shoulder", "wordID": 1293, "conditions": [12, 800, "a", 12000], "trial": 4, "serialpos": 9, "trial_type": "single-audio", "trial_index": 154, "time_elapsed": 664955, "internal_node_id": "0.0-109.0"}}, {"uniqueid": "MTK0216:37M28K1J0RK7JNKGN86336BE65WAJK", "current_trial": 155, "dateTime": 1509552572592, "trialdata": {"rt": -1000, "stimulus": "/static/audio/wordpool/ELBOW.wav", "key_press": -1, "type": "PRES_AUD", "word": "elbow", "wordID": 519, "conditions": [12, 800, "a", 12000], "trial": 4, "serialpos": 10, "trial_type": "single-audio", "trial_index": 155, "time_elapsed": 666567, "internal_node_id": "0.0-110.0"}}, {"uniqueid": "MTK0216:37M28K1J0RK7JNKGN86336BE65WAJK", "current_trial": 156, "dateTime": 1509552574368, "trialdata": {"rt": -1000, "stimulus": "/static/audio/wordpool/PORK.wav", "key_press": -1, "type": "PRES_AUD", "word": "pork", "wordID": 1107, "conditions": [12, 800, "a", 12000], "trial": 4, "serialpos": 11, "trial_type": "single-audio", "trial_index": 156, "time_elapsed": 668342, "internal_node_id": "0.0-111.0"}}, {"uniqueid": "MTK0216:37M28K1J0RK7JNKGN86336BE65WAJK", "current_trial": 157, "dateTime": 1509552575586, "trialdata": {"rt": -1, "stimulus": "", "key_press": -1, "type": "PRE_RECALL_DELAY", "trial_type": "single-stim", "trial_index": 157, "time_elapsed": 669560, "internal_node_id": "0.0-112.0-0.0"}}, {"uniqueid": "MTK0216:37M28K1J0RK7JNKGN86336BE65WAJK", "current_trial": 158, "dateTime": 1509552576090, "trialdata": {"rt": -1000, "stimulus": "/static/audio/400Hz.wav", "key_press": -1, "type": "PRE_RECALL_ALERT", "trial_type": "single-audio", "trial_index": 158, "time_elapsed": 670065, "internal_node_id": "0.0-113.0"}}, {"uniqueid": "MTK0216:37M28K1J0RK7JNKGN86336BE65WAJK", "current_trial": 159, "dateTime": 1509552636111, "trialdata": {"rt": [3499, 6139, 7772, 10555, 13508, 17235, 20470], "recwords": ["elbow", "shoulder", "pork", "pigment", "seafood", "pork", "pigment"], "type": "FREE_RECALL", "conditions": [12, 800, "a", 12000], "trial": 4, "trial_type": "free-recall", "trial_index": 159, "time_elapsed": 730080, "internal_node_id": "0.0-114.0-0.0"}}, {"uniqueid": "MTK0216:37M28K1J0RK7JNKGN86336BE65WAJK", "current_trial": 160, "dateTime": 1509552639374, "trialdata": {"rt": 1255, "key_press": 75, "type": "INSTRUCTIONS", "trial_type": "text", "trial_index": 160, "time_elapsed": 733348, "internal_node_id": "0.0-115.0"}}, {"uniqueid": "MTK0216:37M28K1J0RK7JNKGN86336BE65WAJK", "current_trial": 161, "dateTime": 1509552653396, "trialdata": {"rt": [5496, 10834], "responses": ["15", "17"], "num1": [5, 5, 9], "num2": [6, 6, 3], "num3": [4, 6, 5], "type": "DISTRACTOR", "conditions": [24, 1600, "a", 12000], "trial": 5, "trial_type": "math-distractor", "trial_index": 161, "time_elapsed": 747369, "internal_node_id": "0.0-116.0"}}, {"uniqueid": "MTK0216:37M28K1J0RK7JNKGN86336BE65WAJK", "current_trial": 162, "dateTime": 1509552656400, "trialdata": {"rt": -1, "stimulus": "<p id=\"stim\">10</p>", "key_press": -1, "trial_type": "single-stim", "trial_index": 162, "time_elapsed": 750374, "internal_node_id": "0.0-117.0-0.0"}}, {"uniqueid": "MTK0216:37M28K1J0RK7JNKGN86336BE65WAJK", "current_trial": 163, "dateTime": 1509552657403, "trialdata": {"rt": -1, "stimulus": "<p id=\"stim\">9</p>", "key_press": -1, "trial_type": "single-stim", "trial_index": 163, "time_elapsed": 751377, "internal_node_id": "0.0-117.0-1.0"}}, {"uniqueid": "MTK0216:37M28K1J0RK7JNKGN86336BE65WAJK", "current_trial": 164, "dateTime": 1509552658407, "trialdata": {"rt": -1, "stimulus": "<p id=\"stim\">8</p>", "key_press": -1, "trial_type": "single-stim", "trial_index": 164, "time_elapsed": 752381, "internal_node_id": "0.0-117.0-2.0"}}, {"uniqueid": "MTK0216:37M28K1J0RK7JNKGN86336BE65WAJK", "current_trial": 165, "dateTime": 1509552659411, "trialdata": {"rt": -1, "stimulus": "<p id=\"stim\">7</p>", "key_press": -1, "trial_type": "single-stim", "trial_index": 165, "time_elapsed": 753385, "internal_node_id": "0.0-117.0-3.0"}}, {"uniqueid": "MTK0216:37M28K1J0RK7JNKGN86336BE65WAJK", "current_trial": 166, "dateTime": 1509552660414, "trialdata": {"rt": -1, "stimulus": "<p id=\"stim\">6</p>", "key_press": -1, "trial_type": "single-stim", "trial_index": 166, "time_elapsed": 754389, "internal_node_id": "0.0-117.0-4.0"}}, {"uniqueid": "MTK0216:37M28K1J0RK7JNKGN86336BE65WAJK", "current_trial": 167, "dateTime": 1509552661417, "trialdata": {"rt": -1, "stimulus": "<p id=\"stim\">5</p>", "key_press": -1, "trial_type": "single-stim", "trial_index": 167, "time_elapsed": 755391, "internal_node_id": "0.0-117.0-5.0"}}, {"uniqueid": "MTK0216:37M28K1J0RK7JNKGN86336BE65WAJK", "current_trial": 168, "dateTime": 1509552662420, "trialdata": {"rt": -1, "stimulus": "<p id=\"stim\">4</p>", "key_press": -1, "trial_type": "single-stim", "trial_index": 168, "time_elapsed": 756395, "internal_node_id": "0.0-117.0-6.0"}}, {"uniqueid": "MTK0216:37M28K1J0RK7JNKGN86336BE65WAJK", "current_trial": 169, "dateTime": 1509552663423, "trialdata": {"rt": -1, "stimulus": "<p id=\"stim\">3</p>", "key_press": -1, "trial_type": "single-stim", "trial_index": 169, "time_elapsed": 757397, "internal_node_id": "0.0-117.0-7.0"}}, {"uniqueid": "MTK0216:37M28K1J0RK7JNKGN86336BE65WAJK", "current_trial": 170, "dateTime": 1509552664428, "trialdata": {"rt": -1, "stimulus": "<p id=\"stim\">2</p>", "key_press": -1, "trial_type": "single-stim", "trial_index": 170, "time_elapsed": 758403, "internal_node_id": "0.0-117.0-8.0"}}, {"uniqueid": "MTK0216:37M28K1J0RK7JNKGN86336BE65WAJK", "current_trial": 171, "dateTime": 1509552665431, "trialdata": {"rt": -1, "stimulus": "<p id=\"stim\">1</p>", "key_press": -1, "trial_type": "single-stim", "trial_index": 171, "time_elapsed": 759406, "internal_node_id": "0.0-117.0-9.0"}}, {"uniqueid": "MTK0216:37M28K1J0RK7JNKGN86336BE65WAJK", "current_trial": 172, "dateTime": 1509552666935, "trialdata": {"rt": -1, "stimulus": "<p id=\"stim\">+</p>", "key_press": -1, "type": "FIXATION", "trial_type": "single-stim", "trial_index": 172, "time_elapsed": 760909, "internal_node_id": "0.0-118.0-0.0"}}, {"uniqueid": "MTK0216:37M28K1J0RK7JNKGN86336BE65WAJK", "current_trial": 173, "dateTime": 1509552669673, "trialdata": {"rt": -1000, "stimulus": "/static/audio/wordpool/STAMP.wav", "key_press": -1, "type": "PRES_AUD", "word": "stamp", "wordID": 1369, "conditions": [24, 1600, "a", 12000], "trial": 5, "serialpos": 0, "trial_type": "single-audio", "trial_index": 173, "time_elapsed": 763648, "internal_node_id": "0.0-119.0"}}, {"uniqueid": "MTK0216:37M28K1J0RK7JNKGN86336BE65WAJK", "current_trial": 174, "dateTime": 1509552672082, "trialdata": {"rt": -1000, "stimulus": "/static/audio/wordpool/BEAST.wav", "key_press": -1, "type": "PRES_AUD", "word": "beast", "wordID": 107, "conditions": [24, 1600, "a", 12000], "trial": 5, "serialpos": 1, "trial_type": "single-audio", "trial_index": 174, "time_elapsed": 766057, "internal_node_id": "0.0-120.0"}}, {"uniqueid": "MTK0216:37M28K1J0RK7JNKGN86336BE65WAJK", "current_trial": 175, "dateTime": 1509552674822, "trialdata": {"rt": -1000, "stimulus": "/static/audio/wordpool/BUNNY.wav", "key_press": -1, "type": "PRES_AUD", "word": "bunny", "wordID": 197, "conditions": [24, 1600, "a", 12000], "trial": 5, "serialpos": 2, "trial_type": "single-audio", "trial_index": 175, "time_elapsed": 768797, "internal_node_id": "0.0-121.0"}}, {"uniqueid": "MTK0216:37M28K1J0RK7JNKGN86336BE65WAJK", "current_trial": 176, "dateTime": 1509552677407, "trialdata": {"rt": -1000, "stimulus": "/static/audio/wordpool/PUDDLE.wav", "key_press": -1, "type": "PRES_AUD", "word": "puddle", "wordID": 1139, "conditions": [24, 1600, "a", 12000], "trial": 5, "serialpos": 3, "trial_type": "single-audio", "trial_index": 176, "time_elapsed": 771382, "internal_node_id": "0.0-122.0"}}, {"uniqueid": "MTK0216:37M28K1J0RK7JNKGN86336BE65WAJK", "current_trial": 177, "dateTime": 1509552679877, "trialdata": {"rt": -1000, "stimulus": "/static/audio/wordpool/SHERIFF.wav", "key_press": -1, "type": "PRES_AUD", "word": "sheriff", "wordID": 1283, "conditions": [24, 1600, "a", 12000], "trial": 5, "serialpos": 4, "trial_type": "single-audio", "trial_index": 177, "time_elapsed": 773851, "internal_node_id": "0.0-123.0"}}, {"uniqueid": "MTK0216:37M28K1J0RK7JNKGN86336BE65WAJK", "current_trial": 178, "dateTime": 1509552682471, "trialdata": {"rt": -1000, "stimulus": "/static/audio/wordpool/DANDRUFF.wav", "key_press": -1, "type": "PRES_AUD", "word": "dandruff", "wordID": 438, "conditions": [24, 1600, "a", 12000], "trial": 5, "serialpos": 5, "trial_type": "single-audio", "trial_index": 178, "time_elapsed": 776445, "internal_node_id": "0.0-124.0"}}, {"uniqueid": "MTK0216:37M28K1J0RK7JNKGN86336BE65WAJK", "current_trial": 179, "dateTime": 1509552685268, "trialdata": {"rt": -1000, "stimulus": "/static/audio/wordpool/INMATE.wav", "key_press": -1, "type": "PRES_AUD", "word": "inmate", "wordID": 737, "conditions": [24, 1600, "a", 12000], "trial": 5, "serialpos": 6, "trial_type": "single-audio", "trial_index": 179, "time_elapsed": 779241, "internal_node_id": "0.0-125.0"}}, {"uniqueid": "MTK0216:37M28K1J0RK7JNKGN86336BE65WAJK", "current_trial": 180, "dateTime": 1509552687984, "trialdata": {"rt": -1000, "stimulus": "/static/audio/wordpool/RIFLE.wav", "key_press": -1, "type": "PRES_AUD", "word": "rifle", "wordID": 1191, "conditions": [24, 1600, "a", 12000], "trial": 5, "serialpos": 7, "trial_type": "single-audio", "trial_index": 180, "time_elapsed": 781958, "internal_node_id": "0.0-126.0"}}, {"uniqueid": "MTK0216:37M28K1J0RK7JNKGN86336BE65WAJK", "current_trial": 181, "dateTime": 1509552690594, "trialdata": {"rt": -1000, "stimulus": "/static/audio/wordpool/COUNTY.wav", "key_press": -1, "type": "PRES_AUD", "word": "county", "wordID": 388, "conditions": [24, 1600, "a", 12000], "trial": 5, "serialpos": 8, "trial_type": "single-audio", "trial_index": 181, "time_elapsed": 784567, "internal_node_id": "0.0-127.0"}}, {"uniqueid": "MTK0216:37M28K1J0RK7JNKGN86336BE65WAJK", "current_trial": 182, "dateTime": 1509552693194, "trialdata": {"rt": -1000, "stimulus": "/static/audio/wordpool/EUROPE.wav", "key_press": -1, "type": "PRES_AUD", "word": "europe", "wordID": 540, "conditions": [24, 1600, "a", 12000], "trial": 5, "serialpos": 9, "trial_type": "single-audio", "trial_index": 182, "time_elapsed": 787168, "internal_node_id": "0.0-128.0"}}, {"uniqueid": "MTK0216:37M28K1J0RK7JNKGN86336BE65WAJK", "current_trial": 183, "dateTime": 1509552695606, "trialdata": {"rt": -1000, "stimulus": "/static/audio/wordpool/ASIA.wav", "key_press": -1, "type": "PRES_AUD", "word": "asia", "wordID": 45, "conditions": [24, 1600, "a", 12000], "trial": 5, "serialpos": 10, "trial_type": "single-audio", "trial_index": 183, "time_elapsed": 789580, "internal_node_id": "0.0-129.0"}}, {"uniqueid": "MTK0216:37M28K1J0RK7JNKGN86336BE65WAJK", "current_trial": 184, "dateTime": 1509552698236, "trialdata": {"rt": -1000, "stimulus": "/static/audio/wordpool/HAMPER.wav", "key_press": -1, "type": "PRES_AUD", "word": "hamper", "wordID": 681, "conditions": [24, 1600, "a", 12000], "trial": 5, "serialpos": 11, "trial_type": "single-audio", "trial_index": 184, "time_elapsed": 792210, "internal_node_id": "0.0-130.0"}}, {"uniqueid": "MTK0216:37M28K1J0RK7JNKGN86336BE65WAJK", "current_trial": 185, "dateTime": 1509552700758, "trialdata": {"rt": -1000, "stimulus": "/static/audio/wordpool/POSSUM.wav", "key_press": -1, "type": "PRES_AUD", "word": "possum", "wordID": 1111, "conditions": [24, 1600, "a", 12000], "trial": 5, "serialpos": 12, "trial_type": "single-audio", "trial_index": 185, "time_elapsed": 794732, "internal_node_id": "0.0-131.0"}}, {"uniqueid": "MTK0216:37M28K1J0RK7JNKGN86336BE65WAJK", "current_trial": 186, "dateTime": 1509552703357, "trialdata": {"rt": -1000, "stimulus": "/static/audio/wordpool/LIZARD.wav", "key_press": -1, "type": "PRES_AUD", "word": "lizard", "wordID": 833, "conditions": [24, 1600, "a", 12000], "trial": 5, "serialpos": 13, "trial_type": "single-audio", "trial_index": 186, "time_elapsed": 797332, "internal_node_id": "0.0-132.0"}}, {"uniqueid": "MTK0216:37M28K1J0RK7JNKGN86336BE65WAJK", "current_trial": 187, "dateTime": 1509552706094, "trialdata": {"rt": -1000, "stimulus": "/static/audio/wordpool/SHARK.wav", "key_press": -1, "type": "PRES_AUD", "word": "shark", "wordID": 1274, "conditions": [24, 1600, "a", 12000], "trial": 5, "serialpos": 14, "trial_type": "single-audio", "trial_index": 187, "time_elapsed": 800068, "internal_node_id": "0.0-133.0"}}, {"uniqueid": "MTK0216:37M28K1J0RK7JNKGN86336BE65WAJK", "current_trial": 188, "dateTime": 1509552708583, "trialdata": {"rt": -1000, "stimulus": "/static/audio/wordpool/ORANGE.wav", "key_press": -1, "type": "PRES_AUD", "word": "orange", "wordID": 979, "conditions": [24, 1600, "a", 12000], "trial": 5, "serialpos": 15, "trial_type": "single-audio", "trial_index": 188, "time_elapsed": 802558, "internal_node_id": "0.0-134.0"}}, {"uniqueid": "MTK0216:37M28K1J0RK7JNKGN86336BE65WAJK", "current_trial": 189, "dateTime": 1509552711232, "trialdata": {"rt": -1000, "stimulus": "/static/audio/wordpool/CROWN.wav", "key_press": -1, "type": "PRES_AUD", "word": "crown", "wordID": 414, "conditions": [24, 1600, "a", 12000], "trial": 5, "serialpos": 16, "trial_type": "single-audio", "trial_index": 189, "time_elapsed": 805206, "internal_node_id": "0.0-135.0"}}, {"uniqueid": "MTK0216:37M28K1J0RK7JNKGN86336BE65WAJK", "current_trial": 190, "dateTime": 1509552713945, "trialdata": {"rt": -1000, "stimulus": "/static/audio/wordpool/SURVEY.wav", "key_press": -1, "type": "PRES_AUD", "word": "survey", "wordID": 1413, "conditions": [24, 1600, "a", 12000], "trial": 5, "serialpos": 17, "trial_type": "single-audio", "trial_index": 190, "time_elapsed": 807919, "internal_node_id": "0.0-136.0"}}, {"uniqueid": "MTK0216:37M28K1J0RK7JNKGN86336BE65WAJK", "current_trial": 191, "dateTime": 1509552716622, "trialdata": {"rt": -1000, "stimulus": "/static/audio/wordpool/ATOM.wav", "key_press": -1, "type": "PRES_AUD", "word": "atom", "wordID": 54, "conditions": [24, 1600, "a", 12000], "trial": 5, "serialpos": 18, "trial_type": "single-audio", "trial_index": 191, "time_elapsed": 810596, "internal_node_id": "0.0-137.0"}}, {"uniqueid": "MTK0216:37M28K1J0RK7JNKGN86336BE65WAJK", "current_trial": 192, "dateTime": 1509552719041, "trialdata": {"rt": -1000, "stimulus": "/static/audio/wordpool/PANTHER.wav", "key_press": -1, "type": "PRES_AUD", "word": "panther", "wordID": 1008, "conditions": [24, 1600, "a", 12000], "trial": 5, "serialpos": 19, "trial_type": "single-audio", "trial_index": 192, "time_elapsed": 813015, "internal_node_id": "0.0-138.0"}}, {"uniqueid": "MTK0216:37M28K1J0RK7JNKGN86336BE65WAJK", "current_trial": 193, "dateTime": 1509552721602, "trialdata": {"rt": -1000, "stimulus": "/static/audio/wordpool/SEAGULL.wav", "key_press": -1, "type": "PRES_AUD", "word": "seagull", "wordID": 1260, "conditions": [24, 1600, "a", 12000], "trial": 5, "serialpos": 20, "trial_type": "single-audio", "trial_index": 193, "time_elapsed": 815576, "internal_node_id": "0.0-139.0"}}, {"uniqueid": "MTK0216:37M28K1J0RK7JNKGN86336BE65WAJK", "current_trial": 194, "dateTime": 1509552724076, "trialdata": {"rt": -1000, "stimulus": "/static/audio/wordpool/DOLPHIN.wav", "key_press": -1, "type": "PRES_AUD", "word": "dolphin", "wordID": 482, "conditions": [24, 1600, "a", 12000], "trial": 5, "serialpos": 21, "trial_type": "single-audio", "trial_index": 194, "time_elapsed": 818050, "internal_node_id": "0.0-140.0"}}, {"uniqueid": "MTK0216:37M28K1J0RK7JNKGN86336BE65WAJK", "current_trial": 195, "dateTime": 1509552726766, "trialdata": {"rt": -1000, "stimulus": "/static/audio/wordpool/PARSLEY.wav", "key_press": -1, "type": "PRES_AUD", "word": "parsley", "wordID": 1015, "conditions": [24, 1600, "a", 12000], "trial": 5, "serialpos": 22, "trial_type": "single-audio", "trial_index": 195, "time_elapsed": 820741, "internal_node_id": "0.0-141.0"}}, {"uniqueid": "MTK0216:37M28K1J0RK7JNKGN86336BE65WAJK", "current_trial": 196, "dateTime": 1509552729270, "trialdata": {"rt": -1000, "stimulus": "/static/audio/wordpool/PREACHER.wav", "key_press": -1, "type": "PRES_AUD", "word": "preacher", "wordID": 1118, "conditions": [24, 1600, "a", 12000], "trial": 5, "serialpos": 23, "trial_type": "single-audio", "trial_index": 196, "time_elapsed": 823245, "internal_node_id": "0.0-142.0"}}, {"uniqueid": "MTK0216:37M28K1J0RK7JNKGN86336BE65WAJK", "current_trial": 197, "dateTime": 1509552730479, "trialdata": {"rt": -1, "stimulus": "", "key_press": -1, "type": "PRE_RECALL_DELAY", "trial_type": "single-stim", "trial_index": 197, "time_elapsed": 824453, "internal_node_id": "0.0-143.0-0.0"}}, {"uniqueid": "MTK0216:37M28K1J0RK7JNKGN86336BE65WAJK", "current_trial": 198, "dateTime": 1509552730986, "trialdata": {"rt": -1000, "stimulus": "/static/audio/400Hz.wav", "key_press": -1, "type": "PRE_RECALL_ALERT", "trial_type": "single-audio", "trial_index": 198, "time_elapsed": 824961, "internal_node_id": "0.0-144.0"}}, {"uniqueid": "MTK0216:37M28K1J0RK7JNKGN86336BE65WAJK", "current_trial": 199, "dateTime": 1509552791008, "trialdata": {"rt": [3133, 6747, 9360, 12228, 14860, 16371, 18432, 23197, 26975, 41065], "recwords": ["creature", "parsley", "shark", "inmate", "europe", "asia", "rifle", "panther", "atom", "survey"], "type": "FREE_RECALL", "conditions": [24, 1600, "a", 12000], "trial": 5, "trial_type": "free-recall", "trial_index": 199, "time_elapsed": 884972, "internal_node_id": "0.0-145.0-0.0"}}, {"uniqueid": "MTK0216:37M28K1J0RK7JNKGN86336BE65WAJK", "current_trial": 200, "dateTime": 1509552794441, "trialdata": {"rt": 1429, "key_press": 70, "type": "INSTRUCTIONS", "trial_type": "text", "trial_index": 200, "time_elapsed": 888415, "internal_node_id": "0.0-146.0"}}, {"uniqueid": "MTK0216:37M28K1J0RK7JNKGN86336BE65WAJK", "current_trial": 201, "dateTime": 1509552808460, "trialdata": {"rt": [5770, 11064], "responses": ["19", "22"], "num1": [7, 5, 7], "num2": [9, 8, 9], "num3": [3, 9, 4], "type": "DISTRACTOR", "conditions": [12, 1600, "v", 12000], "trial": 6, "trial_type": "math-distractor", "trial_index": 201, "time_elapsed": 902434, "internal_node_id": "0.0-147.0"}}, {"uniqueid": "MTK0216:37M28K1J0RK7JNKGN86336BE65WAJK", "current_trial": 202, "dateTime": 1509552811463, "trialdata": {"rt": -1, "stimulus": "<p id=\"stim\">10</p>", "key_press": -1, "trial_type": "single-stim", "trial_index": 202, "time_elapsed": 905438, "internal_node_id": "0.0-148.0-0.0"}}, {"uniqueid": "MTK0216:37M28K1J0RK7JNKGN86336BE65WAJK", "current_trial": 203, "dateTime": 1509552812465, "trialdata": {"rt": -1, "stimulus": "<p id=\"stim\">9</p>", "key_press": -1, "trial_type": "single-stim", "trial_index": 203, "time_elapsed": 906440, "internal_node_id": "0.0-148.0-1.0"}}, {"uniqueid": "MTK0216:37M28K1J0RK7JNKGN86336BE65WAJK", "current_trial": 204, "dateTime": 1509552813468, "trialdata": {"rt": -1, "stimulus": "<p id=\"stim\">8</p>", "key_press": -1, "trial_type": "single-stim", "trial_index": 204, "time_elapsed": 907442, "internal_node_id": "0.0-148.0-2.0"}}, {"uniqueid": "MTK0216:37M28K1J0RK7JNKGN86336BE65WAJK", "current_trial": 205, "dateTime": 1509552814470, "trialdata": {"rt": -1, "stimulus": "<p id=\"stim\">7</p>", "key_press": -1, "trial_type": "single-stim", "trial_index": 205, "time_elapsed": 908445, "internal_node_id": "0.0-148.0-3.0"}}, {"uniqueid": "MTK0216:37M28K1J0RK7JNKGN86336BE65WAJK", "current_trial": 206, "dateTime": 1509552815472, "trialdata": {"rt": -1, "stimulus": "<p id=\"stim\">6</p>", "key_press": -1, "trial_type": "single-stim", "trial_index": 206, "time_elapsed": 909446, "internal_node_id": "0.0-148.0-4.0"}}, {"uniqueid": "MTK0216:37M28K1J0RK7JNKGN86336BE65WAJK", "current_trial": 207, "dateTime": 1509552816477, "trialdata": {"rt": -1, "stimulus": "<p id=\"stim\">5</p>", "key_press": -1, "trial_type": "single-stim", "trial_index": 207, "time_elapsed": 910451, "internal_node_id": "0.0-148.0-5.0"}}, {"uniqueid": "MTK0216:37M28K1J0RK7JNKGN86336BE65WAJK", "current_trial": 208, "dateTime": 1509552817520, "trialdata": {"rt": -1, "stimulus": "<p id=\"stim\">4</p>", "key_press": -1, "trial_type": "single-stim", "trial_index": 208, "time_elapsed": 911494, "internal_node_id": "0.0-148.0-6.0"}}, {"uniqueid": "MTK0216:37M28K1J0RK7JNKGN86336BE65WAJK", "current_trial": 209, "dateTime": 1509552818523, "trialdata": {"rt": -1, "stimulus": "<p id=\"stim\">3</p>", "key_press": -1, "trial_type": "single-stim", "trial_index": 209, "time_elapsed": 912497, "internal_node_id": "0.0-148.0-7.0"}}, {"uniqueid": "MTK0216:37M28K1J0RK7JNKGN86336BE65WAJK", "current_trial": 210, "dateTime": 1509552819525, "trialdata": {"rt": -1, "stimulus": "<p id=\"stim\">2</p>", "key_press": -1, "trial_type": "single-stim", "trial_index": 210, "time_elapsed": 913500, "internal_node_id": "0.0-148.0-8.0"}}, {"uniqueid": "MTK0216:37M28K1J0RK7JNKGN86336BE65WAJK", "current_trial": 211, "dateTime": 1509552820543, "trialdata": {"rt": -1, "stimulus": "<p id=\"stim\">1</p>", "key_press": -1, "trial_type": "single-stim", "trial_index": 211, "time_elapsed": 914518, "internal_node_id": "0.0-148.0-9.0"}}, {"uniqueid": "MTK0216:37M28K1J0RK7JNKGN86336BE65WAJK", "current_trial": 212, "dateTime": 1509552822049, "trialdata": {"rt": -1, "stimulus": "<p id=\"stim\">+</p>", "key_press": -1, "type": "FIXATION", "trial_type": "single-stim", "trial_index": 212, "time_elapsed": 916022, "internal_node_id": "0.0-149.0-0.0"}}, {"uniqueid": "MTK0216:37M28K1J0RK7JNKGN86336BE65WAJK", "current_trial": 213, "dateTime": 1509552823653, "trialdata": {"rt": -1, "stimulus": "<p id=\"stim\">COOK</p>", "key_press": -1, "type": "PRES_VIS", "word": "cook", "wordID": 371, "conditions": [12, 1600, "v", 12000], "trial": 6, "serialpos": 0, "trial_type": "single-stim", "trial_index": 213, "time_elapsed": 917628, "internal_node_id": "0.0-150.0"}}, {"uniqueid": "MTK0216:37M28K1J0RK7JNKGN86336BE65WAJK", "current_trial": 214, "dateTime": 1509552826435, "trialdata": {"rt": -1, "stimulus": "<p id=\"stim\">PICNIC</p>", "key_press": -1, "type": "PRES_VIS", "word": "picnic", "wordID": 1059, "conditions": [12, 1600, "v", 12000], "trial": 6, "serialpos": 1, "trial_type": "single-stim", "trial_index": 214, "time_elapsed": 920409, "internal_node_id": "0.0-151.0"}}, {"uniqueid": "MTK0216:37M28K1J0RK7JNKGN86336BE65WAJK", "current_trial": 215, "dateTime": 1509552829090, "trialdata": {"rt": -1, "stimulus": "<p id=\"stim\">PICTURE</p>", "key_press": -1, "type": "PRES_VIS", "word": "picture", "wordID": 1060, "conditions": [12, 1600, "v", 12000], "trial": 6, "serialpos": 2, "trial_type": "single-stim", "trial_index": 215, "time_elapsed": 923064, "internal_node_id": "0.0-152.0"}}, {"uniqueid": "MTK0216:37M28K1J0RK7JNKGN86336BE65WAJK", "current_trial": 216, "dateTime": 1509552831619, "trialdata": {"rt": -1, "stimulus": "<p id=\"stim\">WIDOW</p>", "key_press": -1, "type": "PRES_VIS", "word": "widow", "wordID": 1607, "conditions": [12, 1600, "v", 12000], "trial": 6, "serialpos": 3, "trial_type": "single-stim", "trial_index": 216, "time_elapsed": 925593, "internal_node_id": "0.0-153.0"}}, {"uniqueid": "MTK0216:37M28K1J0RK7JNKGN86336BE65WAJK", "current_trial": 217, "dateTime": 1509552834144, "trialdata": {"rt": -1, "stimulus": "<p id=\"stim\">BANJO</p>", "key_press": -1, "type": "PRES_VIS", "word": "banjo", "wordID": 81, "conditions": [12, 1600, "v", 12000], "trial": 6, "serialpos": 4, "trial_type": "single-stim", "trial_index": 217, "time_elapsed": 928118, "internal_node_id": "0.0-154.0"}}, {"uniqueid": "MTK0216:37M28K1J0RK7JNKGN86336BE65WAJK", "current_trial": 218, "dateTime": 1509552836616, "trialdata": {"rt": -1, "stimulus": "<p id=\"stim\">GRILL</p>", "key_press": -1, "type": "PRES_VIS", "word": "grill", "wordID": 660, "conditions": [12, 1600, "v", 12000], "trial": 6, "serialpos": 5, "trial_type": "single-stim", "trial_index": 218, "time_elapsed": 930590, "internal_node_id": "0.0-155.0"}}, {"uniqueid": "MTK0216:37M28K1J0RK7JNKGN86336BE65WAJK", "current_trial": 219, "dateTime": 1509552839421, "trialdata": {"rt": -1, "stimulus": "<p id=\"stim\">SKILLET</p>", "key_press": -1, "type": "PRES_VIS", "word": "skillet", "wordID": 1316, "conditions": [12, 1600, "v", 12000], "trial": 6, "serialpos": 6, "trial_type": "single-stim", "trial_index": 219, "time_elapsed": 933395, "internal_node_id": "0.0-156.0"}}, {"uniqueid": "MTK0216:37M28K1J0RK7JNKGN86336BE65WAJK", "current_trial": 220, "dateTime": 1509552842220, "trialdata": {"rt": -1, "stimulus": "<p id=\"stim\">SOFTBALL</p>", "key_press": -1, "type": "PRES_VIS", "word": "softball", "wordID": 1342, "conditions": [12, 1600, "v", 12000], "trial": 6, "serialpos": 7, "trial_type": "single-stim", "trial_index": 220, "time_elapsed": 936194, "internal_node_id": "0.0-157.0"}}, {"uniqueid": "MTK0216:37M28K1J0RK7JNKGN86336BE65WAJK", "current_trial": 221, "dateTime": 1509552844978, "trialdata": {"rt": -1, "stimulus": "<p id=\"stim\">MONSTER</p>", "key_press": -1, "type": "PRES_VIS", "word": "monster", "wordID": 911, "conditions": [12, 1600, "v", 12000], "trial": 6, "serialpos": 8, "trial_type": "single-stim", "trial_index": 221, "time_elapsed": 938953, "internal_node_id": "0.0-158.0"}}, {"uniqueid": "MTK0216:37M28K1J0RK7JNKGN86336BE65WAJK", "current_trial": 222, "dateTime": 1509552847739, "trialdata": {"rt": -1, "stimulus": "<p id=\"stim\">UNCLE</p>", "key_press": -1, "type": "PRES_VIS", "word": "uncle", "wordID": 1535, "conditions": [12, 1600, "v", 12000], "trial": 6, "serialpos": 9, "trial_type": "single-stim", "trial_index": 222, "time_elapsed": 941713, "internal_node_id": "0.0-159.0"}}, {"uniqueid": "MTK0216:37M28K1J0RK7JNKGN86336BE65WAJK", "current_trial": 223, "dateTime": 1509552850246, "trialdata": {"rt": -1, "stimulus": "<p id=\"stim\">DRAGON</p>", "key_press": -1, "type": "PRES_VIS", "word": "dragon", "wordID": 491, "conditions": [12, 1600, "v", 12000], "trial": 6, "serialpos": 10, "trial_type": "single-stim", "trial_index": 223, "time_elapsed": 944221, "internal_node_id": "0.0-160.0"}}, {"uniqueid": "MTK0216:37M28K1J0RK7JNKGN86336BE65WAJK", "current_trial": 224, "dateTime": 1509552852992, "trialdata": {"rt": -1, "stimulus": "<p id=\"stim\">COUSIN</p>", "key_press": -1, "type": "PRES_VIS", "word": "cousin", "wordID": 391, "conditions": [12, 1600, "v", 12000], "trial": 6, "serialpos": 11, "trial_type": "single-stim", "trial_index": 224, "time_elapsed": 946967, "internal_node_id": "0.0-161.0"}}, {"uniqueid": "MTK0216:37M28K1J0RK7JNKGN86336BE65WAJK", "current_trial": 225, "dateTime": 1509552855233, "trialdata": {"rt": -1, "stimulus": "", "key_press": -1, "type": "PRE_RECALL_DELAY", "trial_type": "single-stim", "trial_index": 225, "time_elapsed": 949208, "internal_node_id": "0.0-162.0-0.0"}}, {"uniqueid": "MTK0216:37M28K1J0RK7JNKGN86336BE65WAJK", "current_trial": 226, "dateTime": 1509552855737, "trialdata": {"rt": -1000, "stimulus": "/static/audio/400Hz.wav", "key_press": -1, "type": "PRE_RECALL_ALERT", "trial_type": "single-audio", "trial_index": 226, "time_elapsed": 949711, "internal_node_id": "0.0-163.0"}}, {"uniqueid": "MTK0216:37M28K1J0RK7JNKGN86336BE65WAJK", "current_trial": 227, "dateTime": 1509552915766, "trialdata": {"rt": [4585, 6920, 8860, 10700, 12101, 15472], "recwords": ["uncle", "cousin", "dragon", "monster", "cook", "picnic"], "type": "FREE_RECALL", "conditions": [12, 1600, "v", 12000], "trial": 6, "trial_type": "free-recall", "trial_index": 227, "time_elapsed": 1009728, "internal_node_id": "0.0-164.0-0.0"}}, {"uniqueid": "MTK0216:37M28K1J0RK7JNKGN86336BE65WAJK", "current_trial": 228, "dateTime": 1509552919504, "trialdata": {"rt": 1734, "key_press": 13, "type": "INSTRUCTIONS", "trial_type": "text", "trial_index": 228, "time_elapsed": 1013479, "internal_node_id": "0.0-165.0"}}, {"uniqueid": "MTK0216:37M28K1J0RK7JNKGN86336BE65WAJK", "current_trial": 229, "dateTime": 1509552933529, "trialdata": {"rt": [3581, 7897], "responses": ["17", "17"], "num1": [2, 8, 9], "num2": [8, 7, 4], "num3": [7, 2, 8], "type": "DISTRACTOR", "conditions": [12, 800, "v", 12000], "trial": 7, "trial_type": "math-distractor", "trial_index": 229, "time_elapsed": 1027503, "internal_node_id": "0.0-166.0"}}, {"uniqueid": "MTK0216:37M28K1J0RK7JNKGN86336BE65WAJK", "current_trial": 230, "dateTime": 1509552936533, "trialdata": {"rt": -1, "stimulus": "<p id=\"stim\">10</p>", "key_press": -1, "trial_type": "single-stim", "trial_index": 230, "time_elapsed": 1030508, "internal_node_id": "0.0-167.0-0.0"}}, {"uniqueid": "MTK0216:37M28K1J0RK7JNKGN86336BE65WAJK", "current_trial": 231, "dateTime": 1509552937537, "trialdata": {"rt": -1, "stimulus": "<p id=\"stim\">9</p>", "key_press": -1, "trial_type": "single-stim", "trial_index": 231, "time_elapsed": 1031511, "internal_node_id": "0.0-167.0-1.0"}}, {"uniqueid": "MTK0216:37M28K1J0RK7JNKGN86336BE65WAJK", "current_trial": 232, "dateTime": 1509552938541, "trialdata": {"rt": -1, "stimulus": "<p id=\"stim\">8</p>", "key_press": -1, "trial_type": "single-stim", "trial_index": 232, "time_elapsed": 1032515, "internal_node_id": "0.0-167.0-2.0"}}, {"uniqueid": "MTK0216:37M28K1J0RK7JNKGN86336BE65WAJK", "current_trial": 233, "dateTime": 1509552939544, "trialdata": {"rt": -1, "stimulus": "<p id=\"stim\">7</p>", "key_press": -1, "trial_type": "single-stim", "trial_index": 233, "time_elapsed": 1033518, "internal_node_id": "0.0-167.0-3.0"}}, {"uniqueid": "MTK0216:37M28K1J0RK7JNKGN86336BE65WAJK", "current_trial": 234, "dateTime": 1509552940547, "trialdata": {"rt": -1, "stimulus": "<p id=\"stim\">6</p>", "key_press": -1, "trial_type": "single-stim", "trial_index": 234, "time_elapsed": 1034522, "internal_node_id": "0.0-167.0-4.0"}}, {"uniqueid": "MTK0216:37M28K1J0RK7JNKGN86336BE65WAJK", "current_trial": 235, "dateTime": 1509552941550, "trialdata": {"rt": -1, "stimulus": "<p id=\"stim\">5</p>", "key_press": -1, "trial_type": "single-stim", "trial_index": 235, "time_elapsed": 1035524, "internal_node_id": "0.0-167.0-5.0"}}, {"uniqueid": "MTK0216:37M28K1J0RK7JNKGN86336BE65WAJK", "current_trial": 236, "dateTime": 1509552942554, "trialdata": {"rt": -1, "stimulus": "<p id=\"stim\">4</p>", "key_press": -1, "trial_type": "single-stim", "trial_index": 236, "time_elapsed": 1036528, "internal_node_id": "0.0-167.0-6.0"}}, {"uniqueid": "MTK0216:37M28K1J0RK7JNKGN86336BE65WAJK", "current_trial": 237, "dateTime": 1509552943556, "trialdata": {"rt": -1, "stimulus": "<p id=\"stim\">3</p>", "key_press": -1, "trial_type": "single-stim", "trial_index": 237, "time_elapsed": 1037531, "internal_node_id": "0.0-167.0-7.0"}}, {"uniqueid": "MTK0216:37M28K1J0RK7JNKGN86336BE65WAJK", "current_trial": 238, "dateTime": 1509552944559, "trialdata": {"rt": -1, "stimulus": "<p id=\"stim\">2</p>", "key_press": -1, "trial_type": "single-stim", "trial_index": 238, "time_elapsed": 1038533, "internal_node_id": "0.0-167.0-8.0"}}, {"uniqueid": "MTK0216:37M28K1J0RK7JNKGN86336BE65WAJK", "current_trial": 239, "dateTime": 1509552945562, "trialdata": {"rt": -1, "stimulus": "<p id=\"stim\">1</p>", "key_press": -1, "trial_type": "single-stim", "trial_index": 239, "time_elapsed": 1039537, "internal_node_id": "0.0-167.0-9.0"}}, {"uniqueid": "MTK0216:37M28K1J0RK7JNKGN86336BE65WAJK", "current_trial": 240, "dateTime": 1509552947066, "trialdata": {"rt": -1, "stimulus": "<p id=\"stim\">+</p>", "key_press": -1, "type": "FIXATION", "trial_type": "single-stim", "trial_index": 240, "time_elapsed": 1041040, "internal_node_id": "0.0-168.0-0.0"}}, {"uniqueid": "MTK0216:37M28K1J0RK7JNKGN86336BE65WAJK", "current_trial": 241, "dateTime": 1509552947867, "trialdata": {"rt": -1, "stimulus": "<p id=\"stim\">COSTUME</p>", "key_press": -1, "type": "PRES_VIS", "word": "costume", "wordID": 382, "conditions": [12, 800, "v", 12000], "trial": 7, "serialpos": 0, "trial_type": "single-stim", "trial_index": 241, "time_elapsed": 1041842, "internal_node_id": "0.0-169.0"}}, {"uniqueid": "MTK0216:37M28K1J0RK7JNKGN86336BE65WAJK", "current_trial": 242, "dateTime": 1509552949516, "trialdata": {"rt": -1, "stimulus": "<p id=\"stim\">COUCH</p>", "key_press": -1, "type": "PRES_VIS", "word": "couch", "wordID": 385, "conditions": [12, 800, "v", 12000], "trial": 7, "serialpos": 1, "trial_type": "single-stim", "trial_index": 242, "time_elapsed": 1043491, "internal_node_id": "0.0-170.0"}}, {"uniqueid": "MTK0216:37M28K1J0RK7JNKGN86336BE65WAJK", "current_trial": 243, "dateTime": 1509552951336, "trialdata": {"rt": -1, "stimulus": "<p id=\"stim\">FOREHEAD</p>", "key_press": -1, "type": "PRES_VIS", "word": "forehead", "wordID": 591, "conditions": [12, 800, "v", 12000], "trial": 7, "serialpos": 2, "trial_type": "single-stim", "trial_index": 243, "time_elapsed": 1045311, "internal_node_id": "0.0-171.0"}}, {"uniqueid": "MTK0216:37M28K1J0RK7JNKGN86336BE65WAJK", "current_trial": 244, "dateTime": 1509552953075, "trialdata": {"rt": -1, "stimulus": "<p id=\"stim\">TABLET</p>", "key_press": -1, "type": "PRES_VIS", "word": "tablet", "wordID": 1426, "conditions": [12, 800, "v", 12000], "trial": 7, "serialpos": 3, "trial_type": "single-stim", "trial_index": 244, "time_elapsed": 1047050, "internal_node_id": "0.0-172.0"}}, {"uniqueid": "MTK0216:37M28K1J0RK7JNKGN86336BE65WAJK", "current_trial": 245, "dateTime": 1509552954872, "trialdata": {"rt": -1, "stimulus": "<p id=\"stim\">COCKTAIL</p>", "key_press": -1, "type": "PRES_VIS", "word": "cocktail", "wordID": 337, "conditions": [12, 800, "v", 12000], "trial": 7, "serialpos": 4, "trial_type": "single-stim", "trial_index": 245, "time_elapsed": 1048846, "internal_node_id": "0.0-173.0"}}, {"uniqueid": "MTK0216:37M28K1J0RK7JNKGN86336BE65WAJK", "current_trial": 246, "dateTime": 1509552956665, "trialdata": {"rt": -1, "stimulus": "<p id=\"stim\">CHEST</p>", "key_press": -1, "type": "PRES_VIS", "word": "chest", "wordID": 294, "conditions": [12, 800, "v", 12000], "trial": 7, "serialpos": 5, "trial_type": "single-stim", "trial_index": 246, "time_elapsed": 1050639, "internal_node_id": "0.0-174.0"}}, {"uniqueid": "MTK0216:37M28K1J0RK7JNKGN86336BE65WAJK", "current_trial": 247, "dateTime": 1509552958414, "trialdata": {"rt": -1, "stimulus": "<p id=\"stim\">SNAKE</p>", "key_press": -1, "type": "PRES_VIS", "word": "snake", "wordID": 1332, "conditions": [12, 800, "v", 12000], "trial": 7, "serialpos": 6, "trial_type": "single-stim", "trial_index": 247, "time_elapsed": 1052388, "internal_node_id": "0.0-175.0"}}, {"uniqueid": "MTK0216:37M28K1J0RK7JNKGN86336BE65WAJK", "current_trial": 248, "dateTime": 1509552960064, "trialdata": {"rt": -1, "stimulus": "<p id=\"stim\">TURTLE</p>", "key_press": -1, "type": "PRES_VIS", "word": "turtle", "wordID": 1521, "conditions": [12, 800, "v", 12000], "trial": 7, "serialpos": 7, "trial_type": "single-stim", "trial_index": 248, "time_elapsed": 1054039, "internal_node_id": "0.0-176.0"}}, {"uniqueid": "MTK0216:37M28K1J0RK7JNKGN86336BE65WAJK", "current_trial": 249, "dateTime": 1509552961797, "trialdata": {"rt": -1, "stimulus": "<p id=\"stim\">NOVEL</p>", "key_press": -1, "type": "PRES_VIS", "word": "novel", "wordID": 959, "conditions": [12, 800, "v", 12000], "trial": 7, "serialpos": 8, "trial_type": "single-stim", "trial_index": 249, "time_elapsed": 1055771, "internal_node_id": "0.0-177.0"}}, {"uniqueid": "MTK0216:37M28K1J0RK7JNKGN86336BE65WAJK", "current_trial": 250, "dateTime": 1509552963600, "trialdata": {"rt": -1, "stimulus": "<p id=\"stim\">ARM</p>", "key_press": -1, "type": "PRES_VIS", "word": "arm", "wordID": 37, "conditions": [12, 800, "v", 12000], "trial": 7, "serialpos": 9, "trial_type": "single-stim", "trial_index": 250, "time_elapsed": 1057574, "internal_node_id": "0.0-178.0"}}, {"uniqueid": "MTK0216:37M28K1J0RK7JNKGN86336BE65WAJK", "current_trial": 251, "dateTime": 1509552965259, "trialdata": {"rt": -1, "stimulus": "<p id=\"stim\">TRUCK</p>", "key_press": -1, "type": "PRES_VIS", "word": "truck", "wordID": 1511, "conditions": [12, 800, "v", 12000], "trial": 7, "serialpos": 10, "trial_type": "single-stim", "trial_index": 251, "time_elapsed": 1059234, "internal_node_id": "0.0-179.0"}}, {"uniqueid": "MTK0216:37M28K1J0RK7JNKGN86336BE65WAJK", "current_trial": 252, "dateTime": 1509552967178, "trialdata": {"rt": -1, "stimulus": "<p id=\"stim\">WRENCH</p>", "key_press": -1, "type": "PRES_VIS", "word": "wrench", "wordID": 1624, "conditions": [12, 800, "v", 12000], "trial": 7, "serialpos": 11, "trial_type": "single-stim", "trial_index": 252, "time_elapsed": 1061152, "internal_node_id": "0.0-180.0"}}, {"uniqueid": "MTK0216:37M28K1J0RK7JNKGN86336BE65WAJK", "current_trial": 253, "dateTime": 1509552969534, "trialdata": {"rt": -1, "stimulus": "", "key_press": -1, "type": "PRE_RECALL_DELAY", "trial_type": "single-stim", "trial_index": 253, "time_elapsed": 1063508, "internal_node_id": "0.0-181.0-0.0"}}, {"uniqueid": "MTK0216:37M28K1J0RK7JNKGN86336BE65WAJK", "current_trial": 254, "dateTime": 1509552970037, "trialdata": {"rt": -1000, "stimulus": "/static/audio/400Hz.wav", "key_press": -1, "type": "PRE_RECALL_ALERT", "trial_type": "single-audio", "trial_index": 254, "time_elapsed": 1064011, "internal_node_id": "0.0-182.0"}}, {"uniqueid": "MTK0216:37M28K1J0RK7JNKGN86336BE65WAJK", "current_trial": 255, "dateTime": 1509553030058, "trialdata": {"rt": [3550, 4720, 6461, 8790, 10699], "recwords": ["novel", "arm", "truck", "wrench", "tablet"], "type": "FREE_RECALL", "conditions": [12, 800, "v", 12000], "trial": 7, "trial_type": "free-recall", "trial_index": 255, "time_elapsed": 1124019, "internal_node_id": "0.0-183.0-0.0"}}, {"uniqueid": "MTK0216:37M28K1J0RK7JNKGN86336BE65WAJK", "current_trial": 256, "dateTime": 1509553064622, "trialdata": {"rt": 32556, "key_press": 72, "type": "INSTRUCTIONS", "trial_type": "text", "trial_index": 256, "time_elapsed": 1158594, "internal_node_id": "0.0-184.0"}}, {"uniqueid": "MTK0216:37M28K1J0RK7JNKGN86336BE65WAJK", "current_trial": 257, "dateTime": 1509553090636, "trialdata": {"rt": [3142, 6569, 11404, 14561, 18248, 20519, 23226], "responses": ["13", "18", "19", "7", "14", "8", "14"], "num1": [2, 9, 8, 1, 2, 3, 2, 4], "num2": [3, 6, 6, 1, 5, 2, 8, 1], "num3": [8, 3, 5, 5, 7, 3, 4, 3], "type": "DISTRACTOR", "conditions": [12, 800, "a", 24000], "trial": 8, "trial_type": "math-distractor", "trial_index": 257, "time_elapsed": 1184610, "internal_node_id": "0.0-185.0"}}, {"uniqueid": "MTK0216:37M28K1J0RK7JNKGN86336BE65WAJK", "current_trial": 258, "dateTime": 1509553093656, "trialdata": {"rt": -1, "stimulus": "<p id=\"stim\">10</p>", "key_press": -1, "trial_type": "single-stim", "trial_index": 258, "time_elapsed": 1187630, "internal_node_id": "0.0-186.0-0.0"}}, {"uniqueid": "MTK0216:37M28K1J0RK7JNKGN86336BE65WAJK", "current_trial": 259, "dateTime": 1509553094661, "trialdata": {"rt": -1, "stimulus": "<p id=\"stim\">9</p>", "key_press": -1, "trial_type": "single-stim", "trial_index": 259, "time_elapsed": 1188635, "internal_node_id": "0.0-186.0-1.0"}}, {"uniqueid": "MTK0216:37M28K1J0RK7JNKGN86336BE65WAJK", "current_trial": 260, "dateTime": 1509553095665, "trialdata": {"rt": -1, "stimulus": "<p id=\"stim\">8</p>", "key_press": -1, "trial_type": "single-stim", "trial_index": 260, "time_elapsed": 1189639, "internal_node_id": "0.0-186.0-2.0"}}, {"uniqueid": "MTK0216:37M28K1J0RK7JNKGN86336BE65WAJK", "current_trial": 261, "dateTime": 1509553096669, "trialdata": {"rt": -1, "stimulus": "<p id=\"stim\">7</p>", "key_press": -1, "trial_type": "single-stim", "trial_index": 261, "time_elapsed": 1190643, "internal_node_id": "0.0-186.0-3.0"}}, {"uniqueid": "MTK0216:37M28K1J0RK7JNKGN86336BE65WAJK", "current_trial": 262, "dateTime": 1509553097671, "trialdata": {"rt": -1, "stimulus": "<p id=\"stim\">6</p>", "key_press": -1, "trial_type": "single-stim", "trial_index": 262, "time_elapsed": 1191646, "internal_node_id": "0.0-186.0-4.0"}}, {"uniqueid": "MTK0216:37M28K1J0RK7JNKGN86336BE65WAJK", "current_trial": 263, "dateTime": 1509553098690, "trialdata": {"rt": -1, "stimulus": "<p id=\"stim\">5</p>", "key_press": -1, "trial_type": "single-stim", "trial_index": 263, "time_elapsed": 1192664, "internal_node_id": "0.0-186.0-5.0"}}, {"uniqueid": "MTK0216:37M28K1J0RK7JNKGN86336BE65WAJK", "current_trial": 264, "dateTime": 1509553099692, "trialdata": {"rt": -1, "stimulus": "<p id=\"stim\">4</p>", "key_press": -1, "trial_type": "single-stim", "trial_index": 264, "time_elapsed": 1193666, "internal_node_id": "0.0-186.0-6.0"}}, {"uniqueid": "MTK0216:37M28K1J0RK7JNKGN86336BE65WAJK", "current_trial": 265, "dateTime": 1509553100694, "trialdata": {"rt": -1, "stimulus": "<p id=\"stim\">3</p>", "key_press": -1, "trial_type": "single-stim", "trial_index": 265, "time_elapsed": 1194669, "internal_node_id": "0.0-186.0-7.0"}}, {"uniqueid": "MTK0216:37M28K1J0RK7JNKGN86336BE65WAJK", "current_trial": 266, "dateTime": 1509553101709, "trialdata": {"rt": -1, "stimulus": "<p id=\"stim\">2</p>", "key_press": -1, "trial_type": "single-stim", "trial_index": 266, "time_elapsed": 1195684, "internal_node_id": "0.0-186.0-8.0"}}, {"uniqueid": "MTK0216:37M28K1J0RK7JNKGN86336BE65WAJK", "current_trial": 267, "dateTime": 1509553102726, "trialdata": {"rt": -1, "stimulus": "<p id=\"stim\">1</p>", "key_press": -1, "trial_type": "single-stim", "trial_index": 267, "time_elapsed": 1196700, "internal_node_id": "0.0-186.0-9.0"}}, {"uniqueid": "MTK0216:37M28K1J0RK7JNKGN86336BE65WAJK", "current_trial": 268, "dateTime": 1509553104230, "trialdata": {"rt": -1, "stimulus": "<p id=\"stim\">+</p>", "key_press": -1, "type": "FIXATION", "trial_type": "single-stim", "trial_index": 268, "time_elapsed": 1198203, "internal_node_id": "0.0-187.0-0.0"}}, {"uniqueid": "MTK0216:37M28K1J0RK7JNKGN86336BE65WAJK", "current_trial": 269, "dateTime": 1509553106200, "trialdata": {"rt": -1000, "stimulus": "/static/audio/wordpool/EYELASH.wav", "key_press": -1, "type": "PRES_AUD", "word": "eyelash", "wordID": 545, "conditions": [12, 800, "a", 24000], "trial": 8, "serialpos": 0, "trial_type": "single-audio", "trial_index": 269, "time_elapsed": 1200175, "internal_node_id": "0.0-188.0"}}, {"uniqueid": "MTK0216:37M28K1J0RK7JNKGN86336BE65WAJK", "current_trial": 270, "dateTime": 1509553107950, "trialdata": {"rt": -1000, "stimulus": "/static/audio/wordpool/SPONGE.wav", "key_press": -1, "type": "PRES_AUD", "word": "sponge", "wordID": 1354, "conditions": [12, 800, "a", 24000], "trial": 8, "serialpos": 1, "trial_type": "single-audio", "trial_index": 270, "time_elapsed": 1201925, "internal_node_id": "0.0-189.0"}}, {"uniqueid": "MTK0216:37M28K1J0RK7JNKGN86336BE65WAJK", "current_trial": 271, "dateTime": 1509553109613, "trialdata": {"rt": -1000, "stimulus": "/static/audio/wordpool/OFFICE.wav", "key_press": -1, "type": "PRES_AUD", "word": "office", "wordID": 971, "conditions": [12, 800, "a", 24000], "trial": 8, "serialpos": 2, "trial_type": "single-audio", "trial_index": 271, "time_elapsed": 1203587, "internal_node_id": "0.0-190.0"}}, {"uniqueid": "MTK0216:37M28K1J0RK7JNKGN86336BE65WAJK", "current_trial": 272, "dateTime": 1509553111525, "trialdata": {"rt": -1000, "stimulus": "/static/audio/wordpool/EGYPT.wav", "key_press": -1, "type": "PRES_AUD", "word": "egypt", "wordID": 518, "conditions": [12, 800, "a", 24000], "trial": 8, "serialpos": 3, "trial_type": "single-audio", "trial_index": 272, "time_elapsed": 1205499, "internal_node_id": "0.0-191.0"}}, {"uniqueid": "MTK0216:37M28K1J0RK7JNKGN86336BE65WAJK", "current_trial": 273, "dateTime": 1509553113431, "trialdata": {"rt": -1000, "stimulus": "/static/audio/wordpool/WOMAN.wav", "key_press": -1, "type": "PRES_AUD", "word": "woman", "wordID": 1619, "conditions": [12, 800, "a", 24000], "trial": 8, "serialpos": 4, "trial_type": "single-audio", "trial_index": 273, "time_elapsed": 1207406, "internal_node_id": "0.0-192.0"}}, {"uniqueid": "MTK0216:37M28K1J0RK7JNKGN86336BE65WAJK", "current_trial": 274, "dateTime": 1509553115164, "trialdata": {"rt": -1000, "stimulus": "/static/audio/wordpool/BEAVER.wav", "key_press": -1, "type": "PRES_AUD", "word": "beaver", "wordID": 108, "conditions": [12, 800, "a", 24000], "trial": 8, "serialpos": 5, "trial_type": "single-audio", "trial_index": 274, "time_elapsed": 1209138, "internal_node_id": "0.0-193.0"}}, {"uniqueid": "MTK0216:37M28K1J0RK7JNKGN86336BE65WAJK", "current_trial": 275, "dateTime": 1509553117157, "trialdata": {"rt": -1000, "stimulus": "/static/audio/wordpool/VIKING.wav", "key_press": -1, "type": "PRES_AUD", "word": "viking", "wordID": 1564, "conditions": [12, 800, "a", 24000], "trial": 8, "serialpos": 6, "trial_type": "single-audio", "trial_index": 275, "time_elapsed": 1211131, "internal_node_id": "0.0-194.0"}}, {"uniqueid": "MTK0216:37M28K1J0RK7JNKGN86336BE65WAJK", "current_trial": 276, "dateTime": 1509553119055, "trialdata": {"rt": -1000, "stimulus": "/static/audio/wordpool/OUTFIT.wav", "key_press": -1, "type": "PRES_AUD", "word": "outfit", "wordID": 987, "conditions": [12, 800, "a", 24000], "trial": 8, "serialpos": 7, "trial_type": "single-audio", "trial_index": 276, "time_elapsed": 1213029, "internal_node_id": "0.0-195.0"}}, {"uniqueid": "MTK0216:37M28K1J0RK7JNKGN86336BE65WAJK", "current_trial": 277, "dateTime": 1509553120774, "trialdata": {"rt": -1000, "stimulus": "/static/audio/wordpoo