{"condition": 0, "counterbalance": 2769, "assignmentId": "3WYP994K18YWRA3CJVQUXOOGR7Q6YX", "workerId": "MTK0909", "hitId": "3HEADTGN2PZ6MF8XG616C0FYP5CVRE", "currenttrial": 626, "bonus": 0, "data": [{"uniqueid": "MTK0909:3WYP994K18YWRA3CJVQUXOOGR7Q6YX", "current_trial": 0, "dateTime": 1512873913891, "trialdata": {"rt": 4587, "key_press": 32, "type": "INSTRUCTIONS", "trial_type": "text", "trial_index": 0, "time_elapsed": 4591, "internal_node_id": "0.0-0.0"}}, {"uniqueid": "MTK0909:3WYP994K18YWRA3CJVQUXOOGR7Q6YX", "current_trial": 1, "dateTime": 1512874330108, "trialdata": {"rt": 416213, "key_press": 32, "type": "INSTRUCTIONS", "trial_type": "text", "trial_index": 1, "time_elapsed": 420808, "internal_node_id": "0.0-1.0"}}, {"uniqueid": "MTK0909:3WYP994K18YWRA3CJVQUXOOGR7Q6YX", "current_trial": 2, "dateTime": 1512874343809, "trialdata": {"rt": [13685], "responses": ["ocean"], "type": "AUDIO_TEST", "trial_type": "audio-test", "trial_index": 2, "time_elapsed": 434510, "internal_node_id": "0.0-2.0"}}, {"uniqueid": "MTK0909:3WYP994K18YWRA3CJVQUXOOGR7Q6YX", "current_trial": 3, "dateTime": 1512874351921, "trialdata": {"rt": [8109], "responses": ["crystal"], "type": "AUDIO_TEST", "trial_type": "audio-test", "trial_index": 3, "time_elapsed": 442622, "internal_node_id": "0.0-3.0"}}, {"uniqueid": "MTK0909:3WYP994K18YWRA3CJVQUXOOGR7Q6YX", "current_trial": 4, "dateTime": 1512874359154, "trialdata": {"rt": [7230], "responses": ["spice"], "type": "AUDIO_TEST", "trial_type": "audio-test", "trial_index": 4, "time_elapsed": 449855, "internal_node_id": "0.0-4.0"}}, {"uniqueid": "MTK0909:3WYP994K18YWRA3CJVQUXOOGR7Q6YX", "current_trial": 5, "dateTime": 1512874393940, "trialdata": {"rt": 34033, "responses": "{\"Q0\":\"11:00 pm\",\"Q1\":\"9:00 am\",\"Q2\":\"5\"}", "type": "SLEEP_SURVEY", "trial_type": "survey-text", "trial_index": 5, "time_elapsed": 484641, "internal_node_id": "0.0-5.0"}}, {"uniqueid": "MTK0909:3WYP994K18YWRA3CJVQUXOOGR7Q6YX", "current_trial": 6, "dateTime": 1512874429860, "trialdata": {"rt": 34917, "key_press": 32, "type": "INSTRUCTIONS", "trial_type": "text", "trial_index": 6, "time_elapsed": 520560, "internal_node_id": "0.0-6.0"}}, {"uniqueid": "MTK0909:3WYP994K18YWRA3CJVQUXOOGR7Q6YX", "current_trial": 7, "dateTime": 1512874491438, "trialdata": {"rt": 61076, "key_press": 32, "type": "INSTRUCTIONS", "trial_type": "text", "trial_index": 7, "time_elapsed": 582139, "internal_node_id": "0.0-7.0"}}, {"uniqueid": "MTK0909:3WYP994K18YWRA3CJVQUXOOGR7Q6YX", "current_trial": 8, "dateTime": 1512874503014, "trialdata": {"rt": 11074, "key_press": 32, "type": "INSTRUCTIONS", "trial_type": "text", "trial_index": 8, "time_elapsed": 593715, "internal_node_id": "0.0-8.0"}}, {"uniqueid": "MTK0909:3WYP994K18YWRA3CJVQUXOOGR7Q6YX", "current_trial": 9, "dateTime": 1512874522037, "trialdata": {"rt": [5673, 7685, 9770, 11749, 13662, 15400, 17065], "responses": ["13", "11", "16", "11", "14", "9", "8"], "num1": [1, 8, 9, 2, 8, 1, 1, 3], "num2": [7, 2, 1, 6, 2, 5, 4, 6], "num3": [5, 1, 6, 3, 4, 3, 3, 8], "type": "DISTRACTOR", "conditions": [18, 1200, "v", 18000], "trial": 0, "trial_type": "math-distractor", "trial_index": 9, "time_elapsed": 612737, "internal_node_id": "0.0-9.0"}}, {"uniqueid": "MTK0909:3WYP994K18YWRA3CJVQUXOOGR7Q6YX", "current_trial": 10, "dateTime": 1512874525042, "trialdata": {"rt": -1, "stimulus": "<p id=\"stim\">10</p>", "key_press": -1, "trial_type": "single-stim", "trial_index": 10, "time_elapsed": 615743, "internal_node_id": "0.0-10.0-0.0"}}, {"uniqueid": "MTK0909:3WYP994K18YWRA3CJVQUXOOGR7Q6YX", "current_trial": 11, "dateTime": 1512874526045, "trialdata": {"rt": -1, "stimulus": "<p id=\"stim\">9</p>", "key_press": -1, "trial_type": "single-stim", "trial_index": 11, "time_elapsed": 616746, "internal_node_id": "0.0-10.0-1.0"}}, {"uniqueid": "MTK0909:3WYP994K18YWRA3CJVQUXOOGR7Q6YX", "current_trial": 12, "dateTime": 1512874527047, "trialdata": {"rt": -1, "stimulus": "<p id=\"stim\">8</p>", "key_press": -1, "trial_type": "single-stim", "trial_index": 12, "time_elapsed": 617748, "internal_node_id": "0.0-10.0-2.0"}}, {"uniqueid": "MTK0909:3WYP994K18YWRA3CJVQUXOOGR7Q6YX", "current_trial": 13, "dateTime": 1512874528049, "trialdata": {"rt": -1, "stimulus": "<p id=\"stim\">7</p>", "key_press": -1, "trial_type": "single-stim", "trial_index": 13, "time_elapsed": 618750, "internal_node_id": "0.0-10.0-3.0"}}, {"uniqueid": "MTK0909:3WYP994K18YWRA3CJVQUXOOGR7Q6YX", "current_trial": 14, "dateTime": 1512874529051, "trialdata": {"rt": -1, "stimulus": "<p id=\"stim\">6</p>", "key_press": -1, "trial_type": "single-stim", "trial_index": 14, "time_elapsed": 619751, "internal_node_id": "0.0-10.0-4.0"}}, {"uniqueid": "MTK0909:3WYP994K18YWRA3CJVQUXOOGR7Q6YX", "current_trial": 15, "dateTime": 1512874530053, "trialdata": {"rt": -1, "stimulus": "<p id=\"stim\">5</p>", "key_press": -1, "trial_type": "single-stim", "trial_index": 15, "time_elapsed": 620754, "internal_node_id": "0.0-10.0-5.0"}}, {"uniqueid": "MTK0909:3WYP994K18YWRA3CJVQUXOOGR7Q6YX", "current_trial": 16, "dateTime": 1512874531055, "trialdata": {"rt": -1, "stimulus": "<p id=\"stim\">4</p>", "key_press": -1, "trial_type": "single-stim", "trial_index": 16, "time_elapsed": 621756, "internal_node_id": "0.0-10.0-6.0"}}, {"uniqueid": "MTK0909:3WYP994K18YWRA3CJVQUXOOGR7Q6YX", "current_trial": 17, "dateTime": 1512874532057, "trialdata": {"rt": -1, "stimulus": "<p id=\"stim\">3</p>", "key_press": -1, "trial_type": "single-stim", "trial_index": 17, "time_elapsed": 622758, "internal_node_id": "0.0-10.0-7.0"}}, {"uniqueid": "MTK0909:3WYP994K18YWRA3CJVQUXOOGR7Q6YX", "current_trial": 18, "dateTime": 1512874533060, "trialdata": {"rt": -1, "stimulus": "<p id=\"stim\">2</p>", "key_press": -1, "trial_type": "single-stim", "trial_index": 18, "time_elapsed": 623760, "internal_node_id": "0.0-10.0-8.0"}}, {"uniqueid": "MTK0909:3WYP994K18YWRA3CJVQUXOOGR7Q6YX", "current_trial": 19, "dateTime": 1512874534062, "trialdata": {"rt": -1, "stimulus": "<p id=\"stim\">1</p>", "key_press": -1, "trial_type": "single-stim", "trial_index": 19, "time_elapsed": 624762, "internal_node_id": "0.0-10.0-9.0"}}, {"uniqueid": "MTK0909:3WYP994K18YWRA3CJVQUXOOGR7Q6YX", "current_trial": 20, "dateTime": 1512874535564, "trialdata": {"rt": -1, "stimulus": "<p id=\"stim\">+</p>", "key_press": -1, "type": "FIXATION", "trial_type": "single-stim", "trial_index": 20, "time_elapsed": 626265, "internal_node_id": "0.0-11.0-0.0"}}, {"uniqueid": "MTK0909:3WYP994K18YWRA3CJVQUXOOGR7Q6YX", "current_trial": 21, "dateTime": 1512874536766, "trialdata": {"rt": -1, "stimulus": "<p id=\"stim\">DENTIST</p>", "key_press": -1, "type": "PRES_VIS", "word": "dentist", "wordID": 446, "conditions": [18, 1200, "v", 18000], "trial": 0, "serialpos": 0, "trial_type": "single-stim", "trial_index": 21, "time_elapsed": 627466, "internal_node_id": "0.0-12.0"}}, {"uniqueid": "MTK0909:3WYP994K18YWRA3CJVQUXOOGR7Q6YX", "current_trial": 22, "dateTime": 1512874538989, "trialdata": {"rt": -1, "stimulus": "<p id=\"stim\">SMOG</p>", "key_press": -1, "type": "PRES_VIS", "word": "smog", "wordID": 1329, "conditions": [18, 1200, "v", 18000], "trial": 0, "serialpos": 1, "trial_type": "single-stim", "trial_index": 22, "time_elapsed": 629690, "internal_node_id": "0.0-13.0"}}, {"uniqueid": "MTK0909:3WYP994K18YWRA3CJVQUXOOGR7Q6YX", "current_trial": 23, "dateTime": 1512874541376, "trialdata": {"rt": -1, "stimulus": "<p id=\"stim\">WORKER</p>", "key_press": -1, "type": "PRES_VIS", "word": "worker", "wordID": 1620, "conditions": [18, 1200, "v", 18000], "trial": 0, "serialpos": 2, "trial_type": "single-stim", "trial_index": 23, "time_elapsed": 632076, "internal_node_id": "0.0-14.0"}}, {"uniqueid": "MTK0909:3WYP994K18YWRA3CJVQUXOOGR7Q6YX", "current_trial": 24, "dateTime": 1512874543684, "trialdata": {"rt": -1, "stimulus": "<p id=\"stim\">OUTFIT</p>", "key_press": -1, "type": "PRES_VIS", "word": "outfit", "wordID": 987, "conditions": [18, 1200, "v", 18000], "trial": 0, "serialpos": 3, "trial_type": "single-stim", "trial_index": 24, "time_elapsed": 634385, "internal_node_id": "0.0-15.0"}}, {"uniqueid": "MTK0909:3WYP994K18YWRA3CJVQUXOOGR7Q6YX", "current_trial": 25, "dateTime": 1512874545758, "trialdata": {"rt": -1, "stimulus": "<p id=\"stim\">PADDING</p>", "key_press": -1, "type": "PRES_VIS", "word": "padding", "wordID": 998, "conditions": [18, 1200, "v", 18000], "trial": 0, "serialpos": 4, "trial_type": "single-stim", "trial_index": 25, "time_elapsed": 636458, "internal_node_id": "0.0-16.0"}}, {"uniqueid": "MTK0909:3WYP994K18YWRA3CJVQUXOOGR7Q6YX", "current_trial": 26, "dateTime": 1512874547912, "trialdata": {"rt": -1, "stimulus": "<p id=\"stim\">TURKEY</p>", "key_press": -1, "type": "PRES_VIS", "word": "turkey", "wordID": 1519, "conditions": [18, 1200, "v", 18000], "trial": 0, "serialpos": 5, "trial_type": "single-stim", "trial_index": 26, "time_elapsed": 638613, "internal_node_id": "0.0-17.0"}}, {"uniqueid": "MTK0909:3WYP994K18YWRA3CJVQUXOOGR7Q6YX", "current_trial": 27, "dateTime": 1512874550202, "trialdata": {"rt": -1, "stimulus": "<p id=\"stim\">MAMMAL</p>", "key_press": -1, "type": "PRES_VIS", "word": "mammal", "wordID": 860, "conditions": [18, 1200, "v", 18000], "trial": 0, "serialpos": 6, "trial_type": "single-stim", "trial_index": 27, "time_elapsed": 640902, "internal_node_id": "0.0-18.0"}}, {"uniqueid": "MTK0909:3WYP994K18YWRA3CJVQUXOOGR7Q6YX", "current_trial": 28, "dateTime": 1512874552518, "trialdata": {"rt": -1, "stimulus": "<p id=\"stim\">LASER</p>", "key_press": -1, "type": "PRES_VIS", "word": "laser", "wordID": 800, "conditions": [18, 1200, "v", 18000], "trial": 0, "serialpos": 7, "trial_type": "single-stim", "trial_index": 28, "time_elapsed": 643218, "internal_node_id": "0.0-19.0"}}, {"uniqueid": "MTK0909:3WYP994K18YWRA3CJVQUXOOGR7Q6YX", "current_trial": 29, "dateTime": 1512874554805, "trialdata": {"rt": -1, "stimulus": "<p id=\"stim\">ORANGE</p>", "key_press": -1, "type": "PRES_VIS", "word": "orange", "wordID": 979, "conditions": [18, 1200, "v", 18000], "trial": 0, "serialpos": 8, "trial_type": "single-stim", "trial_index": 29, "time_elapsed": 645505, "internal_node_id": "0.0-20.0"}}, {"uniqueid": "MTK0909:3WYP994K18YWRA3CJVQUXOOGR7Q6YX", "current_trial": 30, "dateTime": 1512874557007, "trialdata": {"rt": -1, "stimulus": "<p id=\"stim\">SCISSORS</p>", "key_press": -1, "type": "PRES_VIS", "word": "scissors", "wordID": 1249, "conditions": [18, 1200, "v", 18000], "trial": 0, "serialpos": 9, "trial_type": "single-stim", "trial_index": 30, "time_elapsed": 647708, "internal_node_id": "0.0-21.0"}}, {"uniqueid": "MTK0909:3WYP994K18YWRA3CJVQUXOOGR7Q6YX", "current_trial": 31, "dateTime": 1512874559067, "trialdata": {"rt": -1, "stimulus": "<p id=\"stim\">FILM</p>", "key_press": -1, "type": "PRES_VIS", "word": "film", "wordID": 564, "conditions": [18, 1200, "v", 18000], "trial": 0, "serialpos": 10, "trial_type": "single-stim", "trial_index": 31, "time_elapsed": 649768, "internal_node_id": "0.0-22.0"}}, {"uniqueid": "MTK0909:3WYP994K18YWRA3CJVQUXOOGR7Q6YX", "current_trial": 32, "dateTime": 1512874561237, "trialdata": {"rt": -1, "stimulus": "<p id=\"stim\">PANTHER</p>", "key_press": -1, "type": "PRES_VIS", "word": "panther", "wordID": 1008, "conditions": [18, 1200, "v", 18000], "trial": 0, "serialpos": 11, "trial_type": "single-stim", "trial_index": 32, "time_elapsed": 651938, "internal_node_id": "0.0-23.0"}}, {"uniqueid": "MTK0909:3WYP994K18YWRA3CJVQUXOOGR7Q6YX", "current_trial": 33, "dateTime": 1512874563457, "trialdata": {"rt": -1, "stimulus": "<p id=\"stim\">PORK</p>", "key_press": -1, "type": "PRES_VIS", "word": "pork", "wordID": 1107, "conditions": [18, 1200, "v", 18000], "trial": 0, "serialpos": 12, "trial_type": "single-stim", "trial_index": 33, "time_elapsed": 654157, "internal_node_id": "0.0-24.0"}}, {"uniqueid": "MTK0909:3WYP994K18YWRA3CJVQUXOOGR7Q6YX", "current_trial": 34, "dateTime": 1512874565783, "trialdata": {"rt": -1, "stimulus": "<p id=\"stim\">RIVER</p>", "key_press": -1, "type": "PRES_VIS", "word": "river", "wordID": 1193, "conditions": [18, 1200, "v", 18000], "trial": 0, "serialpos": 13, "trial_type": "single-stim", "trial_index": 34, "time_elapsed": 656483, "internal_node_id": "0.0-25.0"}}, {"uniqueid": "MTK0909:3WYP994K18YWRA3CJVQUXOOGR7Q6YX", "current_trial": 35, "dateTime": 1512874568005, "trialdata": {"rt": -1, "stimulus": "<p id=\"stim\">MARS</p>", "key_press": -1, "type": "PRES_VIS", "word": "mars", "wordID": 872, "conditions": [18, 1200, "v", 18000], "trial": 0, "serialpos": 14, "trial_type": "single-stim", "trial_index": 35, "time_elapsed": 658705, "internal_node_id": "0.0-26.0"}}, {"uniqueid": "MTK0909:3WYP994K18YWRA3CJVQUXOOGR7Q6YX", "current_trial": 36, "dateTime": 1512874570012, "trialdata": {"rt": -1, "stimulus": "<p id=\"stim\">HOUND</p>", "key_press": -1, "type": "PRES_VIS", "word": "hound", "wordID": 723, "conditions": [18, 1200, "v", 18000], "trial": 0, "serialpos": 15, "trial_type": "single-stim", "trial_index": 36, "time_elapsed": 660712, "internal_node_id": "0.0-27.0"}}, {"uniqueid": "MTK0909:3WYP994K18YWRA3CJVQUXOOGR7Q6YX", "current_trial": 37, "dateTime": 1512874572336, "trialdata": {"rt": -1, "stimulus": "<p id=\"stim\">PICTURE</p>", "key_press": -1, "type": "PRES_VIS", "word": "picture", "wordID": 1060, "conditions": [18, 1200, "v", 18000], "trial": 0, "serialpos": 16, "trial_type": "single-stim", "trial_index": 37, "time_elapsed": 663037, "internal_node_id": "0.0-28.0"}}, {"uniqueid": "MTK0909:3WYP994K18YWRA3CJVQUXOOGR7Q6YX", "current_trial": 38, "dateTime": 1512874574596, "trialdata": {"rt": -1, "stimulus": "<p id=\"stim\">RUST</p>", "key_press": -1, "type": "PRES_VIS", "word": "rust", "wordID": 1218, "conditions": [18, 1200, "v", 18000], "trial": 0, "serialpos": 17, "trial_type": "single-stim", "trial_index": 38, "time_elapsed": 665296, "internal_node_id": "0.0-29.0"}}, {"uniqueid": "MTK0909:3WYP994K18YWRA3CJVQUXOOGR7Q6YX", "current_trial": 39, "dateTime": 1512874577033, "trialdata": {"rt": -1, "stimulus": "", "key_press": -1, "type": "PRE_RECALL_DELAY", "trial_type": "single-stim", "trial_index": 39, "time_elapsed": 667733, "internal_node_id": "0.0-30.0-0.0"}}, {"uniqueid": "MTK0909:3WYP994K18YWRA3CJVQUXOOGR7Q6YX", "current_trial": 40, "dateTime": 1512874577536, "trialdata": {"rt": -1000, "stimulus": "/static/audio/400Hz.wav", "key_press": -1, "type": "PRE_RECALL_ALERT", "trial_type": "single-audio", "trial_index": 40, "time_elapsed": 668237, "internal_node_id": "0.0-31.0"}}, {"uniqueid": "MTK0909:3WYP994K18YWRA3CJVQUXOOGR7Q6YX", "current_trial": 41, "dateTime": 1512874637545, "trialdata": {"rt": [5064, 8065, 11524, 13771, 18216, 21758], "recwords": ["dentist", "outfit", "panther", "smog", "orange", "pit"], "type": "FREE_RECALL", "conditions": [18, 1200, "v", 18000], "trial": 0, "trial_type": "free-recall", "trial_index": 41, "time_elapsed": 728242, "internal_node_id": "0.0-32.0-0.0"}}, {"uniqueid": "MTK0909:3WYP994K18YWRA3CJVQUXOOGR7Q6YX", "current_trial": 42, "dateTime": 1512874651181, "trialdata": {"rt": 11633, "key_press": 32, "type": "INSTRUCTIONS", "trial_type": "text", "trial_index": 42, "time_elapsed": 741882, "internal_node_id": "0.0-33.0"}}, {"uniqueid": "MTK0909:3WYP994K18YWRA3CJVQUXOOGR7Q6YX", "current_trial": 43, "dateTime": 1512874671185, "trialdata": {"rt": [4709, 7462, 9548, 11469, 13035, 16272], "responses": ["8", "15", "17", "16", "9", "23"], "num1": [1, 4, 2, 2, 3, 7, 3], "num2": [4, 7, 6, 7, 5, 8, 2], "num3": [3, 5, 9, 7, 1, 9, 9], "type": "DISTRACTOR", "conditions": [18, 1200, "a", 18000], "trial": 1, "trial_type": "math-distractor", "trial_index": 43, "time_elapsed": 761886, "internal_node_id": "0.0-34.0"}}, {"uniqueid": "MTK0909:3WYP994K18YWRA3CJVQUXOOGR7Q6YX", "current_trial": 44, "dateTime": 1512874674188, "trialdata": {"rt": -1, "stimulus": "<p id=\"stim\">10</p>", "key_press": -1, "trial_type": "single-stim", "trial_index": 44, "time_elapsed": 764889, "internal_node_id": "0.0-35.0-0.0"}}, {"uniqueid": "MTK0909:3WYP994K18YWRA3CJVQUXOOGR7Q6YX", "current_trial": 45, "dateTime": 1512874675191, "trialdata": {"rt": -1, "stimulus": "<p id=\"stim\">9</p>", "key_press": -1, "trial_type": "single-stim", "trial_index": 45, "time_elapsed": 765891, "internal_node_id": "0.0-35.0-1.0"}}, {"uniqueid": "MTK0909:3WYP994K18YWRA3CJVQUXOOGR7Q6YX", "current_trial": 46, "dateTime": 1512874676192, "trialdata": {"rt": -1, "stimulus": "<p id=\"stim\">8</p>", "key_press": -1, "trial_type": "single-stim", "trial_index": 46, "time_elapsed": 766893, "internal_node_id": "0.0-35.0-2.0"}}, {"uniqueid": "MTK0909:3WYP994K18YWRA3CJVQUXOOGR7Q6YX", "current_trial": 47, "dateTime": 1512874677194, "trialdata": {"rt": -1, "stimulus": "<p id=\"stim\">7</p>", "key_press": -1, "trial_type": "single-stim", "trial_index": 47, "time_elapsed": 767894, "internal_node_id": "0.0-35.0-3.0"}}, {"uniqueid": "MTK0909:3WYP994K18YWRA3CJVQUXOOGR7Q6YX", "current_trial": 48, "dateTime": 1512874678197, "trialdata": {"rt": -1, "stimulus": "<p id=\"stim\">6</p>", "key_press": -1, "trial_type": "single-stim", "trial_index": 48, "time_elapsed": 768897, "internal_node_id": "0.0-35.0-4.0"}}, {"uniqueid": "MTK0909:3WYP994K18YWRA3CJVQUXOOGR7Q6YX", "current_trial": 49, "dateTime": 1512874679200, "trialdata": {"rt": -1, "stimulus": "<p id=\"stim\">5</p>", "key_press": -1, "trial_type": "single-stim", "trial_index": 49, "time_elapsed": 769900, "internal_node_id": "0.0-35.0-5.0"}}, {"uniqueid": "MTK0909:3WYP994K18YWRA3CJVQUXOOGR7Q6YX", "current_trial": 50, "dateTime": 1512874680201, "trialdata": {"rt": -1, "stimulus": "<p id=\"stim\">4</p>", "key_press": -1, "trial_type": "single-stim", "trial_index": 50, "time_elapsed": 770901, "internal_node_id": "0.0-35.0-6.0"}}, {"uniqueid": "MTK0909:3WYP994K18YWRA3CJVQUXOOGR7Q6YX", "current_trial": 51, "dateTime": 1512874681203, "trialdata": {"rt": -1, "stimulus": "<p id=\"stim\">3</p>", "key_press": -1, "trial_type": "single-stim", "trial_index": 51, "time_elapsed": 771903, "internal_node_id": "0.0-35.0-7.0"}}, {"uniqueid": "MTK0909:3WYP994K18YWRA3CJVQUXOOGR7Q6YX", "current_trial": 52, "dateTime": 1512874682204, "trialdata": {"rt": -1, "stimulus": "<p id=\"stim\">2</p>", "key_press": -1, "trial_type": "single-stim", "trial_index": 52, "time_elapsed": 772905, "internal_node_id": "0.0-35.0-8.0"}}, {"uniqueid": "MTK0909:3WYP994K18YWRA3CJVQUXOOGR7Q6YX", "current_trial": 53, "dateTime": 1512874683207, "trialdata": {"rt": -1, "stimulus": "<p id=\"stim\">1</p>", "key_press": -1, "trial_type": "single-stim", "trial_index": 53, "time_elapsed": 773907, "internal_node_id": "0.0-35.0-9.0"}}, {"uniqueid": "MTK0909:3WYP994K18YWRA3CJVQUXOOGR7Q6YX", "current_trial": 54, "dateTime": 1512874684718, "trialdata": {"rt": -1, "stimulus": "<p id=\"stim\">+</p>", "key_press": -1, "type": "FIXATION", "trial_type": "single-stim", "trial_index": 54, "time_elapsed": 775419, "internal_node_id": "0.0-36.0-0.0"}}, {"uniqueid": "MTK0909:3WYP994K18YWRA3CJVQUXOOGR7Q6YX", "current_trial": 55, "dateTime": 1512874686741, "trialdata": {"rt": -1000, "stimulus": "/static/audio/wordpool/LACE.wav", "key_press": -1, "type": "PRES_AUD", "word": "lace", "wordID": 791, "conditions": [18, 1200, "a", 18000], "trial": 1, "serialpos": 0, "trial_type": "single-audio", "trial_index": 55, "time_elapsed": 777442, "internal_node_id": "0.0-37.0"}}, {"uniqueid": "MTK0909:3WYP994K18YWRA3CJVQUXOOGR7Q6YX", "current_trial": 56, "dateTime": 1512874689083, "trialdata": {"rt": -1000, "stimulus": "/static/audio/wordpool/BUCKET.wav", "key_press": -1, "type": "PRES_AUD", "word": "bucket", "wordID": 183, "conditions": [18, 1200, "a", 18000], "trial": 1, "serialpos": 1, "trial_type": "single-audio", "trial_index": 56, "time_elapsed": 779784, "internal_node_id": "0.0-38.0"}}, {"uniqueid": "MTK0909:3WYP994K18YWRA3CJVQUXOOGR7Q6YX", "current_trial": 57, "dateTime": 1512874691232, "trialdata": {"rt": -1000, "stimulus": "/static/audio/wordpool/SPARROW.wav", "key_press": -1, "type": "PRES_AUD", "word": "sparrow", "wordID": 1346, "conditions": [18, 1200, "a", 18000], "trial": 1, "serialpos": 2, "trial_type": "single-audio", "trial_index": 57, "time_elapsed": 781933, "internal_node_id": "0.0-39.0"}}, {"uniqueid": "MTK0909:3WYP994K18YWRA3CJVQUXOOGR7Q6YX", "current_trial": 58, "dateTime": 1512874693369, "trialdata": {"rt": -1000, "stimulus": "/static/audio/wordpool/AIRPLANE.wav", "key_press": -1, "type": "PRES_AUD", "word": "airplane", "wordID": 11, "conditions": [18, 1200, "a", 18000], "trial": 1, "serialpos": 3, "trial_type": "single-audio", "trial_index": 58, "time_elapsed": 784070, "internal_node_id": "0.0-40.0"}}, {"uniqueid": "MTK0909:3WYP994K18YWRA3CJVQUXOOGR7Q6YX", "current_trial": 59, "dateTime": 1512874695442, "trialdata": {"rt": -1000, "stimulus": "/static/audio/wordpool/PLAID.wav", "key_press": -1, "type": "PRES_AUD", "word": "plaid", "wordID": 1079, "conditions": [18, 1200, "a", 18000], "trial": 1, "serialpos": 4, "trial_type": "single-audio", "trial_index": 59, "time_elapsed": 786143, "internal_node_id": "0.0-41.0"}}, {"uniqueid": "MTK0909:3WYP994K18YWRA3CJVQUXOOGR7Q6YX", "current_trial": 60, "dateTime": 1512874697638, "trialdata": {"rt": -1000, "stimulus": "/static/audio/wordpool/BANKER.wav", "key_press": -1, "type": "PRES_AUD", "word": "banker", "wordID": 83, "conditions": [18, 1200, "a", 18000], "trial": 1, "serialpos": 5, "trial_type": "single-audio", "trial_index": 60, "time_elapsed": 788339, "internal_node_id": "0.0-42.0"}}, {"uniqueid": "MTK0909:3WYP994K18YWRA3CJVQUXOOGR7Q6YX", "current_trial": 61, "dateTime": 1512874699759, "trialdata": {"rt": -1000, "stimulus": "/static/audio/wordpool/KNIFE.wav", "key_press": -1, "type": "PRES_AUD", "word": "knife", "wordID": 784, "conditions": [18, 1200, "a", 18000], "trial": 1, "serialpos": 6, "trial_type": "single-audio", "trial_index": 61, "time_elapsed": 790460, "internal_node_id": "0.0-43.0"}}, {"uniqueid": "MTK0909:3WYP994K18YWRA3CJVQUXOOGR7Q6YX", "current_trial": 62, "dateTime": 1512874702023, "trialdata": {"rt": -1000, "stimulus": "/static/audio/wordpool/PIZZA.wav", "key_press": -1, "type": "PRES_AUD", "word": "pizza", "wordID": 1078, "conditions": [18, 1200, "a", 18000], "trial": 1, "serialpos": 7, "trial_type": "single-audio", "trial_index": 62, "time_elapsed": 792724, "internal_node_id": "0.0-44.0"}}, {"uniqueid": "MTK0909:3WYP994K18YWRA3CJVQUXOOGR7Q6YX", "current_trial": 63, "dateTime": 1512874704381, "trialdata": {"rt": -1000, "stimulus": "/static/audio/wordpool/WASP.wav", "key_press": -1, "type": "PRES_AUD", "word": "wasp", "wordID": 1592, "conditions": [18, 1200, "a", 18000], "trial": 1, "serialpos": 8, "trial_type": "single-audio", "trial_index": 63, "time_elapsed": 795082, "internal_node_id": "0.0-45.0"}}, {"uniqueid": "MTK0909:3WYP994K18YWRA3CJVQUXOOGR7Q6YX", "current_trial": 64, "dateTime": 1512874706539, "trialdata": {"rt": -1000, "stimulus": "/static/audio/wordpool/CARRIAGE.wav", "key_press": -1, "type": "PRES_AUD", "word": "carriage", "wordID": 247, "conditions": [18, 1200, "a", 18000], "trial": 1, "serialpos": 9, "trial_type": "single-audio", "trial_index": 64, "time_elapsed": 797240, "internal_node_id": "0.0-46.0"}}, {"uniqueid": "MTK0909:3WYP994K18YWRA3CJVQUXOOGR7Q6YX", "current_trial": 65, "dateTime": 1512874708912, "trialdata": {"rt": -1000, "stimulus": "/static/audio/wordpool/SCARF.wav", "key_press": -1, "type": "PRES_AUD", "word": "scarf", "wordID": 1245, "conditions": [18, 1200, "a", 18000], "trial": 1, "serialpos": 10, "trial_type": "single-audio", "trial_index": 65, "time_elapsed": 799613, "internal_node_id": "0.0-47.0"}}, {"uniqueid": "MTK0909:3WYP994K18YWRA3CJVQUXOOGR7Q6YX", "current_trial": 66, "dateTime": 1512874711268, "trialdata": {"rt": -1000, "stimulus": "/static/audio/wordpool/ROBBER.wav", "key_press": -1, "type": "PRES_AUD", "word": "robber", "wordID": 1196, "conditions": [18, 1200, "a", 18000], "trial": 1, "serialpos": 11, "trial_type": "single-audio", "trial_index": 66, "time_elapsed": 801969, "internal_node_id": "0.0-48.0"}}, {"uniqueid": "MTK0909:3WYP994K18YWRA3CJVQUXOOGR7Q6YX", "current_trial": 67, "dateTime": 1512874713551, "trialdata": {"rt": -1000, "stimulus": "/static/audio/wordpool/WAGON.wav", "key_press": -1, "type": "PRES_AUD", "word": "wagon", "wordID": 1577, "conditions": [18, 1200, "a", 18000], "trial": 1, "serialpos": 12, "trial_type": "single-audio", "trial_index": 67, "time_elapsed": 804252, "internal_node_id": "0.0-49.0"}}, {"uniqueid": "MTK0909:3WYP994K18YWRA3CJVQUXOOGR7Q6YX", "current_trial": 68, "dateTime": 1512874715637, "trialdata": {"rt": -1000, "stimulus": "/static/audio/wordpool/MUSTARD.wav", "key_press": -1, "type": "PRES_AUD", "word": "mustard", "wordID": 934, "conditions": [18, 1200, "a", 18000], "trial": 1, "serialpos": 13, "trial_type": "single-audio", "trial_index": 68, "time_elapsed": 806334, "internal_node_id": "0.0-50.0"}}, {"uniqueid": "MTK0909:3WYP994K18YWRA3CJVQUXOOGR7Q6YX", "current_trial": 69, "dateTime": 1512874718009, "trialdata": {"rt": -1000, "stimulus": "/static/audio/wordpool/NURSE.wav", "key_press": -1, "type": "PRES_AUD", "word": "nurse", "wordID": 962, "conditions": [18, 1200, "a", 18000], "trial": 1, "serialpos": 14, "trial_type": "single-audio", "trial_index": 69, "time_elapsed": 808710, "internal_node_id": "0.0-51.0"}}, {"uniqueid": "MTK0909:3WYP994K18YWRA3CJVQUXOOGR7Q6YX", "current_trial": 70, "dateTime": 1512874720143, "trialdata": {"rt": -1000, "stimulus": "/static/audio/wordpool/TEMPLE.wav", "key_press": -1, "type": "PRES_AUD", "word": "temple", "wordID": 1447, "conditions": [18, 1200, "a", 18000], "trial": 1, "serialpos": 15, "trial_type": "single-audio", "trial_index": 70, "time_elapsed": 810844, "internal_node_id": "0.0-52.0"}}, {"uniqueid": "MTK0909:3WYP994K18YWRA3CJVQUXOOGR7Q6YX", "current_trial": 71, "dateTime": 1512874722302, "trialdata": {"rt": -1000, "stimulus": "/static/audio/wordpool/MOTOR.wav", "key_press": -1, "type": "PRES_AUD", "word": "motor", "wordID": 921, "conditions": [18, 1200, "a", 18000], "trial": 1, "serialpos": 16, "trial_type": "single-audio", "trial_index": 71, "time_elapsed": 813003, "internal_node_id": "0.0-53.0"}}, {"uniqueid": "MTK0909:3WYP994K18YWRA3CJVQUXOOGR7Q6YX", "current_trial": 72, "dateTime": 1512874724395, "trialdata": {"rt": -1000, "stimulus": "/static/audio/wordpool/CHAPEL.wav", "key_press": -1, "type": "PRES_AUD", "word": "chapel", "wordID": 279, "conditions": [18, 1200, "a", 18000], "trial": 1, "serialpos": 17, "trial_type": "single-audio", "trial_index": 72, "time_elapsed": 815096, "internal_node_id": "0.0-54.0"}}, {"uniqueid": "MTK0909:3WYP994K18YWRA3CJVQUXOOGR7Q6YX", "current_trial": 73, "dateTime": 1512874725671, "trialdata": {"rt": -1, "stimulus": "", "key_press": -1, "type": "PRE_RECALL_DELAY", "trial_type": "single-stim", "trial_index": 73, "time_elapsed": 816372, "internal_node_id": "0.0-55.0-0.0"}}, {"uniqueid": "MTK0909:3WYP994K18YWRA3CJVQUXOOGR7Q6YX", "current_trial": 74, "dateTime": 1512874726174, "trialdata": {"rt": -1000, "stimulus": "/static/audio/400Hz.wav", "key_press": -1, "type": "PRE_RECALL_ALERT", "trial_type": "single-audio", "trial_index": 74, "time_elapsed": 816875, "internal_node_id": "0.0-56.0"}}, {"uniqueid": "MTK0909:3WYP994K18YWRA3CJVQUXOOGR7Q6YX", "current_trial": 75, "dateTime": 1512874786184, "trialdata": {"rt": [4405, 8710, 12066, 18140, 22293, 26055, 29510, 33467, 37138, 43447, 48741, 54315], "recwords": ["lace", "bucket", "pizza", "airplane", "wagon", "nurse", "temple", "motor", "chapel", "arrow", "robber", "mustard"], "type": "FREE_RECALL", "conditions": [18, 1200, "a", 18000], "trial": 1, "trial_type": "free-recall", "trial_index": 75, "time_elapsed": 876881, "internal_node_id": "0.0-57.0-0.0"}}, {"uniqueid": "MTK0909:3WYP994K18YWRA3CJVQUXOOGR7Q6YX", "current_trial": 76, "dateTime": 1512874794276, "trialdata": {"rt": 6082, "key_press": 32, "type": "INSTRUCTIONS", "trial_type": "text", "trial_index": 76, "time_elapsed": 884969, "internal_node_id": "0.0-58.0"}}, {"uniqueid": "MTK0909:3WYP994K18YWRA3CJVQUXOOGR7Q6YX", "current_trial": 77, "dateTime": 1512874807281, "trialdata": {"rt": [3142, 5157, 6632, 8579, 9978, 11599], "responses": ["14", "14", "9", "13", "9", "11"], "num1": [3, 2, 3, 3, 5, 1, 4], "num2": [3, 4, 3, 1, 3, 2, 5], "num3": [8, 8, 3, 9, 1, 8, 1], "type": "DISTRACTOR", "conditions": [24, 1600, "a", 12000], "trial": 2, "trial_type": "math-distractor", "trial_index": 77, "time_elapsed": 897982, "internal_node_id": "0.0-59.0"}}, {"uniqueid": "MTK0909:3WYP994K18YWRA3CJVQUXOOGR7Q6YX", "current_trial": 78, "dateTime": 1512874810284, "trialdata": {"rt": -1, "stimulus": "<p id=\"stim\">10</p>", "key_press": -1, "trial_type": "single-stim", "trial_index": 78, "time_elapsed": 900984, "internal_node_id": "0.0-60.0-0.0"}}, {"uniqueid": "MTK0909:3WYP994K18YWRA3CJVQUXOOGR7Q6YX", "current_trial": 79, "dateTime": 1512874811286, "trialdata": {"rt": -1, "stimulus": "<p id=\"stim\">9</p>", "key_press": -1, "trial_type": "single-stim", "trial_index": 79, "time_elapsed": 901986, "internal_node_id": "0.0-60.0-1.0"}}, {"uniqueid": "MTK0909:3WYP994K18YWRA3CJVQUXOOGR7Q6YX", "current_trial": 80, "dateTime": 1512874812287, "trialdata": {"rt": -1, "stimulus": "<p id=\"stim\">8</p>", "key_press": -1, "trial_type": "single-stim", "trial_index": 80, "time_elapsed": 902988, "internal_node_id": "0.0-60.0-2.0"}}, {"uniqueid": "MTK0909:3WYP994K18YWRA3CJVQUXOOGR7Q6YX", "current_trial": 81, "dateTime": 1512874813290, "trialdata": {"rt": -1, "stimulus": "<p id=\"stim\">7</p>", "key_press": -1, "trial_type": "single-stim", "trial_index": 81, "time_elapsed": 903991, "internal_node_id": "0.0-60.0-3.0"}}, {"uniqueid": "MTK0909:3WYP994K18YWRA3CJVQUXOOGR7Q6YX", "current_trial": 82, "dateTime": 1512874814292, "trialdata": {"rt": -1, "stimulus": "<p id=\"stim\">6</p>", "key_press": -1, "trial_type": "single-stim", "trial_index": 82, "time_elapsed": 904992, "internal_node_id": "0.0-60.0-4.0"}}, {"uniqueid": "MTK0909:3WYP994K18YWRA3CJVQUXOOGR7Q6YX", "current_trial": 83, "dateTime": 1512874815294, "trialdata": {"rt": -1, "stimulus": "<p id=\"stim\">5</p>", "key_press": -1, "trial_type": "single-stim", "trial_index": 83, "time_elapsed": 905994, "internal_node_id": "0.0-60.0-5.0"}}, {"uniqueid": "MTK0909:3WYP994K18YWRA3CJVQUXOOGR7Q6YX", "current_trial": 84, "dateTime": 1512874816295, "trialdata": {"rt": -1, "stimulus": "<p id=\"stim\">4</p>", "key_press": -1, "trial_type": "single-stim", "trial_index": 84, "time_elapsed": 906995, "internal_node_id": "0.0-60.0-6.0"}}, {"uniqueid": "MTK0909:3WYP994K18YWRA3CJVQUXOOGR7Q6YX", "current_trial": 85, "dateTime": 1512874817297, "trialdata": {"rt": -1, "stimulus": "<p id=\"stim\">3</p>", "key_press": -1, "trial_type": "single-stim", "trial_index": 85, "time_elapsed": 907997, "internal_node_id": "0.0-60.0-7.0"}}, {"uniqueid": "MTK0909:3WYP994K18YWRA3CJVQUXOOGR7Q6YX", "current_trial": 86, "dateTime": 1512874818299, "trialdata": {"rt": -1, "stimulus": "<p id=\"stim\">2</p>", "key_press": -1, "trial_type": "single-stim", "trial_index": 86, "time_elapsed": 908999, "internal_node_id": "0.0-60.0-8.0"}}, {"uniqueid": "MTK0909:3WYP994K18YWRA3CJVQUXOOGR7Q6YX", "current_trial": 87, "dateTime": 1512874819300, "trialdata": {"rt": -1, "stimulus": "<p id=\"stim\">1</p>", "key_press": -1, "trial_type": "single-stim", "trial_index": 87, "time_elapsed": 910000, "internal_node_id": "0.0-60.0-9.0"}}, {"uniqueid": "MTK0909:3WYP994K18YWRA3CJVQUXOOGR7Q6YX", "current_trial": 88, "dateTime": 1512874820801, "trialdata": {"rt": -1, "stimulus": "<p id=\"stim\">+</p>", "key_press": -1, "type": "FIXATION", "trial_type": "single-stim", "trial_index": 88, "time_elapsed": 911502, "internal_node_id": "0.0-61.0-0.0"}}, {"uniqueid": "MTK0909:3WYP994K18YWRA3CJVQUXOOGR7Q6YX", "current_trial": 89, "dateTime": 1512874823584, "trialdata": {"rt": -1000, "stimulus": "/static/audio/wordpool/PARSLEY.wav", "key_press": -1, "type": "PRES_AUD", "word": "parsley", "wordID": 1015, "conditions": [24, 1600, "a", 12000], "trial": 2, "serialpos": 0, "trial_type": "single-audio", "trial_index": 89, "time_elapsed": 914285, "internal_node_id": "0.0-62.0"}}, {"uniqueid": "MTK0909:3WYP994K18YWRA3CJVQUXOOGR7Q6YX", "current_trial": 90, "dateTime": 1512874826033, "trialdata": {"rt": -1000, "stimulus": "/static/audio/wordpool/VENUS.wav", "key_press": -1, "type": "PRES_AUD", "word": "venus", "wordID": 1556, "conditions": [24, 1600, "a", 12000], "trial": 2, "serialpos": 1, "trial_type": "single-audio", "trial_index": 90, "time_elapsed": 916734, "internal_node_id": "0.0-63.0"}}, {"uniqueid": "MTK0909:3WYP994K18YWRA3CJVQUXOOGR7Q6YX", "current_trial": 91, "dateTime": 1512874828537, "trialdata": {"rt": -1000, "stimulus": "/static/audio/wordpool/BARLEY.wav", "key_press": -1, "type": "PRES_AUD", "word": "barley", "wordID": 87, "conditions": [24, 1600, "a", 12000], "trial": 2, "serialpos": 2, "trial_type": "single-audio", "trial_index": 91, "time_elapsed": 919238, "internal_node_id": "0.0-64.0"}}, {"uniqueid": "MTK0909:3WYP994K18YWRA3CJVQUXOOGR7Q6YX", "current_trial": 92, "dateTime": 1512874830966, "trialdata": {"rt": -1000, "stimulus": "/static/audio/wordpool/MOTEL.wav", "key_press": -1, "type": "PRES_AUD", "word": "motel", "wordID": 918, "conditions": [24, 1600, "a", 12000], "trial": 2, "serialpos": 3, "trial_type": "single-audio", "trial_index": 92, "time_elapsed": 921667, "internal_node_id": "0.0-65.0"}}, {"uniqueid": "MTK0909:3WYP994K18YWRA3CJVQUXOOGR7Q6YX", "current_trial": 93, "dateTime": 1512874833605, "trialdata": {"rt": -1000, "stimulus": "/static/audio/wordpool/OFFICE.wav", "key_press": -1, "type": "PRES_AUD", "word": "office", "wordID": 971, "conditions": [24, 1600, "a", 12000], "trial": 2, "serialpos": 4, "trial_type": "single-audio", "trial_index": 93, "time_elapsed": 924306, "internal_node_id": "0.0-66.0"}}, {"uniqueid": "MTK0909:3WYP994K18YWRA3CJVQUXOOGR7Q6YX", "current_trial": 94, "dateTime": 1512874836346, "trialdata": {"rt": -1000, "stimulus": "/static/audio/wordpool/BEAST.wav", "key_press": -1, "type": "PRES_AUD", "word": "beast", "wordID": 107, "conditions": [24, 1600, "a", 12000], "trial": 2, "serialpos": 5, "trial_type": "single-audio", "trial_index": 94, "time_elapsed": 927047, "internal_node_id": "0.0-67.0"}}, {"uniqueid": "MTK0909:3WYP994K18YWRA3CJVQUXOOGR7Q6YX", "current_trial": 95, "dateTime": 1512874838881, "trialdata": {"rt": -1000, "stimulus": "/static/audio/wordpool/MONSTER.wav", "key_press": -1, "type": "PRES_AUD", "word": "monster", "wordID": 911, "conditions": [24, 1600, "a", 12000], "trial": 2, "serialpos": 6, "trial_type": "single-audio", "trial_index": 95, "time_elapsed": 929582, "internal_node_id": "0.0-68.0"}}, {"uniqueid": "MTK0909:3WYP994K18YWRA3CJVQUXOOGR7Q6YX", "current_trial": 96, "dateTime": 1512874841531, "trialdata": {"rt": -1000, "stimulus": "/static/audio/wordpool/PEPPER.wav", "key_press": -1, "type": "PRES_AUD", "word": "pepper", "wordID": 1046, "conditions": [24, 1600, "a", 12000], "trial": 2, "serialpos": 7, "trial_type": "single-audio", "trial_index": 96, "time_elapsed": 932232, "internal_node_id": "0.0-69.0"}}, {"uniqueid": "MTK0909:3WYP994K18YWRA3CJVQUXOOGR7Q6YX", "current_trial": 97, "dateTime": 1512874844003, "trialdata": {"rt": -1000, "stimulus": "/static/audio/wordpool/PLASTER.wav", "key_press": -1, "type": "PRES_AUD", "word": "plaster", "wordID": 1084, "conditions": [24, 1600, "a", 12000], "trial": 2, "serialpos": 8, "trial_type": "single-audio", "trial_index": 97, "time_elapsed": 934704, "internal_node_id": "0.0-70.0"}}, {"uniqueid": "MTK0909:3WYP994K18YWRA3CJVQUXOOGR7Q6YX", "current_trial": 98, "dateTime": 1512874846763, "trialdata": {"rt": -1000, "stimulus": "/static/audio/wordpool/TRUCK.wav", "key_press": -1, "type": "PRES_AUD", "word": "truck", "wordID": 1511, "conditions": [24, 1600, "a", 12000], "trial": 2, "serialpos": 9, "trial_type": "single-audio", "trial_index": 98, "time_elapsed": 937464, "internal_node_id": "0.0-71.0"}}, {"uniqueid": "MTK0909:3WYP994K18YWRA3CJVQUXOOGR7Q6YX", "current_trial": 99, "dateTime": 1512874849435, "trialdata": {"rt": -1000, "stimulus": "/static/audio/wordpool/RECEIPT.wav", "key_press": -1, "type": "PRES_AUD", "word": "receipt", "wordID": 1172, "conditions": [24, 1600, "a", 12000], "trial": 2, "serialpos": 10, "trial_type": "single-audio", "trial_index": 99, "time_elapsed": 940136, "internal_node_id": "0.0-72.0"}}, {"uniqueid": "MTK0909:3WYP994K18YWRA3CJVQUXOOGR7Q6YX", "current_trial": 100, "dateTime": 1512874851906, "trialdata": {"rt": -1000, "stimulus": "/static/audio/wordpool/FLASK.wav", "key_press": -1, "type": "PRES_AUD", "word": "flask", "wordID": 575, "conditions": [24, 1600, "a", 12000], "trial": 2, "serialpos": 11, "trial_type": "single-audio", "trial_index": 100, "time_elapsed": 942607, "internal_node_id": "0.0-73.0"}}, {"uniqueid": "MTK0909:3WYP994K18YWRA3CJVQUXOOGR7Q6YX", "current_trial": 101, "dateTime": 1512874854429, "trialdata": {"rt": -1000, "stimulus": "/static/audio/wordpool/LAVA.wav", "key_press": -1, "type": "PRES_AUD", "word": "lava", "wordID": 803, "conditions": [24, 1600, "a", 12000], "trial": 2, "serialpos": 12, "trial_type": "single-audio", "trial_index": 101, "time_elapsed": 945130, "internal_node_id": "0.0-74.0"}}, {"uniqueid": "MTK0909:3WYP994K18YWRA3CJVQUXOOGR7Q6YX", "current_trial": 102, "dateTime": 1512874857026, "trialdata": {"rt": -1000, "stimulus": "/static/audio/wordpool/RIFLE.wav", "key_press": -1, "type": "PRES_AUD", "word": "rifle", "wordID": 1191, "conditions": [24, 1600, "a", 12000], "trial": 2, "serialpos": 13, "trial_type": "single-audio", "trial_index": 102, "time_elapsed": 947727, "internal_node_id": "0.0-75.0"}}, {"uniqueid": "MTK0909:3WYP994K18YWRA3CJVQUXOOGR7Q6YX", "current_trial": 103, "dateTime": 1512874859657, "trialdata": {"rt": -1000, "stimulus": "/static/audio/wordpool/SALAD.wav", "key_press": -1, "type": "PRES_AUD", "word": "salad", "wordID": 1223, "conditions": [24, 1600, "a", 12000], "trial": 2, "serialpos": 14, "trial_type": "single-audio", "trial_index": 103, "time_elapsed": 950358, "internal_node_id": "0.0-76.0"}}, {"uniqueid": "MTK0909:3WYP994K18YWRA3CJVQUXOOGR7Q6YX", "current_trial": 104, "dateTime": 1512874862411, "trialdata": {"rt": -1000, "stimulus": "/static/audio/wordpool/SKILLET.wav", "key_press": -1, "type": "PRES_AUD", "word": "skillet", "wordID": 1316, "conditions": [24, 1600, "a", 12000], "trial": 2, "serialpos": 15, "trial_type": "single-audio", "trial_index": 104, "time_elapsed": 953112, "internal_node_id": "0.0-77.0"}}, {"uniqueid": "MTK0909:3WYP994K18YWRA3CJVQUXOOGR7Q6YX", "current_trial": 105, "dateTime": 1512874865085, "trialdata": {"rt": -1000, "stimulus": "/static/audio/wordpool/RABBIT.wav", "key_press": -1, "type": "PRES_AUD", "word": "rabbit", "wordID": 1151, "conditions": [24, 1600, "a", 12000], "trial": 2, "serialpos": 16, "trial_type": "single-audio", "trial_index": 105, "time_elapsed": 955786, "internal_node_id": "0.0-78.0"}}, {"uniqueid": "MTK0909:3WYP994K18YWRA3CJVQUXOOGR7Q6YX", "current_trial": 106, "dateTime": 1512874867506, "trialdata": {"rt": -1000, "stimulus": "/static/audio/wordpool/CHAMPAGNE.wav", "key_press": -1, "type": "PRES_AUD", "word": "champagne", "wordID": 277, "conditions": [24, 1600, "a", 12000], "trial": 2, "serialpos": 17, "trial_type": "single-audio", "trial_index": 106, "time_elapsed": 958207, "internal_node_id": "0.0-79.0"}}, {"uniqueid": "MTK0909:3WYP994K18YWRA3CJVQUXOOGR7Q6YX", "current_trial": 107, "dateTime": 1512874869968, "trialdata": {"rt": -1000, "stimulus": "/static/audio/wordpool/DIME.wav", "key_press": -1, "type": "PRES_AUD", "word": "dime", "wordID": 465, "conditions": [24, 1600, "a", 12000], "trial": 2, "serialpos": 18, "trial_type": "single-audio", "trial_index": 107, "time_elapsed": 960669, "internal_node_id": "0.0-80.0"}}, {"uniqueid": "MTK0909:3WYP994K18YWRA3CJVQUXOOGR7Q6YX", "current_trial": 108, "dateTime": 1512874872649, "trialdata": {"rt": -1000, "stimulus": "/static/audio/wordpool/BANJO.wav", "key_press": -1, "type": "PRES_AUD", "word": "banjo", "wordID": 81, "conditions": [24, 1600, "a", 12000], "trial": 2, "serialpos": 19, "trial_type": "single-audio", "trial_index": 108, "time_elapsed": 963350, "internal_node_id": "0.0-81.0"}}, {"uniqueid": "MTK0909:3WYP994K18YWRA3CJVQUXOOGR7Q6YX", "current_trial": 109, "dateTime": 1512874875080, "trialdata": {"rt": -1000, "stimulus": "/static/audio/wordpool/FRANCE.wav", "key_press": -1, "type": "PRES_AUD", "word": "france", "wordID": 600, "conditions": [24, 1600, "a", 12000], "trial": 2, "serialpos": 20, "trial_type": "single-audio", "trial_index": 109, "time_elapsed": 965781, "internal_node_id": "0.0-82.0"}}, {"uniqueid": "MTK0909:3WYP994K18YWRA3CJVQUXOOGR7Q6YX", "current_trial": 110, "dateTime": 1512874877621, "trialdata": {"rt": -1000, "stimulus": "/static/audio/wordpool/EUROPE.wav", "key_press": -1, "type": "PRES_AUD", "word": "europe", "wordID": 540, "conditions": [24, 1600, "a", 12000], "trial": 2, "serialpos": 21, "trial_type": "single-audio", "trial_index": 110, "time_elapsed": 968322, "internal_node_id": "0.0-83.0"}}, {"uniqueid": "MTK0909:3WYP994K18YWRA3CJVQUXOOGR7Q6YX", "current_trial": 111, "dateTime": 1512874880087, "trialdata": {"rt": -1000, "stimulus": "/static/audio/wordpool/CRATER.wav", "key_press": -1, "type": "PRES_AUD", "word": "crater", "wordID": 399, "conditions": [24, 1600, "a", 12000], "trial": 2, "serialpos": 22, "trial_type": "single-audio", "trial_index": 111, "time_elapsed": 970788, "internal_node_id": "0.0-84.0"}}, {"uniqueid": "MTK0909:3WYP994K18YWRA3CJVQUXOOGR7Q6YX", "current_trial": 112, "dateTime": 1512874882566, "trialdata": {"rt": -1000, "stimulus": "/static/audio/wordpool/ATLAS.wav", "key_press": -1, "type": "PRES_AUD", "word": "atlas", "wordID": 52, "conditions": [24, 1600, "a", 12000], "trial": 2, "serialpos": 23, "trial_type": "single-audio", "trial_index": 112, "time_elapsed": 973267, "internal_node_id": "0.0-85.0"}}, {"uniqueid": "MTK0909:3WYP994K18YWRA3CJVQUXOOGR7Q6YX", "current_trial": 113, "dateTime": 1512874883817, "trialdata": {"rt": -1, "stimulus": "", "key_press": -1, "type": "PRE_RECALL_DELAY", "trial_type": "single-stim", "trial_index": 113, "time_elapsed": 974518, "internal_node_id": "0.0-86.0-0.0"}}, {"uniqueid": "MTK0909:3WYP994K18YWRA3CJVQUXOOGR7Q6YX", "current_trial": 114, "dateTime": 1512874884319, "trialdata": {"rt": -1000, "stimulus": "/static/audio/400Hz.wav", "key_press": -1, "type": "PRE_RECALL_ALERT", "trial_type": "single-audio", "trial_index": 114, "time_elapsed": 975020, "internal_node_id": "0.0-87.0"}}, {"uniqueid": "MTK0909:3WYP994K18YWRA3CJVQUXOOGR7Q6YX", "current_trial": 115, "dateTime": 1512874944328, "trialdata": {"rt": [5761, 10718, 13648, 18352, 22360, 26858, 31347, 33772, 39738, 45540, 48853, 58705], "recwords": ["france", "europe", "dime", "rabbit", "lava", "rifle", "pepper", "hotel", "truck", "parsley", "barley", "skillet"], "type": "FREE_RECALL", "conditions": [24, 1600, "a", 12000], "trial": 2, "trial_type": "free-recall", "trial_index": 115, "time_elapsed": 1035024, "internal_node_id": "0.0-88.0-0.0"}}, {"uniqueid": "MTK0909:3WYP994K18YWRA3CJVQUXOOGR7Q6YX", "current_trial": 116, "dateTime": 1512874951747, "trialdata": {"rt": 5418, "key_press": 13, "type": "INSTRUCTIONS", "trial_type": "text", "trial_index": 116, "time_elapsed": 1042448, "internal_node_id": "0.0-89.0"}}, {"uniqueid": "MTK0909:3WYP994K18YWRA3CJVQUXOOGR7Q6YX", "current_trial": 117, "dateTime": 1512874965750, "trialdata": {"rt": [2172, 5099, 6824, 9018, 10655], "responses": ["13", "11", "13", "11", "14"], "num1": [1, 3, 1, 4, 5, 3], "num2": [5, 6, 6, 3, 4, 2], "num3": [7, 2, 6, 4, 5, 6], "type": "DISTRACTOR", "conditions": [12, 800, "a", 12000], "trial": 3, "trial_type": "math-distractor", "trial_index": 117, "time_elapsed": 1056451, "internal_node_id": "0.0-90.0"}}, {"uniqueid": "MTK0909:3WYP994K18YWRA3CJVQUXOOGR7Q6YX", "current_trial": 118, "dateTime": 1512874968755, "trialdata": {"rt": -1, "stimulus": "<p id=\"stim\">10</p>", "key_press": -1, "trial_type": "single-stim", "trial_index": 118, "time_elapsed": 1059455, "internal_node_id": "0.0-91.0-0.0"}}, {"uniqueid": "MTK0909:3WYP994K18YWRA3CJVQUXOOGR7Q6YX", "current_trial": 119, "dateTime": 1512874969757, "trialdata": {"rt": -1, "stimulus": "<p id=\"stim\">9</p>", "key_press": -1, "trial_type": "single-stim", "trial_index": 119, "time_elapsed": 1060457, "internal_node_id": "0.0-91.0-1.0"}}, {"uniqueid": "MTK0909:3WYP994K18YWRA3CJVQUXOOGR7Q6YX", "current_trial": 120, "dateTime": 1512874970758, "trialdata": {"rt": -1, "stimulus": "<p id=\"stim\">8</p>", "key_press": -1, "trial_type": "single-stim", "trial_index": 120, "time_elapsed": 1061459, "internal_node_id": "0.0-91.0-2.0"}}, {"uniqueid": "MTK0909:3WYP994K18YWRA3CJVQUXOOGR7Q6YX", "current_trial": 121, "dateTime": 1512874971760, "trialdata": {"rt": -1, "stimulus": "<p id=\"stim\">7</p>", "key_press": -1, "trial_type": "single-stim", "trial_index": 121, "time_elapsed": 1062460, "internal_node_id": "0.0-91.0-3.0"}}, {"uniqueid": "MTK0909:3WYP994K18YWRA3CJVQUXOOGR7Q6YX", "current_trial": 122, "dateTime": 1512874972763, "trialdata": {"rt": -1, "stimulus": "<p id=\"stim\">6</p>", "key_press": -1, "trial_type": "single-stim", "trial_index": 122, "time_elapsed": 1063464, "internal_node_id": "0.0-91.0-4.0"}}, {"uniqueid": "MTK0909:3WYP994K18YWRA3CJVQUXOOGR7Q6YX", "current_trial": 123, "dateTime": 1512874973765, "trialdata": {"rt": -1, "stimulus": "<p id=\"stim\">5</p>", "key_press": -1, "trial_type": "single-stim", "trial_index": 123, "time_elapsed": 1064465, "internal_node_id": "0.0-91.0-5.0"}}, {"uniqueid": "MTK0909:3WYP994K18YWRA3CJVQUXOOGR7Q6YX", "current_trial": 124, "dateTime": 1512874974769, "trialdata": {"rt": -1, "stimulus": "<p id=\"stim\">4</p>", "key_press": -1, "trial_type": "single-stim", "trial_index": 124, "time_elapsed": 1065469, "internal_node_id": "0.0-91.0-6.0"}}, {"uniqueid": "MTK0909:3WYP994K18YWRA3CJVQUXOOGR7Q6YX", "current_trial": 125, "dateTime": 1512874975771, "trialdata": {"rt": -1, "stimulus": "<p id=\"stim\">3</p>", "key_press": -1, "trial_type": "single-stim", "trial_index": 125, "time_elapsed": 1066472, "internal_node_id": "0.0-91.0-7.0"}}, {"uniqueid": "MTK0909:3WYP994K18YWRA3CJVQUXOOGR7Q6YX", "current_trial": 126, "dateTime": 1512874976773, "trialdata": {"rt": -1, "stimulus": "<p id=\"stim\">2</p>", "key_press": -1, "trial_type": "single-stim", "trial_index": 126, "time_elapsed": 1067474, "internal_node_id": "0.0-91.0-8.0"}}, {"uniqueid": "MTK0909:3WYP994K18YWRA3CJVQUXOOGR7Q6YX", "current_trial": 127, "dateTime": 1512874977774, "trialdata": {"rt": -1, "stimulus": "<p id=\"stim\">1</p>", "key_press": -1, "trial_type": "single-stim", "trial_index": 127, "time_elapsed": 1068475, "internal_node_id": "0.0-91.0-9.0"}}, {"uniqueid": "MTK0909:3WYP994K18YWRA3CJVQUXOOGR7Q6YX", "current_trial": 128, "dateTime": 1512874979277, "trialdata": {"rt": -1, "stimulus": "<p id=\"stim\">+</p>", "key_press": -1, "type": "FIXATION", "trial_type": "single-stim", "trial_index": 128, "time_elapsed": 1069977, "internal_node_id": "0.0-92.0-0.0"}}, {"uniqueid": "MTK0909:3WYP994K18YWRA3CJVQUXOOGR7Q6YX", "current_trial": 129, "dateTime": 1512874981212, "trialdata": {"rt": -1000, "stimulus": "/static/audio/wordpool/TOMBSTONE.wav", "key_press": -1, "type": "PRES_AUD", "word": "tombstone", "wordID": 1477, "conditions": [12, 800, "a", 12000], "trial": 3, "serialpos": 0, "trial_type": "single-audio", "trial_index": 129, "time_elapsed": 1071913, "internal_node_id": "0.0-93.0"}}, {"uniqueid": "MTK0909:3WYP994K18YWRA3CJVQUXOOGR7Q6YX", "current_trial": 130, "dateTime": 1512874983199, "trialdata": {"rt": -1000, "stimulus": "/static/audio/wordpool/STATUE.wav", "key_press": -1, "type": "PRES_AUD", "word": "statue", "wordID": 1373, "conditions": [12, 800, "a", 12000], "trial": 3, "serialpos": 1, "trial_type": "single-audio", "trial_index": 130, "time_elapsed": 1073900, "internal_node_id": "0.0-94.0"}}, {"uniqueid": "MTK0909:3WYP994K18YWRA3CJVQUXOOGR7Q6YX", "current_trial": 131, "dateTime": 1512874984867, "trialdata": {"rt": -1000, "stimulus": "/static/audio/wordpool/SNAIL.wav", "key_press": -1, "type": "PRES_AUD", "word": "snail", "wordID": 1331, "conditions": [12, 800, "a", 12000], "trial": 3, "serialpos": 2, "trial_type": "single-audio", "trial_index": 131, "time_elapsed": 1075568, "internal_node_id": "0.0-95.0"}}, {"uniqueid": "MTK0909:3WYP994K18YWRA3CJVQUXOOGR7Q6YX", "current_trial": 132, "dateTime": 1512874986600, "trialdata": {"rt": -1000, "stimulus": "/static/audio/wordpool/CIGAR.wav", "key_press": -1, "type": "PRES_AUD", "word": "cigar", "wordID": 307, "conditions": [12, 800, "a", 12000], "trial": 3, "serialpos": 3, "trial_type": "single-audio", "trial_index": 132, "time_elapsed": 1077301, "internal_node_id": "0.0-96.0"}}, {"uniqueid": "MTK0909:3WYP994K18YWRA3CJVQUXOOGR7Q6YX", "current_trial": 133, "dateTime": 1512874988459, "trialdata": {"rt": -1000, "stimulus": "/static/audio/wordpool/TOASTER.wav", "key_press": -1, "type": "PRES_AUD", "word": "toaster", "wordID": 1471, "conditions": [12, 800, "a", 12000], "trial": 3, "serialpos": 4, "trial_type": "single-audio", "trial_index": 133, "time_elapsed": 1079160, "internal_node_id": "0.0-97.0"}}, {"uniqueid": "MTK0909:3WYP994K18YWRA3CJVQUXOOGR7Q6YX", "current_trial": 134, "dateTime": 1512874990333, "trialdata": {"rt": -1000, "stimulus": "/static/audio/wordpool/SCRIBBLE.wav", "key_press": -1, "type": "PRES_AUD", "word": "scribble", "wordID": 1255, "conditions": [12, 800, "a", 12000], "trial": 3, "serialpos": 5, "trial_type": "single-audio", "trial_index": 134, "time_elapsed": 1081034, "internal_node_id": "0.0-98.0"}}, {"uniqueid": "MTK0909:3WYP994K18YWRA3CJVQUXOOGR7Q6YX", "current_trial": 135, "dateTime": 1512874992275, "trialdata": {"rt": -1000, "stimulus": "/static/audio/wordpool/DOLPHIN.wav", "key_press": -1, "type": "PRES_AUD", "word": "dolphin", "wordID": 482, "conditions": [12, 800, "a", 12000], "trial": 3, "serialpos": 6, "trial_type": "single-audio", "trial_index": 135, "time_elapsed": 1082976, "internal_node_id": "0.0-99.0"}}, {"uniqueid": "MTK0909:3WYP994K18YWRA3CJVQUXOOGR7Q6YX", "current_trial": 136, "dateTime": 1512874993936, "trialdata": {"rt": -1000, "stimulus": "/static/audio/wordpool/MUMMY.wav", "key_press": -1, "type": "PRES_AUD", "word": "mummy", "wordID": 931, "conditions": [12, 800, "a", 12000], "trial": 3, "serialpos": 7, "trial_type": "single-audio", "trial_index": 136, "time_elapsed": 1084637, "internal_node_id": "0.0-100.0"}}, {"uniqueid": "MTK0909:3WYP994K18YWRA3CJVQUXOOGR7Q6YX", "current_trial": 137, "dateTime": 1512874995923, "trialdata": {"rt": -1000, "stimulus": "/static/audio/wordpool/PIGEON.wav", "key_press": -1, "type": "PRES_AUD", "word": "pigeon", "wordID": 1064, "conditions": [12, 800, "a", 12000], "trial": 3, "serialpos": 8, "trial_type": "single-audio", "trial_index": 137, "time_elapsed": 1086623, "internal_node_id": "0.0-101.0"}}, {"uniqueid": "MTK0909:3WYP994K18YWRA3CJVQUXOOGR7Q6YX", "current_trial": 138, "dateTime": 1512874997735, "trialdata": {"rt": -1000, "stimulus": "/static/audio/wordpool/GIFT.wav", "key_press": -1, "type": "PRES_AUD", "word": "gift", "wordID": 634, "conditions": [12, 800, "a", 12000], "trial": 3, "serialpos": 9, "trial_type": "single-audio", "trial_index": 138, "time_elapsed": 1088436, "internal_node_id": "0.0-102.0"}}, {"uniqueid": "MTK0909:3WYP994K18YWRA3CJVQUXOOGR7Q6YX", "current_trial": 139, "dateTime": 1512874999722, "trialdata": {"rt": -1000, "stimulus": "/static/audio/wordpool/TURTLE.wav", "key_press": -1, "type": "PRES_AUD", "word": "turtle", "wordID": 1521, "conditions": [12, 800, "a", 12000], "trial": 3, "serialpos": 10, "trial_type": "single-audio", "trial_index": 139, "time_elapsed": 1090423, "internal_node_id": "0.0-103.0"}}, {"uniqueid": "MTK0909:3WYP994K18YWRA3CJVQUXOOGR7Q6YX", "current_trial": 140, "dateTime": 1512875001324, "trialdata": {"rt": -1000, "stimulus": "/static/audio/wordpool/TREAT.wav", "key_press": -1, "type": "PRES_AUD", "word": "treat", "wordID": 1500, "conditions": [12, 800, "a", 12000], "trial": 3, "serialpos": 11, "trial_type": "single-audio", "trial_index": 140, "time_elapsed": 1092025, "internal_node_id": "0.0-104.0"}}, {"uniqueid": "MTK0909:3WYP994K18YWRA3CJVQUXOOGR7Q6YX", "current_trial": 141, "dateTime": 1512875002636, "trialdata": {"rt": -1, "stimulus": "", "key_press": -1, "type": "PRE_RECALL_DELAY", "trial_type": "single-stim", "trial_index": 141, "time_elapsed": 1093337, "internal_node_id": "0.0-105.0-0.0"}}, {"uniqueid": "MTK0909:3WYP994K18YWRA3CJVQUXOOGR7Q6YX", "current_trial": 142, "dateTime": 1512875003138, "trialdata": {"rt": -1000, "stimulus": "/static/audio/400Hz.wav", "key_press": -1, "type": "PRE_RECALL_ALERT", "trial_type": "single-audio", "trial_index": 142, "time_elapsed": 1093838, "internal_node_id": "0.0-106.0"}}, {"uniqueid": "MTK0909:3WYP994K18YWRA3CJVQUXOOGR7Q6YX", "current_trial": 143, "dateTime": 1512875063148, "trialdata": {"rt": [5919, 9327, 12519, 14801, 19806], "recwords": ["cigar", "mummy", "turtle", "gift", "treat"], "type": "FREE_RECALL", "conditions": [12, 800, "a", 12000], "trial": 3, "trial_type": "free-recall", "trial_index": 143, "time_elapsed": 1153844, "internal_node_id": "0.0-107.0-0.0"}}, {"uniqueid": "MTK0909:3WYP994K18YWRA3CJVQUXOOGR7Q6YX", "current_trial": 144, "dateTime": 1512875067032, "trialdata": {"rt": 1880, "key_press": 32, "type": "INSTRUCTIONS", "trial_type": "text", "trial_index": 144, "time_elapsed": 1157733, "internal_node_id": "0.0-108.0"}}, {"uniqueid": "MTK0909:3WYP994K18YWRA3CJVQUXOOGR7Q6YX", "current_trial": 145, "dateTime": 1512875093036, "trialdata": {"rt": [2777, 4606, 6356, 8145, 9661, 11583, 13354, 14777, 16317, 17616, 19495, 21708], "responses": ["17", "10", "15", "13", "8", "18", "20", "8", "13", "9", "18", "19"], "num1": [9, 3, 4, 7, 1, 7, 2, 1, 3, 4, 6, 7, 6], "num2": [7, 6, 3, 1, 1, 7, 9, 2, 5, 4, 4, 9, 9], "num3": [1, 1, 8, 5, 6, 4, 9, 5, 5, 1, 8, 3, 8], "type": "DISTRACTOR", "conditions": [12, 1600, "a", 24000], "trial": 4, "trial_type": "math-distractor", "trial_index": 145, "time_elapsed": 1183737, "internal_node_id": "0.0-109.0"}}, {"uniqueid": "MTK0909:3WYP994K18YWRA3CJVQUXOOGR7Q6YX", "current_trial": 146, "dateTime": 1512875096037, "trialdata": {"rt": -1, "stimulus": "<p id=\"stim\">10</p>", "key_press": -1, "trial_type": "single-stim", "trial_index": 146, "time_elapsed": 1186738, "internal_node_id": "0.0-110.0-0.0"}}, {"uniqueid": "MTK0909:3WYP994K18YWRA3CJVQUXOOGR7Q6YX", "current_trial": 147, "dateTime": 1512875097039, "trialdata": {"rt": -1, "stimulus": "<p id=\"stim\">9</p>", "key_press": -1, "trial_type": "single-stim", "trial_index": 147, "time_elapsed": 1187740, "internal_node_id": "0.0-110.0-1.0"}}, {"uniqueid": "MTK0909:3WYP994K18YWRA3CJVQUXOOGR7Q6YX", "current_trial": 148, "dateTime": 1512875098042, "trialdata": {"rt": -1, "stimulus": "<p id=\"stim\">8</p>", "key_press": -1, "trial_type": "single-stim", "trial_index": 148, "time_elapsed": 1188742, "internal_node_id": "0.0-110.0-2.0"}}, {"uniqueid": "MTK0909:3WYP994K18YWRA3CJVQUXOOGR7Q6YX", "current_trial": 149, "dateTime": 1512875099042, "trialdata": {"rt": -1, "stimulus": "<p id=\"stim\">7</p>", "key_press": -1, "trial_type": "single-stim", "trial_index": 149, "time_elapsed": 1189743, "internal_node_id": "0.0-110.0-3.0"}}, {"uniqueid": "MTK0909:3WYP994K18YWRA3CJVQUXOOGR7Q6YX", "current_trial": 150, "dateTime": 1512875100043, "trialdata": {"rt": -1, "stimulus": "<p id=\"stim\">6</p>", "key_press": -1, "trial_type": "single-stim", "trial_index": 150, "time_elapsed": 1190744, "internal_node_id": "0.0-110.0-4.0"}}, {"uniqueid": "MTK0909:3WYP994K18YWRA3CJVQUXOOGR7Q6YX", "current_trial": 151, "dateTime": 1512875101045, "trialdata": {"rt": -1, "stimulus": "<p id=\"stim\">5</p>", "key_press": -1, "trial_type": "single-stim", "trial_index": 151, "time_elapsed": 1191745, "internal_node_id": "0.0-110.0-5.0"}}, {"uniqueid": "MTK0909:3WYP994K18YWRA3CJVQUXOOGR7Q6YX", "current_trial": 152, "dateTime": 1512875102047, "trialdata": {"rt": -1, "stimulus": "<p id=\"stim\">4</p>", "key_press": -1, "trial_type": "single-stim", "trial_index": 152, "time_elapsed": 1192747, "internal_node_id": "0.0-110.0-6.0"}}, {"uniqueid": "MTK0909:3WYP994K18YWRA3CJVQUXOOGR7Q6YX", "current_trial": 153, "dateTime": 1512875103048, "trialdata": {"rt": -1, "stimulus": "<p id=\"stim\">3</p>", "key_press": -1, "trial_type": "single-stim", "trial_index": 153, "time_elapsed": 1193749, "internal_node_id": "0.0-110.0-7.0"}}, {"uniqueid": "MTK0909:3WYP994K18YWRA3CJVQUXOOGR7Q6YX", "current_trial": 154, "dateTime": 1512875104049, "trialdata": {"rt": -1, "stimulus": "<p id=\"stim\">2</p>", "key_press": -1, "trial_type": "single-stim", "trial_index": 154, "time_elapsed": 1194750, "internal_node_id": "0.0-110.0-8.0"}}, {"uniqueid": "MTK0909:3WYP994K18YWRA3CJVQUXOOGR7Q6YX", "current_trial": 155, "dateTime": 1512875105050, "trialdata": {"rt": -1, "stimulus": "<p id=\"stim\">1</p>", "key_press": -1, "trial_type": "single-stim", "trial_index": 155, "time_elapsed": 1195751, "internal_node_id": "0.0-110.0-9.0"}}, {"uniqueid": "MTK0909:3WYP994K18YWRA3CJVQUXOOGR7Q6YX", "current_trial": 156, "dateTime": 1512875106553, "trialdata": {"rt": -1, "stimulus": "<p id=\"stim\">+</p>", "key_press": -1, "type": "FIXATION", "trial_type": "single-stim", "trial_index": 156, "time_elapsed": 1197253, "internal_node_id": "0.0-111.0-0.0"}}, {"uniqueid": "MTK0909:3WYP994K18YWRA3CJVQUXOOGR7Q6YX", "current_trial": 157, "dateTime": 1512875109073, "trialdata": {"rt": -1000, "stimulus": "/static/audio/wordpool/XEROX.wav", "key_press": -1, "type": "PRES_AUD", "word": "xerox", "wordID": 1627, "conditions": [12, 1600, "a", 24000], "trial": 4, "serialpos": 0, "trial_type": "single-audio", "trial_index": 157, "time_elapsed": 1199774, "internal_node_id": "0.0-112.0"}}, {"uniqueid": "MTK0909:3WYP994K18YWRA3CJVQUXOOGR7Q6YX", "current_trial": 158, "dateTime": 1512875111662, "trialdata": {"rt": -1000, "stimulus": "/static/audio/wordpool/HONEY.wav", "key_press": -1, "type": "PRES_AUD", "word": "honey", "wordID": 712, "conditions": [12, 1600, "a", 24000], "trial": 4, "serialpos": 1, "trial_type": "single-audio", "trial_index": 158, "time_elapsed": 1202363, "internal_node_id": "0.0-113.0"}}, {"uniqueid": "MTK0909:3WYP994K18YWRA3CJVQUXOOGR7Q6YX", "current_trial": 159, "dateTime": 1512875114417, "trialdata": {"rt": -1000, "stimulus": "/static/audio/wordpool/POPCORN.wav", "key_press": -1, "type": "PRES_AUD", "word": "popcorn", "wordID": 1103, "conditions": [12, 1600, "a", 24000], "trial": 4, "serialpos": 2, "trial_type": "single-audio", "trial_index": 159, "time_elapsed": 1205118, "internal_node_id": "0.0-114.0"}}, {"uniqueid": "MTK0909:3WYP994K18YWRA3CJVQUXOOGR7Q6YX", "current_trial": 160, "dateTime": 1512875116910, "trialdata": {"rt": -1000, "stimulus": "/static/audio/wordpool/STUDENT.wav", "key_press": -1, "type": "PRES_AUD", "word": "student", "wordID": 1394, "conditions": [12, 1600, "a", 24000], "trial": 4, "serialpos": 3, "trial_type": "single-audio", "trial_index": 160, "time_elapsed": 1207611, "internal_node_id": "0.0-115.0"}}, {"uniqueid": "MTK0909:3WYP994K18YWRA3CJVQUXOOGR7Q6YX", "current_trial": 161, "dateTime": 1512875119676, "trialdata": {"rt": -1000, "stimulus": "/static/audio/wordpool/DORM.wav", "key_press": -1, "type": "PRES_AUD", "word": "dorm", "wordID": 487, "conditions": [12, 1600, "a", 24000], "trial": 4, "serialpos": 4, "trial_type": "single-audio", "trial_index": 161, "time_elapsed": 1210377, "internal_node_id": "0.0-116.0"}}, {"uniqueid": "MTK0909:3WYP994K18YWRA3CJVQUXOOGR7Q6YX", "current_trial": 162, "dateTime": 1512875122383, "trialdata": {"rt": -1000, "stimulus": "/static/audio/wordpool/OUTLAW.wav", "key_press": -1, "type": "PRES_AUD", "word": "outlaw", "wordID": 988, "conditions": [12, 1600, "a", 24000], "trial": 4, "serialpos": 5, "trial_type": "single-audio", "trial_index": 162, "time_elapsed": 1213084, "internal_node_id": "0.0-117.0"}}, {"uniqueid": "MTK0909:3WYP994K18YWRA3CJVQUXOOGR7Q6YX", "current_trial": 163, "dateTime": 1512875125021, "trialdata": {"rt": -1000, "stimulus": "/static/audio/wordpool/CONVICT.wav", "key_press": -1, "type": "PRES_AUD", "word": "convict", "wordID": 370, "conditions": [12, 1600, "a", 24000], "trial": 4, "serialpos": 6, "trial_type": "single-audio", "trial_index": 163, "time_elapsed": 1215722, "internal_node_id": "0.0-118.0"}}, {"uniqueid": "MTK0909:3WYP994K18YWRA3CJVQUXOOGR7Q6YX", "current_trial": 164, "dateTime": 1512875127440, "trialdata": {"rt": -1000, "stimulus": "/static/audio/wordpool/CLAMP.wav", "key_press": -1, "type": "PRES_AUD", "word": "clamp", "wordID": 315, "conditions": [12, 1600, "a", 24000], "trial": 4, "serialpos": 7, "trial_type": "single-audio", "trial_index": 164, "time_elapsed": 1218141, "internal_node_id": "0.0-119.0"}}, {"uniqueid": "MTK0909:3WYP994K18YWRA3CJVQUXOOGR7Q6YX", "current_trial": 165, "dateTime": 1512875130172, "trialdata": {"rt": -1000, "stimulus": "/static/audio/wordpool/KETCHUP.wav", "key_press": -1, "type": "PRES_AUD", "word": "ketchup", "wordID": 770, "conditions": [12, 1600, "a", 24000], "trial": 4, "serialpos": 8, "trial_type": "single-audio", "trial_index": 165, "time_elapsed": 1220873, "internal_node_id": "0.0-120.0"}}, {"uniqueid": "MTK0909:3WYP994K18YWRA3CJVQUXOOGR7Q6YX", "current_trial": 166, "dateTime": 1512875132826, "trialdata": {"rt": -1000, "stimulus": "/static/audio/wordpool/STICKER.wav", "key_press": -1, "type": "PRES_AUD", "word": "sticker", "wordID": 1381, "conditions": [12, 1600, "a", 24000], "trial": 4, "serialpos": 9, "trial_type": "single-audio", "trial_index": 166, "time_elapsed": 1223527, "internal_node_id": "0.0-121.0"}}, {"uniqueid": "MTK0909:3WYP994K18YWRA3CJVQUXOOGR7Q6YX", "current_trial": 167, "dateTime": 1512875135554, "trialdata": {"rt": -1000, "stimulus": "/static/audio/wordpool/DIVER.wav", "key_press": -1, "type": "PRES_AUD", "word": "diver", "wordID": 475, "conditions": [12, 1600, "a", 24000], "trial": 4, "serialpos": 10, "trial_type": "single-audio", "trial_index": 167, "time_elapsed": 1226255, "internal_node_id": "0.0-122.0"}}, {"uniqueid": "MTK0909:3WYP994K18YWRA3CJVQUXOOGR7Q6YX", "current_trial": 168, "dateTime": 1512875138249, "trialdata": {"rt": -1000, "stimulus": "/static/audio/wordpool/SNACK.wav", "key_press": -1, "type": "PRES_AUD", "word": "snack", "wordID": 1330, "conditions": [12, 1600, "a", 24000], "trial": 4, "serialpos": 11, "trial_type": "single-audio", "trial_index": 168, "time_elapsed": 1228950, "internal_node_id": "0.0-123.0"}}, {"uniqueid": "MTK0909:3WYP994K18YWRA3CJVQUXOOGR7Q6YX", "current_trial": 169, "dateTime": 1512875139513, "trialdata": {"rt": -1, "stimulus": "", "key_press": -1, "type": "PRE_RECALL_DELAY", "trial_type": "single-stim", "trial_index": 169, "time_elapsed": 1230214, "internal_node_id": "0.0-124.0-0.0"}}, {"uniqueid": "MTK0909:3WYP994K18YWRA3CJVQUXOOGR7Q6YX", "current_trial": 170, "dateTime": 1512875140015, "trialdata": {"rt": -1000, "stimulus": "/static/audio/400Hz.wav", "key_press": -1, "type": "PRE_RECALL_ALERT", "trial_type": "single-audio", "trial_index": 170, "time_elapsed": 1230715, "internal_node_id": "0.0-125.0"}}, {"uniqueid": "MTK0909:3WYP994K18YWRA3CJVQUXOOGR7Q6YX", "current_trial": 171, "dateTime": 1512875200025, "trialdata": {"rt": [5051, 10614, 14899, 17726, 21274, 24896, 29549, 34653, 38792, 41851, 48298, 52899], "recwords": ["honey", "popcorn", "student", "dorm", "xerox", "outlaw", "convict", "ketchup", "diver", "snack", "sticker", "clamp"], "type": "FREE_RECALL", "conditions": [12, 1600, "a", 24000], "trial": 4, "trial_type": "free-recall", "trial_index": 171, "time_elapsed": 1290719, "internal_node_id": "0.0-126.0-0.0"}}, {"uniqueid": "MTK0909:3WYP994K18YWRA3CJVQUXOOGR7Q6YX", "current_trial": 172, "dateTime": 1512875207457, "trialdata": {"rt": 5431, "key_press": 13, "type": "INSTRUCTIONS", "trial_type": "text", "trial_index": 172, "time_elapsed": 1298158, "internal_node_id": "0.0-127.0"}}, {"uniqueid": "MTK0909:3WYP994K18YWRA3CJVQUXOOGR7Q6YX", "current_trial": 173, "dateTime": 1512875233463, "trialdata": {"rt": [2255, 4288, 5710, 7308, 9634, 12363, 14060, 15580, 17075, 19804, 21692, 23754], "responses": ["21", "23", "14", "16", "19", "22", "10", "10", "11", "20", "19", "16"], "num1": [6, 9, 4, 6, 8, 9, 3, 2, 2, 7, 8, 4, 7], "num2": [9, 9, 2, 2, 2, 7, 4, 5, 3, 9, 9, 7, 8], "num3": [6, 5, 8, 8, 9, 6, 3, 3, 6, 4, 1, 5, 7], "type": "DISTRACTOR", "conditions": [12, 800, "a", 24000], "trial": 5, "trial_type": "math-distractor", "trial_index": 173, "time_elapsed": 1324164, "internal_node_id": "0.0-128.0"}}, {"uniqueid": "MTK0909:3WYP994K18YWRA3CJVQUXOOGR7Q6YX", "current_trial": 174, "dateTime": 1512875236465, "trialdata": {"rt": -1, "stimulus": "<p id=\"stim\">10</p>", "key_press": -1, "trial_type": "single-stim", "trial_index": 174, "time_elapsed": 1327166, "internal_node_id": "0.0-129.0-0.0"}}, {"uniqueid": "MTK0909:3WYP994K18YWRA3CJVQUXOOGR7Q6YX", "current_trial": 175, "dateTime": 1512875237468, "trialdata": {"rt": -1, "stimulus": "<p id=\"stim\">9</p>", "key_press": -1, "trial_type": "single-stim", "trial_index": 175, "time_elapsed": 1328169, "internal_node_id": "0.0-129.0-1.0"}}, {"uniqueid": "MTK0909:3WYP994K18YWRA3CJVQUXOOGR7Q6YX", "current_trial": 176, "dateTime": 1512875238469, "trialdata": {"rt": -1, "stimulus": "<p id=\"stim\">8</p>", "key_press": -1, "trial_type": "single-stim", "trial_index": 176, "time_elapsed": 1329170, "internal_node_id": "0.0-129.0-2.0"}}, {"uniqueid": "MTK0909:3WYP994K18YWRA3CJVQUXOOGR7Q6YX", "current_trial": 177, "dateTime": 1512875239470, "trialdata": {"rt": -1, "stimulus": "<p id=\"stim\">7</p>", "key_press": -1, "trial_type": "single-stim", "trial_index": 177, "time_elapsed": 1330171, "internal_node_id": "0.0-129.0-3.0"}}, {"uniqueid": "MTK0909:3WYP994K18YWRA3CJVQUXOOGR7Q6YX", "current_trial": 178, "dateTime": 1512875240473, "trialdata": {"rt": -1, "stimulus": "<p id=\"stim\">6</p>", "key_press": -1, "trial_type": "single-stim", "trial_index": 178, "time_elapsed": 1331173, "internal_node_id": "0.0-129.0-4.0"}}, {"uniqueid": "MTK0909:3WYP994K18YWRA3CJVQUXOOGR7Q6YX", "current_trial": 179, "dateTime": 1512875241475, "trialdata": {"rt": -1, "stimulus": "<p id=\"stim\">5</p>", "key_press": -1, "trial_type": "single-stim", "trial_index": 179, "time_elapsed": 1332176, "internal_node_id": "0.0-129.0-5.0"}}, {"uniqueid": "MTK0909:3WYP994K18YWRA3CJVQUXOOGR7Q6YX", "current_trial": 180, "dateTime": 1512875242478, "trialdata": {"rt": -1, "stimulus": "<p id=\"stim\">4</p>", "key_press": -1, "trial_type": "single-stim", "trial_index": 180, "time_elapsed": 1333179, "internal_node_id": "0.0-129.0-6.0"}}, {"uniqueid": "MTK0909:3WYP994K18YWRA3CJVQUXOOGR7Q6YX", "current_trial": 181, "dateTime": 1512875243480, "trialdata": {"rt": -1, "stimulus": "<p id=\"stim\">3</p>", "key_press": -1, "trial_type": "single-stim", "trial_index": 181, "time_elapsed": 1334180, "internal_node_id": "0.0-129.0-7.0"}}, {"uniqueid": "MTK0909:3WYP994K18YWRA3CJVQUXOOGR7Q6YX", "current_trial": 182, "dateTime": 1512875244482, "trialdata": {"rt": -1, "stimulus": "<p id=\"stim\">2</p>", "key_press": -1, "trial_type": "single-stim", "trial_index": 182, "time_elapsed": 1335182, "internal_node_id": "0.0-129.0-8.0"}}, {"uniqueid": "MTK0909:3WYP994K18YWRA3CJVQUXOOGR7Q6YX", "current_trial": 183, "dateTime": 1512875245484, "trialdata": {"rt": -1, "stimulus": "<p id=\"stim\">1</p>", "key_press": -1, "trial_type": "single-stim", "trial_index": 183, "time_elapsed": 1336184, "internal_node_id": "0.0-129.0-9.0"}}, {"uniqueid": "MTK0909:3WYP994K18YWRA3CJVQUXOOGR7Q6YX", "current_trial": 184, "dateTime": 1512875246986, "trialdata": {"rt": -1, "stimulus": "<p id=\"stim\">+</p>", "key_press": -1, "type": "FIXATION", "trial_type": "single-stim", "trial_index": 184, "time_elapsed": 1337686, "internal_node_id": "0.0-130.0-0.0"}}, {"uniqueid": "MTK0909:3WYP994K18YWRA3CJVQUXOOGR7Q6YX", "current_trial": 185, "dateTime": 1512875248827, "trialdata": {"rt": -1000, "stimulus": "/static/audio/wordpool/COSTUME.wav", "key_press": -1, "type": "PRES_AUD", "word": "costume", "wordID": 382, "conditions": [12, 800, "a", 24000], "trial": 5, "serialpos": 0, "trial_type": "single-audio", "trial_index": 185, "time_elapsed": 1339528, "internal_node_id": "0.0-131.0"}}, {"uniqueid": "MTK0909:3WYP994K18YWRA3CJVQUXOOGR7Q6YX", "current_trial": 186, "dateTime": 1512875250525, "trialdata": {"rt": -1000, "stimulus": "/static/audio/wordpool/NOVEL.wav", "key_press": -1, "type": "PRES_AUD", "word": "novel", "wordID": 959, "conditions": [12, 800, "a", 24000], "trial": 5, "serialpos": 1, "trial_type": "single-audio", "trial_index": 186, "time_elapsed": 1341226, "internal_node_id": "0.0-132.0"}}, {"uniqueid": "MTK0909:3WYP994K18YWRA3CJVQUXOOGR7Q6YX", "current_trial": 187, "dateTime": 1512875252240, "trialdata": {"rt": -1000, "stimulus": "/static/audio/wordpool/SWITCH.wav", "key_press": -1, "type": "PRES_AUD", "word": "switch", "wordID": 1421, "conditions": [12, 800, "a", 24000], "trial": 5, "serialpos": 2, "trial_type": "single-audio", "trial_index": 187, "time_elapsed": 1342941, "internal_node_id": "0.0-133.0"}}, {"uniqueid": "MTK0909:3WYP994K18YWRA3CJVQUXOOGR7Q6YX", "current_trial": 188, "dateTime": 1512875253843, "trialdata": {"rt": -1000, "stimulus": "/static/audio/wordpool/WRENCH.wav", "key_press": -1, "type": "PRES_AUD", "word": "wrench", "wordID": 1624, "conditions": [12, 800, "a", 24000], "trial": 5, "serialpos": 3, "trial_type": "single-audio", "trial_index": 188, "time_elapsed": 1344544, "internal_node_id": "0.0-134.0"}}, {"uniqueid": "MTK0909:3WYP994K18YWRA3CJVQUXOOGR7Q6YX", "current_trial": 189, "dateTime": 1512875255548, "trialdata": {"rt": -1000, "stimulus": "/static/audio/wordpool/FEMALE.wav", "key_press": -1, "type": "PRES_AUD", "word": "female", "wordID": 558, "conditions": [12, 800, "a", 24000], "trial": 5, "serialpos": 4, "trial_type": "single-audio", "trial_index": 189, "time_elapsed": 1346249, "internal_node_id": "0.0-135.0"}}, {"uniqueid": "MTK0909:3WYP994K18YWRA3CJVQUXOOGR7Q6YX", "current_trial": 190, "dateTime": 1512875257411, "trialdata": {"rt": -1000, "stimulus": "/static/audio/wordpool/SILK.wav", "key_press": -1, "type": "PRES_AUD", "word": "silk", "wordID": 1306, "conditions": [12, 800, "a", 24000], "trial": 5, "serialpos": 5, "trial_type": "single-audio", "trial_index": 190, "time_elapsed": 1348112, "internal_node_id": "0.0-136.0"}}, {"uniqueid": "MTK0909:3WYP994K18YWRA3CJVQUXOOGR7Q6YX", "current_trial": 191, "dateTime": 1512875259174, "trialdata": {"rt": -1000, "stimulus": "/static/audio/wordpool/LEADER.wav", "key_press": -1, "type": "PRES_AUD", "word": "leader", "wordID": 806, "conditions": [12, 800, "a", 24000], "trial": 5, "serialpos": 6, "trial_type": "single-audio", "trial_index": 191, "time_elapsed": 1349875, "internal_node_id": "0.0-137.0"}}, {"uniqueid": "MTK0909:3WYP994K18YWRA3CJVQUXOOGR7Q6YX", "current_trial": 192, "dateTime": 1512875260888, "trialdata": {"rt": -1000, "stimulus": "/static/audio/wordpool/HUMAN.wav", "key_press": -1, "type": "PRES_AUD", "word": "human", "wordID": 725, "conditions": [12, 800, "a", 24000], "trial": 5, "serialpos": 7, "trial_type": "single-audio", "trial_index": 192, "time_elapsed": 1351589, "internal_node_id": "0.0-138.0"}}, {"uniqueid": "MTK0909:3WYP994K18YWRA3CJVQUXOOGR7Q6YX", "current_trial": 193, "dateTime": 1512875262719, "trialdata": {"rt": -1000, "stimulus": "/static/audio/wordpool/OMELET.wav", "key_press": -1, "type": "PRES_AUD", "word": "omelet", "wordID": 975, "conditions": [12, 800, "a", 24000], "trial": 5, "serialpos": 8, "trial_type": "single-audio", "trial_index": 193, "time_elapsed": 1353420, "internal_node_id": "0.0-139.0"}}, {"uniqueid": "MTK0909:3WYP994K18YWRA3CJVQUXOOGR7Q6YX", "current_trial": 194, "dateTime": 1512875264363, "trialdata": {"rt": -1000, "stimulus": "/static/audio/wordpool/BACON.wav", "key_press": -1, "type": "PRES_AUD", "word": "bacon", "wordID": 66, "conditions": [12, 800, "a", 24000], "trial": 5, "serialpos": 9, "trial_type": "single-audio", "trial_index": 194, "time_elapsed": 1355064, "internal_node_id": "0.0-140.0"}}, {"uniqueid": "MTK0909:3WYP994K18YWRA3CJVQUXOOGR7Q6YX", "current_trial": 195, "dateTime": 1512875265983, "trialdata": {"rt": -1000, "stimulus": "/static/audio/wordpool/WARDROBE.wav", "key_press": -1, "type": "PRES_AUD", "word": "wardrobe", "wordID": 1586, "conditions": [12, 800, "a", 24000], "trial": 5, "serialpos": 10, "trial_type": "single-audio", "trial_index": 195, "time_elapsed": 1356683, "internal_node_id": "0.0-141.0"}}, {"uniqueid": "MTK0909:3WYP994K18YWRA3CJVQUXOOGR7Q6YX", "current_trial": 196, "dateTime": 1512875267635, "trialdata": {"rt": -1000, "stimulus": "/static/audio/wordpool/SPOUSE.wav", "key_press": -1, "type": "PRES_AUD", "word": "spouse", "wordID": 1357, "conditions": [12, 800, "a", 24000], "trial": 5, "serialpos": 11, "trial_type": "single-audio", "trial_index": 196, "time_elapsed": 1358336, "internal_node_id": "0.0-142.0"}}, {"uniqueid": "MTK0909:3WYP994K18YWRA3CJVQUXOOGR7Q6YX", "current_trial": 197, "dateTime": 1512875268899, "trialdata": {"rt": -1, "stimulus": "", "key_press": -1, "type": "PRE_RECALL_DELAY", "trial_type": "single-stim", "trial_index": 197, "time_elapsed": 1359599, "internal_node_id": "0.0-143.0-0.0"}}, {"uniqueid": "MTK0909:3WYP994K18YWRA3CJVQUXOOGR7Q6YX", "current_trial": 198, "dateTime": 1512875269401, "trialdata": {"rt": -1000, "stimulus": "/static/audio/400Hz.wav", "key_press": -1, "type": "PRE_RECALL_ALERT", "trial_type": "single-audio", "trial_index": 198, "time_elapsed": 1360101, "internal_node_id": "0.0-144.0"}}, {"uniqueid": "MTK0909:3WYP994K18YWRA3CJVQUXOOGR7Q6YX", "current_trial": 199, "dateTime": 1512875329411, "trialdata": {"rt": [5723, 9127, 12230, 15918, 20355, 23717, 27352], "recwords": ["switch", "female", "silk", "bacon", "omlette", "spouse", "leader"], "type": "FREE_RECALL", "conditions": [12, 800, "a", 24000], "trial": 5, "trial_type": "free-recall", "trial_index": 199, "time_elapsed": 1420106, "internal_node_id": "0.0-145.0-0.0"}}, {"uniqueid": "MTK0909:3WYP994K18YWRA3CJVQUXOOGR7Q6YX", "current_trial": 200, "dateTime": 1512875337994, "trialdata": {"rt": 6581, "key_press": 13, "type": "INSTRUCTIONS", "trial_type": "text", "trial_index": 200, "time_elapsed": 1428695, "internal_node_id": "0.0-146.0"}}, {"uniqueid": "MTK0909:3WYP994K18YWRA3CJVQUXOOGR7Q6YX", "current_trial": 201, "dateTime": 1512875352000, "trialdata": {"rt": [1397, 2713, 9770, 11419], "responses": ["12", "12", "22", "17"], "num1": [2, 6, 8, 6, 3], "num2": [5, 4, 8, 7, 9], "num3": [5, 2, 6, 4, 7], "type": "DISTRACTOR", "conditions": [24, 1600, "v", 12000], "trial": 6, "trial_type": "math-distractor", "trial_index": 201, "time_elapsed": 1442701, "internal_node_id": "0.0-147.0"}}, {"uniqueid": "MTK0909:3WYP994K18YWRA3CJVQUXOOGR7Q6YX", "current_trial": 202, "dateTime": 1512875355003, "trialdata": {"rt": -1, "stimulus": "<p id=\"stim\">10</p>", "key_press": -1, "trial_type": "single-stim", "trial_index": 202, "time_elapsed": 1445703, "internal_node_id": "0.0-148.0-0.0"}}, {"uniqueid": "MTK0909:3WYP994K18YWRA3CJVQUXOOGR7Q6YX", "current_trial": 203, "dateTime": 1512875356004, "trialdata": {"rt": -1, "stimulus": "<p id=\"stim\">9</p>", "key_press": -1, "trial_type": "single-stim", "trial_index": 203, "time_elapsed": 1446705, "internal_node_id": "0.0-148.0-1.0"}}, {"uniqueid": "MTK0909:3WYP994K18YWRA3CJVQUXOOGR7Q6YX", "current_trial": 204, "dateTime": 1512875357006, "trialdata": {"rt": -1, "stimulus": "<p id=\"stim\">8</p>", "key_press": -1, "trial_type": "single-stim", "trial_index": 204, "time_elapsed": 1447706, "internal_node_id": "0.0-148.0-2.0"}}, {"uniqueid": "MTK0909:3WYP994K18YWRA3CJVQUXOOGR7Q6YX", "current_trial": 205, "dateTime": 1512875358008, "trialdata": {"rt": -1, "stimulus": "<p id=\"stim\">7</p>", "key_press": -1, "trial_type": "single-stim", "trial_index": 205, "time_elapsed": 1448708, "internal_node_id": "0.0-148.0-3.0"}}, {"uniqueid": "MTK0909:3WYP994K18YWRA3CJVQUXOOGR7Q6YX", "current_trial": 206, "dateTime": 1512875359010, "trialdata": {"rt": -1, "stimulus": "<p id=\"stim\">6</p>", "key_press": -1, "trial_type": "single-stim", "trial_index": 206, "time_elapsed": 1449711, "internal_node_id": "0.0-148.0-4.0"}}, {"uniqueid": "MTK0909:3WYP994K18YWRA3CJVQUXOOGR7Q6YX", "current_trial": 207, "dateTime": 1512875360012, "trialdata": {"rt": -1, "stimulus": "<p id=\"stim\">5</p>", "key_press": -1, "trial_type": "single-stim", "trial_index": 207, "time_elapsed": 1450712, "internal_node_id": "0.0-148.0-5.0"}}, {"uniqueid": "MTK0909:3WYP994K18YWRA3CJVQUXOOGR7Q6YX", "current_trial": 208, "dateTime": 1512875361013, "trialdata": {"rt": -1, "stimulus": "<p id=\"stim\">4</p>", "key_press": -1, "trial_type": "single-stim", "trial_index": 208, "time_elapsed": 1451713, "internal_node_id": "0.0-148.0-6.0"}}, {"uniqueid": "MTK0909:3WYP994K18YWRA3CJVQUXOOGR7Q6YX", "current_trial": 209, "dateTime": 1512875362014, "trialdata": {"rt": -1, "stimulus": "<p id=\"stim\">3</p>", "key_press": -1, "trial_type": "single-stim", "trial_index": 209, "time_elapsed": 1452714, "internal_node_id": "0.0-148.0-7.0"}}, {"uniqueid": "MTK0909:3WYP994K18YWRA3CJVQUXOOGR7Q6YX", "current_trial": 210, "dateTime": 1512875363016, "trialdata": {"rt": -1, "stimulus": "<p id=\"stim\">2</p>", "key_press": -1, "trial_type": "single-stim", "trial_index": 210, "time_elapsed": 1453716, "internal_node_id": "0.0-148.0-8.0"}}, {"uniqueid": "MTK0909:3WYP994K18YWRA3CJVQUXOOGR7Q6YX", "current_trial": 211, "dateTime": 1512875364018, "trialdata": {"rt": -1, "stimulus": "<p id=\"stim\">1</p>", "key_press": -1, "trial_type": "single-stim", "trial_index": 211, "time_elapsed": 1454718, "internal_node_id": "0.0-148.0-9.0"}}, {"uniqueid": "MTK0909:3WYP994K18YWRA3CJVQUXOOGR7Q6YX", "current_trial": 212, "dateTime": 1512875365519, "trialdata": {"rt": -1, "stimulus": "<p id=\"stim\">+</p>", "key_press": -1, "type": "FIXATION", "trial_type": "single-stim", "trial_index": 212, "time_elapsed": 1456219, "internal_node_id": "0.0-149.0-0.0"}}, {"uniqueid": "MTK0909:3WYP994K18YWRA3CJVQUXOOGR7Q6YX", "current_trial": 213, "dateTime": 1512875367124, "trialdata": {"rt": -1, "stimulus": "<p id=\"stim\">CUSTARD</p>", "key_press": -1, "type": "PRES_VIS", "word": "custard", "wordID": 428, "conditions": [24, 1600, "v", 12000], "trial": 6, "serialpos": 0, "trial_type": "single-stim", "trial_index": 213, "time_elapsed": 1457825, "internal_node_id": "0.0-150.0"}}, {"uniqueid": "MTK0909:3WYP994K18YWRA3CJVQUXOOGR7Q6YX", "current_trial": 214, "dateTime": 1512875369754, "trialdata": {"rt": -1, "stimulus": "<p id=\"stim\">NIGHTGOWN</p>", "key_press": -1, "type": "PRES_VIS", "word": "nightgown", "wordID": 952, "conditions": [24, 1600, "v", 12000], "trial": 6, "serialpos": 1, "trial_type": "single-stim", "trial_index": 214, "time_elapsed": 1460455, "internal_node_id": "0.0-151.0"}}, {"uniqueid": "MTK0909:3WYP994K18YWRA3CJVQUXOOGR7Q6YX", "current_trial": 215, "dateTime": 1512875372317, "trialdata": {"rt": -1, "stimulus": "<p id=\"stim\">SKIRT</p>", "key_press": -1, "type": "PRES_VIS", "word": "skirt", "wordID": 1318, "conditions": [24, 1600, "v", 12000], "trial": 6, "serialpos": 2, "trial_type": "single-stim", "trial_index": 215, "time_elapsed": 1463018, "internal_node_id": "0.0-152.0"}}, {"uniqueid": "MTK0909:3WYP994K18YWRA3CJVQUXOOGR7Q6YX", "current_trial": 216, "dateTime": 1512875374918, "trialdata": {"rt": -1, "stimulus": "<p id=\"stim\">BLOUSE</p>", "key_press": -1, "type": "PRES_VIS", "word": "blouse", "wordID": 138, "conditions": [24, 1600, "v", 12000], "trial": 6, "serialpos": 3, "trial_type": "single-stim", "trial_index": 216, "time_elapsed": 1465618, "internal_node_id": "0.0-153.0"}}, {"uniqueid": "MTK0909:3WYP994K18YWRA3CJVQUXOOGR7Q6YX", "current_trial": 217, "dateTime": 1512875377379, "trialdata": {"rt": -1, "stimulus": "<p id=\"stim\">DRAGON</p>", "key_press": -1, "type": "PRES_VIS", "word": "dragon", "wordID": 491, "conditions": [24, 1600, "v", 12000], "trial": 6, "serialpos": 4, "trial_type": "single-stim", "trial_index": 217, "time_elapsed": 1468079, "internal_node_id": "0.0-154.0"}}, {"uniqueid": "MTK0909:3WYP994K18YWRA3CJVQUXOOGR7Q6YX", "current_trial": 218, "dateTime": 1512875379900, "trialdata": {"rt": -1, "stimulus": "<p id=\"stim\">ROBOT</p>", "key_press": -1, "type": "PRES_VIS", "word": "robot", "wordID": 1199, "conditions": [24, 1600, "v", 12000], "trial": 6, "serialpos": 5, "trial_type": "single-stim", "trial_index": 218, "time_elapsed": 1470600, "internal_node_id": "0.0-155.0"}}, {"uniqueid": "MTK0909:3WYP994K18YWRA3CJVQUXOOGR7Q6YX", "current_trial": 219, "dateTime": 1512875382642, "trialdata": {"rt": -1, "stimulus": "<p id=\"stim\">ARM</p>", "key_press": -1, "type": "PRES_VIS", "word": "arm", "wordID": 37, "conditions": [24, 1600, "v", 12000], "trial": 6, "serialpos": 6, "trial_type": "single-stim", "trial_index": 219, "time_elapsed": 1473342, "internal_node_id": "0.0-156.0"}}, {"uniqueid": "MTK0909:3WYP994K18YWRA3CJVQUXOOGR7Q6YX", "current_trial": 220, "dateTime": 1512875385368, "trialdata": {"rt": -1, "stimulus": "<p id=\"stim\">PUDDING</p>", "key_press": -1, "type": "PRES_VIS", "word": "pudding", "wordID": 1138, "conditions": [24, 1600, "v", 12000], "trial": 6, "serialpos": 7, "trial_type": "single-stim", "trial_index": 220, "time_elapsed": 1476068, "internal_node_id": "0.0-157.0"}}, {"uniqueid": "MTK0909:3WYP994K18YWRA3CJVQUXOOGR7Q6YX", "current_trial": 221, "dateTime": 1512875387800, "trialdata": {"rt": -1, "stimulus": "<p id=\"stim\">LIPSTICK</p>", "key_press": -1, "type": "PRES_VIS", "word": "lipstick", "wordID": 828, "conditions": [24, 1600, "v", 12000], "trial": 6, "serialpos": 8, "trial_type": "single-stim", "trial_index": 221, "time_elapsed": 1478500, "internal_node_id": "0.0-158.0"}}, {"uniqueid": "MTK0909:3WYP994K18YWRA3CJVQUXOOGR7Q6YX", "current_trial": 222, "dateTime": 1512875390583, "trialdata": {"rt": -1, "stimulus": "<p id=\"stim\">LAGOON</p>", "key_press": -1, "type": "PRES_VIS", "word": "lagoon", "wordID": 794, "conditions": [24, 1600, "v", 12000], "trial": 6, "serialpos": 9, "trial_type": "single-stim", "trial_index": 222, "time_elapsed": 1481283, "internal_node_id": "0.0-159.0"}}, {"uniqueid": "MTK0909:3WYP994K18YWRA3CJVQUXOOGR7Q6YX", "current_trial": 223, "dateTime": 1512875393116, "trialdata": {"rt": -1, "stimulus": "<p id=\"stim\">GROUND</p>", "key_press": -1, "type": "PRES_VIS", "word": "ground", "wordID": 665, "conditions": [24, 1600, "v", 12000], "trial": 6, "serialpos": 10, "trial_type": "single-stim", "trial_index": 223, "time_elapsed": 1483816, "internal_node_id": "0.0-160.0"}}, {"uniqueid": "MTK0909:3WYP994K18YWRA3CJVQUXOOGR7Q6YX", "current_trial": 224, "dateTime": 1512875395824, "trialdata": {"rt": -1, "stimulus": "<p id=\"stim\">CANAL</p>", "key_press": -1, "type": "PRES_VIS", "word": "canal", "wordID": 225, "conditions": [24, 1600, "v", 12000], "trial": 6, "serialpos": 11, "trial_type": "single-stim", "trial_index": 224, "time_elapsed": 1486524, "internal_node_id": "0.0-161.0"}}, {"uniqueid": "MTK0909:3WYP994K18YWRA3CJVQUXOOGR7Q6YX", "current_trial": 225, "dateTime": 1512875398537, "trialdata": {"rt": -1, "stimulus": "<p id=\"stim\">EYELASH</p>", "key_press": -1, "type": "PRES_VIS", "word": "eyelash", "wordID": 545, "conditions": [24, 1600, "v", 12000], "trial": 6, "serialpos": 12, "trial_type": "single-stim", "trial_index": 225, "time_elapsed": 1489237, "internal_node_id": "0.0-162.0"}}, {"uniqueid": "MTK0909:3WYP994K18YWRA3CJVQUXOOGR7Q6YX", "current_trial": 226, "dateTime": 1512875401286, "trialdata": {"rt": -1, "stimulus": "<p id=\"stim\">DANCER</p>", "key_press": -1, "type": "PRES_VIS", "word": "dancer", "wordID": 436, "conditions": [24, 1600, "v", 12000], "trial": 6, "serialpos": 13, "trial_type": "single-stim", "trial_index": 226, "time_elapsed": 1491987, "internal_node_id": "0.0-163.0"}}, {"uniqueid": "MTK0909:3WYP994K18YWRA3CJVQUXOOGR7Q6YX", "current_trial": 227, "dateTime": 1512875403962, "trialdata": {"rt": -1, "stimulus": "<p id=\"stim\">MILDEW</p>", "key_press": -1, "type": "PRES_VIS", "word": "mildew", "wordID": 892, "conditions": [24, 1600, "v", 12000], "trial": 6, "serialpos": 14, "trial_type": "single-stim", "trial_index": 227, "time_elapsed": 1494662, "internal_node_id": "0.0-164.0"}}, {"uniqueid": "MTK0909:3WYP994K18YWRA3CJVQUXOOGR7Q6YX", "current_trial": 228, "dateTime": 1512875406572, "trialdata": {"rt": -1, "stimulus": "<p id=\"stim\">GLOBE</p>", "key_press": -1, "type": "PRES_VIS", "word": "globe", "wordID": 640, "conditions": [24, 1600, "v", 12000], "trial": 6, "serialpos": 15, "trial_type": "single-stim", "trial_index": 228, "time_elapsed": 1497272, "internal_node_id": "0.0-165.0"}}, {"uniqueid": "MTK0909:3WYP994K18YWRA3CJVQUXOOGR7Q6YX", "current_trial": 229, "dateTime": 1512875409084, "trialdata": {"rt": -1, "stimulus": "<p id=\"stim\">WORLD</p>", "key_press": -1, "type": "PRES_VIS", "word": "world", "wordID": 1621, "conditions": [24, 1600, "v", 12000], "trial": 6, "serialpos": 16, "trial_type": "single-stim", "trial_index": 229, "time_elapsed": 1499784, "internal_node_id": "0.0-166.0"}}, {"uniqueid": "MTK0909:3WYP994K18YWRA3CJVQUXOOGR7Q6YX", "current_trial": 230, "dateTime": 1512875411799, "trialdata": {"rt": -1, "stimulus": "<p id=\"stim\">TUBA</p>", "key_press": -1, "type": "PRES_VIS", "word": "tuba", "wordID": 1514, "conditions": [24, 1600, "v", 12000], "trial": 6, "serialpos": 17, "trial_type": "single-stim", "trial_index": 230, "time_elapsed": 1502499, "internal_node_id": "0.0-167.0"}}, {"uniqueid": "MTK0909:3WYP994K18YWRA3CJVQUXOOGR7Q6YX", "current_trial": 231, "dateTime": 1512875414452, "trialdata": {"rt": -1, "stimulus": "<p id=\"stim\">FLOWER</p>", "key_press": -1, "type": "PRES_VIS", "word": "flower", "wordID": 583, "conditions": [24, 1600, "v", 12000], "trial": 6, "serialpos": 18, "trial_type": "single-stim", "trial_index": 231, "time_elapsed": 1505152, "internal_node_id": "0.0-168.0"}}, {"uniqueid": "MTK0909:3WYP994K18YWRA3CJVQUXOOGR7Q6YX", "current_trial": 232, "dateTime": 1512875416997, "trialdata": {"rt": -1, "stimulus": "<p id=\"stim\">STONE</p>", "key_press": -1, "type": "PRES_VIS", "word": "stone", "wordID": 1384, "conditions": [24, 1600, "v", 12000], "trial": 6, "serialpos": 19, "trial_type": "single-stim", "trial_index": 232, "time_elapsed": 1507697, "internal_node_id": "0.0-169.0"}}, {"uniqueid": "MTK0909:3WYP994K18YWRA3CJVQUXOOGR7Q6YX", "current_trial": 233, "dateTime": 1512875419750, "trialdata": {"rt": -1, "stimulus": "<p id=\"stim\">SHELTER</p>", "key_press": -1, "type": "PRES_VIS", "word": "shelter", "wordID": 1281, "conditions": [24, 1600, "v", 12000], "trial": 6, "serialpos": 20, "trial_type": "single-stim", "trial_index": 233, "time_elapsed": 1510451, "internal_node_id": "0.0-170.0"}}, {"uniqueid": "MTK0909:3WYP994K18YWRA3CJVQUXOOGR7Q6YX", "current_trial": 234, "dateTime": 1512875422313, "trialdata": {"rt": -1, "stimulus": "<p id=\"stim\">PIANO</p>", "key_press": -1, "type": "PRES_VIS", "word": "piano", "wordID": 1056, "conditions": [24, 1600, "v", 12000], "trial": 6, "serialpos": 21, "trial_type": "single-stim", "trial_index": 234, "time_elapsed": 1513013, "internal_node_id": "0.0-171.0"}}, {"uniqueid": "MTK0909:3WYP994K18YWRA3CJVQUXOOGR7Q6YX", "current_trial": 235, "dateTime": 1512875424949, "trialdata": {"rt": -1, "stimulus": "<p id=\"stim\">VIKING</p>", "key_press": -1, "type": "PRES_VIS", "word": "viking", "wordID": 1564, "conditions": [24, 1600, "v", 12000], "trial": 6, "serialpos": 22, "trial_type": "single-stim", "trial_index": 235, "time_elapsed": 1515649, "internal_node_id": "0.0-172.0"}}, {"uniqueid": "MTK0909:3WYP994K18YWRA3CJVQUXOOGR7Q6YX", "current_trial": 236, "dateTime": 1512875427680, "trialdata": {"rt": -1, "stimulus": "<p id=\"stim\">FREEZER</p>", "key_press": -1, "type": "PRES_VIS", "word": "freezer", "wordID": 603, "conditions": [24, 1600, "v", 12000], "trial": 6, "serialpos": 23, "trial_type": "single-stim", "trial_index": 236, "time_elapsed": 1518380, "internal_node_id": "0.0-173.0"}}, {"uniqueid": "MTK0909:3WYP994K18YWRA3CJVQUXOOGR7Q6YX", "current_trial": 237, "dateTime": 1512875430062, "trialdata": {"rt": -1, "stimulus": "", "key_press": -1, "type": "PRE_RECALL_DELAY", "trial_type": "single-stim", "trial_index": 237, "time_elapsed": 1520762, "internal_node_id": "0.0-174.0-0.0"}}, {"uniqueid": "MTK0909:3WYP994K18YWRA3CJVQUXOOGR7Q6YX", "current_trial": 238, "dateTime": 1512875430564, "trialdata": {"rt": -1000, "stimulus": "/static/audio/400Hz.wav", "key_press": -1, "type": "PRE_RECALL_ALERT", "trial_type": "single-audio", "trial_index": 238, "time_elapsed": 1521264, "internal_node_id": "0.0-175.0"}}, {"uniqueid": "MTK0909:3WYP994K18YWRA3CJVQUXOOGR7Q6YX", "current_trial": 239, "dateTime": 1512875490578, "trialdata": {"rt": [5890, 8914, 12354, 14960, 23949, 27795, 31667, 35936, 41550, 43161, 47884, 54110], "recwords": ["flower", "stone", "viking", "piano", "dragon", "lagoon", "robot", "arm", "lipstick", "eye", "eyelash", "skirt"], "type": "FREE_RECALL", "conditions": [24, 1600, "v", 12000], "trial": 6, "trial_type": "free-recall", "trial_index": 239, "time_elapsed": 1581270, "internal_node_id": "0.0-176.0-0.0"}}, {"uniqueid": "MTK0909:3WYP994K18YWRA3CJVQUXOOGR7Q6YX", "current_trial": 240, "dateTime": 1512875496277, "trialdata": {"rt": 3695, "key_press": 32, "type": "INSTRUCTIONS", "trial_type": "text", "trial_index": 240, "time_elapsed": 1586978, "internal_node_id": "0.0-177.0"}}, {"uniqueid": "MTK0909:3WYP994K18YWRA3CJVQUXOOGR7Q6YX", "current_trial": 241, "dateTime": 1512875510282, "trialdata": {"rt": [2917, 4778, 6847, 8725, 10183, 11701], "responses": ["19", "19", "12", "19", "14", "18"], "num1": [8, 5, 8, 9, 1, 8, 4], "num2": [3, 6, 3, 2, 7, 5, 4], "num3": [8, 8, 1, 8, 6, 5, 8], "type": "DISTRACTOR", "conditions": [12, 1600, "v", 12000], "trial": 7, "trial_type": "math-distractor", "trial_index": 241, "time_elapsed": 1600983, "internal_node_id": "0.0-178.0"}}, {"uniqueid": "MTK0909:3WYP994K18YWRA3CJVQUXOOGR7Q6YX", "current_trial": 242, "dateTime": 1512875513285, "trialdata": {"rt": -1, "stimulus": "<p id=\"stim\">10</p>", "key_press": -1, "trial_type": "single-stim", "trial_index": 242, "time_elapsed": 1603985, "internal_node_id": "0.0-179.0-0.0"}}, {"uniqueid": "MTK0909:3WYP994K18YWRA3CJVQUXOOGR7Q6YX", "current_trial": 243, "dateTime": 1512875514288, "trialdata": {"rt": -1, "stimulus": "<p id=\"stim\">9</p>", "key_press": -1, "trial_type": "single-stim", "trial_index": 243, "time_elapsed": 1604988, "internal_node_id": "0.0-179.0-1.0"}}, {"uniqueid": "MTK0909:3WYP994K18YWRA3CJVQUXOOGR7Q6YX", "current_trial": 244, "dateTime": 1512875515291, "trialdata": {"rt": -1, "stimulus": "<p id=\"stim\">8</p>", "key_press": -1, "trial_type": "single-stim", "trial_index": 244, "time_elapsed": 1605991, "internal_node_id": "0.0-179.0-2.0"}}, {"uniqueid": "MTK0909:3WYP994K18YWRA3CJVQUXOOGR7Q6YX", "current_trial": 245, "dateTime": 1512875516292, "trialdata": {"rt": -1, "stimulus": "<p id=\"stim\">7</p>", "key_press": -1, "trial_type": "single-stim", "trial_index": 245, "time_elapsed": 1606993, "internal_node_id": "0.0-179.0-3.0"}}, {"uniqueid": "MTK0909:3WYP994K18YWRA3CJVQUXOOGR7Q6YX", "current_trial": 246, "dateTime": 1512875517295, "trialdata": {"rt": -1, "stimulus": "<p id=\"stim\">6</p>", "key_press": -1, "trial_type": "single-stim", "trial_index": 246, "time_elapsed": 1607995, "internal_node_id": "0.0-179.0-4.0"}}, {"uniqueid": "MTK0909:3WYP994K18YWRA3CJVQUXOOGR7Q6YX", "current_trial": 247, "dateTime": 1512875518296, "trialdata": {"rt": -1, "stimulus": "<p id=\"stim\">5</p>", "key_press": -1, "trial_type": "single-stim", "trial_index": 247, "time_elapsed": 1608997, "internal_node_id": "0.0-179.0-5.0"}}, {"uniqueid": "MTK0909:3WYP994K18YWRA3CJVQUXOOGR7Q6YX", "current_trial": 248, "dateTime": 1512875519299, "trialdata": {"rt": -1, "stimulus": "<p id=\"stim\">4</p>", "key_press": -1, "trial_type": "single-stim", "trial_index": 248, "time_elapsed": 1609999, "internal_node_id": "0.0-179.0-6.0"}}, {"uniqueid": "MTK0909:3WYP994K18YWRA3CJVQUXOOGR7Q6YX", "current_trial": 249, "dateTime": 1512875520302, "trialdata": {"rt": -1, "stimulus": "<p id=\"stim\">3</p>", "key_press": -1, "trial_type": "single-stim", "trial_index": 249, "time_elapsed": 1611002, "internal_node_id": "0.0-179.0-7.0"}}, {"uniqueid": "MTK0909:3WYP994K18YWRA3CJVQUXOOGR7Q6YX", "current_trial": 250, "dateTime": 1512875521303, "trialdata": {"rt": -1, "stimulus": "<p id=\"stim\">2</p>", "key_press": -1, "trial_type": "single-stim", "trial_index": 250, "time_elapsed": 1612003, "internal_node_id": "0.0-179.0-8.0"}}, {"uniqueid": "MTK0909:3WYP994K18YWRA3CJVQUXOOGR7Q6YX", "current_trial": 251, "dateTime": 1512875522306, "trialdata": {"rt": -1, "stimulus": "<p id=\"stim\">1</p>", "key_press": -1, "trial_type": "single-stim", "trial_index": 251, "time_elapsed": 1613007, "internal_node_id": "0.0-179.0-9.0"}}, {"uniqueid": "MTK0909:3WYP994K18YWRA3CJVQUXOOGR7Q6YX", "current_trial": 252, "dateTime": 1512875523808, "trialdata": {"rt": -1, "stimulus": "<p id=\"stim\">+</p>", "key_press": -1, "type": "FIXATION", "trial_type": "single-stim", "trial_index": 252, "time_elapsed": 1614508, "internal_node_id": "0.0-180.0-0.0"}}, {"uniqueid": "MTK0909:3WYP994K18YWRA3CJVQUXOOGR7Q6YX", "current_trial": 253, "dateTime": 1512875525410, "trialdata": {"rt": -1, "stimulus": "<p id=\"stim\">HIGHWAY</p>", "key_press": -1, "type": "PRES_VIS", "word": "highway", "wordID": 706, "conditions": [12, 1600, "v", 12000], "trial": 7, "serialpos": 0, "trial_type": "single-stim", "trial_index": 253, "time_elapsed": 1616111, "internal_node_id": "0.0-181.0"}}, {"uniqueid": "MTK0909:3WYP994K18YWRA3CJVQUXOOGR7Q6YX", "current_trial": 254, "dateTime": 1512875527972, "trialdata": {"rt": -1, "stimulus": "<p id=\"stim\">PICNIC</p>", "key_press": -1, "type": "PRES_VIS", "word": "picnic", "wordID": 1059, "conditions": [12, 1600, "v", 12000], "trial": 7, "serialpos": 1, "trial_type": "single-stim", "trial_index": 254, "time_elapsed": 1618673, "internal_node_id": "0.0-182.0"}}, {"uniqueid": "MTK0909:3WYP994K18YWRA3CJVQUXOOGR7Q6YX", "current_trial": 255, "dateTime": 1512875530562, "trialdata": {"rt": -1, "stimulus": "<p id=\"stim\">FRUIT</p>", "key_press": -1, "type": "PRES_VIS", "word": "fruit", "wordID": 609, "conditions": [12, 1600, "v", 12000], "trial": 7, "serialpos": 2, "trial_type": "single-stim", "trial_index": 255, "time_elapsed": 1621262, "internal_node_id": "0.0-183.0"}}, {"uniqueid": "MTK0909:3WYP994K18YWRA3CJVQUXOOGR7Q6YX", "current_trial": 256, "dateTime": 1512875533059, "trialdata": {"rt": -1, "stimulus": "<p id=\"stim\">GARLIC</p>", "key_press": -1, "type": "PRES_VIS", "word": "garlic", "wordID": 623, "conditions": [12, 1600, "v", 12000], "trial": 7, "serialpos": 3, "trial_type": "single-stim", "trial_index": 256, "time_elapsed": 1623759, "internal_node_id": "0.0-184.0"}}, {"uniqueid": "MTK0909:3WYP994K18YWRA3CJVQUXOOGR7Q6YX", "current_trial": 257, "dateTime": 1512875535510, "trialdata": {"rt": -1, "stimulus": "<p id=\"stim\">RADISH</p>", "key_press": -1, "type": "PRES_VIS", "word": "radish", "wordID": 1157, "conditions": [12, 1600, "v", 12000], "trial": 7, "serialpos": 4, "trial_type": "single-stim", "trial_index": 257, "time_elapsed": 1626210, "internal_node_id": "0.0-185.0"}}, {"uniqueid": "MTK0909:3WYP994K18YWRA3CJVQUXOOGR7Q6YX", "current_trial": 258, "dateTime": 1512875538084, "trialdata": {"rt": -1, "stimulus": "<p id=\"stim\">VIRUS</p>", "key_press": -1, "type": "PRES_VIS", "word": "virus", "wordID": 1571, "conditions": [12, 1600, "v", 12000], "trial": 7, "serialpos": 5, "trial_type": "single-stim", "trial_index": 258, "time_elapsed": 1628784, "internal_node_id": "0.0-186.0"}}, {"uniqueid": "MTK0909:3WYP994K18YWRA3CJVQUXOOGR7Q6YX", "current_trial": 259, "dateTime": 1512875540688, "trialdata": {"rt": -1, "stimulus": "<p id=\"stim\">BELLY</p>", "key_press": -1, "type": "PRES_VIS", "word": "belly", "wordID": 118, "conditions": [12, 1600, "v", 12000], "trial": 7, "serialpos": 6, "trial_type": "single-stim", "trial_index": 259, "time_elapsed": 1631389, "internal_node_id": "0.0-187.0"}}, {"uniqueid": "MTK0909:3WYP994K18YWRA3CJVQUXOOGR7Q6YX", "current_trial": 260, "dateTime": 1512875543279, "trialdata": {"rt": -1, "stimulus": "<p id=\"stim\">SUPPER</p>", "key_press": -1, "type": "PRES_VIS", "word": "supper", "wordID": 1410, "conditions": [12, 1600, "v", 12000], "trial": 7, "serialpos": 7, "trial_type": "single-stim", "trial_index": 260, "time_elapsed": 1633979, "internal_node_id": "0.0-188.0"}}, {"uniqueid": "MTK0909:3WYP994K18YWRA3CJVQUXOOGR7Q6YX", "current_trial": 261, "dateTime": 1512875545868, "trialdata": {"rt": -1, "stimulus": "<p id=\"stim\">CLIMBER</p>", "key_press": -1, "type": "PRES_VIS", "word": "climber", "wordID": 322, "conditions": [12, 1600, "v", 12000], "trial": 7, "serialpos": 8, "trial_type": "single-stim", "trial_index": 261, "time_elapsed": 1636568, "internal_node_id": "0.0-189.0"}}, {"uniqueid": "MTK0909:3WYP994K18YWRA3CJVQUXOOGR7Q6YX", "current_trial": 262, "dateTime": 1512875548537, "trialdata": {"rt": -1, "stimulus": "<p id=\"stim\">SUNRISE</p>", "key_press": -1, "type": "PRES_VIS", "word": "sunrise", "wordID": 1406, "conditions": [12, 1600, "v", 12000], "trial": 7, "serialpos": 9, "trial_type": "single-stim", "trial_index": 262, "time_elapsed": 1639237, "internal_node_id": "0.0-190.0"}}, {"uniqueid": "MTK0909:3WYP994K18YWRA3CJVQUXOOGR7Q6YX", "current_trial": 263, "dateTime": 1512875550958, "trialdata": {"rt": -1, "stimulus": "<p id=\"stim\">SUMMIT</p>", "key_press": -1, "type": "PRES_VIS", "word": "summit", "wordID": 1404, "conditions": [12, 1600, "v", 12000], "trial": 7, "serialpos": 10, "trial_type": "single-stim", "trial_index": 263, "time_elapsed": 1641658, "internal_node_id": "0.0-191.0"}}, {"uniqueid": "MTK0909:3WYP994K18YWRA3CJVQUXOOGR7Q6YX", "current_trial": 264, "dateTime": 1512875553454, "trialdata": {"rt": -1, "stimulus": "<p id=\"stim\">GARBAGE</p>", "key_press": -1, "type": "PRES_VIS", "word": "garbage", "wordID": 621, "conditions": [12, 1600, "v", 12000], "trial": 7, "serialpos": 11, "trial_type": "single-stim", "trial_index": 264, "time_elapsed": 1644154, "internal_node_id": "0.0-192.0"}}, {"uniqueid": "MTK0909:3WYP994K18YWRA3CJVQUXOOGR7Q6YX", "current_trial": 265, "dateTime": 1512875555645, "trialdata": {"rt": -1, "stimulus": "", "key_press": -1, "type": "PRE_RECALL_DELAY", "trial_type": "single-stim", "trial_index": 265, "time_elapsed": 1646346, "internal_node_id": "0.0-193.0-0.0"}}, {"uniqueid": "MTK0909:3WYP994K18YWRA3CJVQUXOOGR7Q6YX", "current_trial": 266, "dateTime": 1512875556147, "trialdata": {"rt": -1000, "stimulus": "/static/audio/400Hz.wav", "key_press": -1, "type": "PRE_RECALL_ALERT", "trial_type": "single-audio", "trial_index": 266, "time_elapsed": 1646847, "internal_node_id": "0.0-194.0"}}, {"uniqueid": "MTK0909:3WYP994K18YWRA3CJVQUXOOGR7Q6YX", "current_trial": 267, "dateTime": 1512875616158, "trialdata": {"rt": [6959, 10936, 14043, 17161, 21450, 24546, 28024, 31749, 35504, 38532, 41484, 48896], "recwords": ["highway", "picnic", "fruit", "garlic", "radish", "virus", "belly", "supper", "climber", "sunrise", "summit", "garbage"], "type": "FREE_RECALL", "conditions": [12, 1600, "v", 12000], "trial": 7, "trial_type": "free-recall", "trial_index": 267, "time_elapsed": 1706852, "internal_node_id": "0.0-195.0-0.0"}}, {"uniqueid": "MTK0909:3WYP994K18YWRA3CJVQUXOOGR7Q6YX", "current_trial": 268, "dateTime": 1512875627040, "trialdata": {"rt": 8879, "key_press": 13, "type": "INSTRUCTIONS", "trial_type": "text", "trial_index": 268, "time_elapsed": 1717741, "internal_node_id": "0.0-196.0"}}, {"uniqueid": "MTK0909:3WYP994K18YWRA3CJVQUXOOGR7Q6YX", "current_trial": 269, "dateTime": 1512875641045, "trialdata": {"rt": [1448, 3025, 4520, 6014, 8767, 10634, 11877], "responses": ["7", "19", "15", "16", "21", "19", "7"], "num1": [4, 5, 7, 6, 8, 3, 1, 5], "num2": [2, 5, 1, 4, 9, 9, 4, 6], "num3": [1, 9, 7, 6, 4, 7, 2, 8], "type": "DISTRACTOR", "conditions": [12, 1600, "a", 12000], "trial": 8, "trial_type": "math-distractor", "trial_index": 269, "time_elapsed": 1731746, "internal_node_id": "0.0-197.0"}}, {"uniqueid": "MTK0909:3WYP994K18YWRA3CJVQUXOOGR7Q6YX", "current_trial": 270, "dateTime": 1512875644049, "trialdata": {"rt": -1, "stimulus": "<p id=\"stim\">10</p>", "key_press": -1, "trial_type": "single-stim", "trial_index": 270, "time_elapsed": 1734749, "internal_node_id": "0.0-198.0-0.0"}}, {"u