{"condition": 0, "counterbalance": 688, "assignmentId": "39O5D9O87UZKROFP41A7TUKDAZM3C6", "workerId": "MTK0081", "hitId": "322ZSN9Z5GRK8H2A0Z5E3PG3Z3I4TN", "currenttrial": 623, "bonus": 0, "data": [{"uniqueid": "MTK0081:39O5D9O87UZKROFP41A7TUKDAZM3C6", "current_trial": 0, "dateTime": 1509131374355, "trialdata": {"rt": 15441, "key_press": 32, "type": "INSTRUCTIONS", "trial_type": "text", "trial_index": 0, "time_elapsed": 15444, "internal_node_id": "0.0-0.0"}}, {"uniqueid": "MTK0081:39O5D9O87UZKROFP41A7TUKDAZM3C6", "current_trial": 1, "dateTime": 1509131651068, "trialdata": {"rt": 276711, "key_press": 175, "type": "INSTRUCTIONS", "trial_type": "text", "trial_index": 1, "time_elapsed": 292159, "internal_node_id": "0.0-1.0"}}, {"uniqueid": "MTK0081:39O5D9O87UZKROFP41A7TUKDAZM3C6", "current_trial": 2, "dateTime": 1509131657378, "trialdata": {"rt": [6296], "responses": ["ocean"], "type": "AUDIO_TEST", "trial_type": "audio-test", "trial_index": 2, "time_elapsed": 298469, "internal_node_id": "0.0-2.0"}}, {"uniqueid": "MTK0081:39O5D9O87UZKROFP41A7TUKDAZM3C6", "current_trial": 3, "dateTime": 1509131663365, "trialdata": {"rt": [5983], "responses": ["crystal"], "type": "AUDIO_TEST", "trial_type": "audio-test", "trial_index": 3, "time_elapsed": 304456, "internal_node_id": "0.0-3.0"}}, {"uniqueid": "MTK0081:39O5D9O87UZKROFP41A7TUKDAZM3C6", "current_trial": 4, "dateTime": 1509131670710, "trialdata": {"rt": [7342], "responses": ["spice"], "type": "AUDIO_TEST", "trial_type": "audio-test", "trial_index": 4, "time_elapsed": 311801, "internal_node_id": "0.0-4.0"}}, {"uniqueid": "MTK0081:39O5D9O87UZKROFP41A7TUKDAZM3C6", "current_trial": 5, "dateTime": 1509131729281, "trialdata": {"rt": 57819, "key_press": 32, "type": "INSTRUCTIONS", "trial_type": "text", "trial_index": 5, "time_elapsed": 370372, "internal_node_id": "0.0-5.0"}}, {"uniqueid": "MTK0081:39O5D9O87UZKROFP41A7TUKDAZM3C6", "current_trial": 6, "dateTime": 1509132619843, "trialdata": {"rt": 890560, "key_press": 32, "type": "INSTRUCTIONS", "trial_type": "text", "trial_index": 6, "time_elapsed": 1260934, "internal_node_id": "0.0-6.0"}}, {"uniqueid": "MTK0081:39O5D9O87UZKROFP41A7TUKDAZM3C6", "current_trial": 7, "dateTime": 1509132832450, "trialdata": {"rt": 212607, "key_press": 13, "type": "INSTRUCTIONS", "trial_type": "text", "trial_index": 7, "time_elapsed": 1473541, "internal_node_id": "0.0-7.0"}}, {"uniqueid": "MTK0081:39O5D9O87UZKROFP41A7TUKDAZM3C6", "current_trial": 8, "dateTime": 1509132836269, "trialdata": {"rt": 3819, "key_press": 13, "type": "INSTRUCTIONS", "trial_type": "text", "trial_index": 8, "time_elapsed": 1477360, "internal_node_id": "0.0-8.0"}}, {"uniqueid": "MTK0081:39O5D9O87UZKROFP41A7TUKDAZM3C6", "current_trial": 9, "dateTime": 1509132855281, "trialdata": {"rt": [9115, 11408, 14659, 17699], "responses": ["13", "13", "10", "10"], "num1": [6, 3, 2, 5, 1], "num2": [5, 7, 5, 2, 3], "num3": [3, 3, 3, 3, 1], "type": "DISTRACTOR", "conditions": [18, 1200, "v", 18000], "trial": 0, "trial_type": "math-distractor", "trial_index": 9, "time_elapsed": 1496371, "internal_node_id": "0.0-9.0"}}, {"uniqueid": "MTK0081:39O5D9O87UZKROFP41A7TUKDAZM3C6", "current_trial": 10, "dateTime": 1509132858286, "trialdata": {"rt": -1, "stimulus": "<p id=\"stim\">10</p>", "key_press": -1, "trial_type": "single-stim", "trial_index": 10, "time_elapsed": 1499377, "internal_node_id": "0.0-10.0-0.0"}}, {"uniqueid": "MTK0081:39O5D9O87UZKROFP41A7TUKDAZM3C6", "current_trial": 11, "dateTime": 1509132859289, "trialdata": {"rt": -1, "stimulus": "<p id=\"stim\">9</p>", "key_press": -1, "trial_type": "single-stim", "trial_index": 11, "time_elapsed": 1500379, "internal_node_id": "0.0-10.0-1.0"}}, {"uniqueid": "MTK0081:39O5D9O87UZKROFP41A7TUKDAZM3C6", "current_trial": 12, "dateTime": 1509132860290, "trialdata": {"rt": -1, "stimulus": "<p id=\"stim\">8</p>", "key_press": -1, "trial_type": "single-stim", "trial_index": 12, "time_elapsed": 1501380, "internal_node_id": "0.0-10.0-2.0"}}, {"uniqueid": "MTK0081:39O5D9O87UZKROFP41A7TUKDAZM3C6", "current_trial": 13, "dateTime": 1509132861292, "trialdata": {"rt": -1, "stimulus": "<p id=\"stim\">7</p>", "key_press": -1, "trial_type": "single-stim", "trial_index": 13, "time_elapsed": 1502382, "internal_node_id": "0.0-10.0-3.0"}}, {"uniqueid": "MTK0081:39O5D9O87UZKROFP41A7TUKDAZM3C6", "current_trial": 14, "dateTime": 1509132862295, "trialdata": {"rt": -1, "stimulus": "<p id=\"stim\">6</p>", "key_press": -1, "trial_type": "single-stim", "trial_index": 14, "time_elapsed": 1503385, "internal_node_id": "0.0-10.0-4.0"}}, {"uniqueid": "MTK0081:39O5D9O87UZKROFP41A7TUKDAZM3C6", "current_trial": 15, "dateTime": 1509132863295, "trialdata": {"rt": -1, "stimulus": "<p id=\"stim\">5</p>", "key_press": -1, "trial_type": "single-stim", "trial_index": 15, "time_elapsed": 1504386, "internal_node_id": "0.0-10.0-5.0"}}, {"uniqueid": "MTK0081:39O5D9O87UZKROFP41A7TUKDAZM3C6", "current_trial": 16, "dateTime": 1509132864297, "trialdata": {"rt": -1, "stimulus": "<p id=\"stim\">4</p>", "key_press": -1, "trial_type": "single-stim", "trial_index": 16, "time_elapsed": 1505388, "internal_node_id": "0.0-10.0-6.0"}}, {"uniqueid": "MTK0081:39O5D9O87UZKROFP41A7TUKDAZM3C6", "current_trial": 17, "dateTime": 1509132865300, "trialdata": {"rt": -1, "stimulus": "<p id=\"stim\">3</p>", "key_press": -1, "trial_type": "single-stim", "trial_index": 17, "time_elapsed": 1506391, "internal_node_id": "0.0-10.0-7.0"}}, {"uniqueid": "MTK0081:39O5D9O87UZKROFP41A7TUKDAZM3C6", "current_trial": 18, "dateTime": 1509132866301, "trialdata": {"rt": -1, "stimulus": "<p id=\"stim\">2</p>", "key_press": -1, "trial_type": "single-stim", "trial_index": 18, "time_elapsed": 1507392, "internal_node_id": "0.0-10.0-8.0"}}, {"uniqueid": "MTK0081:39O5D9O87UZKROFP41A7TUKDAZM3C6", "current_trial": 19, "dateTime": 1509132867303, "trialdata": {"rt": -1, "stimulus": "<p id=\"stim\">1</p>", "key_press": -1, "trial_type": "single-stim", "trial_index": 19, "time_elapsed": 1508394, "internal_node_id": "0.0-10.0-9.0"}}, {"uniqueid": "MTK0081:39O5D9O87UZKROFP41A7TUKDAZM3C6", "current_trial": 20, "dateTime": 1509132868805, "trialdata": {"rt": -1, "stimulus": "<p id=\"stim\">+</p>", "key_press": -1, "type": "FIXATION", "trial_type": "single-stim", "trial_index": 20, "time_elapsed": 1509896, "internal_node_id": "0.0-11.0-0.0"}}, {"uniqueid": "MTK0081:39O5D9O87UZKROFP41A7TUKDAZM3C6", "current_trial": 21, "dateTime": 1509132870009, "trialdata": {"rt": -1, "stimulus": "<p id=\"stim\">DONOR</p>", "key_press": -1, "type": "PRES_VIS", "word": "donor", "wordID": 484, "conditions": [18, 1200, "v", 18000], "trial": 0, "serialpos": 0, "trial_type": "single-stim", "trial_index": 21, "time_elapsed": 1511100, "internal_node_id": "0.0-12.0"}}, {"uniqueid": "MTK0081:39O5D9O87UZKROFP41A7TUKDAZM3C6", "current_trial": 22, "dateTime": 1509132872369, "trialdata": {"rt": -1, "stimulus": "<p id=\"stim\">SPACE</p>", "key_press": -1, "type": "PRES_VIS", "word": "space", "wordID": 1344, "conditions": [18, 1200, "v", 18000], "trial": 0, "serialpos": 1, "trial_type": "single-stim", "trial_index": 22, "time_elapsed": 1513459, "internal_node_id": "0.0-13.0"}}, {"uniqueid": "MTK0081:39O5D9O87UZKROFP41A7TUKDAZM3C6", "current_trial": 23, "dateTime": 1509132874586, "trialdata": {"rt": -1, "stimulus": "<p id=\"stim\">LAVA</p>", "key_press": -1, "type": "PRES_VIS", "word": "lava", "wordID": 803, "conditions": [18, 1200, "v", 18000], "trial": 0, "serialpos": 2, "trial_type": "single-stim", "trial_index": 23, "time_elapsed": 1515677, "internal_node_id": "0.0-14.0"}}, {"uniqueid": "MTK0081:39O5D9O87UZKROFP41A7TUKDAZM3C6", "current_trial": 24, "dateTime": 1509132876867, "trialdata": {"rt": -1, "stimulus": "<p id=\"stim\">PUPPY</p>", "key_press": -1, "type": "PRES_VIS", "word": "puppy", "wordID": 1143, "conditions": [18, 1200, "v", 18000], "trial": 0, "serialpos": 3, "trial_type": "single-stim", "trial_index": 24, "time_elapsed": 1517958, "internal_node_id": "0.0-15.0"}}, {"uniqueid": "MTK0081:39O5D9O87UZKROFP41A7TUKDAZM3C6", "current_trial": 25, "dateTime": 1509132879068, "trialdata": {"rt": -1, "stimulus": "<p id=\"stim\">DIME</p>", "key_press": -1, "type": "PRES_VIS", "word": "dime", "wordID": 465, "conditions": [18, 1200, "v", 18000], "trial": 0, "serialpos": 4, "trial_type": "single-stim", "trial_index": 25, "time_elapsed": 1520159, "internal_node_id": "0.0-16.0"}}, {"uniqueid": "MTK0081:39O5D9O87UZKROFP41A7TUKDAZM3C6", "current_trial": 26, "dateTime": 1509132881156, "trialdata": {"rt": -1, "stimulus": "<p id=\"stim\">WIFE</p>", "key_press": -1, "type": "PRES_VIS", "word": "wife", "wordID": 1608, "conditions": [18, 1200, "v", 18000], "trial": 0, "serialpos": 5, "trial_type": "single-stim", "trial_index": 26, "time_elapsed": 1522246, "internal_node_id": "0.0-17.0"}}, {"uniqueid": "MTK0081:39O5D9O87UZKROFP41A7TUKDAZM3C6", "current_trial": 27, "dateTime": 1509132883323, "trialdata": {"rt": -1, "stimulus": "<p id=\"stim\">ROD</p>", "key_press": -1, "type": "PRES_VIS", "word": "rod", "wordID": 1202, "conditions": [18, 1200, "v", 18000], "trial": 0, "serialpos": 6, "trial_type": "single-stim", "trial_index": 27, "time_elapsed": 1524414, "internal_node_id": "0.0-18.0"}}, {"uniqueid": "MTK0081:39O5D9O87UZKROFP41A7TUKDAZM3C6", "current_trial": 28, "dateTime": 1509132885655, "trialdata": {"rt": -1, "stimulus": "<p id=\"stim\">RABBIT</p>", "key_press": -1, "type": "PRES_VIS", "word": "rabbit", "wordID": 1151, "conditions": [18, 1200, "v", 18000], "trial": 0, "serialpos": 7, "trial_type": "single-stim", "trial_index": 28, "time_elapsed": 1526745, "internal_node_id": "0.0-19.0"}}, {"uniqueid": "MTK0081:39O5D9O87UZKROFP41A7TUKDAZM3C6", "current_trial": 29, "dateTime": 1509132888015, "trialdata": {"rt": -1, "stimulus": "<p id=\"stim\">GALLON</p>", "key_press": -1, "type": "PRES_VIS", "word": "gallon", "wordID": 617, "conditions": [18, 1200, "v", 18000], "trial": 0, "serialpos": 8, "trial_type": "single-stim", "trial_index": 29, "time_elapsed": 1529106, "internal_node_id": "0.0-20.0"}}, {"uniqueid": "MTK0081:39O5D9O87UZKROFP41A7TUKDAZM3C6", "current_trial": 30, "dateTime": 1509132890049, "trialdata": {"rt": -1, "stimulus": "<p id=\"stim\">CHURCH</p>", "key_press": -1, "type": "PRES_VIS", "word": "church", "wordID": 306, "conditions": [18, 1200, "v", 18000], "trial": 0, "serialpos": 9, "trial_type": "single-stim", "trial_index": 30, "time_elapsed": 1531140, "internal_node_id": "0.0-21.0"}}, {"uniqueid": "MTK0081:39O5D9O87UZKROFP41A7TUKDAZM3C6", "current_trial": 31, "dateTime": 1509132892316, "trialdata": {"rt": -1, "stimulus": "<p id=\"stim\">FRAGRANCE</p>", "key_press": -1, "type": "PRES_VIS", "word": "fragrance", "wordID": 598, "conditions": [18, 1200, "v", 18000], "trial": 0, "serialpos": 10, "trial_type": "single-stim", "trial_index": 31, "time_elapsed": 1533407, "internal_node_id": "0.0-22.0"}}, {"uniqueid": "MTK0081:39O5D9O87UZKROFP41A7TUKDAZM3C6", "current_trial": 32, "dateTime": 1509132894500, "trialdata": {"rt": -1, "stimulus": "<p id=\"stim\">TABLE</p>", "key_press": -1, "type": "PRES_VIS", "word": "table", "wordID": 1425, "conditions": [18, 1200, "v", 18000], "trial": 0, "serialpos": 11, "trial_type": "single-stim", "trial_index": 32, "time_elapsed": 1535591, "internal_node_id": "0.0-23.0"}}, {"uniqueid": "MTK0081:39O5D9O87UZKROFP41A7TUKDAZM3C6", "current_trial": 33, "dateTime": 1509132896515, "trialdata": {"rt": -1, "stimulus": "<p id=\"stim\">COFFEE</p>", "key_press": -1, "type": "PRES_VIS", "word": "coffee", "wordID": 340, "conditions": [18, 1200, "v", 18000], "trial": 0, "serialpos": 12, "trial_type": "single-stim", "trial_index": 33, "time_elapsed": 1537606, "internal_node_id": "0.0-24.0"}}, {"uniqueid": "MTK0081:39O5D9O87UZKROFP41A7TUKDAZM3C6", "current_trial": 34, "dateTime": 1509132898705, "trialdata": {"rt": -1, "stimulus": "<p id=\"stim\">TART</p>", "key_press": -1, "type": "PRES_VIS", "word": "tart", "wordID": 1435, "conditions": [18, 1200, "v", 18000], "trial": 0, "serialpos": 13, "trial_type": "single-stim", "trial_index": 34, "time_elapsed": 1539795, "internal_node_id": "0.0-25.0"}}, {"uniqueid": "MTK0081:39O5D9O87UZKROFP41A7TUKDAZM3C6", "current_trial": 35, "dateTime": 1509132900859, "trialdata": {"rt": -1, "stimulus": "<p id=\"stim\">KLEENEX</p>", "key_press": -1, "type": "PRES_VIS", "word": "kleenex", "wordID": 781, "conditions": [18, 1200, "v", 18000], "trial": 0, "serialpos": 14, "trial_type": "single-stim", "trial_index": 35, "time_elapsed": 1541949, "internal_node_id": "0.0-26.0"}}, {"uniqueid": "MTK0081:39O5D9O87UZKROFP41A7TUKDAZM3C6", "current_trial": 36, "dateTime": 1509132902930, "trialdata": {"rt": -1, "stimulus": "<p id=\"stim\">CLOTHES</p>", "key_press": -1, "type": "PRES_VIS", "word": "clothes", "wordID": 326, "conditions": [18, 1200, "v", 18000], "trial": 0, "serialpos": 15, "trial_type": "single-stim", "trial_index": 36, "time_elapsed": 1544020, "internal_node_id": "0.0-27.0"}}, {"uniqueid": "MTK0081:39O5D9O87UZKROFP41A7TUKDAZM3C6", "current_trial": 37, "dateTime": 1509132905235, "trialdata": {"rt": -1, "stimulus": "<p id=\"stim\">CREATURE</p>", "key_press": -1, "type": "PRES_VIS", "word": "creature", "wordID": 402, "conditions": [18, 1200, "v", 18000], "trial": 0, "serialpos": 16, "trial_type": "single-stim", "trial_index": 37, "time_elapsed": 1546325, "internal_node_id": "0.0-28.0"}}, {"uniqueid": "MTK0081:39O5D9O87UZKROFP41A7TUKDAZM3C6", "current_trial": 38, "dateTime": 1509132907569, "trialdata": {"rt": -1, "stimulus": "<p id=\"stim\">TERMITE</p>", "key_press": -1, "type": "PRES_VIS", "word": "termite", "wordID": 1450, "conditions": [18, 1200, "v", 18000], "trial": 0, "serialpos": 17, "trial_type": "single-stim", "trial_index": 38, "time_elapsed": 1548660, "internal_node_id": "0.0-29.0"}}, {"uniqueid": "MTK0081:39O5D9O87UZKROFP41A7TUKDAZM3C6", "current_trial": 39, "dateTime": 1509132909731, "trialdata": {"rt": -1, "stimulus": "", "key_press": -1, "type": "PRE_RECALL_DELAY", "trial_type": "single-stim", "trial_index": 39, "time_elapsed": 1550821, "internal_node_id": "0.0-30.0-0.0"}}, {"uniqueid": "MTK0081:39O5D9O87UZKROFP41A7TUKDAZM3C6", "current_trial": 40, "dateTime": 1509132910240, "trialdata": {"rt": -1000, "stimulus": "/static/audio/400Hz.wav", "key_press": -1, "type": "PRE_RECALL_ALERT", "trial_type": "single-audio", "trial_index": 40, "time_elapsed": 1551330, "internal_node_id": "0.0-31.0"}}, {"uniqueid": "MTK0081:39O5D9O87UZKROFP41A7TUKDAZM3C6", "current_trial": 41, "dateTime": 1509132970244, "trialdata": {"rt": [2502, 4396, 5812, 6967, 8941, 10511, 49689], "recwords": ["termite", "puppy", "donor", "space", "rod", "table", "tennos"], "type": "FREE_RECALL", "conditions": [18, 1200, "v", 18000], "trial": 0, "trial_type": "free-recall", "trial_index": 41, "time_elapsed": 1611334, "internal_node_id": "0.0-32.0-0.0"}}, {"uniqueid": "MTK0081:39O5D9O87UZKROFP41A7TUKDAZM3C6", "current_trial": 42, "dateTime": 1509133097271, "trialdata": {"rt": 125024, "key_press": 32, "type": "INSTRUCTIONS", "trial_type": "text", "trial_index": 42, "time_elapsed": 1738362, "internal_node_id": "0.0-33.0"}}, {"uniqueid": "MTK0081:39O5D9O87UZKROFP41A7TUKDAZM3C6", "current_trial": 43, "dateTime": 1509133117275, "trialdata": {"rt": [2824, 5959, 8429, 8632, 12890, 14837, 17123], "responses": ["8", "20", "20", "", "13", "9", "8"], "num1": [2, 9, 6, 5, 8, 2, 4, 9], "num2": [5, 8, 5, 2, 3, 6, 2, 9], "num3": [1, 3, 9, 4, 2, 1, 2, 7], "type": "DISTRACTOR", "conditions": [18, 1200, "a", 18000], "trial": 1, "trial_type": "math-distractor", "trial_index": 43, "time_elapsed": 1758365, "internal_node_id": "0.0-34.0"}}, {"uniqueid": "MTK0081:39O5D9O87UZKROFP41A7TUKDAZM3C6", "current_trial": 44, "dateTime": 1509133120276, "trialdata": {"rt": -1, "stimulus": "<p id=\"stim\">10</p>", "key_press": -1, "trial_type": "single-stim", "trial_index": 44, "time_elapsed": 1761367, "internal_node_id": "0.0-35.0-0.0"}}, {"uniqueid": "MTK0081:39O5D9O87UZKROFP41A7TUKDAZM3C6", "current_trial": 45, "dateTime": 1509133121279, "trialdata": {"rt": -1, "stimulus": "<p id=\"stim\">9</p>", "key_press": -1, "trial_type": "single-stim", "trial_index": 45, "time_elapsed": 1762370, "internal_node_id": "0.0-35.0-1.0"}}, {"uniqueid": "MTK0081:39O5D9O87UZKROFP41A7TUKDAZM3C6", "current_trial": 46, "dateTime": 1509133122281, "trialdata": {"rt": -1, "stimulus": "<p id=\"stim\">8</p>", "key_press": -1, "trial_type": "single-stim", "trial_index": 46, "time_elapsed": 1763371, "internal_node_id": "0.0-35.0-2.0"}}, {"uniqueid": "MTK0081:39O5D9O87UZKROFP41A7TUKDAZM3C6", "current_trial": 47, "dateTime": 1509133123282, "trialdata": {"rt": -1, "stimulus": "<p id=\"stim\">7</p>", "key_press": -1, "trial_type": "single-stim", "trial_index": 47, "time_elapsed": 1764373, "internal_node_id": "0.0-35.0-3.0"}}, {"uniqueid": "MTK0081:39O5D9O87UZKROFP41A7TUKDAZM3C6", "current_trial": 48, "dateTime": 1509133124284, "trialdata": {"rt": -1, "stimulus": "<p id=\"stim\">6</p>", "key_press": -1, "trial_type": "single-stim", "trial_index": 48, "time_elapsed": 1765374, "internal_node_id": "0.0-35.0-4.0"}}, {"uniqueid": "MTK0081:39O5D9O87UZKROFP41A7TUKDAZM3C6", "current_trial": 49, "dateTime": 1509133125288, "trialdata": {"rt": -1, "stimulus": "<p id=\"stim\">5</p>", "key_press": -1, "trial_type": "single-stim", "trial_index": 49, "time_elapsed": 1766379, "internal_node_id": "0.0-35.0-5.0"}}, {"uniqueid": "MTK0081:39O5D9O87UZKROFP41A7TUKDAZM3C6", "current_trial": 50, "dateTime": 1509133126292, "trialdata": {"rt": -1, "stimulus": "<p id=\"stim\">4</p>", "key_press": -1, "trial_type": "single-stim", "trial_index": 50, "time_elapsed": 1767383, "internal_node_id": "0.0-35.0-6.0"}}, {"uniqueid": "MTK0081:39O5D9O87UZKROFP41A7TUKDAZM3C6", "current_trial": 51, "dateTime": 1509133127294, "trialdata": {"rt": -1, "stimulus": "<p id=\"stim\">3</p>", "key_press": -1, "trial_type": "single-stim", "trial_index": 51, "time_elapsed": 1768385, "internal_node_id": "0.0-35.0-7.0"}}, {"uniqueid": "MTK0081:39O5D9O87UZKROFP41A7TUKDAZM3C6", "current_trial": 52, "dateTime": 1509133128296, "trialdata": {"rt": -1, "stimulus": "<p id=\"stim\">2</p>", "key_press": -1, "trial_type": "single-stim", "trial_index": 52, "time_elapsed": 1769386, "internal_node_id": "0.0-35.0-8.0"}}, {"uniqueid": "MTK0081:39O5D9O87UZKROFP41A7TUKDAZM3C6", "current_trial": 53, "dateTime": 1509133129297, "trialdata": {"rt": -1, "stimulus": "<p id=\"stim\">1</p>", "key_press": -1, "trial_type": "single-stim", "trial_index": 53, "time_elapsed": 1770388, "internal_node_id": "0.0-35.0-9.0"}}, {"uniqueid": "MTK0081:39O5D9O87UZKROFP41A7TUKDAZM3C6", "current_trial": 54, "dateTime": 1509133130799, "trialdata": {"rt": -1, "stimulus": "<p id=\"stim\">+</p>", "key_press": -1, "type": "FIXATION", "trial_type": "single-stim", "trial_index": 54, "time_elapsed": 1771889, "internal_node_id": "0.0-36.0-0.0"}}, {"uniqueid": "MTK0081:39O5D9O87UZKROFP41A7TUKDAZM3C6", "current_trial": 55, "dateTime": 1509133133123, "trialdata": {"rt": -1000, "stimulus": "/static/audio/wordpool/GROUND.wav", "key_press": -1, "type": "PRES_AUD", "word": "ground", "wordID": 665, "conditions": [18, 1200, "a", 18000], "trial": 1, "serialpos": 0, "trial_type": "single-audio", "trial_index": 55, "time_elapsed": 1774214, "internal_node_id": "0.0-37.0"}}, {"uniqueid": "MTK0081:39O5D9O87UZKROFP41A7TUKDAZM3C6", "current_trial": 56, "dateTime": 1509133135276, "trialdata": {"rt": -1000, "stimulus": "/static/audio/wordpool/CAFE.wav", "key_press": -1, "type": "PRES_AUD", "word": "cafe", "wordID": 215, "conditions": [18, 1200, "a", 18000], "trial": 1, "serialpos": 1, "trial_type": "single-audio", "trial_index": 56, "time_elapsed": 1776366, "internal_node_id": "0.0-38.0"}}, {"uniqueid": "MTK0081:39O5D9O87UZKROFP41A7TUKDAZM3C6", "current_trial": 57, "dateTime": 1509133137317, "trialdata": {"rt": -1000, "stimulus": "/static/audio/wordpool/INMATE.wav", "key_press": -1, "type": "PRES_AUD", "word": "inmate", "wordID": 737, "conditions": [18, 1200, "a", 18000], "trial": 1, "serialpos": 2, "trial_type": "single-audio", "trial_index": 57, "time_elapsed": 1778407, "internal_node_id": "0.0-39.0"}}, {"uniqueid": "MTK0081:39O5D9O87UZKROFP41A7TUKDAZM3C6", "current_trial": 58, "dateTime": 1509133139480, "trialdata": {"rt": -1000, "stimulus": "/static/audio/wordpool/SCISSORS.wav", "key_press": -1, "type": "PRES_AUD", "word": "scissors", "wordID": 1249, "conditions": [18, 1200, "a", 18000], "trial": 1, "serialpos": 3, "trial_type": "single-audio", "trial_index": 58, "time_elapsed": 1780571, "internal_node_id": "0.0-40.0"}}, {"uniqueid": "MTK0081:39O5D9O87UZKROFP41A7TUKDAZM3C6", "current_trial": 59, "dateTime": 1509133141583, "trialdata": {"rt": -1000, "stimulus": "/static/audio/wordpool/JAPAN.wav", "key_press": -1, "type": "PRES_AUD", "word": "japan", "wordID": 748, "conditions": [18, 1200, "a", 18000], "trial": 1, "serialpos": 4, "trial_type": "single-audio", "trial_index": 59, "time_elapsed": 1782674, "internal_node_id": "0.0-41.0"}}, {"uniqueid": "MTK0081:39O5D9O87UZKROFP41A7TUKDAZM3C6", "current_trial": 60, "dateTime": 1509133143817, "trialdata": {"rt": -1000, "stimulus": "/static/audio/wordpool/PLAID.wav", "key_press": -1, "type": "PRES_AUD", "word": "plaid", "wordID": 1079, "conditions": [18, 1200, "a", 18000], "trial": 1, "serialpos": 5, "trial_type": "single-audio", "trial_index": 60, "time_elapsed": 1784908, "internal_node_id": "0.0-42.0"}}, {"uniqueid": "MTK0081:39O5D9O87UZKROFP41A7TUKDAZM3C6", "current_trial": 61, "dateTime": 1509133145952, "trialdata": {"rt": -1000, "stimulus": "/static/audio/wordpool/BUTCHER.wav", "key_press": -1, "type": "PRES_AUD", "word": "butcher", "wordID": 202, "conditions": [18, 1200, "a", 18000], "trial": 1, "serialpos": 6, "trial_type": "single-audio", "trial_index": 61, "time_elapsed": 1787042, "internal_node_id": "0.0-43.0"}}, {"uniqueid": "MTK0081:39O5D9O87UZKROFP41A7TUKDAZM3C6", "current_trial": 62, "dateTime": 1509133148146, "trialdata": {"rt": -1000, "stimulus": "/static/audio/wordpool/MISSILE.wav", "key_press": -1, "type": "PRES_AUD", "word": "missile", "wordID": 899, "conditions": [18, 1200, "a", 18000], "trial": 1, "serialpos": 7, "trial_type": "single-audio", "trial_index": 62, "time_elapsed": 1789237, "internal_node_id": "0.0-44.0"}}, {"uniqueid": "MTK0081:39O5D9O87UZKROFP41A7TUKDAZM3C6", "current_trial": 63, "dateTime": 1509133150153, "trialdata": {"rt": -1000, "stimulus": "/static/audio/wordpool/DRESS.wav", "key_press": -1, "type": "PRES_AUD", "word": "dress", "wordID": 494, "conditions": [18, 1200, "a", 18000], "trial": 1, "serialpos": 8, "trial_type": "single-audio", "trial_index": 63, "time_elapsed": 1791244, "internal_node_id": "0.0-45.0"}}, {"uniqueid": "MTK0081:39O5D9O87UZKROFP41A7TUKDAZM3C6", "current_trial": 64, "dateTime": 1509133152230, "trialdata": {"rt": -1000, "stimulus": "/static/audio/wordpool/PLAYGROUND.wav", "key_press": -1, "type": "PRES_AUD", "word": "playground", "wordID": 1086, "conditions": [18, 1200, "a", 18000], "trial": 1, "serialpos": 9, "trial_type": "single-audio", "trial_index": 64, "time_elapsed": 1793321, "internal_node_id": "0.0-46.0"}}, {"uniqueid": "MTK0081:39O5D9O87UZKROFP41A7TUKDAZM3C6", "current_trial": 65, "dateTime": 1509133154491, "trialdata": {"rt": -1000, "stimulus": "/static/audio/wordpool/ONION.wav", "key_press": -1, "type": "PRES_AUD", "word": "onion", "wordID": 976, "conditions": [18, 1200, "a", 18000], "trial": 1, "serialpos": 10, "trial_type": "single-audio", "trial_index": 65, "time_elapsed": 1795581, "internal_node_id": "0.0-47.0"}}, {"uniqueid": "MTK0081:39O5D9O87UZKROFP41A7TUKDAZM3C6", "current_trial": 66, "dateTime": 1509133156684, "trialdata": {"rt": -1000, "stimulus": "/static/audio/wordpool/WHISTLE.wav", "key_press": -1, "type": "PRES_AUD", "word": "whistle", "wordID": 1605, "conditions": [18, 1200, "a", 18000], "trial": 1, "serialpos": 11, "trial_type": "single-audio", "trial_index": 66, "time_elapsed": 1797775, "internal_node_id": "0.0-48.0"}}, {"uniqueid": "MTK0081:39O5D9O87UZKROFP41A7TUKDAZM3C6", "current_trial": 67, "dateTime": 1509133158742, "trialdata": {"rt": -1000, "stimulus": "/static/audio/wordpool/MAMMAL.wav", "key_press": -1, "type": "PRES_AUD", "word": "mammal", "wordID": 860, "conditions": [18, 1200, "a", 18000], "trial": 1, "serialpos": 12, "trial_type": "single-audio", "trial_index": 67, "time_elapsed": 1799832, "internal_node_id": "0.0-49.0"}}, {"uniqueid": "MTK0081:39O5D9O87UZKROFP41A7TUKDAZM3C6", "current_trial": 68, "dateTime": 1509133161145, "trialdata": {"rt": -1000, "stimulus": "/static/audio/wordpool/WINDOW.wav", "key_press": -1, "type": "PRES_AUD", "word": "window", "wordID": 1610, "conditions": [18, 1200, "a", 18000], "trial": 1, "serialpos": 13, "trial_type": "single-audio", "trial_index": 68, "time_elapsed": 1802232, "internal_node_id": "0.0-50.0"}}, {"uniqueid": "MTK0081:39O5D9O87UZKROFP41A7TUKDAZM3C6", "current_trial": 69, "dateTime": 1509133163446, "trialdata": {"rt": -1000, "stimulus": "/static/audio/wordpool/SHORTCAKE.wav", "key_press": -1, "type": "PRES_AUD", "word": "shortcake", "wordID": 1291, "conditions": [18, 1200, "a", 18000], "trial": 1, "serialpos": 14, "trial_type": "single-audio", "trial_index": 69, "time_elapsed": 1804537, "internal_node_id": "0.0-51.0"}}, {"uniqueid": "MTK0081:39O5D9O87UZKROFP41A7TUKDAZM3C6", "current_trial": 70, "dateTime": 1509133165618, "trialdata": {"rt": -1000, "stimulus": "/static/audio/wordpool/SEAGULL.wav", "key_press": -1, "type": "PRES_AUD", "word": "seagull", "wordID": 1260, "conditions": [18, 1200, "a", 18000], "trial": 1, "serialpos": 15, "trial_type": "single-audio", "trial_index": 70, "time_elapsed": 1806709, "internal_node_id": "0.0-52.0"}}, {"uniqueid": "MTK0081:39O5D9O87UZKROFP41A7TUKDAZM3C6", "current_trial": 71, "dateTime": 1509133167868, "trialdata": {"rt": -1000, "stimulus": "/static/audio/wordpool/HAWK.wav", "key_press": -1, "type": "PRES_AUD", "word": "hawk", "wordID": 691, "conditions": [18, 1200, "a", 18000], "trial": 1, "serialpos": 16, "trial_type": "single-audio", "trial_index": 71, "time_elapsed": 1808959, "internal_node_id": "0.0-53.0"}}, {"uniqueid": "MTK0081:39O5D9O87UZKROFP41A7TUKDAZM3C6", "current_trial": 72, "dateTime": 1509133170077, "trialdata": {"rt": -1000, "stimulus": "/static/audio/wordpool/PRINCESS.wav", "key_press": -1, "type": "PRES_AUD", "word": "princess", "wordID": 1124, "conditions": [18, 1200, "a", 18000], "trial": 1, "serialpos": 17, "trial_type": "single-audio", "trial_index": 72, "time_elapsed": 1811167, "internal_node_id": "0.0-54.0"}}, {"uniqueid": "MTK0081:39O5D9O87UZKROFP41A7TUKDAZM3C6", "current_trial": 73, "dateTime": 1509133171290, "trialdata": {"rt": -1, "stimulus": "", "key_press": -1, "type": "PRE_RECALL_DELAY", "trial_type": "single-stim", "trial_index": 73, "time_elapsed": 1812381, "internal_node_id": "0.0-55.0-0.0"}}, {"uniqueid": "MTK0081:39O5D9O87UZKROFP41A7TUKDAZM3C6", "current_trial": 74, "dateTime": 1509133171793, "trialdata": {"rt": -1000, "stimulus": "/static/audio/400Hz.wav", "key_press": -1, "type": "PRE_RECALL_ALERT", "trial_type": "single-audio", "trial_index": 74, "time_elapsed": 1812883, "internal_node_id": "0.0-56.0"}}, {"uniqueid": "MTK0081:39O5D9O87UZKROFP41A7TUKDAZM3C6", "current_trial": 75, "dateTime": 1509133231801, "trialdata": {"rt": [3560, 5652, 7905, 9802, 11013, 13096, 15074, 19109, 22907, 24620, 26376], "recwords": ["missile", "cake", "mamal", "pricess", "hawl", "seagull", "shortcak", "seagull", "hawk", "mammal", "wife"], "type": "FREE_RECALL", "conditions": [18, 1200, "a", 18000], "trial": 1, "trial_type": "free-recall", "trial_index": 75, "time_elapsed": 1872887, "internal_node_id": "0.0-57.0-0.0"}}, {"uniqueid": "MTK0081:39O5D9O87UZKROFP41A7TUKDAZM3C6", "current_trial": 76, "dateTime": 1509133243163, "trialdata": {"rt": 9361, "key_press": 32, "type": "INSTRUCTIONS", "trial_type": "text", "trial_index": 76, "time_elapsed": 1884254, "internal_node_id": "0.0-58.0"}}, {"uniqueid": "MTK0081:39O5D9O87UZKROFP41A7TUKDAZM3C6", "current_trial": 77, "dateTime": 1509133268168, "trialdata": {"rt": [2163, 4895, 7392, 9507, 11400, 13161, 16378, 19158, 20890], "responses": ["5", "18", "19", "17", "13", "3", "23", "17", "6"], "num1": [1, 7, 9, 1, 2, 1, 8, 7, 1, 4], "num2": [2, 2, 7, 8, 8, 1, 9, 1, 4, 6], "num3": [2, 9, 3, 8, 3, 1, 6, 9, 1, 1], "type": "DISTRACTOR", "conditions": [12, 1600, "v", 24000], "trial": 2, "trial_type": "math-distractor", "trial_index": 77, "time_elapsed": 1909259, "internal_node_id": "0.0-59.0"}}, {"uniqueid": "MTK0081:39O5D9O87UZKROFP41A7TUKDAZM3C6", "current_trial": 78, "dateTime": 1509133271173, "trialdata": {"rt": -1, "stimulus": "<p id=\"stim\">10</p>", "key_press": -1, "trial_type": "single-stim", "trial_index": 78, "time_elapsed": 1912263, "internal_node_id": "0.0-60.0-0.0"}}, {"uniqueid": "MTK0081:39O5D9O87UZKROFP41A7TUKDAZM3C6", "current_trial": 79, "dateTime": 1509133272174, "trialdata": {"rt": -1, "stimulus": "<p id=\"stim\">9</p>", "key_press": -1, "trial_type": "single-stim", "trial_index": 79, "time_elapsed": 1913265, "internal_node_id": "0.0-60.0-1.0"}}, {"uniqueid": "MTK0081:39O5D9O87UZKROFP41A7TUKDAZM3C6", "current_trial": 80, "dateTime": 1509133273176, "trialdata": {"rt": -1, "stimulus": "<p id=\"stim\">8</p>", "key_press": -1, "trial_type": "single-stim", "trial_index": 80, "time_elapsed": 1914266, "internal_node_id": "0.0-60.0-2.0"}}, {"uniqueid": "MTK0081:39O5D9O87UZKROFP41A7TUKDAZM3C6", "current_trial": 81, "dateTime": 1509133274178, "trialdata": {"rt": -1, "stimulus": "<p id=\"stim\">7</p>", "key_press": -1, "trial_type": "single-stim", "trial_index": 81, "time_elapsed": 1915268, "internal_node_id": "0.0-60.0-3.0"}}, {"uniqueid": "MTK0081:39O5D9O87UZKROFP41A7TUKDAZM3C6", "current_trial": 82, "dateTime": 1509133275180, "trialdata": {"rt": -1, "stimulus": "<p id=\"stim\">6</p>", "key_press": -1, "trial_type": "single-stim", "trial_index": 82, "time_elapsed": 1916270, "internal_node_id": "0.0-60.0-4.0"}}, {"uniqueid": "MTK0081:39O5D9O87UZKROFP41A7TUKDAZM3C6", "current_trial": 83, "dateTime": 1509133276181, "trialdata": {"rt": -1, "stimulus": "<p id=\"stim\">5</p>", "key_press": -1, "trial_type": "single-stim", "trial_index": 83, "time_elapsed": 1917271, "internal_node_id": "0.0-60.0-5.0"}}, {"uniqueid": "MTK0081:39O5D9O87UZKROFP41A7TUKDAZM3C6", "current_trial": 84, "dateTime": 1509133277182, "trialdata": {"rt": -1, "stimulus": "<p id=\"stim\">4</p>", "key_press": -1, "trial_type": "single-stim", "trial_index": 84, "time_elapsed": 1918273, "internal_node_id": "0.0-60.0-6.0"}}, {"uniqueid": "MTK0081:39O5D9O87UZKROFP41A7TUKDAZM3C6", "current_trial": 85, "dateTime": 1509133278184, "trialdata": {"rt": -1, "stimulus": "<p id=\"stim\">3</p>", "key_press": -1, "trial_type": "single-stim", "trial_index": 85, "time_elapsed": 1919274, "internal_node_id": "0.0-60.0-7.0"}}, {"uniqueid": "MTK0081:39O5D9O87UZKROFP41A7TUKDAZM3C6", "current_trial": 86, "dateTime": 1509133279185, "trialdata": {"rt": -1, "stimulus": "<p id=\"stim\">2</p>", "key_press": -1, "trial_type": "single-stim", "trial_index": 86, "time_elapsed": 1920276, "internal_node_id": "0.0-60.0-8.0"}}, {"uniqueid": "MTK0081:39O5D9O87UZKROFP41A7TUKDAZM3C6", "current_trial": 87, "dateTime": 1509133280188, "trialdata": {"rt": -1, "stimulus": "<p id=\"stim\">1</p>", "key_press": -1, "trial_type": "single-stim", "trial_index": 87, "time_elapsed": 1921278, "internal_node_id": "0.0-60.0-9.0"}}, {"uniqueid": "MTK0081:39O5D9O87UZKROFP41A7TUKDAZM3C6", "current_trial": 88, "dateTime": 1509133281689, "trialdata": {"rt": -1, "stimulus": "<p id=\"stim\">+</p>", "key_press": -1, "type": "FIXATION", "trial_type": "single-stim", "trial_index": 88, "time_elapsed": 1922780, "internal_node_id": "0.0-61.0-0.0"}}, {"uniqueid": "MTK0081:39O5D9O87UZKROFP41A7TUKDAZM3C6", "current_trial": 89, "dateTime": 1509133283293, "trialdata": {"rt": -1, "stimulus": "<p id=\"stim\">COOK</p>", "key_press": -1, "type": "PRES_VIS", "word": "cook", "wordID": 371, "conditions": [12, 1600, "v", 24000], "trial": 2, "serialpos": 0, "trial_type": "single-stim", "trial_index": 89, "time_elapsed": 1924384, "internal_node_id": "0.0-62.0"}}, {"uniqueid": "MTK0081:39O5D9O87UZKROFP41A7TUKDAZM3C6", "current_trial": 90, "dateTime": 1509133285880, "trialdata": {"rt": -1, "stimulus": "<p id=\"stim\">SCALPEL</p>", "key_press": -1, "type": "PRES_VIS", "word": "scalpel", "wordID": 1242, "conditions": [12, 1600, "v", 24000], "trial": 2, "serialpos": 1, "trial_type": "single-stim", "trial_index": 90, "time_elapsed": 1926970, "internal_node_id": "0.0-63.0"}}, {"uniqueid": "MTK0081:39O5D9O87UZKROFP41A7TUKDAZM3C6", "current_trial": 91, "dateTime": 1509133288358, "trialdata": {"rt": -1, "stimulus": "<p id=\"stim\">RAZOR</p>", "key_press": -1, "type": "PRES_VIS", "word": "razor", "wordID": 1170, "conditions": [12, 1600, "v", 24000], "trial": 2, "serialpos": 2, "trial_type": "single-stim", "trial_index": 91, "time_elapsed": 1929448, "internal_node_id": "0.0-64.0"}}, {"uniqueid": "MTK0081:39O5D9O87UZKROFP41A7TUKDAZM3C6", "current_trial": 92, "dateTime": 1509133291043, "trialdata": {"rt": -1, "stimulus": "<p id=\"stim\">WAITRESS</p>", "key_press": -1, "type": "PRES_VIS", "word": "waitress", "wordID": 1580, "conditions": [12, 1600, "v", 24000], "trial": 2, "serialpos": 3, "trial_type": "single-stim", "trial_index": 92, "time_elapsed": 1932134, "internal_node_id": "0.0-65.0"}}, {"uniqueid": "MTK0081:39O5D9O87UZKROFP41A7TUKDAZM3C6", "current_trial": 93, "dateTime": 1509133293748, "trialdata": {"rt": -1, "stimulus": "<p id=\"stim\">UMPIRE</p>", "key_press": -1, "type": "PRES_VIS", "word": "umpire", "wordID": 1534, "conditions": [12, 1600, "v", 24000], "trial": 2, "serialpos": 4, "trial_type": "single-stim", "trial_index": 93, "time_elapsed": 1934838, "internal_node_id": "0.0-66.0"}}, {"uniqueid": "MTK0081:39O5D9O87UZKROFP41A7TUKDAZM3C6", "current_trial": 94, "dateTime": 1509133296509, "trialdata": {"rt": -1, "stimulus": "<p id=\"stim\">PEANUT</p>", "key_press": -1, "type": "PRES_VIS", "word": "peanut", "wordID": 1031, "conditions": [12, 1600, "v", 24000], "trial": 2, "serialpos": 5, "trial_type": "single-stim", "trial_index": 94, "time_elapsed": 1937600, "internal_node_id": "0.0-67.0"}}, {"uniqueid": "MTK0081:39O5D9O87UZKROFP41A7TUKDAZM3C6", "current_trial": 95, "dateTime": 1509133299094, "trialdata": {"rt": -1, "stimulus": "<p id=\"stim\">TREAT</p>", "key_press": -1, "type": "PRES_VIS", "word": "treat", "wordID": 1500, "conditions": [12, 1600, "v", 24000], "trial": 2, "serialpos": 6, "trial_type": "single-stim", "trial_index": 95, "time_elapsed": 1940185, "internal_node_id": "0.0-68.0"}}, {"uniqueid": "MTK0081:39O5D9O87UZKROFP41A7TUKDAZM3C6", "current_trial": 96, "dateTime": 1509133301564, "trialdata": {"rt": -1, "stimulus": "<p id=\"stim\">QUAIL</p>", "key_press": -1, "type": "PRES_VIS", "word": "quail", "wordID": 1146, "conditions": [12, 1600, "v", 24000], "trial": 2, "serialpos": 7, "trial_type": "single-stim", "trial_index": 96, "time_elapsed": 1942655, "internal_node_id": "0.0-69.0"}}, {"uniqueid": "MTK0081:39O5D9O87UZKROFP41A7TUKDAZM3C6", "current_trial": 97, "dateTime": 1509133303990, "trialdata": {"rt": -1, "stimulus": "<p id=\"stim\">STONE</p>", "key_press": -1, "type": "PRES_VIS", "word": "stone", "wordID": 1384, "conditions": [12, 1600, "v", 24000], "trial": 2, "serialpos": 8, "trial_type": "single-stim", "trial_index": 97, "time_elapsed": 1945080, "internal_node_id": "0.0-70.0"}}, {"uniqueid": "MTK0081:39O5D9O87UZKROFP41A7TUKDAZM3C6", "current_trial": 98, "dateTime": 1509133306591, "trialdata": {"rt": -1, "stimulus": "<p id=\"stim\">BROOK</p>", "key_press": -1, "type": "PRES_VIS", "word": "brook", "wordID": 176, "conditions": [12, 1600, "v", 24000], "trial": 2, "serialpos": 9, "trial_type": "single-stim", "trial_index": 98, "time_elapsed": 1947681, "internal_node_id": "0.0-71.0"}}, {"uniqueid": "MTK0081:39O5D9O87UZKROFP41A7TUKDAZM3C6", "current_trial": 99, "dateTime": 1509133309146, "trialdata": {"rt": -1, "stimulus": "<p id=\"stim\">CHEMIST</p>", "key_press": -1, "type": "PRES_VIS", "word": "chemist", "wordID": 291, "conditions": [12, 1600, "v", 24000], "trial": 2, "serialpos": 10, "trial_type": "single-stim", "trial_index": 99, "time_elapsed": 1950237, "internal_node_id": "0.0-72.0"}}, {"uniqueid": "MTK0081:39O5D9O87UZKROFP41A7TUKDAZM3C6", "current_trial": 100, "dateTime": 1509133311830, "trialdata": {"rt": -1, "stimulus": "<p id=\"stim\">DINER</p>", "key_press": -1, "type": "PRES_VIS", "word": "diner", "wordID": 466, "conditions": [12, 1600, "v", 24000], "trial": 2, "serialpos": 11, "trial_type": "single-stim", "trial_index": 100, "time_elapsed": 1952921, "internal_node_id": "0.0-73.0"}}, {"uniqueid": "MTK0081:39O5D9O87UZKROFP41A7TUKDAZM3C6", "current_trial": 101, "dateTime": 1509133314398, "trialdata": {"rt": -1, "stimulus": "", "key_press": -1, "type": "PRE_RECALL_DELAY", "trial_type": "single-stim", "trial_index": 101, "time_elapsed": 1955488, "internal_node_id": "0.0-74.0-0.0"}}, {"uniqueid": "MTK0081:39O5D9O87UZKROFP41A7TUKDAZM3C6", "current_trial": 102, "dateTime": 1509133314904, "trialdata": {"rt": -1000, "stimulus": "/static/audio/400Hz.wav", "key_press": -1, "type": "PRE_RECALL_ALERT", "trial_type": "single-audio", "trial_index": 102, "time_elapsed": 1955995, "internal_node_id": "0.0-75.0"}}, {"uniqueid": "MTK0081:39O5D9O87UZKROFP41A7TUKDAZM3C6", "current_trial": 103, "dateTime": 1509133374911, "trialdata": {"rt": [2695, 3692, 5297, 6491, 9355, 13085, 43161], "recwords": ["waitress", "diner", "scalpel", "cook", "hammer", "razor", ""], "type": "FREE_RECALL", "conditions": [12, 1600, "v", 24000], "trial": 2, "trial_type": "free-recall", "trial_index": 103, "time_elapsed": 2015999, "internal_node_id": "0.0-76.0-0.0"}}, {"uniqueid": "MTK0081:39O5D9O87UZKROFP41A7TUKDAZM3C6", "current_trial": 104, "dateTime": 1509133425251, "trialdata": {"rt": 48338, "key_press": 32, "type": "INSTRUCTIONS", "trial_type": "text", "trial_index": 104, "time_elapsed": 2066342, "internal_node_id": "0.0-77.0"}}, {"uniqueid": "MTK0081:39O5D9O87UZKROFP41A7TUKDAZM3C6", "current_trial": 105, "dateTime": 1509133439256, "trialdata": {"rt": [2206, 4983, 7422, 10466], "responses": ["9", "14", "13", "23"], "num1": [6, 4, 3, 6, 9], "num2": [1, 4, 1, 9, 1], "num3": [2, 6, 9, 8, 1], "type": "DISTRACTOR", "conditions": [24, 1600, "v", 12000], "trial": 3, "trial_type": "math-distractor", "trial_index": 105, "time_elapsed": 2080347, "internal_node_id": "0.0-78.0"}}, {"uniqueid": "MTK0081:39O5D9O87UZKROFP41A7TUKDAZM3C6", "current_trial": 106, "dateTime": 1509133442260, "trialdata": {"rt": -1, "stimulus": "<p id=\"stim\">10</p>", "key_press": -1, "trial_type": "single-stim", "trial_index": 106, "time_elapsed": 2083351, "internal_node_id": "0.0-79.0-0.0"}}, {"uniqueid": "MTK0081:39O5D9O87UZKROFP41A7TUKDAZM3C6", "current_trial": 107, "dateTime": 1509133443262, "trialdata": {"rt": -1, "stimulus": "<p id=\"stim\">9</p>", "key_press": -1, "trial_type": "single-stim", "trial_index": 107, "time_elapsed": 2084353, "internal_node_id": "0.0-79.0-1.0"}}, {"uniqueid": "MTK0081:39O5D9O87UZKROFP41A7TUKDAZM3C6", "current_trial": 108, "dateTime": 1509133444264, "trialdata": {"rt": -1, "stimulus": "<p id=\"stim\">8</p>", "key_press": -1, "trial_type": "single-stim", "trial_index": 108, "time_elapsed": 2085354, "internal_node_id": "0.0-79.0-2.0"}}, {"uniqueid": "MTK0081:39O5D9O87UZKROFP41A7TUKDAZM3C6", "current_trial": 109, "dateTime": 1509133445266, "trialdata": {"rt": -1, "stimulus": "<p id=\"stim\">7</p>", "key_press": -1, "trial_type": "single-stim", "trial_index": 109, "time_elapsed": 2086357, "internal_node_id": "0.0-79.0-3.0"}}, {"uniqueid": "MTK0081:39O5D9O87UZKROFP41A7TUKDAZM3C6", "current_trial": 110, "dateTime": 1509133446269, "trialdata": {"rt": -1, "stimulus": "<p id=\"stim\">6</p>", "key_press": -1, "trial_type": "single-stim", "trial_index": 110, "time_elapsed": 2087360, "internal_node_id": "0.0-79.0-4.0"}}, {"uniqueid": "MTK0081:39O5D9O87UZKROFP41A7TUKDAZM3C6", "current_trial": 111, "dateTime": 1509133447271, "trialdata": {"rt": -1, "stimulus": "<p id=\"stim\">5</p>", "key_press": -1, "trial_type": "single-stim", "trial_index": 111, "time_elapsed": 2088362, "internal_node_id": "0.0-79.0-5.0"}}, {"uniqueid": "MTK0081:39O5D9O87UZKROFP41A7TUKDAZM3C6", "current_trial": 112, "dateTime": 1509133448272, "trialdata": {"rt": -1, "stimulus": "<p id=\"stim\">4</p>", "key_press": -1, "trial_type": "single-stim", "trial_index": 112, "time_elapsed": 2089363, "internal_node_id": "0.0-79.0-6.0"}}, {"uniqueid": "MTK0081:39O5D9O87UZKROFP41A7TUKDAZM3C6", "current_trial": 113, "dateTime": 1509133449275, "trialdata": {"rt": -1, "stimulus": "<p id=\"stim\">3</p>", "key_press": -1, "trial_type": "single-stim", "trial_index": 113, "time_elapsed": 2090365, "internal_node_id": "0.0-79.0-7.0"}}, {"uniqueid": "MTK0081:39O5D9O87UZKROFP41A7TUKDAZM3C6", "current_trial": 114, "dateTime": 1509133450277, "trialdata": {"rt": -1, "stimulus": "<p id=\"stim\">2</p>", "key_press": -1, "trial_type": "single-stim", "trial_index": 114, "time_elapsed": 2091367, "internal_node_id": "0.0-79.0-8.0"}}, {"uniqueid": "MTK0081:39O5D9O87UZKROFP41A7TUKDAZM3C6", "current_trial": 115, "dateTime": 1509133451278, "trialdata": {"rt": -1, "stimulus": "<p id=\"stim\">1</p>", "key_press": -1, "trial_type": "single-stim", "trial_index": 115, "time_elapsed": 2092369, "internal_node_id": "0.0-79.0-9.0"}}, {"uniqueid": "MTK0081:39O5D9O87UZKROFP41A7TUKDAZM3C6", "current_trial": 116, "dateTime": 1509133452780, "trialdata": {"rt": -1, "stimulus": "<p id=\"stim\">+</p>", "key_press": -1, "type": "FIXATION", "trial_type": "single-stim", "trial_index": 116, "time_elapsed": 2093870, "internal_node_id": "0.0-80.0-0.0"}}, {"uniqueid": "MTK0081:39O5D9O87UZKROFP41A7TUKDAZM3C6", "current_trial": 117, "dateTime": 1509133454382, "trialdata": {"rt": -1, "stimulus": "<p id=\"stim\">RIFLE</p>", "key_press": -1, "type": "PRES_VIS", "word": "rifle", "wordID": 1191, "conditions": [24, 1600, "v", 12000], "trial": 3, "serialpos": 0, "trial_type": "single-stim", "trial_index": 117, "time_elapsed": 2095473, "internal_node_id": "0.0-81.0"}}, {"uniqueid": "MTK0081:39O5D9O87UZKROFP41A7TUKDAZM3C6", "current_trial": 118, "dateTime": 1509133457063, "trialdata": {"rt": -1, "stimulus": "<p id=\"stim\">TORTOISE</p>", "key_press": -1, "type": "PRES_VIS", "word": "tortoise", "wordID": 1485, "conditions": [24, 1600, "v", 12000], "trial": 3, "serialpos": 1, "trial_type": "single-stim", "trial_index": 118, "time_elapsed": 2098154, "internal_node_id": "0.0-82.0"}}, {"uniqueid": "MTK0081:39O5D9O87UZKROFP41A7TUKDAZM3C6", "current_trial": 119, "dateTime": 1509133459797, "trialdata": {"rt": -1, "stimulus": "<p id=\"stim\">SNAIL</p>", "key_press": -1, "type": "PRES_VIS", "word": "snail", "wordID": 1331, "conditions": [24, 1600, "v", 12000], "trial": 3, "serialpos": 2, "trial_type": "single-stim", "trial_index": 119, "time_elapsed": 2100887, "internal_node_id": "0.0-83.0"}}, {"uniqueid": "MTK0081:39O5D9O87UZKROFP41A7TUKDAZM3C6", "current_trial": 120, "dateTime": 1509133462514, "trialdata": {"rt": -1, "stimulus": "<p id=\"stim\">FIREPLACE</p>", "key_press": -1, "type": "PRES_VIS", "word": "fireplace", "wordID": 569, "conditions": [24, 1600, "v", 12000], "trial": 3, "serialpos": 3, "trial_type": "single-stim", "trial_index": 120, "time_elapsed": 2103605, "internal_node_id": "0.0-84.0"}}, {"uniqueid": "MTK0081:39O5D9O87UZKROFP41A7TUKDAZM3C6", "current_trial": 121, "dateTime": 1509133464998, "trialdata": {"rt": -1, "stimulus": "<p id=\"stim\">CLAMP</p>", "key_press": -1, "type": "PRES_VIS", "word": "clamp", "wordID": 315, "conditions": [24, 1600, "v", 12000], "trial": 3, "serialpos": 4, "trial_type": "single-stim", "trial_index": 121, "time_elapsed": 2106089, "internal_node_id": "0.0-85.0"}}, {"uniqueid": "MTK0081:39O5D9O87UZKROFP41A7TUKDAZM3C6", "current_trial": 122, "dateTime": 1509133467736, "trialdata": {"rt": -1, "stimulus": "<p id=\"stim\">HAMPER</p>", "key_press": -1, "type": "PRES_VIS", "word": "hamper", "wordID": 681, "conditions": [24, 1600, "v", 12000], "trial": 3, "serialpos": 5, "trial_type": "single-stim", "trial_index": 122, "time_elapsed": 2108827, "internal_node_id": "0.0-86.0"}}, {"uniqueid": "MTK0081:39O5D9O87UZKROFP41A7TUKDAZM3C6", "current_trial": 123, "dateTime": 1509133470388, "trialdata": {"rt": -1, "stimulus": "<p id=\"stim\">PEACH</p>", "key_press": -1, "type": "PRES_VIS", "word": "peach", "wordID": 1030, "conditions": [24, 1600, "v", 12000], "trial": 3, "serialpos": 6, "trial_type": "single-stim", "trial_index": 123, "time_elapsed": 2111479, "internal_node_id": "0.0-87.0"}}, {"uniqueid": "MTK0081:39O5D9O87UZKROFP41A7TUKDAZM3C6", "current_trial": 124, "dateTime": 1509133473018, "trialdata": {"rt": -1, "stimulus": "<p id=\"stim\">MATTRESS</p>", "key_press": -1, "type": "PRES_VIS", "word": "mattress", "wordID": 878, "conditions": [24, 1600, "v", 12000], "trial": 3, "serialpos": 7, "trial_type": "single-stim", "trial_index": 124, "time_elapsed": 2114109, "internal_node_id": "0.0-88.0"}}, {"uniqueid": "MTK0081:39O5D9O87UZKROFP41A7TUKDAZM3C6", "current_trial": 125, "dateTime": 1509133475598, "trialdata": {"rt": -1, "stimulus": "<p id=\"stim\">TOURIST</p>", "key_press": -1, "type": "PRES_VIS", "word": "tourist", "wordID": 1487, "conditions": [24, 1600, "v", 12000], "trial": 3, "serialpos": 8, "trial_type": "single-stim", "trial_index": 125, "time_elapsed": 2116689, "internal_node_id": "0.0-89.0"}}, {"uniqueid": "MTK0081:39O5D9O87UZKROFP41A7TUKDAZM3C6", "current_trial": 126, "dateTime": 1509133478043, "trialdata": {"rt": -1, "stimulus": "<p id=\"stim\">RADISH</p>", "key_press": -1, "type": "PRES_VIS", "word": "radish", "wordID": 1157, "conditions": [24, 1600, "v", 12000], "trial": 3, "serialpos": 9, "trial_type": "single-stim", "trial_index": 126, "time_elapsed": 2119134, "internal_node_id": "0.0-90.0"}}, {"uniqueid": "MTK0081:39O5D9O87UZKROFP41A7TUKDAZM3C6", "current_trial": 127, "dateTime": 1509133480695, "trialdata": {"rt": -1, "stimulus": "<p id=\"stim\">KITCHEN</p>", "key_press": -1, "type": "PRES_VIS", "word": "kitchen", "wordID": 777, "conditions": [24, 1600, "v", 12000], "trial": 3, "serialpos": 10, "trial_type": "single-stim", "trial_index": 127, "time_elapsed": 2121786, "internal_node_id": "0.0-91.0"}}, {"uniqueid": "MTK0081:39O5D9O87UZKROFP41A7TUKDAZM3C6", "current_trial": 128, "dateTime": 1509133483396, "trialdata": {"rt": -1, "stimulus": "<p id=\"stim\">SHARK</p>", "key_press": -1, "type": "PRES_VIS", "word": "shark", "wordID": 1274, "conditions": [24, 1600, "v", 12000], "trial": 3, "serialpos": 11, "trial_type": "single-stim", "trial_index": 128, "time_elapsed": 2124487, "internal_node_id": "0.0-92.0"}}, {"uniqueid": "MTK0081:39O5D9O87UZKROFP41A7TUKDAZM3C6", "current_trial": 129, "dateTime": 1509133485904, "trialdata": {"rt": -1, "stimulus": "<p id=\"stim\">MILK</p>", "key_press": -1, "type": "PRES_VIS", "word": "milk", "wordID": 894, "conditions": [24, 1600, "v", 12000], "trial": 3, "serialpos": 12, "trial_type": "single-stim", "trial_index": 129, "time_elapsed": 2126994, "internal_node_id": "0.0-93.0"}}, {"uniqueid": "MTK0081:39O5D9O87UZKROFP41A7TUKDAZM3C6", "current_trial": 130, "dateTime": 1509133488311, "trialdata": {"rt": -1, "stimulus": "<p id=\"stim\">DONKEY</p>", "key_press": -1, "type": "PRES_VIS", "word": "donkey", "wordID": 483, "conditions": [24, 1600, "v", 12000], "trial": 3, "serialpos": 13, "trial_type": "single-stim", "trial_index": 130, "time_elapsed": 2129401, "internal_node_id": "0.0-94.0"}}, {"uniqueid": "MTK0081:39O5D9O87UZKROFP41A7TUKDAZM3C6", "current_trial": 131, "dateTime": 1509133490980, "trialdata": {"rt": -1, "stimulus": "<p id=\"stim\">BEAVER</p>", "key_press": -1, "type": "PRES_VIS", "word": "beaver", "wordID": 108, "conditions": [24, 1600, "v", 12000], "trial": 3, "serialpos": 14, "trial_type": "single-stim", "trial_index": 131, "time_elapsed": 2132071, "internal_node_id": "0.0-95.0"}}, {"uniqueid": "MTK0081:39O5D9O87UZKROFP41A7TUKDAZM3C6", "current_trial": 132, "dateTime": 1509133493502, "trialdata": {"rt": -1, "stimulus": "<p id=\"stim\">CHEST</p>", "key_press": -1, "type": "PRES_VIS", "word": "chest", "wordID": 294, "conditions": [24, 1600, "v", 12000], "trial": 3, "serialpos": 15, "trial_type": "single-stim", "trial_index": 132, "time_elapsed": 2134592, "internal_node_id": "0.0-96.0"}}, {"uniqueid": "MTK0081:39O5D9O87UZKROFP41A7TUKDAZM3C6", "current_trial": 133, "dateTime": 1509133496260, "trialdata": {"rt": -1, "stimulus": "<p id=\"stim\">PERMIT</p>", "key_press": -1, "type": "PRES_VIS", "word": "permit", "wordID": 1050, "conditions": [24, 1600, "v", 12000], "trial": 3, "serialpos": 16, "trial_type": "single-stim", "trial_index": 133, "time_elapsed": 2137350, "internal_node_id": "0.0-97.0"}}, {"uniqueid": "MTK0081:39O5D9O87UZKROFP41A7TUKDAZM3C6", "current_trial": 134, "dateTime": 1509133498981, "trialdata": {"rt": -1, "stimulus": "<p id=\"stim\">CLAM</p>", "key_press": -1, "type": "PRES_VIS", "word": "clam", "wordID": 314, "conditions": [24, 1600, "v", 12000], "trial": 3, "serialpos": 17, "trial_type": "single-stim", "trial_index": 134, "time_elapsed": 2140071, "internal_node_id": "0.0-98.0"}}, {"uniqueid": "MTK0081:39O5D9O87UZKROFP41A7TUKDAZM3C6", "current_trial": 135, "dateTime": 1509133501709, "trialdata": {"rt": -1, "stimulus": "<p id=\"stim\">CRAB</p>", "key_press": -1, "type": "PRES_VIS", "word": "crab", "wordID": 396, "conditions": [24, 1600, "v", 12000], "trial": 3, "serialpos": 18, "trial_type": "single-stim", "trial_index": 135, "time_elapsed": 2142799, "internal_node_id": "0.0-99.0"}}, {"uniqueid": "MTK0081:39O5D9O87UZKROFP41A7TUKDAZM3C6", "current_trial": 136, "dateTime": 1509133504364, "trialdata": {"rt": -1, "stimulus": "<p id=\"stim\">COD</p>", "key_press": -1, "type": "PRES_VIS", "word": "cod", "wordID": 339, "conditions": [24, 1600, "v", 12000], "trial": 3, "serialpos": 19, "trial_type": "single-stim", "trial_index": 136, "time_elapsed": 2145454, "internal_node_id": "0.0-100.0"}}, {"uniqueid": "MTK0081:39O5D9O87UZKROFP41A7TUKDAZM3C6", "current_trial": 137, "dateTime": 1509133507111, "trialdata": {"rt": -1, "stimulus": "<p id=\"stim\">SCALLOP</p>", "key_press": -1, "type": "PRES_VIS", "word": "scallop", "wordID": 1241, "conditions": [24, 1600, "v", 12000], "trial": 3, "serialpos": 20, "trial_type": "single-stim", "trial_index": 137, "time_elapsed": 2148202, "internal_node_id": "0.0-101.0"}}, {"uniqueid": "MTK0081:39O5D9O87UZKROFP41A7TUKDAZM3C6", "current_trial": 138, "dateTime": 1509133509648, "trialdata": {"rt": -1, "stimulus": "<p id=\"stim\">LAMP</p>", "key_press": -1, "type": "PRES_VIS", "word": "lamp", "wordID": 797, "conditions": [24, 1600, "v", 12000], "trial": 3, "serialpos": 21, "trial_type": "single-stim", "trial_index": 138, "time_elapsed": 2150738, "internal_node_id": "0.0-102.0"}}, {"uniqueid": "MTK0081:39O5D9O87UZKROFP41A7TUKDAZM3C6", "current_trial": 139, "dateTime": 1509133512182, "trialdata": {"rt": -1, "stimulus": "<p id=\"stim\">GYMNAST</p>", "key_press": -1, "type": "PRES_VIS", "word": "gymnast", "wordID": 674, "conditions": [24, 1600, "v", 12000], "trial": 3, "serialpos": 22, "trial_type": "single-stim", "trial_index": 139, "time_elapsed": 2153272, "internal_node_id": "0.0-103.0"}}, {"uniqueid": "MTK0081:39O5D9O87UZKROFP41A7TUKDAZM3C6", "current_trial": 140, "dateTime": 1509133514653, "trialdata": {"rt": -1, "stimulus": "<p id=\"stim\">SIDEWALK</p>", "key_press": -1, "type": "PRES_VIS", "word": "sidewalk", "wordID": 1302, "conditions": [24, 1600, "v", 12000], "trial": 3, "serialpos": 23, "trial_type": "single-stim", "trial_index": 140, "time_elapsed": 2155743, "internal_node_id": "0.0-104.0"}}, {"uniqueid": "MTK0081:39O5D9O87UZKROFP41A7TUKDAZM3C6", "current_trial": 141, "dateTime": 1509133516894, "trialdata": {"rt": -1, "stimulus": "", "key_press": -1, "type": "PRE_RECALL_DELAY", "trial_type": "single-stim", "trial_index": 141, "time_elapsed": 2157985, "internal_node_id": "0.0-105.0-0.0"}}, {"uniqueid": "MTK0081:39O5D9O87UZKROFP41A7TUKDAZM3C6", "current_trial": 142, "dateTime": 1509133517395, "trialdata": {"rt": -1000, "stimulus": "/static/audio/400Hz.wav", "key_press": -1, "type": "PRE_RECALL_ALERT", "trial_type": "single-audio", "trial_index": 142, "time_elapsed": 2158486, "internal_node_id": "0.0-106.0"}}, {"uniqueid": "MTK0081:39O5D9O87UZKROFP41A7TUKDAZM3C6", "current_trial": 143, "dateTime": 1509133577403, "trialdata": {"rt": [6410, 9075, 10731, 12319, 14048, 16974, 19029, 31680, 36123, 41869, 43100, 48697, 52883], "recwords": ["peach", "sidewalk", "toursist", "cod", "crab", "clam", "permit", "donkey", "radish", "scallop", "lamp", "gymnast", "rifle"], "type": "FREE_RECALL", "conditions": [24, 1600, "v", 12000], "trial": 3, "trial_type": "free-recall", "trial_index": 143, "time_elapsed": 2218491, "internal_node_id": "0.0-107.0-0.0"}}, {"uniqueid": "MTK0081:39O5D9O87UZKROFP41A7TUKDAZM3C6", "current_trial": 144, "dateTime": 1509133581771, "trialdata": {"rt": 2362, "key_press": 32, "type": "INSTRUCTIONS", "trial_type": "text", "trial_index": 144, "time_elapsed": 2222858, "internal_node_id": "0.0-108.0"}}, {"uniqueid": "MTK0081:39O5D9O87UZKROFP41A7TUKDAZM3C6", "current_trial": 145, "dateTime": 1509133595777, "trialdata": {"rt": [1768, 5250, 8775, 11373], "responses": ["18", "19", "22", "21"], "num1": [8, 7, 7, 8, 7], "num2": [8, 8, 8, 9, 1], "num3": [2, 4, 7, 4, 2], "type": "DISTRACTOR", "conditions": [12, 800, "a", 12000], "trial": 4, "trial_type": "math-distractor", "trial_index": 145, "time_elapsed": 2236868, "internal_node_id": "0.0-109.0"}}, {"uniqueid": "MTK0081:39O5D9O87UZKROFP41A7TUKDAZM3C6", "current_trial": 146, "dateTime": 1509133598782, "trialdata": {"rt": -1, "stimulus": "<p id=\"stim\">10</p>", "key_press": -1, "trial_type": "single-stim", "trial_index": 146, "time_elapsed": 2239872, "internal_node_id": "0.0-110.0-0.0"}}, {"uniqueid": "MTK0081:39O5D9O87UZKROFP41A7TUKDAZM3C6", "current_trial": 147, "dateTime": 1509133599783, "trialdata": {"rt": -1, "stimulus": "<p id=\"stim\">9</p>", "key_press": -1, "trial_type": "single-stim", "trial_index": 147, "time_elapsed": 2240874, "internal_node_id": "0.0-110.0-1.0"}}, {"uniqueid": "MTK0081:39O5D9O87UZKROFP41A7TUKDAZM3C6", "current_trial": 148, "dateTime": 1509133600785, "trialdata": {"rt": -1, "stimulus": "<p id=\"stim\">8</p>", "key_press": -1, "trial_type": "single-stim", "trial_index": 148, "time_elapsed": 2241876, "internal_node_id": "0.0-110.0-2.0"}}, {"uniqueid": "MTK0081:39O5D9O87UZKROFP41A7TUKDAZM3C6", "current_trial": 149, "dateTime": 1509133601788, "trialdata": {"rt": -1, "stimulus": "<p id=\"stim\">7</p>", "key_press": -1, "trial_type": "single-stim", "trial_index": 149, "time_elapsed": 2242879, "internal_node_id": "0.0-110.0-3.0"}}, {"uniqueid": "MTK0081:39O5D9O87UZKROFP41A7TUKDAZM3C6", "current_trial": 150, "dateTime": 1509133602789, "trialdata": {"rt": -1, "stimulus": "<p id=\"stim\">6</p>", "key_press": -1, "trial_type": "single-stim", "trial_index": 150, "time_elapsed": 2243880, "internal_node_id": "0.0-110.0-4.0"}}, {"uniqueid": "MTK0081:39O5D9O87UZKROFP41A7TUKDAZM3C6", "current_trial": 151, "dateTime": 1509133603791, "trialdata": {"rt": -1, "stimulus": "<p id=\"stim\">5</p>", "key_press": -1, "trial_type": "single-stim", "trial_index": 151, "time_elapsed": 2244882, "internal_node_id": "0.0-110.0-5.0"}}, {"uniqueid": "MTK0081:39O5D9O87UZKROFP41A7TUKDAZM3C6", "current_trial": 152, "dateTime": 1509133604792, "trialdata": {"rt": -1, "stimulus": "<p id=\"stim\">4</p>", "key_press": -1, "trial_type": "single-stim", "trial_index": 152, "time_elapsed": 2245883, "internal_node_id": "0.0-110.0-6.0"}}, {"uniqueid": "MTK0081:39O5D9O87UZKROFP41A7TUKDAZM3C6", "current_trial": 153, "dateTime": 1509133605795, "trialdata": {"rt": -1, "stimulus": "<p id=\"stim\">3</p>", "key_press": -1, "trial_type": "single-stim", "trial_index": 153, "time_elapsed": 2246886, "internal_node_id": "0.0-110.0-7.0"}}, {"uniqueid": "MTK0081:39O5D9O87UZKROFP41A7TUKDAZM3C6", "current_trial": 154, "dateTime": 1509133606797, "trialdata": {"rt": -1, "stimulus": "<p id=\"stim\">2</p>", "key_press": -1, "trial_type": "single-stim", "trial_index": 154, "time_elapsed": 2247888, "internal_node_id": "0.0-110.0-8.0"}}, {"uniqueid": "MTK0081:39O5D9O87UZKROFP41A7TUKDAZM3C6", "current_trial": 155, "dateTime": 1509133607798, "trialdata": {"rt": -1, "stimulus": "<p id=\"stim\">1</p>", "key_press": -1, "trial_type": "single-stim", "trial_index": 155, "time_elapsed": 2248889, "internal_node_id": "0.0-110.0-9.0"}}, {"uniqueid": "MTK0081:39O5D9O87UZKROFP41A7TUKDAZM3C6", "current_trial": 156, "dateTime": 1509133609299, "trialdata": {"rt": -1, "stimulus": "<p id=\"stim\">+</p>", "key_press": -1, "type": "FIXATION", "trial_type": "single-stim", "trial_index": 156, "time_elapsed": 2250390, "internal_node_id": "0.0-111.0-0.0"}}, {"uniqueid": "MTK0081:39O5D9O87UZKROFP41A7TUKDAZM3C6", "current_trial": 157, "dateTime": 1509133611278, "trialdata": {"rt": -1000, "stimulus": "/static/audio/wordpool/GOBLIN.wav", "key_press": -1, "type": "PRES_AUD", "word": "goblin", "wordID": 644, "conditions": [12, 800, "a", 12000], "trial": 4, "serialpos": 0, "trial_type": "single-audio", "trial_index": 157, "time_elapsed": 2252369, "internal_node_id": "0.0-112.0"}}, {"uniqueid": "MTK0081:39O5D9O87UZKROFP41A7TUKDAZM3C6", "current_trial": 158, "dateTime": 1509133612937, "trialdata": {"rt": -1000, "stimulus": "/static/audio/wordpool/DENIM.wav", "key_press": -1, "type": "PRES_AUD", "word": "denim", "wordID": 445, "conditions": [12, 800, "a", 12000], "trial": 4, "serialpos": 1, "trial_type": "single-audio", "trial_index": 158, "time_elapsed": 2254028, "internal_node_id": "0.0-113.0"}}, {"uniqueid": "MTK0081:39O5D9O87UZKROFP41A7TUKDAZM3C6", "current_trial": 159, "dateTime": 1509133614701, "trialdata": {"rt": -1000, "stimulus": "/static/audio/wordpool/STICKER.wav", "key_press": -1, "type": "PRES_AUD", "word": "sticker", "wordID": 1381, "conditions": [12, 800, "a", 12000], "trial": 4, "serialpos": 2, "trial_type": "single-audio", "trial_index": 159, "time_elapsed": 2255791, "internal_node_id": "0.0-114.0"}}, {"uniqueid": "MTK0081:39O5D9O87UZKROFP41A7TUKDAZM3C6", "current_trial": 160, "dateTime": 1509133616634, "trialdata": {"rt": -1000, "stimulus": "/static/audio/wordpool/BADGE.wav", "key_press": -1, "type": "PRES_AUD", "word": "badge", "wordID": 67, "conditions": [12, 800, "a", 12000], "trial": 4, "serialpos": 3, "trial_type": "single-audio", "trial_index": 160, "time_elapsed": 2257725, "internal_node_id": "0.0-115.0"}}, {"uniqueid": "MTK0081:39O5D9O87UZKROFP41A7TUKDAZM3C6", "current_trial": 161, "dateTime": 1509133618507, "trialdata": {"rt": -1000, "stimulus": "/static/audio/wordpool/SAUSAGE.wav", "key_press": -1, "type": "PRES_AUD", "word": "sausage", "wordID": 1237, "conditions": [12, 800, "a", 12000], "trial": 4, "serialpos": 4, "trial_type": "single-audio", "trial_index": 161, "time_elapsed": 2259598, "internal_node_id": "0.0-116.0"}}, {"uniqueid": "MTK0081:39O5D9O87UZKROFP41A7TUKDAZM3C6", "current_trial": 162, "dateTime": 1509133620200, "trialdata": {"rt": -1000, "stimulus": "/static/audio/wordpool/PARSLEY.wav", "key_press": -1, "type": "PRES_AUD", "word": "parsley", "wordID": 1015, "conditions": [12, 800, "a", 12000], "trial": 4, "serialpos": 5, "trial_type": "single-audio", "trial_index": 162, "time_elapsed": 2261291, "internal_node_id": "0.0-117.0"}}, {"uniqueid": "MTK0081:39O5D9O87UZKROFP41A7TUKDAZM3C6", "current_trial": 163, "dateTime": 1509133621918, "trialdata": {"rt": -1000, "stimulus": "/static/audio/wordpool/DRAGON.wav", "key_press": -1, "type": "PRES_AUD", "word": "dragon", "wordID": 491, "conditions": [12, 800, "a", 12000], "trial": 4, "serialpos": 6, "trial_type": "single-audio", "trial_index": 163, "time_elapsed": 2263008, "internal_node_id": "0.0-118.0"}}, {"uniqueid": "MTK0081:39O5D9O87UZKROFP41A7TUKDAZM3C6", "current_trial": 164, "dateTime": 1509133623727, "trialdata": {"rt": -1000, "stimulus": "/static/audio/wordpool/PADDING.wav", "key_press": -1, "type": "PRES_AUD", "word": "padding", "wordID": 998, "conditions": [12, 800, "a", 12000], "trial": 4, "serialpos": 7, "trial_type": "single-audio", "trial_index": 164, "time_elapsed": 2264818, "internal_node_id": "0.0-119.0"}}, {"uniqueid": "MTK0081:39O5D9O87UZKROFP41A7TUKDAZM3C6", "current_trial": 165, "dateTime": 1509133625349, "trialdata": {"rt": -1000, "stimulus": "/static/audio/wordpool/SALT.wav", "key_press": -1, "type": "PRES_AUD", "word": "salt", "wordID": 1228, "conditions": [12, 800, "a", 12000], "trial": 4, "serialpos": 8, "trial_type": "single-audio", "trial_index": 165, "time_elapsed": 2266440, "internal_node_id": "0.0-120.0"}}, {"uniqueid": "MTK0081:39O5D9O87UZKROFP41A7TUKDAZM3C6", "current_trial": 166, "dateTime": 1509133626952, "trialdata": {"rt": -1000, "stimulus": "/static/audio/wordpool/ZIPPER.wav", "key_press": -1, "type": "PRES_AUD", "word": "zipper", "wordID": 1635, "conditions": [12, 800, "a", 12000], "trial": 4, "serialpos": 9, "trial_type": "single-audio", "trial_index": 166, "time_elapsed": 2268043, "internal_node_id": "0.0-121.0"}}, {"uniqueid": "MTK0081:39O5D9O87UZKROFP41A7TUKDAZM3C6", "current_trial": 167, "dateTime": 1509133628923, "trialdata": {"rt": -1000, "stimulus": "/static/audio/wordpool/LAPEL.wav", "key_press": -1, "type": "PRES_AUD", "word": "lapel", "wordID": 799, "conditions": [12, 800, "a", 12000], "trial": 4, "serialpos": 10, "trial_type": "single-audio", "trial_index": 167, "time_elapsed": 2270014, "internal_node_id": "0.0-122.0"}}, {"uniqueid": "MTK0081:39O5D9O87UZKROFP41A7TUKDAZM3C6", "current_trial": 168, "dateTime": 1509133630664, "trialdata": {"rt": -1000, "stimulus": "/static/audio/wordpool/HANDBAG.wav", "key_press": -1, "type": "PRES_AUD", "word": "handbag", "wordID": 683, "conditions": [12, 800, "a", 12000], "trial": 4, "serialpos": 11, "trial_type": "single-audio", "trial_index": 168, "time_elapsed": 2271755, "internal_node_id": "0.0-123.0"}}, {"uniqueid": "MTK0081:39O5D9O87UZKROFP41A7TUKDAZM3C6", "current_trial": 169, "dateTime": 1509133631897, "trialdata": {"rt": -1, "stimulus": "", "key_press": -1, "type": "PRE_RECALL_DELAY", "trial_type": "single-stim", "trial_index": 169, "time_elapsed": 2272987, "internal_node_id": "0.0-124.0-0.0"}}, {"uniqueid": "MTK0081:39O5D9O87UZKROFP41A7TUKDAZM3C6", "current_trial": 170, "dateTime": 1509133632398, "trialdata": {"rt": -1000, "stimulus": "/static/audio/400Hz.wav", "key_press": -1, "type": "PRE_RECALL_ALERT", "trial_type": "single-audio", "trial_index": 170, "time_elapsed": 2273489, "internal_node_id": "0.0-125.0"}}, {"uniqueid": "MTK0081:39O5D9O87UZKROFP41A7TUKDAZM3C6", "current_trial": 171, "dateTime": 1509133692404, "trialdata": {"rt": [5613, 6713, 8081, 10122, 12579, 17281, 19491, 20585, 24199, 28371, 31468], "recwords": ["handbag", "lapel", "zipper", "goblin", "padding", "parsley", "sausage", "badge", "sticker", "salt", "dragon"], "type": "FREE_RECALL", "conditions": [12, 800, "a", 12000], "trial": 4, "trial_type": "free-recall", "trial_index": 171, "time_elapsed": 2333492, "internal_node_id": "0.0-126.0-0.0"}}, {"uniqueid": "MTK0081:39O5D9O87UZKROFP41A7TUKDAZM3C6", "current_trial": 172, "dateTime": 1509133719259, "trialdata": {"rt": 24854, "key_press": 32, "type": "INSTRUCTIONS", "trial_type": "text", "trial_index": 172, "time_elapsed": 2360350, "internal_node_id": "0.0-127.0"}}, {"uniqueid": "MTK0081:39O5D9O87UZKROFP41A7TUKDAZM3C6", "current_trial": 173, "dateTime": 1509133745265, "trialdata": {"rt": [2506, 5060, 8056, 10883, 12952, 15032, 18250, 22058, 23812], "responses": ["13", "13", "27", "14", "17", "19", "2", "9", "17"], "num1": [2, 6, 9, 5, 7, 3, 8, 3, 8, 7], "num2": [7, 5, 9, 6, 5, 8, 7, 4, 1, 1], "num3": [5, 2, 9, 3, 5, 8, 5, 2, 8, 8], "type": "DISTRACTOR", "conditions": [24, 800, "v", 24000], "trial": 5, "trial_type": "math-distractor", "trial_index": 173, "time_elapsed": 2386355, "internal_node_id": "0.0-128.0"}}, {"uniqueid": "MTK0081:39O5D9O87UZKROFP41A7TUKDAZM3C6", "current_trial": 174, "dateTime": 1509133748267, "trialdata": {"rt": -1, "stimulus": "<p id=\"stim\">10</p>", "key_press": -1, "trial_type": "single-stim", "trial_index": 174, "time_elapsed": 2389357, "internal_node_id": "0.0-129.0-0.0"}}, {"uniqueid": "MTK0081:39O5D9O87UZKROFP41A7TUKDAZM3C6", "current_trial": 175, "dateTime": 1509133749268, "trialdata": {"rt": -1, "stimulus": "<p id=\"stim\">9</p>", "key_press": -1, "trial_type": "single-stim", "trial_index": 175, "time_elapsed": 2390359, "internal_node_id": "0.0-129.0-1.0"}}, {"uniqueid": "MTK0081:39O5D9O87UZKROFP41A7TUKDAZM3C6", "current_trial": 176, "dateTime": 1509133750270, "trialdata": {"rt": -1, "stimulus": "<p id=\"stim\">8</p>", "key_press": -1, "trial_type": "single-stim", "trial_index": 176, "time_elapsed": 2391361, "internal_node_id": "0.0-129.0-2.0"}}, {"uniqueid": "MTK0081:39O5D9O87UZKROFP41A7TUKDAZM3C6", "current_trial": 177, "dateTime": 1509133751271, "trialdata": {"rt": -1, "stimulus": "<p id=\"stim\">7</p>", "key_press": -1, "trial_type": "single-stim", "trial_index": 177, "time_elapsed": 2392362, "internal_node_id": "0.0-129.0-3.0"}}, {"uniqueid": "MTK0081:39O5D9O87UZKROFP41A7TUKDAZM3C6", "current_trial": 178, "dateTime": 1509133752274, "trialdata": {"rt": -1, "stimulus": "<p id=\"stim\">6</p>", "key_press": -1, "trial_type": "single-stim", "trial_index": 178, "time_elapsed": 2393364, "internal_node_id": "0.0-129.0-4.0"}}, {"uniqueid": "MTK0081:39O5D9O87UZKROFP41A7TUKDAZM3C6", "current_trial": 179, "dateTime": 1509133753275, "trialdata": {"rt": -1, "stimulus": "<p id=\"stim\">5</p>", "key_press": -1, "trial_type": "single-stim", "trial_index": 179, "time_elapsed": 2394366, "internal_node_id": "0.0-129.0-5.0"}}, {"uniqueid": "MTK0081:39O5D9O87UZKROFP41A7TUKDAZM3C6", "current_trial": 180, "dateTime": 1509133754276, "trialdata": {"rt": -1, "stimulus": "<p id=\"stim\">4</p>", "key_press": -1, "trial_type": "single-stim", "trial_index": 180, "time_elapsed": 2395367, "internal_node_id": "0.0-129.0-6.0"}}, {"uniqueid": "MTK0081:39O5D9O87UZKROFP41A7TUKDAZM3C6", "current_trial": 181, "dateTime": 1509133755278, "trialdata": {"rt": -1, "stimulus": "<p id=\"stim\">3</p>", "key_press": -1, "trial_type": "single-stim", "trial_index": 181, "time_elapsed": 2396369, "internal_node_id": "0.0-129.0-7.0"}}, {"uniqueid": "MTK0081:39O5D9O87UZKROFP41A7TUKDAZM3C6", "current_trial": 182, "dateTime": 1509133756280, "trialdata": {"rt": -1, "stimulus": "<p id=\"stim\">2</p>", "key_press": -1, "trial_type": "single-stim", "trial_index": 182, "time_elapsed": 2397370, "internal_node_id": "0.0-129.0-8.0"}}, {"uniqueid": "MTK0081:39O5D9O87UZKROFP41A7TUKDAZM3C6", "current_trial": 183, "dateTime": 1509133757284, "trialdata": {"rt": -1, "stimulus": "<p id=\"stim\">1</p>", "key_press": -1, "trial_type": "single-stim", "trial_index": 183, "time_elapsed": 2398374, "internal_node_id": "0.0-129.0-9.0"}}, {"uniqueid": "MTK0081:39O5D9O87UZKROFP41A7TUKDAZM3C6", "current_trial": 184, "dateTime": 1509133758786, "trialdata": {"rt": -1, "stimulus": "<p id=\"stim\">+</p>", "key_press": -1, "type": "FIXATION", "trial_type": "single-stim", "trial_index": 184, "time_elapsed": 2399877, "internal_node_id": "0.0-130.0-0.0"}}, {"uniqueid": "MTK0081:39O5D9O87UZKROFP41A7TUKDAZM3C6", "current_trial": 185, "dateTime": 1509133759587, "trialdata": {"rt": -1, "stimulus": "<p id=\"stim\">SODA</p>", "key_press": -1, "type": "PRES_VIS", "word": "soda", "wordID": 1340, "conditions": [24, 800, "v", 24000], "trial": 5, "serialpos": 0, "trial_type": "single-stim", "trial_index": 185, "time_elapsed": 2400678, "internal_node_id": "0.0-131.0"}}, {"uniqueid": "MTK0081:39O5D9O87UZKROFP41A7TUKDAZM3C6", "current_trial": 186, "dateTime": 1509133761515, "trialdata": {"rt": -1, "stimulus": "<p id=\"stim\">SUBWAY</p>", "key_press": -1, "type": "PRES_VIS", "word": "subway", "wordID": 1399, "conditions": [24, 800, "v", 24000], "trial": 5, "serialpos": 1, "trial_type": "single-stim", "trial_index": 186, "time_elapsed": 2402606, "internal_node_id": "0.0-132.0"}}, {"uniqueid": "MTK0081:39O5D9O87UZKROFP41A7TUKDAZM3C6", "current_trial": 187, "dateTime": 1509133763456, "trialdata": {"rt": -1, "stimulus": "<p id=\"stim\">BRIEFCASE</p>", "key_press": -1, "type": "PRES_VIS", "word": "briefcase", "wordID": 174, "conditions": [24, 800, "v", 24000], "trial": 5, "serialpos": 2, "trial_type": "single-stim", "trial_index": 187, "time_elapsed": 2404547, "internal_node_id": "0.0-133.0"}}, {"uniqueid": "MTK0081:39O5D9O87UZKROFP41A7TUKDAZM3C6", "current_trial": 188, "dateTime": 1509133765201, "trialdata": {"rt": -1, "stimulus": "<p id=\"stim\">CRICKET</p>", "key_press": -1, "type": "PRES_VIS", "word": "cricket", "wordID": 407, "conditions": [24, 800, "v", 24000], "trial": 5, "serialpos": 3, "trial_type": "single-stim", "trial_index": 188, "time_elapsed": 2406292, "internal_node_id": "0.0-134.0"}}, {"uniqueid": "MTK0081:39O5D9O87UZKROFP41A7TUKDAZM3C6", "current_trial": 189, "dateTime": 1509133767102, "trialdata": {"rt": -1, "stimulus": "<p id=\"stim\">TEACHER</p>", "key_press": -1, "type": "PRES_VIS", "word": "teacher", "wordID": 1439, "conditions": [24, 800, "v", 24000], "trial": 5, "serialpos": 4, "trial_type": "single-stim", "trial_index": 189, "time_elapsed": 2408193, "internal_node_id": "0.0-135.0"}}, {"uniqueid": "MTK0081:39O5D9O87UZKROFP41A7TUKDAZM3C6", "current_trial": 190, "dateTime": 1509133768795, "trialdata": {"rt": -1, "stimulus": "<p id=\"stim\">LEG</p>", "key_press": -1, "type": "PRES_VIS", "word": "leg", "wordID": 808, "conditions": [24, 800, "v", 24000], "trial": 5, "serialpos": 5, "trial_type": "single-stim", "trial_index": 190, "time_elapsed": 2409885, "internal_node_id": "0.0-136.0"}}, {"uniqueid": "MTK0081:39O5D9O87UZKROFP41A7TUKDAZM3C6", "current_trial": 191, "dateTime": 1509133770614, "trialdata": {"rt": -1, "stimulus": "<p id=\"stim\">ANKLE</p>", "key_press": -1, "type": "PRES_VIS", "word": "ankle", "wordID": 23, "conditions": [24, 800, "v", 24000], "trial": 5, "serialpos": 6, "trial_type": "single-stim", "trial_index": 191, "time_elapsed": 2411704, "internal_node_id": "0.0-137.0"}}, {"uniqueid": "MTK0081:39O5D9O87UZKROFP41A7TUKDAZM3C6", "current_trial": 192, "dateTime": 1509133772352, "trialdata": {"rt": -1, "stimulus": "<p id=\"stim\">DOLPHIN</p>", "key_press": -1, "type": "PRES_VIS", "word": "dolphin", "wordID": 482, "conditions": [24, 800, "v", 24000], "trial": 5, "serialpos": 7, "trial_type": "single-stim", "trial_index": 192, "time_elapsed": 2413443, "internal_node_id": "0.0-138.0"}}, {"uniqueid": "MTK0081:39O5D9O87UZKROFP41A7TUKDAZM3C6", "current_trial": 193, "dateTime": 1509133774234, "trialdata": {"rt": -1, "stimulus": "<p id=\"stim\">SUITCASE</p>", "key_press": -1, "type": "PRES_VIS", "word": "suitcase", "wordID": 1402, "conditions": [24, 800, "v", 24000], "trial": 5, "serialpos": 8, "trial_type": "single-stim", "trial_index": 193, "time_elapsed": 2415324, "internal_node_id": "0.0-139.0"}}, {"uniqueid": "MTK0081:39O5D9O87UZKROFP41A7TUKDAZM3C6", "current_trial": 194, "dateTime": 1509133776095, "trialdata": {"rt": -1, "stimulus": "<p id=\"stim\">TRACTOR</p>", "key_press": -1, "type": "PRES_VIS", "word": "tractor", "wordID": 1492, "conditions": [24, 800, "v", 24000], "trial": 5, "serialpos": 9, "trial_type": "single-stim", "trial_index": 194, "time_elapsed": 2417186, "internal_node_id": "0.0-140.0"}}, {"uniqueid": "MTK0081:39O5D9O87UZKROFP41A7TUKDAZM3C6", "current_trial": 195, "dateTime": 1509133777848, "trialdata": {"rt": -1, "stimulus": "<p id=\"stim\">CABIN</p>", "key_press": -1, "type": "PRES_VIS", "word": "cabin", "wordID": 210, "conditions": [24, 800, "v", 24000], "trial": 5, "serialpos": 10, "trial_type": "single-stim", "trial_index": 195, "time_elapsed": 2418938, "internal_node_id": "0.0-141.0"}}, {"uniqueid": "MTK0081:39O5D9O87UZKROFP41A7TUKDAZM3C6", "current_trial": 196, "dateTime": 1509133779610, "trialdata": {"rt": -1, "stimulus": "<p id=\"stim\">COIN</p>", "key_press": -1, "type": "PRES_VIS", "word": "coin", "wordID": 342, "conditions": [24, 800, "v", 24000], "trial": 5, "serialpos": 11, "trial_type": "single-stim", "trial_index": 196, "time_elapsed": 2420699, "internal_node_id": "0.0-142.0"}}, {"uniqueid": "MTK0081:39O5D9O87UZKROFP41A7TUKDAZM3C6", "current_trial": 197, "dateTime": 1509133781452, "trialdata": {"rt": -1, "stimulus": "<p id=\"stim\">QUEEN</p>", "key_press": -1, "type": "PRES_VIS", "word": "queen", "wordID": 1148, "conditions": [24, 800, "v", 24000], "trial": 5, "serialpos": 12, "trial_type": "single-stim", "trial_index": 197, "time_elapsed": 2422542, "internal_node_id": "0.0-143.0"}}, {"uniqueid": "MTK0081:39O5D9O87UZKROFP41A7TUKDAZM3C6", "current_trial": 198, "dateTime": 1509133783060, "trialdata": {"rt": -1, "stimulus": "<p id=\"stim\">SHIRT</p>", "key_press": -1, "type": "PRES_VIS", "word": "shirt", "wordID": 1286, "conditions": [24, 800, "v", 24000], "trial": 5, "serialpos": 13, "trial_type": "single-stim", "trial_index": 198, "time_elapsed": 2424150, "internal_node_id": "0.0-144.0"}}, {"uniqueid": "MTK0081:39O5D9O87UZKROFP41A7TUKDAZM3C6", "current_trial": 199, "dateTime": 1509133784968, "trialdata": {"rt": -1, "stimulus": "<p id=\"stim\">PLASTER</p>", "key_press": -1, "type": "PRES_VIS", "word": "plaster", "wordID": 1084, "conditions": [24, 800, "v", 24000], "trial": 5, "serialpos": 14, "trial_type": "single-stim", "trial_index": 199, "time_elapsed": 2426059, "internal_node_id": "0.0-145.0"}}, {"uniqueid": "MTK0081:39O5D9O87UZKROFP41A7TUKDAZM3C6", "current_trial": 200, "dateTime": 1509133786699, "trialdata": {"rt": -1, "stimulus": "<p id=\"stim\">ANTLER</p>", "key_press": -1, "type": "PRES_VIS", "word": "antler", "wordID": 28, "conditions": [24, 800, "v", 24000], "trial": 5, "serialpos": 15, "trial_type": "single-stim", "trial_index": 200, "time_elapsed": 2427790, "internal_node_id": "0.0-146.0"}}, {"uniqueid": "MTK0081:39O5D9O87UZKROFP41A7TUKDAZM3C6", "current_trial": 201, "dateTime": 1509133788615, "trialdata": {"rt": -1, "stimulus": "<p id=\"stim\">HEADBAND</p>", "key_press": -1, "type": "PRES_VIS", "word": "headband", "wordID": 695, "conditions": [24, 800, "v", 24000], "trial": 5, "serialpos": 16, "trial_type": "single-stim", "trial_index": 201, "time_elapsed": 2429706, "internal_node_id": "0.0-147.0"}}, {"uniqueid": "MTK0081:39O5D9O87UZKROFP41A7TUKDAZM3C6", "current_trial": 202, "dateTime": 1509133790528, "trialdata": {"rt": -1, "stimulus": "<p id=\"stim\">POWDER</p>", "key_press": -1, "type": "PRES_VIS", "word": "powder", "wordID": 1116, "conditions": [24, 800, "v", 24000], "trial": 5, "serialpos": 17, "trial_type": "single-stim", "trial_index": 202, "time_elapsed": 2431618, "internal_node_id": "0.0-148.0"}}, {"uniqueid": "MTK0081:39O5D9O87UZKROFP41A7TUKDAZM3C6", "current_trial": 203, "dateTime": 1509133792152, "trialdata": {"rt": -1, "stimulus": "<p id=\"stim\">TOASTER</p>", "key_press": -1, "type": "PRES_VIS", "word": "toaster", "wordID": 1471, "conditions": [24, 800, "v", 24000], "trial": 5, "serialpos": 18, "trial_type": "single-stim", "trial_index": 203, "time_elapsed": 2433243, "internal_node_id": "0.0-149.0"}}, {"uniqueid": "MTK0081:39O5D9O87UZKROFP41A7TUKDAZM3C6", "current_trial": 204, "dateTime": 1509133794070, "trialdata": {"rt": -1, "stimulus": "<p id=\"stim\">SCARECROW</p>", "key_press": -1, "type": "PRES_VIS", "word": "scarecrow", "wordID": 1244, "conditions": [24, 800, "v", 24000], "trial": 5, "serialpos": 19, "trial_type": "single-stim", "trial_index": 204, "time_elapsed": 2435161, "internal_node_id": "0.0-150.0"}}, {"uniqueid": "MTK0081:39O5D9O87UZKROFP41A7TUKDAZM3C6", "current_trial": 205, "dateTime": 1509133795860, "trialdata": {"rt": -1, "stimulus": "<p id=\"stim\">PATROL</p>", "key_press": -1, "type": "PRES_VIS", "word": "patrol", "wordID": 1026, "conditions": [24, 800, "v", 24000], "trial": 5, "serialpos": 20, "trial_type": "single-stim", "trial_index": 205, "time_elapsed": 2436951, "internal_node_id": "0.0-151.0"}}, {"uniqueid": "MTK0081:39O5D9O87UZKROFP41A7TUKDAZM3C6", "current_trial": 206, "dateTime": 1509133797652, "trialdata": {"rt": -1, "stimulus": "<p id=\"stim\">POLICE</p>", "key_press": -1, "type": "PRES_VIS", "word": "police", "wordID": 1097, "conditions": [24, 800, "v", 24000], "trial": 5, "serialpos": 21, "trial_type": "single-stim", "trial_index": 206, "time_elapsed": 2438743, "internal_node_id": "0.0-152.0"}}, {"uniqueid": "MTK0081:39O5D9O87UZKROFP41A7TUKDAZM3C6", "current_trial": 207, "dateTime": 1509133799346, "trialdata": {"rt": -1, "stimulus": "<p id=\"stim\">HOSTESS</p>", "key_press": -1, "type": "PRES_VIS", "word": "hostess", "wordID": 722, "conditions": [24, 800, "v", 24000], "trial": 5, "serialpos": 22, "trial_type": "single-stim", "trial_index": 207, "time_elapsed": 2440436, "internal_node_id": "0.0-153.0"}}, {"uniqueid": "MTK0081:39O5D9O87UZKROFP41A7TUKDAZM3C6", "current_trial": 208, "dateTime": 1509133800954, "trialdata": {"rt": -1, "stimulus": "<p id=\"stim\">MARROW</p>", "key_press": -1, "type": "PRES_VIS", "word": "marrow", "wordID": 871, "conditions": [24, 800, "v", 24000], "trial": 5, "serialpos": 23, "trial_type": "single-stim", "trial_index": 208, "time_elapsed": 2442044, "internal_node_id": "0.0-154.0"}}, {"uniqueid": "MTK0081:39O5D9O87UZKROFP41A7TUKDAZM3C6", "current_trial": 209, "dateTime": 1509133803439, "trialdata": {"rt": -1, "stimulus": "", "key_press": -1, "type": "PRE_RECALL_DELAY", "trial_type": "single-stim", "trial_index": 209, "time_elapsed": 2444529, "internal_node_id": "0.0-155.0-0.0"}}, {"uniqueid": "MTK0081:39O5D9O87UZKROFP41A7TUKDAZM3C6", "current_trial": 210, "dateTime": 1509133803941, "trialdata": {"rt": -1000, "stimulus": "/static/audio/400Hz.wav", "key_press": -1, "type": "PRE_RECALL_ALERT", "trial_type": "single-audio", "trial_index": 210, "time_elapsed": 2445032, "internal_node_id": "0.0-156.0"}}, {"uniqueid": "MTK0081:39O5D9O87UZKROFP41A7TUKDAZM3C6", "current_trial": 211, "dateTime": 1509133863948, "trialdata": {"rt": [15112, 16291, 18757, 22127, 24090, 26125, 28324, 29012, 30130, 31667, 34255, 39028, 40957, 43998, 46704, 50418], "recwords": ["suitcase", "queen", "tailor", "hostess", "mattress", "toaster", "headband", "leg", "ankle", "marrow", "hostess", "antler", "shirt", "suitcase", "tractor", "powder"], "type": "FREE_RECALL", "conditions": [24, 800, "v", 24000], "trial": 5, "trial_type": "free-recall", "trial_index": 211, "time_elapsed": 2505035, "internal_node_id": "0.0-157.0-0.0"}}, {"uniqueid": "MTK0081:39O5D9O87UZKROFP41A7TUKDAZM3C6", "current_trial": 212, "dateTime": 1509133873305, "trialdata": {"rt": 7354, "key_press": 32, "type": "INSTRUCTIONS", "trial_type": "text", "trial_index": 212, "time_elapsed": 2514395, "internal_node_id": "0.0-158.0"}}, {"uniqueid": "MTK0081:39O5D9O87UZKROFP41A7TUKDAZM3C6", "current_trial": 213, "dateTime": 1509133887311, "trialdata": {"rt": [7034, 10988], "responses": ["11", "20"], "num1": [5, 5, 6], "num2": [3, 6, 9], "num3": [3, 9, 5], "type": "DISTRACTOR", "conditions": [12, 1600, "v", 12000], "trial": 6, "trial_type": "math-distractor", "trial_index": 213, "time_elapsed": 2528402, "internal_node_id": "0.0-159.0"}}, {"uniqueid": "MTK0081:39O5D9O87UZKROFP41A7TUKDAZM3C6", "current_trial": 214, "dateTime": 1509133890315, "trialdata": {"rt": -1, "stimulus": "<p id=\"stim\">10</p>", "key_press": -1, "trial_type": "single-stim", "trial_index": 214, "time_elapsed": 2531406, "internal_node_id": "0.0-160.0-0.0"}}, {"uniqueid": "MTK0081:39O5D9O87UZKROFP41A7TUKDAZM3C6", "current_trial": 215, "dateTime": 1509133891316, "trialdata": {"rt": -1, "stimulus": "<p id=\"stim\">9</p>", "key_press": -1, "trial_type": "single-stim", "trial_index": 215, "time_elapsed": 2532407, "internal_node_id": "0.0-160.0-1.0"}}, {"uniqueid": "MTK0081:39O5D9O87UZKROFP41A7TUKDAZM3C6", "current_trial": 216, "dateTime": 1509133892316, "trialdata": {"rt": -1, "stimulus": "<p id=\"stim\">8</p>", "key_press": -1, "trial_type": "single-stim", "trial_index": 216, "time_elapsed": 2533407, "internal_node_id": "0.0-160.0-2.0"}}, {"uniqueid": "MTK0081:39O5D9O87UZKROFP41A7TUKDAZM3C6", "current_trial": 217, "dateTime": 1509133893319, "trialdata": {"rt": -1, "stimulus": "<p id=\"stim\">7</p>", "key_press": -1, "trial_type": "single-stim", "trial_index": 217, "time_elapsed": 2534409, "internal_node_id": "0.0-160.0-3.0"}}, {"uniqueid": "MTK0081:39O5D9O87UZKROFP41A7TUKDAZM3C6", "current_trial": 218, "dateTime": 1509133894321, "trialdata": {"rt": -1, "stimulus": "<p id=\"stim\">6</p>", "key_press": -1, "trial_type": "single-stim", "trial_index": 218, "time_elapsed": 2535411, "internal_node_id": "0.0-160.0-4.0"}}, {"uniqueid": "MTK0081:39O5D9O87UZKROFP41A7TUKDAZM3C6", "current_trial": 219, "dateTime": 1509133895324, "trialdata": {"rt": -1, "stimulus": "<p id=\"stim\">5</p>", "key_press": -1, "trial_type": "single-stim", "trial_index": 219, "time_elapsed": 2536414, "internal_node_id": "0.0-160.0-5.0"}}, {"uniqueid": "MTK0081:39O5D9O87UZKROFP41A7TUKDAZM3C6", "current_trial": 220, "dateTime": 1509133896327, "trialdata": {"rt": -1, "stimulus": "<p id=\"stim\">4</p>", "key_press": -1, "trial_type": "single-stim", "trial_index": 220, "time_elapsed": 2537418, "internal_node_id": "0.0-160.0-6.0"}}, {"uniqueid": "MTK0081:39O5D9O87UZKROFP41A7TUKDAZM3C6", "current_trial": 221, "dateTime": 1509133897329, "trialdata": {"rt": -1, "stimulus": "<p id=\"stim\">3</p>", "key_press": -1, "trial_type": "single-stim", "trial_index": 221, "time_elapsed": 2538420, "internal_node_id": "0.0-160.0-7.0"}}, {"uniqueid": "MTK0081:39O5D9O87UZKROFP41A7TUKDAZM3C6", "current_trial": 222, "dateTime": 1509133898330, "trialdata": {"rt": -1, "stimulus": "<p id=\"stim\">2</p>", "key_press": -1, "trial_type": "single-stim", "trial_index": 222, "time_elapsed": 2539421, "internal_node_id": "0.0-160.0-8.0"}}, {"uniqueid": "MTK0081:39O5D9O87UZKROFP41A7TUKDAZM3C6", "current_trial": 223, "dateTime": 1509133899332, "trialdata": {"rt": -1, "stimulus": "<p id=\"stim\">1</p>", "key_press": -1, "trial_type": "single-stim", "trial_index": 223, "time_elapsed": 2540422, "internal_node_id": "0.0-160.0-9.0"}}, {"uniqueid": "MTK0081:39O5D9O87UZKROFP41A7TUKDAZM3C6", "current_trial": 224, "dateTime": 1509133900835, "trialdata": {"rt": -1, "stimulus": "<p id=\"stim\">+</p>", "key_press": -1, "type": "FIXATION", "trial_type": "single-stim", "trial_index": 224, "time_elapsed": 2541925, "internal_node_id": "0.0-161.0-0.0"}}, {"uniqueid": "MTK0081:39O5D9O87UZKROFP41A7TUKDAZM3C6", "current_trial": 225, "dateTime": 1509133902436, "trialdata": {"rt": -1, "stimulus": "<p id=\"stim\">TROUT</p>", "key_press": -1, "type": "PRES_VIS", "word": "trout", "wordID": 1510, "conditions": [12, 1600, "v", 12000], "trial": 6, "serialpos": 0, "trial_type": "single-stim", "trial_index": 225, "time_elapsed": 2543527, "internal_node_id": "0.0-162.0"}}, {"uniqueid": "MTK0081:39O5D9O87UZKROFP41A7TUKDAZM3C6", "current_trial": 226, "dateTime": 1509133904991, "trialdata": {"rt": -1, "stimulus": "<p id=\"stim\">HUSBAND</p>", "key_press": -1, "type": "PRES_VIS", "word": "husband", "wordID": 727, "conditions": [12, 1600, "v", 12000], "trial": 6, "serialpos": 1, "trial_type": "single-stim", "trial_index": 226, "time_elapsed": 2546081, "internal_node_id": "0.0-163.0"}}, {"uniqueid": "MTK0081:39O5D9O87UZKROFP41A7TUKDAZM3C6", "current_trial": 227, "dateTime": 1509133907635, "trialdata": {"rt": -1, "stimulus": "<p id=\"stim\">SPOUSE</p>", "key_press": -1, "type": "PRES_VIS", "word": "spouse", "wordID": 1357, "conditions": [12, 1600, "v", 12000], "trial": 6, "serialpos": 2, "trial_type": "single-stim", "trial_index": 227, "time_elapsed": 2548726, "internal_node_id": "0.0-164.0"}}, {"uniqueid": "MTK0081:39O5D9O87UZKROFP41A7TUKDAZM3C6", "current_trial": 228, "dateTime": 1509133910307, "trialdata": {"rt": -1, "stimulus": "<p id=\"stim\">ARM</p>", "key_press": -1, "type": "PRES_VIS", "word": "arm", "wordID": 37, "conditions": [12, 1600, "v", 12000], "trial": 6, "serialpos": 3, "trial_type": "single-stim", "trial_index": 228, "time_elapsed": 2551397, "internal_node_id": "0.0-165.0"}}, {"uniqueid": "MTK0081:39O5D9O87UZKROFP41A7TUKDAZM3C6", "current_trial": 229, "dateTime": 1509133912824, "trialdata": {"rt": -1, "stimulus": "<p id=\"stim\">SALMON</p>", "key_press": -1, "type": "PRES_VIS", "word": "salmon", "wordID": 1226, "conditions": [12, 1600, "v", 12000], "trial": 6, "serialpos": 4, "trial_type": "single-stim", "trial_index": 229, "time_elapsed": 2553914, "internal_node_id": "0.0-166.0"}}, {"uniqueid": "MTK0081:39O5D9O87UZKROFP41A7TUKDAZM3C6", "current_trial": 230, "dateTime": 1509133915244, "trialdata": {"rt": -1, "stimulus": "<p id=\"stim\">CONVICT</p>", "key_press": -1, "type": "PRES_VIS", "word": "convict", "wordID": 370, "conditions": [12, 1600, "v", 12000], "trial": 6, "serialpos": 5, "trial_type": "single-stim", "trial_index": 230, "time_elapsed": 2556335, "internal_node_id": "0.0-167.0"}}, {"uniqueid": "MTK0081:39O5D9O87UZKROFP41A7TUKDAZM3C6", "current_trial": 231, "dateTime": 1509133917866, "trialdata": {"rt": -1, "stimulus": "<p id=\"stim\">HEDGE</p>", "key_press": -1, "type": "PRES_VIS", "word": "hedge", "wordID": 698, "conditions": [12, 1600, "v", 12000], "trial": 6, "serialpos": 6, "trial_type": "single-stim", "trial_index": 231, "time_elapsed": 2558957, "internal_node_id": "0.0-168.0"}}, {"uniqueid": "MTK0081:39O5D9O87UZKROFP41A7TUKDAZM3C6", "current_trial": 232, "dateTime": 1509133920480, "trialdata": {"rt": -1, "stimulus": "<p id=\"stim\">GIRL</p>", "key_press": -1, "type": "PRES_VIS", "word": "girl", "wordID": 636, "conditions": [12, 1600, "v", 12000], "trial": 6, "serialpos": 7, "trial_type": "single-stim", "trial_index": 232, "time_elapsed": 2561571, "internal_node_id": "0.0-169.0"}}, {"uniqueid": "MTK0081:39O5D9O87UZKROFP41A7TUKDAZM3C6", "current_trial": 233, "dateTime": 1509133923023, "trialdata": {"rt": -1, "stimulus": "<p id=\"stim\">HEART</p>", "key_press": -1, "type": "PRES_VIS", "word": "heart", "wordID": 696, "conditions": [12, 1600, "v", 12000], "trial": 6, "serialpos": 8, "trial_type": "single-stim", "trial_index": 233, "time_elapsed": 2564113, "internal_node_id": "0.0-170.0"}}, {"uniqueid": "MTK0081:39O5D9O87UZKROFP41A7TUKDAZM3C6", "current_trial": 234, "dateTime": 1509133925581, "trialdata": {"rt": -1, "stimulus": "<p id=\"stim\">FOOT</p>", "key_press": -1, "type": "PRES_VIS", "word": "foot", "wordID": 589, "conditions": [12, 1600, "v", 12000], "trial": 6, "serialpos": 9, "trial_type": "single-stim", "trial_index": 234, "time_elapsed": 2566672, "internal_node_id": "0.0-171.0"}}, {"uniqueid": "MTK0081:39O5D9O87UZKROFP41A7TUKDAZM3C6", "current_trial": 235, "dateTime": 1509133928227, "trialdata": {"rt": -1, "stimulus": "<p id=\"stim\">NECKLACE</p>", "key_press": -1, "type": "PRES_VIS", "word": "necklace", "wordID": 939, "conditions": [12, 1600, "v", 12000], "trial": 6, "serialpos": 10, "trial_type": "single-stim", "trial_index": 235, "time_elapsed": 2569317, "internal_node_id": "0.0-172.0"}}, {"uniqueid": "MTK0081:39O5D9O87UZKROFP41A7TUKDAZM3C6", "current_trial": 236, "dateTime": 1509133931004, "trialdata": {"rt": -1, "stimulus": "<p id=\"stim\">COMPASS</p>", "key_press": -1, "type": "PRES_VIS", "word": "compass", "wordID": 357, "conditions": [12, 1600, "v", 12000], "trial": 6, "serialpos": 11, "trial_type": "single-stim", "trial_index": 236, "time_elapsed": 2572094, "internal_node_id": "0.0-173.0"}}, {"uniqueid": "MTK0081:39O5D9O87UZKROFP41A7TUKDAZM3C6", "current_trial": 237, "dateTime": 1509133933182, "trialdata": {"rt": -1, "stimulus": "", "key_press": -1, "type": "PRE_RECALL_DELAY", "trial_type": "single-stim", "trial_index": 237, "time_elapsed": 2574272, "internal_node_id": "0.0-174.0-0.0"}}, {"uniqueid": "MTK0081:39O5D9O87UZKROFP41A7TUKDAZM3C6", "current_trial": 238, "dateTime": 1509133933683, "trialdata": {"rt": -1000, "stimulus": "/static/audio/400Hz.wav", "key_press": -1, "type": "PRE_RECALL_ALERT", "trial_type": "single-audio", "trial_index": 238, "time_elapsed": 2574774, "internal_node_id": "0.0-175.0"}}, {"uniqueid": "MTK0081:39O5D9O87UZKROFP41A7TUKDAZM3C6", "current_trial": 239, "dateTime": 1509133993693, "trialdata": {"rt": [4041, 5811, 7077, 8508, 10357, 11886, 13451, 19970, 21600, 22736, 24863, 28435, 31050, 32317], "recwords": ["compass", "trouy", "husband", "girl", "hedge", "heart", "foot", "necklace", "compass", "trout", "arm", "spouse", "convict", "hedge"], "type": "FREE_RECALL", "conditions": [12, 1600, "v", 12000], "trial": 6, "trial_type": "free-recall", "trial_index": 239, "time_elapsed": 2634778, "internal_node_id": "0.0-176.0-0.0"}}, {"uniqueid": "MTK0081:39O5D9O87UZKROFP41A7TUKDAZM3C6", "current_trial": 240, "dateTime": 1509134006385, "trialdata": {"rt": 10689, "key_press": 32, "type": "INSTRUCTIONS", "trial_type": "text", "trial_index": 240, "time_elapsed": 2647476, "internal_node_id": "0.0-177.0"}}, {"uniqueid": "MTK0081:39O5D9O87UZKROFP41A7TUKDAZM3C6", "current_trial": 241, "dateTime": 1509134020389, "trialdata": {"rt": [2794, 4880, 7709, 10355], "responses": ["15", "20", "19", "13"], "num1": [4, 6, 9, 3, 1], "num2": [2, 6, 5, 3, 5], "num3": [9, 8, 5, 7, 3], "type": "DISTRACTOR", "conditions": [24, 800, "v", 12000], "trial": 7, "trial_type": "math-distractor", "trial_index": 241, "time_elapsed": 2661480, "internal_node_id": "0.0-178.0"}}, {"uniqueid": "MTK0081:39O5D9O87UZKROFP41A7TUKDAZM3C6", "current_trial": 242, "dateTime": 1509134023394, "trialdata": {"rt": -1, "stimulus": "<p id=\"stim\">10</p>", "key_press": -1, "trial_type": "single-stim", "trial_index": 242, "time_elapsed": 2664484, "internal_node_id": "0.0-179.0-0.0"}}, {"uniqueid": "MTK0081:39O5D9O87UZKROFP41A7TUKDAZM3C6", "current_trial": 243, "dateTime": 1509134024396, "trialdata": {"rt": -1, "stimulus": "<p id=\"stim\">9</p>", "key_press": -1, "trial_type": "single-stim", "trial_index": 243, "time_elapsed": 2665487, "internal_node_id": "0.0-179.0-1.0"}}, {"uniqueid": "MTK0081:39O5D9O87UZKROFP41A7TUKDAZM3C6", "current_trial": 244, "dateTime": 1509134025400, "trialdata": {"rt": -1, "stimulus": "<p id=\"stim\">8</p>", "key_press": -1, "trial_type": "single-stim", "trial_index": 244, "time_elapsed": 2666490, "internal_node_id": "0.0-179.0-2.0"}}, {"uniqueid": "MTK0081:39O5D9O87UZKROFP41A7TUKDAZM3C6", "current_trial": 245, "dateTime": 1509134026402, "trialdata": {"rt": -1, "stimulus": "<p id=\"stim\">7</p>", "key_press": -1, "trial_type": "single-stim", "trial_index": 245, "time_elapsed": 2667493, "internal_node_id": "0.0-179.0-3.0"}}, {"uniqueid": "MTK0081:39O5D9O87UZKROFP41A7TUKDAZM3C6", "current_trial": 246, "dateTime": 1509134027405, "trialdata": {"rt": -1, "stimulus": "<p id=\"stim\">6</p>", "key_press": -1, "trial_type": "single-stim", "trial_index": 246, "time_elapsed": 2668496, "internal_node_id": "0.0-179.0-4.0"}}, {"uniqueid": "MTK0081:39O5D9O87UZKROFP41A7TUKDAZM3C6", "current_trial": 247, "dateTime": 1509134028407, "trialdata": {"rt": -1, "stimulus": "<p id=\"stim\">5</p>", "key_press": -1, "trial_type": "single-stim", "trial_index": 247, "time_elapsed": 2669498, "internal_node_id": "0.0-179.0-5.0"}}, {"uniqueid": "MTK0081:39O5D9O87UZKROFP41A7TUKDAZM3C6", "current_trial": 248, "dateTime": 1509134029410, "trialdata": {"rt": -1, "stimulus": "<p id=\"stim\">4</p>", "key_press": -1, "trial_type": "single-stim", "trial_index": 248, "time_elapsed": 2670500, "internal_node_id": "0.0-179.0-6.0"}}, {"uniqueid": "MTK0081:39O5D9O87UZKROFP41A7TUKDAZM3C6", "current_trial": 249, "dateTime": 1509134030412, "trialdata": {"rt": -1, "stimulus": "<p id=\"stim\">3</p>", "key_press": -1, "trial_type": "single-stim", "trial_index": 249, "time_elapsed": 2671502, "internal_node_id": "0.0-179.0-7.0"}}, {"uniqueid": "MTK0081:39O5D9O87UZKROFP41A7TUKDAZM3C6", "current_trial": 250, "dateTime": 1509134031413, "trialdata": {"rt": -1, "stimulus": "<p id=\"stim\">2</p>", "key_press": -1, "trial_type": "single-stim", "trial_index": 250, "time_elapsed": 2672504, "internal_node_id": "0.0-179.0-8.0"}}, {"uniqueid": "MTK0081:39O5D9O87UZKROFP41A7TUKDAZM3C6", "current_trial": 251, "dateTime": 1509134032415, "trialdata": {"rt": -1, "stimulus": "<p id=\"stim\">1</p>", "key_press": -1, "trial_type": "single-stim", "trial_index": 251, "time_elapsed": 2673506, "internal_node_id": "0.0-179.0-9.0"}}, {"uniqueid": "MTK0081:39O5D9O87UZKROFP41A7TUKDAZM3C6", "current_trial": 252, "dateTime": 1509134033918, "trialdata": {"rt": -1, "stimulus": "<p id=\"stim\">+</p>", "key_press": -1, "type": "FIXATION", "trial_type": "single-stim", "trial_index": 252, "time_elapsed": 2675009, "internal_node_id": "0.0-180.0-0.0"}}, {"uniqueid": "MTK0081:39O5D9O87UZKROFP41A7TUKDAZM3C6", "current_trial": 253, "dateTime": 1509134034721, "trialdata": {"rt": -1, "stimulus": "<p id=\"stim\">FINGER</p>", "key_press": -1, "type": "PRES_VIS", "word": "finger", "wordID": 566, "conditions": [24, 800, "v", 12000], "trial": 7, "serialpos": 0, "trial_type": "single-stim", "trial_index": 253, "time_elapsed": 2675812, "internal_node_id": "0.0-181.0"}}, {"uniqueid": "MTK0081:39O5D9O87UZKROFP41A7TUKDAZM3C6", "current_trial": 254, "dateTime": 1509134036516, "trialdata": {"rt": -1, "stimulus": "<p id=\"stim\">ROBBER</p>", "key_press": -1, "type": "PRES_VIS", "word": "robber", "wordID": 1196, "conditions": [24, 800, "v", 12000], "trial": 7, "serialpos": 1, "trial_type": "single-stim", "trial_index": 254, "time_elapsed": 2677607, "internal_node_id": "0.0-182.0"}}, {"uniqueid": "MTK0081:39O5D9O87UZKROFP41A7TUKDAZM3C6", "current_trial": 255, "dateTime": 1509134038334, "trialdata": {"rt": -1, "stimulus": "<p id=\"stim\">MAILMAN</p>", "key_press": -1, "type": "PRES_VIS", "word": "mailman", "wordID": 857, "conditions": [24, 800, "v", 12000], "trial": 7, "serialpos": 2, "trial_type": "single-stim", "trial_index": 255, "time_elapsed": 2679424, "internal_node_id": "0.0-183.0"}}, {"uniqueid": "MTK0081:39O5D9O87UZKROFP41A7TUKDAZM3C6", "current_trial": 256, "dateTime": 1509134040016, "trialdata": {"rt": -1, "stimulus": "<p id=\"stim\">NURSE</p>", "key_press": -1, "type": "PRES_VIS", "word": "nurse", "wordID": 962, "conditions": [24, 800, "v", 12000], "trial": 7, "serialpos": 3, "trial_type": "single-stim", "trial_index": 256, "time_elapsed": 2681107, "internal_node_id": "0.0-184.0"}}, {"uniqueid": "MTK0081:39O5D9O87UZKROFP41A7TUKDAZM3C6", "current_trial": 257, "dateTime": 1509134041945, "trialdata": {"rt": -1, "stimulus": "<p id=\"stim\">SALAD</p>", "key_press": -1, "type": "PRES_VIS", "word": "salad", "wordID": 1223, "conditions": [24, 800, "v", 12000], "trial": 7, "serialpos": 4, "trial_type": "single-stim", "trial_index": 257, "time_elapsed": 2683035, "internal_node_id": "0.0-185.0"}}, {"uniqueid": "MTK0081:39O5D9O87UZKROFP41A7TUKDAZM3C6", "current_trial": 258, "dateTime": 1509134043665, "trialdata": {"rt": -1, "stimulus": "<p id=\"stim\">LIPSTICK</p>", "key_press": -1, "type": "PRES_VIS", "word": "lipstick", "wordID": 828, "conditions": [24, 800, "v", 12000], "trial": 7, "serialpos": 5, "trial_type": "single-stim", "trial_index": 258, "time_elapsed": 2684756, "internal_node_id": "0.0-186.0"}}, {"uniqueid": "MTK0081:39O5D9O87UZKROFP41A7TUKDAZM3C6", "current_trial": 259, "dateTime": 1509134045600, "trialdata": {"rt": -1, "stimulus": "<p id=\"stim\">SUPPER</p>", "key_press": -1, "type": "PRES_VIS", "word": "supper", "wordID": 1410, "conditions": [24, 800, "v", 12000], "trial": 7, "serialpos": 6, "trial_type": "single-stim", "trial_index": 259, "time_elapsed": 2686690, "internal_node_id": "0.0-187.0"}}, {"uniqueid": "MTK0081:39O5D9O87UZKROFP41A7TUKDAZM3C6", "current_trial": 260, "dateTime": 1509134047450, "trialdata": {"rt": -1, "stimulus": "<p id=\"stim\">PICNIC</p>", "key_press": -1, "type": "PRES_VIS", "word": "picnic", "wordID": 1059, "conditions": [24, 800, "v", 12000], "trial": 7, "serialpos": 7, "trial_type": "single-stim", "trial_index": 260, "time_elapsed": 2688540, "internal_node_id": "0.0-188.0"}}, {"uniqueid": "MTK0081:39O5D9O87UZKROFP41A7TUKDAZM3C6", "current_trial": 261, "dateTime": 1509134049237, "trialdata": {"rt": -1, "stimulus": "<p id=\"stim\">BIKE</p>", "key_press": -1, "type": "PRES_VIS", "word": "bike", "wordID": 124, "conditions": [24, 800, "v", 12000], "trial": 7, "serialpos": 8, "trial_type": "single-stim", "trial_index": 261, "time_elapsed": 2690328, "internal_node_id": "0.0-189.0"}}, {"uniqueid": "MTK0081:39O5D9O87UZKROFP41A7TUKDAZM3C6", "current_trial": 262, "dateTime": 1509134050904, "trialdata": {"rt": -1, "stimulus": "<p id=\"stim\">SPOON</p>", "key_press": -1, "type": "PRES_VIS", "word": "spoon", "wordID": 1356, "conditions": [24, 800, "v", 12000], "trial": 7, "serialpos": 9, "trial_type": "single-stim", "trial_index": 262, "time_elapsed": 2691994, "internal_node_id": "0.0-190.0"}}, {"uniqueid": "MTK0081:39O5D9O87UZKROFP41A7TUKDAZM3C6", "current_trial": 263, "dateTime": 1509134052774, "trialdata": {"rt": -1, "stimulus": "<p id=\"stim\">SANDWICH</p>", "key_press": -1, "type": "PRES_VIS", "word": "sandwich", "wordID": 1231, "conditions": [24, 800, "v", 12000], "trial": 7, "serialpos": 10, "trial_type": "single-stim", "trial_index": 263, "time_elapsed": 2693865, "internal_node_id": "0.0-191.0"}}, {"uniqueid": "MTK0081:39O5D9O87UZKROFP41A7TUKDAZM3C6", "current_trial": 264, "dateTime": 1509134054740, "trialdata": {"rt": -1, "stimulus": "<p id=\"stim\">POSTAGE</p>", "key_press": -1, "type": "PRES_VIS", "word": "postage", "wordID": 1112, "conditions": [24, 800, "v", 12000], "trial": 7, "serialpos": 11, "trial_type": "single-stim", "trial_index": 264, "time_elapsed": 2695831, "internal_node_id": "0.0-192.0"}}, {"uniqueid": "MTK0081:39O5D9O87UZKROFP41A7TUKDAZM3C6", "current_trial": 265, "dateTime": 1509134056428, "trialdata": {"rt": -1, "stimulus": "<p id=\"stim\">CHILD</p>", "key_press": -1, "type": "PRES_VIS", "word": "child", "wordID": 298, "conditions": [24, 800, "v", 12000], "trial": 7, "serialpos": 12, "trial_type": "single-stim", "trial_index": 265, "time_elapsed": 2697518, "internal_node_id": "0.0-193.0"}}, {"uniqueid": "MTK0081:39O5D9O87UZKROFP41A7TUKDAZM3C6", "current_trial": 266, "dateTime": 1509134058236, "trialdata": {"rt": -1, "stimulus": "<p id=\"stim\">HONEY</p>", "key_press": -1, "type": "PRES_VIS", "word": "honey", "wordID": 712, "conditions": [24, 800, "v", 12000], "trial": 7, "serialpos": 13, "trial_type": "single-stim", "trial_index": 266, "time_elapsed": 2699326, "internal_node_id": "0.0-194.0"}}, {"uniqueid": "MTK0081:39O5D9O87UZKROFP41A7TUKDAZM3C6", "current_trial": 267, "dateTime": 1509134059915, "trialdata": {"rt": -1, "stimulus": "<p id=\"stim\">BASEMENT</p>", "key_press": -1, "type": "PRES_VIS", "word": "basement", "wordID": 93, "conditions": [24, 800, "v", 12000], "trial": 7, "serialpos": 14, "trial_type": "single-stim", "trial_index": 267, "time_elapsed": 2701006, "internal_node_id": "0.0-195.0"}}, {"uniqueid": "MTK0081:39O5D9O87UZKROFP41A7TUKDAZM3C6", "current_trial": 268, "dateTime": 1509134061816, "trialdata": {"rt": -1, "stimulus": "<p id=\"stim\">HOOK</p>", "key_press": -1, "type": "PRES_VIS", "word": "hook", "wordID": 714, "conditions": [24, 800, "v", 12000], "trial": 7, "serialpos": 15, "trial_type": "single-stim", "trial_index": 268, "time_elapsed": 2702907, "internal_node_id": "0.0-196.0"}}, {"uniqueid": "MTK0081:39O5D9O87UZKROFP41A7TUKDAZM3C6", "current_trial": 269, "dateTime": 1509134063666, "trialdata": {"rt": -1, "stimulus": "<p id=\"stim\">HAND</p>", "key_press": -1, "type": "PRES_VIS", "word": "hand", "wordID": 682, "conditions": [24, 800, "v", 12000], "trial": 7, "serialpos": 16, "trial_type": "single-stim", "trial_index": 269, "time_elapsed": 2704757, "internal_node_id": "0.0-197.0"}}, {"uniqueid": "MTK0081:39O5D9O87UZKROFP41A7TUKDAZM3C6", "current_trial": 270, "dateTime": 1509134065421, "trialdata": {"rt": -1, "stimulus": "<p id=\"stim\">WHISKERS</p>", "key_press": -1, "type": "PRES_VIS", "word": "whiskers", "wordID": 1604, "conditions": [24, 800, "v", 12000], "trial": 7, "serialpos": 17, "trial_type": "single-stim", "trial_index": 270, "time_elapsed": 2706511, "internal_node_id": "0.0-198.0"}}, {"uniqueid": "MTK0081:39O5D9O87UZKROFP41A7TUKDAZM3C6", "current_trial": 271, "dateTime": 1509134067276, "trialdata": {"rt": -1, "stimulus": "<p id=\"stim\">MASK</p>", "key_press": -1, "type": "PRES_VIS", "word": "mask", "wordID": 875, "conditions": [24, 800, "v", 12000], "trial": 7, "serialpos": 18, "trial_type": "single-stim", "trial_index": 271, "time_elapsed": 2708367, 