{"condition": 0, "counterbalance": 427, "assignmentId": "34QN5IT0T0YMYTQF42CJPAQNJYL80K", "workerId": "MTK0483", "hitId": "3UV0D2KX1MQAPCK95F0PML129H9F40", "currenttrial": 626, "bonus": 0, "data": [{"uniqueid": "MTK0483:34QN5IT0T0YMYTQF42CJPAQNJYL80K", "current_trial": 0, "dateTime": 1510946109376, "trialdata": {"rt": 5607, "key_press": 76, "type": "INSTRUCTIONS", "trial_type": "text", "trial_index": 0, "time_elapsed": 5608, "internal_node_id": "0.0-0.0"}}, {"uniqueid": "MTK0483:34QN5IT0T0YMYTQF42CJPAQNJYL80K", "current_trial": 1, "dateTime": 1510946144877, "trialdata": {"rt": 35500, "key_press": 76, "type": "INSTRUCTIONS", "trial_type": "text", "trial_index": 1, "time_elapsed": 41109, "internal_node_id": "0.0-1.0"}}, {"uniqueid": "MTK0483:34QN5IT0T0YMYTQF42CJPAQNJYL80K", "current_trial": 2, "dateTime": 1510946161701, "trialdata": {"rt": [16812], "responses": ["ocean"], "type": "AUDIO_TEST", "trial_type": "audio-test", "trial_index": 2, "time_elapsed": 57932, "internal_node_id": "0.0-2.0"}}, {"uniqueid": "MTK0483:34QN5IT0T0YMYTQF42CJPAQNJYL80K", "current_trial": 3, "dateTime": 1510946192812, "trialdata": {"rt": [31105], "responses": ["crystal"], "type": "AUDIO_TEST", "trial_type": "audio-test", "trial_index": 3, "time_elapsed": 89044, "internal_node_id": "0.0-3.0"}}, {"uniqueid": "MTK0483:34QN5IT0T0YMYTQF42CJPAQNJYL80K", "current_trial": 4, "dateTime": 1510946203107, "trialdata": {"rt": [10290], "responses": ["spice"], "type": "AUDIO_TEST", "trial_type": "audio-test", "trial_index": 4, "time_elapsed": 99339, "internal_node_id": "0.0-4.0"}}, {"uniqueid": "MTK0483:34QN5IT0T0YMYTQF42CJPAQNJYL80K", "current_trial": 5, "dateTime": 1510946226683, "trialdata": {"rt": 22823, "responses": "{\"Q0\":\"8 pm\",\"Q1\":\"3 am\",\"Q2\":\"4\"}", "type": "SLEEP_SURVEY", "trial_type": "survey-text", "trial_index": 5, "time_elapsed": 122915, "internal_node_id": "0.0-5.0"}}, {"uniqueid": "MTK0483:34QN5IT0T0YMYTQF42CJPAQNJYL80K", "current_trial": 6, "dateTime": 1510946332258, "trialdata": {"rt": 104573, "key_press": 76, "type": "INSTRUCTIONS", "trial_type": "text", "trial_index": 6, "time_elapsed": 228490, "internal_node_id": "0.0-6.0"}}, {"uniqueid": "MTK0483:34QN5IT0T0YMYTQF42CJPAQNJYL80K", "current_trial": 7, "dateTime": 1510946347842, "trialdata": {"rt": 15082, "key_press": 76, "type": "INSTRUCTIONS", "trial_type": "text", "trial_index": 7, "time_elapsed": 244074, "internal_node_id": "0.0-7.0"}}, {"uniqueid": "MTK0483:34QN5IT0T0YMYTQF42CJPAQNJYL80K", "current_trial": 8, "dateTime": 1510946355082, "trialdata": {"rt": 6738, "key_press": 76, "type": "INSTRUCTIONS", "trial_type": "text", "trial_index": 8, "time_elapsed": 251314, "internal_node_id": "0.0-8.0"}}, {"uniqueid": "MTK0483:34QN5IT0T0YMYTQF42CJPAQNJYL80K", "current_trial": 9, "dateTime": 1510946374089, "trialdata": {"rt": [6634, 11290], "responses": ["18", "16"], "num1": [4, 4, 5], "num2": [5, 5, 6], "num3": [9, 7, 3], "type": "DISTRACTOR", "conditions": [18, 1200, "a", 18000], "trial": 0, "trial_type": "math-distractor", "trial_index": 9, "time_elapsed": 270321, "internal_node_id": "0.0-9.0"}}, {"uniqueid": "MTK0483:34QN5IT0T0YMYTQF42CJPAQNJYL80K", "current_trial": 10, "dateTime": 1510946377091, "trialdata": {"rt": -1, "stimulus": "<p id=\"stim\">10</p>", "key_press": -1, "trial_type": "single-stim", "trial_index": 10, "time_elapsed": 273323, "internal_node_id": "0.0-10.0-0.0"}}, {"uniqueid": "MTK0483:34QN5IT0T0YMYTQF42CJPAQNJYL80K", "current_trial": 11, "dateTime": 1510946378093, "trialdata": {"rt": -1, "stimulus": "<p id=\"stim\">9</p>", "key_press": -1, "trial_type": "single-stim", "trial_index": 11, "time_elapsed": 274325, "internal_node_id": "0.0-10.0-1.0"}}, {"uniqueid": "MTK0483:34QN5IT0T0YMYTQF42CJPAQNJYL80K", "current_trial": 12, "dateTime": 1510946379094, "trialdata": {"rt": -1, "stimulus": "<p id=\"stim\">8</p>", "key_press": -1, "trial_type": "single-stim", "trial_index": 12, "time_elapsed": 275326, "internal_node_id": "0.0-10.0-2.0"}}, {"uniqueid": "MTK0483:34QN5IT0T0YMYTQF42CJPAQNJYL80K", "current_trial": 13, "dateTime": 1510946380095, "trialdata": {"rt": -1, "stimulus": "<p id=\"stim\">7</p>", "key_press": -1, "trial_type": "single-stim", "trial_index": 13, "time_elapsed": 276327, "internal_node_id": "0.0-10.0-3.0"}}, {"uniqueid": "MTK0483:34QN5IT0T0YMYTQF42CJPAQNJYL80K", "current_trial": 14, "dateTime": 1510946381096, "trialdata": {"rt": -1, "stimulus": "<p id=\"stim\">6</p>", "key_press": -1, "trial_type": "single-stim", "trial_index": 14, "time_elapsed": 277328, "internal_node_id": "0.0-10.0-4.0"}}, {"uniqueid": "MTK0483:34QN5IT0T0YMYTQF42CJPAQNJYL80K", "current_trial": 15, "dateTime": 1510946382097, "trialdata": {"rt": -1, "stimulus": "<p id=\"stim\">5</p>", "key_press": -1, "trial_type": "single-stim", "trial_index": 15, "time_elapsed": 278329, "internal_node_id": "0.0-10.0-5.0"}}, {"uniqueid": "MTK0483:34QN5IT0T0YMYTQF42CJPAQNJYL80K", "current_trial": 16, "dateTime": 1510946383098, "trialdata": {"rt": -1, "stimulus": "<p id=\"stim\">4</p>", "key_press": -1, "trial_type": "single-stim", "trial_index": 16, "time_elapsed": 279330, "internal_node_id": "0.0-10.0-6.0"}}, {"uniqueid": "MTK0483:34QN5IT0T0YMYTQF42CJPAQNJYL80K", "current_trial": 17, "dateTime": 1510946384100, "trialdata": {"rt": -1, "stimulus": "<p id=\"stim\">3</p>", "key_press": -1, "trial_type": "single-stim", "trial_index": 17, "time_elapsed": 280332, "internal_node_id": "0.0-10.0-7.0"}}, {"uniqueid": "MTK0483:34QN5IT0T0YMYTQF42CJPAQNJYL80K", "current_trial": 18, "dateTime": 1510946385101, "trialdata": {"rt": -1, "stimulus": "<p id=\"stim\">2</p>", "key_press": -1, "trial_type": "single-stim", "trial_index": 18, "time_elapsed": 281333, "internal_node_id": "0.0-10.0-8.0"}}, {"uniqueid": "MTK0483:34QN5IT0T0YMYTQF42CJPAQNJYL80K", "current_trial": 19, "dateTime": 1510946386102, "trialdata": {"rt": -1, "stimulus": "<p id=\"stim\">1</p>", "key_press": -1, "trial_type": "single-stim", "trial_index": 19, "time_elapsed": 282334, "internal_node_id": "0.0-10.0-9.0"}}, {"uniqueid": "MTK0483:34QN5IT0T0YMYTQF42CJPAQNJYL80K", "current_trial": 20, "dateTime": 1510946387603, "trialdata": {"rt": -1, "stimulus": "<p id=\"stim\">+</p>", "key_press": -1, "type": "FIXATION", "trial_type": "single-stim", "trial_index": 20, "time_elapsed": 283835, "internal_node_id": "0.0-11.0-0.0"}}, {"uniqueid": "MTK0483:34QN5IT0T0YMYTQF42CJPAQNJYL80K", "current_trial": 21, "dateTime": 1510946389784, "trialdata": {"rt": -1000, "stimulus": "/static/audio/wordpool/BARLEY.wav", "key_press": -1, "type": "PRES_AUD", "word": "barley", "wordID": 87, "conditions": [18, 1200, "a", 18000], "trial": 0, "serialpos": 0, "trial_type": "single-audio", "trial_index": 21, "time_elapsed": 286016, "internal_node_id": "0.0-12.0"}}, {"uniqueid": "MTK0483:34QN5IT0T0YMYTQF42CJPAQNJYL80K", "current_trial": 22, "dateTime": 1510946391900, "trialdata": {"rt": -1000, "stimulus": "/static/audio/wordpool/PEACH.wav", "key_press": -1, "type": "PRES_AUD", "word": "peach", "wordID": 1030, "conditions": [18, 1200, "a", 18000], "trial": 0, "serialpos": 1, "trial_type": "single-audio", "trial_index": 22, "time_elapsed": 288132, "internal_node_id": "0.0-13.0"}}, {"uniqueid": "MTK0483:34QN5IT0T0YMYTQF42CJPAQNJYL80K", "current_trial": 23, "dateTime": 1510946393995, "trialdata": {"rt": -1000, "stimulus": "/static/audio/wordpool/OX.wav", "key_press": -1, "type": "PRES_AUD", "word": "ox", "wordID": 993, "conditions": [18, 1200, "a", 18000], "trial": 0, "serialpos": 2, "trial_type": "single-audio", "trial_index": 23, "time_elapsed": 290227, "internal_node_id": "0.0-14.0"}}, {"uniqueid": "MTK0483:34QN5IT0T0YMYTQF42CJPAQNJYL80K", "current_trial": 24, "dateTime": 1510946396244, "trialdata": {"rt": -1000, "stimulus": "/static/audio/wordpool/COCKTAIL.wav", "key_press": -1, "type": "PRES_AUD", "word": "cocktail", "wordID": 337, "conditions": [18, 1200, "a", 18000], "trial": 0, "serialpos": 3, "trial_type": "single-audio", "trial_index": 24, "time_elapsed": 292476, "internal_node_id": "0.0-15.0"}}, {"uniqueid": "MTK0483:34QN5IT0T0YMYTQF42CJPAQNJYL80K", "current_trial": 25, "dateTime": 1510946398384, "trialdata": {"rt": -1000, "stimulus": "/static/audio/wordpool/LETTUCE.wav", "key_press": -1, "type": "PRES_AUD", "word": "lettuce", "wordID": 813, "conditions": [18, 1200, "a", 18000], "trial": 0, "serialpos": 4, "trial_type": "single-audio", "trial_index": 25, "time_elapsed": 294616, "internal_node_id": "0.0-16.0"}}, {"uniqueid": "MTK0483:34QN5IT0T0YMYTQF42CJPAQNJYL80K", "current_trial": 26, "dateTime": 1510946400401, "trialdata": {"rt": -1000, "stimulus": "/static/audio/wordpool/JUDGE.wav", "key_press": -1, "type": "PRES_AUD", "word": "judge", "wordID": 760, "conditions": [18, 1200, "a", 18000], "trial": 0, "serialpos": 5, "trial_type": "single-audio", "trial_index": 26, "time_elapsed": 296633, "internal_node_id": "0.0-17.0"}}, {"uniqueid": "MTK0483:34QN5IT0T0YMYTQF42CJPAQNJYL80K", "current_trial": 27, "dateTime": 1510946402690, "trialdata": {"rt": -1000, "stimulus": "/static/audio/wordpool/BEEF.wav", "key_press": -1, "type": "PRES_AUD", "word": "beef", "wordID": 112, "conditions": [18, 1200, "a", 18000], "trial": 0, "serialpos": 6, "trial_type": "single-audio", "trial_index": 27, "time_elapsed": 298922, "internal_node_id": "0.0-18.0"}}, {"uniqueid": "MTK0483:34QN5IT0T0YMYTQF42CJPAQNJYL80K", "current_trial": 28, "dateTime": 1510946405078, "trialdata": {"rt": -1000, "stimulus": "/static/audio/wordpool/SHELF.wav", "key_press": -1, "type": "PRES_AUD", "word": "shelf", "wordID": 1279, "conditions": [18, 1200, "a", 18000], "trial": 0, "serialpos": 7, "trial_type": "single-audio", "trial_index": 28, "time_elapsed": 301310, "internal_node_id": "0.0-19.0"}}, {"uniqueid": "MTK0483:34QN5IT0T0YMYTQF42CJPAQNJYL80K", "current_trial": 29, "dateTime": 1510946407341, "trialdata": {"rt": -1000, "stimulus": "/static/audio/wordpool/FREEZER.wav", "key_press": -1, "type": "PRES_AUD", "word": "freezer", "wordID": 603, "conditions": [18, 1200, "a", 18000], "trial": 0, "serialpos": 8, "trial_type": "single-audio", "trial_index": 29, "time_elapsed": 303573, "internal_node_id": "0.0-20.0"}}, {"uniqueid": "MTK0483:34QN5IT0T0YMYTQF42CJPAQNJYL80K", "current_trial": 30, "dateTime": 1510946409585, "trialdata": {"rt": -1000, "stimulus": "/static/audio/wordpool/BARREL.wav", "key_press": -1, "type": "PRES_AUD", "word": "barrel", "wordID": 90, "conditions": [18, 1200, "a", 18000], "trial": 0, "serialpos": 9, "trial_type": "single-audio", "trial_index": 30, "time_elapsed": 305817, "internal_node_id": "0.0-21.0"}}, {"uniqueid": "MTK0483:34QN5IT0T0YMYTQF42CJPAQNJYL80K", "current_trial": 31, "dateTime": 1510946411612, "trialdata": {"rt": -1000, "stimulus": "/static/audio/wordpool/RADISH.wav", "key_press": -1, "type": "PRES_AUD", "word": "radish", "wordID": 1157, "conditions": [18, 1200, "a", 18000], "trial": 0, "serialpos": 10, "trial_type": "single-audio", "trial_index": 31, "time_elapsed": 307844, "internal_node_id": "0.0-22.0"}}, {"uniqueid": "MTK0483:34QN5IT0T0YMYTQF42CJPAQNJYL80K", "current_trial": 32, "dateTime": 1510946413798, "trialdata": {"rt": -1000, "stimulus": "/static/audio/wordpool/SLOPE.wav", "key_press": -1, "type": "PRES_AUD", "word": "slope", "wordID": 1327, "conditions": [18, 1200, "a", 18000], "trial": 0, "serialpos": 11, "trial_type": "single-audio", "trial_index": 32, "time_elapsed": 310030, "internal_node_id": "0.0-23.0"}}, {"uniqueid": "MTK0483:34QN5IT0T0YMYTQF42CJPAQNJYL80K", "current_trial": 33, "dateTime": 1510946416108, "trialdata": {"rt": -1000, "stimulus": "/static/audio/wordpool/SEAGULL.wav", "key_press": -1, "type": "PRES_AUD", "word": "seagull", "wordID": 1260, "conditions": [18, 1200, "a", 18000], "trial": 0, "serialpos": 12, "trial_type": "single-audio", "trial_index": 33, "time_elapsed": 312340, "internal_node_id": "0.0-24.0"}}, {"uniqueid": "MTK0483:34QN5IT0T0YMYTQF42CJPAQNJYL80K", "current_trial": 34, "dateTime": 1510946418225, "trialdata": {"rt": -1000, "stimulus": "/static/audio/wordpool/PLAYGROUND.wav", "key_press": -1, "type": "PRES_AUD", "word": "playground", "wordID": 1086, "conditions": [18, 1200, "a", 18000], "trial": 0, "serialpos": 13, "trial_type": "single-audio", "trial_index": 34, "time_elapsed": 314457, "internal_node_id": "0.0-25.0"}}, {"uniqueid": "MTK0483:34QN5IT0T0YMYTQF42CJPAQNJYL80K", "current_trial": 35, "dateTime": 1510946420257, "trialdata": {"rt": -1000, "stimulus": "/static/audio/wordpool/ROBOT.wav", "key_press": -1, "type": "PRES_AUD", "word": "robot", "wordID": 1199, "conditions": [18, 1200, "a", 18000], "trial": 0, "serialpos": 14, "trial_type": "single-audio", "trial_index": 35, "time_elapsed": 316489, "internal_node_id": "0.0-26.0"}}, {"uniqueid": "MTK0483:34QN5IT0T0YMYTQF42CJPAQNJYL80K", "current_trial": 36, "dateTime": 1510946422336, "trialdata": {"rt": -1000, "stimulus": "/static/audio/wordpool/DENTIST.wav", "key_press": -1, "type": "PRES_AUD", "word": "dentist", "wordID": 446, "conditions": [18, 1200, "a", 18000], "trial": 0, "serialpos": 15, "trial_type": "single-audio", "trial_index": 36, "time_elapsed": 318568, "internal_node_id": "0.0-27.0"}}, {"uniqueid": "MTK0483:34QN5IT0T0YMYTQF42CJPAQNJYL80K", "current_trial": 37, "dateTime": 1510946424449, "trialdata": {"rt": -1000, "stimulus": "/static/audio/wordpool/KNIFE.wav", "key_press": -1, "type": "PRES_AUD", "word": "knife", "wordID": 784, "conditions": [18, 1200, "a", 18000], "trial": 0, "serialpos": 16, "trial_type": "single-audio", "trial_index": 37, "time_elapsed": 320681, "internal_node_id": "0.0-28.0"}}, {"uniqueid": "MTK0483:34QN5IT0T0YMYTQF42CJPAQNJYL80K", "current_trial": 38, "dateTime": 1510946426536, "trialdata": {"rt": -1000, "stimulus": "/static/audio/wordpool/GALLON.wav", "key_press": -1, "type": "PRES_AUD", "word": "gallon", "wordID": 617, "conditions": [18, 1200, "a", 18000], "trial": 0, "serialpos": 17, "trial_type": "single-audio", "trial_index": 38, "time_elapsed": 322768, "internal_node_id": "0.0-29.0"}}, {"uniqueid": "MTK0483:34QN5IT0T0YMYTQF42CJPAQNJYL80K", "current_trial": 39, "dateTime": 1510946427775, "trialdata": {"rt": -1, "stimulus": "", "key_press": -1, "type": "PRE_RECALL_DELAY", "trial_type": "single-stim", "trial_index": 39, "time_elapsed": 324007, "internal_node_id": "0.0-30.0-0.0"}}, {"uniqueid": "MTK0483:34QN5IT0T0YMYTQF42CJPAQNJYL80K", "current_trial": 40, "dateTime": 1510946428282, "trialdata": {"rt": -1000, "stimulus": "/static/audio/400Hz.wav", "key_press": -1, "type": "PRE_RECALL_ALERT", "trial_type": "single-audio", "trial_index": 40, "time_elapsed": 324514, "internal_node_id": "0.0-31.0"}}, {"uniqueid": "MTK0483:34QN5IT0T0YMYTQF42CJPAQNJYL80K", "current_trial": 41, "dateTime": 1510946488289, "trialdata": {"rt": [4826, 8067, 17460, 26816, 30294, 32877, 46798, 49885, 53653, 58238], "recwords": ["", "barley", "gallon", "knife", "dentist", "robot", "playground", "seagal", "slope", "radish"], "type": "FREE_RECALL", "conditions": [18, 1200, "a", 18000], "trial": 0, "trial_type": "free-recall", "trial_index": 41, "time_elapsed": 384518, "internal_node_id": "0.0-32.0-0.0"}}, {"uniqueid": "MTK0483:34QN5IT0T0YMYTQF42CJPAQNJYL80K", "current_trial": 42, "dateTime": 1510946507648, "trialdata": {"rt": 17358, "key_press": 76, "type": "INSTRUCTIONS", "trial_type": "text", "trial_index": 42, "time_elapsed": 403880, "internal_node_id": "0.0-33.0"}}, {"uniqueid": "MTK0483:34QN5IT0T0YMYTQF42CJPAQNJYL80K", "current_trial": 43, "dateTime": 1510946527651, "trialdata": {"rt": [4157, 10765, 13078, 17038], "responses": ["13", "18", "6", "15"], "num1": [5, 7, 3, 3, 4], "num2": [7, 8, 2, 5, 3], "num3": [1, 3, 1, 7, 1], "type": "DISTRACTOR", "conditions": [18, 1200, "v", 18000], "trial": 1, "trial_type": "math-distractor", "trial_index": 43, "time_elapsed": 423883, "internal_node_id": "0.0-34.0"}}, {"uniqueid": "MTK0483:34QN5IT0T0YMYTQF42CJPAQNJYL80K", "current_trial": 44, "dateTime": 1510946530653, "trialdata": {"rt": -1, "stimulus": "<p id=\"stim\">10</p>", "key_press": -1, "trial_type": "single-stim", "trial_index": 44, "time_elapsed": 426885, "internal_node_id": "0.0-35.0-0.0"}}, {"uniqueid": "MTK0483:34QN5IT0T0YMYTQF42CJPAQNJYL80K", "current_trial": 45, "dateTime": 1510946531654, "trialdata": {"rt": -1, "stimulus": "<p id=\"stim\">9</p>", "key_press": -1, "trial_type": "single-stim", "trial_index": 45, "time_elapsed": 427886, "internal_node_id": "0.0-35.0-1.0"}}, {"uniqueid": "MTK0483:34QN5IT0T0YMYTQF42CJPAQNJYL80K", "current_trial": 46, "dateTime": 1510946532655, "trialdata": {"rt": -1, "stimulus": "<p id=\"stim\">8</p>", "key_press": -1, "trial_type": "single-stim", "trial_index": 46, "time_elapsed": 428887, "internal_node_id": "0.0-35.0-2.0"}}, {"uniqueid": "MTK0483:34QN5IT0T0YMYTQF42CJPAQNJYL80K", "current_trial": 47, "dateTime": 1510946533656, "trialdata": {"rt": -1, "stimulus": "<p id=\"stim\">7</p>", "key_press": -1, "trial_type": "single-stim", "trial_index": 47, "time_elapsed": 429888, "internal_node_id": "0.0-35.0-3.0"}}, {"uniqueid": "MTK0483:34QN5IT0T0YMYTQF42CJPAQNJYL80K", "current_trial": 48, "dateTime": 1510946534657, "trialdata": {"rt": -1, "stimulus": "<p id=\"stim\">6</p>", "key_press": -1, "trial_type": "single-stim", "trial_index": 48, "time_elapsed": 430889, "internal_node_id": "0.0-35.0-4.0"}}, {"uniqueid": "MTK0483:34QN5IT0T0YMYTQF42CJPAQNJYL80K", "current_trial": 49, "dateTime": 1510946535658, "trialdata": {"rt": -1, "stimulus": "<p id=\"stim\">5</p>", "key_press": -1, "trial_type": "single-stim", "trial_index": 49, "time_elapsed": 431890, "internal_node_id": "0.0-35.0-5.0"}}, {"uniqueid": "MTK0483:34QN5IT0T0YMYTQF42CJPAQNJYL80K", "current_trial": 50, "dateTime": 1510946536659, "trialdata": {"rt": -1, "stimulus": "<p id=\"stim\">4</p>", "key_press": -1, "trial_type": "single-stim", "trial_index": 50, "time_elapsed": 432891, "internal_node_id": "0.0-35.0-6.0"}}, {"uniqueid": "MTK0483:34QN5IT0T0YMYTQF42CJPAQNJYL80K", "current_trial": 51, "dateTime": 1510946537660, "trialdata": {"rt": -1, "stimulus": "<p id=\"stim\">3</p>", "key_press": -1, "trial_type": "single-stim", "trial_index": 51, "time_elapsed": 433892, "internal_node_id": "0.0-35.0-7.0"}}, {"uniqueid": "MTK0483:34QN5IT0T0YMYTQF42CJPAQNJYL80K", "current_trial": 52, "dateTime": 1510946538661, "trialdata": {"rt": -1, "stimulus": "<p id=\"stim\">2</p>", "key_press": -1, "trial_type": "single-stim", "trial_index": 52, "time_elapsed": 434893, "internal_node_id": "0.0-35.0-8.0"}}, {"uniqueid": "MTK0483:34QN5IT0T0YMYTQF42CJPAQNJYL80K", "current_trial": 53, "dateTime": 1510946539663, "trialdata": {"rt": -1, "stimulus": "<p id=\"stim\">1</p>", "key_press": -1, "trial_type": "single-stim", "trial_index": 53, "time_elapsed": 435895, "internal_node_id": "0.0-35.0-9.0"}}, {"uniqueid": "MTK0483:34QN5IT0T0YMYTQF42CJPAQNJYL80K", "current_trial": 54, "dateTime": 1510946541164, "trialdata": {"rt": -1, "stimulus": "<p id=\"stim\">+</p>", "key_press": -1, "type": "FIXATION", "trial_type": "single-stim", "trial_index": 54, "time_elapsed": 437396, "internal_node_id": "0.0-36.0-0.0"}}, {"uniqueid": "MTK0483:34QN5IT0T0YMYTQF42CJPAQNJYL80K", "current_trial": 55, "dateTime": 1510946542365, "trialdata": {"rt": -1, "stimulus": "<p id=\"stim\">BEAKER</p>", "key_press": -1, "type": "PRES_VIS", "word": "beaker", "wordID": 103, "conditions": [18, 1200, "v", 18000], "trial": 1, "serialpos": 0, "trial_type": "single-stim", "trial_index": 55, "time_elapsed": 438597, "internal_node_id": "0.0-37.0"}}, {"uniqueid": "MTK0483:34QN5IT0T0YMYTQF42CJPAQNJYL80K", "current_trial": 56, "dateTime": 1510946544374, "trialdata": {"rt": -1, "stimulus": "<p id=\"stim\">SUSPECT</p>", "key_press": -1, "type": "PRES_VIS", "word": "suspect", "wordID": 1414, "conditions": [18, 1200, "v", 18000], "trial": 1, "serialpos": 1, "trial_type": "single-stim", "trial_index": 56, "time_elapsed": 440606, "internal_node_id": "0.0-38.0"}}, {"uniqueid": "MTK0483:34QN5IT0T0YMYTQF42CJPAQNJYL80K", "current_trial": 57, "dateTime": 1510946546498, "trialdata": {"rt": -1, "stimulus": "<p id=\"stim\">STATUE</p>", "key_press": -1, "type": "PRES_VIS", "word": "statue", "wordID": 1373, "conditions": [18, 1200, "v", 18000], "trial": 1, "serialpos": 2, "trial_type": "single-stim", "trial_index": 57, "time_elapsed": 442730, "internal_node_id": "0.0-39.0"}}, {"uniqueid": "MTK0483:34QN5IT0T0YMYTQF42CJPAQNJYL80K", "current_trial": 58, "dateTime": 1510946548805, "trialdata": {"rt": -1, "stimulus": "<p id=\"stim\">RABBIT</p>", "key_press": -1, "type": "PRES_VIS", "word": "rabbit", "wordID": 1151, "conditions": [18, 1200, "v", 18000], "trial": 1, "serialpos": 3, "trial_type": "single-stim", "trial_index": 58, "time_elapsed": 445037, "internal_node_id": "0.0-40.0"}}, {"uniqueid": "MTK0483:34QN5IT0T0YMYTQF42CJPAQNJYL80K", "current_trial": 59, "dateTime": 1510946551083, "trialdata": {"rt": -1, "stimulus": "<p id=\"stim\">PRIMATE</p>", "key_press": -1, "type": "PRES_VIS", "word": "primate", "wordID": 1122, "conditions": [18, 1200, "v", 18000], "trial": 1, "serialpos": 4, "trial_type": "single-stim", "trial_index": 59, "time_elapsed": 447315, "internal_node_id": "0.0-41.0"}}, {"uniqueid": "MTK0483:34QN5IT0T0YMYTQF42CJPAQNJYL80K", "current_trial": 60, "dateTime": 1510946553163, "trialdata": {"rt": -1, "stimulus": "<p id=\"stim\">POPCORN</p>", "key_press": -1, "type": "PRES_VIS", "word": "popcorn", "wordID": 1103, "conditions": [18, 1200, "v", 18000], "trial": 1, "serialpos": 5, "trial_type": "single-stim", "trial_index": 60, "time_elapsed": 449395, "internal_node_id": "0.0-42.0"}}, {"uniqueid": "MTK0483:34QN5IT0T0YMYTQF42CJPAQNJYL80K", "current_trial": 61, "dateTime": 1510946555316, "trialdata": {"rt": -1, "stimulus": "<p id=\"stim\">CRATER</p>", "key_press": -1, "type": "PRES_VIS", "word": "crater", "wordID": 399, "conditions": [18, 1200, "v", 18000], "trial": 1, "serialpos": 6, "trial_type": "single-stim", "trial_index": 61, "time_elapsed": 451548, "internal_node_id": "0.0-43.0"}}, {"uniqueid": "MTK0483:34QN5IT0T0YMYTQF42CJPAQNJYL80K", "current_trial": 62, "dateTime": 1510946557568, "trialdata": {"rt": -1, "stimulus": "<p id=\"stim\">SNAKE</p>", "key_press": -1, "type": "PRES_VIS", "word": "snake", "wordID": 1332, "conditions": [18, 1200, "v", 18000], "trial": 1, "serialpos": 7, "trial_type": "single-stim", "trial_index": 62, "time_elapsed": 453800, "internal_node_id": "0.0-44.0"}}, {"uniqueid": "MTK0483:34QN5IT0T0YMYTQF42CJPAQNJYL80K", "current_trial": 63, "dateTime": 1510946559964, "trialdata": {"rt": -1, "stimulus": "<p id=\"stim\">TUNNEL</p>", "key_press": -1, "type": "PRES_VIS", "word": "tunnel", "wordID": 1518, "conditions": [18, 1200, "v", 18000], "trial": 1, "serialpos": 8, "trial_type": "single-stim", "trial_index": 63, "time_elapsed": 456196, "internal_node_id": "0.0-45.0"}}, {"uniqueid": "MTK0483:34QN5IT0T0YMYTQF42CJPAQNJYL80K", "current_trial": 64, "dateTime": 1510946562136, "trialdata": {"rt": -1, "stimulus": "<p id=\"stim\">DOLPHIN</p>", "key_press": -1, "type": "PRES_VIS", "word": "dolphin", "wordID": 482, "conditions": [18, 1200, "v", 18000], "trial": 1, "serialpos": 9, "trial_type": "single-stim", "trial_index": 64, "time_elapsed": 458368, "internal_node_id": "0.0-46.0"}}, {"uniqueid": "MTK0483:34QN5IT0T0YMYTQF42CJPAQNJYL80K", "current_trial": 65, "dateTime": 1510946564142, "trialdata": {"rt": -1, "stimulus": "<p id=\"stim\">SPOON</p>", "key_press": -1, "type": "PRES_VIS", "word": "spoon", "wordID": 1356, "conditions": [18, 1200, "v", 18000], "trial": 1, "serialpos": 10, "trial_type": "single-stim", "trial_index": 65, "time_elapsed": 460374, "internal_node_id": "0.0-47.0"}}, {"uniqueid": "MTK0483:34QN5IT0T0YMYTQF42CJPAQNJYL80K", "current_trial": 66, "dateTime": 1510946566387, "trialdata": {"rt": -1, "stimulus": "<p id=\"stim\">SIBLING</p>", "key_press": -1, "type": "PRES_VIS", "word": "sibling", "wordID": 1300, "conditions": [18, 1200, "v", 18000], "trial": 1, "serialpos": 11, "trial_type": "single-stim", "trial_index": 66, "time_elapsed": 462619, "internal_node_id": "0.0-48.0"}}, {"uniqueid": "MTK0483:34QN5IT0T0YMYTQF42CJPAQNJYL80K", "current_trial": 67, "dateTime": 1510946568469, "trialdata": {"rt": -1, "stimulus": "<p id=\"stim\">OINTMENT</p>", "key_press": -1, "type": "PRES_VIS", "word": "ointment", "wordID": 973, "conditions": [18, 1200, "v", 18000], "trial": 1, "serialpos": 12, "trial_type": "single-stim", "trial_index": 67, "time_elapsed": 464701, "internal_node_id": "0.0-49.0"}}, {"uniqueid": "MTK0483:34QN5IT0T0YMYTQF42CJPAQNJYL80K", "current_trial": 68, "dateTime": 1510946570595, "trialdata": {"rt": -1, "stimulus": "<p id=\"stim\">PATROL</p>", "key_press": -1, "type": "PRES_VIS", "word": "patrol", "wordID": 1026, "conditions": [18, 1200, "v", 18000], "trial": 1, "serialpos": 13, "trial_type": "single-stim", "trial_index": 68, "time_elapsed": 466824, "internal_node_id": "0.0-50.0"}}, {"uniqueid": "MTK0483:34QN5IT0T0YMYTQF42CJPAQNJYL80K", "current_trial": 69, "dateTime": 1510946572783, "trialdata": {"rt": -1, "stimulus": "<p id=\"stim\">NOTEBOOK</p>", "key_press": -1, "type": "PRES_VIS", "word": "notebook", "wordID": 958, "conditions": [18, 1200, "v", 18000], "trial": 1, "serialpos": 14, "trial_type": "single-stim", "trial_index": 69, "time_elapsed": 469015, "internal_node_id": "0.0-51.0"}}, {"uniqueid": "MTK0483:34QN5IT0T0YMYTQF42CJPAQNJYL80K", "current_trial": 70, "dateTime": 1510946574997, "trialdata": {"rt": -1, "stimulus": "<p id=\"stim\">DANCER</p>", "key_press": -1, "type": "PRES_VIS", "word": "dancer", "wordID": 436, "conditions": [18, 1200, "v", 18000], "trial": 1, "serialpos": 15, "trial_type": "single-stim", "trial_index": 70, "time_elapsed": 471229, "internal_node_id": "0.0-52.0"}}, {"uniqueid": "MTK0483:34QN5IT0T0YMYTQF42CJPAQNJYL80K", "current_trial": 71, "dateTime": 1510946577071, "trialdata": {"rt": -1, "stimulus": "<p id=\"stim\">TOURIST</p>", "key_press": -1, "type": "PRES_VIS", "word": "tourist", "wordID": 1487, "conditions": [18, 1200, "v", 18000], "trial": 1, "serialpos": 16, "trial_type": "single-stim", "trial_index": 71, "time_elapsed": 473303, "internal_node_id": "0.0-53.0"}}, {"uniqueid": "MTK0483:34QN5IT0T0YMYTQF42CJPAQNJYL80K", "current_trial": 72, "dateTime": 1510946579215, "trialdata": {"rt": -1, "stimulus": "<p id=\"stim\">SPOOL</p>", "key_press": -1, "type": "PRES_VIS", "word": "spool", "wordID": 1355, "conditions": [18, 1200, "v", 18000], "trial": 1, "serialpos": 17, "trial_type": "single-stim", "trial_index": 72, "time_elapsed": 475447, "internal_node_id": "0.0-54.0"}}, {"uniqueid": "MTK0483:34QN5IT0T0YMYTQF42CJPAQNJYL80K", "current_trial": 73, "dateTime": 1510946581528, "trialdata": {"rt": -1, "stimulus": "", "key_press": -1, "type": "PRE_RECALL_DELAY", "trial_type": "single-stim", "trial_index": 73, "time_elapsed": 477760, "internal_node_id": "0.0-55.0-0.0"}}, {"uniqueid": "MTK0483:34QN5IT0T0YMYTQF42CJPAQNJYL80K", "current_trial": 74, "dateTime": 1510946582026, "trialdata": {"rt": -1000, "stimulus": "/static/audio/400Hz.wav", "key_press": -1, "type": "PRE_RECALL_ALERT", "trial_type": "single-audio", "trial_index": 74, "time_elapsed": 478258, "internal_node_id": "0.0-56.0"}}, {"uniqueid": "MTK0483:34QN5IT0T0YMYTQF42CJPAQNJYL80K", "current_trial": 75, "dateTime": 1510946642040, "trialdata": {"rt": [4815, 6678, 9125, 11051, 13941, 18075, 22322, 26391, 29773, 35149, 36678, 41181, 47549, 53029], "recwords": ["spool", "spoon", "tourist", "patrol", "ointment", "sibling", "patrol", "tunnel", "dolphin", "crater", "smake", "popcorn", "rabbit", "suspeck"], "type": "FREE_RECALL", "conditions": [18, 1200, "v", 18000], "trial": 1, "trial_type": "free-recall", "trial_index": 75, "time_elapsed": 538269, "internal_node_id": "0.0-57.0-0.0"}}, {"uniqueid": "MTK0483:34QN5IT0T0YMYTQF42CJPAQNJYL80K", "current_trial": 76, "dateTime": 1510946661429, "trialdata": {"rt": 17383, "key_press": 76, "type": "INSTRUCTIONS", "trial_type": "text", "trial_index": 76, "time_elapsed": 557657, "internal_node_id": "0.0-58.0"}}, {"uniqueid": "MTK0483:34QN5IT0T0YMYTQF42CJPAQNJYL80K", "current_trial": 77, "dateTime": 1510946674432, "trialdata": {"rt": [2832, 6808, 9161], "responses": ["12", "14", "12"], "num1": [8, 3, 5, 7], "num2": [1, 2, 2, 7], "num3": [3, 9, 5, 3], "type": "DISTRACTOR", "conditions": [24, 1600, "a", 12000], "trial": 2, "trial_type": "math-distractor", "trial_index": 77, "time_elapsed": 570664, "internal_node_id": "0.0-59.0"}}, {"uniqueid": "MTK0483:34QN5IT0T0YMYTQF42CJPAQNJYL80K", "current_trial": 78, "dateTime": 1510946677434, "trialdata": {"rt": -1, "stimulus": "<p id=\"stim\">10</p>", "key_press": -1, "trial_type": "single-stim", "trial_index": 78, "time_elapsed": 573666, "internal_node_id": "0.0-60.0-0.0"}}, {"uniqueid": "MTK0483:34QN5IT0T0YMYTQF42CJPAQNJYL80K", "current_trial": 79, "dateTime": 1510946678435, "trialdata": {"rt": -1, "stimulus": "<p id=\"stim\">9</p>", "key_press": -1, "trial_type": "single-stim", "trial_index": 79, "time_elapsed": 574667, "internal_node_id": "0.0-60.0-1.0"}}, {"uniqueid": "MTK0483:34QN5IT0T0YMYTQF42CJPAQNJYL80K", "current_trial": 80, "dateTime": 1510946679436, "trialdata": {"rt": -1, "stimulus": "<p id=\"stim\">8</p>", "key_press": -1, "trial_type": "single-stim", "trial_index": 80, "time_elapsed": 575668, "internal_node_id": "0.0-60.0-2.0"}}, {"uniqueid": "MTK0483:34QN5IT0T0YMYTQF42CJPAQNJYL80K", "current_trial": 81, "dateTime": 1510946680437, "trialdata": {"rt": -1, "stimulus": "<p id=\"stim\">7</p>", "key_press": -1, "trial_type": "single-stim", "trial_index": 81, "time_elapsed": 576669, "internal_node_id": "0.0-60.0-3.0"}}, {"uniqueid": "MTK0483:34QN5IT0T0YMYTQF42CJPAQNJYL80K", "current_trial": 82, "dateTime": 1510946681438, "trialdata": {"rt": -1, "stimulus": "<p id=\"stim\">6</p>", "key_press": -1, "trial_type": "single-stim", "trial_index": 82, "time_elapsed": 577670, "internal_node_id": "0.0-60.0-4.0"}}, {"uniqueid": "MTK0483:34QN5IT0T0YMYTQF42CJPAQNJYL80K", "current_trial": 83, "dateTime": 1510946682439, "trialdata": {"rt": -1, "stimulus": "<p id=\"stim\">5</p>", "key_press": -1, "trial_type": "single-stim", "trial_index": 83, "time_elapsed": 578671, "internal_node_id": "0.0-60.0-5.0"}}, {"uniqueid": "MTK0483:34QN5IT0T0YMYTQF42CJPAQNJYL80K", "current_trial": 84, "dateTime": 1510946683440, "trialdata": {"rt": -1, "stimulus": "<p id=\"stim\">4</p>", "key_press": -1, "trial_type": "single-stim", "trial_index": 84, "time_elapsed": 579672, "internal_node_id": "0.0-60.0-6.0"}}, {"uniqueid": "MTK0483:34QN5IT0T0YMYTQF42CJPAQNJYL80K", "current_trial": 85, "dateTime": 1510946684441, "trialdata": {"rt": -1, "stimulus": "<p id=\"stim\">3</p>", "key_press": -1, "trial_type": "single-stim", "trial_index": 85, "time_elapsed": 580673, "internal_node_id": "0.0-60.0-7.0"}}, {"uniqueid": "MTK0483:34QN5IT0T0YMYTQF42CJPAQNJYL80K", "current_trial": 86, "dateTime": 1510946685442, "trialdata": {"rt": -1, "stimulus": "<p id=\"stim\">2</p>", "key_press": -1, "trial_type": "single-stim", "trial_index": 86, "time_elapsed": 581674, "internal_node_id": "0.0-60.0-8.0"}}, {"uniqueid": "MTK0483:34QN5IT0T0YMYTQF42CJPAQNJYL80K", "current_trial": 87, "dateTime": 1510946686443, "trialdata": {"rt": -1, "stimulus": "<p id=\"stim\">1</p>", "key_press": -1, "trial_type": "single-stim", "trial_index": 87, "time_elapsed": 582675, "internal_node_id": "0.0-60.0-9.0"}}, {"uniqueid": "MTK0483:34QN5IT0T0YMYTQF42CJPAQNJYL80K", "current_trial": 88, "dateTime": 1510946687944, "trialdata": {"rt": -1, "stimulus": "<p id=\"stim\">+</p>", "key_press": -1, "type": "FIXATION", "trial_type": "single-stim", "trial_index": 88, "time_elapsed": 584176, "internal_node_id": "0.0-61.0-0.0"}}, {"uniqueid": "MTK0483:34QN5IT0T0YMYTQF42CJPAQNJYL80K", "current_trial": 89, "dateTime": 1510946690367, "trialdata": {"rt": -1000, "stimulus": "/static/audio/wordpool/PISTON.wav", "key_press": -1, "type": "PRES_AUD", "word": "piston", "wordID": 1075, "conditions": [24, 1600, "a", 12000], "trial": 2, "serialpos": 0, "trial_type": "single-audio", "trial_index": 89, "time_elapsed": 586599, "internal_node_id": "0.0-62.0"}}, {"uniqueid": "MTK0483:34QN5IT0T0YMYTQF42CJPAQNJYL80K", "current_trial": 90, "dateTime": 1510946693164, "trialdata": {"rt": -1000, "stimulus": "/static/audio/wordpool/FOREHEAD.wav", "key_press": -1, "type": "PRES_AUD", "word": "forehead", "wordID": 591, "conditions": [24, 1600, "a", 12000], "trial": 2, "serialpos": 1, "trial_type": "single-audio", "trial_index": 90, "time_elapsed": 589396, "internal_node_id": "0.0-63.0"}}, {"uniqueid": "MTK0483:34QN5IT0T0YMYTQF42CJPAQNJYL80K", "current_trial": 91, "dateTime": 1510946695868, "trialdata": {"rt": -1000, "stimulus": "/static/audio/wordpool/PARSLEY.wav", "key_press": -1, "type": "PRES_AUD", "word": "parsley", "wordID": 1015, "conditions": [24, 1600, "a", 12000], "trial": 2, "serialpos": 2, "trial_type": "single-audio", "trial_index": 91, "time_elapsed": 592100, "internal_node_id": "0.0-64.0"}}, {"uniqueid": "MTK0483:34QN5IT0T0YMYTQF42CJPAQNJYL80K", "current_trial": 92, "dateTime": 1510946698320, "trialdata": {"rt": -1000, "stimulus": "/static/audio/wordpool/POET.wav", "key_press": -1, "type": "PRES_AUD", "word": "poet", "wordID": 1094, "conditions": [24, 1600, "a", 12000], "trial": 2, "serialpos": 3, "trial_type": "single-audio", "trial_index": 92, "time_elapsed": 594552, "internal_node_id": "0.0-65.0"}}, {"uniqueid": "MTK0483:34QN5IT0T0YMYTQF42CJPAQNJYL80K", "current_trial": 93, "dateTime": 1510946700988, "trialdata": {"rt": -1000, "stimulus": "/static/audio/wordpool/PICTURE.wav", "key_press": -1, "type": "PRES_AUD", "word": "picture", "wordID": 1060, "conditions": [24, 1600, "a", 12000], "trial": 2, "serialpos": 4, "trial_type": "single-audio", "trial_index": 93, "time_elapsed": 597220, "internal_node_id": "0.0-66.0"}}, {"uniqueid": "MTK0483:34QN5IT0T0YMYTQF42CJPAQNJYL80K", "current_trial": 94, "dateTime": 1510946703597, "trialdata": {"rt": -1000, "stimulus": "/static/audio/wordpool/ONION.wav", "key_press": -1, "type": "PRES_AUD", "word": "onion", "wordID": 976, "conditions": [24, 1600, "a", 12000], "trial": 2, "serialpos": 5, "trial_type": "single-audio", "trial_index": 94, "time_elapsed": 599829, "internal_node_id": "0.0-67.0"}}, {"uniqueid": "MTK0483:34QN5IT0T0YMYTQF42CJPAQNJYL80K", "current_trial": 95, "dateTime": 1510946706375, "trialdata": {"rt": -1000, "stimulus": "/static/audio/wordpool/SURVEY.wav", "key_press": -1, "type": "PRES_AUD", "word": "survey", "wordID": 1413, "conditions": [24, 1600, "a", 12000], "trial": 2, "serialpos": 6, "trial_type": "single-audio", "trial_index": 95, "time_elapsed": 602607, "internal_node_id": "0.0-68.0"}}, {"uniqueid": "MTK0483:34QN5IT0T0YMYTQF42CJPAQNJYL80K", "current_trial": 96, "dateTime": 1510946709012, "trialdata": {"rt": -1000, "stimulus": "/static/audio/wordpool/PACKAGE.wav", "key_press": -1, "type": "PRES_AUD", "word": "package", "wordID": 996, "conditions": [24, 1600, "a", 12000], "trial": 2, "serialpos": 7, "trial_type": "single-audio", "trial_index": 96, "time_elapsed": 605244, "internal_node_id": "0.0-69.0"}}, {"uniqueid": "MTK0483:34QN5IT0T0YMYTQF42CJPAQNJYL80K", "current_trial": 97, "dateTime": 1510946711579, "trialdata": {"rt": -1000, "stimulus": "/static/audio/wordpool/LEOPARD.wav", "key_press": -1, "type": "PRES_AUD", "word": "leopard", "wordID": 811, "conditions": [24, 1600, "a", 12000], "trial": 2, "serialpos": 8, "trial_type": "single-audio", "trial_index": 97, "time_elapsed": 607811, "internal_node_id": "0.0-70.0"}}, {"uniqueid": "MTK0483:34QN5IT0T0YMYTQF42CJPAQNJYL80K", "current_trial": 98, "dateTime": 1510946714038, "trialdata": {"rt": -1000, "stimulus": "/static/audio/wordpool/BLENDER.wav", "key_press": -1, "type": "PRES_AUD", "word": "blender", "wordID": 135, "conditions": [24, 1600, "a", 12000], "trial": 2, "serialpos": 9, "trial_type": "single-audio", "trial_index": 98, "time_elapsed": 610270, "internal_node_id": "0.0-71.0"}}, {"uniqueid": "MTK0483:34QN5IT0T0YMYTQF42CJPAQNJYL80K", "current_trial": 99, "dateTime": 1510946716517, "trialdata": {"rt": -1000, "stimulus": "/static/audio/wordpool/SKILLET.wav", "key_press": -1, "type": "PRES_AUD", "word": "skillet", "wordID": 1316, "conditions": [24, 1600, "a", 12000], "trial": 2, "serialpos": 10, "trial_type": "single-audio", "trial_index": 99, "time_elapsed": 612749, "internal_node_id": "0.0-72.0"}}, {"uniqueid": "MTK0483:34QN5IT0T0YMYTQF42CJPAQNJYL80K", "current_trial": 100, "dateTime": 1510946719122, "trialdata": {"rt": -1000, "stimulus": "/static/audio/wordpool/SPARROW.wav", "key_press": -1, "type": "PRES_AUD", "word": "sparrow", "wordID": 1346, "conditions": [24, 1600, "a", 12000], "trial": 2, "serialpos": 11, "trial_type": "single-audio", "trial_index": 100, "time_elapsed": 615354, "internal_node_id": "0.0-73.0"}}, {"uniqueid": "MTK0483:34QN5IT0T0YMYTQF42CJPAQNJYL80K", "current_trial": 101, "dateTime": 1510946721730, "trialdata": {"rt": -1000, "stimulus": "/static/audio/wordpool/PIGMENT.wav", "key_press": -1, "type": "PRES_AUD", "word": "pigment", "wordID": 1065, "conditions": [24, 1600, "a", 12000], "trial": 2, "serialpos": 12, "trial_type": "single-audio", "trial_index": 101, "time_elapsed": 617962, "internal_node_id": "0.0-74.0"}}, {"uniqueid": "MTK0483:34QN5IT0T0YMYTQF42CJPAQNJYL80K", "current_trial": 102, "dateTime": 1510946724167, "trialdata": {"rt": -1000, "stimulus": "/static/audio/wordpool/MARKER.wav", "key_press": -1, "type": "PRES_AUD", "word": "marker", "wordID": 869, "conditions": [24, 1600, "a", 12000], "trial": 2, "serialpos": 13, "trial_type": "single-audio", "trial_index": 102, "time_elapsed": 620399, "internal_node_id": "0.0-75.0"}}, {"uniqueid": "MTK0483:34QN5IT0T0YMYTQF42CJPAQNJYL80K", "current_trial": 103, "dateTime": 1510946726784, "trialdata": {"rt": -1000, "stimulus": "/static/audio/wordpool/SALAD.wav", "key_press": -1, "type": "PRES_AUD", "word": "salad", "wordID": 1223, "conditions": [24, 1600, "a", 12000], "trial": 2, "serialpos": 14, "trial_type": "single-audio", "trial_index": 103, "time_elapsed": 623016, "internal_node_id": "0.0-76.0"}}, {"uniqueid": "MTK0483:34QN5IT0T0YMYTQF42CJPAQNJYL80K", "current_trial": 104, "dateTime": 1510946729221, "trialdata": {"rt": -1000, "stimulus": "/static/audio/wordpool/CHAMPAGNE.wav", "key_press": -1, "type": "PRES_AUD", "word": "champagne", "wordID": 277, "conditions": [24, 1600, "a", 12000], "trial": 2, "serialpos": 15, "trial_type": "single-audio", "trial_index": 104, "time_elapsed": 625453, "internal_node_id": "0.0-77.0"}}, {"uniqueid": "MTK0483:34QN5IT0T0YMYTQF42CJPAQNJYL80K", "current_trial": 105, "dateTime": 1510946731700, "trialdata": {"rt": -1000, "stimulus": "/static/audio/wordpool/TAXI.wav", "key_press": -1, "type": "PRES_AUD", "word": "taxi", "wordID": 1437, "conditions": [24, 1600, "a", 12000], "trial": 2, "serialpos": 16, "trial_type": "single-audio", "trial_index": 105, "time_elapsed": 627932, "internal_node_id": "0.0-78.0"}}, {"uniqueid": "MTK0483:34QN5IT0T0YMYTQF42CJPAQNJYL80K", "current_trial": 106, "dateTime": 1510946734468, "trialdata": {"rt": -1000, "stimulus": "/static/audio/wordpool/MATCH.wav", "key_press": -1, "type": "PRES_AUD", "word": "match", "wordID": 877, "conditions": [24, 1600, "a", 12000], "trial": 2, "serialpos": 17, "trial_type": "single-audio", "trial_index": 106, "time_elapsed": 630700, "internal_node_id": "0.0-79.0"}}, {"uniqueid": "MTK0483:34QN5IT0T0YMYTQF42CJPAQNJYL80K", "current_trial": 107, "dateTime": 1510946736887, "trialdata": {"rt": -1000, "stimulus": "/static/audio/wordpool/OMELET.wav", "key_press": -1, "type": "PRES_AUD", "word": "omelet", "wordID": 975, "conditions": [24, 1600, "a", 12000], "trial": 2, "serialpos": 18, "trial_type": "single-audio", "trial_index": 107, "time_elapsed": 633119, "internal_node_id": "0.0-80.0"}}, {"uniqueid": "MTK0483:34QN5IT0T0YMYTQF42CJPAQNJYL80K", "current_trial": 108, "dateTime": 1510946739524, "trialdata": {"rt": -1000, "stimulus": "/static/audio/wordpool/MISTER.wav", "key_press": -1, "type": "PRES_AUD", "word": "mister", "wordID": 900, "conditions": [24, 1600, "a", 12000], "trial": 2, "serialpos": 19, "trial_type": "single-audio", "trial_index": 108, "time_elapsed": 635756, "internal_node_id": "0.0-81.0"}}, {"uniqueid": "MTK0483:34QN5IT0T0YMYTQF42CJPAQNJYL80K", "current_trial": 109, "dateTime": 1510946742144, "trialdata": {"rt": -1000, "stimulus": "/static/audio/wordpool/CLOTHES.wav", "key_press": -1, "type": "PRES_AUD", "word": "clothes", "wordID": 326, "conditions": [24, 1600, "a", 12000], "trial": 2, "serialpos": 20, "trial_type": "single-audio", "trial_index": 109, "time_elapsed": 638376, "internal_node_id": "0.0-82.0"}}, {"uniqueid": "MTK0483:34QN5IT0T0YMYTQF42CJPAQNJYL80K", "current_trial": 110, "dateTime": 1510946744709, "trialdata": {"rt": -1000, "stimulus": "/static/audio/wordpool/WARDROBE.wav", "key_press": -1, "type": "PRES_AUD", "word": "wardrobe", "wordID": 1586, "conditions": [24, 1600, "a", 12000], "trial": 2, "serialpos": 21, "trial_type": "single-audio", "trial_index": 110, "time_elapsed": 640941, "internal_node_id": "0.0-83.0"}}, {"uniqueid": "MTK0483:34QN5IT0T0YMYTQF42CJPAQNJYL80K", "current_trial": 111, "dateTime": 1510946747303, "trialdata": {"rt": -1000, "stimulus": "/static/audio/wordpool/SUNRISE.wav", "key_press": -1, "type": "PRES_AUD", "word": "sunrise", "wordID": 1406, "conditions": [24, 1600, "a", 12000], "trial": 2, "serialpos": 22, "trial_type": "single-audio", "trial_index": 111, "time_elapsed": 643535, "internal_node_id": "0.0-84.0"}}, {"uniqueid": "MTK0483:34QN5IT0T0YMYTQF42CJPAQNJYL80K", "current_trial": 112, "dateTime": 1510946750051, "trialdata": {"rt": -1000, "stimulus": "/static/audio/wordpool/MOTEL.wav", "key_press": -1, "type": "PRES_AUD", "word": "motel", "wordID": 918, "conditions": [24, 1600, "a", 12000], "trial": 2, "serialpos": 23, "trial_type": "single-audio", "trial_index": 112, "time_elapsed": 646283, "internal_node_id": "0.0-85.0"}}, {"uniqueid": "MTK0483:34QN5IT0T0YMYTQF42CJPAQNJYL80K", "current_trial": 113, "dateTime": 1510946751262, "trialdata": {"rt": -1, "stimulus": "", "key_press": -1, "type": "PRE_RECALL_DELAY", "trial_type": "single-stim", "trial_index": 113, "time_elapsed": 647494, "internal_node_id": "0.0-86.0-0.0"}}, {"uniqueid": "MTK0483:34QN5IT0T0YMYTQF42CJPAQNJYL80K", "current_trial": 114, "dateTime": 1510946751770, "trialdata": {"rt": -1000, "stimulus": "/static/audio/400Hz.wav", "key_press": -1, "type": "PRE_RECALL_ALERT", "trial_type": "single-audio", "trial_index": 114, "time_elapsed": 648002, "internal_node_id": "0.0-87.0"}}, {"uniqueid": "MTK0483:34QN5IT0T0YMYTQF42CJPAQNJYL80K", "current_trial": 115, "dateTime": 1510946811777, "trialdata": {"rt": [6460, 9756, 14343, 17019, 21313, 25219, 28446, 31027, 33675, 37339, 40228, 42843, 45156, 49803, 55747, 57892], "recwords": ["mattel", "sunrise", "wardrobe", "clotes", "mister", "taxi", "champayne", "salad", "marker", "pigment", "sparrow", "skillet", "blendr", "leoppard", "package", "survey"], "type": "FREE_RECALL", "conditions": [24, 1600, "a", 12000], "trial": 2, "trial_type": "free-recall", "trial_index": 115, "time_elapsed": 708006, "internal_node_id": "0.0-88.0-0.0"}}, {"uniqueid": "MTK0483:34QN5IT0T0YMYTQF42CJPAQNJYL80K", "current_trial": 116, "dateTime": 1510946816502, "trialdata": {"rt": 2724, "key_press": 13, "type": "INSTRUCTIONS", "trial_type": "text", "trial_index": 116, "time_elapsed": 712734, "internal_node_id": "0.0-89.0"}}, {"uniqueid": "MTK0483:34QN5IT0T0YMYTQF42CJPAQNJYL80K", "current_trial": 117, "dateTime": 1510946830505, "trialdata": {"rt": [5494, 7878, 10950], "responses": ["19 ", "9", "20"], "num1": [9, 4, 6, 7], "num2": [4, 1, 7, 3], "num3": [6, 4, 7, 8], "type": "DISTRACTOR", "conditions": [12, 800, "v", 12000], "trial": 3, "trial_type": "math-distractor", "trial_index": 117, "time_elapsed": 726737, "internal_node_id": "0.0-90.0"}}, {"uniqueid": "MTK0483:34QN5IT0T0YMYTQF42CJPAQNJYL80K", "current_trial": 118, "dateTime": 1510946833507, "trialdata": {"rt": 132, "stimulus": "<p id=\"stim\">10</p>", "key_press": 13, "trial_type": "single-stim", "trial_index": 118, "time_elapsed": 729739, "internal_node_id": "0.0-91.0-0.0"}}, {"uniqueid": "MTK0483:34QN5IT0T0YMYTQF42CJPAQNJYL80K", "current_trial": 119, "dateTime": 1510946834508, "trialdata": {"rt": -1, "stimulus": "<p id=\"stim\">9</p>", "key_press": -1, "trial_type": "single-stim", "trial_index": 119, "time_elapsed": 730740, "internal_node_id": "0.0-91.0-1.0"}}, {"uniqueid": "MTK0483:34QN5IT0T0YMYTQF42CJPAQNJYL80K", "current_trial": 120, "dateTime": 1510946835509, "trialdata": {"rt": -1, "stimulus": "<p id=\"stim\">8</p>", "key_press": -1, "trial_type": "single-stim", "trial_index": 120, "time_elapsed": 731741, "internal_node_id": "0.0-91.0-2.0"}}, {"uniqueid": "MTK0483:34QN5IT0T0YMYTQF42CJPAQNJYL80K", "current_trial": 121, "dateTime": 1510946836510, "trialdata": {"rt": -1, "stimulus": "<p id=\"stim\">7</p>", "key_press": -1, "trial_type": "single-stim", "trial_index": 121, "time_elapsed": 732742, "internal_node_id": "0.0-91.0-3.0"}}, {"uniqueid": "MTK0483:34QN5IT0T0YMYTQF42CJPAQNJYL80K", "current_trial": 122, "dateTime": 1510946837511, "trialdata": {"rt": -1, "stimulus": "<p id=\"stim\">6</p>", "key_press": -1, "trial_type": "single-stim", "trial_index": 122, "time_elapsed": 733743, "internal_node_id": "0.0-91.0-4.0"}}, {"uniqueid": "MTK0483:34QN5IT0T0YMYTQF42CJPAQNJYL80K", "current_trial": 123, "dateTime": 1510946838512, "trialdata": {"rt": -1, "stimulus": "<p id=\"stim\">5</p>", "key_press": -1, "trial_type": "single-stim", "trial_index": 123, "time_elapsed": 734744, "internal_node_id": "0.0-91.0-5.0"}}, {"uniqueid": "MTK0483:34QN5IT0T0YMYTQF42CJPAQNJYL80K", "current_trial": 124, "dateTime": 1510946839513, "trialdata": {"rt": -1, "stimulus": "<p id=\"stim\">4</p>", "key_press": -1, "trial_type": "single-stim", "trial_index": 124, "time_elapsed": 735745, "internal_node_id": "0.0-91.0-6.0"}}, {"uniqueid": "MTK0483:34QN5IT0T0YMYTQF42CJPAQNJYL80K", "current_trial": 125, "dateTime": 1510946840514, "trialdata": {"rt": -1, "stimulus": "<p id=\"stim\">3</p>", "key_press": -1, "trial_type": "single-stim", "trial_index": 125, "time_elapsed": 736746, "internal_node_id": "0.0-91.0-7.0"}}, {"uniqueid": "MTK0483:34QN5IT0T0YMYTQF42CJPAQNJYL80K", "current_trial": 126, "dateTime": 1510946841515, "trialdata": {"rt": -1, "stimulus": "<p id=\"stim\">2</p>", "key_press": -1, "trial_type": "single-stim", "trial_index": 126, "time_elapsed": 737747, "internal_node_id": "0.0-91.0-8.0"}}, {"uniqueid": "MTK0483:34QN5IT0T0YMYTQF42CJPAQNJYL80K", "current_trial": 127, "dateTime": 1510946842516, "trialdata": {"rt": -1, "stimulus": "<p id=\"stim\">1</p>", "key_press": -1, "trial_type": "single-stim", "trial_index": 127, "time_elapsed": 738748, "internal_node_id": "0.0-91.0-9.0"}}, {"uniqueid": "MTK0483:34QN5IT0T0YMYTQF42CJPAQNJYL80K", "current_trial": 128, "dateTime": 1510946844018, "trialdata": {"rt": -1, "stimulus": "<p id=\"stim\">+</p>", "key_press": -1, "type": "FIXATION", "trial_type": "single-stim", "trial_index": 128, "time_elapsed": 740250, "internal_node_id": "0.0-92.0-0.0"}}, {"uniqueid": "MTK0483:34QN5IT0T0YMYTQF42CJPAQNJYL80K", "current_trial": 129, "dateTime": 1510946844819, "trialdata": {"rt": -1, "stimulus": "<p id=\"stim\">TUBA</p>", "key_press": -1, "type": "PRES_VIS", "word": "tuba", "wordID": 1514, "conditions": [12, 800, "v", 12000], "trial": 3, "serialpos": 0, "trial_type": "single-stim", "trial_index": 129, "time_elapsed": 741051, "internal_node_id": "0.0-93.0"}}, {"uniqueid": "MTK0483:34QN5IT0T0YMYTQF42CJPAQNJYL80K", "current_trial": 130, "dateTime": 1510946846613, "trialdata": {"rt": -1, "stimulus": "<p id=\"stim\">BASEMENT</p>", "key_press": -1, "type": "PRES_VIS", "word": "basement", "wordID": 93, "conditions": [12, 800, "v", 12000], "trial": 3, "serialpos": 1, "trial_type": "single-stim", "trial_index": 130, "time_elapsed": 742845, "internal_node_id": "0.0-94.0"}}, {"uniqueid": "MTK0483:34QN5IT0T0YMYTQF42CJPAQNJYL80K", "current_trial": 131, "dateTime": 1510946848290, "trialdata": {"rt": -1, "stimulus": "<p id=\"stim\">FARMER</p>", "key_press": -1, "type": "PRES_VIS", "word": "farmer", "wordID": 552, "conditions": [12, 800, "v", 12000], "trial": 3, "serialpos": 2, "trial_type": "single-stim", "trial_index": 131, "time_elapsed": 744522, "internal_node_id": "0.0-95.0"}}, {"uniqueid": "MTK0483:34QN5IT0T0YMYTQF42CJPAQNJYL80K", "current_trial": 132, "dateTime": 1510946850291, "trialdata": {"rt": -1, "stimulus": "<p id=\"stim\">DUST</p>", "key_press": -1, "type": "PRES_VIS", "word": "dust", "wordID": 507, "conditions": [12, 800, "v", 12000], "trial": 3, "serialpos": 3, "trial_type": "single-stim", "trial_index": 132, "time_elapsed": 746523, "internal_node_id": "0.0-96.0"}}, {"uniqueid": "MTK0483:34QN5IT0T0YMYTQF42CJPAQNJYL80K", "current_trial": 133, "dateTime": 1510946851972, "trialdata": {"rt": -1, "stimulus": "<p id=\"stim\">HARP</p>", "key_press": -1, "type": "PRES_VIS", "word": "harp", "wordID": 688, "conditions": [12, 800, "v", 12000], "trial": 3, "serialpos": 4, "trial_type": "single-stim", "trial_index": 133, "time_elapsed": 748204, "internal_node_id": "0.0-97.0"}}, {"uniqueid": "MTK0483:34QN5IT0T0YMYTQF42CJPAQNJYL80K", "current_trial": 134, "dateTime": 1510946853768, "trialdata": {"rt": -1, "stimulus": "<p id=\"stim\">PIANO</p>", "key_press": -1, "type": "PRES_VIS", "word": "piano", "wordID": 1056, "conditions": [12, 800, "v", 12000], "trial": 3, "serialpos": 5, "trial_type": "single-stim", "trial_index": 134, "time_elapsed": 750000, "internal_node_id": "0.0-98.0"}}, {"uniqueid": "MTK0483:34QN5IT0T0YMYTQF42CJPAQNJYL80K", "current_trial": 135, "dateTime": 1510946855487, "trialdata": {"rt": -1, "stimulus": "<p id=\"stim\">SANDWICH</p>", "key_press": -1, "type": "PRES_VIS", "word": "sandwich", "wordID": 1231, "conditions": [12, 800, "v", 12000], "trial": 3, "serialpos": 6, "trial_type": "single-stim", "trial_index": 135, "time_elapsed": 751719, "internal_node_id": "0.0-99.0"}}, {"uniqueid": "MTK0483:34QN5IT0T0YMYTQF42CJPAQNJYL80K", "current_trial": 136, "dateTime": 1510946857420, "trialdata": {"rt": -1, "stimulus": "<p id=\"stim\">BACON</p>", "key_press": -1, "type": "PRES_VIS", "word": "bacon", "wordID": 66, "conditions": [12, 800, "v", 12000], "trial": 3, "serialpos": 7, "trial_type": "single-stim", "trial_index": 136, "time_elapsed": 753652, "internal_node_id": "0.0-100.0"}}, {"uniqueid": "MTK0483:34QN5IT0T0YMYTQF42CJPAQNJYL80K", "current_trial": 137, "dateTime": 1510946859150, "trialdata": {"rt": -1, "stimulus": "<p id=\"stim\">TYPIST</p>", "key_press": -1, "type": "PRES_VIS", "word": "typist", "wordID": 1531, "conditions": [12, 800, "v", 12000], "trial": 3, "serialpos": 8, "trial_type": "single-stim", "trial_index": 137, "time_elapsed": 755382, "internal_node_id": "0.0-101.0"}}, {"uniqueid": "MTK0483:34QN5IT0T0YMYTQF42CJPAQNJYL80K", "current_trial": 138, "dateTime": 1510946860930, "trialdata": {"rt": -1, "stimulus": "<p id=\"stim\">RIFLE</p>", "key_press": -1, "type": "PRES_VIS", "word": "rifle", "wordID": 1191, "conditions": [12, 800, "v", 12000], "trial": 3, "serialpos": 9, "trial_type": "single-stim", "trial_index": 138, "time_elapsed": 757162, "internal_node_id": "0.0-102.0"}}, {"uniqueid": "MTK0483:34QN5IT0T0YMYTQF42CJPAQNJYL80K", "current_trial": 139, "dateTime": 1510946862658, "trialdata": {"rt": -1, "stimulus": "<p id=\"stim\">CARRIAGE</p>", "key_press": -1, "type": "PRES_VIS", "word": "carriage", "wordID": 247, "conditions": [12, 800, "v", 12000], "trial": 3, "serialpos": 10, "trial_type": "single-stim", "trial_index": 139, "time_elapsed": 758890, "internal_node_id": "0.0-103.0"}}, {"uniqueid": "MTK0483:34QN5IT0T0YMYTQF42CJPAQNJYL80K", "current_trial": 140, "dateTime": 1510946864364, "trialdata": {"rt": -1, "stimulus": "<p id=\"stim\">ARM</p>", "key_press": -1, "type": "PRES_VIS", "word": "arm", "wordID": 37, "conditions": [12, 800, "v", 12000], "trial": 3, "serialpos": 11, "trial_type": "single-stim", "trial_index": 140, "time_elapsed": 760596, "internal_node_id": "0.0-104.0"}}, {"uniqueid": "MTK0483:34QN5IT0T0YMYTQF42CJPAQNJYL80K", "current_trial": 141, "dateTime": 1510946866747, "trialdata": {"rt": -1, "stimulus": "", "key_press": -1, "type": "PRE_RECALL_DELAY", "trial_type": "single-stim", "trial_index": 141, "time_elapsed": 762979, "internal_node_id": "0.0-105.0-0.0"}}, {"uniqueid": "MTK0483:34QN5IT0T0YMYTQF42CJPAQNJYL80K", "current_trial": 142, "dateTime": 1510946867245, "trialdata": {"rt": -1000, "stimulus": "/static/audio/400Hz.wav", "key_press": -1, "type": "PRE_RECALL_ALERT", "trial_type": "single-audio", "trial_index": 142, "time_elapsed": 763477, "internal_node_id": "0.0-106.0"}}, {"uniqueid": "MTK0483:34QN5IT0T0YMYTQF42CJPAQNJYL80K", "current_trial": 143, "dateTime": 1510946927259, "trialdata": {"rt": [2937, 5224, 12897, 16607, 21017, 24921, 30640, 32432, 42385, 50336, 52488, 59520], "recwords": ["arm", "carriage", "basement", "farmer", "harp", "picture", "sandwich", "bacon", "rifle", "tuba", "", "farmer"], "type": "FREE_RECALL", "conditions": [12, 800, "v", 12000], "trial": 3, "trial_type": "free-recall", "trial_index": 143, "time_elapsed": 823488, "internal_node_id": "0.0-107.0-0.0"}}, {"uniqueid": "MTK0483:34QN5IT0T0YMYTQF42CJPAQNJYL80K", "current_trial": 144, "dateTime": 1510946931021, "trialdata": {"rt": 1761, "key_press": 13, "type": "INSTRUCTIONS", "trial_type": "text", "trial_index": 144, "time_elapsed": 827252, "internal_node_id": "0.0-108.0"}}, {"uniqueid": "MTK0483:34QN5IT0T0YMYTQF42CJPAQNJYL80K", "current_trial": 145, "dateTime": 1510946957024, "trialdata": {"rt": [6037, 8533, 10773, 14917, 17229, 19541, 22021], "responses": ["21", "15", "1", "18", "16", "16", "14"], "num1": [7, 8, 4, 9, 6, 9, 4, 6], "num2": [5, 3, 4, 7, 8, 6, 8, 9], "num3": [9, 4, 2, 2, 2, 1, 2, 4], "type": "DISTRACTOR", "conditions": [24, 800, "a", 24000], "trial": 4, "trial_type": "math-distractor", "trial_index": 145, "time_elapsed": 853256, "internal_node_id": "0.0-109.0"}}, {"uniqueid": "MTK0483:34QN5IT0T0YMYTQF42CJPAQNJYL80K", "current_trial": 146, "dateTime": 1510946960027, "trialdata": {"rt": -1, "stimulus": "<p id=\"stim\">10</p>", "key_press": -1, "trial_type": "single-stim", "trial_index": 146, "time_elapsed": 856259, "internal_node_id": "0.0-110.0-0.0"}}, {"uniqueid": "MTK0483:34QN5IT0T0YMYTQF42CJPAQNJYL80K", "current_trial": 147, "dateTime": 1510946961029, "trialdata": {"rt": -1, "stimulus": "<p id=\"stim\">9</p>", "key_press": -1, "trial_type": "single-stim", "trial_index": 147, "time_elapsed": 857261, "internal_node_id": "0.0-110.0-1.0"}}, {"uniqueid": "MTK0483:34QN5IT0T0YMYTQF42CJPAQNJYL80K", "current_trial": 148, "dateTime": 1510946962030, "trialdata": {"rt": -1, "stimulus": "<p id=\"stim\">8</p>", "key_press": -1, "trial_type": "single-stim", "trial_index": 148, "time_elapsed": 858262, "internal_node_id": "0.0-110.0-2.0"}}, {"uniqueid": "MTK0483:34QN5IT0T0YMYTQF42CJPAQNJYL80K", "current_trial": 149, "dateTime": 1510946963031, "trialdata": {"rt": -1, "stimulus": "<p id=\"stim\">7</p>", "key_press": -1, "trial_type": "single-stim", "trial_index": 149, "time_elapsed": 859263, "internal_node_id": "0.0-110.0-3.0"}}, {"uniqueid": "MTK0483:34QN5IT0T0YMYTQF42CJPAQNJYL80K", "current_trial": 150, "dateTime": 1510946964032, "trialdata": {"rt": -1, "stimulus": "<p id=\"stim\">6</p>", "key_press": -1, "trial_type": "single-stim", "trial_index": 150, "time_elapsed": 860264, "internal_node_id": "0.0-110.0-4.0"}}, {"uniqueid": "MTK0483:34QN5IT0T0YMYTQF42CJPAQNJYL80K", "current_trial": 151, "dateTime": 1510946965033, "trialdata": {"rt": -1, "stimulus": "<p id=\"stim\">5</p>", "key_press": -1, "trial_type": "single-stim", "trial_index": 151, "time_elapsed": 861265, "internal_node_id": "0.0-110.0-5.0"}}, {"uniqueid": "MTK0483:34QN5IT0T0YMYTQF42CJPAQNJYL80K", "current_trial": 152, "dateTime": 1510946966034, "trialdata": {"rt": -1, "stimulus": "<p id=\"stim\">4</p>", "key_press": -1, "trial_type": "single-stim", "trial_index": 152, "time_elapsed": 862266, "internal_node_id": "0.0-110.0-6.0"}}, {"uniqueid": "MTK0483:34QN5IT0T0YMYTQF42CJPAQNJYL80K", "current_trial": 153, "dateTime": 1510946967035, "trialdata": {"rt": -1, "stimulus": "<p id=\"stim\">3</p>", "key_press": -1, "trial_type": "single-stim", "trial_index": 153, "time_elapsed": 863267, "internal_node_id": "0.0-110.0-7.0"}}, {"uniqueid": "MTK0483:34QN5IT0T0YMYTQF42CJPAQNJYL80K", "current_trial": 154, "dateTime": 1510946968036, "trialdata": {"rt": -1, "stimulus": "<p id=\"stim\">2</p>", "key_press": -1, "trial_type": "single-stim", "trial_index": 154, "time_elapsed": 864268, "internal_node_id": "0.0-110.0-8.0"}}, {"uniqueid": "MTK0483:34QN5IT0T0YMYTQF42CJPAQNJYL80K", "current_trial": 155, "dateTime": 1510946969037, "trialdata": {"rt": -1, "stimulus": "<p id=\"stim\">1</p>", "key_press": -1, "trial_type": "single-stim", "trial_index": 155, "time_elapsed": 865269, "internal_node_id": "0.0-110.0-9.0"}}, {"uniqueid": "MTK0483:34QN5IT0T0YMYTQF42CJPAQNJYL80K", "current_trial": 156, "dateTime": 1510946970538, "trialdata": {"rt": -1, "stimulus": "<p id=\"stim\">+</p>", "key_press": -1, "type": "FIXATION", "trial_type": "single-stim", "trial_index": 156, "time_elapsed": 866770, "internal_node_id": "0.0-111.0-0.0"}}, {"uniqueid": "MTK0483:34QN5IT0T0YMYTQF42CJPAQNJYL80K", "current_trial": 157, "dateTime": 1510946972293, "trialdata": {"rt": -1000, "stimulus": "/static/audio/wordpool/OYSTER.wav", "key_press": -1, "type": "PRES_AUD", "word": "oyster", "wordID": 994, "conditions": [24, 800, "a", 24000], "trial": 4, "serialpos": 0, "trial_type": "single-audio", "trial_index": 157, "time_elapsed": 868525, "internal_node_id": "0.0-112.0"}}, {"uniqueid": "MTK0483:34QN5IT0T0YMYTQF42CJPAQNJYL80K", "current_trial": 158, "dateTime": 1510946974051, "trialdata": {"rt": -1000, "stimulus": "/static/audio/wordpool/NIGHTGOWN.wav", "key_press": -1, "type": "PRES_AUD", "word": "nightgown", "wordID": 952, "conditions": [24, 800, "a", 24000], "trial": 4, "serialpos": 1, "trial_type": "single-audio", "trial_index": 158, "time_elapsed": 870283, "internal_node_id": "0.0-113.0"}}, {"uniqueid": "MTK0483:34QN5IT0T0YMYTQF42CJPAQNJYL80K", "current_trial": 159, "dateTime": 1510946975728, "trialdata": {"rt": -1000, "stimulus": "/static/audio/wordpool/FILM.wav", "key_press": -1, "type": "PRES_AUD", "word": "film", "wordID": 564, "conditions": [24, 800, "a", 24000], "trial": 4, "serialpos": 2, "trial_type": "single-audio", "trial_index": 159, "time_elapsed": 871960, "internal_node_id": "0.0-114.0"}}, {"uniqueid": "MTK0483:34QN5IT0T0YMYTQF42CJPAQNJYL80K", "current_trial": 160, "dateTime": 1510946977424, "trialdata": {"rt": -1000, "stimulus": "/static/audio/wordpool/LILY.wav", "key_press": -1, "type": "PRES_AUD", "word": "lily", "wordID": 820, "conditions": [24, 800, "a", 24000], "trial": 4, "serialpos": 3, "trial_type": "single-audio", "trial_index": 160, "time_elapsed": 873656, "internal_node_id": "0.0-115.0"}}, {"uniqueid": "MTK0483:34QN5IT0T0YMYTQF42CJPAQNJYL80K", "current_trial": 161, "dateTime": 1510946979305, "trialdata": {"rt": -1000, "stimulus": "/static/audio/wordpool/SADDLE.wav", "key_press": -1, "type": "PRES_AUD", "word": "saddle", "wordID": 1220, "conditions": [24, 800, "a", 24000], "trial": 4, "serialpos": 4, "trial_type": "single-audio", "trial_index": 161, "time_elapsed": 875537, "internal_node_id": "0.0-116.0"}}, {"uniqueid": "MTK0483:34QN5IT0T0YMYTQF42CJPAQNJYL80K", "current_trial": 162, "dateTime": 1510946981065, "trialdata": {"rt": -1000, "stimulus": "/static/audio/wordpool/AUTHOR.wav", "key_press": -1, "type": "PRES_AUD", "word": "author", "wordID": 60, "conditions": [24, 800, "a", 24000], "trial": 4, "serialpos": 5, "trial_type": "single-audio", "trial_index": 162, "time_elapsed": 877297, "internal_node_id": "0.0-117.0"}}, {"uniqueid": "MTK0483:34QN5IT0T0YMYTQF42CJPAQNJYL80K", "current_trial": 163, "dateTime": 1510946982955, "trialdata": {"rt": -1000, "stimulus": "/static/audio/wordpool/NOVEL.wav", "key_press": -1, "type": "PRES_AUD", "word": "novel", "wordID": 959, "conditions": [24, 800, "a", 24000], "trial": 4, "serialpos": 6, "trial_type": "single-audio", "trial_index": 163, "time_elapsed": 879187, "internal_node_id": "0.0-118.0"}}, {"uniqueid": "MTK0483:34QN5IT0T0YMYTQF42CJPAQNJYL80K", "current_trial": 164, "dateTime": 1510946984822, "trialdata": {"rt": -1000, "stimulus": "/static/audio/wordpool/ANTLER.wav", "key_press": -1, "type": "PRES_AUD", "word": "antler", "wordID": 28, "conditions": [24, 800, "a", 24000], "trial": 4, "serialpos": 7, "trial_type": "single-audio", "trial_index": 164, "time_elapsed": 881054, "internal_node_id": "0.0-119.0"}}, {"uniqueid": "MTK0483:34QN5IT0T0YMYTQF42CJPAQNJYL80K", "current_trial": 165, "dateTime": 1510946986759, "trialdata": {"rt": -1000, "stimulus": "/static/audio/wordpool/ANKLE.wav", "key_press": -1, "type": "PRES_AUD", "word": "ankle", "wordID": 23, "conditions": [24, 800, "a", 24000], "trial": 4, "serialpos": 8, "trial_type": "single-audio", "trial_index": 165, "time_elapsed": 882991, "internal_node_id": "0.0-120.0"}}, {"uniqueid": "MTK0483:34QN5IT0T0YMYTQF42CJPAQNJYL80K", "current_trial": 166, "dateTime": 1510946988390, "trialdata": {"rt": -1000, "stimulus": "/static/audio/wordpool/LEG.wav", "key_press": -1, "type": "PRES_AUD", "word": "leg", "wordID": 808, "conditions": [24, 800, "a", 24000], "trial": 4, "serialpos": 9, "trial_type": "single-audio", "trial_index": 166, "time_elapsed": 884622, "internal_node_id": "0.0-121.0"}}, {"uniqueid": "MTK0483:34QN5IT0T0YMYTQF42CJPAQNJYL80K", "current_trial": 167, "dateTime": 1510946990287, "trialdata": {"rt": -1000, "stimulus": "/static/audio/wordpool/CONCERT.wav", "key_press": -1, "type": "PRES_AUD", "word": "concert", "wordID": 359, "conditions": [24, 800, "a", 24000], "trial": 4, "serialpos": 10, "trial_type": "single-audio", "trial_index": 167, "time_elapsed": 886519, "internal_node_id": "0.0-122.0"}}, {"uniqueid": "MTK0483:34QN5IT0T0YMYTQF42CJPAQNJYL80K", "current_trial": 168, "dateTime": 1510946992107, "trialdata": {"rt": -1000, "stimulus": "/static/audio/wordpool/CLAM.wav", "key_press": -1, "type": "PRES_AUD", "word": "clam", "wordID": 314, "conditions": [24, 800, "a", 24000], "trial": 4, "serialpos": 11, "trial_type": "single-audio", "trial_index": 168, "time_elapsed": 888339, "internal_node_id": "0.0-123.0"}}, {"uniqueid": "MTK0483:34QN5IT0T0YMYTQF42CJPAQNJYL80K", "current_trial": 169, "dateTime": 1510946993994, "trialdata": {"rt": -1000, "stimulus": "/static/audio/wordpool/PEPPER.wav", "key_press": -1, "type": "PRES_AUD", "word": "pepper", "wordID": 1046, "conditions": [24, 800, "a", 24000], "trial": 4, "serialpos": 12, "trial_type": "single-audio", "trial_index": 169, "time_elapsed": 890226, "internal_node_id": "0.0-124.0"}}, {"uniqueid": "MTK0483:34QN5IT0T0YMYTQF42CJPAQNJYL80K", "current_trial": 170, "dateTime": 1510946995811, "trialdata": {"rt": -1000, "stimulus": "/static/audio/wordpool/HOSTESS.wav", "key_press": -1, "type": "PRES_AUD", "word": "hostess", "wordID": 722, "conditions": [24, 800, "a", 24000], "trial": 4, "serialpos": 13, "trial_type": "single-audio", "trial_index": 170, "time_elapsed": 892043, "internal_node_id": "0.0-125.0"}}, {"uniqueid": "MTK0483:34QN5IT0T0YMYTQF42CJPAQNJYL80K", "current_trial": 171, "dateTime": 1510946997421, "trialdata": {"rt": -1000, "stimulus": "/static/audio/wordpool/SCALPEL.wav", "key_press": -1, "type": "PRES_AUD", "word": "scalpel", "wordID": 1242, "conditions": [24, 800, "a", 24000], "trial": 4, "serialpos": 14, "trial_type": "single-audio", "trial_index": 171, "time_elapsed": 893653, "internal_node_id": "0.0-126.0"}}, {"uniqueid": "MTK0483:34QN5IT0T0YMYTQF42CJPAQNJYL80K", "current_trial": 172, "dateTime": 1510946999280, "trialdata": {"rt": -1000, "stimulus": "/static/audio/wordpool/RAZOR.wav", "key_press": -1, "type": "PRES_AUD", "word": "razor", "wordID": 1170, "conditions": [24, 800, "a", 24000], "trial": 4, "serialpos": 15, "trial_type": "single-audio", "trial_index": 172, "time_elapsed": 895512, "internal_node_id": "0.0-127.0"}}, {"uniqueid": "MTK0483:34QN5IT0T0YMYTQF42CJPAQNJYL80K", "current_trial": 173, "dateTime": 1510947001278, "trialdata": {"rt": -1000, "stimulus": "/static/audio/wordpool/VALVE.wav", "key_press": -1, "type": "PRES_AUD", "word": "valve", "wordID": 1545, "conditions": [24, 800, "a", 24000], "trial": 4, "serialpos": 16, "trial_type": "single-audio", "trial_index": 173, "time_elapsed": 897510, "internal_node_id": "0.0-128.0"}}, {"uniqueid": "MTK0483:34QN5IT0T0YMYTQF42CJPAQNJYL80K", "current_trial": 174, "dateTime": 1510947002917, "trialdata": {"rt": -1000, "stimulus": "/static/audio/wordpool/PANTHER.wav", "key_press": -1, "type": "PRES_AUD", "word": "panther", "wordID": 1008, "conditions": [24, 800, "a", 24000], "trial": 4, "serialpos": 17, "trial_type": "single-audio", "trial_index": 174, "time_elapsed": 899149, "internal_node_id": "0.0-129.0"}}, {"uniqueid": "MTK0483:34QN5IT0T0YMYTQF42CJPAQNJYL80K", "current_trial": 175, "dateTime": 1510947004755, "trialdata": {"rt": -1000, "stimulus": "/static/audio/wordpool/UNCLE.wav", "key_press": -1, "type": "PRES_AUD", "word": "uncle", "wordID": 1535, "conditions": [24, 800, "a", 24000], "trial": 4, "serialpos": 18, "trial_type": "single-audio", "trial_index": 175, "time_elapsed": 900987, "internal_node_id": "0.0-130.0"}}, {"uniqueid": "MTK0483:34QN5IT0T0YMYTQF42CJPAQNJYL80K", "current_trial": 176, "dateTime": 1510947006494, "trialdata": {"rt": -1000, "stimulus": "/static/audio/wordpool/WAITRESS.wav", "key_press": -1, "type": "PRES_AUD", "word": "waitress", "wordID": 1580, "conditions": [24, 800, "a", 24000], "trial": 4, "serialpos": 19, "trial_type": "single-audio", "trial_index": 176, "time_elapsed": 902726, "internal_node_id": "0.0-131.0"}}, {"uniqueid": "MTK0483:34QN5IT0T0YMYTQF42CJPAQNJYL80K", "current_trial": 177, "dateTime": 1510947008202, "trialdata": {"rt": -1000, "stimulus": "/static/audio/wordpool/SALMON.wav", "key_press": -1, "type": "PRES_AUD", "word": "salmon", "wordID": 1226, "conditions": [24, 800, "a", 24000], "trial": 4, "serialpos": 20, "trial_type": "single-audio", "trial_index": 177, "time_elapsed": 904434, "internal_node_id": "0.0-132.0"}}, {"uniqueid": "MTK0483:34QN5IT0T0YMYTQF42CJPAQNJYL80K", "current_trial": 178, "dateTime": 1510947010208, "trialdata": {"rt": -1000, "stimulus": "/static/audio/wordpool/BREAST.wav", "key_press": -1, "type": "PRES_AUD", "word": "breast", "wordID": 170, "conditions": [24, 800, "a", 24000], "trial": 4, "serialpos": 21, "trial_type": "single-audio", "trial_index": 178, "time_elapsed": 906440, "internal_node_id": "0.0-133.0"}}, {"uniqueid": "MTK0483:34QN5IT0T0YMYTQF42CJPAQNJYL80K", "current_trial": 179, "dateTime": 1510947012136, "trialdata": {"rt": -1000, "stimulus": "/static/audio/wordpool/CELLAR.wav", "key_press": -1, "type": "PRES_AUD", "word": "cellar", "wordID": 266, "conditions": [24, 800, "a", 24000], "trial": 4, "serialpos": 22, "trial_type": "single-audio", "trial_index": 179, "time_elapsed": 908368, "internal_node_id": "0.0-134.0"}}, {"uniqueid": "MTK0483:34QN5IT0T0YMYTQF42CJPAQNJYL80K", "current_trial": 180, "dateTime": 1510947013963, "trialdata": {"rt": -1000, "stimulus": "/static/audio/wordpool/BROOK.wav", "key_press": -1, "type": "PRES_AUD", "word": "brook", "wordID": 176, "conditions": [24, 800, "a", 24000], "trial": 4, "serialpos": 23, "trial_type": "single-audio", "trial_index": 180, "time_elapsed": 910195, "internal_node_id": "0.0-135.0"}}, {"uniqueid": "MTK0483:34QN5IT0T0YMYTQF42CJPAQNJYL80K", "current_trial": 181, "dateTime": 1510947015283, "trialdata": {"rt": -1, "stimulus": "", "key_press": -1, "type": "PRE_RECALL_DELAY", "trial_type": "single-stim", "trial_index": 181, "time_elapsed": 911515, "internal_node_id": "0.0-136.0-0.0"}}, {"uniqueid": "MTK0483:34QN5IT0T0YMYTQF42CJPAQNJYL80K", "current_trial": 182, "dateTime": 1510947015792, "trialdata": {"rt": -1000, "stimulus": "/static/audio/400Hz.wav", "key_press": -1, "type": "PRE_RECALL_ALERT", "trial_type": "single-audio", "trial_index": 182, "time_elapsed": 912024, "internal_node_id": "0.0-137.0"}}, {"uniqueid": "MTK0483:34QN5IT0T0YMYTQF42CJPAQNJYL80K", "current_trial": 183, "dateTime": 1510947075798, "trialdata": {"rt": [3738, 5397, 9197, 11046, 18436, 22783, 24893, 26114, 31804, 39475, 41651, 44284, 45956, 48939, 55019, 57675, 59451], "recwords": ["brook", "seller", "summer", "breast", "unkle", "concert", "grin", "pepper", "hostess", "waitress", "peg", "ankle", "nover", "author", "antler", "lilly", "oyster"], "type": "FREE_RECALL", "conditions": [24, 800, "a", 24000], "trial": 4, "trial_type": "free-recall", "trial_index": 183, "time_elapsed": 972026, "internal_node_id": "0.0-138.0-0.0"}}, {"uniqueid": "MTK0483:34QN5IT0T0YMYTQF42CJPAQNJYL80K", "current_trial": 184, "dateTime": 1510947082796, "trialdata": {"rt": 4996, "key_press": 76, "type": "INSTRUCTIONS", "trial_type": "text", "trial_index": 184, "time_elapsed": 979028, "internal_node_id": "0.0-139.0"}}, {"uniqueid": "MTK0483:34QN5IT0T0YMYTQF42CJPAQNJYL80K", "current_trial": 185, "dateTime": 1510947096799, "trialdata": {"rt": [3085, 5541, 8629], "responses": ["7", "14", "19"], "num1": [3, 6, 4, 3], "num2": [2, 4, 8, 8], "num3": [2, 4, 7, 9], "type": "DISTRACTOR", "conditions": [24, 1600, "v", 12000], "trial": 5, "trial_type": "math-distractor", "trial_index": 185, "time_elapsed": 993031, "internal_node_id": "0.0-140.0"}}, {"uniqueid": "MTK0483:34QN5IT0T0YMYTQF42CJPAQNJYL80K", "current_trial": 186, "dateTime": 1510947099801, "trialdata": {"rt": -1, "stimulus": "<p id=\"stim\">10</p>", "key_press": -1, "trial_type": "single-stim", "trial_index": 186, "time_elapsed": 996033, "internal_node_id": "0.0-141.0-0.0"}}, {"uniqueid": "MTK0483:34QN5IT0T0YMYTQF42CJPAQNJYL80K", "current_trial": 187, "dateTime": 1510947100802, "trialdata": {"rt": -1, "stimulus": "<p id=\"stim\">9</p>", "key_press": -1, "trial_type": "single-stim", "trial_index": 187, "time_elapsed": 997034, "internal_node_id": "0.0-141.0-1.0"}}, {"uniqueid": "MTK0483:34QN5IT0T0YMYTQF42CJPAQNJYL80K", "current_trial": 188, "dateTime": 1510947101803, "trialdata": {"rt": -1, "stimulus": "<p id=\"stim\">8</p>", "key_press": -1, "trial_type": "single-stim", "trial_index": 188, "time_elapsed": 998035, "internal_node_id": "0.0-141.0-2.0"}}, {"uniqueid": "MTK0483:34QN5IT0T0YMYTQF42CJPAQNJYL80K", "current_trial": 189, "dateTime": 1510947102804, "trialdata": {"rt": -1, "stimulus": "<p id=\"stim\">7</p>", "key_press": -1, "trial_type": "single-stim", "trial_index": 189, "time_elapsed": 999036, "internal_node_id": "0.0-141.0-3.0"}}, {"uniqueid": "MTK0483:34QN5IT0T0YMYTQF42CJPAQNJYL80K", "current_trial": 190, "dateTime": 1510947103805, "trialdata": {"rt": -1, "stimulus": "<p id=\"stim\">6</p>", "key_press": -1, "trial_type": "single-stim", "trial_index": 190, "time_elapsed": 1000037, "internal_node_id": "0.0-141.0-4.0"}}, {"uniqueid": "MTK0483:34QN5IT0T0YMYTQF42CJPAQNJYL80K", "current_trial": 191, "dateTime": 1510947104806, "trialdata": {"rt": -1, "stimulus": "<p id=\"stim\">5</p>", "key_press": -1, "trial_type": "single-stim", "trial_index": 191, "time_elapsed": 1001038, "internal_node_id": "0.0-141.0-5.0"}}, {"uniqueid": "MTK0483:34QN5IT0T0YMYTQF42CJPAQNJYL80K", "current_trial": 192, "dateTime": 1510947105807, "trialdata": {"rt": -1, "stimulus": "<p id=\"stim\">4</p>", "key_press": -1, "trial_type": "single-stim", "trial_index": 192, "time_elapsed": 1002039, "internal_node_id": "0.0-141.0-6.0"}}, {"uniqueid": "MTK0483:34QN5IT0T0YMYTQF42CJPAQNJYL80K", "current_trial": 193, "dateTime": 1510947106808, "trialdata": {"rt": -1, "stimulus": "<p id=\"stim\">3</p>", "key_press": -1, "trial_type": "single-stim", "trial_index": 193, "time_elapsed": 1003040, "internal_node_id": "0.0-141.0-7.0"}}, {"uniqueid": "MTK0483:34QN5IT0T0YMYTQF42CJPAQNJYL80K", "current_trial": 194, "dateTime": 1510947107809, "trialdata": {"rt": -1, "stimulus": "<p id=\"stim\">2</p>", "key_press": -1, "trial_type": "single-stim", "trial_index": 194, "time_elapsed": 1004041, "internal_node_id": "0.0-141.0-8.0"}}, {"uniqueid": "MTK0483:34QN5IT0T0YMYTQF42CJPAQNJYL80K", "current_trial": 195, "dateTime": 1510947108811, "trialdata": {"rt": -1, "stimulus": "<p id=\"stim\">1</p>", "key_press": -1, "trial_type": "single-stim", "trial_index": 195, "time_elapsed": 1005043, "internal_node_id": "0.0-141.0-9.0"}}, {"uniqueid": "MTK0483:34QN5IT0T0YMYTQF42CJPAQNJYL80K", "current_trial": 196, "dateTime": 1510947110312, "trialdata": {"rt": -1, "stimulus": "<p id=\"stim\">+</p>", "key_press": -1, "type": "FIXATION", "trial_type": "single-stim", "trial_index": 196, "time_elapsed": 1006544, "internal_node_id": "0.0-142.0-0.0"}}, {"uniqueid": "MTK0483:34QN5IT0T0YMYTQF42CJPAQNJYL80K", "current_trial": 197, "dateTime": 1510947111913, "trialdata": {"rt": -1, "stimulus": "<p id=\"stim\">JELLY</p>", "key_press": -1, "type": "PRES_VIS", "word": "jelly", "wordID": 754, "conditions": [24, 1600, "v", 12000], "trial": 5, "serialpos": 0, "trial_type": "single-stim", "trial_index": 197, "time_elapsed": 1008145, "internal_node_id": "0.0-143.0"}}, {"uniqueid": "MTK0483:34QN5IT0T0YMYTQF42CJPAQNJYL80K", "current_trial": 198, "dateTime": 1510947114410, "trialdata": {"rt": -1, "stimulus": "<p id=\"stim\">BELLY</p>", "key_press": -1, "type": "PRES_VIS", "word": "belly", "wordID": 118, "conditions": [24, 1600, "v", 12000], "trial": 5, "serialpos": 1, "trial_type": "single-stim", "trial_index": 198, "time_elapsed": 1010642, "internal_node_id": "0.0-144.0"}}, {"uniqueid": "MTK0483:34QN5IT0T0YMYTQF42CJPAQNJYL80K", "current_trial": 199, "dateTime": 1510947117195, "trialdata": {"rt": -1, "stimulus": "<p id=\"stim\">GARDEN</p>", "key_press": -1, "type": "PRES_VIS", "word": "garden", "wordID": 622, "conditions": [24, 1600, "v", 12000], "trial": 5, "serialpos": 2, "trial_type": "single-stim", "trial_index": 199, "time_elapsed": 1013427, "internal_node_id": "0.0-145.0"}}, {"uniqueid": "MTK0483:34QN5IT0T0YMYTQF42CJPAQNJYL80K", "current_trial": 200, "dateTime": 1510947119690, "trialdata": {"rt": -1, "stimulus": "<p id=\"stim\">CAPTIVE</p>", "key_press": -1, "type": "PRES_VIS", "word": "captive", "wordID": 239, "conditions": [24, 1600, "v", 12000], "trial": 5, "serialpos": 3, "trial_type": "single-stim", "trial_index": 200, "time_elapsed": 1015922, "internal_node_id": "0.0-146.0"}}, {"uniqueid": "MTK0483:34QN5IT0T0YMYTQF42CJPAQNJYL80K", "current_trial": 201, "dateTime": 1510947122335, "trialdata": {"rt": -1, "stimulus": "<p id=\"stim\">BACKBONE</p>", "key_press": -1, "type": "PRES_VIS", "word": "backbone", "wordID": 65, "conditions": [24, 1600, "v", 12000], "trial": 5, "serialpos": 4, "trial_type": "single-stim", "trial_index": 201, "time_elapsed": 1018567, "internal_node_id": "0.0-147.0"}}, {"uniqueid": "MTK0483:34QN5IT0T0YMYTQF42CJPAQNJYL80K", "current_trial": 202, "dateTime": 1510947124997, "trialdata": {"rt": -1, "stimulus": "<p id=\"stim\">HAWK</p>", "key_press": -1, "type": "PRES_VIS", "word": "hawk", "wordID": 691, "conditions": [24, 1600, "v", 12000], "trial": 5, "serialpos": 5, "trial_type": "single-stim", "trial_index": 202, "time_elapsed": 1021229, "internal_node_id": "0.0-148.0"}}, {"uniqueid": "MTK0483:34QN5IT0T0YMYTQF42CJPAQNJYL80K", "current_trial": 203, "dateTime": 1510947127572, "trialdata": {"rt": -1, "stimulus": "<p id=\"stim\">POSSUM</p>", "key_press": -1, "type": "PRES_VIS", "word": "possum", "wordID": 1111, "conditions": [24, 1600, "v", 12000], "trial": 5, "serialpos": 6, "trial_type": "single-stim", "trial_index": 203, "time_elapsed": 1023804, "internal_node_id": "0.0-149.0"}}, {"uniqueid": "MTK0483:34QN5IT0T0YMYTQF42CJPAQNJYL80K", "current_trial": 204, "dateTime": 1510947129978, "trialdata": {"rt": -1, "stimulus": "<p id=\"stim\">OZONE</p>", "key_press": -1, "type": "PRES_VIS", "word": "ozone", "wordID": 995, "conditions": [24, 1600, "v", 12000], "trial": 5, "serialpos": 7, "trial_type": "single-stim", "trial_index": 204, "time_elapsed": 1026210, "internal_node_id": "0.0-150.0"}}, {"uniqueid": "MTK0483:34QN5IT0T0YMYTQF42CJPAQNJYL80K", "current_trial": 205, "dateTime": 1510947132709, "trialdata": {"rt": -1, "stimulus": "<p id=\"stim\">SHARK</p>", "key_press": -1, "type": "PRES_VIS", "word": "shark", "wordID": 1274, "conditions": [24, 1600, "v", 12000], "trial": 5, "serialpos": 8, "trial_type": "single-stim", "trial_index": 205, "time_elapsed": 1028941, "internal_node_id": "0.0-151.0"}}, {"uniqueid": "MTK0483:34QN5IT0T0YMYTQF42CJPAQNJYL80K", "current_trial": 206, "dateTime": 1510947135505, "trialdata": {"rt": -1, "stimulus": "<p id=\"stim\">MAMMAL</p>", "key_press": -1, "type": "PRES_VIS", "word": "mammal", "wordID": 860, "conditions": [24, 1600, "v", 12000], "trial": 5, "serialpos": 9, "trial_type": "single-stim", "trial_index": 206, "time_elapsed": 1031737, "internal_node_id": "0.0-152.0"}}, {"uniqueid": "MTK0483:34QN5IT0T0YMYTQF42CJPAQNJYL80K", "current_trial": 207, "dateTime": 1510947137932, "trialdata": {"rt": -1, "stimulus": "<p id=\"stim\">SMOG</p>", "key_press": -1, "type": "PRES_VIS", "word": "smog", "wordID": 1329, "conditions": [24, 1600, "v", 12000], "trial": 5, "serialpos": 10, "trial_type": "single-stim", "trial_index": 207, "time_elapsed": 1034164, "internal_node_id": "0.0-153.0"}}, {"uniqueid": "MTK0483:34QN5IT0T0YMYTQF42CJPAQNJYL80K", "current_trial": 208, "dateTime": 1510947140637, "trialdata": {"rt": -1, "stimulus": "<p id=\"stim\">DINER</p>", "key_press": -1, "type": "PRES_VIS", "word": "diner", "wordID": 466, "conditions": [24, 1600, "v", 12000], "trial": 5, "serialpos": 11, "trial_type": "single-stim", "trial_index": 208, "time_elapsed": 1036869, "internal_node_id": "0.0-154.0"}}, {"uniqueid": "MTK0483:34QN5IT0T0YMYTQF42CJPAQNJYL80K", "current_trial": 209, "dateTime": 1510947143411, "trialdata": {"rt": -1, "stimulus": "<p id=\"stim\">DANDRUFF</p>", "key_press": -1, "type": "PRES_VIS", "word": "dandruff", "wordID": 438, "conditions": [24, 1600, "v", 12000], "trial": 5, "serialpos": 12, "trial_type": "single-stim", "trial_index": 209, "time_elapsed": 1039643, "internal_node_id": "0.0-155.0"}}, {"uniqueid": "MTK0483:34QN5IT0T0YMYTQF42CJPAQNJYL80K", "current_trial": 210, "dateTime": 1510947145877, "trialdata": {"rt": -1, "stimulus": "<p id=\"stim\">CAMEL</p>", "key_press": -1, "type": "PRES_VIS", "word": "camel", "wordID": 222, "conditions": [24, 1600, "v", 12000], "trial": 5, "serialpos": 13, "trial_type": "single-stim", "trial_index": 210, "time_elapsed": 1042109, "internal_node_id": "0.0-156.0"}}, {"uniqueid": "MTK0483:34QN5IT0T0YMYTQF42CJPAQNJYL80K", "current_trial": 211, "dateTime": 1510947148672, "trialdata": {"rt": -1, "stimulus": "<p id=\"stim\">DRESSER</p>", "key_press": -1, "type": "PRES_VIS", "word": "dresser", "wordID": 495, "conditions": [24, 1600, "v", 12000], "trial": 5, "serialpos": 14, "trial_type": "single-stim", "trial_index": 211, "time_elapsed": 1044904, "internal_node_id": "0.0-157.0"}}, {"uniqueid": "MTK0483:34QN5IT0T0YMYTQF42CJPAQNJYL80K", "current_trial": 212, "dateTime": 1510947151405, "trialdata": {"rt": -1, "stimulus": "<p id=\"stim\">CUPBOARD</p>", "key_press": -1, "type": "PRES_VIS", "word": "cupboard", "wordID": 424, "conditions": [24, 1600, "v", 12000], "trial": 5, "serialpos": 15, "trial_type": "single-stim", "trial_index": 212, "time_elapsed": 1047637, "internal_node_id": "0.0-158.0"}}, {"uniqueid": "MTK0483:34QN5IT0T0YMYTQF42CJPAQNJYL80K", "current_trial": 213, "dateTime": 1510947154195, "trialdata": {"rt": -1, "stimulus": "<p id=\"stim\">LIZARD</p>", "key_press": -1, "type": "PRES_VIS", "word": "lizard", "wordID": 833, "conditions": [24, 1600, "v", 12000], "trial": 5, "serialpos": 16, "trial_type": "single-stim", "trial_index": 213, "time_elapsed": 1050427, "internal_node_id": "0.0-159.0"}}, {"uniqueid": "MTK0483:34QN5IT0T0YMYTQF42CJPAQNJYL80K", "current_trial": 214, "dateTime": 1510947156946, "trialdata": {"rt": -1, "stimulus": "<p id=\"stim\">BEAVER</p>", "key_press": -1, "type": "PRES_VIS", "word": "beaver", "wordID": 108, "conditions": [24, 1600, "v", 12000], "trial": 5, "serialpos": 17, "trial_type": "single-stim", "trial_index": 214, "time_elapsed": 1053178, "internal_node_id": "0.0-160.0"}}, {"uniqueid": "MTK0483:34QN5IT0T0YMYTQF42CJPAQNJYL80K", "current_trial": 215, "dateTime": 1510947159462, "trialdata": {"rt": -1, "stimulus": "<p id=\"stim\">ACTRESS</p>", "key_press": -1, "type": "PRES_VIS", "word": "actress", "wordID": 5, "conditions": [24, 1600, "v", 12000], "trial": 5, "serialpos": 18, "trial_type": "single-stim", "trial_index": 215, "time_elapsed": 1055694, "internal_node_id": "0.0-161.0"}}, {"uniqueid": "MTK0483:34QN5IT0T0YMYTQF42CJPAQNJYL80K", "current_trial": 216, "dateTime": 1510947162150, "trialdata": {"rt": -1, "stimulus": "<p id=\"stim\">GRAPE</p>", "key_press": -1, "type": "PRES_VIS", "word": "grape", "wordID": 653, "conditions": [24, 1600, "v", 12000], "trial": 5, "serialpos": 19, "trial_type": "single-stim", "trial_index": 216, "time_elapsed": 1058382, "internal_node_id": "0.0-162.0"}}, {"uniqueid": "MTK0483:34QN5IT0T0YMYTQF42CJPAQNJYL80K", "current_trial": 217, "dateTime": 1510947164904, "trialdata": {"rt": -1, "stimulus": "<p id=\"stim\">ARMY</p>", "key_press": -1, "type": "PRES_VIS", "word": "army", "wordID": 38, "conditions": [24, 1600, "v", 12000], "trial": 5, "serialpos": 20, "trial_type": "single-stim", "trial_index": 217, "time_elapsed": 1061136, "internal_node_id": "0.0-163.0"}}, {"uniqueid": "MTK0483:34QN5IT0T0YMYTQF42CJPAQNJYL80K", "current_trial": 218, "dateTime": 1510947167399, "trialdata": {"rt": -1, "stimulus": "<p id=\"stim\">RATTLE</p>", "key_press": -1, "type": "PRES_VIS", "word": "rattle", "wordID": 1169, "conditions": [24, 1600, "v", 12000], "trial": 5, "serialpos": 21, "trial_type": "single-stim", "trial_index": 218, "time_elapsed": 1063631, "internal_node_id": "0.0-164.0"}}, {"uniqueid": "MTK0483:34QN5IT0T0YMYTQF42CJPAQNJYL80K", "current_trial": 219, "dateTime": 1510947170164, "trialdata": {"rt": -1, "stimulus": "<p id=\"stim\">CRUTCH</p>", "key_press": -1, "type": "PRES_VIS", "word": "crutch", "wordID": 416, "conditions": [24, 1600, "v", 12000], "trial": 5, "serialpos": 22, "trial_type": "single-stim", "trial_index": 219, "time_elapsed": 1066396, "internal_node_id": "0.0-165.0"}}, {"uniqueid": "MTK0483:34QN5IT0T0YMYTQF42CJPAQNJYL80K", "current_trial": 220, "dateTime": 1510947172916, "trialdata": {"rt": -1, "stimulus": "<p id=\"stim\">ACTOR</p>", "key_press": -1, "type": "PRES_VIS", "word": "actor", "wordID": 4, "conditions": [24, 1600, "v", 12000], "trial": 5, "serialpos": 23, "trial_type": "single-stim", "trial_index": 220, "time_elapsed": 1069146, "internal_node_id": "0.0-166.0"}}, {"uniqueid": "MTK0483:34QN5IT0T0YMYTQF42CJPAQNJYL80K", "current_trial": 221, "dateTime": 1510947175333, "trialdata": {"rt": -1, "stimulus": "", "key_press": -1, "type": "PRE_RECALL_DELAY", "trial_type": "single-stim", "trial_index": 221, "time_elapsed": 1071565, "internal_node_id": "0.0-167.0-0.0"}}, {"uniqueid": "MTK0483:34QN5IT0T0YMYTQF42CJPAQNJYL80K", "current_trial": 222, "dateTime": 1510947175835, "trialdata": {"rt": -1000, "stimulus": "/static/audio/400Hz.wav", "key_press": -1, "type": "PRE_RECALL_ALERT", "trial_type": "single-audio", "trial_index": 222, "time_elapsed": 1072067, "internal_node_id": "0.0-168.0"}}, {"uniqueid": "MTK0483:34QN5IT0T0YMYTQF42CJPAQNJYL80K", "current_trial": 223, "dateTime": 1510947235842, "trialdata": {"rt": [5445, 6933, 8914, 11005, 13731, 17111, 19471, 26728, 29175, 32351, 35559, 37775, 40015, 43791, 47119, 48655, 50495, 52512, 53664, 55792], "recwords": ["actor", "crutch", "raffle", "grape", "actress", "beaver", "lizard", "cupboard", "dresser", "camel", "dandruff", "diner", "smog", "mammal", "shark", "ozone", "possum", "jelly", "belly", "garden"], "type": "FREE_RECALL", "conditions": [24, 1600, "v", 12000], "trial": 5, "trial_type": "free-recall", "trial_index": 223, "time_elapsed": 1132070, "internal_node_id": "0.0-169.0-0.0"}}, {"uniqueid": "MTK0483:34QN5IT0T0YMYTQF42CJPAQNJYL80K", "current_trial": 224, "dateTime": 1510947240394, "trialdata": {"rt": 2551, "key_press": 76, "type": "INSTRUCTIONS", "trial_type": "text", "trial_index": 224, "time_elapsed": 1136626, "internal_node_id": "0.0-170.0"}}, {"uniqueid": "MTK0483:34QN5IT0T0YMYTQF42CJPAQNJYL80K", "current_trial": 225, "dateTime": 1510947254397, "trialdata": {"rt": [2223, 4607, 8343, 11823], "responses": ["14", "8", "17", "13"], "num1": [7, 1, 3, 2, 4], "num2": [3, 6, 7, 4, 3], "num3": [4, 1, 7, 7, 3], "type": "DISTRACTOR", "conditions": [24, 800, "a", 12000], "trial": 6, "trial_type": "math-distractor", "trial_index": 225, "time_elapsed": 1150629, "internal_node_id": "0.0-171.0"}}, {"uniqueid": "MTK0483:34QN5IT0T0YMYTQF42CJPAQNJYL80K", "current_trial": 226, "dateTime": 1510947257399, "trialdata": {"rt": -1, "stimulus": "<p id=\"stim\">10</p>", "key_press": -1, "trial_type": "single-stim", "trial_index": 226, "time_elapsed": 1153631, "internal_node_id": "0.0-172.0-0.0"}}, {"uniqueid": "MTK0483:34QN5IT0T0YMYTQF42CJPAQNJYL80K", "current_trial": 227, "dateTime": 1510947258400, "trialdata": {"rt": -1, "stimulus": "<p id=\"stim\">9</p>", "key_press": -1, "trial_type": "single-stim", "trial_index": 227, "time_elapsed": 1154632, "internal_node_id": "0.0-172.0-1.0"}}, {"uniqueid": "MTK0483:34QN5IT0T0YMYTQF42CJPAQNJYL80K", "current_trial": 228, "dateTime": 1510947259401, "trialdata": {"rt": -1, "stimulus": "<p id=\"stim\">8</p>", "key_press": -1, "trial_type": "single-stim", "trial_index": 228, "time_elapsed": 1155633, "internal_node_id": "0.0-172.0-2.0"}}, {"uniqueid": "MTK0483:34QN5IT0T0YMYTQF42CJPAQNJYL80K", "current_trial": 229, "dateTime": 1510947260402, "trialdata": {"rt": -1, "stimulus": "<p id=\"stim\">7</p>", "key_press": -1, "trial_type": "single-stim", "trial_index": 229, "time_elapsed": 1156634, "internal_node_id": "0.0-172.0-3.0"}}, {"uniqueid": "MTK0483:34QN5IT0T0YMYTQF42CJPAQNJYL80K", "current_trial": 230, "dateTime": 1510947261403, "trialdata": {"rt": -1, "stimulus": "<p id=\"stim\">6</p>", "key_press": -1, "trial_type": "single-stim", "trial_index": 230, "time_elapsed": 1157635, "internal_node_id": "0.0-172.0-4.0"}}, {"uniqueid": "MTK0483:34QN5IT0T0YMYTQF42CJPAQNJYL80K", "current_trial": 231, "dateTime": 1510947262407, "trialdata": {"rt": -1, "stimulus": "<p id=\"stim\">5</p>", "key_press": -1, "trial_type": "single-stim", "trial_index": 231, "time_elapsed": 1158637, "internal_node_id": "0.0-172.0-5.0"}}, {"uniqueid": "MTK0483:34QN5IT0T0YMYTQF42CJPAQNJYL80K", "current_trial": 232, "dateTime": 1510947263408, "trialdata": {"rt": -1, "stimulus": "<p id=\"stim\">4</p>", "key_press": -1, "trial_type": "single-stim", "trial_index": 232, "time_elapsed": 1159640, "internal_node_id": "0.0-172.0-6.0"}}, {"uniqueid": "MTK0483:34QN5IT0T0YMYTQF42CJPAQNJYL80K", "current_trial": 233, "dateTime": 1510947264409, "trialdata": {"rt": -1, "stimulus": "<p id=\"stim\">3</p>", "key_press": -1, "trial_type": "single-stim", "trial_index": 233, "time_elapsed": 1160641, "internal_node_id": "0.0-172.0-7.0"}}, {"uniqueid": "MTK0483:34QN5IT0T0YMYTQF42CJPAQNJYL80K", "current_trial": 234, "dateTime": 1510947265410, "trialdata": {"rt": -1, "stimulus": "<p id=\"stim\">2</p>", "key_press": -1, "trial_type": "single-stim", "trial_index": 234, "time_elapsed": 1161642, "internal_node_id": "0.0-172.0-8.0"}}, {"uniqueid": "MTK0483:34QN5IT0T0YMYTQF42CJPAQNJYL80K", "current_trial": 235, "dateTime": 1510947266411, "trialdata": {"rt": -1, "stimulus": "<p id=\"stim\">1</p>", "key_press": -1, "trial_type": "single-stim", "trial_index": 235, "time_elapsed": 1162643, "internal_node_id": "0.0-172.0-9.0"}}, {"uniqueid": "MTK0483:34QN5IT0T0YMYTQF42CJPAQNJYL80K", "current_trial": 236, "dateTime": 1510947267912, "trialdata": {"rt": -1, "stimulus": "<p id=\"stim\">+</p>", "key_press": -1, "type": "FIXATION", "trial_type": "single-stim", "trial_index": 236, "time_elapsed": 1164144, "internal_node_id": "0.0-173.0-0.0"}}, {"uniqueid": "MTK0483:34QN5IT0T0YMYTQF42CJPAQNJYL80K", "current_trial": 237, "dateTime": 1510947269745, "trialdata": {"rt": -1000, "stimulus": "/static/audio/wordpool/GRAVE.wav", "key_press": -1, "type": "PRES_AUD", "word": "grave", "wordID": 657, "conditions": [24, 800, "a", 12000], "trial": 6, "serialpos": 0, "trial_type": "single-audio", "trial_index": 237, "time_elapsed": 1165977, "internal_node_id": "0.0-174.0"}}, {"uniqueid": "MTK0483:34QN5IT0T0YMYTQF42CJPAQNJYL80K", "current_trial": 238, "dateTime": 1510947271706, "trialdata": {"rt": -1000, "stimulus": "/static/audio/wordpool/BANJO.wav", "key_press": -1, "type": "PRES_AUD", "word": "banjo", "wordID": 81, "conditions": [24, 800, "a", 12000], "trial": 6, "serialpos": 1, "trial_type": "single-audio", "trial_index": 238, "time_elapsed": 1167938, "internal_node_id": "0.0-175.0"}}, {"uniqueid": "MTK0483:34QN5IT0T0YMYTQF42CJPAQNJYL80K", "current_trial": 239, "dateTime": 1510947273622, "trialdata": {"rt": -1000, "stimulus": "/static/audio/wordpool/MAILBOX.wav", "key_press": -1, "type": "PRES_AUD", "word": "mailbox", "wordID": 856, "conditions": [24, 800, "a", 12000], "trial": 6, "serialpos": 2, "trial_type": "single-audio", "trial_index": 239, "time_elapsed": 1169854, "internal_node_id": "0.0-176.0"}}, {"uniqueid": "MTK0483:34QN5IT0T0YMYTQF42CJPAQNJYL80K", "current_trial": 240, "dateTime": 1510947275563, "trialdata": {"rt": -1000, "stimulus": "/static/audio/wordpool/SEAFOOD.wav", "key_press": -1, "type": "PRES_AUD", "word": "seafood", "wordID": 1259, "conditions": [24, 800, "a", 12000], "trial": 6, "serialpos": 3, "trial_type": "single-audio", "trial_index": 240, "time_elapsed": 1171795, "internal_node_id": "0.0-177.0"}}, {"uniqueid": "MTK0483:34QN5IT0T0YMYTQF42CJPAQNJYL80K", "current_trial": 241, "dateTime": 1510947277352, "trialdata": {"rt": -1000, "stimulus": "/static/audio/wordpool/FLESH.wav", "key_press": -1, "type": "PRES_AUD", "word": "flesh", "wordID": 578, "conditions": [24, 800, "a", 12000], "trial": 6, "serialpos": 4, "trial_type": "single-audio", "trial_index": 241, "time_elapsed": 1173584, "internal_node_id": "0.0-178.0"}}, {"uniqueid": "MTK0483:34QN5IT0T0YMYTQF42CJPAQNJYL80K", "current_trial": 242, "dateTime": 1510947279340, "trialdata": {"rt": -1000, "stimulus": "/static/audio/wordpool/GROUND.wav", "key_press": -1, "type": "PRES_AUD", "word": "ground", "wordID": 665, "conditions": [24, 800, "a", 12000], "trial": 6, "serialpos": 5, "trial_type": "single-audio", "trial_index": 242, "time_elapsed": 1175572, "internal_node_id": "0.0-179.0"}}, {"uniqueid": "MTK0483:34QN5IT0T0YMYTQF42CJPAQNJYL80K", "current_trial": 243, "dateTime": 1510947281216, "trialdata": {"rt": -1000, "stimulus": "/static/audio/wordpool/SUITCASE.wav", "key_press": -1, "type": "PRES_AUD", "word": "suitcase", "wordID": 1402, "conditions": [24, 800, "a", 12000], "trial": 6, "serialpos": 6, "trial_type": "single-audio", "trial_index": 243, "time_elapsed": 1177448, "internal_node_id": "0.0-180.0"}}, {"uniqueid": "MTK0483:34QN5IT0T0YMYTQF42CJPAQNJYL80K", "current_trial": 244, "dateTime": 1510947283037, "trialdata": {"rt": -1000, "stimulus": "/static/audio/wordpool/FRANCE.wav", "key_press": -1, "type": "PRES_AUD", "word": "france", "wordID": 600, "conditions": [24, 800, "a", 12000], "trial": 6, "serialpos": 7, "trial_type": "single-audio", "trial_index": 244, "time_elapsed": 1179269, "internal_node_id": "0.0-181.0"}}, {"uniqueid": "MTK0483:34QN5IT0T0YMYTQF42CJPAQNJYL80K", "current_trial": 245, "dateTime": 1510947284772, "trialdata": {"rt": -1000, "stimulus": "/static/audio/wordpool/FIDDLE.wav", "key_press": -1, "type": "PRES_AUD", "word": "fiddle", "wordID": 560, "conditions": [24, 800, "a", 12000], "trial": 6, "serialpos": 8, "trial_type": "single-audio", "trial_index": 245, "time_elapsed": 1181004, "internal_node_id": "0.0-182.0"}}, {"uniqueid": "MTK0483:34QN5IT0T0YMYTQF42CJPAQNJYL80K", "current_trial": 246, "dateTime": 1510947286439, "trialdata": {"rt": -1000, "stimulus": "/static/audio/wordpool/GLOVE.wav", "key_press": -1, "type": "PRES_AUD", "word": "glove", "wordID": 641, "conditions": [24, 800, "a", 12000], "trial": 6, "serialpos": 9, "trial_type": "single-audio", "trial_index": 246, "time_elapsed": 1182671, "internal_node_id": "0.0-183.0"}}, {"uniqueid": "MTK0483:34QN5IT0T0YMYTQF42CJPAQNJYL80K", "current_trial": 247, "dateTime": 1510947288286, "trialdata": {"rt": -1000, "stimulus": "/static/audio/wordpool/PEANUT.wav", "key_press": -1, "type": "PRES_AUD", "word": "peanut", "wordID": 1031, "conditions": [24, 800, "a", 12000], "trial": 6, "serialpos": 10, "trial_type": "single-audio", "trial_index": 247, "time_elapsed": 1184518, "internal_node_id": "0.0-184.0"}}, {"uniqueid": "MTK0483:34QN5IT0T0YMYTQF42CJPAQNJYL80K", "current_trial": 248, "dateTime": 1510947289992, "trialdata": {"rt": -1000, "stimulus": "/static/audio/wordpool/PECAN.wav", "key_press": -1, "type": "PRES_AUD", "word": "pecan", "wordID": 1035, "conditions": [24, 800, "a", 12000], "trial": 6, "serialpos": 11, "trial_type": "single-audio", "trial_index": 248, "time_elapsed": 1186224, "internal_node_id": "0.0-185.0"}}, {"uniqueid": "MTK0483:34QN5IT0T0YMYTQF42CJPAQNJYL80K", "current_trial": 249, "dateTime": 1510947291931, "trialdata": {"rt": -1000, "stimulus": "/static/audio/wordpool/BOUQUET.wav", "key_press": -1, "type": "PRES_AUD", "word": "bouquet", "wordID": 156, "conditions": [24, 800, "a", 12000], "trial": 6, "serialpos": 12, "trial_type": "single-audio", "trial_index": 249, "time_elapsed": 1188163, "internal_node_id": "0.0-186.0"}}, {"uniqueid": "MTK0483:34QN5IT0T0YMYTQF42CJPAQNJYL80K", "current_trial": 250, "dateTime": 1510947293749, "trialdata": {"rt": -1000, "stimulus": "/static/audio/wordpool/BRIEFCASE.wav", "key_press": -1, "type": "PRES_AUD", "word": "briefcase", "wordID": 174, "conditions": [24, 800, "a", 12000], "trial": 6, "serialpos": 13, "trial_type": "single-audio", "trial_index": 250, "time_elapsed": 1189981, "internal_node_id": "0.0-187.0"}}, {"uniqueid": "MTK0483:34QN5IT0T0YMYTQF42CJPAQNJYL80K", "current_trial": 251, "dateTime": 1510947295708, "trialdata": {"rt": -1000, "stimulus": "/static/audio/wordpool/FOOTBALL.wav", "key_press": -1, "type": "PRES_AUD", "word": "football", "wordID": 590, "conditions": [24, 800, "a", 12000], "trial": 6, "serialpos": 14, "trial_type": "single-audio", "trial_index": 251, "time_elapsed": 1191940, "internal_node_id": "0.0-188.0"}}, {"uniqueid": "MTK0483:34QN5IT0T0YMYTQF42CJPAQNJYL80K", "current_trial": 252, "dateTime": 1510947297616, "trialdata": {"rt": -1000, "stimulus": "/static/audio/wordpool/WRIST.wav", "key_press": -1, "type": "PRES_AUD", "word": "wrist", "wordID": 1625, "conditions": [24, 800, "a", 12000], "trial": 6, "serialpos": 15, "trial_type": "single-audio", "trial_index": 252, "time_elapsed": 1193848, "internal_node_id": "0.0-189.0"}}, {"uniqueid": "MTK0483:34QN5IT0T0YMYTQF42CJPAQNJYL80K", "current_trial": 253, "dateTime": 1510947299325, "trialdata": {"rt": -1000, "stimulus": "/static/audio/wordpool/PASTA.wav", "key_press": -1, "type": "PRES_AUD", "word": "pasta", "wordID": 1020, "conditions": [24, 800, "a", 12000], "trial": 6, "serialpos": 16, "trial_type": "single-audio", "trial_index": 253, "time_elapsed": 1195557, "internal_node_id": "0.0-190.0"}}, {"uniqueid": "MTK0483:34QN5IT0T0YMYTQF42CJPAQNJYL80K", "current_trial": 254, "dateTime": 1510947301114, "trialdata": {"rt": -1000, "stimulus": "/static/audio/wordpool/SUPPER.wav", "key_press": -1, "type": "PRES_AUD", "word": "supper", "wordID": 1410, "conditions": [24, 800, "a", 12000], "trial": 6, "serialpos": 17, "trial_type": "single-audio", "trial_index": 254, "time_elapsed": 1197346, "internal_node_id": "0.0-191.0"}}, {"uniqueid": "MTK0483:34QN5IT0T0YMYTQF42CJPAQNJYL80K", "current_trial": 255, "dateTime": 1510947302769, "trialdata": {"rt": -1000, "stimulus": "/static/audio/wordpool/CASHEW.wav", "key_press": -1, "type": "PRES_AUD", "word": "cashew", "wordID": 252, "conditions": [24, 800, "a", 12000], "trial": 6, "serialpos": 18, "trial_type": "single-audio", "trial_index": 255, "time_elapsed": 1199001, "internal_node_id": "0.0-192.0"}}, {"uniqueid": "MTK0483:34QN5IT0T0YMYTQF42CJPAQNJYL80K", "current_trial": 256, "dateTime": 1510947304726, "trialdata": {"rt": -1000, "stimulus": "/static/audio/wordpool/COUNTY.wav", "key_press": -1, "type": "PRES_AUD", "word": "county", "wordID": 388, "conditions": [24, 800, "a", 12000], "trial": 6, "serialpos": 19, "trial_type": "single-audio", "trial_index": 256, "time_elapsed": 1200958, "internal_node_id": "0.0-193.0"}}, {"uniqueid": "MTK0483:34QN5IT0T0YMYTQF42CJPAQNJYL80K", "current_trial": 257, "dateTime": 1510947306626, "trialdata": {"rt": -1000, "stimulus": "/static/audio/wordpool/SHERIFF.wav", "key_press": -1, "type": "PRES_AUD", "word": "sheriff", "wordID": 1283, "conditions": [24, 800, "a", 12000], "trial": 6, "serialpos": 20, "trial_type": "single-audio", "trial_index": 257, "time_elapsed": 1202858, "internal_node_id": "0.0-194.0"}}, {"uniqueid": "MTK0483:34QN5IT0T0YMYTQF42CJPAQNJYL80K", "current_trial": 258, "dateTime": 1510947308423, "trialdata": {"rt": -1000, "stimulus": "/static/audio/wordpool/FINGER.wav", "key_press": -1, "type": "PRES_AUD", "word": "finger", "wordID": 566, "conditions": [24, 800, "a", 12000], "trial": 6, "serialpos": 21, "trial_type": "single-audio", "trial_index": 258, "time_elapsed": 1204655, "internal_node_id": "0.0-195.0"}}, {"uniqueid": "MTK0483:34QN5IT0T0YMYTQF42CJPAQNJYL80K", "current_trial": 259, "dateTime": 1510947310332, "trialdata": {"rt": -1000, "stimulus": "/static/audio/wordpool/TURKEY.wav", "key_press": -1, "type": "PRES_AUD", "word": "turkey", "wordID": 1519, "conditions": [24, 800, "a", 12000], "trial": 6, "serialpos": 22, "trial_type": "single-audio", "trial_index": 259, "time_elapsed": 1206564, "internal_node_id": "0.0-196.0"}}, {"uniqueid": "MTK0483:34QN5IT0T0YMYTQF42CJPAQNJYL80K", "current_trial": 260, "dateTime": 1510947312330, "trialdata": {"rt": -1000, "stimulus": "/static/audio/wordpool/PROTON.wav", "key_press": -1, "type": "PRES_AUD", "word": "proton", "wordID": 1131, "conditions": [24, 800, "a", 12000], "trial": 6, "serialpos": 23, "trial_type": "single-audio", "trial_index": 260, "time_elapsed": 1208562, "internal_node_id": "0.0-197.0"}}, {"uniqueid": "MTK0483:34QN5IT0T0YMYTQF42CJPAQNJYL80K", "current_trial": 261, "dateTime": 1510947313696, "trialdata": {"rt": -1, "stimulus": "", "key_press": -1, "type": "PRE_RECALL_DELAY", "trial_type": "single-stim", "trial_index": 261, "time_elapsed": 1209928, "internal_node_id": "0.0-198.0-0.0"}}, {"uniqueid": "MTK0483:34QN5IT0T0YMYTQF42CJPAQNJYL80K", "current_trial": 262, "dateTime": 1510947314204, "trialdata": {"rt": -1000, "stimulus": "/static/audio/400Hz.wav", "key_press": -1, "type": "PRE_RECALL_ALERT", "trial_type": "single-audio", "trial_index": 262, "time_elapsed": 1210436, "internal_node_id": "0.0-199.0"}}, {"uniqueid": "MTK0483:34QN5IT0T0YMYTQF42CJPAQNJYL80K", "current_trial": 263, "dateTime": 1510947374210, "trialdata": {"rt": [5802, 9314, 16339, 25230, 27102, 31078, 34942, 37701, 43414, 51766, 54069, 54333, 56877], "recwords": ["proton", "finger", "tricky", "cashew", "peanut", "supper", "pasta", "football", "bouquot", "p", "glove", "", "fiddle"], "type": "FREE_RECALL", "conditions": [24, 800, "a", 12000], "trial": 6, "trial_type": "free-recall", "trial_index": 263, "time_elapsed": 1270438, "internal_node_id": "0.0-200.0-0.0"}}, {"uniqueid": "MTK0483:34QN5IT0T0YMYTQF42CJPAQNJYL80K", "current_trial": 264, "dateTime": 1510947382193, "trialdata": {"rt": 5981, "key_press": 76, "type": "INSTRUCTIONS", "trial_type": "text", "trial_index": 264, "time_elapsed": 1278425, "internal_node_id": "0.0-201.0"}}, {"uniqueid": "MTK0483:34QN5IT0T0YMYTQF42CJPAQNJYL80K", "current_trial": 265, "dateTime": 1510947408197, "trialdata": {"rt": [2877, 5437, 8261, 11197, 16885, 19509, 23229], "responses": ["10", "9", "16", "20", "21", "14", "11"], "num1": [1, 4, 6, 7, 4, 3, 6, 2], "num2": [3, 3, 6, 8, 9, 5, 2, 3], "num3": [6, 2, 4, 5, 8, 6, 3, 7], "type": "DISTRACTOR", "conditions": [12, 1600, "v", 24000], "trial": 7, "trial_type": "math-distractor", "trial_index": 265, "time_elapsed": 1304429, "internal_node_id": "0.0-202.0"}}, {"uniqueid": "MTK0483:34QN5IT0T0YMYTQF42CJPAQNJYL80K", "current_trial": 266, "dateTime": 1510947411200, "trialdata": {"rt": -1, "stimulus": "<p id=\"stim\">10</p>", "key_press": -1, "trial_type": "single-stim", "trial_index": 266, "time_elapsed": 1307432, "internal_node_id": "0.0-203.0-0.0"}}, {"uniqueid": "MTK0483:34QN5IT0T0YMYTQF42CJPAQNJYL80K", "current_trial