{"condition": 0, "counterbalance": 794, "assignmentId": "3KYQYYSHYWEJI5EPNVPA1306Q0POD1", "workerId": "MTK0199", "hitId": "3QD8LUVX4X59LHFUJEPLXK7NCYW5XD", "currenttrial": 625, "bonus": 0, "data": [{"uniqueid": "MTK0199:3KYQYYSHYWEJI5EPNVPA1306Q0POD1", "current_trial": 0, "dateTime": 1509499463452, "trialdata": {"rt": 2683, "key_press": 13, "type": "INSTRUCTIONS", "trial_type": "text", "trial_index": 0, "time_elapsed": 2685, "internal_node_id": "0.0-0.0"}}, {"uniqueid": "MTK0199:3KYQYYSHYWEJI5EPNVPA1306Q0POD1", "current_trial": 1, "dateTime": 1509499519929, "trialdata": {"rt": 56475, "key_press": 13, "type": "INSTRUCTIONS", "trial_type": "text", "trial_index": 1, "time_elapsed": 59164, "internal_node_id": "0.0-1.0"}}, {"uniqueid": "MTK0199:3KYQYYSHYWEJI5EPNVPA1306Q0POD1", "current_trial": 2, "dateTime": 1509499544067, "trialdata": {"rt": [24045], "responses": ["ocean"], "type": "AUDIO_TEST", "trial_type": "audio-test", "trial_index": 2, "time_elapsed": 83302, "internal_node_id": "0.0-2.0"}}, {"uniqueid": "MTK0199:3KYQYYSHYWEJI5EPNVPA1306Q0POD1", "current_trial": 3, "dateTime": 1509499554811, "trialdata": {"rt": [10737], "responses": ["crystal"], "type": "AUDIO_TEST", "trial_type": "audio-test", "trial_index": 3, "time_elapsed": 94046, "internal_node_id": "0.0-3.0"}}, {"uniqueid": "MTK0199:3KYQYYSHYWEJI5EPNVPA1306Q0POD1", "current_trial": 4, "dateTime": 1509499563940, "trialdata": {"rt": [9121], "responses": ["spice"], "type": "AUDIO_TEST", "trial_type": "audio-test", "trial_index": 4, "time_elapsed": 103175, "internal_node_id": "0.0-4.0"}}, {"uniqueid": "MTK0199:3KYQYYSHYWEJI5EPNVPA1306Q0POD1", "current_trial": 5, "dateTime": 1509499570867, "trialdata": {"rt": 6176, "key_press": 13, "type": "INSTRUCTIONS", "trial_type": "text", "trial_index": 5, "time_elapsed": 110102, "internal_node_id": "0.0-5.0"}}, {"uniqueid": "MTK0199:3KYQYYSHYWEJI5EPNVPA1306Q0POD1", "current_trial": 6, "dateTime": 1509499642797, "trialdata": {"rt": 71929, "key_press": 13, "type": "INSTRUCTIONS", "trial_type": "text", "trial_index": 6, "time_elapsed": 182032, "internal_node_id": "0.0-6.0"}}, {"uniqueid": "MTK0199:3KYQYYSHYWEJI5EPNVPA1306Q0POD1", "current_trial": 7, "dateTime": 1509499663749, "trialdata": {"rt": 20951, "key_press": 13, "type": "INSTRUCTIONS", "trial_type": "text", "trial_index": 7, "time_elapsed": 202984, "internal_node_id": "0.0-7.0"}}, {"uniqueid": "MTK0199:3KYQYYSHYWEJI5EPNVPA1306Q0POD1", "current_trial": 8, "dateTime": 1509499687782, "trialdata": {"rt": 24032, "key_press": 13, "type": "INSTRUCTIONS", "trial_type": "text", "trial_index": 8, "time_elapsed": 227017, "internal_node_id": "0.0-8.0"}}, {"uniqueid": "MTK0199:3KYQYYSHYWEJI5EPNVPA1306Q0POD1", "current_trial": 9, "dateTime": 1509499706790, "trialdata": {"rt": [3679, 7494, 14847], "responses": ["17", "15", "26"], "num1": [3, 3, 9, 4], "num2": [7, 6, 8, 8], "num3": [7, 6, 9, 6], "type": "DISTRACTOR", "conditions": [18, 1200, "v", 18000], "trial": 0, "trial_type": "math-distractor", "trial_index": 9, "time_elapsed": 246025, "internal_node_id": "0.0-9.0"}}, {"uniqueid": "MTK0199:3KYQYYSHYWEJI5EPNVPA1306Q0POD1", "current_trial": 10, "dateTime": 1509499709791, "trialdata": {"rt": -1, "stimulus": "<p id=\"stim\">10</p>", "key_press": -1, "trial_type": "single-stim", "trial_index": 10, "time_elapsed": 249025, "internal_node_id": "0.0-10.0-0.0"}}, {"uniqueid": "MTK0199:3KYQYYSHYWEJI5EPNVPA1306Q0POD1", "current_trial": 11, "dateTime": 1509499710791, "trialdata": {"rt": -1, "stimulus": "<p id=\"stim\">9</p>", "key_press": -1, "trial_type": "single-stim", "trial_index": 11, "time_elapsed": 250026, "internal_node_id": "0.0-10.0-1.0"}}, {"uniqueid": "MTK0199:3KYQYYSHYWEJI5EPNVPA1306Q0POD1", "current_trial": 12, "dateTime": 1509499711792, "trialdata": {"rt": -1, "stimulus": "<p id=\"stim\">8</p>", "key_press": -1, "trial_type": "single-stim", "trial_index": 12, "time_elapsed": 251027, "internal_node_id": "0.0-10.0-2.0"}}, {"uniqueid": "MTK0199:3KYQYYSHYWEJI5EPNVPA1306Q0POD1", "current_trial": 13, "dateTime": 1509499712792, "trialdata": {"rt": -1, "stimulus": "<p id=\"stim\">7</p>", "key_press": -1, "trial_type": "single-stim", "trial_index": 13, "time_elapsed": 252027, "internal_node_id": "0.0-10.0-3.0"}}, {"uniqueid": "MTK0199:3KYQYYSHYWEJI5EPNVPA1306Q0POD1", "current_trial": 14, "dateTime": 1509499713792, "trialdata": {"rt": -1, "stimulus": "<p id=\"stim\">6</p>", "key_press": -1, "trial_type": "single-stim", "trial_index": 14, "time_elapsed": 253027, "internal_node_id": "0.0-10.0-4.0"}}, {"uniqueid": "MTK0199:3KYQYYSHYWEJI5EPNVPA1306Q0POD1", "current_trial": 15, "dateTime": 1509499714792, "trialdata": {"rt": -1, "stimulus": "<p id=\"stim\">5</p>", "key_press": -1, "trial_type": "single-stim", "trial_index": 15, "time_elapsed": 254027, "internal_node_id": "0.0-10.0-5.0"}}, {"uniqueid": "MTK0199:3KYQYYSHYWEJI5EPNVPA1306Q0POD1", "current_trial": 16, "dateTime": 1509499715792, "trialdata": {"rt": -1, "stimulus": "<p id=\"stim\">4</p>", "key_press": -1, "trial_type": "single-stim", "trial_index": 16, "time_elapsed": 255027, "internal_node_id": "0.0-10.0-6.0"}}, {"uniqueid": "MTK0199:3KYQYYSHYWEJI5EPNVPA1306Q0POD1", "current_trial": 17, "dateTime": 1509499716793, "trialdata": {"rt": -1, "stimulus": "<p id=\"stim\">3</p>", "key_press": -1, "trial_type": "single-stim", "trial_index": 17, "time_elapsed": 256028, "internal_node_id": "0.0-10.0-7.0"}}, {"uniqueid": "MTK0199:3KYQYYSHYWEJI5EPNVPA1306Q0POD1", "current_trial": 18, "dateTime": 1509499717793, "trialdata": {"rt": -1, "stimulus": "<p id=\"stim\">2</p>", "key_press": -1, "trial_type": "single-stim", "trial_index": 18, "time_elapsed": 257028, "internal_node_id": "0.0-10.0-8.0"}}, {"uniqueid": "MTK0199:3KYQYYSHYWEJI5EPNVPA1306Q0POD1", "current_trial": 19, "dateTime": 1509499718794, "trialdata": {"rt": -1, "stimulus": "<p id=\"stim\">1</p>", "key_press": -1, "trial_type": "single-stim", "trial_index": 19, "time_elapsed": 258029, "internal_node_id": "0.0-10.0-9.0"}}, {"uniqueid": "MTK0199:3KYQYYSHYWEJI5EPNVPA1306Q0POD1", "current_trial": 20, "dateTime": 1509499720295, "trialdata": {"rt": -1, "stimulus": "<p id=\"stim\">+</p>", "key_press": -1, "type": "FIXATION", "trial_type": "single-stim", "trial_index": 20, "time_elapsed": 259529, "internal_node_id": "0.0-11.0-0.0"}}, {"uniqueid": "MTK0199:3KYQYYSHYWEJI5EPNVPA1306Q0POD1", "current_trial": 21, "dateTime": 1509499721495, "trialdata": {"rt": -1, "stimulus": "<p id=\"stim\">PATROL</p>", "key_press": -1, "type": "PRES_VIS", "word": "patrol", "wordID": 1026, "conditions": [18, 1200, "v", 18000], "trial": 0, "serialpos": 0, "trial_type": "single-stim", "trial_index": 21, "time_elapsed": 260730, "internal_node_id": "0.0-12.0"}}, {"uniqueid": "MTK0199:3KYQYYSHYWEJI5EPNVPA1306Q0POD1", "current_trial": 22, "dateTime": 1509499723753, "trialdata": {"rt": -1, "stimulus": "<p id=\"stim\">SPONGE</p>", "key_press": -1, "type": "PRES_VIS", "word": "sponge", "wordID": 1354, "conditions": [18, 1200, "v", 18000], "trial": 0, "serialpos": 1, "trial_type": "single-stim", "trial_index": 22, "time_elapsed": 262988, "internal_node_id": "0.0-13.0"}}, {"uniqueid": "MTK0199:3KYQYYSHYWEJI5EPNVPA1306Q0POD1", "current_trial": 23, "dateTime": 1509499726051, "trialdata": {"rt": -1, "stimulus": "<p id=\"stim\">ORANGE</p>", "key_press": -1, "type": "PRES_VIS", "word": "orange", "wordID": 979, "conditions": [18, 1200, "v", 18000], "trial": 0, "serialpos": 2, "trial_type": "single-stim", "trial_index": 23, "time_elapsed": 265286, "internal_node_id": "0.0-14.0"}}, {"uniqueid": "MTK0199:3KYQYYSHYWEJI5EPNVPA1306Q0POD1", "current_trial": 24, "dateTime": 1509499728230, "trialdata": {"rt": -1, "stimulus": "<p id=\"stim\">JOURNAL</p>", "key_press": -1, "type": "PRES_VIS", "word": "journal", "wordID": 759, "conditions": [18, 1200, "v", 18000], "trial": 0, "serialpos": 3, "trial_type": "single-stim", "trial_index": 24, "time_elapsed": 267465, "internal_node_id": "0.0-15.0"}}, {"uniqueid": "MTK0199:3KYQYYSHYWEJI5EPNVPA1306Q0POD1", "current_trial": 25, "dateTime": 1509499730617, "trialdata": {"rt": -1, "stimulus": "<p id=\"stim\">HUSBAND</p>", "key_press": -1, "type": "PRES_VIS", "word": "husband", "wordID": 727, "conditions": [18, 1200, "v", 18000], "trial": 0, "serialpos": 4, "trial_type": "single-stim", "trial_index": 25, "time_elapsed": 269852, "internal_node_id": "0.0-16.0"}}, {"uniqueid": "MTK0199:3KYQYYSHYWEJI5EPNVPA1306Q0POD1", "current_trial": 26, "dateTime": 1509499732653, "trialdata": {"rt": -1, "stimulus": "<p id=\"stim\">PISTON</p>", "key_press": -1, "type": "PRES_VIS", "word": "piston", "wordID": 1075, "conditions": [18, 1200, "v", 18000], "trial": 0, "serialpos": 5, "trial_type": "single-stim", "trial_index": 26, "time_elapsed": 271888, "internal_node_id": "0.0-17.0"}}, {"uniqueid": "MTK0199:3KYQYYSHYWEJI5EPNVPA1306Q0POD1", "current_trial": 27, "dateTime": 1509499734908, "trialdata": {"rt": -1, "stimulus": "<p id=\"stim\">PORTRAIT</p>", "key_press": -1, "type": "PRES_VIS", "word": "portrait", "wordID": 1110, "conditions": [18, 1200, "v", 18000], "trial": 0, "serialpos": 6, "trial_type": "single-stim", "trial_index": 27, "time_elapsed": 274143, "internal_node_id": "0.0-18.0"}}, {"uniqueid": "MTK0199:3KYQYYSHYWEJI5EPNVPA1306Q0POD1", "current_trial": 28, "dateTime": 1509499737163, "trialdata": {"rt": -1, "stimulus": "<p id=\"stim\">LUGGAGE</p>", "key_press": -1, "type": "PRES_VIS", "word": "luggage", "wordID": 846, "conditions": [18, 1200, "v", 18000], "trial": 0, "serialpos": 7, "trial_type": "single-stim", "trial_index": 28, "time_elapsed": 276398, "internal_node_id": "0.0-19.0"}}, {"uniqueid": "MTK0199:3KYQYYSHYWEJI5EPNVPA1306Q0POD1", "current_trial": 29, "dateTime": 1509499739364, "trialdata": {"rt": -1, "stimulus": "<p id=\"stim\">MATCH</p>", "key_press": -1, "type": "PRES_VIS", "word": "match", "wordID": 877, "conditions": [18, 1200, "v", 18000], "trial": 0, "serialpos": 8, "trial_type": "single-stim", "trial_index": 29, "time_elapsed": 278599, "internal_node_id": "0.0-20.0"}}, {"uniqueid": "MTK0199:3KYQYYSHYWEJI5EPNVPA1306Q0POD1", "current_trial": 30, "dateTime": 1509499741450, "trialdata": {"rt": -1, "stimulus": "<p id=\"stim\">DIVER</p>", "key_press": -1, "type": "PRES_VIS", "word": "diver", "wordID": 475, "conditions": [18, 1200, "v", 18000], "trial": 0, "serialpos": 9, "trial_type": "single-stim", "trial_index": 30, "time_elapsed": 280685, "internal_node_id": "0.0-21.0"}}, {"uniqueid": "MTK0199:3KYQYYSHYWEJI5EPNVPA1306Q0POD1", "current_trial": 31, "dateTime": 1509499743711, "trialdata": {"rt": -1, "stimulus": "<p id=\"stim\">SLIDE</p>", "key_press": -1, "type": "PRES_VIS", "word": "slide", "wordID": 1325, "conditions": [18, 1200, "v", 18000], "trial": 0, "serialpos": 10, "trial_type": "single-stim", "trial_index": 31, "time_elapsed": 282946, "internal_node_id": "0.0-22.0"}}, {"uniqueid": "MTK0199:3KYQYYSHYWEJI5EPNVPA1306Q0POD1", "current_trial": 32, "dateTime": 1509499745815, "trialdata": {"rt": -1, "stimulus": "<p id=\"stim\">PICNIC</p>", "key_press": -1, "type": "PRES_VIS", "word": "picnic", "wordID": 1059, "conditions": [18, 1200, "v", 18000], "trial": 0, "serialpos": 11, "trial_type": "single-stim", "trial_index": 32, "time_elapsed": 285050, "internal_node_id": "0.0-23.0"}}, {"uniqueid": "MTK0199:3KYQYYSHYWEJI5EPNVPA1306Q0POD1", "current_trial": 33, "dateTime": 1509499748085, "trialdata": {"rt": -1, "stimulus": "<p id=\"stim\">CIGAR</p>", "key_press": -1, "type": "PRES_VIS", "word": "cigar", "wordID": 307, "conditions": [18, 1200, "v", 18000], "trial": 0, "serialpos": 12, "trial_type": "single-stim", "trial_index": 33, "time_elapsed": 287320, "internal_node_id": "0.0-24.0"}}, {"uniqueid": "MTK0199:3KYQYYSHYWEJI5EPNVPA1306Q0POD1", "current_trial": 34, "dateTime": 1509499750228, "trialdata": {"rt": -1, "stimulus": "<p id=\"stim\">GAVEL</p>", "key_press": -1, "type": "PRES_VIS", "word": "gavel", "wordID": 626, "conditions": [18, 1200, "v", 18000], "trial": 0, "serialpos": 13, "trial_type": "single-stim", "trial_index": 34, "time_elapsed": 289463, "internal_node_id": "0.0-25.0"}}, {"uniqueid": "MTK0199:3KYQYYSHYWEJI5EPNVPA1306Q0POD1", "current_trial": 35, "dateTime": 1509499752533, "trialdata": {"rt": -1, "stimulus": "<p id=\"stim\">GARDEN</p>", "key_press": -1, "type": "PRES_VIS", "word": "garden", "wordID": 622, "conditions": [18, 1200, "v", 18000], "trial": 0, "serialpos": 14, "trial_type": "single-stim", "trial_index": 35, "time_elapsed": 291768, "internal_node_id": "0.0-26.0"}}, {"uniqueid": "MTK0199:3KYQYYSHYWEJI5EPNVPA1306Q0POD1", "current_trial": 36, "dateTime": 1509499754802, "trialdata": {"rt": -1, "stimulus": "<p id=\"stim\">TREAT</p>", "key_press": -1, "type": "PRES_VIS", "word": "treat", "wordID": 1500, "conditions": [18, 1200, "v", 18000], "trial": 0, "serialpos": 15, "trial_type": "single-stim", "trial_index": 36, "time_elapsed": 294037, "internal_node_id": "0.0-27.0"}}, {"uniqueid": "MTK0199:3KYQYYSHYWEJI5EPNVPA1306Q0POD1", "current_trial": 37, "dateTime": 1509499757125, "trialdata": {"rt": -1, "stimulus": "<p id=\"stim\">CABBAGE</p>", "key_press": -1, "type": "PRES_VIS", "word": "cabbage", "wordID": 209, "conditions": [18, 1200, "v", 18000], "trial": 0, "serialpos": 16, "trial_type": "single-stim", "trial_index": 37, "time_elapsed": 296360, "internal_node_id": "0.0-28.0"}}, {"uniqueid": "MTK0199:3KYQYYSHYWEJI5EPNVPA1306Q0POD1", "current_trial": 38, "dateTime": 1509499759295, "trialdata": {"rt": -1, "stimulus": "<p id=\"stim\">CLAM</p>", "key_press": -1, "type": "PRES_VIS", "word": "clam", "wordID": 314, "conditions": [18, 1200, "v", 18000], "trial": 0, "serialpos": 17, "trial_type": "single-stim", "trial_index": 38, "time_elapsed": 298530, "internal_node_id": "0.0-29.0"}}, {"uniqueid": "MTK0199:3KYQYYSHYWEJI5EPNVPA1306Q0POD1", "current_trial": 39, "dateTime": 1509499761627, "trialdata": {"rt": -1, "stimulus": "", "key_press": -1, "type": "PRE_RECALL_DELAY", "trial_type": "single-stim", "trial_index": 39, "time_elapsed": 300862, "internal_node_id": "0.0-30.0-0.0"}}, {"uniqueid": "MTK0199:3KYQYYSHYWEJI5EPNVPA1306Q0POD1", "current_trial": 40, "dateTime": 1509499762130, "trialdata": {"rt": -1000, "stimulus": "/static/audio/400Hz.wav", "key_press": -1, "type": "PRE_RECALL_ALERT", "trial_type": "single-audio", "trial_index": 40, "time_elapsed": 301364, "internal_node_id": "0.0-31.0"}}, {"uniqueid": "MTK0199:3KYQYYSHYWEJI5EPNVPA1306Q0POD1", "current_trial": 41, "dateTime": 1509499822137, "trialdata": {"rt": [4114, 7227, 9387, 11996, 14059, 17259, 28731], "recwords": ["patrol", "luggage", "diver", "garden", "treat", "cabbage", "husband"], "type": "FREE_RECALL", "conditions": [18, 1200, "v", 18000], "trial": 0, "trial_type": "free-recall", "trial_index": 41, "time_elapsed": 361368, "internal_node_id": "0.0-32.0-0.0"}}, {"uniqueid": "MTK0199:3KYQYYSHYWEJI5EPNVPA1306Q0POD1", "current_trial": 42, "dateTime": 1509499827001, "trialdata": {"rt": 2863, "key_press": 13, "type": "INSTRUCTIONS", "trial_type": "text", "trial_index": 42, "time_elapsed": 366236, "internal_node_id": "0.0-33.0"}}, {"uniqueid": "MTK0199:3KYQYYSHYWEJI5EPNVPA1306Q0POD1", "current_trial": 43, "dateTime": 1509499847003, "trialdata": {"rt": [4470, 8406, 13750, 17094], "responses": ["10", "16", "19", "15"], "num1": [2, 4, 8, 7, 4], "num2": [3, 3, 5, 6, 4], "num3": [4, 9, 6, 1, 8], "type": "DISTRACTOR", "conditions": [18, 1200, "a", 18000], "trial": 1, "trial_type": "math-distractor", "trial_index": 43, "time_elapsed": 386238, "internal_node_id": "0.0-34.0"}}, {"uniqueid": "MTK0199:3KYQYYSHYWEJI5EPNVPA1306Q0POD1", "current_trial": 44, "dateTime": 1509499850003, "trialdata": {"rt": -1, "stimulus": "<p id=\"stim\">10</p>", "key_press": -1, "trial_type": "single-stim", "trial_index": 44, "time_elapsed": 389238, "internal_node_id": "0.0-35.0-0.0"}}, {"uniqueid": "MTK0199:3KYQYYSHYWEJI5EPNVPA1306Q0POD1", "current_trial": 45, "dateTime": 1509499851003, "trialdata": {"rt": -1, "stimulus": "<p id=\"stim\">9</p>", "key_press": -1, "trial_type": "single-stim", "trial_index": 45, "time_elapsed": 390238, "internal_node_id": "0.0-35.0-1.0"}}, {"uniqueid": "MTK0199:3KYQYYSHYWEJI5EPNVPA1306Q0POD1", "current_trial": 46, "dateTime": 1509499852003, "trialdata": {"rt": -1, "stimulus": "<p id=\"stim\">8</p>", "key_press": -1, "trial_type": "single-stim", "trial_index": 46, "time_elapsed": 391238, "internal_node_id": "0.0-35.0-2.0"}}, {"uniqueid": "MTK0199:3KYQYYSHYWEJI5EPNVPA1306Q0POD1", "current_trial": 47, "dateTime": 1509499853003, "trialdata": {"rt": -1, "stimulus": "<p id=\"stim\">7</p>", "key_press": -1, "trial_type": "single-stim", "trial_index": 47, "time_elapsed": 392238, "internal_node_id": "0.0-35.0-3.0"}}, {"uniqueid": "MTK0199:3KYQYYSHYWEJI5EPNVPA1306Q0POD1", "current_trial": 48, "dateTime": 1509499854003, "trialdata": {"rt": -1, "stimulus": "<p id=\"stim\">6</p>", "key_press": -1, "trial_type": "single-stim", "trial_index": 48, "time_elapsed": 393238, "internal_node_id": "0.0-35.0-4.0"}}, {"uniqueid": "MTK0199:3KYQYYSHYWEJI5EPNVPA1306Q0POD1", "current_trial": 49, "dateTime": 1509499855003, "trialdata": {"rt": -1, "stimulus": "<p id=\"stim\">5</p>", "key_press": -1, "trial_type": "single-stim", "trial_index": 49, "time_elapsed": 394238, "internal_node_id": "0.0-35.0-5.0"}}, {"uniqueid": "MTK0199:3KYQYYSHYWEJI5EPNVPA1306Q0POD1", "current_trial": 50, "dateTime": 1509499856003, "trialdata": {"rt": -1, "stimulus": "<p id=\"stim\">4</p>", "key_press": -1, "trial_type": "single-stim", "trial_index": 50, "time_elapsed": 395238, "internal_node_id": "0.0-35.0-6.0"}}, {"uniqueid": "MTK0199:3KYQYYSHYWEJI5EPNVPA1306Q0POD1", "current_trial": 51, "dateTime": 1509499857003, "trialdata": {"rt": -1, "stimulus": "<p id=\"stim\">3</p>", "key_press": -1, "trial_type": "single-stim", "trial_index": 51, "time_elapsed": 396238, "internal_node_id": "0.0-35.0-7.0"}}, {"uniqueid": "MTK0199:3KYQYYSHYWEJI5EPNVPA1306Q0POD1", "current_trial": 52, "dateTime": 1509499858003, "trialdata": {"rt": -1, "stimulus": "<p id=\"stim\">2</p>", "key_press": -1, "trial_type": "single-stim", "trial_index": 52, "time_elapsed": 397238, "internal_node_id": "0.0-35.0-8.0"}}, {"uniqueid": "MTK0199:3KYQYYSHYWEJI5EPNVPA1306Q0POD1", "current_trial": 53, "dateTime": 1509499859003, "trialdata": {"rt": -1, "stimulus": "<p id=\"stim\">1</p>", "key_press": -1, "trial_type": "single-stim", "trial_index": 53, "time_elapsed": 398238, "internal_node_id": "0.0-35.0-9.0"}}, {"uniqueid": "MTK0199:3KYQYYSHYWEJI5EPNVPA1306Q0POD1", "current_trial": 54, "dateTime": 1509499860504, "trialdata": {"rt": -1, "stimulus": "<p id=\"stim\">+</p>", "key_press": -1, "type": "FIXATION", "trial_type": "single-stim", "trial_index": 54, "time_elapsed": 399739, "internal_node_id": "0.0-36.0-0.0"}}, {"uniqueid": "MTK0199:3KYQYYSHYWEJI5EPNVPA1306Q0POD1", "current_trial": 55, "dateTime": 1509499862841, "trialdata": {"rt": -1000, "stimulus": "/static/audio/wordpool/OUTLAW.wav", "key_press": -1, "type": "PRES_AUD", "word": "outlaw", "wordID": 988, "conditions": [18, 1200, "a", 18000], "trial": 1, "serialpos": 0, "trial_type": "single-audio", "trial_index": 55, "time_elapsed": 402076, "internal_node_id": "0.0-37.0"}}, {"uniqueid": "MTK0199:3KYQYYSHYWEJI5EPNVPA1306Q0POD1", "current_trial": 56, "dateTime": 1509499865206, "trialdata": {"rt": -1000, "stimulus": "/static/audio/wordpool/GRILL.wav", "key_press": -1, "type": "PRES_AUD", "word": "grill", "wordID": 660, "conditions": [18, 1200, "a", 18000], "trial": 1, "serialpos": 1, "trial_type": "single-audio", "trial_index": 56, "time_elapsed": 404441, "internal_node_id": "0.0-38.0"}}, {"uniqueid": "MTK0199:3KYQYYSHYWEJI5EPNVPA1306Q0POD1", "current_trial": 57, "dateTime": 1509499867422, "trialdata": {"rt": -1000, "stimulus": "/static/audio/wordpool/RABBIT.wav", "key_press": -1, "type": "PRES_AUD", "word": "rabbit", "wordID": 1151, "conditions": [18, 1200, "a", 18000], "trial": 1, "serialpos": 2, "trial_type": "single-audio", "trial_index": 57, "time_elapsed": 406657, "internal_node_id": "0.0-39.0"}}, {"uniqueid": "MTK0199:3KYQYYSHYWEJI5EPNVPA1306Q0POD1", "current_trial": 58, "dateTime": 1509499869675, "trialdata": {"rt": -1000, "stimulus": "/static/audio/wordpool/MARSH.wav", "key_press": -1, "type": "PRES_AUD", "word": "marsh", "wordID": 873, "conditions": [18, 1200, "a", 18000], "trial": 1, "serialpos": 3, "trial_type": "single-audio", "trial_index": 58, "time_elapsed": 408910, "internal_node_id": "0.0-40.0"}}, {"uniqueid": "MTK0199:3KYQYYSHYWEJI5EPNVPA1306Q0POD1", "current_trial": 59, "dateTime": 1509499872054, "trialdata": {"rt": -1000, "stimulus": "/static/audio/wordpool/NOMAD.wav", "key_press": -1, "type": "PRES_AUD", "word": "nomad", "wordID": 954, "conditions": [18, 1200, "a", 18000], "trial": 1, "serialpos": 4, "trial_type": "single-audio", "trial_index": 59, "time_elapsed": 411289, "internal_node_id": "0.0-41.0"}}, {"uniqueid": "MTK0199:3KYQYYSHYWEJI5EPNVPA1306Q0POD1", "current_trial": 60, "dateTime": 1509499874263, "trialdata": {"rt": -1000, "stimulus": "/static/audio/wordpool/MAILBOX.wav", "key_press": -1, "type": "PRES_AUD", "word": "mailbox", "wordID": 856, "conditions": [18, 1200, "a", 18000], "trial": 1, "serialpos": 5, "trial_type": "single-audio", "trial_index": 60, "time_elapsed": 413498, "internal_node_id": "0.0-42.0"}}, {"uniqueid": "MTK0199:3KYQYYSHYWEJI5EPNVPA1306Q0POD1", "current_trial": 61, "dateTime": 1509499876393, "trialdata": {"rt": -1000, "stimulus": "/static/audio/wordpool/POLICE.wav", "key_press": -1, "type": "PRES_AUD", "word": "police", "wordID": 1097, "conditions": [18, 1200, "a", 18000], "trial": 1, "serialpos": 6, "trial_type": "single-audio", "trial_index": 61, "time_elapsed": 415628, "internal_node_id": "0.0-43.0"}}, {"uniqueid": "MTK0199:3KYQYYSHYWEJI5EPNVPA1306Q0POD1", "current_trial": 62, "dateTime": 1509499878507, "trialdata": {"rt": -1000, "stimulus": "/static/audio/wordpool/DRUG.wav", "key_press": -1, "type": "PRES_AUD", "word": "drug", "wordID": 500, "conditions": [18, 1200, "a", 18000], "trial": 1, "serialpos": 7, "trial_type": "single-audio", "trial_index": 62, "time_elapsed": 417742, "internal_node_id": "0.0-44.0"}}, {"uniqueid": "MTK0199:3KYQYYSHYWEJI5EPNVPA1306Q0POD1", "current_trial": 63, "dateTime": 1509499880733, "trialdata": {"rt": -1000, "stimulus": "/static/audio/wordpool/SUPPER.wav", "key_press": -1, "type": "PRES_AUD", "word": "supper", "wordID": 1410, "conditions": [18, 1200, "a", 18000], "trial": 1, "serialpos": 8, "trial_type": "single-audio", "trial_index": 63, "time_elapsed": 419968, "internal_node_id": "0.0-45.0"}}, {"uniqueid": "MTK0199:3KYQYYSHYWEJI5EPNVPA1306Q0POD1", "current_trial": 64, "dateTime": 1509499882759, "trialdata": {"rt": -1000, "stimulus": "/static/audio/wordpool/COIN.wav", "key_press": -1, "type": "PRES_AUD", "word": "coin", "wordID": 342, "conditions": [18, 1200, "a", 18000], "trial": 1, "serialpos": 9, "trial_type": "single-audio", "trial_index": 64, "time_elapsed": 421993, "internal_node_id": "0.0-46.0"}}, {"uniqueid": "MTK0199:3KYQYYSHYWEJI5EPNVPA1306Q0POD1", "current_trial": 65, "dateTime": 1509499884992, "trialdata": {"rt": -1000, "stimulus": "/static/audio/wordpool/EGYPT.wav", "key_press": -1, "type": "PRES_AUD", "word": "egypt", "wordID": 518, "conditions": [18, 1200, "a", 18000], "trial": 1, "serialpos": 10, "trial_type": "single-audio", "trial_index": 65, "time_elapsed": 424227, "internal_node_id": "0.0-47.0"}}, {"uniqueid": "MTK0199:3KYQYYSHYWEJI5EPNVPA1306Q0POD1", "current_trial": 66, "dateTime": 1509499887185, "trialdata": {"rt": -1000, "stimulus": "/static/audio/wordpool/TILE.wav", "key_press": -1, "type": "PRES_AUD", "word": "tile", "wordID": 1467, "conditions": [18, 1200, "a", 18000], "trial": 1, "serialpos": 11, "trial_type": "single-audio", "trial_index": 66, "time_elapsed": 426420, "internal_node_id": "0.0-48.0"}}, {"uniqueid": "MTK0199:3KYQYYSHYWEJI5EPNVPA1306Q0POD1", "current_trial": 67, "dateTime": 1509499889424, "trialdata": {"rt": -1000, "stimulus": "/static/audio/wordpool/CONCERT.wav", "key_press": -1, "type": "PRES_AUD", "word": "concert", "wordID": 359, "conditions": [18, 1200, "a", 18000], "trial": 1, "serialpos": 12, "trial_type": "single-audio", "trial_index": 67, "time_elapsed": 428656, "internal_node_id": "0.0-49.0"}}, {"uniqueid": "MTK0199:3KYQYYSHYWEJI5EPNVPA1306Q0POD1", "current_trial": 68, "dateTime": 1509499891559, "trialdata": {"rt": -1000, "stimulus": "/static/audio/wordpool/CLAMP.wav", "key_press": -1, "type": "PRES_AUD", "word": "clamp", "wordID": 315, "conditions": [18, 1200, "a", 18000], "trial": 1, "serialpos": 13, "trial_type": "single-audio", "trial_index": 68, "time_elapsed": 430794, "internal_node_id": "0.0-50.0"}}, {"uniqueid": "MTK0199:3KYQYYSHYWEJI5EPNVPA1306Q0POD1", "current_trial": 69, "dateTime": 1509499893662, "trialdata": {"rt": -1000, "stimulus": "/static/audio/wordpool/FRUIT.wav", "key_press": -1, "type": "PRES_AUD", "word": "fruit", "wordID": 609, "conditions": [18, 1200, "a", 18000], "trial": 1, "serialpos": 14, "trial_type": "single-audio", "trial_index": 69, "time_elapsed": 432897, "internal_node_id": "0.0-51.0"}}, {"uniqueid": "MTK0199:3KYQYYSHYWEJI5EPNVPA1306Q0POD1", "current_trial": 70, "dateTime": 1509499895809, "trialdata": {"rt": -1000, "stimulus": "/static/audio/wordpool/BLACKBOARD.wav", "key_press": -1, "type": "PRES_AUD", "word": "blackboard", "wordID": 132, "conditions": [18, 1200, "a", 18000], "trial": 1, "serialpos": 15, "trial_type": "single-audio", "trial_index": 70, "time_elapsed": 435044, "internal_node_id": "0.0-52.0"}}, {"uniqueid": "MTK0199:3KYQYYSHYWEJI5EPNVPA1306Q0POD1", "current_trial": 71, "dateTime": 1509499898200, "trialdata": {"rt": -1000, "stimulus": "/static/audio/wordpool/BANJO.wav", "key_press": -1, "type": "PRES_AUD", "word": "banjo", "wordID": 81, "conditions": [18, 1200, "a", 18000], "trial": 1, "serialpos": 16, "trial_type": "single-audio", "trial_index": 71, "time_elapsed": 437435, "internal_node_id": "0.0-53.0"}}, {"uniqueid": "MTK0199:3KYQYYSHYWEJI5EPNVPA1306Q0POD1", "current_trial": 72, "dateTime": 1509499900378, "trialdata": {"rt": -1000, "stimulus": "/static/audio/wordpool/PACKAGE.wav", "key_press": -1, "type": "PRES_AUD", "word": "package", "wordID": 996, "conditions": [18, 1200, "a", 18000], "trial": 1, "serialpos": 17, "trial_type": "single-audio", "trial_index": 72, "time_elapsed": 439613, "internal_node_id": "0.0-54.0"}}, {"uniqueid": "MTK0199:3KYQYYSHYWEJI5EPNVPA1306Q0POD1", "current_trial": 73, "dateTime": 1509499901636, "trialdata": {"rt": -1, "stimulus": "", "key_press": -1, "type": "PRE_RECALL_DELAY", "trial_type": "single-stim", "trial_index": 73, "time_elapsed": 440871, "internal_node_id": "0.0-55.0-0.0"}}, {"uniqueid": "MTK0199:3KYQYYSHYWEJI5EPNVPA1306Q0POD1", "current_trial": 74, "dateTime": 1509499902136, "trialdata": {"rt": -1000, "stimulus": "/static/audio/400Hz.wav", "key_press": -1, "type": "PRE_RECALL_ALERT", "trial_type": "single-audio", "trial_index": 74, "time_elapsed": 441371, "internal_node_id": "0.0-56.0"}}, {"uniqueid": "MTK0199:3KYQYYSHYWEJI5EPNVPA1306Q0POD1", "current_trial": 75, "dateTime": 1509499962142, "trialdata": {"rt": [4487, 7456, 12439, 17760, 26576], "recwords": ["police", "egypt", "package", "blackboard", "nomad"], "type": "FREE_RECALL", "conditions": [18, 1200, "a", 18000], "trial": 1, "trial_type": "free-recall", "trial_index": 75, "time_elapsed": 501374, "internal_node_id": "0.0-57.0-0.0"}}, {"uniqueid": "MTK0199:3KYQYYSHYWEJI5EPNVPA1306Q0POD1", "current_trial": 76, "dateTime": 1509500213138, "trialdata": {"rt": 248996, "key_press": 13, "type": "INSTRUCTIONS", "trial_type": "text", "trial_index": 76, "time_elapsed": 752373, "internal_node_id": "0.0-58.0"}}, {"uniqueid": "MTK0199:3KYQYYSHYWEJI5EPNVPA1306Q0POD1", "current_trial": 77, "dateTime": 1509500238140, "trialdata": {"rt": [5246, 8519, 13150, 15774, 17758, 19599, 21614, 23318], "responses": ["14", "14", "7", "17", "17", "7", "13", "15"], "num1": [4, 6, 2, 7, 7, 4, 6, 7, 5], "num2": [2, 5, 3, 6, 5, 2, 1, 1, 5], "num3": [8, 3, 2, 4, 5, 1, 6, 7, 7], "type": "DISTRACTOR", "conditions": [24, 1600, "v", 24000], "trial": 2, "trial_type": "math-distractor", "trial_index": 77, "time_elapsed": 777374, "internal_node_id": "0.0-59.0"}}, {"uniqueid": "MTK0199:3KYQYYSHYWEJI5EPNVPA1306Q0POD1", "current_trial": 78, "dateTime": 1509500241142, "trialdata": {"rt": -1, "stimulus": "<p id=\"stim\">10</p>", "key_press": -1, "trial_type": "single-stim", "trial_index": 78, "time_elapsed": 780377, "internal_node_id": "0.0-60.0-0.0"}}, {"uniqueid": "MTK0199:3KYQYYSHYWEJI5EPNVPA1306Q0POD1", "current_trial": 79, "dateTime": 1509500242143, "trialdata": {"rt": -1, "stimulus": "<p id=\"stim\">9</p>", "key_press": -1, "trial_type": "single-stim", "trial_index": 79, "time_elapsed": 781378, "internal_node_id": "0.0-60.0-1.0"}}, {"uniqueid": "MTK0199:3KYQYYSHYWEJI5EPNVPA1306Q0POD1", "current_trial": 80, "dateTime": 1509500243144, "trialdata": {"rt": -1, "stimulus": "<p id=\"stim\">8</p>", "key_press": -1, "trial_type": "single-stim", "trial_index": 80, "time_elapsed": 782379, "internal_node_id": "0.0-60.0-2.0"}}, {"uniqueid": "MTK0199:3KYQYYSHYWEJI5EPNVPA1306Q0POD1", "current_trial": 81, "dateTime": 1509500244145, "trialdata": {"rt": -1, "stimulus": "<p id=\"stim\">7</p>", "key_press": -1, "trial_type": "single-stim", "trial_index": 81, "time_elapsed": 783380, "internal_node_id": "0.0-60.0-3.0"}}, {"uniqueid": "MTK0199:3KYQYYSHYWEJI5EPNVPA1306Q0POD1", "current_trial": 82, "dateTime": 1509500245146, "trialdata": {"rt": -1, "stimulus": "<p id=\"stim\">6</p>", "key_press": -1, "trial_type": "single-stim", "trial_index": 82, "time_elapsed": 784381, "internal_node_id": "0.0-60.0-4.0"}}, {"uniqueid": "MTK0199:3KYQYYSHYWEJI5EPNVPA1306Q0POD1", "current_trial": 83, "dateTime": 1509500246147, "trialdata": {"rt": -1, "stimulus": "<p id=\"stim\">5</p>", "key_press": -1, "trial_type": "single-stim", "trial_index": 83, "time_elapsed": 785382, "internal_node_id": "0.0-60.0-5.0"}}, {"uniqueid": "MTK0199:3KYQYYSHYWEJI5EPNVPA1306Q0POD1", "current_trial": 84, "dateTime": 1509500247148, "trialdata": {"rt": -1, "stimulus": "<p id=\"stim\">4</p>", "key_press": -1, "trial_type": "single-stim", "trial_index": 84, "time_elapsed": 786383, "internal_node_id": "0.0-60.0-6.0"}}, {"uniqueid": "MTK0199:3KYQYYSHYWEJI5EPNVPA1306Q0POD1", "current_trial": 85, "dateTime": 1509500248149, "trialdata": {"rt": -1, "stimulus": "<p id=\"stim\">3</p>", "key_press": -1, "trial_type": "single-stim", "trial_index": 85, "time_elapsed": 787384, "internal_node_id": "0.0-60.0-7.0"}}, {"uniqueid": "MTK0199:3KYQYYSHYWEJI5EPNVPA1306Q0POD1", "current_trial": 86, "dateTime": 1509500249150, "trialdata": {"rt": -1, "stimulus": "<p id=\"stim\">2</p>", "key_press": -1, "trial_type": "single-stim", "trial_index": 86, "time_elapsed": 788385, "internal_node_id": "0.0-60.0-8.0"}}, {"uniqueid": "MTK0199:3KYQYYSHYWEJI5EPNVPA1306Q0POD1", "current_trial": 87, "dateTime": 1509500250152, "trialdata": {"rt": -1, "stimulus": "<p id=\"stim\">1</p>", "key_press": -1, "trial_type": "single-stim", "trial_index": 87, "time_elapsed": 789387, "internal_node_id": "0.0-60.0-9.0"}}, {"uniqueid": "MTK0199:3KYQYYSHYWEJI5EPNVPA1306Q0POD1", "current_trial": 88, "dateTime": 1509500251653, "trialdata": {"rt": -1, "stimulus": "<p id=\"stim\">+</p>", "key_press": -1, "type": "FIXATION", "trial_type": "single-stim", "trial_index": 88, "time_elapsed": 790888, "internal_node_id": "0.0-61.0-0.0"}}, {"uniqueid": "MTK0199:3KYQYYSHYWEJI5EPNVPA1306Q0POD1", "current_trial": 89, "dateTime": 1509500253254, "trialdata": {"rt": -1, "stimulus": "<p id=\"stim\">PLIERS</p>", "key_press": -1, "type": "PRES_VIS", "word": "pliers", "wordID": 1088, "conditions": [24, 1600, "v", 24000], "trial": 2, "serialpos": 0, "trial_type": "single-stim", "trial_index": 89, "time_elapsed": 792489, "internal_node_id": "0.0-62.0"}}, {"uniqueid": "MTK0199:3KYQYYSHYWEJI5EPNVPA1306Q0POD1", "current_trial": 90, "dateTime": 1509500255725, "trialdata": {"rt": -1, "stimulus": "<p id=\"stim\">PATIENT</p>", "key_press": -1, "type": "PRES_VIS", "word": "patient", "wordID": 1023, "conditions": [24, 1600, "v", 24000], "trial": 2, "serialpos": 1, "trial_type": "single-stim", "trial_index": 90, "time_elapsed": 794960, "internal_node_id": "0.0-63.0"}}, {"uniqueid": "MTK0199:3KYQYYSHYWEJI5EPNVPA1306Q0POD1", "current_trial": 91, "dateTime": 1509500258342, "trialdata": {"rt": -1, "stimulus": "<p id=\"stim\">CRAYON</p>", "key_press": -1, "type": "PRES_VIS", "word": "crayon", "wordID": 400, "conditions": [24, 1600, "v", 24000], "trial": 2, "serialpos": 2, "trial_type": "single-stim", "trial_index": 91, "time_elapsed": 797577, "internal_node_id": "0.0-64.0"}}, {"uniqueid": "MTK0199:3KYQYYSHYWEJI5EPNVPA1306Q0POD1", "current_trial": 92, "dateTime": 1509500260749, "trialdata": {"rt": -1, "stimulus": "<p id=\"stim\">SCISSORS</p>", "key_press": -1, "type": "PRES_VIS", "word": "scissors", "wordID": 1249, "conditions": [24, 1600, "v", 24000], "trial": 2, "serialpos": 3, "trial_type": "single-stim", "trial_index": 92, "time_elapsed": 799984, "internal_node_id": "0.0-65.0"}}, {"uniqueid": "MTK0199:3KYQYYSHYWEJI5EPNVPA1306Q0POD1", "current_trial": 93, "dateTime": 1509500263420, "trialdata": {"rt": -1, "stimulus": "<p id=\"stim\">PAPER</p>", "key_press": -1, "type": "PRES_VIS", "word": "paper", "wordID": 1010, "conditions": [24, 1600, "v", 24000], "trial": 2, "serialpos": 4, "trial_type": "single-stim", "trial_index": 93, "time_elapsed": 802655, "internal_node_id": "0.0-66.0"}}, {"uniqueid": "MTK0199:3KYQYYSHYWEJI5EPNVPA1306Q0POD1", "current_trial": 94, "dateTime": 1509500265873, "trialdata": {"rt": -1, "stimulus": "<p id=\"stim\">XEROX</p>", "key_press": -1, "type": "PRES_VIS", "word": "xerox", "wordID": 1627, "conditions": [24, 1600, "v", 24000], "trial": 2, "serialpos": 5, "trial_type": "single-stim", "trial_index": 94, "time_elapsed": 805108, "internal_node_id": "0.0-67.0"}}, {"uniqueid": "MTK0199:3KYQYYSHYWEJI5EPNVPA1306Q0POD1", "current_trial": 95, "dateTime": 1509500268636, "trialdata": {"rt": -1, "stimulus": "<p id=\"stim\">TURTLE</p>", "key_press": -1, "type": "PRES_VIS", "word": "turtle", "wordID": 1521, "conditions": [24, 1600, "v", 24000], "trial": 2, "serialpos": 6, "trial_type": "single-stim", "trial_index": 95, "time_elapsed": 807871, "internal_node_id": "0.0-68.0"}}, {"uniqueid": "MTK0199:3KYQYYSHYWEJI5EPNVPA1306Q0POD1", "current_trial": 96, "dateTime": 1509500271293, "trialdata": {"rt": -1, "stimulus": "<p id=\"stim\">SHARK</p>", "key_press": -1, "type": "PRES_VIS", "word": "shark", "wordID": 1274, "conditions": [24, 1600, "v", 24000], "trial": 2, "serialpos": 7, "trial_type": "single-stim", "trial_index": 96, "time_elapsed": 810528, "internal_node_id": "0.0-69.0"}}, {"uniqueid": "MTK0199:3KYQYYSHYWEJI5EPNVPA1306Q0POD1", "current_trial": 97, "dateTime": 1509500273892, "trialdata": {"rt": -1, "stimulus": "<p id=\"stim\">AUTHOR</p>", "key_press": -1, "type": "PRES_VIS", "word": "author", "wordID": 60, "conditions": [24, 1600, "v", 24000], "trial": 2, "serialpos": 8, "trial_type": "single-stim", "trial_index": 97, "time_elapsed": 813127, "internal_node_id": "0.0-70.0"}}, {"uniqueid": "MTK0199:3KYQYYSHYWEJI5EPNVPA1306Q0POD1", "current_trial": 98, "dateTime": 1509500276416, "trialdata": {"rt": -1, "stimulus": "<p id=\"stim\">PASTRY</p>", "key_press": -1, "type": "PRES_VIS", "word": "pastry", "wordID": 1021, "conditions": [24, 1600, "v", 24000], "trial": 2, "serialpos": 9, "trial_type": "single-stim", "trial_index": 98, "time_elapsed": 815651, "internal_node_id": "0.0-71.0"}}, {"uniqueid": "MTK0199:3KYQYYSHYWEJI5EPNVPA1306Q0POD1", "current_trial": 99, "dateTime": 1509500278857, "trialdata": {"rt": -1, "stimulus": "<p id=\"stim\">ULCER</p>", "key_press": -1, "type": "PRES_VIS", "word": "ulcer", "wordID": 1532, "conditions": [24, 1600, "v", 24000], "trial": 2, "serialpos": 10, "trial_type": "single-stim", "trial_index": 99, "time_elapsed": 818092, "internal_node_id": "0.0-72.0"}}, {"uniqueid": "MTK0199:3KYQYYSHYWEJI5EPNVPA1306Q0POD1", "current_trial": 100, "dateTime": 1509500281483, "trialdata": {"rt": -1, "stimulus": "<p id=\"stim\">FLESH</p>", "key_press": -1, "type": "PRES_VIS", "word": "flesh", "wordID": 578, "conditions": [24, 1600, "v", 24000], "trial": 2, "serialpos": 11, "trial_type": "single-stim", "trial_index": 100, "time_elapsed": 820718, "internal_node_id": "0.0-73.0"}}, {"uniqueid": "MTK0199:3KYQYYSHYWEJI5EPNVPA1306Q0POD1", "current_trial": 101, "dateTime": 1509500284077, "trialdata": {"rt": -1, "stimulus": "<p id=\"stim\">TERMITE</p>", "key_press": -1, "type": "PRES_VIS", "word": "termite", "wordID": 1450, "conditions": [24, 1600, "v", 24000], "trial": 2, "serialpos": 12, "trial_type": "single-stim", "trial_index": 101, "time_elapsed": 823312, "internal_node_id": "0.0-74.0"}}, {"uniqueid": "MTK0199:3KYQYYSHYWEJI5EPNVPA1306Q0POD1", "current_trial": 102, "dateTime": 1509500286532, "trialdata": {"rt": -1, "stimulus": "<p id=\"stim\">PARROT</p>", "key_press": -1, "type": "PRES_VIS", "word": "parrot", "wordID": 1014, "conditions": [24, 1600, "v", 24000], "trial": 2, "serialpos": 13, "trial_type": "single-stim", "trial_index": 102, "time_elapsed": 825767, "internal_node_id": "0.0-75.0"}}, {"uniqueid": "MTK0199:3KYQYYSHYWEJI5EPNVPA1306Q0POD1", "current_trial": 103, "dateTime": 1509500289146, "trialdata": {"rt": -1, "stimulus": "<p id=\"stim\">BRIEFCASE</p>", "key_press": -1, "type": "PRES_VIS", "word": "briefcase", "wordID": 174, "conditions": [24, 1600, "v", 24000], "trial": 2, "serialpos": 14, "trial_type": "single-stim", "trial_index": 103, "time_elapsed": 828381, "internal_node_id": "0.0-76.0"}}, {"uniqueid": "MTK0199:3KYQYYSHYWEJI5EPNVPA1306Q0POD1", "current_trial": 104, "dateTime": 1509500291557, "trialdata": {"rt": -1, "stimulus": "<p id=\"stim\">SNACK</p>", "key_press": -1, "type": "PRES_VIS", "word": "snack", "wordID": 1330, "conditions": [24, 1600, "v", 24000], "trial": 2, "serialpos": 15, "trial_type": "single-stim", "trial_index": 104, "time_elapsed": 830792, "internal_node_id": "0.0-77.0"}}, {"uniqueid": "MTK0199:3KYQYYSHYWEJI5EPNVPA1306Q0POD1", "current_trial": 105, "dateTime": 1509500294241, "trialdata": {"rt": -1, "stimulus": "<p id=\"stim\">SALAD</p>", "key_press": -1, "type": "PRES_VIS", "word": "salad", "wordID": 1223, "conditions": [24, 1600, "v", 24000], "trial": 2, "serialpos": 16, "trial_type": "single-stim", "trial_index": 105, "time_elapsed": 833476, "internal_node_id": "0.0-78.0"}}, {"uniqueid": "MTK0199:3KYQYYSHYWEJI5EPNVPA1306Q0POD1", "current_trial": 106, "dateTime": 1509500296783, "trialdata": {"rt": -1, "stimulus": "<p id=\"stim\">HANDBAG</p>", "key_press": -1, "type": "PRES_VIS", "word": "handbag", "wordID": 683, "conditions": [24, 1600, "v", 24000], "trial": 2, "serialpos": 17, "trial_type": "single-stim", "trial_index": 106, "time_elapsed": 836018, "internal_node_id": "0.0-79.0"}}, {"uniqueid": "MTK0199:3KYQYYSHYWEJI5EPNVPA1306Q0POD1", "current_trial": 107, "dateTime": 1509500299570, "trialdata": {"rt": -1, "stimulus": "<p id=\"stim\">OZONE</p>", "key_press": -1, "type": "PRES_VIS", "word": "ozone", "wordID": 995, "conditions": [24, 1600, "v", 24000], "trial": 2, "serialpos": 18, "trial_type": "single-stim", "trial_index": 107, "time_elapsed": 838805, "internal_node_id": "0.0-80.0"}}, {"uniqueid": "MTK0199:3KYQYYSHYWEJI5EPNVPA1306Q0POD1", "current_trial": 108, "dateTime": 1509500302201, "trialdata": {"rt": -1, "stimulus": "<p id=\"stim\">SIDEWALK</p>", "key_press": -1, "type": "PRES_VIS", "word": "sidewalk", "wordID": 1302, "conditions": [24, 1600, "v", 24000], "trial": 2, "serialpos": 19, "trial_type": "single-stim", "trial_index": 108, "time_elapsed": 841436, "internal_node_id": "0.0-81.0"}}, {"uniqueid": "MTK0199:3KYQYYSHYWEJI5EPNVPA1306Q0POD1", "current_trial": 109, "dateTime": 1509500304613, "trialdata": {"rt": -1, "stimulus": "<p id=\"stim\">PRINCESS</p>", "key_press": -1, "type": "PRES_VIS", "word": "princess", "wordID": 1124, "conditions": [24, 1600, "v", 24000], "trial": 2, "serialpos": 20, "trial_type": "single-stim", "trial_index": 109, "time_elapsed": 843848, "internal_node_id": "0.0-82.0"}}, {"uniqueid": "MTK0199:3KYQYYSHYWEJI5EPNVPA1306Q0POD1", "current_trial": 110, "dateTime": 1509500307024, "trialdata": {"rt": -1, "stimulus": "<p id=\"stim\">INMATE</p>", "key_press": -1, "type": "PRES_VIS", "word": "inmate", "wordID": 737, "conditions": [24, 1600, "v", 24000], "trial": 2, "serialpos": 21, "trial_type": "single-stim", "trial_index": 110, "time_elapsed": 846259, "internal_node_id": "0.0-83.0"}}, {"uniqueid": "MTK0199:3KYQYYSHYWEJI5EPNVPA1306Q0POD1", "current_trial": 111, "dateTime": 1509500309713, "trialdata": {"rt": -1, "stimulus": "<p id=\"stim\">FARMER</p>", "key_press": -1, "type": "PRES_VIS", "word": "farmer", "wordID": 552, "conditions": [24, 1600, "v", 24000], "trial": 2, "serialpos": 22, "trial_type": "single-stim", "trial_index": 111, "time_elapsed": 848948, "internal_node_id": "0.0-84.0"}}, {"uniqueid": "MTK0199:3KYQYYSHYWEJI5EPNVPA1306Q0POD1", "current_trial": 112, "dateTime": 1509500312219, "trialdata": {"rt": -1, "stimulus": "<p id=\"stim\">UMPIRE</p>", "key_press": -1, "type": "PRES_VIS", "word": "umpire", "wordID": 1534, "conditions": [24, 1600, "v", 24000], "trial": 2, "serialpos": 23, "trial_type": "single-stim", "trial_index": 112, "time_elapsed": 851454, "internal_node_id": "0.0-85.0"}}, {"uniqueid": "MTK0199:3KYQYYSHYWEJI5EPNVPA1306Q0POD1", "current_trial": 113, "dateTime": 1509500314496, "trialdata": {"rt": -1, "stimulus": "", "key_press": -1, "type": "PRE_RECALL_DELAY", "trial_type": "single-stim", "trial_index": 113, "time_elapsed": 853731, "internal_node_id": "0.0-86.0-0.0"}}, {"uniqueid": "MTK0199:3KYQYYSHYWEJI5EPNVPA1306Q0POD1", "current_trial": 114, "dateTime": 1509500314996, "trialdata": {"rt": -1000, "stimulus": "/static/audio/400Hz.wav", "key_press": -1, "type": "PRE_RECALL_ALERT", "trial_type": "single-audio", "trial_index": 114, "time_elapsed": 854231, "internal_node_id": "0.0-87.0"}}, {"uniqueid": "MTK0199:3KYQYYSHYWEJI5EPNVPA1306Q0POD1", "current_trial": 115, "dateTime": 1509500375001, "trialdata": {"rt": [3326, 7621, 11070, 17566, 21254, 29102, 40150, 47391], "recwords": ["pliers", "patient", "crayon", "termite", "flesh", "scissors", "handbag", "farmer"], "type": "FREE_RECALL", "conditions": [24, 1600, "v", 24000], "trial": 2, "trial_type": "free-recall", "trial_index": 115, "time_elapsed": 914233, "internal_node_id": "0.0-88.0-0.0"}}, {"uniqueid": "MTK0199:3KYQYYSHYWEJI5EPNVPA1306Q0POD1", "current_trial": 116, "dateTime": 1509500638420, "trialdata": {"rt": 261419, "key_press": 13, "type": "INSTRUCTIONS", "trial_type": "text", "trial_index": 116, "time_elapsed": 1177655, "internal_node_id": "0.0-89.0"}}, {"uniqueid": "MTK0199:3KYQYYSHYWEJI5EPNVPA1306Q0POD1", "current_trial": 117, "dateTime": 1509500664423, "trialdata": {"rt": [3310, 6182, 8582, 10798, 13798, 16702, 22654], "responses": ["8", "14", "17", "6", "13", "14", "34"], "num1": [5, 5, 2, 3, 8, 3, 8, 8], "num2": [1, 4, 7, 1, 4, 3, 9, 1], "num3": [2, 5, 8, 2, 1, 8, 7, 2], "type": "DISTRACTOR", "conditions": [12, 800, "a", 24000], "trial": 3, "trial_type": "math-distractor", "trial_index": 117, "time_elapsed": 1203657, "internal_node_id": "0.0-90.0"}}, {"uniqueid": "MTK0199:3KYQYYSHYWEJI5EPNVPA1306Q0POD1", "current_trial": 118, "dateTime": 1509500667423, "trialdata": {"rt": -1, "stimulus": "<p id=\"stim\">10</p>", "key_press": -1, "trial_type": "single-stim", "trial_index": 118, "time_elapsed": 1206658, "internal_node_id": "0.0-91.0-0.0"}}, {"uniqueid": "MTK0199:3KYQYYSHYWEJI5EPNVPA1306Q0POD1", "current_trial": 119, "dateTime": 1509500668424, "trialdata": {"rt": -1, "stimulus": "<p id=\"stim\">9</p>", "key_press": -1, "trial_type": "single-stim", "trial_index": 119, "time_elapsed": 1207659, "internal_node_id": "0.0-91.0-1.0"}}, {"uniqueid": "MTK0199:3KYQYYSHYWEJI5EPNVPA1306Q0POD1", "current_trial": 120, "dateTime": 1509500669424, "trialdata": {"rt": -1, "stimulus": "<p id=\"stim\">8</p>", "key_press": -1, "trial_type": "single-stim", "trial_index": 120, "time_elapsed": 1208659, "internal_node_id": "0.0-91.0-2.0"}}, {"uniqueid": "MTK0199:3KYQYYSHYWEJI5EPNVPA1306Q0POD1", "current_trial": 121, "dateTime": 1509500670424, "trialdata": {"rt": -1, "stimulus": "<p id=\"stim\">7</p>", "key_press": -1, "trial_type": "single-stim", "trial_index": 121, "time_elapsed": 1209659, "internal_node_id": "0.0-91.0-3.0"}}, {"uniqueid": "MTK0199:3KYQYYSHYWEJI5EPNVPA1306Q0POD1", "current_trial": 122, "dateTime": 1509500671424, "trialdata": {"rt": -1, "stimulus": "<p id=\"stim\">6</p>", "key_press": -1, "trial_type": "single-stim", "trial_index": 122, "time_elapsed": 1210659, "internal_node_id": "0.0-91.0-4.0"}}, {"uniqueid": "MTK0199:3KYQYYSHYWEJI5EPNVPA1306Q0POD1", "current_trial": 123, "dateTime": 1509500672425, "trialdata": {"rt": -1, "stimulus": "<p id=\"stim\">5</p>", "key_press": -1, "trial_type": "single-stim", "trial_index": 123, "time_elapsed": 1211660, "internal_node_id": "0.0-91.0-5.0"}}, {"uniqueid": "MTK0199:3KYQYYSHYWEJI5EPNVPA1306Q0POD1", "current_trial": 124, "dateTime": 1509500673425, "trialdata": {"rt": -1, "stimulus": "<p id=\"stim\">4</p>", "key_press": -1, "trial_type": "single-stim", "trial_index": 124, "time_elapsed": 1212660, "internal_node_id": "0.0-91.0-6.0"}}, {"uniqueid": "MTK0199:3KYQYYSHYWEJI5EPNVPA1306Q0POD1", "current_trial": 125, "dateTime": 1509500674425, "trialdata": {"rt": -1, "stimulus": "<p id=\"stim\">3</p>", "key_press": -1, "trial_type": "single-stim", "trial_index": 125, "time_elapsed": 1213660, "internal_node_id": "0.0-91.0-7.0"}}, {"uniqueid": "MTK0199:3KYQYYSHYWEJI5EPNVPA1306Q0POD1", "current_trial": 126, "dateTime": 1509500675425, "trialdata": {"rt": -1, "stimulus": "<p id=\"stim\">2</p>", "key_press": -1, "trial_type": "single-stim", "trial_index": 126, "time_elapsed": 1214660, "internal_node_id": "0.0-91.0-8.0"}}, {"uniqueid": "MTK0199:3KYQYYSHYWEJI5EPNVPA1306Q0POD1", "current_trial": 127, "dateTime": 1509500676425, "trialdata": {"rt": -1, "stimulus": "<p id=\"stim\">1</p>", "key_press": -1, "trial_type": "single-stim", "trial_index": 127, "time_elapsed": 1215660, "internal_node_id": "0.0-91.0-9.0"}}, {"uniqueid": "MTK0199:3KYQYYSHYWEJI5EPNVPA1306Q0POD1", "current_trial": 128, "dateTime": 1509500677925, "trialdata": {"rt": -1, "stimulus": "<p id=\"stim\">+</p>", "key_press": -1, "type": "FIXATION", "trial_type": "single-stim", "trial_index": 128, "time_elapsed": 1217160, "internal_node_id": "0.0-92.0-0.0"}}, {"uniqueid": "MTK0199:3KYQYYSHYWEJI5EPNVPA1306Q0POD1", "current_trial": 129, "dateTime": 1509500679687, "trialdata": {"rt": -1000, "stimulus": "/static/audio/wordpool/GLOVE.wav", "key_press": -1, "type": "PRES_AUD", "word": "glove", "wordID": 641, "conditions": [12, 800, "a", 24000], "trial": 3, "serialpos": 0, "trial_type": "single-audio", "trial_index": 129, "time_elapsed": 1218922, "internal_node_id": "0.0-93.0"}}, {"uniqueid": "MTK0199:3KYQYYSHYWEJI5EPNVPA1306Q0POD1", "current_trial": 130, "dateTime": 1509500681551, "trialdata": {"rt": -1000, "stimulus": "/static/audio/wordpool/SNAIL.wav", "key_press": -1, "type": "PRES_AUD", "word": "snail", "wordID": 1331, "conditions": [12, 800, "a", 24000], "trial": 3, "serialpos": 1, "trial_type": "single-audio", "trial_index": 130, "time_elapsed": 1220786, "internal_node_id": "0.0-94.0"}}, {"uniqueid": "MTK0199:3KYQYYSHYWEJI5EPNVPA1306Q0POD1", "current_trial": 131, "dateTime": 1509500683413, "trialdata": {"rt": -1000, "stimulus": "/static/audio/wordpool/BRICK.wav", "key_press": -1, "type": "PRES_AUD", "word": "brick", "wordID": 171, "conditions": [12, 800, "a", 24000], "trial": 3, "serialpos": 2, "trial_type": "single-audio", "trial_index": 131, "time_elapsed": 1222648, "internal_node_id": "0.0-95.0"}}, {"uniqueid": "MTK0199:3KYQYYSHYWEJI5EPNVPA1306Q0POD1", "current_trial": 132, "dateTime": 1509500685088, "trialdata": {"rt": -1000, "stimulus": "/static/audio/wordpool/JUDGE.wav", "key_press": -1, "type": "PRES_AUD", "word": "judge", "wordID": 760, "conditions": [12, 800, "a", 24000], "trial": 3, "serialpos": 3, "trial_type": "single-audio", "trial_index": 132, "time_elapsed": 1224323, "internal_node_id": "0.0-96.0"}}, {"uniqueid": "MTK0199:3KYQYYSHYWEJI5EPNVPA1306Q0POD1", "current_trial": 133, "dateTime": 1509500686751, "trialdata": {"rt": -1000, "stimulus": "/static/audio/wordpool/JURY.wav", "key_press": -1, "type": "PRES_AUD", "word": "jury", "wordID": 765, "conditions": [12, 800, "a", 24000], "trial": 3, "serialpos": 4, "trial_type": "single-audio", "trial_index": 133, "time_elapsed": 1225986, "internal_node_id": "0.0-97.0"}}, {"uniqueid": "MTK0199:3KYQYYSHYWEJI5EPNVPA1306Q0POD1", "current_trial": 134, "dateTime": 1509500688408, "trialdata": {"rt": -1000, "stimulus": "/static/audio/wordpool/BULLET.wav", "key_press": -1, "type": "PRES_AUD", "word": "bullet", "wordID": 193, "conditions": [12, 800, "a", 24000], "trial": 3, "serialpos": 5, "trial_type": "single-audio", "trial_index": 134, "time_elapsed": 1227643, "internal_node_id": "0.0-98.0"}}, {"uniqueid": "MTK0199:3KYQYYSHYWEJI5EPNVPA1306Q0POD1", "current_trial": 135, "dateTime": 1509500690063, "trialdata": {"rt": -1000, "stimulus": "/static/audio/wordpool/LASER.wav", "key_press": -1, "type": "PRES_AUD", "word": "laser", "wordID": 800, "conditions": [12, 800, "a", 24000], "trial": 3, "serialpos": 6, "trial_type": "single-audio", "trial_index": 135, "time_elapsed": 1229298, "internal_node_id": "0.0-99.0"}}, {"uniqueid": "MTK0199:3KYQYYSHYWEJI5EPNVPA1306Q0POD1", "current_trial": 136, "dateTime": 1509500691960, "trialdata": {"rt": -1000, "stimulus": "/static/audio/wordpool/COFFEE.wav", "key_press": -1, "type": "PRES_AUD", "word": "coffee", "wordID": 340, "conditions": [12, 800, "a", 24000], "trial": 3, "serialpos": 7, "trial_type": "single-audio", "trial_index": 136, "time_elapsed": 1231195, "internal_node_id": "0.0-100.0"}}, {"uniqueid": "MTK0199:3KYQYYSHYWEJI5EPNVPA1306Q0POD1", "current_trial": 137, "dateTime": 1509500693789, "trialdata": {"rt": -1000, "stimulus": "/static/audio/wordpool/SALT.wav", "key_press": -1, "type": "PRES_AUD", "word": "salt", "wordID": 1228, "conditions": [12, 800, "a", 24000], "trial": 3, "serialpos": 8, "trial_type": "single-audio", "trial_index": 137, "time_elapsed": 1233024, "internal_node_id": "0.0-101.0"}}, {"uniqueid": "MTK0199:3KYQYYSHYWEJI5EPNVPA1306Q0POD1", "current_trial": 138, "dateTime": 1509500695755, "trialdata": {"rt": -1000, "stimulus": "/static/audio/wordpool/LIZARD.wav", "key_press": -1, "type": "PRES_AUD", "word": "lizard", "wordID": 833, "conditions": [12, 800, "a", 24000], "trial": 3, "serialpos": 9, "trial_type": "single-audio", "trial_index": 138, "time_elapsed": 1234990, "internal_node_id": "0.0-102.0"}}, {"uniqueid": "MTK0199:3KYQYYSHYWEJI5EPNVPA1306Q0POD1", "current_trial": 139, "dateTime": 1509500697599, "trialdata": {"rt": -1000, "stimulus": "/static/audio/wordpool/SLOPE.wav", "key_press": -1, "type": "PRES_AUD", "word": "slope", "wordID": 1327, "conditions": [12, 800, "a", 24000], "trial": 3, "serialpos": 10, "trial_type": "single-audio", "trial_index": 139, "time_elapsed": 1236834, "internal_node_id": "0.0-103.0"}}, {"uniqueid": "MTK0199:3KYQYYSHYWEJI5EPNVPA1306Q0POD1", "current_trial": 140, "dateTime": 1509500699372, "trialdata": {"rt": -1000, "stimulus": "/static/audio/wordpool/KIDNEY.wav", "key_press": -1, "type": "PRES_AUD", "word": "kidney", "wordID": 775, "conditions": [12, 800, "a", 24000], "trial": 3, "serialpos": 11, "trial_type": "single-audio", "trial_index": 140, "time_elapsed": 1238607, "internal_node_id": "0.0-104.0"}}, {"uniqueid": "MTK0199:3KYQYYSHYWEJI5EPNVPA1306Q0POD1", "current_trial": 141, "dateTime": 1509500700702, "trialdata": {"rt": -1, "stimulus": "", "key_press": -1, "type": "PRE_RECALL_DELAY", "trial_type": "single-stim", "trial_index": 141, "time_elapsed": 1239937, "internal_node_id": "0.0-105.0-0.0"}}, {"uniqueid": "MTK0199:3KYQYYSHYWEJI5EPNVPA1306Q0POD1", "current_trial": 142, "dateTime": 1509500701202, "trialdata": {"rt": -1000, "stimulus": "/static/audio/400Hz.wav", "key_press": -1, "type": "PRE_RECALL_ALERT", "trial_type": "single-audio", "trial_index": 142, "time_elapsed": 1240437, "internal_node_id": "0.0-106.0"}}, {"uniqueid": "MTK0199:3KYQYYSHYWEJI5EPNVPA1306Q0POD1", "current_trial": 143, "dateTime": 1509500761209, "trialdata": {"rt": [3952, 6408, 8303, 11064, 15255, 16839, 19912], "recwords": ["kidney", "judge", "jury", "coffee", "slope", "salt", "snail"], "type": "FREE_RECALL", "conditions": [12, 800, "a", 24000], "trial": 3, "trial_type": "free-recall", "trial_index": 143, "time_elapsed": 1300441, "internal_node_id": "0.0-107.0-0.0"}}, {"uniqueid": "MTK0199:3KYQYYSHYWEJI5EPNVPA1306Q0POD1", "current_trial": 144, "dateTime": 1509500765319, "trialdata": {"rt": 2110, "key_press": 13, "type": "INSTRUCTIONS", "trial_type": "text", "trial_index": 144, "time_elapsed": 1304554, "internal_node_id": "0.0-108.0"}}, {"uniqueid": "MTK0199:3KYQYYSHYWEJI5EPNVPA1306Q0POD1", "current_trial": 145, "dateTime": 1509500779323, "trialdata": {"rt": [7533, 10557], "responses": ["18", "14"], "num1": [2, 6, 5], "num2": [9, 7, 4], "num3": [7, 1, 4], "type": "DISTRACTOR", "conditions": [24, 800, "v", 12000], "trial": 4, "trial_type": "math-distractor", "trial_index": 145, "time_elapsed": 1318557, "internal_node_id": "0.0-109.0"}}, {"uniqueid": "MTK0199:3KYQYYSHYWEJI5EPNVPA1306Q0POD1", "current_trial": 146, "dateTime": 1509500782325, "trialdata": {"rt": -1, "stimulus": "<p id=\"stim\">10</p>", "key_press": -1, "trial_type": "single-stim", "trial_index": 146, "time_elapsed": 1321560, "internal_node_id": "0.0-110.0-0.0"}}, {"uniqueid": "MTK0199:3KYQYYSHYWEJI5EPNVPA1306Q0POD1", "current_trial": 147, "dateTime": 1509500783325, "trialdata": {"rt": -1, "stimulus": "<p id=\"stim\">9</p>", "key_press": -1, "trial_type": "single-stim", "trial_index": 147, "time_elapsed": 1322560, "internal_node_id": "0.0-110.0-1.0"}}, {"uniqueid": "MTK0199:3KYQYYSHYWEJI5EPNVPA1306Q0POD1", "current_trial": 148, "dateTime": 1509500784325, "trialdata": {"rt": -1, "stimulus": "<p id=\"stim\">8</p>", "key_press": -1, "trial_type": "single-stim", "trial_index": 148, "time_elapsed": 1323560, "internal_node_id": "0.0-110.0-2.0"}}, {"uniqueid": "MTK0199:3KYQYYSHYWEJI5EPNVPA1306Q0POD1", "current_trial": 149, "dateTime": 1509500785325, "trialdata": {"rt": -1, "stimulus": "<p id=\"stim\">7</p>", "key_press": -1, "trial_type": "single-stim", "trial_index": 149, "time_elapsed": 1324560, "internal_node_id": "0.0-110.0-3.0"}}, {"uniqueid": "MTK0199:3KYQYYSHYWEJI5EPNVPA1306Q0POD1", "current_trial": 150, "dateTime": 1509500786325, "trialdata": {"rt": -1, "stimulus": "<p id=\"stim\">6</p>", "key_press": -1, "trial_type": "single-stim", "trial_index": 150, "time_elapsed": 1325560, "internal_node_id": "0.0-110.0-4.0"}}, {"uniqueid": "MTK0199:3KYQYYSHYWEJI5EPNVPA1306Q0POD1", "current_trial": 151, "dateTime": 1509500787325, "trialdata": {"rt": -1, "stimulus": "<p id=\"stim\">5</p>", "key_press": -1, "trial_type": "single-stim", "trial_index": 151, "time_elapsed": 1326560, "internal_node_id": "0.0-110.0-5.0"}}, {"uniqueid": "MTK0199:3KYQYYSHYWEJI5EPNVPA1306Q0POD1", "current_trial": 152, "dateTime": 1509500788325, "trialdata": {"rt": -1, "stimulus": "<p id=\"stim\">4</p>", "key_press": -1, "trial_type": "single-stim", "trial_index": 152, "time_elapsed": 1327560, "internal_node_id": "0.0-110.0-6.0"}}, {"uniqueid": "MTK0199:3KYQYYSHYWEJI5EPNVPA1306Q0POD1", "current_trial": 153, "dateTime": 1509500789325, "trialdata": {"rt": -1, "stimulus": "<p id=\"stim\">3</p>", "key_press": -1, "trial_type": "single-stim", "trial_index": 153, "time_elapsed": 1328560, "internal_node_id": "0.0-110.0-7.0"}}, {"uniqueid": "MTK0199:3KYQYYSHYWEJI5EPNVPA1306Q0POD1", "current_trial": 154, "dateTime": 1509500790325, "trialdata": {"rt": -1, "stimulus": "<p id=\"stim\">2</p>", "key_press": -1, "trial_type": "single-stim", "trial_index": 154, "time_elapsed": 1329560, "internal_node_id": "0.0-110.0-8.0"}}, {"uniqueid": "MTK0199:3KYQYYSHYWEJI5EPNVPA1306Q0POD1", "current_trial": 155, "dateTime": 1509500791325, "trialdata": {"rt": -1, "stimulus": "<p id=\"stim\">1</p>", "key_press": -1, "trial_type": "single-stim", "trial_index": 155, "time_elapsed": 1330560, "internal_node_id": "0.0-110.0-9.0"}}, {"uniqueid": "MTK0199:3KYQYYSHYWEJI5EPNVPA1306Q0POD1", "current_trial": 156, "dateTime": 1509500792825, "trialdata": {"rt": -1, "stimulus": "<p id=\"stim\">+</p>", "key_press": -1, "type": "FIXATION", "trial_type": "single-stim", "trial_index": 156, "time_elapsed": 1332060, "internal_node_id": "0.0-111.0-0.0"}}, {"uniqueid": "MTK0199:3KYQYYSHYWEJI5EPNVPA1306Q0POD1", "current_trial": 157, "dateTime": 1509500793626, "trialdata": {"rt": -1, "stimulus": "<p id=\"stim\">WRIST</p>", "key_press": -1, "type": "PRES_VIS", "word": "wrist", "wordID": 1625, "conditions": [24, 800, "v", 12000], "trial": 4, "serialpos": 0, "trial_type": "single-stim", "trial_index": 157, "time_elapsed": 1332861, "internal_node_id": "0.0-112.0"}}, {"uniqueid": "MTK0199:3KYQYYSHYWEJI5EPNVPA1306Q0POD1", "current_trial": 158, "dateTime": 1509500795564, "trialdata": {"rt": -1, "stimulus": "<p id=\"stim\">BARREL</p>", "key_press": -1, "type": "PRES_VIS", "word": "barrel", "wordID": 90, "conditions": [24, 800, "v", 12000], "trial": 4, "serialpos": 1, "trial_type": "single-stim", "trial_index": 158, "time_elapsed": 1334799, "internal_node_id": "0.0-113.0"}}, {"uniqueid": "MTK0199:3KYQYYSHYWEJI5EPNVPA1306Q0POD1", "current_trial": 159, "dateTime": 1509500797532, "trialdata": {"rt": -1, "stimulus": "<p id=\"stim\">YACHT</p>", "key_press": -1, "type": "PRES_VIS", "word": "yacht", "wordID": 1628, "conditions": [24, 800, "v", 12000], "trial": 4, "serialpos": 2, "trial_type": "single-stim", "trial_index": 159, "time_elapsed": 1336767, "internal_node_id": "0.0-114.0"}}, {"uniqueid": "MTK0199:3KYQYYSHYWEJI5EPNVPA1306Q0POD1", "current_trial": 160, "dateTime": 1509500799516, "trialdata": {"rt": -1, "stimulus": "<p id=\"stim\">ROBBER</p>", "key_press": -1, "type": "PRES_VIS", "word": "robber", "wordID": 1196, "conditions": [24, 800, "v", 12000], "trial": 4, "serialpos": 3, "trial_type": "single-stim", "trial_index": 160, "time_elapsed": 1338751, "internal_node_id": "0.0-115.0"}}, {"uniqueid": "MTK0199:3KYQYYSHYWEJI5EPNVPA1306Q0POD1", "current_trial": 161, "dateTime": 1509500801250, "trialdata": {"rt": -1, "stimulus": "<p id=\"stim\">NURSE</p>", "key_press": -1, "type": "PRES_VIS", "word": "nurse", "wordID": 962, "conditions": [24, 800, "v", 12000], "trial": 4, "serialpos": 4, "trial_type": "single-stim", "trial_index": 161, "time_elapsed": 1340485, "internal_node_id": "0.0-116.0"}}, {"uniqueid": "MTK0199:3KYQYYSHYWEJI5EPNVPA1306Q0POD1", "current_trial": 162, "dateTime": 1509500802889, "trialdata": {"rt": -1, "stimulus": "<p id=\"stim\">GALLON</p>", "key_press": -1, "type": "PRES_VIS", "word": "gallon", "wordID": 617, "conditions": [24, 800, "v", 12000], "trial": 4, "serialpos": 5, "trial_type": "single-stim", "trial_index": 162, "time_elapsed": 1342124, "internal_node_id": "0.0-117.0"}}, {"uniqueid": "MTK0199:3KYQYYSHYWEJI5EPNVPA1306Q0POD1", "current_trial": 163, "dateTime": 1509500804629, "trialdata": {"rt": -1, "stimulus": "<p id=\"stim\">FLIPPER</p>", "key_press": -1, "type": "PRES_VIS", "word": "flipper", "wordID": 579, "conditions": [24, 800, "v", 12000], "trial": 4, "serialpos": 6, "trial_type": "single-stim", "trial_index": 163, "time_elapsed": 1343864, "internal_node_id": "0.0-118.0"}}, {"uniqueid": "MTK0199:3KYQYYSHYWEJI5EPNVPA1306Q0POD1", "current_trial": 164, "dateTime": 1509500806308, "trialdata": {"rt": -1, "stimulus": "<p id=\"stim\">CHAPEL</p>", "key_press": -1, "type": "PRES_VIS", "word": "chapel", "wordID": 279, "conditions": [24, 800, "v", 12000], "trial": 4, "serialpos": 7, "trial_type": "single-stim", "trial_index": 164, "time_elapsed": 1345543, "internal_node_id": "0.0-119.0"}}, {"uniqueid": "MTK0199:3KYQYYSHYWEJI5EPNVPA1306Q0POD1", "current_trial": 165, "dateTime": 1509500808076, "trialdata": {"rt": -1, "stimulus": "<p id=\"stim\">DOLPHIN</p>", "key_press": -1, "type": "PRES_VIS", "word": "dolphin", "wordID": 482, "conditions": [24, 800, "v", 12000], "trial": 4, "serialpos": 8, "trial_type": "single-stim", "trial_index": 165, "time_elapsed": 1347311, "internal_node_id": "0.0-120.0"}}, {"uniqueid": "MTK0199:3KYQYYSHYWEJI5EPNVPA1306Q0POD1", "current_trial": 166, "dateTime": 1509500810056, "trialdata": {"rt": -1, "stimulus": "<p id=\"stim\">DAUGHTER</p>", "key_press": -1, "type": "PRES_VIS", "word": "daughter", "wordID": 441, "conditions": [24, 800, "v", 12000], "trial": 4, "serialpos": 9, "trial_type": "single-stim", "trial_index": 166, "time_elapsed": 1349291, "internal_node_id": "0.0-121.0"}}, {"uniqueid": "MTK0199:3KYQYYSHYWEJI5EPNVPA1306Q0POD1", "current_trial": 167, "dateTime": 1509500811748, "trialdata": {"rt": -1, "stimulus": "<p id=\"stim\">DRESSER</p>", "key_press": -1, "type": "PRES_VIS", "word": "dresser", "wordID": 495, "conditions": [24, 800, "v", 12000], "trial": 4, "serialpos": 10, "trial_type": "single-stim", "trial_index": 167, "time_elapsed": 1350983, "internal_node_id": "0.0-122.0"}}, {"uniqueid": "MTK0199:3KYQYYSHYWEJI5EPNVPA1306Q0POD1", "current_trial": 168, "dateTime": 1509500813422, "trialdata": {"rt": -1, "stimulus": "<p id=\"stim\">CUPBOARD</p>", "key_press": -1, "type": "PRES_VIS", "word": "cupboard", "wordID": 424, "conditions": [24, 800, "v", 12000], "trial": 4, "serialpos": 11, "trial_type": "single-stim", "trial_index": 168, "time_elapsed": 1352657, "internal_node_id": "0.0-123.0"}}, {"uniqueid": "MTK0199:3KYQYYSHYWEJI5EPNVPA1306Q0POD1", "current_trial": 169, "dateTime": 1509500815286, "trialdata": {"rt": -1, "stimulus": "<p id=\"stim\">AWARD</p>", "key_press": -1, "type": "PRES_VIS", "word": "award", "wordID": 62, "conditions": [24, 800, "v", 12000], "trial": 4, "serialpos": 12, "trial_type": "single-stim", "trial_index": 169, "time_elapsed": 1354521, "internal_node_id": "0.0-124.0"}}, {"uniqueid": "MTK0199:3KYQYYSHYWEJI5EPNVPA1306Q0POD1", "current_trial": 170, "dateTime": 1509500816912, "trialdata": {"rt": -1, "stimulus": "<p id=\"stim\">PERCH</p>", "key_press": -1, "type": "PRES_VIS", "word": "perch", "wordID": 1047, "conditions": [24, 800, "v", 12000], "trial": 4, "serialpos": 13, "trial_type": "single-stim", "trial_index": 170, "time_elapsed": 1356147, "internal_node_id": "0.0-125.0"}}, {"uniqueid": "MTK0199:3KYQYYSHYWEJI5EPNVPA1306Q0POD1", "current_trial": 171, "dateTime": 1509500818533, "trialdata": {"rt": -1, "stimulus": "<p id=\"stim\">LILY</p>", "key_press": -1, "type": "PRES_VIS", "word": "lily", "wordID": 820, "conditions": [24, 800, "v", 12000], "trial": 4, "serialpos": 14, "trial_type": "single-stim", "trial_index": 171, "time_elapsed": 1357768, "internal_node_id": "0.0-126.0"}}, {"uniqueid": "MTK0199:3KYQYYSHYWEJI5EPNVPA1306Q0POD1", "current_trial": 172, "dateTime": 1509500820296, "trialdata": {"rt": -1, "stimulus": "<p id=\"stim\">RAFT</p>", "key_press": -1, "type": "PRES_VIS", "word": "raft", "wordID": 1158, "conditions": [24, 800, "v", 12000], "trial": 4, "serialpos": 15, "trial_type": "single-stim", "trial_index": 172, "time_elapsed": 1359531, "internal_node_id": "0.0-127.0"}}, {"uniqueid": "MTK0199:3KYQYYSHYWEJI5EPNVPA1306Q0POD1", "current_trial": 173, "dateTime": 1509500821962, "trialdata": {"rt": -1, "stimulus": "<p id=\"stim\">WHISTLE</p>", "key_press": -1, "type": "PRES_VIS", "word": "whistle", "wordID": 1605, "conditions": [24, 800, "v", 12000], "trial": 4, "serialpos": 16, "trial_type": "single-stim", "trial_index": 173, "time_elapsed": 1361197, "internal_node_id": "0.0-128.0"}}, {"uniqueid": "MTK0199:3KYQYYSHYWEJI5EPNVPA1306Q0POD1", "current_trial": 174, "dateTime": 1509500823839, "trialdata": {"rt": -1, "stimulus": "<p id=\"stim\">LACE</p>", "key_press": -1, "type": "PRES_VIS", "word": "lace", "wordID": 791, "conditions": [24, 800, "v", 12000], "trial": 4, "serialpos": 17, "trial_type": "single-stim", "trial_index": 174, "time_elapsed": 1363074, "internal_node_id": "0.0-129.0"}}, {"uniqueid": "MTK0199:3KYQYYSHYWEJI5EPNVPA1306Q0POD1", "current_trial": 175, "dateTime": 1509500825529, "trialdata": {"rt": -1, "stimulus": "<p id=\"stim\">HARP</p>", "key_press": -1, "type": "PRES_VIS", "word": "harp", "wordID": 688, "conditions": [24, 800, "v", 12000], "trial": 4, "serialpos": 18, "trial_type": "single-stim", "trial_index": 175, "time_elapsed": 1364764, "internal_node_id": "0.0-130.0"}}, {"uniqueid": "MTK0199:3KYQYYSHYWEJI5EPNVPA1306Q0POD1", "current_trial": 176, "dateTime": 1509500827430, "trialdata": {"rt": -1, "stimulus": "<p id=\"stim\">NIGHTGOWN</p>", "key_press": -1, "type": "PRES_VIS", "word": "nightgown", "wordID": 952, "conditions": [24, 800, "v", 12000], "trial": 4, "serialpos": 19, "trial_type": "single-stim", "trial_index": 176, "time_elapsed": 1366665, "internal_node_id": "0.0-131.0"}}, {"uniqueid": "MTK0199:3KYQYYSHYWEJI5EPNVPA1306Q0POD1", "current_trial": 177, "dateTime": 1509500829227, "trialdata": {"rt": -1, "stimulus": "<p id=\"stim\">TUTU</p>", "key_press": -1, "type": "PRES_VIS", "word": "tutu", "wordID": 1523, "conditions": [24, 800, "v", 12000], "trial": 4, "serialpos": 20, "trial_type": "single-stim", "trial_index": 177, "time_elapsed": 1368462, "internal_node_id": "0.0-132.0"}}, {"uniqueid": "MTK0199:3KYQYYSHYWEJI5EPNVPA1306Q0POD1", "current_trial": 178, "dateTime": 1509500831188, "trialdata": {"rt": -1, "stimulus": "<p id=\"stim\">MILK</p>", "key_press": -1, "type": "PRES_VIS", "word": "milk", "wordID": 894, "conditions": [24, 800, "v", 12000], "trial": 4, "serialpos": 21, "trial_type": "single-stim", "trial_index": 178, "time_elapsed": 1370422, "internal_node_id": "0.0-133.0"}}, {"uniqueid": "MTK0199:3KYQYYSHYWEJI5EPNVPA1306Q0POD1", "current_trial": 179, "dateTime": 1509500833034, "trialdata": {"rt": -1, "stimulus": "<p id=\"stim\">BOUQUET</p>", "key_press": -1, "type": "PRES_VIS", "word": "bouquet", "wordID": 156, "conditions": [24, 800, "v", 12000], "trial": 4, "serialpos": 22, "trial_type": "single-stim", "trial_index": 179, "time_elapsed": 1372269, "internal_node_id": "0.0-134.0"}}, {"uniqueid": "MTK0199:3KYQYYSHYWEJI5EPNVPA1306Q0POD1", "current_trial": 180, "dateTime": 1509500834789, "trialdata": {"rt": -1, "stimulus": "<p id=\"stim\">FIDDLE</p>", "key_press": -1, "type": "PRES_VIS", "word": "fiddle", "wordID": 560, "conditions": [24, 800, "v", 12000], "trial": 4, "serialpos": 23, "trial_type": "single-stim", "trial_index": 180, "time_elapsed": 1374024, "internal_node_id": "0.0-135.0"}}, {"uniqueid": "MTK0199:3KYQYYSHYWEJI5EPNVPA1306Q0POD1", "current_trial": 181, "dateTime": 1509500836860, "trialdata": {"rt": -1, "stimulus": "", "key_press": -1, "type": "PRE_RECALL_DELAY", "trial_type": "single-stim", "trial_index": 181, "time_elapsed": 1376095, "internal_node_id": "0.0-136.0-0.0"}}, {"uniqueid": "MTK0199:3KYQYYSHYWEJI5EPNVPA1306Q0POD1", "current_trial": 182, "dateTime": 1509500837361, "trialdata": {"rt": -1000, "stimulus": "/static/audio/400Hz.wav", "key_press": -1, "type": "PRE_RECALL_ALERT", "trial_type": "single-audio", "trial_index": 182, "time_elapsed": 1376596, "internal_node_id": "0.0-137.0"}}, {"uniqueid": "MTK0199:3KYQYYSHYWEJI5EPNVPA1306Q0POD1", "current_trial": 183, "dateTime": 1509500897369, "trialdata": {"rt": [3339, 6372, 16339, 28844, 37180], "recwords": ["tutu", "fiddle", "nurse", "cupboard", "whistle"], "type": "FREE_RECALL", "conditions": [24, 800, "v", 12000], "trial": 4, "trial_type": "free-recall", "trial_index": 183, "time_elapsed": 1436600, "internal_node_id": "0.0-138.0-0.0"}}, {"uniqueid": "MTK0199:3KYQYYSHYWEJI5EPNVPA1306Q0POD1", "current_trial": 184, "dateTime": 1509500901027, "trialdata": {"rt": 1657, "key_press": 13, "type": "INSTRUCTIONS", "trial_type": "text", "trial_index": 184, "time_elapsed": 1440262, "internal_node_id": "0.0-139.0"}}, {"uniqueid": "MTK0199:3KYQYYSHYWEJI5EPNVPA1306Q0POD1", "current_trial": 185, "dateTime": 1509500927031, "trialdata": {"rt": [3757, 6500, 8660, 11684, 14724, 17188, 19380, 21980], "responses": ["17", "15", "15", "17", "15", "17", "11", "16"], "num1": [5, 9, 6, 9, 8, 4, 2, 2, 5], "num2": [3, 5, 4, 3, 4, 6, 7, 8, 4], "num3": [9, 1, 5, 5, 3, 7, 1, 6, 7], "type": "DISTRACTOR", "conditions": [24, 800, "v", 24000], "trial": 5, "trial_type": "math-distractor", "trial_index": 185, "time_elapsed": 1466265, "internal_node_id": "0.0-140.0"}}, {"uniqueid": "MTK0199:3KYQYYSHYWEJI5EPNVPA1306Q0POD1", "current_trial": 186, "dateTime": 1509500930033, "trialdata": {"rt": -1, "stimulus": "<p id=\"stim\">10</p>", "key_press": -1, "trial_type": "single-stim", "trial_index": 186, "time_elapsed": 1469268, "internal_node_id": "0.0-141.0-0.0"}}, {"uniqueid": "MTK0199:3KYQYYSHYWEJI5EPNVPA1306Q0POD1", "current_trial": 187, "dateTime": 1509500931033, "trialdata": {"rt": -1, "stimulus": "<p id=\"stim\">9</p>", "key_press": -1, "trial_type": "single-stim", "trial_index": 187, "time_elapsed": 1470268, "internal_node_id": "0.0-141.0-1.0"}}, {"uniqueid": "MTK0199:3KYQYYSHYWEJI5EPNVPA1306Q0POD1", "current_trial": 188, "dateTime": 1509500932033, "trialdata": {"rt": -1, "stimulus": "<p id=\"stim\">8</p>", "key_press": -1, "trial_type": "single-stim", "trial_index": 188, "time_elapsed": 1471268, "internal_node_id": "0.0-141.0-2.0"}}, {"uniqueid": "MTK0199:3KYQYYSHYWEJI5EPNVPA1306Q0POD1", "current_trial": 189, "dateTime": 1509500933033, "trialdata": {"rt": -1, "stimulus": "<p id=\"stim\">7</p>", "key_press": -1, "trial_type": "single-stim", "trial_index": 189, "time_elapsed": 1472268, "internal_node_id": "0.0-141.0-3.0"}}, {"uniqueid": "MTK0199:3KYQYYSHYWEJI5EPNVPA1306Q0POD1", "current_trial": 190, "dateTime": 1509500934033, "trialdata": {"rt": -1, "stimulus": "<p id=\"stim\">6</p>", "key_press": -1, "trial_type": "single-stim", "trial_index": 190, "time_elapsed": 1473268, "internal_node_id": "0.0-141.0-4.0"}}, {"uniqueid": "MTK0199:3KYQYYSHYWEJI5EPNVPA1306Q0POD1", "current_trial": 191, "dateTime": 1509500935033, "trialdata": {"rt": -1, "stimulus": "<p id=\"stim\">5</p>", "key_press": -1, "trial_type": "single-stim", "trial_index": 191, "time_elapsed": 1474268, "internal_node_id": "0.0-141.0-5.0"}}, {"uniqueid": "MTK0199:3KYQYYSHYWEJI5EPNVPA1306Q0POD1", "current_trial": 192, "dateTime": 1509500936033, "trialdata": {"rt": -1, "stimulus": "<p id=\"stim\">4</p>", "key_press": -1, "trial_type": "single-stim", "trial_index": 192, "time_elapsed": 1475268, "internal_node_id": "0.0-141.0-6.0"}}, {"uniqueid": "MTK0199:3KYQYYSHYWEJI5EPNVPA1306Q0POD1", "current_trial": 193, "dateTime": 1509500937033, "trialdata": {"rt": -1, "stimulus": "<p id=\"stim\">3</p>", "key_press": -1, "trial_type": "single-stim", "trial_index": 193, "time_elapsed": 1476268, "internal_node_id": "0.0-141.0-7.0"}}, {"uniqueid": "MTK0199:3KYQYYSHYWEJI5EPNVPA1306Q0POD1", "current_trial": 194, "dateTime": 1509500938033, "trialdata": {"rt": -1, "stimulus": "<p id=\"stim\">2</p>", "key_press": -1, "trial_type": "single-stim", "trial_index": 194, "time_elapsed": 1477268, "internal_node_id": "0.0-141.0-8.0"}}, {"uniqueid": "MTK0199:3KYQYYSHYWEJI5EPNVPA1306Q0POD1", "current_trial": 195, "dateTime": 1509500939033, "trialdata": {"rt": -1, "stimulus": "<p id=\"stim\">1</p>", "key_press": -1, "trial_type": "single-stim", "trial_index": 195, "time_elapsed": 1478268, "internal_node_id": "0.0-141.0-9.0"}}, {"uniqueid": "MTK0199:3KYQYYSHYWEJI5EPNVPA1306Q0POD1", "current_trial": 196, "dateTime": 1509500940533, "trialdata": {"rt": -1, "stimulus": "<p id=\"stim\">+</p>", "key_press": -1, "type": "FIXATION", "trial_type": "single-stim", "trial_index": 196, "time_elapsed": 1479768, "internal_node_id": "0.0-142.0-0.0"}}, {"uniqueid": "MTK0199:3KYQYYSHYWEJI5EPNVPA1306Q0POD1", "current_trial": 197, "dateTime": 1509500941333, "trialdata": {"rt": -1, "stimulus": "<p id=\"stim\">WIFE</p>", "key_press": -1, "type": "PRES_VIS", "word": "wife", "wordID": 1608, "conditions": [24, 800, "v", 24000], "trial": 5, "serialpos": 0, "trial_type": "single-stim", "trial_index": 197, "time_elapsed": 1480568, "internal_node_id": "0.0-143.0"}}, {"uniqueid": "MTK0199:3KYQYYSHYWEJI5EPNVPA1306Q0POD1", "current_trial": 198, "dateTime": 1509500943296, "trialdata": {"rt": -1, "stimulus": "<p id=\"stim\">BOYFRIEND</p>", "key_press": -1, "type": "PRES_VIS", "word": "boyfriend", "wordID": 161, "conditions": [24, 800, "v", 24000], "trial": 5, "serialpos": 1, "trial_type": "single-stim", "trial_index": 198, "time_elapsed": 1482531, "internal_node_id": "0.0-144.0"}}, {"uniqueid": "MTK0199:3KYQYYSHYWEJI5EPNVPA1306Q0POD1", "current_trial": 199, "dateTime": 1509500945153, "trialdata": {"rt": -1, "stimulus": "<p id=\"stim\">GRAPE</p>", "key_press": -1, "type": "PRES_VIS", "word": "grape", "wordID": 653, "conditions": [24, 800, "v", 24000], "trial": 5, "serialpos": 2, "trial_type": "single-stim", "trial_index": 199, "time_elapsed": 1484388, "internal_node_id": "0.0-145.0"}}, {"uniqueid": "MTK0199:3KYQYYSHYWEJI5EPNVPA1306Q0POD1", "current_trial": 200, "dateTime": 1509500947031, "trialdata": {"rt": -1, "stimulus": "<p id=\"stim\">SAUSAGE</p>", "key_press": -1, "type": "PRES_VIS", "word": "sausage", "wordID": 1237, "conditions": [24, 800, "v", 24000], "trial": 5, "serialpos": 3, "trial_type": "single-stim", "trial_index": 200, "time_elapsed": 1486266, "internal_node_id": "0.0-146.0"}}, {"uniqueid": "MTK0199:3KYQYYSHYWEJI5EPNVPA1306Q0POD1", "current_trial": 201, "dateTime": 1509500948931, "trialdata": {"rt": -1, "stimulus": "<p id=\"stim\">FOX</p>", "key_press": -1, "type": "PRES_VIS", "word": "fox", "wordID": 597, "conditions": [24, 800, "v", 24000], "trial": 5, "serialpos": 4, "trial_type": "single-stim", "trial_index": 201, "time_elapsed": 1488166, "internal_node_id": "0.0-147.0"}}, {"uniqueid": "MTK0199:3KYQYYSHYWEJI5EPNVPA1306Q0POD1", "current_trial": 202, "dateTime": 1509500950534, "trialdata": {"rt": -1, "stimulus": "<p id=\"stim\">BADGE</p>", "key_press": -1, "type": "PRES_VIS", "word": "badge", "wordID": 67, "conditions": [24, 800, "v", 24000], "trial": 5, "serialpos": 5, "trial_type": "single-stim", "trial_index": 202, "time_elapsed": 1489769, "internal_node_id": "0.0-148.0"}}, {"uniqueid": "MTK0199:3KYQYYSHYWEJI5EPNVPA1306Q0POD1", "current_trial": 203, "dateTime": 1509500952290, "trialdata": {"rt": -1, "stimulus": "<p id=\"stim\">DRILL</p>", "key_press": -1, "type": "PRES_VIS", "word": "drill", "wordID": 496, "conditions": [24, 800, "v", 24000], "trial": 5, "serialpos": 6, "trial_type": "single-stim", "trial_index": 203, "time_elapsed": 1491525, "internal_node_id": "0.0-149.0"}}, {"uniqueid": "MTK0199:3KYQYYSHYWEJI5EPNVPA1306Q0POD1", "current_trial": 204, "dateTime": 1509500953906, "trialdata": {"rt": -1, "stimulus": "<p id=\"stim\">PERFUME</p>", "key_press": -1, "type": "PRES_VIS", "word": "perfume", "wordID": 1048, "conditions": [24, 800, "v", 24000], "trial": 5, "serialpos": 7, "trial_type": "single-stim", "trial_index": 204, "time_elapsed": 1493141, "internal_node_id": "0.0-150.0"}}, {"uniqueid": "MTK0199:3KYQYYSHYWEJI5EPNVPA1306Q0POD1", "current_trial": 205, "dateTime": 1509500955615, "trialdata": {"rt": -1, "stimulus": "<p id=\"stim\">CREATURE</p>", "key_press": -1, "type": "PRES_VIS", "word": "creature", "wordID": 402, "conditions": [24, 800, "v", 24000], "trial": 5, "serialpos": 8, "trial_type": "single-stim", "trial_index": 205, "time_elapsed": 1494850, "internal_node_id": "0.0-151.0"}}, {"uniqueid": "MTK0199:3KYQYYSHYWEJI5EPNVPA1306Q0POD1", "current_trial": 206, "dateTime": 1509500957378, "trialdata": {"rt": -1, "stimulus": "<p id=\"stim\">CANAL</p>", "key_press": -1, "type": "PRES_VIS", "word": "canal", "wordID": 225, "conditions": [24, 800, "v", 24000], "trial": 5, "serialpos": 9, "trial_type": "single-stim", "trial_index": 206, "time_elapsed": 1496613, "internal_node_id": "0.0-152.0"}}, {"uniqueid": "MTK0199:3KYQYYSHYWEJI5EPNVPA1306Q0POD1", "current_trial": 207, "dateTime": 1509500959352, "trialdata": {"rt": -1, "stimulus": "<p id=\"stim\">PANTHER</p>", "key_press": -1, "type": "PRES_VIS", "word": "panther", "wordID": 1008, "conditions": [24, 800, "v", 24000], "trial": 5, "serialpos": 10, "trial_type": "single-stim", "trial_index": 207, "time_elapsed": 1498587, "internal_node_id": "0.0-153.0"}}, {"uniqueid": "MTK0199:3KYQYYSHYWEJI5EPNVPA1306Q0POD1", "current_trial": 208, "dateTime": 1509500961081, "trialdata": {"rt": -1, "stimulus": "<p id=\"stim\">TOMBSTONE</p>", "key_press": -1, "type": "PRES_VIS", "word": "tombstone", "wordID": 1477, "conditions": [24, 800, "v", 24000], "trial": 5, "serialpos": 11, "trial_type": "single-stim", "trial_index": 208, "time_elapsed": 1500316, "internal_node_id": "0.0-154.0"}}, {"uniqueid": "MTK0199:3KYQYYSHYWEJI5EPNVPA1306Q0POD1", "current_trial": 209, "dateTime": 1509500962716, "trialdata": {"rt": -1, "stimulus": "<p id=\"stim\">DRAGON</p>", "key_press": -1, "type": "PRES_VIS", "word": "dragon", "wordID": 491, "conditions": [24, 800, "v", 24000], "trial": 5, "serialpos": 12, "trial_type": "single-stim", "trial_index": 209, "time_elapsed": 1501951, "internal_node_id": "0.0-155.0"}}, {"uniqueid": "MTK0199:3KYQYYSHYWEJI5EPNVPA1306Q0POD1", "current_trial": 210, "dateTime": 1509500964332, "trialdata": {"rt": -1, "stimulus": "<p id=\"stim\">GOBLIN</p>", "key_press": -1, "type": "PRES_VIS", "word": "goblin", "wordID": 644, "conditions": [24, 800, "v", 24000], "trial": 5, "serialpos": 13, "trial_type": "single-stim", "trial_index": 210, "time_elapsed": 1503567, "internal_node_id": "0.0-156.0"}}, {"uniqueid": "MTK0199:3KYQYYSHYWEJI5EPNVPA1306Q0POD1", "current_trial": 211, "dateTime": 1509500966248, "trialdata": {"rt": -1, "stimulus": "<p id=\"stim\">CITRUS</p>", "key_press": -1, "type": "PRES_VIS", "word": "citrus", "wordID": 312, "conditions": [24, 800, "v", 24000], "trial": 5, "serialpos": 14, "trial_type": "single-stim", "trial_index": 211, "time_elapsed": 1505483, "internal_node_id": "0.0-157.0"}}, {"uniqueid": "MTK0199:3KYQYYSHYWEJI5EPNVPA1306Q0POD1", "current_trial": 212, "dateTime": 1509500967868, "trialdata": {"rt": -1, "stimulus": "<p id=\"stim\">WIDOW</p>", "key_press": -1, "type": "PRES_VIS", "word": "widow", "wordID": 1607, "conditions": [24, 800, "v", 24000], "trial": 5, "serialpos": 15, "trial_type": "single-stim", "trial_index": 212, "time_elapsed": 1507103, "internal_node_id": "0.0-158.0"}}, {"uniqueid": "MTK0199:3KYQYYSHYWEJI5EPNVPA1306Q0POD1", "current_trial": 213, "dateTime": 1509500969657, "trialdata": {"rt": -1, "stimulus": "<p id=\"stim\">HORNET</p>", "key_press": -1, "type": "PRES_VIS", "word": "hornet", "wordID": 717, "conditions": [24, 800, "v", 24000], "trial": 5, "serialpos": 16, "trial_type": "single-stim", "trial_index": 213, "time_elapsed": 1508892, "internal_node_id": "0.0-159.0"}}, {"uniqueid": "MTK0199:3KYQYYSHYWEJI5EPNVPA1306Q0POD1", "current_trial": 214, "dateTime": 1509500971511, "trialdata": {"rt": -1, "stimulus": "<p id=\"stim\">SEAGULL</p>", "key_press": -1, "type": "PRES_VIS", "word": "seagull", "wordID": 1260, "conditions": [24, 800, "v", 24000], "trial": 5, "serialpos": 17, "trial_type": "single-stim", "trial_index": 214, "time_elapsed": 1510746, "internal_node_id": "0.0-160.0"}}, {"uniqueid": "MTK0199:3KYQYYSHYWEJI5EPNVPA1306Q0POD1", "current_trial": 215, "dateTime": 1509500973376, "trialdata": {"rt": -1, "stimulus": "<p id=\"stim\">RECEIPT</p>", "key_press": -1, "type": "PRES_VIS", "word": "receipt", "wordID": 1172, "conditions": [24, 800, "v", 24000], "trial": 5, "serialpos": 18, "trial_type": "single-stim", "trial_index": 215, "time_elapsed": 1512611, "internal_node_id": "0.0-161.0"}}, {"uniqueid": "MTK0199:3KYQYYSHYWEJI5EPNVPA1306Q0POD1", "current_trial": 216, "dateTime": 1509500975260, "trialdata": {"rt": -1, "stimulus": "<p id=\"stim\">WASP</p>", "key_press": -1, "type": "PRES_VIS", "word": "wasp", "wordID": 1592, "conditions": [24, 800, "v", 24000], "trial": 5, "serialpos": 19, "trial_type": "single-stim", "trial_index": 216, "time_elapsed": 1514495, "internal_node_id": "0.0-162.0"}}, {"uniqueid": "MTK0199:3KYQYYSHYWEJI5EPNVPA1306Q0POD1", "current_trial": 217, "dateTime": 1509500977234, "trialdata": {"rt": -1, "stimulus": "<p id=\"stim\">SUBWAY</p>", "key_press": -1, "type": "PRES_VIS", "word": "subway", "wordID": 1399, "conditions": [24, 800, "v", 24000], "trial": 5, "serialpos": 20, "trial_type": "single-stim", "trial_index": 217, "time_elapsed": 1516469, "internal_node_id": "0.0-163.0"}}, {"uniqueid": "MTK0199:3KYQYYSHYWEJI5EPNVPA1306Q0POD1", "current_trial": 218, "dateTime": 1509500979129, "trialdata": {"rt": -1, "stimulus": "<p id=\"stim\">FIREMAN</p>", "key_press": -1, "type": "PRES_VIS", "word": "fireman", "wordID": 568, "conditions": [24, 800, "v", 24000], "trial": 5, "serialpos": 21, "trial_type": "single-stim", "trial_index": 218, "time_elapsed": 1518364, "internal_node_id": "0.0-164.0"}}, {"uniqueid": "MTK0199:3KYQYYSHYWEJI5EPNVPA1306Q0POD1", "current_trial": 219, "dateTime": 1509500980884, "trialdata": {"rt": -1, "stimulus": "<p id=\"stim\">SISTER</p>", "key_press": -1, "type": "PRES_VIS", "word": "sister", "wordID": 1311, "conditions": [24, 800, "v", 24000], "trial": 5, "serialpos": 22, "trial_type": "single-stim", "trial_index": 219, "time_elapsed": 1520119, "internal_node_id": "0.0-165.0"}}, {"uniqueid": "MTK0199:3KYQYYSHYWEJI5EPNVPA1306Q0POD1", "current_trial": 220, "dateTime": 1509500982743, "trialdata": {"rt": -1, "stimulus": "<p id=\"stim\">TURKEY</p>", "key_press": -1, "type": "PRES_VIS", "word": "turkey", "wordID": 1519, "conditions": [24, 800, "v", 24000], "trial": 5, "serialpos": 23, "trial_type": "single-stim", "trial_index": 220, "time_elapsed": 1521978, "internal_node_id": "0.0-166.0"}}, {"uniqueid": "MTK0199:3KYQYYSHYWEJI5EPNVPA1306Q0POD1", "current_trial": 221, "dateTime": 1509500985140, "trialdata": {"rt": -1, "stimulus": "", "key_press": -1, "type": "PRE_RECALL_DELAY", "trial_type": "single-stim", "trial_index": 221, "time_elapsed": 1524375, "internal_node_id": "0.0-167.0-0.0"}}, {"uniqueid": "MTK0199:3KYQYYSHYWEJI5EPNVPA1306Q0POD1", "current_trial": 222, "dateTime": 1509500985641, "trialdata": {"rt": -1000, "stimulus": "/static/audio/400Hz.wav", "key_press": -1, "type": "PRE_RECALL_ALERT", "trial_type": "single-audio", "trial_index": 222, "time_elapsed": 1524876, "internal_node_id": "0.0-168.0"}}, {"uniqueid": "MTK0199:3KYQYYSHYWEJI5EPNVPA1306Q0POD1", "current_trial": 223, "dateTime": 1509501045651, "trialdata": {"rt": [2968, 5552, 7192, 17465, 23298, 57577], "recwords": ["wife", "hornet", "wasp", "girlfriend", "sausage", "widow"], "type": "FREE_RECALL", "conditions": [24, 800, "v", 24000], "trial": 5, "trial_type": "free-recall", "trial_index": 223, "time_elapsed": 1584880, "internal_node_id": "0.0-169.0-0.0"}}, {"uniqueid": "MTK0199:3KYQYYSHYWEJI5EPNVPA1306Q0POD1", "current_trial": 224, "dateTime": 1509501049525, "trialdata": {"rt": 1874, "key_press": 13, "type": "INSTRUCTIONS", "trial_type": "text", "trial_index": 224, "time_elapsed": 1588760, "internal_node_id": "0.0-170.0"}}, {"uniqueid": "MTK0199:3KYQYYSHYWEJI5EPNVPA1306Q0POD1", "current_trial": 225, "dateTime": 1509501063527, "trialdata": {"rt": [2430, 6318], "responses": ["7", "10"], "num1": [1, 1, 8], "num2": [2, 2, 9], "num3": [4, 7, 6], "type": "DISTRACTOR", "conditions": [12, 800, "a", 12000], "trial": 6, "trial_type": "math-distractor", "trial_index": 225, "time_elapsed": 1602761, "internal_node_id": "0.0-171.0"}}, {"uniqueid": "MTK0199:3KYQYYSHYWEJI5EPNVPA1306Q0POD1", "current_trial": 226, "dateTime": 1509501066527, "trialdata": {"rt": -1, "stimulus": "<p id=\"stim\">10</p>", "key_press": -1, "trial_type": "single-stim", "trial_index": 226, "time_elapsed": 1605762, "internal_node_id": "0.0-172.0-0.0"}}, {"uniqueid": "MTK0199:3KYQYYSHYWEJI5EPNVPA1306Q0POD1", "current_trial": 227, "dateTime": 1509501067528, "trialdata": {"rt": -1, "stimulus": "<p id=\"stim\">9</p>", "key_press": -1, "trial_type": "single-stim", "trial_index": 227, "time_elapsed": 1606763, "internal_node_id": "0.0-172.0-1.0"}}, {"uniqueid": "MTK0199:3KYQYYSHYWEJI5EPNVPA1306Q0POD1", "current_trial": 228, "dateTime": 1509501068529, "trialdata": {"rt": -1, "stimulus": "<p id=\"stim\">8</p>", "key_press": -1, "trial_type": "single-stim", "trial_index": 228, "time_elapsed": 1607764, "internal_node_id": "0.0-172.0-2.0"}}, {"uniqueid": "MTK0199:3KYQYYSHYWEJI5EPNVPA1306Q0POD1", "current_trial": 229, "dateTime": 1509501069530, "trialdata": {"rt": -1, "stimulus": "<p id=\"stim\">7</p>", "key_press": -1, "trial_type": "single-stim", "trial_index": 229, "time_elapsed": 1608765, "internal_node_id": "0.0-172.0-3.0"}}, {"uniqueid": "MTK0199:3KYQYYSHYWEJI5EPNVPA1306Q0POD1", "current_trial": 230, "dateTime": 1509501070531, "trialdata": {"rt": -1, "stimulus": "<p id=\"stim\">6</p>", "key_press": -1, "trial_type": "single-stim", "trial_index": 230, "time_elapsed": 1609766, "internal_node_id": "0.0-172.0-4.0"}}, {"uniqueid": "MTK0199:3KYQYYSHYWEJI5EPNVPA1306Q0POD1", "current_trial": 231, "dateTime": 1509501071532, "trialdata": {"rt": -1, "stimulus": "<p id=\"stim\">5</p>", "key_press": -1, "trial_type": "single-stim", "trial_index": 231, "time_elapsed": 1610767, "internal_node_id": "0.0-172.0-5.0"}}, {"uniqueid": "MTK0199:3KYQYYSHYWEJI5EPNVPA1306Q0POD1", "current_trial": 232, "dateTime": 1509501072532, "trialdata": {"rt": -1, "stimulus": "<p id=\"stim\">4</p>", "key_press": -1, "trial_type": "single-stim", "trial_index": 232, "time_elapsed": 1611767, "internal_node_id": "0.0-172.0-6.0"}}, {"uniqueid": "MTK0199:3KYQYYSHYWEJI5EPNVPA1306Q0POD1", "current_trial": 233, "dateTime": 1509501073532, "trialdata": {"rt": -1, "stimulus": "<p id=\"stim\">3</p>", "key_press": -1, "trial_type": "single-stim", "trial_index": 233, "time_elapsed": 1612767, "internal_node_id": "0.0-172.0-7.0"}}, {"uniqueid": "MTK0199:3KYQYYSHYWEJI5EPNVPA1306Q0POD1", "current_trial": 234, "dateTime": 1509501074532, "trialdata": {"rt": -1, "stimulus": "<p id=\"stim\">2</p>", "key_press": -1, "trial_type": "single-stim", "trial_index": 234, "time_elapsed": 1613767, "internal_node_id": "0.0-172.0-8.0"}}, {"uniqueid": "MTK0199:3KYQYYSHYWEJI5EPNVPA1306Q0POD1", "current_trial": 235, "dateTime": 1509501075532, "trialdata": {"rt": -1, "stimulus": "<p id=\"stim\">1</p>", "key_press": -1, "trial_type": "single-stim", "trial_index": 235, "time_elapsed": 1614767, "internal_node_id": "0.0-172.0-9.0"}}, {"uniqueid": "MTK0199:3KYQYYSHYWEJI5EPNVPA1306Q0POD1", "current_trial": 236, "dateTime": 1509501077032, "trialdata": {"rt": -1, "stimulus": "<p id=\"stim\">+</p>", "key_press": -1, "type": "FIXATION", "trial_type": "single-stim", "trial_index": 236, "time_elapsed": 1616267, "internal_node_id": "0.0-173.0-0.0"}}, {"uniqueid": "MTK0199:3KYQYYSHYWEJI5EPNVPA1306Q0POD1", "current_trial": 237, "dateTime": 1509501078876, "trialdata": {"rt": -1000, "stimulus": "/static/audio/wordpool/RIVER.wav", "key_press": -1, "type": "PRES_AUD", "word": "river", "wordID": 1193, "conditions": [12, 800, "a", 12000], "trial": 6, "serialpos": 0, "trial_type": "single-audio", "trial_index": 237, "time_elapsed": 1618111, "internal_node_id": "0.0-174.0"}}, {"uniqueid": "MTK0199:3KYQYYSHYWEJI5EPNVPA1306Q0POD1", "current_trial": 238, "dateTime": 1509501080704, "trialdata": {"rt": -1000, "stimulus": "/static/audio/wordpool/STUDENT.wav", "key_press": -1, "type": "PRES_AUD", "word": "student", "wordID": 1394, "conditions": [12, 800, "a", 12000], "trial": 6, "serialpos": 1, "trial_type": "single-audio", "trial_index": 238, "time_elapsed": 1619939, "internal_node_id": "0.0-175.0"}}, {"uniqueid": "MTK0199:3KYQYYSHYWEJI5EPNVPA1306Q0POD1", "current_trial": 239, "dateTime": 1509501082530, "trialdata": {"rt": -1000, "stimulus": "/static/audio/wordpool/PUPPY.wav", "key_press": -1, "type": "PRES_AUD", "word": "puppy", "wordID": 1143, "conditions": [12, 800, "a", 12000], "trial": 6, "serialpos": 2, "trial_type": "single-audio", "trial_index": 239, "time_elapsed": 1621765, "internal_node_id": "0.0-176.0"}}, {"uniqueid": "MTK0199:3KYQYYSHYWEJI5EPNVPA1306Q0POD1", "current_trial": 240, "dateTime": 1509501084500, "trialdata": {"rt": -1000, "stimulus": "/static/audio/wordpool/GLOBE.wav", "key_press": -1, "type": "PRES_AUD", "word": "globe", "wordID": 640, "conditions": [12, 800, "a", 12000], "trial": 6, "serialpos": 3, "trial_type": "single-audio", "trial_index": 240, "time_elapsed": 1623735, "internal_node_id": "0.0-177.0"}}, {"uniqueid": "MTK0199:3KYQYYSHYWEJI5EPNVPA1306Q0POD1", "current_trial": 241, "dateTime": 1509501086449, "trialdata": {"rt": -1000, "stimulus": "/static/audio/wordpool/ROBIN.wav", "key_press": -1, "type": "PRES_AUD", "word": "robin", "wordID": 1198, "conditions": [12, 800, "a", 12000], "trial": 6, "serialpos": 4, "trial_type": "single-audio", "trial_index": 241, "time_elapsed": 1625684, "internal_node_id": "0.0-178.0"}}, {"uniqueid": "MTK0199:3KYQYYSHYWEJI5EPNVPA1306Q0POD1", "current_trial": 242, "dateTime": 1509501088188, "trialdata": {"rt": -1000, "stimulus": "/static/audio/wordpool/FRECKLE.wav", "key_press": -1, "type": "PRES_AUD", "word": "freckle", "wordID": 601, "conditions": [12, 800, "a", 12000], "trial": 6, "serialpos": 5, "trial_type": "single-audio", "trial_index": 242, "time_elapsed": 1627423, "internal_node_id": "0.0-179.0"}}, {"uniqueid": "MTK0199:3KYQYYSHYWEJI5EPNVPA1306Q0POD1", "current_trial": 243, "dateTime": 1509501090042, "trialdata": {"rt": -1000, "stimulus": "/static/audio/wordpool/ROD.wav", "key_press": -1, "type": "PRES_AUD", "word": "rod", "wordID": 1202, "conditions": [12, 800, "a", 12000], "trial": 6, "serialpos": 6, "trial_type": "single-audio", "trial_index": 243, "time_elapsed": 1629277, "internal_node_id": "0.0-180.0"}}, {"uniqueid": "MTK0199:3KYQYYSHYWEJI5EPNVPA1306Q0POD1", "current_trial": 244, "dateTime": 1509501091941, "trialdata": {"rt": -1000, "stimulus": "/static/audio/wordpool/DOUGHNUT.wav", "key_press": -1, "type": "PRES_AUD", "word": "doughnut", "wordID": 489, "conditions": [12, 800, "a", 12000], "trial": 6, "serialpos": 7, "trial_type": "single-audio", "trial_index": 244, "time_elapsed": 1631176, "internal_node_id": "0.0-181.0"}}, {"uniqueid": "MTK0199:3KYQYYSHYWEJI5EPNVPA1306Q0POD1", "current_trial": 245, "dateTime": 1509501093611, "trialdata": {"rt": -1000, "stimulus": "/static/audio/wordpool/SANDWICH.wav", "key_press": -1, "type": "PRES_AUD", "word": "sandwich", "wordID": 1231, "conditions": [12, 800, "a", 12000], "trial": 6, "serialpos": 8, "trial_type": "single-audio", "trial_index": 245, "time_elapsed": 1632846, "internal_node_id": "0.0-182.0"}}, {"uniqueid": "MTK0199:3KYQYYSHYWEJI5EPNVPA1306Q0POD1", "current_trial": 246, "dateTime": 1509501095440, "trialdata": {"rt": -1000, "stimulus": "/static/audio/wordpool/APRON.wav", "key_press": -1, "type": "PRES_AUD", "word": "apron", "wordID": 34, "conditions": [12, 800, "a", 12000], "trial": 6, "serialpos": 9, "trial_type": "single-audio", "trial_index": 246, "time_elapsed": 1634675, "internal_node_id": "0.0-183.0"}}, {"uniqueid": "MTK0199:3KYQYYSHYWEJI5EPNVPA1306Q0POD1", "current_trial": 247, "dateTime": 1509501097196, "trialdata": {"rt": -1000, "stimulus": "/static/audio/wordpool/LAKE.wav", "key_press": -1, "type": "PRES_AUD", "word": "lake", "wordID": 795, "conditions": [12, 800, "a", 12000], "trial": 6, "serialpos": 10, "trial_type": "single-audio", "trial_index": 247, "time_elapsed": 1636431, "internal_node_id": "0.0-184.0"}}, {"uniqueid": "MTK0199:3KYQYYSHYWEJI5EPNVPA1306Q0POD1", "current_trial": 248, "dateTime": 1509501099025, "trialdata": {"rt": -1000, "stimulus": "/static/audio/wordpool/CROWN.wav", "key_press": -1, "type": "PRES_AUD", "word": "crown", "wordID": 414, "conditions": [12, 800, "a", 12000], "trial": 6, "serialpos": 11, "trial_type": "single-audio", "trial_index": 248, "time_elapsed": 1638260, "internal_node_id": "0.0-185.0"}}, {"uniqueid": "MTK0199:3KYQYYSHYWEJI5EPNVPA1306Q0POD1", "current_trial": 249, "dateTime": 1509501100371, "trialdata": {"rt": -1, "stimulus": "", "key_press": -1, "type": "PRE_RECALL_DELAY", "trial_type": "single-stim", "trial_index": 249, "time_elapsed": 1639606, "internal_node_id": "0.0-186.0-0.0"}}, {"uniqueid": "MTK0199:3KYQYYSHYWEJI5EPNVPA1306Q0POD1", "current_trial": 250, "dateTime": 1509501100872, "trialdata": {"rt": -1000, "stimulus": "/static/audio/400Hz.wav", "key_press": -1, "type": "PRE_RECALL_ALERT", "trial_type": "single-audio", "trial_index": 250, "time_elapsed": 1640107, "internal_node_id": "0.0-187.0"}}, {"uniqueid": "MTK0199:3KYQYYSHYWEJI5EPNVPA1306Q0POD1", "current_trial": 251, "dateTime": 1509501160881, "trialdata": {"rt": [2531, 4723, 7403, 8627, 11171, 14939, 52813], "recwords": ["river", "student", "sandwich", "lake", "crown", "apron", "crown"], "type": "FREE_RECALL", "conditions": [12, 800, "a", 12000], "trial": 6, "trial_type": "free-recall", "trial_index": 251, "time_elapsed": 1700111, "internal_node_id": "0.0-188.0-0.0"}}, {"uniqueid": "MTK0199:3KYQYYSHYWEJI5EPNVPA1306Q0POD1", "current_trial": 252, "dateTime": 1509501163803, "trialdata": {"rt": 919, "key_press": 13, "type": "INSTRUCTIONS", "trial_type": "text", "trial_index": 252, "time_elapsed": 1703036, "internal_node_id": "0.0-189.0"}}, {"uniqueid": "MTK0199:3KYQYYSHYWEJI5EPNVPA1306Q0POD1", "current_trial": 253, "dateTime": 1509501177806, "trialdata": {"rt": [5658, 7818, 11267], "responses": ["13", "14", "9"], "num1": [4, 2, 4, 2], "num2": [1, 8, 3, 7], "num3": [8, 4, 2, 8], "type": "DISTRACTOR", "conditions": [12, 1600, "a", 12000], "trial": 7, "trial_type": "math-distractor", "trial_index": 253, "time_elapsed": 1717040, "internal_node_id": "0.0-190.0"}}, {"uniqueid": "MTK0199:3KYQYYSHYWEJI5EPNVPA1306Q0POD1", "current_trial": 254, "dateTime": 1509501180808, "trialdata": {"rt": -1, "stimulus": "<p id=\"stim\">10</p>", "key_press": -1, "trial_type": "single-stim", "trial_index": 254, "time_elapsed": 1720043, "internal_node_id": "0.0-191.0-0.0"}}, {"uniqueid": "MTK0199:3KYQYYSHYWEJI5EPNVPA1306Q0POD1", "current_trial": 255, "dateTime": 1509501181809, "trialdata": {"rt": -1, "stimulus": "<p id=\"stim\">9</p>", "key_press": -1, "trial_type": "single-stim", "trial_index": 255, "time_elapsed": 1721044, "internal_node_id": "0.0-191.0-1.0"}}, {"uniqueid": "MTK0199:3KYQYYSHYWEJI5EPNVPA1306Q0POD1", "current_trial": 256, "dateTime": 1509501182810, "trialdata": {"rt": -1, "stimulus": "<p id=\"stim\">8</p>", "key_press": -1, "trial_type": "single-stim", "trial_index": 256, "time_elapsed": 1722045, "internal_node_id": "0.0-191.0-2.0"}}, {"uniqueid": "MTK0199:3KYQYYSHYWEJI5EPNVPA1306Q0POD1", "current_trial": 257, "dateTime": 1509501183811, "trialdata": {"rt": -1, "stimulus": "<p id=\"stim\">7</p>", "key_press": -1, "trial_type": "single-stim", "trial_index": 257, "time_elapsed": 1723046, "internal_node_id": "0.0-191.0-3.0"}}, {"uniqueid": "MTK0199:3KYQYYSHYWEJI5EPNVPA1306Q0POD1", "current_trial": 258, "dateTime": 1509501184812, "trialdata": {"rt": -1, "stimulus": "<p id=\"stim\">6</p>", "key_press": -1, "trial_type": "single-stim", "trial_index": 258, "time_elapsed": 1724047, "internal_node_id": "0.0-191.0-4.0"}}, {"uniqueid": "MTK0199:3KYQYYSHYWEJI5EPNVPA1306Q0POD1", "current_trial": 259, "dateTime": 1509501185813, "trialdata": {"rt": -1, "stimulus": "<p id=\"stim\">5</p>", "key_press": -1, "trial_type": "single-stim", "trial_index": 259, "time_elapsed": 1725048, "internal_node_id": "0.0-191.0-5.0"}}, {"uniqueid": "MTK0199:3KYQYYSHYWEJI5EPNVPA1306Q0POD1", "current_trial": 260, "dateTime": 1509501186814, "trialdata": {"rt": -1, "stimulus": "<p id=\"stim\">4</p>", "key_press": -1, "trial_type": "single-stim", "trial_index": 260, "time_elapsed": 1726049, "internal_node_id": "0.0-191.0-6.0"}}, {"uniqueid": "MTK0199:3KYQYYSHYWEJI5EPNVPA1306Q0POD1", "current_trial": 261, "dateTime": 1509501187815, "trialdata": {"rt": -1, "stimulus": "<p id=\"stim\">3</p>", "key_press": -1, "trial_type": "single-stim", "trial_index": 261, "time_elapsed": 1727050, "internal_node_id": "0.0-191.0-7.0"}}, {"uniqueid": "MTK0199:3KYQYYSHYWEJI5EPNVPA1306Q0POD1", "current_trial": 262, "dateTime": 1509501188816, "trialdata": {"rt": -1, "stimulus": "<p id=\"stim\">2</p>", "key_press": -1, "trial_type": "single-stim", "trial_index": 262, "time_elapsed": 1728051, "internal_node_id": "0.0-191.0-8.0"}}, {"uniqueid": "MTK0199:3KYQYYSHYWEJI5EPNVPA1306Q0POD1", "current_trial": 263, "dateTime": 1509501189816, "trialdata": {"rt": -1, "stimulus": "<p id=\"stim\">1</p>", "key_press": -1, "trial_type": "single-stim", "trial_index": 263, "time_elapsed": 1729051, "internal_node_id": "0.0-191.0-9.0"}}, {"uniqueid": "MTK0199:3KYQYYSHYWEJI5EPNVPA1306Q0POD1", "current_trial": 264, "dateTime": 1509501191318, "trialdata": {"rt": -1, "stimulus": "<p id=\"stim\">+</p>", "key_press": -1, "type": "FIXATION", "trial_type": "single-stim", "trial_index": 264, "time_elapsed": 1730553, "internal_node_id": "0.0-192.0-0.0"}}, {"uniqueid": "MTK0199:3KYQYYSHYWEJI5EPNVPA1306Q0POD1", "current_trial": 265, "dateTime": 1509501193847, "trialdata": {"rt": -1000, "stimulus": "/static/audio/wordpool/ONION.wav", "key_press": -1, "type": "PRES_AUD", "word": "onion", "wordID": 976, "conditions": [12, 1600, "a", 12000], "trial": 7, "serialpos": 0, "trial_type": "single-audio", "trial_index": 265, "time_elapsed": 1733082, "internal_node_id": "0.0-193.0"}}, {"uniqueid": "MTK0199:3KYQYYSHYWEJI5EPNVPA1306Q0POD1", "current_trial": 266, "dateTime": 1509501196492, "trialdata": {"rt": -1000, "stimulus": "/static/audio/wordpool/COUNTRY.wav", "key_press": -1, "type": "PRES_AUD", "word": "country", "wordID": 387, "conditions": [12, 1600, "a", 12000], "trial": 7, "serialpos": 1, "trial_type": "single-audio", "trial_index": 266, "time_elapsed": 1735727, "internal_node_id": "0.0-194.0"}}, {"uniqueid": "MTK0199:3KYQYYSHYWEJI5EPNVPA1306Q0POD1", "current_trial": 267, "dateTime": 1509501198991, "trialdata": {"rt": -1000, "stimulus": "/static/audio/wordpool/BABY.wav", "key_press": -1, "type": "PRES_AUD", "word": "baby", "wordID": 63, "conditions": [12, 1600, "a", 12000], "trial": 7, "serialpos": 2, "trial_type": "single-audio", "trial_index": 267, "time_elapsed": 1738226, "internal_node_id": "0.0-195.0"}}, {"uniqueid": "MTK0199:3KYQYYSHYWEJI5EPNVPA1306Q0POD1", "current_trial": 268, "dateTime": 1509501201536, "trialdata": {"rt": -1000, "stimulus": "/static/audio/wordpool/IGLOO.wav", "key_press": -1, "type": "PRES_AUD", "word": "igloo", "wordID": 733, "conditions": [12, 1600, "a", 12000], "trial": 7, "serialpos": 3, "trial_type": "single-audio", "trial_index": 268, "time_elapsed": 1740771, "internal_node_id": "0.0-196.0"}}, {"uniqueid": "MTK0199:3KYQYYSHYWEJI5EPNVPA1306Q0POD1", "current_trial": 269, "dateTime": 1509501204276, "trialdata": {"rt": -1000, "stimulus": "/static/audio/wordpool/RUST.wav", "key_press": -1, "type": "PRES_AUD", "word": "rust", "wordID": 1218, "conditions": [12, 1600, "a", 12000], "trial": 7, "serialpos": 4, "trial_type": "single-audio", "trial_index": 269, "time_elapsed": 1743511, "internal_node_id": "0.0-197.0"}}, {"uniqueid": "MTK0199:3KYQYYSHYWEJI5EPNVPA1306Q0POD1", "current_trial": 270, "dateTime": 1509501206756, "trialdata": {"rt": -1000, "stimulus": "/static/audio/wordpool/SUNSET.wav", "key_press": -1, "type": "PRES_AUD", "word": "sunset", "wordID": 1407, "conditions": [12, 1600, "a", 12000], "trial": 7, "serialpos": 5, "trial_type": "single-audio", "trial_index": 270, "time_elapsed": 1745991, "internal_node_id": "0.0-198.0"}}, {"uniqueid": "MTK0199:3KYQYYSHYWEJI5EPNVPA1306Q0POD1", "current_trial": 271, "dateTime": 1509501209278, "trialdata": {"rt": -1000, "stimulus": "/static/audio/wordpool/SUNRISE.wav", "key_press": -1, "type": "PRES_AUD", "word": "sunrise", "wordID": 1406, "conditions": [12, 1600, "a", 12000], "trial": 7, "serialpos": 6, "trial_type": "single-audio", "trial_index": 271, "time_elapsed": 1748513, "internal_node_id": "0.0-199.0"}}, {"uniqueid": "MTK0199:3KYQYYSHYWEJI5EPNVPA1306Q0POD1", "current_trial": 272, "dateTime": 1509501211990, "trialdata": {"rt": -1000, "stimulus": "/static/audio/wordpool/OYSTER.wav", "key_press": -1, "type": "PRES_AUD", "word": "oyster", "wordID": 994, "conditions": [12, 1600, "a", 12000], "trial": 7, "serialpos": 7, "trial_type": "single-audio", "trial_index": 272, "time_elapsed": 1751225, "internal_node_id": "0.0-200.0"}}, {"uniqueid": "MTK0199:3KYQYYSHYWEJI5EPNVPA1306Q0POD1", "current_trial": 273, "dateTime": 1509501214758, "trialdata": {"rt": -1000, "stimulus": "/static/audio/wordpo