{"condition": 0, "counterbalance": 661, "assignmentId": "3WJEQKOXA990O64CXJ0XZ6FSG69A1X", "workerId": "MTK0962", "hitId": "33W1NHWFYHS0BEQZLSV4XLTC12QZT8", "currenttrial": 626, "bonus": 0, "data": [{"uniqueid": "MTK0962:3WJEQKOXA990O64CXJ0XZ6FSG69A1X", "current_trial": 0, "dateTime": 1512936911300, "trialdata": {"rt": 2464, "key_press": 32, "type": "INSTRUCTIONS", "trial_type": "text", "trial_index": 0, "time_elapsed": 2468, "internal_node_id": "0.0-0.0"}}, {"uniqueid": "MTK0962:3WJEQKOXA990O64CXJ0XZ6FSG69A1X", "current_trial": 1, "dateTime": 1512936938316, "trialdata": {"rt": 27011, "key_press": 175, "type": "INSTRUCTIONS", "trial_type": "text", "trial_index": 1, "time_elapsed": 29485, "internal_node_id": "0.0-1.0"}}, {"uniqueid": "MTK0962:3WJEQKOXA990O64CXJ0XZ6FSG69A1X", "current_trial": 2, "dateTime": 1512936953026, "trialdata": {"rt": [14685], "responses": ["ocean"], "type": "AUDIO_TEST", "trial_type": "audio-test", "trial_index": 2, "time_elapsed": 44195, "internal_node_id": "0.0-2.0"}}, {"uniqueid": "MTK0962:3WJEQKOXA990O64CXJ0XZ6FSG69A1X", "current_trial": 3, "dateTime": 1512936958519, "trialdata": {"rt": [5485], "responses": ["crystal"], "type": "AUDIO_TEST", "trial_type": "audio-test", "trial_index": 3, "time_elapsed": 49688, "internal_node_id": "0.0-3.0"}}, {"uniqueid": "MTK0962:3WJEQKOXA990O64CXJ0XZ6FSG69A1X", "current_trial": 4, "dateTime": 1512936970992, "trialdata": {"rt": [12470], "responses": ["spice"], "type": "AUDIO_TEST", "trial_type": "audio-test", "trial_index": 4, "time_elapsed": 62161, "internal_node_id": "0.0-4.0"}}, {"uniqueid": "MTK0962:3WJEQKOXA990O64CXJ0XZ6FSG69A1X", "current_trial": 5, "dateTime": 1512936993058, "trialdata": {"rt": 21311, "responses": "{\"Q0\":\"12am\",\"Q1\":\"9am\",\"Q2\":\"5\"}", "type": "SLEEP_SURVEY", "trial_type": "survey-text", "trial_index": 5, "time_elapsed": 84226, "internal_node_id": "0.0-5.0"}}, {"uniqueid": "MTK0962:3WJEQKOXA990O64CXJ0XZ6FSG69A1X", "current_trial": 6, "dateTime": 1512937006290, "trialdata": {"rt": 12230, "key_press": 32, "type": "INSTRUCTIONS", "trial_type": "text", "trial_index": 6, "time_elapsed": 97459, "internal_node_id": "0.0-6.0"}}, {"uniqueid": "MTK0962:3WJEQKOXA990O64CXJ0XZ6FSG69A1X", "current_trial": 7, "dateTime": 1512937010403, "trialdata": {"rt": 3609, "key_press": 32, "type": "INSTRUCTIONS", "trial_type": "text", "trial_index": 7, "time_elapsed": 101571, "internal_node_id": "0.0-7.0"}}, {"uniqueid": "MTK0962:3WJEQKOXA990O64CXJ0XZ6FSG69A1X", "current_trial": 8, "dateTime": 1512937012712, "trialdata": {"rt": 1807, "key_press": 32, "type": "INSTRUCTIONS", "trial_type": "text", "trial_index": 8, "time_elapsed": 103881, "internal_node_id": "0.0-8.0"}}, {"uniqueid": "MTK0962:3WJEQKOXA990O64CXJ0XZ6FSG69A1X", "current_trial": 9, "dateTime": 1512937031722, "trialdata": {"rt": [3255, 5663, 8030, 10942, 15062, 17943], "responses": ["17", "18", "18", "15", "21", "16"], "num1": [8, 7, 3, 5, 5, 6, 8], "num2": [3, 8, 9, 3, 7, 9, 2], "num3": [7, 3, 6, 7, 9, 1, 1], "type": "DISTRACTOR", "conditions": [18, 1200, "a", 18000], "trial": 0, "trial_type": "math-distractor", "trial_index": 9, "time_elapsed": 122891, "internal_node_id": "0.0-9.0"}}, {"uniqueid": "MTK0962:3WJEQKOXA990O64CXJ0XZ6FSG69A1X", "current_trial": 10, "dateTime": 1512937034726, "trialdata": {"rt": -1, "stimulus": "<p id=\"stim\">10</p>", "key_press": -1, "trial_type": "single-stim", "trial_index": 10, "time_elapsed": 125895, "internal_node_id": "0.0-10.0-0.0"}}, {"uniqueid": "MTK0962:3WJEQKOXA990O64CXJ0XZ6FSG69A1X", "current_trial": 11, "dateTime": 1512937035727, "trialdata": {"rt": -1, "stimulus": "<p id=\"stim\">9</p>", "key_press": -1, "trial_type": "single-stim", "trial_index": 11, "time_elapsed": 126896, "internal_node_id": "0.0-10.0-1.0"}}, {"uniqueid": "MTK0962:3WJEQKOXA990O64CXJ0XZ6FSG69A1X", "current_trial": 12, "dateTime": 1512937036729, "trialdata": {"rt": -1, "stimulus": "<p id=\"stim\">8</p>", "key_press": -1, "trial_type": "single-stim", "trial_index": 12, "time_elapsed": 127898, "internal_node_id": "0.0-10.0-2.0"}}, {"uniqueid": "MTK0962:3WJEQKOXA990O64CXJ0XZ6FSG69A1X", "current_trial": 13, "dateTime": 1512937037731, "trialdata": {"rt": -1, "stimulus": "<p id=\"stim\">7</p>", "key_press": -1, "trial_type": "single-stim", "trial_index": 13, "time_elapsed": 128900, "internal_node_id": "0.0-10.0-3.0"}}, {"uniqueid": "MTK0962:3WJEQKOXA990O64CXJ0XZ6FSG69A1X", "current_trial": 14, "dateTime": 1512937038732, "trialdata": {"rt": -1, "stimulus": "<p id=\"stim\">6</p>", "key_press": -1, "trial_type": "single-stim", "trial_index": 14, "time_elapsed": 129901, "internal_node_id": "0.0-10.0-4.0"}}, {"uniqueid": "MTK0962:3WJEQKOXA990O64CXJ0XZ6FSG69A1X", "current_trial": 15, "dateTime": 1512937039735, "trialdata": {"rt": -1, "stimulus": "<p id=\"stim\">5</p>", "key_press": -1, "trial_type": "single-stim", "trial_index": 15, "time_elapsed": 130904, "internal_node_id": "0.0-10.0-5.0"}}, {"uniqueid": "MTK0962:3WJEQKOXA990O64CXJ0XZ6FSG69A1X", "current_trial": 16, "dateTime": 1512937040736, "trialdata": {"rt": -1, "stimulus": "<p id=\"stim\">4</p>", "key_press": -1, "trial_type": "single-stim", "trial_index": 16, "time_elapsed": 131905, "internal_node_id": "0.0-10.0-6.0"}}, {"uniqueid": "MTK0962:3WJEQKOXA990O64CXJ0XZ6FSG69A1X", "current_trial": 17, "dateTime": 1512937041739, "trialdata": {"rt": -1, "stimulus": "<p id=\"stim\">3</p>", "key_press": -1, "trial_type": "single-stim", "trial_index": 17, "time_elapsed": 132908, "internal_node_id": "0.0-10.0-7.0"}}, {"uniqueid": "MTK0962:3WJEQKOXA990O64CXJ0XZ6FSG69A1X", "current_trial": 18, "dateTime": 1512937042742, "trialdata": {"rt": -1, "stimulus": "<p id=\"stim\">2</p>", "key_press": -1, "trial_type": "single-stim", "trial_index": 18, "time_elapsed": 133910, "internal_node_id": "0.0-10.0-8.0"}}, {"uniqueid": "MTK0962:3WJEQKOXA990O64CXJ0XZ6FSG69A1X", "current_trial": 19, "dateTime": 1512937043744, "trialdata": {"rt": -1, "stimulus": "<p id=\"stim\">1</p>", "key_press": -1, "trial_type": "single-stim", "trial_index": 19, "time_elapsed": 134912, "internal_node_id": "0.0-10.0-9.0"}}, {"uniqueid": "MTK0962:3WJEQKOXA990O64CXJ0XZ6FSG69A1X", "current_trial": 20, "dateTime": 1512937045271, "trialdata": {"rt": -1, "stimulus": "<p id=\"stim\">+</p>", "key_press": -1, "type": "FIXATION", "trial_type": "single-stim", "trial_index": 20, "time_elapsed": 136440, "internal_node_id": "0.0-11.0-0.0"}}, {"uniqueid": "MTK0962:3WJEQKOXA990O64CXJ0XZ6FSG69A1X", "current_trial": 21, "dateTime": 1512937047351, "trialdata": {"rt": 1464.4444444444673, "stimulus": "/static/audio/wordpool/SCRIBBLE.wav", "key_press": 83, "type": "PRES_AUD", "word": "scribble", "wordID": 1255, "conditions": [18, 1200, "a", 18000], "trial": 0, "serialpos": 0, "trial_type": "single-audio", "trial_index": 21, "time_elapsed": 138520, "internal_node_id": "0.0-12.0"}}, {"uniqueid": "MTK0962:3WJEQKOXA990O64CXJ0XZ6FSG69A1X", "current_trial": 22, "dateTime": 1512937049718, "trialdata": {"rt": 1.5873015873069107, "stimulus": "/static/audio/wordpool/ACTRESS.wav", "key_press": 82, "type": "PRES_AUD", "word": "actress", "wordID": 5, "conditions": [18, 1200, "a", 18000], "trial": 0, "serialpos": 1, "trial_type": "single-audio", "trial_index": 22, "time_elapsed": 140887, "internal_node_id": "0.0-13.0"}}, {"uniqueid": "MTK0962:3WJEQKOXA990O64CXJ0XZ6FSG69A1X", "current_trial": 23, "dateTime": 1512937052038, "trialdata": {"rt": -1000, "stimulus": "/static/audio/wordpool/QUEEN.wav", "key_press": -1, "type": "PRES_AUD", "word": "queen", "wordID": 1148, "conditions": [18, 1200, "a", 18000], "trial": 0, "serialpos": 2, "trial_type": "single-audio", "trial_index": 23, "time_elapsed": 143207, "internal_node_id": "0.0-14.0"}}, {"uniqueid": "MTK0962:3WJEQKOXA990O64CXJ0XZ6FSG69A1X", "current_trial": 24, "dateTime": 1512937054404, "trialdata": {"rt": -1000, "stimulus": "/static/audio/wordpool/CURTAIN.wav", "key_press": -1, "type": "PRES_AUD", "word": "curtain", "wordID": 426, "conditions": [18, 1200, "a", 18000], "trial": 0, "serialpos": 3, "trial_type": "single-audio", "trial_index": 24, "time_elapsed": 145573, "internal_node_id": "0.0-15.0"}}, {"uniqueid": "MTK0962:3WJEQKOXA990O64CXJ0XZ6FSG69A1X", "current_trial": 25, "dateTime": 1512937056657, "trialdata": {"rt": -1000, "stimulus": "/static/audio/wordpool/BALLOON.wav", "key_press": -1, "type": "PRES_AUD", "word": "balloon", "wordID": 74, "conditions": [18, 1200, "a", 18000], "trial": 0, "serialpos": 4, "trial_type": "single-audio", "trial_index": 25, "time_elapsed": 147826, "internal_node_id": "0.0-16.0"}}, {"uniqueid": "MTK0962:3WJEQKOXA990O64CXJ0XZ6FSG69A1X", "current_trial": 26, "dateTime": 1512937058807, "trialdata": {"rt": -1000, "stimulus": "/static/audio/wordpool/MISSILE.wav", "key_press": -1, "type": "PRES_AUD", "word": "missile", "wordID": 899, "conditions": [18, 1200, "a", 18000], "trial": 0, "serialpos": 5, "trial_type": "single-audio", "trial_index": 26, "time_elapsed": 149976, "internal_node_id": "0.0-17.0"}}, {"uniqueid": "MTK0962:3WJEQKOXA990O64CXJ0XZ6FSG69A1X", "current_trial": 27, "dateTime": 1512937061050, "trialdata": {"rt": -1000, "stimulus": "/static/audio/wordpool/TUBA.wav", "key_press": -1, "type": "PRES_AUD", "word": "tuba", "wordID": 1514, "conditions": [18, 1200, "a", 18000], "trial": 0, "serialpos": 6, "trial_type": "single-audio", "trial_index": 27, "time_elapsed": 152219, "internal_node_id": "0.0-18.0"}}, {"uniqueid": "MTK0962:3WJEQKOXA990O64CXJ0XZ6FSG69A1X", "current_trial": 28, "dateTime": 1512937063380, "trialdata": {"rt": -1000, "stimulus": "/static/audio/wordpool/DRUG.wav", "key_press": -1, "type": "PRES_AUD", "word": "drug", "wordID": 500, "conditions": [18, 1200, "a", 18000], "trial": 0, "serialpos": 7, "trial_type": "single-audio", "trial_index": 28, "time_elapsed": 154549, "internal_node_id": "0.0-19.0"}}, {"uniqueid": "MTK0962:3WJEQKOXA990O64CXJ0XZ6FSG69A1X", "current_trial": 29, "dateTime": 1512937065736, "trialdata": {"rt": -1000, "stimulus": "/static/audio/wordpool/GALLON.wav", "key_press": -1, "type": "PRES_AUD", "word": "gallon", "wordID": 617, "conditions": [18, 1200, "a", 18000], "trial": 0, "serialpos": 8, "trial_type": "single-audio", "trial_index": 29, "time_elapsed": 156905, "internal_node_id": "0.0-20.0"}}, {"uniqueid": "MTK0962:3WJEQKOXA990O64CXJ0XZ6FSG69A1X", "current_trial": 30, "dateTime": 1512937067952, "trialdata": {"rt": -1000, "stimulus": "/static/audio/wordpool/UNCLE.wav", "key_press": -1, "type": "PRES_AUD", "word": "uncle", "wordID": 1535, "conditions": [18, 1200, "a", 18000], "trial": 0, "serialpos": 9, "trial_type": "single-audio", "trial_index": 30, "time_elapsed": 159121, "internal_node_id": "0.0-21.0"}}, {"uniqueid": "MTK0962:3WJEQKOXA990O64CXJ0XZ6FSG69A1X", "current_trial": 31, "dateTime": 1512937070295, "trialdata": {"rt": -1000, "stimulus": "/static/audio/wordpool/SCARF.wav", "key_press": -1, "type": "PRES_AUD", "word": "scarf", "wordID": 1245, "conditions": [18, 1200, "a", 18000], "trial": 0, "serialpos": 10, "trial_type": "single-audio", "trial_index": 31, "time_elapsed": 161463, "internal_node_id": "0.0-22.0"}}, {"uniqueid": "MTK0962:3WJEQKOXA990O64CXJ0XZ6FSG69A1X", "current_trial": 32, "dateTime": 1512937072529, "trialdata": {"rt": -1000, "stimulus": "/static/audio/wordpool/TILE.wav", "key_press": -1, "type": "PRES_AUD", "word": "tile", "wordID": 1467, "conditions": [18, 1200, "a", 18000], "trial": 0, "serialpos": 11, "trial_type": "single-audio", "trial_index": 32, "time_elapsed": 163698, "internal_node_id": "0.0-23.0"}}, {"uniqueid": "MTK0962:3WJEQKOXA990O64CXJ0XZ6FSG69A1X", "current_trial": 33, "dateTime": 1512937074740, "trialdata": {"rt": -1000, "stimulus": "/static/audio/wordpool/POISON.wav", "key_press": -1, "type": "PRES_AUD", "word": "poison", "wordID": 1095, "conditions": [18, 1200, "a", 18000], "trial": 0, "serialpos": 12, "trial_type": "single-audio", "trial_index": 33, "time_elapsed": 165909, "internal_node_id": "0.0-24.0"}}, {"uniqueid": "MTK0962:3WJEQKOXA990O64CXJ0XZ6FSG69A1X", "current_trial": 34, "dateTime": 1512937076765, "trialdata": {"rt": -1000, "stimulus": "/static/audio/wordpool/ZEBRA.wav", "key_press": -1, "type": "PRES_AUD", "word": "zebra", "wordID": 1634, "conditions": [18, 1200, "a", 18000], "trial": 0, "serialpos": 13, "trial_type": "single-audio", "trial_index": 34, "time_elapsed": 167933, "internal_node_id": "0.0-25.0"}}, {"uniqueid": "MTK0962:3WJEQKOXA990O64CXJ0XZ6FSG69A1X", "current_trial": 35, "dateTime": 1512937078944, "trialdata": {"rt": -1000, "stimulus": "/static/audio/wordpool/AIRPLANE.wav", "key_press": -1, "type": "PRES_AUD", "word": "airplane", "wordID": 11, "conditions": [18, 1200, "a", 18000], "trial": 0, "serialpos": 14, "trial_type": "single-audio", "trial_index": 35, "time_elapsed": 170113, "internal_node_id": "0.0-26.0"}}, {"uniqueid": "MTK0962:3WJEQKOXA990O64CXJ0XZ6FSG69A1X", "current_trial": 36, "dateTime": 1512937081026, "trialdata": {"rt": -1000, "stimulus": "/static/audio/wordpool/PIMPLE.wav", "key_press": -1, "type": "PRES_AUD", "word": "pimple", "wordID": 1070, "conditions": [18, 1200, "a", 18000], "trial": 0, "serialpos": 15, "trial_type": "single-audio", "trial_index": 36, "time_elapsed": 172195, "internal_node_id": "0.0-27.0"}}, {"uniqueid": "MTK0962:3WJEQKOXA990O64CXJ0XZ6FSG69A1X", "current_trial": 37, "dateTime": 1512937083221, "trialdata": {"rt": -1000, "stimulus": "/static/audio/wordpool/FIREMAN.wav", "key_press": -1, "type": "PRES_AUD", "word": "fireman", "wordID": 568, "conditions": [18, 1200, "a", 18000], "trial": 0, "serialpos": 16, "trial_type": "single-audio", "trial_index": 37, "time_elapsed": 174390, "internal_node_id": "0.0-28.0"}}, {"uniqueid": "MTK0962:3WJEQKOXA990O64CXJ0XZ6FSG69A1X", "current_trial": 38, "dateTime": 1512937085266, "trialdata": {"rt": -1000, "stimulus": "/static/audio/wordpool/HAMPER.wav", "key_press": -1, "type": "PRES_AUD", "word": "hamper", "wordID": 681, "conditions": [18, 1200, "a", 18000], "trial": 0, "serialpos": 17, "trial_type": "single-audio", "trial_index": 38, "time_elapsed": 176435, "internal_node_id": "0.0-29.0"}}, {"uniqueid": "MTK0962:3WJEQKOXA990O64CXJ0XZ6FSG69A1X", "current_trial": 39, "dateTime": 1512937086654, "trialdata": {"rt": -1, "stimulus": "", "key_press": -1, "type": "PRE_RECALL_DELAY", "trial_type": "single-stim", "trial_index": 39, "time_elapsed": 177823, "internal_node_id": "0.0-30.0-0.0"}}, {"uniqueid": "MTK0962:3WJEQKOXA990O64CXJ0XZ6FSG69A1X", "current_trial": 40, "dateTime": 1512937087156, "trialdata": {"rt": -1000, "stimulus": "/static/audio/400Hz.wav", "key_press": -1, "type": "PRE_RECALL_ALERT", "trial_type": "single-audio", "trial_index": 40, "time_elapsed": 178325, "internal_node_id": "0.0-31.0"}}, {"uniqueid": "MTK0962:3WJEQKOXA990O64CXJ0XZ6FSG69A1X", "current_trial": 41, "dateTime": 1512937147164, "trialdata": {"rt": [5247, 7895, 9776, 11666, 14383, 20296, 23823, 32008, 49423], "recwords": ["scribble", "hamper", "pimle", "fireman", "ocean", "fire", "scream", "glue", "glue"], "type": "FREE_RECALL", "conditions": [18, 1200, "a", 18000], "trial": 0, "trial_type": "free-recall", "trial_index": 41, "time_elapsed": 238328, "internal_node_id": "0.0-32.0-0.0"}}, {"uniqueid": "MTK0962:3WJEQKOXA990O64CXJ0XZ6FSG69A1X", "current_trial": 42, "dateTime": 1512937150854, "trialdata": {"rt": 1689, "key_press": 13, "type": "INSTRUCTIONS", "trial_type": "text", "trial_index": 42, "time_elapsed": 242023, "internal_node_id": "0.0-33.0"}}, {"uniqueid": "MTK0962:3WJEQKOXA990O64CXJ0XZ6FSG69A1X", "current_trial": 43, "dateTime": 1512937170859, "trialdata": {"rt": [3332, 6296, 8932, 12028, 14332, 17333], "responses": ["16", "11", "21", "16", "7", "18"], "num1": [5, 2, 7, 4, 1, 1, 6], "num2": [4, 7, 6, 5, 5, 9, 6], "num3": [7, 2, 9, 7, 1, 8, 5], "type": "DISTRACTOR", "conditions": [18, 1200, "v", 18000], "trial": 1, "trial_type": "math-distractor", "trial_index": 43, "time_elapsed": 262028, "internal_node_id": "0.0-34.0"}}, {"uniqueid": "MTK0962:3WJEQKOXA990O64CXJ0XZ6FSG69A1X", "current_trial": 44, "dateTime": 1512937173862, "trialdata": {"rt": -1, "stimulus": "<p id=\"stim\">10</p>", "key_press": -1, "trial_type": "single-stim", "trial_index": 44, "time_elapsed": 265031, "internal_node_id": "0.0-35.0-0.0"}}, {"uniqueid": "MTK0962:3WJEQKOXA990O64CXJ0XZ6FSG69A1X", "current_trial": 45, "dateTime": 1512937174864, "trialdata": {"rt": -1, "stimulus": "<p id=\"stim\">9</p>", "key_press": -1, "trial_type": "single-stim", "trial_index": 45, "time_elapsed": 266033, "internal_node_id": "0.0-35.0-1.0"}}, {"uniqueid": "MTK0962:3WJEQKOXA990O64CXJ0XZ6FSG69A1X", "current_trial": 46, "dateTime": 1512937175867, "trialdata": {"rt": -1, "stimulus": "<p id=\"stim\">8</p>", "key_press": -1, "trial_type": "single-stim", "trial_index": 46, "time_elapsed": 267035, "internal_node_id": "0.0-35.0-2.0"}}, {"uniqueid": "MTK0962:3WJEQKOXA990O64CXJ0XZ6FSG69A1X", "current_trial": 47, "dateTime": 1512937176868, "trialdata": {"rt": -1, "stimulus": "<p id=\"stim\">7</p>", "key_press": -1, "trial_type": "single-stim", "trial_index": 47, "time_elapsed": 268037, "internal_node_id": "0.0-35.0-3.0"}}, {"uniqueid": "MTK0962:3WJEQKOXA990O64CXJ0XZ6FSG69A1X", "current_trial": 48, "dateTime": 1512937177870, "trialdata": {"rt": -1, "stimulus": "<p id=\"stim\">6</p>", "key_press": -1, "trial_type": "single-stim", "trial_index": 48, "time_elapsed": 269038, "internal_node_id": "0.0-35.0-4.0"}}, {"uniqueid": "MTK0962:3WJEQKOXA990O64CXJ0XZ6FSG69A1X", "current_trial": 49, "dateTime": 1512937178871, "trialdata": {"rt": -1, "stimulus": "<p id=\"stim\">5</p>", "key_press": -1, "trial_type": "single-stim", "trial_index": 49, "time_elapsed": 270040, "internal_node_id": "0.0-35.0-5.0"}}, {"uniqueid": "MTK0962:3WJEQKOXA990O64CXJ0XZ6FSG69A1X", "current_trial": 50, "dateTime": 1512937179875, "trialdata": {"rt": -1, "stimulus": "<p id=\"stim\">4</p>", "key_press": -1, "trial_type": "single-stim", "trial_index": 50, "time_elapsed": 271044, "internal_node_id": "0.0-35.0-6.0"}}, {"uniqueid": "MTK0962:3WJEQKOXA990O64CXJ0XZ6FSG69A1X", "current_trial": 51, "dateTime": 1512937180889, "trialdata": {"rt": -1, "stimulus": "<p id=\"stim\">3</p>", "key_press": -1, "trial_type": "single-stim", "trial_index": 51, "time_elapsed": 272057, "internal_node_id": "0.0-35.0-7.0"}}, {"uniqueid": "MTK0962:3WJEQKOXA990O64CXJ0XZ6FSG69A1X", "current_trial": 52, "dateTime": 1512937181891, "trialdata": {"rt": -1, "stimulus": "<p id=\"stim\">2</p>", "key_press": -1, "trial_type": "single-stim", "trial_index": 52, "time_elapsed": 273059, "internal_node_id": "0.0-35.0-8.0"}}, {"uniqueid": "MTK0962:3WJEQKOXA990O64CXJ0XZ6FSG69A1X", "current_trial": 53, "dateTime": 1512937182893, "trialdata": {"rt": -1, "stimulus": "<p id=\"stim\">1</p>", "key_press": -1, "trial_type": "single-stim", "trial_index": 53, "time_elapsed": 274061, "internal_node_id": "0.0-35.0-9.0"}}, {"uniqueid": "MTK0962:3WJEQKOXA990O64CXJ0XZ6FSG69A1X", "current_trial": 54, "dateTime": 1512937184396, "trialdata": {"rt": -1, "stimulus": "<p id=\"stim\">+</p>", "key_press": -1, "type": "FIXATION", "trial_type": "single-stim", "trial_index": 54, "time_elapsed": 275565, "internal_node_id": "0.0-36.0-0.0"}}, {"uniqueid": "MTK0962:3WJEQKOXA990O64CXJ0XZ6FSG69A1X", "current_trial": 55, "dateTime": 1512937185598, "trialdata": {"rt": -1, "stimulus": "<p id=\"stim\">LASER</p>", "key_press": -1, "type": "PRES_VIS", "word": "laser", "wordID": 800, "conditions": [18, 1200, "v", 18000], "trial": 1, "serialpos": 0, "trial_type": "single-stim", "trial_index": 55, "time_elapsed": 276767, "internal_node_id": "0.0-37.0"}}, {"uniqueid": "MTK0962:3WJEQKOXA990O64CXJ0XZ6FSG69A1X", "current_trial": 56, "dateTime": 1512937187637, "trialdata": {"rt": -1, "stimulus": "<p id=\"stim\">STAMP</p>", "key_press": -1, "type": "PRES_VIS", "word": "stamp", "wordID": 1369, "conditions": [18, 1200, "v", 18000], "trial": 1, "serialpos": 1, "trial_type": "single-stim", "trial_index": 56, "time_elapsed": 278805, "internal_node_id": "0.0-38.0"}}, {"uniqueid": "MTK0962:3WJEQKOXA990O64CXJ0XZ6FSG69A1X", "current_trial": 57, "dateTime": 1512937189920, "trialdata": {"rt": -1, "stimulus": "<p id=\"stim\">COTTAGE</p>", "key_press": -1, "type": "PRES_VIS", "word": "cottage", "wordID": 383, "conditions": [18, 1200, "v", 18000], "trial": 1, "serialpos": 2, "trial_type": "single-stim", "trial_index": 57, "time_elapsed": 281088, "internal_node_id": "0.0-39.0"}}, {"uniqueid": "MTK0962:3WJEQKOXA990O64CXJ0XZ6FSG69A1X", "current_trial": 58, "dateTime": 1512937192006, "trialdata": {"rt": -1, "stimulus": "<p id=\"stim\">CUSTARD</p>", "key_press": -1, "type": "PRES_VIS", "word": "custard", "wordID": 428, "conditions": [18, 1200, "v", 18000], "trial": 1, "serialpos": 3, "trial_type": "single-stim", "trial_index": 58, "time_elapsed": 283174, "internal_node_id": "0.0-40.0"}}, {"uniqueid": "MTK0962:3WJEQKOXA990O64CXJ0XZ6FSG69A1X", "current_trial": 59, "dateTime": 1512937194245, "trialdata": {"rt": -1, "stimulus": "<p id=\"stim\">PEBBLE</p>", "key_press": -1, "type": "PRES_VIS", "word": "pebble", "wordID": 1034, "conditions": [18, 1200, "v", 18000], "trial": 1, "serialpos": 4, "trial_type": "single-stim", "trial_index": 59, "time_elapsed": 285413, "internal_node_id": "0.0-41.0"}}, {"uniqueid": "MTK0962:3WJEQKOXA990O64CXJ0XZ6FSG69A1X", "current_trial": 60, "dateTime": 1512937196372, "trialdata": {"rt": -1, "stimulus": "<p id=\"stim\">COCKTAIL</p>", "key_press": -1, "type": "PRES_VIS", "word": "cocktail", "wordID": 337, "conditions": [18, 1200, "v", 18000], "trial": 1, "serialpos": 5, "trial_type": "single-stim", "trial_index": 60, "time_elapsed": 287540, "internal_node_id": "0.0-42.0"}}, {"uniqueid": "MTK0962:3WJEQKOXA990O64CXJ0XZ6FSG69A1X", "current_trial": 61, "dateTime": 1512937198386, "trialdata": {"rt": -1, "stimulus": "<p id=\"stim\">CHEMIST</p>", "key_press": -1, "type": "PRES_VIS", "word": "chemist", "wordID": 291, "conditions": [18, 1200, "v", 18000], "trial": 1, "serialpos": 6, "trial_type": "single-stim", "trial_index": 61, "time_elapsed": 289555, "internal_node_id": "0.0-43.0"}}, {"uniqueid": "MTK0962:3WJEQKOXA990O64CXJ0XZ6FSG69A1X", "current_trial": 62, "dateTime": 1512937200470, "trialdata": {"rt": -1, "stimulus": "<p id=\"stim\">FOX</p>", "key_press": -1, "type": "PRES_VIS", "word": "fox", "wordID": 597, "conditions": [18, 1200, "v", 18000], "trial": 1, "serialpos": 7, "trial_type": "single-stim", "trial_index": 62, "time_elapsed": 291639, "internal_node_id": "0.0-44.0"}}, {"uniqueid": "MTK0962:3WJEQKOXA990O64CXJ0XZ6FSG69A1X", "current_trial": 63, "dateTime": 1512937202607, "trialdata": {"rt": -1, "stimulus": "<p id=\"stim\">POET</p>", "key_press": -1, "type": "PRES_VIS", "word": "poet", "wordID": 1094, "conditions": [18, 1200, "v", 18000], "trial": 1, "serialpos": 8, "trial_type": "single-stim", "trial_index": 63, "time_elapsed": 293775, "internal_node_id": "0.0-45.0"}}, {"uniqueid": "MTK0962:3WJEQKOXA990O64CXJ0XZ6FSG69A1X", "current_trial": 64, "dateTime": 1512937204634, "trialdata": {"rt": -1, "stimulus": "<p id=\"stim\">TWISTER</p>", "key_press": -1, "type": "PRES_VIS", "word": "twister", "wordID": 1529, "conditions": [18, 1200, "v", 18000], "trial": 1, "serialpos": 9, "trial_type": "single-stim", "trial_index": 64, "time_elapsed": 295803, "internal_node_id": "0.0-46.0"}}, {"uniqueid": "MTK0962:3WJEQKOXA990O64CXJ0XZ6FSG69A1X", "current_trial": 65, "dateTime": 1512937206895, "trialdata": {"rt": -1, "stimulus": "<p id=\"stim\">OUTFIT</p>", "key_press": -1, "type": "PRES_VIS", "word": "outfit", "wordID": 987, "conditions": [18, 1200, "v", 18000], "trial": 1, "serialpos": 10, "trial_type": "single-stim", "trial_index": 65, "time_elapsed": 298063, "internal_node_id": "0.0-47.0"}}, {"uniqueid": "MTK0962:3WJEQKOXA990O64CXJ0XZ6FSG69A1X", "current_trial": 66, "dateTime": 1512937208916, "trialdata": {"rt": -1, "stimulus": "<p id=\"stim\">ICING</p>", "key_press": -1, "type": "PRES_VIS", "word": "icing", "wordID": 731, "conditions": [18, 1200, "v", 18000], "trial": 1, "serialpos": 11, "trial_type": "single-stim", "trial_index": 66, "time_elapsed": 300085, "internal_node_id": "0.0-48.0"}}, {"uniqueid": "MTK0962:3WJEQKOXA990O64CXJ0XZ6FSG69A1X", "current_trial": 67, "dateTime": 1512937211160, "trialdata": {"rt": -1, "stimulus": "<p id=\"stim\">SUNSET</p>", "key_press": -1, "type": "PRES_VIS", "word": "sunset", "wordID": 1407, "conditions": [18, 1200, "v", 18000], "trial": 1, "serialpos": 12, "trial_type": "single-stim", "trial_index": 67, "time_elapsed": 302328, "internal_node_id": "0.0-49.0"}}, {"uniqueid": "MTK0962:3WJEQKOXA990O64CXJ0XZ6FSG69A1X", "current_trial": 68, "dateTime": 1512937213237, "trialdata": {"rt": -1, "stimulus": "<p id=\"stim\">REPORT</p>", "key_press": -1, "type": "PRES_VIS", "word": "report", "wordID": 1183, "conditions": [18, 1200, "v", 18000], "trial": 1, "serialpos": 13, "trial_type": "single-stim", "trial_index": 68, "time_elapsed": 304401, "internal_node_id": "0.0-50.0"}}, {"uniqueid": "MTK0962:3WJEQKOXA990O64CXJ0XZ6FSG69A1X", "current_trial": 69, "dateTime": 1512937215561, "trialdata": {"rt": -1, "stimulus": "<p id=\"stim\">JAPAN</p>", "key_press": -1, "type": "PRES_VIS", "word": "japan", "wordID": 748, "conditions": [18, 1200, "v", 18000], "trial": 1, "serialpos": 14, "trial_type": "single-stim", "trial_index": 69, "time_elapsed": 306729, "internal_node_id": "0.0-51.0"}}, {"uniqueid": "MTK0962:3WJEQKOXA990O64CXJ0XZ6FSG69A1X", "current_trial": 70, "dateTime": 1512937217894, "trialdata": {"rt": -1, "stimulus": "<p id=\"stim\">TRANSPLANT</p>", "key_press": -1, "type": "PRES_VIS", "word": "transplant", "wordID": 1495, "conditions": [18, 1200, "v", 18000], "trial": 1, "serialpos": 15, "trial_type": "single-stim", "trial_index": 70, "time_elapsed": 309062, "internal_node_id": "0.0-52.0"}}, {"uniqueid": "MTK0962:3WJEQKOXA990O64CXJ0XZ6FSG69A1X", "current_trial": 71, "dateTime": 1512937220053, "trialdata": {"rt": -1, "stimulus": "<p id=\"stim\">SIDEWALK</p>", "key_press": -1, "type": "PRES_VIS", "word": "sidewalk", "wordID": 1302, "conditions": [18, 1200, "v", 18000], "trial": 1, "serialpos": 16, "trial_type": "single-stim", "trial_index": 71, "time_elapsed": 311221, "internal_node_id": "0.0-53.0"}}, {"uniqueid": "MTK0962:3WJEQKOXA990O64CXJ0XZ6FSG69A1X", "current_trial": 72, "dateTime": 1512937222244, "trialdata": {"rt": -1, "stimulus": "<p id=\"stim\">MARSH</p>", "key_press": -1, "type": "PRES_VIS", "word": "marsh", "wordID": 873, "conditions": [18, 1200, "v", 18000], "trial": 1, "serialpos": 17, "trial_type": "single-stim", "trial_index": 72, "time_elapsed": 313412, "internal_node_id": "0.0-54.0"}}, {"uniqueid": "MTK0962:3WJEQKOXA990O64CXJ0XZ6FSG69A1X", "current_trial": 73, "dateTime": 1512937224461, "trialdata": {"rt": -1, "stimulus": "", "key_press": -1, "type": "PRE_RECALL_DELAY", "trial_type": "single-stim", "trial_index": 73, "time_elapsed": 315629, "internal_node_id": "0.0-55.0-0.0"}}, {"uniqueid": "MTK0962:3WJEQKOXA990O64CXJ0XZ6FSG69A1X", "current_trial": 74, "dateTime": 1512937224964, "trialdata": {"rt": -1000, "stimulus": "/static/audio/400Hz.wav", "key_press": -1, "type": "PRE_RECALL_ALERT", "trial_type": "single-audio", "trial_index": 74, "time_elapsed": 316133, "internal_node_id": "0.0-56.0"}}, {"uniqueid": "MTK0962:3WJEQKOXA990O64CXJ0XZ6FSG69A1X", "current_trial": 75, "dateTime": 1512937284971, "trialdata": {"rt": [4887, 6856, 9000, 11688, 13256, 15367, 18470, 24976, 26271, 30056, 31672, 33054, 36247, 38295, 40279, 42637, 44335, 53728, 58592], "recwords": ["laser", "stamp", "cottage", "custard", "pebble", "marsh", "japan", "sunset", "report", "chemist", "fox", "poet", "twister", "outfit", "icing", "sidewalk", "hamper", "cricket", "outfit"], "type": "FREE_RECALL", "conditions": [18, 1200, "v", 18000], "trial": 1, "trial_type": "free-recall", "trial_index": 75, "time_elapsed": 376136, "internal_node_id": "0.0-57.0-0.0"}}, {"uniqueid": "MTK0962:3WJEQKOXA990O64CXJ0XZ6FSG69A1X", "current_trial": 76, "dateTime": 1512937290617, "trialdata": {"rt": 3640, "key_press": 13, "type": "INSTRUCTIONS", "trial_type": "text", "trial_index": 76, "time_elapsed": 381783, "internal_node_id": "0.0-58.0"}}, {"uniqueid": "MTK0962:3WJEQKOXA990O64CXJ0XZ6FSG69A1X", "current_trial": 77, "dateTime": 1512937303623, "trialdata": {"rt": [2416, 4376, 7360, 9521], "responses": ["9", "12", "21", "14"], "num1": [2, 5, 6, 1, 7], "num2": [2, 5, 6, 4, 1], "num3": [5, 2, 9, 9, 5], "type": "DISTRACTOR", "conditions": [12, 800, "v", 12000], "trial": 2, "trial_type": "math-distractor", "trial_index": 77, "time_elapsed": 394792, "internal_node_id": "0.0-59.0"}}, {"uniqueid": "MTK0962:3WJEQKOXA990O64CXJ0XZ6FSG69A1X", "current_trial": 78, "dateTime": 1512937306627, "trialdata": {"rt": -1, "stimulus": "<p id=\"stim\">10</p>", "key_press": -1, "trial_type": "single-stim", "trial_index": 78, "time_elapsed": 397795, "internal_node_id": "0.0-60.0-0.0"}}, {"uniqueid": "MTK0962:3WJEQKOXA990O64CXJ0XZ6FSG69A1X", "current_trial": 79, "dateTime": 1512937307629, "trialdata": {"rt": -1, "stimulus": "<p id=\"stim\">9</p>", "key_press": -1, "trial_type": "single-stim", "trial_index": 79, "time_elapsed": 398798, "internal_node_id": "0.0-60.0-1.0"}}, {"uniqueid": "MTK0962:3WJEQKOXA990O64CXJ0XZ6FSG69A1X", "current_trial": 80, "dateTime": 1512937308630, "trialdata": {"rt": -1, "stimulus": "<p id=\"stim\">8</p>", "key_press": -1, "trial_type": "single-stim", "trial_index": 80, "time_elapsed": 399798, "internal_node_id": "0.0-60.0-2.0"}}, {"uniqueid": "MTK0962:3WJEQKOXA990O64CXJ0XZ6FSG69A1X", "current_trial": 81, "dateTime": 1512937309632, "trialdata": {"rt": -1, "stimulus": "<p id=\"stim\">7</p>", "key_press": -1, "trial_type": "single-stim", "trial_index": 81, "time_elapsed": 400801, "internal_node_id": "0.0-60.0-3.0"}}, {"uniqueid": "MTK0962:3WJEQKOXA990O64CXJ0XZ6FSG69A1X", "current_trial": 82, "dateTime": 1512937310634, "trialdata": {"rt": -1, "stimulus": "<p id=\"stim\">6</p>", "key_press": -1, "trial_type": "single-stim", "trial_index": 82, "time_elapsed": 401802, "internal_node_id": "0.0-60.0-4.0"}}, {"uniqueid": "MTK0962:3WJEQKOXA990O64CXJ0XZ6FSG69A1X", "current_trial": 83, "dateTime": 1512937311636, "trialdata": {"rt": -1, "stimulus": "<p id=\"stim\">5</p>", "key_press": -1, "trial_type": "single-stim", "trial_index": 83, "time_elapsed": 402804, "internal_node_id": "0.0-60.0-5.0"}}, {"uniqueid": "MTK0962:3WJEQKOXA990O64CXJ0XZ6FSG69A1X", "current_trial": 84, "dateTime": 1512937312636, "trialdata": {"rt": -1, "stimulus": "<p id=\"stim\">4</p>", "key_press": -1, "trial_type": "single-stim", "trial_index": 84, "time_elapsed": 403805, "internal_node_id": "0.0-60.0-6.0"}}, {"uniqueid": "MTK0962:3WJEQKOXA990O64CXJ0XZ6FSG69A1X", "current_trial": 85, "dateTime": 1512937313639, "trialdata": {"rt": -1, "stimulus": "<p id=\"stim\">3</p>", "key_press": -1, "trial_type": "single-stim", "trial_index": 85, "time_elapsed": 404807, "internal_node_id": "0.0-60.0-7.0"}}, {"uniqueid": "MTK0962:3WJEQKOXA990O64CXJ0XZ6FSG69A1X", "current_trial": 86, "dateTime": 1512937314641, "trialdata": {"rt": -1, "stimulus": "<p id=\"stim\">2</p>", "key_press": -1, "trial_type": "single-stim", "trial_index": 86, "time_elapsed": 405810, "internal_node_id": "0.0-60.0-8.0"}}, {"uniqueid": "MTK0962:3WJEQKOXA990O64CXJ0XZ6FSG69A1X", "current_trial": 87, "dateTime": 1512937315643, "trialdata": {"rt": -1, "stimulus": "<p id=\"stim\">1</p>", "key_press": -1, "trial_type": "single-stim", "trial_index": 87, "time_elapsed": 406811, "internal_node_id": "0.0-60.0-9.0"}}, {"uniqueid": "MTK0962:3WJEQKOXA990O64CXJ0XZ6FSG69A1X", "current_trial": 88, "dateTime": 1512937317147, "trialdata": {"rt": -1, "stimulus": "<p id=\"stim\">+</p>", "key_press": -1, "type": "FIXATION", "trial_type": "single-stim", "trial_index": 88, "time_elapsed": 408315, "internal_node_id": "0.0-61.0-0.0"}}, {"uniqueid": "MTK0962:3WJEQKOXA990O64CXJ0XZ6FSG69A1X", "current_trial": 89, "dateTime": 1512937317949, "trialdata": {"rt": -1, "stimulus": "<p id=\"stim\">MAILBOX</p>", "key_press": -1, "type": "PRES_VIS", "word": "mailbox", "wordID": 856, "conditions": [12, 800, "v", 12000], "trial": 2, "serialpos": 0, "trial_type": "single-stim", "trial_index": 89, "time_elapsed": 409117, "internal_node_id": "0.0-62.0"}}, {"uniqueid": "MTK0962:3WJEQKOXA990O64CXJ0XZ6FSG69A1X", "current_trial": 90, "dateTime": 1512937319758, "trialdata": {"rt": -1, "stimulus": "<p id=\"stim\">HUSBAND</p>", "key_press": -1, "type": "PRES_VIS", "word": "husband", "wordID": 727, "conditions": [12, 800, "v", 12000], "trial": 2, "serialpos": 1, "trial_type": "single-stim", "trial_index": 90, "time_elapsed": 410926, "internal_node_id": "0.0-63.0"}}, {"uniqueid": "MTK0962:3WJEQKOXA990O64CXJ0XZ6FSG69A1X", "current_trial": 91, "dateTime": 1512937321671, "trialdata": {"rt": -1, "stimulus": "<p id=\"stim\">PECAN</p>", "key_press": -1, "type": "PRES_VIS", "word": "pecan", "wordID": 1035, "conditions": [12, 800, "v", 12000], "trial": 2, "serialpos": 2, "trial_type": "single-stim", "trial_index": 91, "time_elapsed": 412839, "internal_node_id": "0.0-64.0"}}, {"uniqueid": "MTK0962:3WJEQKOXA990O64CXJ0XZ6FSG69A1X", "current_trial": 92, "dateTime": 1512937323283, "trialdata": {"rt": -1, "stimulus": "<p id=\"stim\">MESSAGE</p>", "key_press": -1, "type": "PRES_VIS", "word": "message", "wordID": 887, "conditions": [12, 800, "v", 12000], "trial": 2, "serialpos": 3, "trial_type": "single-stim", "trial_index": 92, "time_elapsed": 414451, "internal_node_id": "0.0-65.0"}}, {"uniqueid": "MTK0962:3WJEQKOXA990O64CXJ0XZ6FSG69A1X", "current_trial": 93, "dateTime": 1512937325259, "trialdata": {"rt": -1, "stimulus": "<p id=\"stim\">WIDOW</p>", "key_press": -1, "type": "PRES_VIS", "word": "widow", "wordID": 1607, "conditions": [12, 800, "v", 12000], "trial": 2, "serialpos": 4, "trial_type": "single-stim", "trial_index": 93, "time_elapsed": 416428, "internal_node_id": "0.0-66.0"}}, {"uniqueid": "MTK0962:3WJEQKOXA990O64CXJ0XZ6FSG69A1X", "current_trial": 94, "dateTime": 1512937326876, "trialdata": {"rt": -1, "stimulus": "<p id=\"stim\">SPACE</p>", "key_press": -1, "type": "PRES_VIS", "word": "space", "wordID": 1344, "conditions": [12, 800, "v", 12000], "trial": 2, "serialpos": 5, "trial_type": "single-stim", "trial_index": 94, "time_elapsed": 418045, "internal_node_id": "0.0-67.0"}}, {"uniqueid": "MTK0962:3WJEQKOXA990O64CXJ0XZ6FSG69A1X", "current_trial": 95, "dateTime": 1512937328744, "trialdata": {"rt": -1, "stimulus": "<p id=\"stim\">TRACTOR</p>", "key_press": -1, "type": "PRES_VIS", "word": "tractor", "wordID": 1492, "conditions": [12, 800, "v", 12000], "trial": 2, "serialpos": 6, "trial_type": "single-stim", "trial_index": 95, "time_elapsed": 419913, "internal_node_id": "0.0-68.0"}}, {"uniqueid": "MTK0962:3WJEQKOXA990O64CXJ0XZ6FSG69A1X", "current_trial": 96, "dateTime": 1512937330356, "trialdata": {"rt": -1, "stimulus": "<p id=\"stim\">WAGON</p>", "key_press": -1, "type": "PRES_VIS", "word": "wagon", "wordID": 1577, "conditions": [12, 800, "v", 12000], "trial": 2, "serialpos": 7, "trial_type": "single-stim", "trial_index": 96, "time_elapsed": 421524, "internal_node_id": "0.0-69.0"}}, {"uniqueid": "MTK0962:3WJEQKOXA990O64CXJ0XZ6FSG69A1X", "current_trial": 97, "dateTime": 1512937332208, "trialdata": {"rt": -1, "stimulus": "<p id=\"stim\">ONION</p>", "key_press": -1, "type": "PRES_VIS", "word": "onion", "wordID": 976, "conditions": [12, 800, "v", 12000], "trial": 2, "serialpos": 8, "trial_type": "single-stim", "trial_index": 97, "time_elapsed": 423376, "internal_node_id": "0.0-70.0"}}, {"uniqueid": "MTK0962:3WJEQKOXA990O64CXJ0XZ6FSG69A1X", "current_trial": 98, "dateTime": 1512937333984, "trialdata": {"rt": -1, "stimulus": "<p id=\"stim\">TEACHER</p>", "key_press": -1, "type": "PRES_VIS", "word": "teacher", "wordID": 1439, "conditions": [12, 800, "v", 12000], "trial": 2, "serialpos": 9, "trial_type": "single-stim", "trial_index": 98, "time_elapsed": 425152, "internal_node_id": "0.0-71.0"}}, {"uniqueid": "MTK0962:3WJEQKOXA990O64CXJ0XZ6FSG69A1X", "current_trial": 99, "dateTime": 1512937335657, "trialdata": {"rt": -1, "stimulus": "<p id=\"stim\">MACHINE</p>", "key_press": -1, "type": "PRES_VIS", "word": "machine", "wordID": 851, "conditions": [12, 800, "v", 12000], "trial": 2, "serialpos": 10, "trial_type": "single-stim", "trial_index": 99, "time_elapsed": 426825, "internal_node_id": "0.0-72.0"}}, {"uniqueid": "MTK0962:3WJEQKOXA990O64CXJ0XZ6FSG69A1X", "current_trial": 100, "dateTime": 1512937337560, "trialdata": {"rt": -1, "stimulus": "<p id=\"stim\">CLOCK</p>", "key_press": -1, "type": "PRES_VIS", "word": "clock", "wordID": 324, "conditions": [12, 800, "v", 12000], "trial": 2, "serialpos": 11, "trial_type": "single-stim", "trial_index": 100, "time_elapsed": 428729, "internal_node_id": "0.0-73.0"}}, {"uniqueid": "MTK0962:3WJEQKOXA990O64CXJ0XZ6FSG69A1X", "current_trial": 101, "dateTime": 1512937339909, "trialdata": {"rt": -1, "stimulus": "", "key_press": -1, "type": "PRE_RECALL_DELAY", "trial_type": "single-stim", "trial_index": 101, "time_elapsed": 431078, "internal_node_id": "0.0-74.0-0.0"}}, {"uniqueid": "MTK0962:3WJEQKOXA990O64CXJ0XZ6FSG69A1X", "current_trial": 102, "dateTime": 1512937340411, "trialdata": {"rt": -1000, "stimulus": "/static/audio/400Hz.wav", "key_press": -1, "type": "PRE_RECALL_ALERT", "trial_type": "single-audio", "trial_index": 102, "time_elapsed": 431580, "internal_node_id": "0.0-75.0"}}, {"uniqueid": "MTK0962:3WJEQKOXA990O64CXJ0XZ6FSG69A1X", "current_trial": 103, "dateTime": 1512937400417, "trialdata": {"rt": [3199, 5096, 6576, 9906, 11785, 13879, 15207, 17383, 19711, 23023, 25808, 27519, 31095, 33168, 44360, 51375, 59168], "recwords": ["husband", "mailbox", "message", "window", "widow", "space", "spare", "tractor", "wagon", "onion", "teacher", "machine", "church", "pew", "spare", "wagon", ""], "type": "FREE_RECALL", "conditions": [12, 800, "v", 12000], "trial": 2, "trial_type": "free-recall", "trial_index": 103, "time_elapsed": 491584, "internal_node_id": "0.0-76.0-0.0"}}, {"uniqueid": "MTK0962:3WJEQKOXA990O64CXJ0XZ6FSG69A1X", "current_trial": 104, "dateTime": 1512937403926, "trialdata": {"rt": 1508, "key_press": 13, "type": "INSTRUCTIONS", "trial_type": "text", "trial_index": 104, "time_elapsed": 495095, "internal_node_id": "0.0-77.0"}}, {"uniqueid": "MTK0962:3WJEQKOXA990O64CXJ0XZ6FSG69A1X", "current_trial": 105, "dateTime": 1512937417931, "trialdata": {"rt": [2965, 6332, 8476, 10829], "responses": ["12", "18", "13", "18"], "num1": [1, 4, 5, 6, 6], "num2": [7, 9, 4, 9, 8], "num3": [4, 5, 4, 3, 3], "type": "DISTRACTOR", "conditions": [24, 1600, "v", 12000], "trial": 3, "trial_type": "math-distractor", "trial_index": 105, "time_elapsed": 509100, "internal_node_id": "0.0-78.0"}}, {"uniqueid": "MTK0962:3WJEQKOXA990O64CXJ0XZ6FSG69A1X", "current_trial": 106, "dateTime": 1512937420935, "trialdata": {"rt": -1, "stimulus": "<p id=\"stim\">10</p>", "key_press": -1, "trial_type": "single-stim", "trial_index": 106, "time_elapsed": 512103, "internal_node_id": "0.0-79.0-0.0"}}, {"uniqueid": "MTK0962:3WJEQKOXA990O64CXJ0XZ6FSG69A1X", "current_trial": 107, "dateTime": 1512937421964, "trialdata": {"rt": -1, "stimulus": "<p id=\"stim\">9</p>", "key_press": -1, "trial_type": "single-stim", "trial_index": 107, "time_elapsed": 513132, "internal_node_id": "0.0-79.0-1.0"}}, {"uniqueid": "MTK0962:3WJEQKOXA990O64CXJ0XZ6FSG69A1X", "current_trial": 108, "dateTime": 1512937422965, "trialdata": {"rt": -1, "stimulus": "<p id=\"stim\">8</p>", "key_press": -1, "trial_type": "single-stim", "trial_index": 108, "time_elapsed": 514133, "internal_node_id": "0.0-79.0-2.0"}}, {"uniqueid": "MTK0962:3WJEQKOXA990O64CXJ0XZ6FSG69A1X", "current_trial": 109, "dateTime": 1512937423984, "trialdata": {"rt": -1, "stimulus": "<p id=\"stim\">7</p>", "key_press": -1, "trial_type": "single-stim", "trial_index": 109, "time_elapsed": 515153, "internal_node_id": "0.0-79.0-3.0"}}, {"uniqueid": "MTK0962:3WJEQKOXA990O64CXJ0XZ6FSG69A1X", "current_trial": 110, "dateTime": 1512937424987, "trialdata": {"rt": -1, "stimulus": "<p id=\"stim\">6</p>", "key_press": -1, "trial_type": "single-stim", "trial_index": 110, "time_elapsed": 516155, "internal_node_id": "0.0-79.0-4.0"}}, {"uniqueid": "MTK0962:3WJEQKOXA990O64CXJ0XZ6FSG69A1X", "current_trial": 111, "dateTime": 1512937425989, "trialdata": {"rt": -1, "stimulus": "<p id=\"stim\">5</p>", "key_press": -1, "trial_type": "single-stim", "trial_index": 111, "time_elapsed": 517157, "internal_node_id": "0.0-79.0-5.0"}}, {"uniqueid": "MTK0962:3WJEQKOXA990O64CXJ0XZ6FSG69A1X", "current_trial": 112, "dateTime": 1512937426991, "trialdata": {"rt": -1, "stimulus": "<p id=\"stim\">4</p>", "key_press": -1, "trial_type": "single-stim", "trial_index": 112, "time_elapsed": 518159, "internal_node_id": "0.0-79.0-6.0"}}, {"uniqueid": "MTK0962:3WJEQKOXA990O64CXJ0XZ6FSG69A1X", "current_trial": 113, "dateTime": 1512937427993, "trialdata": {"rt": -1, "stimulus": "<p id=\"stim\">3</p>", "key_press": -1, "trial_type": "single-stim", "trial_index": 113, "time_elapsed": 519161, "internal_node_id": "0.0-79.0-7.0"}}, {"uniqueid": "MTK0962:3WJEQKOXA990O64CXJ0XZ6FSG69A1X", "current_trial": 114, "dateTime": 1512937428994, "trialdata": {"rt": -1, "stimulus": "<p id=\"stim\">2</p>", "key_press": -1, "trial_type": "single-stim", "trial_index": 114, "time_elapsed": 520163, "internal_node_id": "0.0-79.0-8.0"}}, {"uniqueid": "MTK0962:3WJEQKOXA990O64CXJ0XZ6FSG69A1X", "current_trial": 115, "dateTime": 1512937429996, "trialdata": {"rt": -1, "stimulus": "<p id=\"stim\">1</p>", "key_press": -1, "trial_type": "single-stim", "trial_index": 115, "time_elapsed": 521164, "internal_node_id": "0.0-79.0-9.0"}}, {"uniqueid": "MTK0962:3WJEQKOXA990O64CXJ0XZ6FSG69A1X", "current_trial": 116, "dateTime": 1512937431498, "trialdata": {"rt": -1, "stimulus": "<p id=\"stim\">+</p>", "key_press": -1, "type": "FIXATION", "trial_type": "single-stim", "trial_index": 116, "time_elapsed": 522667, "internal_node_id": "0.0-80.0-0.0"}}, {"uniqueid": "MTK0962:3WJEQKOXA990O64CXJ0XZ6FSG69A1X", "current_trial": 117, "dateTime": 1512937433101, "trialdata": {"rt": -1, "stimulus": "<p id=\"stim\">CANAL</p>", "key_press": -1, "type": "PRES_VIS", "word": "canal", "wordID": 225, "conditions": [24, 1600, "v", 12000], "trial": 3, "serialpos": 0, "trial_type": "single-stim", "trial_index": 117, "time_elapsed": 524270, "internal_node_id": "0.0-81.0"}}, {"uniqueid": "MTK0962:3WJEQKOXA990O64CXJ0XZ6FSG69A1X", "current_trial": 118, "dateTime": 1512937435669, "trialdata": {"rt": -1, "stimulus": "<p id=\"stim\">BANJO</p>", "key_press": -1, "type": "PRES_VIS", "word": "banjo", "wordID": 81, "conditions": [24, 1600, "v", 12000], "trial": 3, "serialpos": 1, "trial_type": "single-stim", "trial_index": 118, "time_elapsed": 526838, "internal_node_id": "0.0-82.0"}}, {"uniqueid": "MTK0962:3WJEQKOXA990O64CXJ0XZ6FSG69A1X", "current_trial": 119, "dateTime": 1512937438410, "trialdata": {"rt": -1, "stimulus": "<p id=\"stim\">FINGER</p>", "key_press": -1, "type": "PRES_VIS", "word": "finger", "wordID": 566, "conditions": [24, 1600, "v", 12000], "trial": 3, "serialpos": 2, "trial_type": "single-stim", "trial_index": 119, "time_elapsed": 529578, "internal_node_id": "0.0-83.0"}}, {"uniqueid": "MTK0962:3WJEQKOXA990O64CXJ0XZ6FSG69A1X", "current_trial": 120, "dateTime": 1512937440867, "trialdata": {"rt": -1, "stimulus": "<p id=\"stim\">PICNIC</p>", "key_press": -1, "type": "PRES_VIS", "word": "picnic", "wordID": 1059, "conditions": [24, 1600, "v", 12000], "trial": 3, "serialpos": 3, "trial_type": "single-stim", "trial_index": 120, "time_elapsed": 532036, "internal_node_id": "0.0-84.0"}}, {"uniqueid": "MTK0962:3WJEQKOXA990O64CXJ0XZ6FSG69A1X", "current_trial": 121, "dateTime": 1512937443580, "trialdata": {"rt": -1, "stimulus": "<p id=\"stim\">WRIST</p>", "key_press": -1, "type": "PRES_VIS", "word": "wrist", "wordID": 1625, "conditions": [24, 1600, "v", 12000], "trial": 3, "serialpos": 4, "trial_type": "single-stim", "trial_index": 121, "time_elapsed": 534749, "internal_node_id": "0.0-85.0"}}, {"uniqueid": "MTK0962:3WJEQKOXA990O64CXJ0XZ6FSG69A1X", "current_trial": 122, "dateTime": 1512937446100, "trialdata": {"rt": -1, "stimulus": "<p id=\"stim\">ARM</p>", "key_press": -1, "type": "PRES_VIS", "word": "arm", "wordID": 37, "conditions": [24, 1600, "v", 12000], "trial": 3, "serialpos": 5, "trial_type": "single-stim", "trial_index": 122, "time_elapsed": 537268, "internal_node_id": "0.0-86.0"}}, {"uniqueid": "MTK0962:3WJEQKOXA990O64CXJ0XZ6FSG69A1X", "current_trial": 123, "dateTime": 1512937448585, "trialdata": {"rt": -1, "stimulus": "<p id=\"stim\">PARTNER</p>", "key_press": -1, "type": "PRES_VIS", "word": "partner", "wordID": 1016, "conditions": [24, 1600, "v", 12000], "trial": 3, "serialpos": 6, "trial_type": "single-stim", "trial_index": 123, "time_elapsed": 539754, "internal_node_id": "0.0-87.0"}}, {"uniqueid": "MTK0962:3WJEQKOXA990O64CXJ0XZ6FSG69A1X", "current_trial": 124, "dateTime": 1512937451110, "trialdata": {"rt": -1, "stimulus": "<p id=\"stim\">SHOULDER</p>", "key_press": -1, "type": "PRES_VIS", "word": "shoulder", "wordID": 1293, "conditions": [24, 1600, "v", 12000], "trial": 3, "serialpos": 7, "trial_type": "single-stim", "trial_index": 124, "time_elapsed": 542278, "internal_node_id": "0.0-88.0"}}, {"uniqueid": "MTK0962:3WJEQKOXA990O64CXJ0XZ6FSG69A1X", "current_trial": 125, "dateTime": 1512937453717, "trialdata": {"rt": -1, "stimulus": "<p id=\"stim\">ORCHID</p>", "key_press": -1, "type": "PRES_VIS", "word": "orchid", "wordID": 981, "conditions": [24, 1600, "v", 12000], "trial": 3, "serialpos": 8, "trial_type": "single-stim", "trial_index": 125, "time_elapsed": 544886, "internal_node_id": "0.0-89.0"}}, {"uniqueid": "MTK0962:3WJEQKOXA990O64CXJ0XZ6FSG69A1X", "current_trial": 126, "dateTime": 1512937456464, "trialdata": {"rt": -1, "stimulus": "<p id=\"stim\">GARDEN</p>", "key_press": -1, "type": "PRES_VIS", "word": "garden", "wordID": 622, "conditions": [24, 1600, "v", 12000], "trial": 3, "serialpos": 9, "trial_type": "single-stim", "trial_index": 126, "time_elapsed": 547632, "internal_node_id": "0.0-90.0"}}, {"uniqueid": "MTK0962:3WJEQKOXA990O64CXJ0XZ6FSG69A1X", "current_trial": 127, "dateTime": 1512937459158, "trialdata": {"rt": -1, "stimulus": "<p id=\"stim\">COMET</p>", "key_press": -1, "type": "PRES_VIS", "word": "comet", "wordID": 352, "conditions": [24, 1600, "v", 12000], "trial": 3, "serialpos": 10, "trial_type": "single-stim", "trial_index": 127, "time_elapsed": 550327, "internal_node_id": "0.0-91.0"}}, {"uniqueid": "MTK0962:3WJEQKOXA990O64CXJ0XZ6FSG69A1X", "current_trial": 128, "dateTime": 1512937461673, "trialdata": {"rt": -1, "stimulus": "<p id=\"stim\">PLAZA</p>", "key_press": -1, "type": "PRES_VIS", "word": "plaza", "wordID": 1087, "conditions": [24, 1600, "v", 12000], "trial": 3, "serialpos": 11, "trial_type": "single-stim", "trial_index": 128, "time_elapsed": 552842, "internal_node_id": "0.0-92.0"}}, {"uniqueid": "MTK0962:3WJEQKOXA990O64CXJ0XZ6FSG69A1X", "current_trial": 129, "dateTime": 1512937464431, "trialdata": {"rt": -1, "stimulus": "<p id=\"stim\">DANCER</p>", "key_press": -1, "type": "PRES_VIS", "word": "dancer", "wordID": 436, "conditions": [24, 1600, "v", 12000], "trial": 3, "serialpos": 12, "trial_type": "single-stim", "trial_index": 129, "time_elapsed": 555600, "internal_node_id": "0.0-93.0"}}, {"uniqueid": "MTK0962:3WJEQKOXA990O64CXJ0XZ6FSG69A1X", "current_trial": 130, "dateTime": 1512937466957, "trialdata": {"rt": -1, "stimulus": "<p id=\"stim\">GYMNAST</p>", "key_press": -1, "type": "PRES_VIS", "word": "gymnast", "wordID": 674, "conditions": [24, 1600, "v", 12000], "trial": 3, "serialpos": 13, "trial_type": "single-stim", "trial_index": 130, "time_elapsed": 558126, "internal_node_id": "0.0-94.0"}}, {"uniqueid": "MTK0962:3WJEQKOXA990O64CXJ0XZ6FSG69A1X", "current_trial": 131, "dateTime": 1512937469491, "trialdata": {"rt": -1, "stimulus": "<p id=\"stim\">VALVE</p>", "key_press": -1, "type": "PRES_VIS", "word": "valve", "wordID": 1545, "conditions": [24, 1600, "v", 12000], "trial": 3, "serialpos": 14, "trial_type": "single-stim", "trial_index": 131, "time_elapsed": 560659, "internal_node_id": "0.0-95.0"}}, {"uniqueid": "MTK0962:3WJEQKOXA990O64CXJ0XZ6FSG69A1X", "current_trial": 132, "dateTime": 1512937471904, "trialdata": {"rt": -1, "stimulus": "<p id=\"stim\">CANDY</p>", "key_press": -1, "type": "PRES_VIS", "word": "candy", "wordID": 229, "conditions": [24, 1600, "v", 12000], "trial": 3, "serialpos": 15, "trial_type": "single-stim", "trial_index": 132, "time_elapsed": 563072, "internal_node_id": "0.0-96.0"}}, {"uniqueid": "MTK0962:3WJEQKOXA990O64CXJ0XZ6FSG69A1X", "current_trial": 133, "dateTime": 1512937474373, "trialdata": {"rt": -1, "stimulus": "<p id=\"stim\">TOURIST</p>", "key_press": -1, "type": "PRES_VIS", "word": "tourist", "wordID": 1487, "conditions": [24, 1600, "v", 12000], "trial": 3, "serialpos": 16, "trial_type": "single-stim", "trial_index": 133, "time_elapsed": 565542, "internal_node_id": "0.0-97.0"}}, {"uniqueid": "MTK0962:3WJEQKOXA990O64CXJ0XZ6FSG69A1X", "current_trial": 134, "dateTime": 1512937477167, "trialdata": {"rt": -1, "stimulus": "<p id=\"stim\">FEMALE</p>", "key_press": -1, "type": "PRES_VIS", "word": "female", "wordID": 558, "conditions": [24, 1600, "v", 12000], "trial": 3, "serialpos": 17, "trial_type": "single-stim", "trial_index": 134, "time_elapsed": 568336, "internal_node_id": "0.0-98.0"}}, {"uniqueid": "MTK0962:3WJEQKOXA990O64CXJ0XZ6FSG69A1X", "current_trial": 135, "dateTime": 1512937479662, "trialdata": {"rt": -1, "stimulus": "<p id=\"stim\">HUMAN</p>", "key_press": -1, "type": "PRES_VIS", "word": "human", "wordID": 725, "conditions": [24, 1600, "v", 12000], "trial": 3, "serialpos": 18, "trial_type": "single-stim", "trial_index": 135, "time_elapsed": 570831, "internal_node_id": "0.0-99.0"}}, {"uniqueid": "MTK0962:3WJEQKOXA990O64CXJ0XZ6FSG69A1X", "current_trial": 136, "dateTime": 1512937482096, "trialdata": {"rt": -1, "stimulus": "<p id=\"stim\">SNACK</p>", "key_press": -1, "type": "PRES_VIS", "word": "snack", "wordID": 1330, "conditions": [24, 1600, "v", 12000], "trial": 3, "serialpos": 19, "trial_type": "single-stim", "trial_index": 136, "time_elapsed": 573264, "internal_node_id": "0.0-100.0"}}, {"uniqueid": "MTK0962:3WJEQKOXA990O64CXJ0XZ6FSG69A1X", "current_trial": 137, "dateTime": 1512937484668, "trialdata": {"rt": -1, "stimulus": "<p id=\"stim\">BOX</p>", "key_press": -1, "type": "PRES_VIS", "word": "box", "wordID": 158, "conditions": [24, 1600, "v", 12000], "trial": 3, "serialpos": 20, "trial_type": "single-stim", "trial_index": 137, "time_elapsed": 575836, "internal_node_id": "0.0-101.0"}}, {"uniqueid": "MTK0962:3WJEQKOXA990O64CXJ0XZ6FSG69A1X", "current_trial": 138, "dateTime": 1512937487343, "trialdata": {"rt": -1, "stimulus": "<p id=\"stim\">FOOTBALL</p>", "key_press": -1, "type": "PRES_VIS", "word": "football", "wordID": 590, "conditions": [24, 1600, "v", 12000], "trial": 3, "serialpos": 21, "trial_type": "single-stim", "trial_index": 138, "time_elapsed": 578511, "internal_node_id": "0.0-102.0"}}, {"uniqueid": "MTK0962:3WJEQKOXA990O64CXJ0XZ6FSG69A1X", "current_trial": 139, "dateTime": 1512937489928, "trialdata": {"rt": -1, "stimulus": "<p id=\"stim\">SNAIL</p>", "key_press": -1, "type": "PRES_VIS", "word": "snail", "wordID": 1331, "conditions": [24, 1600, "v", 12000], "trial": 3, "serialpos": 22, "trial_type": "single-stim", "trial_index": 139, "time_elapsed": 581097, "internal_node_id": "0.0-103.0"}}, {"uniqueid": "MTK0962:3WJEQKOXA990O64CXJ0XZ6FSG69A1X", "current_trial": 140, "dateTime": 1512937492365, "trialdata": {"rt": -1, "stimulus": "<p id=\"stim\">CRICKET</p>", "key_press": -1, "type": "PRES_VIS", "word": "cricket", "wordID": 407, "conditions": [24, 1600, "v", 12000], "trial": 3, "serialpos": 23, "trial_type": "single-stim", "trial_index": 140, "time_elapsed": 583534, "internal_node_id": "0.0-104.0"}}, {"uniqueid": "MTK0962:3WJEQKOXA990O64CXJ0XZ6FSG69A1X", "current_trial": 141, "dateTime": 1512937494981, "trialdata": {"rt": -1, "stimulus": "", "key_press": -1, "type": "PRE_RECALL_DELAY", "trial_type": "single-stim", "trial_index": 141, "time_elapsed": 586149, "internal_node_id": "0.0-105.0-0.0"}}, {"uniqueid": "MTK0962:3WJEQKOXA990O64CXJ0XZ6FSG69A1X", "current_trial": 142, "dateTime": 1512937495483, "trialdata": {"rt": -1000, "stimulus": "/static/audio/400Hz.wav", "key_press": -1, "type": "PRE_RECALL_ALERT", "trial_type": "single-audio", "trial_index": 142, "time_elapsed": 586652, "internal_node_id": "0.0-106.0"}}, {"uniqueid": "MTK0962:3WJEQKOXA990O64CXJ0XZ6FSG69A1X", "current_trial": 143, "dateTime": 1512937555494, "trialdata": {"rt": [11519, 13695, 15536, 17208, 19967, 22800, 24095, 27776, 30200, 32911, 35751, 39199, 41367, 42854, 47199, 49232, 51143, 54487], "recwords": ["canal", "banjo", "finger", "picnic", "wrist", "hand", "human", "partner", "shoulder", "garden", "canal", "comet", "plaza", "valve", "gymnast", "toursit", "airplane", "passengert"], "type": "FREE_RECALL", "conditions": [24, 1600, "v", 12000], "trial": 3, "trial_type": "free-recall", "trial_index": 143, "time_elapsed": 646657, "internal_node_id": "0.0-107.0-0.0"}}, {"uniqueid": "MTK0962:3WJEQKOXA990O64CXJ0XZ6FSG69A1X", "current_trial": 144, "dateTime": 1512937559454, "trialdata": {"rt": 1959, "key_press": 13, "type": "INSTRUCTIONS", "trial_type": "text", "trial_index": 144, "time_elapsed": 650623, "internal_node_id": "0.0-108.0"}}, {"uniqueid": "MTK0962:3WJEQKOXA990O64CXJ0XZ6FSG69A1X", "current_trial": 145, "dateTime": 1512937585462, "trialdata": {"rt": [3546, 5937, 11473, 15162, 17754, 19977, 23289], "responses": ["21", "18", "17", "20", "14", "12", "16"], "num1": [5, 3, 2, 8, 1, 6, 6, 2], "num2": [8, 6, 7, 9, 8, 4, 8, 3], "num3": [8, 9, 6, 3, 5, 2, 2, 8], "type": "DISTRACTOR", "conditions": [24, 800, "v", 24000], "trial": 4, "trial_type": "math-distractor", "trial_index": 145, "time_elapsed": 676631, "internal_node_id": "0.0-109.0"}}, {"uniqueid": "MTK0962:3WJEQKOXA990O64CXJ0XZ6FSG69A1X", "current_trial": 146, "dateTime": 1512937588464, "trialdata": {"rt": -1, "stimulus": "<p id=\"stim\">10</p>", "key_press": -1, "trial_type": "single-stim", "trial_index": 146, "time_elapsed": 679633, "internal_node_id": "0.0-110.0-0.0"}}, {"uniqueid": "MTK0962:3WJEQKOXA990O64CXJ0XZ6FSG69A1X", "current_trial": 147, "dateTime": 1512937589466, "trialdata": {"rt": -1, "stimulus": "<p id=\"stim\">9</p>", "key_press": -1, "trial_type": "single-stim", "trial_index": 147, "time_elapsed": 680635, "internal_node_id": "0.0-110.0-1.0"}}, {"uniqueid": "MTK0962:3WJEQKOXA990O64CXJ0XZ6FSG69A1X", "current_trial": 148, "dateTime": 1512937590467, "trialdata": {"rt": -1, "stimulus": "<p id=\"stim\">8</p>", "key_press": -1, "trial_type": "single-stim", "trial_index": 148, "time_elapsed": 681636, "internal_node_id": "0.0-110.0-2.0"}}, {"uniqueid": "MTK0962:3WJEQKOXA990O64CXJ0XZ6FSG69A1X", "current_trial": 149, "dateTime": 1512937591468, "trialdata": {"rt": -1, "stimulus": "<p id=\"stim\">7</p>", "key_press": -1, "trial_type": "single-stim", "trial_index": 149, "time_elapsed": 682637, "internal_node_id": "0.0-110.0-3.0"}}, {"uniqueid": "MTK0962:3WJEQKOXA990O64CXJ0XZ6FSG69A1X", "current_trial": 150, "dateTime": 1512937592470, "trialdata": {"rt": -1, "stimulus": "<p id=\"stim\">6</p>", "key_press": -1, "trial_type": "single-stim", "trial_index": 150, "time_elapsed": 683638, "internal_node_id": "0.0-110.0-4.0"}}, {"uniqueid": "MTK0962:3WJEQKOXA990O64CXJ0XZ6FSG69A1X", "current_trial": 151, "dateTime": 1512937593472, "trialdata": {"rt": -1, "stimulus": "<p id=\"stim\">5</p>", "key_press": -1, "trial_type": "single-stim", "trial_index": 151, "time_elapsed": 684641, "internal_node_id": "0.0-110.0-5.0"}}, {"uniqueid": "MTK0962:3WJEQKOXA990O64CXJ0XZ6FSG69A1X", "current_trial": 152, "dateTime": 1512937594475, "trialdata": {"rt": -1, "stimulus": "<p id=\"stim\">4</p>", "key_press": -1, "trial_type": "single-stim", "trial_index": 152, "time_elapsed": 685643, "internal_node_id": "0.0-110.0-6.0"}}, {"uniqueid": "MTK0962:3WJEQKOXA990O64CXJ0XZ6FSG69A1X", "current_trial": 153, "dateTime": 1512937595488, "trialdata": {"rt": -1, "stimulus": "<p id=\"stim\">3</p>", "key_press": -1, "trial_type": "single-stim", "trial_index": 153, "time_elapsed": 686657, "internal_node_id": "0.0-110.0-7.0"}}, {"uniqueid": "MTK0962:3WJEQKOXA990O64CXJ0XZ6FSG69A1X", "current_trial": 154, "dateTime": 1512937596490, "trialdata": {"rt": -1, "stimulus": "<p id=\"stim\">2</p>", "key_press": -1, "trial_type": "single-stim", "trial_index": 154, "time_elapsed": 687658, "internal_node_id": "0.0-110.0-8.0"}}, {"uniqueid": "MTK0962:3WJEQKOXA990O64CXJ0XZ6FSG69A1X", "current_trial": 155, "dateTime": 1512937597492, "trialdata": {"rt": -1, "stimulus": "<p id=\"stim\">1</p>", "key_press": -1, "trial_type": "single-stim", "trial_index": 155, "time_elapsed": 688660, "internal_node_id": "0.0-110.0-9.0"}}, {"uniqueid": "MTK0962:3WJEQKOXA990O64CXJ0XZ6FSG69A1X", "current_trial": 156, "dateTime": 1512937598994, "trialdata": {"rt": -1, "stimulus": "<p id=\"stim\">+</p>", "key_press": -1, "type": "FIXATION", "trial_type": "single-stim", "trial_index": 156, "time_elapsed": 690163, "internal_node_id": "0.0-111.0-0.0"}}, {"uniqueid": "MTK0962:3WJEQKOXA990O64CXJ0XZ6FSG69A1X", "current_trial": 157, "dateTime": 1512937599796, "trialdata": {"rt": -1, "stimulus": "<p id=\"stim\">ANKLE</p>", "key_press": -1, "type": "PRES_VIS", "word": "ankle", "wordID": 23, "conditions": [24, 800, "v", 24000], "trial": 4, "serialpos": 0, "trial_type": "single-stim", "trial_index": 157, "time_elapsed": 690965, "internal_node_id": "0.0-112.0"}}, {"uniqueid": "MTK0962:3WJEQKOXA990O64CXJ0XZ6FSG69A1X", "current_trial": 158, "dateTime": 1512937601439, "trialdata": {"rt": -1, "stimulus": "<p id=\"stim\">MAMMAL</p>", "key_press": -1, "type": "PRES_VIS", "word": "mammal", "wordID": 860, "conditions": [24, 800, "v", 24000], "trial": 4, "serialpos": 1, "trial_type": "single-stim", "trial_index": 158, "time_elapsed": 692608, "internal_node_id": "0.0-113.0"}}, {"uniqueid": "MTK0962:3WJEQKOXA990O64CXJ0XZ6FSG69A1X", "current_trial": 159, "dateTime": 1512937603060, "trialdata": {"rt": -1, "stimulus": "<p id=\"stim\">DONKEY</p>", "key_press": -1, "type": "PRES_VIS", "word": "donkey", "wordID": 483, "conditions": [24, 800, "v", 24000], "trial": 4, "serialpos": 2, "trial_type": "single-stim", "trial_index": 159, "time_elapsed": 694228, "internal_node_id": "0.0-114.0"}}, {"uniqueid": "MTK0962:3WJEQKOXA990O64CXJ0XZ6FSG69A1X", "current_trial": 160, "dateTime": 1512937604807, "trialdata": {"rt": -1, "stimulus": "<p id=\"stim\">PLATE</p>", "key_press": -1, "type": "PRES_VIS", "word": "plate", "wordID": 1085, "conditions": [24, 800, "v", 24000], "trial": 4, "serialpos": 3, "trial_type": "single-stim", "trial_index": 160, "time_elapsed": 695975, "internal_node_id": "0.0-115.0"}}, {"uniqueid": "MTK0962:3WJEQKOXA990O64CXJ0XZ6FSG69A1X", "current_trial": 161, "dateTime": 1512937606442, "trialdata": {"rt": -1, "stimulus": "<p id=\"stim\">GHETTO</p>", "key_press": -1, "type": "PRES_VIS", "word": "ghetto", "wordID": 632, "conditions": [24, 800, "v", 24000], "trial": 4, "serialpos": 4, "trial_type": "single-stim", "trial_index": 161, "time_elapsed": 697611, "internal_node_id": "0.0-116.0"}}, {"uniqueid": "MTK0962:3WJEQKOXA990O64CXJ0XZ6FSG69A1X", "current_trial": 162, "dateTime": 1512937608397, "trialdata": {"rt": -1, "stimulus": "<p id=\"stim\">MILK</p>", "key_press": -1, "type": "PRES_VIS", "word": "milk", "wordID": 894, "conditions": [24, 800, "v", 24000], "trial": 4, "serialpos": 5, "trial_type": "single-stim", "trial_index": 162, "time_elapsed": 699566, "internal_node_id": "0.0-117.0"}}, {"uniqueid": "MTK0962:3WJEQKOXA990O64CXJ0XZ6FSG69A1X", "current_trial": 163, "dateTime": 1512937610259, "trialdata": {"rt": -1, "stimulus": "<p id=\"stim\">RIFLE</p>", "key_press": -1, "type": "PRES_VIS", "word": "rifle", "wordID": 1191, "conditions": [24, 800, "v", 24000], "trial": 4, "serialpos": 6, "trial_type": "single-stim", "trial_index": 163, "time_elapsed": 701427, "internal_node_id": "0.0-118.0"}}, {"uniqueid": "MTK0962:3WJEQKOXA990O64CXJ0XZ6FSG69A1X", "current_trial": 164, "dateTime": 1512937612162, "trialdata": {"rt": -1, "stimulus": "<p id=\"stim\">ROBBER</p>", "key_press": -1, "type": "PRES_VIS", "word": "robber", "wordID": 1196, "conditions": [24, 800, "v", 24000], "trial": 4, "serialpos": 7, "trial_type": "single-stim", "trial_index": 164, "time_elapsed": 703331, "internal_node_id": "0.0-119.0"}}, {"uniqueid": "MTK0962:3WJEQKOXA990O64CXJ0XZ6FSG69A1X", "current_trial": 165, "dateTime": 1512937614104, "trialdata": {"rt": -1, "stimulus": "<p id=\"stim\">SKIRT</p>", "key_press": -1, "type": "PRES_VIS", "word": "skirt", "wordID": 1318, "conditions": [24, 800, "v", 24000], "trial": 4, "serialpos": 8, "trial_type": "single-stim", "trial_index": 165, "time_elapsed": 705273, "internal_node_id": "0.0-120.0"}}, {"uniqueid": "MTK0962:3WJEQKOXA990O64CXJ0XZ6FSG69A1X", "current_trial": 166, "dateTime": 1512937615893, "trialdata": {"rt": -1, "stimulus": "<p id=\"stim\">BLOUSE</p>", "key_press": -1, "type": "PRES_VIS", "word": "blouse", "wordID": 138, "conditions": [24, 800, "v", 24000], "trial": 4, "serialpos": 9, "trial_type": "single-stim", "trial_index": 166, "time_elapsed": 707062, "internal_node_id": "0.0-121.0"}}, {"uniqueid": "MTK0962:3WJEQKOXA990O64CXJ0XZ6FSG69A1X", "current_trial": 167, "dateTime": 1512937617501, "trialdata": {"rt": -1, "stimulus": "<p id=\"stim\">ROD</p>", "key_press": -1, "type": "PRES_VIS", "word": "rod", "wordID": 1202, "conditions": [24, 800, "v", 24000], "trial": 4, "serialpos": 10, "trial_type": "single-stim", "trial_index": 167, "time_elapsed": 708669, "internal_node_id": "0.0-122.0"}}, {"uniqueid": "MTK0962:3WJEQKOXA990O64CXJ0XZ6FSG69A1X", "current_trial": 168, "dateTime": 1512937619410, "trialdata": {"rt": -1, "stimulus": "<p id=\"stim\">BURGLAR</p>", "key_press": -1, "type": "PRES_VIS", "word": "burglar", "wordID": 199, "conditions": [24, 800, "v", 24000], "trial": 4, "serialpos": 11, "trial_type": "single-stim", "trial_index": 168, "time_elapsed": 710578, "internal_node_id": "0.0-123.0"}}, {"uniqueid": "MTK0962:3WJEQKOXA990O64CXJ0XZ6FSG69A1X", "current_trial": 169, "dateTime": 1512937621315, "trialdata": {"rt": -1, "stimulus": "<p id=\"stim\">LACE</p>", "key_press": -1, "type": "PRES_VIS", "word": "lace", "wordID": 791, "conditions": [24, 800, "v", 24000], "trial": 4, "serialpos": 12, "trial_type": "single-stim", "trial_index": 169, "time_elapsed": 712484, "internal_node_id": "0.0-124.0"}}, {"uniqueid": "MTK0962:3WJEQKOXA990O64CXJ0XZ6FSG69A1X", "current_trial": 170, "dateTime": 1512937622941, "trialdata": {"rt": -1, "stimulus": "<p id=\"stim\">CRAYON</p>", "key_press": -1, "type": "PRES_VIS", "word": "crayon", "wordID": 400, "conditions": [24, 800, "v", 24000], "trial": 4, "serialpos": 13, "trial_type": "single-stim", "trial_index": 170, "time_elapsed": 714109, "internal_node_id": "0.0-125.0"}}, {"uniqueid": "MTK0962:3WJEQKOXA990O64CXJ0XZ6FSG69A1X", "current_trial": 171, "dateTime": 1512937624763, "trialdata": {"rt": -1, "stimulus": "<p id=\"stim\">DONOR</p>", "key_press": -1, "type": "PRES_VIS", "word": "donor", "wordID": 484, "conditions": [24, 800, "v", 24000], "trial": 4, "serialpos": 14, "trial_type": "single-stim", "trial_index": 171, "time_elapsed": 715931, "internal_node_id": "0.0-126.0"}}, {"uniqueid": "MTK0962:3WJEQKOXA990O64CXJ0XZ6FSG69A1X", "current_trial": 172, "dateTime": 1512937626747, "trialdata": {"rt": -1, "stimulus": "<p id=\"stim\">ORANGE</p>", "key_press": -1, "type": "PRES_VIS", "word": "orange", "wordID": 979, "conditions": [24, 800, "v", 24000], "trial": 4, "serialpos": 15, "trial_type": "single-stim", "trial_index": 172, "time_elapsed": 717916, "internal_node_id": "0.0-127.0"}}, {"uniqueid": "MTK0962:3WJEQKOXA990O64CXJ0XZ6FSG69A1X", "current_trial": 173, "dateTime": 1512937628725, "trialdata": {"rt": -1, "stimulus": "<p id=\"stim\">FLUTE</p>", "key_press": -1, "type": "PRES_VIS", "word": "flute", "wordID": 584, "conditions": [24, 800, "v", 24000], "trial": 4, "serialpos": 16, "trial_type": "single-stim", "trial_index": 173, "time_elapsed": 719893, "internal_node_id": "0.0-128.0"}}, {"uniqueid": "MTK0962:3WJEQKOXA990O64CXJ0XZ6FSG69A1X", "current_trial": 174, "dateTime": 1512937630360, "trialdata": {"rt": -1, "stimulus": "<p id=\"stim\">VIKING</p>", "key_press": -1, "type": "PRES_VIS", "word": "viking", "wordID": 1564, "conditions": [24, 800, "v", 24000], "trial": 4, "serialpos": 17, "trial_type": "single-stim", "trial_index": 174, "time_elapsed": 721528, "internal_node_id": "0.0-129.0"}}, {"uniqueid": "MTK0962:3WJEQKOXA990O64CXJ0XZ6FSG69A1X", "current_trial": 175, "dateTime": 1512937632213, "trialdata": {"rt": -1, "stimulus": "<p id=\"stim\">MASK</p>", "key_press": -1, "type": "PRES_VIS", "word": "mask", "wordID": 875, "conditions": [24, 800, "v", 24000], "trial": 4, "serialpos": 18, "trial_type": "single-stim", "trial_index": 175, "time_elapsed": 723382, "internal_node_id": "0.0-130.0"}}, {"uniqueid": "MTK0962:3WJEQKOXA990O64CXJ0XZ6FSG69A1X", "current_trial": 176, "dateTime": 1512937633922, "trialdata": {"rt": -1, "stimulus": "<p id=\"stim\">FIDDLE</p>", "key_press": -1, "type": "PRES_VIS", "word": "fiddle", "wordID": 560, "conditions": [24, 800, "v", 24000], "trial": 4, "serialpos": 19, "trial_type": "single-stim", "trial_index": 176, "time_elapsed": 725090, "internal_node_id": "0.0-131.0"}}, {"uniqueid": "MTK0962:3WJEQKOXA990O64CXJ0XZ6FSG69A1X", "current_trial": 177, "dateTime": 1512937635566, "trialdata": {"rt": -1, "stimulus": "<p id=\"stim\">JUNGLE</p>", "key_press": -1, "type": "PRES_VIS", "word": "jungle", "wordID": 763, "conditions": [24, 800, "v", 24000], "trial": 4, "serialpos": 20, "trial_type": "single-stim", "trial_index": 177, "time_elapsed": 726735, "internal_node_id": "0.0-132.0"}}, {"uniqueid": "MTK0962:3WJEQKOXA990O64CXJ0XZ6FSG69A1X", "current_trial": 178, "dateTime": 1512937637427, "trialdata": {"rt": -1, "stimulus": "<p id=\"stim\">CREVICE</p>", "key_press": -1, "type": "PRES_VIS", "word": "crevice", "wordID": 404, "conditions": [24, 800, "v", 24000], "trial": 4, "serialpos": 21, "trial_type": "single-stim", "trial_index": 178, "time_elapsed": 728595, "internal_node_id": "0.0-133.0"}}, {"uniqueid": "MTK0962:3WJEQKOXA990O64CXJ0XZ6FSG69A1X", "current_trial": 179, "dateTime": 1512937639327, "trialdata": {"rt": -1, "stimulus": "<p id=\"stim\">SCALPEL</p>", "key_press": -1, "type": "PRES_VIS", "word": "scalpel", "wordID": 1242, "conditions": [24, 800, "v", 24000], "trial": 4, "serialpos": 22, "trial_type": "single-stim", "trial_index": 179, "time_elapsed": 730496, "internal_node_id": "0.0-134.0"}}, {"uniqueid": "MTK0962:3WJEQKOXA990O64CXJ0XZ6FSG69A1X", "current_trial": 180, "dateTime": 1512937640978, "trialdata": {"rt": -1, "stimulus": "<p id=\"stim\">SCISSORS</p>", "key_press": -1, "type": "PRES_VIS", "word": "scissors", "wordID": 1249, "conditions": [24, 800, "v", 24000], "trial": 4, "serialpos": 23, "trial_type": "single-stim", "trial_index": 180, "time_elapsed": 732147, "internal_node_id": "0.0-135.0"}}, {"uniqueid": "MTK0962:3WJEQKOXA990O64CXJ0XZ6FSG69A1X", "current_trial": 181, "dateTime": 1512937643008, "trialdata": {"rt": -1, "stimulus": "", "key_press": -1, "type": "PRE_RECALL_DELAY", "trial_type": "single-stim", "trial_index": 181, "time_elapsed": 734176, "internal_node_id": "0.0-136.0-0.0"}}, {"uniqueid": "MTK0962:3WJEQKOXA990O64CXJ0XZ6FSG69A1X", "current_trial": 182, "dateTime": 1512937643509, "trialdata": {"rt": -1000, "stimulus": "/static/audio/400Hz.wav", "key_press": -1, "type": "PRE_RECALL_ALERT", "trial_type": "single-audio", "trial_index": 182, "time_elapsed": 734678, "internal_node_id": "0.0-137.0"}}, {"uniqueid": "MTK0962:3WJEQKOXA990O64CXJ0XZ6FSG69A1X", "current_trial": 183, "dateTime": 1512937703516, "trialdata": {"rt": [3759, 5376, 6752, 8912, 10872, 12876, 13880, 14912, 17111, 18536, 20992, 23175, 25088, 28192, 30960, 36775, 39311], "recwords": ["ankle", "mammal", "donkey", "blouse", "meadow", "burglar", "lace", "donor", "orange", "viking", "mask", "fiddle", "crevice", "scissors", "tomboy", "window", "broken"], "type": "FREE_RECALL", "conditions": [24, 800, "v", 24000], "trial": 4, "trial_type": "free-recall", "trial_index": 183, "time_elapsed": 794680, "internal_node_id": "0.0-138.0-0.0"}}, {"uniqueid": "MTK0962:3WJEQKOXA990O64CXJ0XZ6FSG69A1X", "current_trial": 184, "dateTime": 1512937707710, "trialdata": {"rt": 2191, "key_press": 13, "type": "INSTRUCTIONS", "trial_type": "text", "trial_index": 184, "time_elapsed": 798879, "internal_node_id": "0.0-139.0"}}, {"uniqueid": "MTK0962:3WJEQKOXA990O64CXJ0XZ6FSG69A1X", "current_trial": 185, "dateTime": 1512937721714, "trialdata": {"rt": [1900, 4516, 8556, 11740], "responses": ["18", "8", "125", "15"], "num1": [5, 1, 7, 1, 5], "num2": [5, 4, 5, 8, 2], "num3": [8, 3, 3, 6, 4], "type": "DISTRACTOR", "conditions": [12, 800, "a", 12000], "trial": 5, "trial_type": "math-distractor", "trial_index": 185, "time_elapsed": 812883, "internal_node_id": "0.0-140.0"}}, {"uniqueid": "MTK0962:3WJEQKOXA990O64CXJ0XZ6FSG69A1X", "current_trial": 186, "dateTime": 1512937724718, "trialdata": {"rt": -1, "stimulus": "<p id=\"stim\">10</p>", "key_press": -1, "trial_type": "single-stim", "trial_index": 186, "time_elapsed": 815886, "internal_node_id": "0.0-141.0-0.0"}}, {"uniqueid": "MTK0962:3WJEQKOXA990O64CXJ0XZ6FSG69A1X", "current_trial": 187, "dateTime": 1512937725721, "trialdata": {"rt": -1, "stimulus": "<p id=\"stim\">9</p>", "key_press": -1, "trial_type": "single-stim", "trial_index": 187, "time_elapsed": 816890, "internal_node_id": "0.0-141.0-1.0"}}, {"uniqueid": "MTK0962:3WJEQKOXA990O64CXJ0XZ6FSG69A1X", "current_trial": 188, "dateTime": 1512937726729, "trialdata": {"rt": -1, "stimulus": "<p id=\"stim\">8</p>", "key_press": -1, "trial_type": "single-stim", "trial_index": 188, "time_elapsed": 817898, "internal_node_id": "0.0-141.0-2.0"}}, {"uniqueid": "MTK0962:3WJEQKOXA990O64CXJ0XZ6FSG69A1X", "current_trial": 189, "dateTime": 1512937727731, "trialdata": {"rt": -1, "stimulus": "<p id=\"stim\">7</p>", "key_press": -1, "trial_type": "single-stim", "trial_index": 189, "time_elapsed": 818900, "internal_node_id": "0.0-141.0-3.0"}}, {"uniqueid": "MTK0962:3WJEQKOXA990O64CXJ0XZ6FSG69A1X", "current_trial": 190, "dateTime": 1512937728733, "trialdata": {"rt": -1, "stimulus": "<p id=\"stim\">6</p>", "key_press": -1, "trial_type": "single-stim", "trial_index": 190, "time_elapsed": 819901, "internal_node_id": "0.0-141.0-4.0"}}, {"uniqueid": "MTK0962:3WJEQKOXA990O64CXJ0XZ6FSG69A1X", "current_trial": 191, "dateTime": 1512937729734, "trialdata": {"rt": -1, "stimulus": "<p id=\"stim\">5</p>", "key_press": -1, "trial_type": "single-stim", "trial_index": 191, "time_elapsed": 820903, "internal_node_id": "0.0-141.0-5.0"}}, {"uniqueid": "MTK0962:3WJEQKOXA990O64CXJ0XZ6FSG69A1X", "current_trial": 192, "dateTime": 1512937730736, "trialdata": {"rt": -1, "stimulus": "<p id=\"stim\">4</p>", "key_press": -1, "trial_type": "single-stim", "trial_index": 192, "time_elapsed": 821905, "internal_node_id": "0.0-141.0-6.0"}}, {"uniqueid": "MTK0962:3WJEQKOXA990O64CXJ0XZ6FSG69A1X", "current_trial": 193, "dateTime": 1512937731800, "trialdata": {"rt": -1, "stimulus": "<p id=\"stim\">3</p>", "key_press": -1, "trial_type": "single-stim", "trial_index": 193, "time_elapsed": 822969, "internal_node_id": "0.0-141.0-7.0"}}, {"uniqueid": "MTK0962:3WJEQKOXA990O64CXJ0XZ6FSG69A1X", "current_trial": 194, "dateTime": 1512937732812, "trialdata": {"rt": -1, "stimulus": "<p id=\"stim\">2</p>", "key_press": -1, "trial_type": "single-stim", "trial_index": 194, "time_elapsed": 823980, "internal_node_id": "0.0-141.0-8.0"}}, {"uniqueid": "MTK0962:3WJEQKOXA990O64CXJ0XZ6FSG69A1X", "current_trial": 195, "dateTime": 1512937733813, "trialdata": {"rt": -1, "stimulus": "<p id=\"stim\">1</p>", "key_press": -1, "trial_type": "single-stim", "trial_index": 195, "time_elapsed": 824982, "internal_node_id": "0.0-141.0-9.0"}}, {"uniqueid": "MTK0962:3WJEQKOXA990O64CXJ0XZ6FSG69A1X", "current_trial": 196, "dateTime": 1512937735316, "trialdata": {"rt": -1, "stimulus": "<p id=\"stim\">+</p>", "key_press": -1, "type": "FIXATION", "trial_type": "single-stim", "trial_index": 196, "time_elapsed": 826484, "internal_node_id": "0.0-142.0-0.0"}}, {"uniqueid": "MTK0962:3WJEQKOXA990O64CXJ0XZ6FSG69A1X", "current_trial": 197, "dateTime": 1512937736971, "trialdata": {"rt": -1000, "stimulus": "/static/audio/wordpool/HEDGE.wav", "key_press": -1, "type": "PRES_AUD", "word": "hedge", "wordID": 698, "conditions": [12, 800, "a", 12000], "trial": 5, "serialpos": 0, "trial_type": "single-audio", "trial_index": 197, "time_elapsed": 828140, "internal_node_id": "0.0-143.0"}}, {"uniqueid": "MTK0962:3WJEQKOXA990O64CXJ0XZ6FSG69A1X", "current_trial": 198, "dateTime": 1512937738901, "trialdata": {"rt": -1000, "stimulus": "/static/audio/wordpool/ZIPPER.wav", "key_press": -1, "type": "PRES_AUD", "word": "zipper", "wordID": 1635, "conditions": [12, 800, "a", 12000], "trial": 5, "serialpos": 1, "trial_type": "single-audio", "trial_index": 198, "time_elapsed": 830070, "internal_node_id": "0.0-144.0"}}, {"uniqueid": "MTK0962:3WJEQKOXA990O64CXJ0XZ6FSG69A1X", "current_trial": 199, "dateTime": 1512937740669, "trialdata": {"rt": -1000, "stimulus": "/static/audio/wordpool/LADY.wav", "key_press": -1, "type": "PRES_AUD", "word": "lady", "wordID": 793, "conditions": [12, 800, "a", 12000], "trial": 5, "serialpos": 2, "trial_type": "single-audio", "trial_index": 199, "time_elapsed": 831838, "internal_node_id": "0.0-145.0"}}, {"uniqueid": "MTK0962:3WJEQKOXA990O64CXJ0XZ6FSG69A1X", "current_trial": 200, "dateTime": 1512937742502, "trialdata": {"rt": -1000, "stimulus": "/static/audio/wordpool/CASKET.wav", "key_press": -1, "type": "PRES_AUD", "word": "casket", "wordID": 254, "conditions": [12, 800, "a", 12000], "trial": 5, "serialpos": 3, "trial_type": "single-audio", "trial_index": 200, "time_elapsed": 833671, "internal_node_id": "0.0-146.0"}}, {"uniqueid": "MTK0962:3WJEQKOXA990O64CXJ0XZ6FSG69A1X", "current_trial": 201, "dateTime": 1512937744362, "trialdata": {"rt": -1000, "stimulus": "/static/audio/wordpool/LILY.wav", "key_press": -1, "type": "PRES_AUD", "word": "lily", "wordID": 820, "conditions": [12, 800, "a", 12000], "trial": 5, "serialpos": 4, "trial_type": "single-audio", "trial_index": 201, "time_elapsed": 835531, "internal_node_id": "0.0-147.0"}}, {"uniqueid": "MTK0962:3WJEQKOXA990O64CXJ0XZ6FSG69A1X", "current_trial": 202, "dateTime": 1512937746130, "trialdata": {"rt": -1000, "stimulus": "/static/audio/wordpool/BUREAU.wav", "key_press": -1, "type": "PRES_AUD", "word": "bureau", "wordID": 198, "conditions": [12, 800, "a", 12000], "trial": 5, "serialpos": 5, "trial_type": "single-audio", "trial_index": 202, "time_elapsed": 837299, "internal_node_id": "0.0-148.0"}}, {"uniqueid": "MTK0962:3WJEQKOXA990O64CXJ0XZ6FSG69A1X", "current_trial": 203, "dateTime": 1512937747821, "trialdata": {"rt": -1000, "stimulus": "/static/audio/wordpool/SIBLING.wav", "key_press": -1, "type": "PRES_AUD", "word": "sibling", "wordID": 1300, "conditions": [12, 800, "a", 12000], "trial": 5, "serialpos": 6, "trial_type": "single-audio", "trial_index": 203, "time_elapsed": 838990, "internal_node_id": "0.0-149.0"}}, {"uniqueid": "MTK0962:3WJEQKOXA990O64CXJ0XZ6FSG69A1X", "current_trial": 204, "dateTime": 1512937749474, "trialdata": {"rt": -1000, "stimulus": "/static/audio/wordpool/MONSTER.wav", "key_press": -1, "type": "PRES_AUD", "word": "monster", "wordID": 911, "conditions": [12, 800, "a", 12000], "trial": 5, "serialpos": 7, "trial_type": "single-audio", "trial_index": 204, "time_elapsed": 840643, "internal_node_id": "0.0-150.0"}}, {"uniqueid": "MTK0962:3WJEQKOXA990O64CXJ0XZ6FSG69A1X", "current_trial": 205, "dateTime": 1512937751360, "trialdata": {"rt": -1000, "stimulus": "/static/audio/wordpool/CREATURE.wav", "key_press": -1, "type": "PRES_AUD", "word": "creature", "wordID": 402, "conditions": [12, 800, "a", 12000], "trial": 5, "serialpos": 8, "trial_type": "single-audio", "trial_index": 205, "time_elapsed": 842528, "internal_node_id": "0.0-151.0"}}, {"uniqueid": "MTK0962:3WJEQKOXA990O64CXJ0XZ6FSG69A1X", "current_trial": 206, "dateTime": 1512937753126, "trialdata": {"rt": -1000, "stimulus": "/static/audio/wordpool/AUTHOR.wav", "key_press": -1, "type": "PRES_AUD", "word": "author", "wordID": 60, "conditions": [12, 800, "a", 12000], "trial": 5, "serialpos": 9, "trial_type": "single-audio", "trial_index": 206, "time_elapsed": 844295, "internal_node_id": "0.0-152.0"}}, {"uniqueid": "MTK0962:3WJEQKOXA990O64CXJ0XZ6FSG69A1X", "current_trial": 207, "dateTime": 1512937754754, "trialdata": {"rt": -1000, "stimulus": "/static/audio/wordpool/BRANCH.wav", "key_press": -1, "type": "PRES_AUD", "word": "branch", "wordID": 167, "conditions": [12, 800, "a", 12000], "trial": 5, "serialpos": 10, "trial_type": "single-audio", "trial_index": 207, "time_elapsed": 845923, "internal_node_id": "0.0-153.0"}}, {"uniqueid": "MTK0962:3WJEQKOXA990O64CXJ0XZ6FSG69A1X", "current_trial": 208, "dateTime": 1512937756456, "trialdata": {"rt": -1000, "stimulus": "/static/audio/wordpool/COUSIN.wav", "key_press": -1, "type": "PRES_AUD", "word": "cousin", "wordID": 391, "conditions": [12, 800, "a", 12000], "trial": 5, "serialpos": 11, "trial_type": "single-audio", "trial_index": 208, "time_elapsed": 847625, "internal_node_id": "0.0-154.0"}}, {"uniqueid": "MTK0962:3WJEQKOXA990O64CXJ0XZ6FSG69A1X", "current_trial": 209, "dateTime": 1512937757759, "trialdata": {"rt": -1, "stimulus": "", "key_press": -1, "type": "PRE_RECALL_DELAY", "trial_type": "single-stim", "trial_index": 209, "time_elapsed": 848928, "internal_node_id": "0.0-155.0-0.0"}}, {"uniqueid": "MTK0962:3WJEQKOXA990O64CXJ0XZ6FSG69A1X", "current_trial": 210, "dateTime": 1512937758260, "trialdata": {"rt": -1000, "stimulus": "/static/audio/400Hz.wav", "key_press": -1, "type": "PRE_RECALL_ALERT", "trial_type": "single-audio", "trial_index": 210, "time_elapsed": 849429, "internal_node_id": "0.0-156.0"}}, {"uniqueid": "MTK0962:3WJEQKOXA990O64CXJ0XZ6FSG69A1X", "current_trial": 211, "dateTime": 1512937818265, "trialdata": {"rt": [2569, 3944, 5601, 6786, 8825, 10760, 12784, 14232, 16568, 18097, 19825, 21928, 23082, 25041, 26489, 29440, 33816, 38768, 44217], "recwords": ["hedge", "zipper", "lady", "casket", "lilly", "bureau", "sibling", "monster", "preacher", "author", "branch", "cousin", "aunt", "boy", "man", "girl", "ledge", "funeral", "dresser"], "type": "FREE_RECALL", "conditions": [12, 800, "a", 12000], "trial": 5, "trial_type": "free-recall", "trial_index": 211, "time_elapsed": 909432, "internal_node_id": "0.0-157.0-0.0"}}, {"uniqueid": "MTK0962:3WJEQKOXA990O64CXJ0XZ6FSG69A1X", "current_trial": 212, "dateTime": 1512937824406, "trialdata": {"rt": 4140, "key_press": 13, "type": "INSTRUCTIONS", "trial_type": "text", "trial_index": 212, "time_elapsed": 915575, "internal_node_id": "0.0-158.0"}}, {"uniqueid": "MTK0962:3WJEQKOXA990O64CXJ0XZ6FSG69A1X", "current_trial": 213, "dateTime": 1512937850409, "trialdata": {"rt": [2022, 5342, 7727, 10246, 12414, 14399, 16878, 19094, 21414, 23214], "responses": ["14", "20", "6", "19", "17", "14", "8", "9", "19", "12"], "num1": [7, 9, 4, 7, 8, 5, 2, 5, 8, 3, 8], "num2": [2, 4, 4, 6, 3, 4, 4, 2, 6, 7, 3], "num3": [5, 7, 1, 6, 6, 5, 2, 2, 5, 2, 9], "type": "DISTRACTOR", "conditions": [12, 1600, "a", 24000], "trial": 6, "trial_type": "math-distractor", "trial_index": 213, "time_elapsed": 941578, "internal_node_id": "0.0-159.0"}}, {"uniqueid": "MTK0962:3WJEQKOXA990O64CXJ0XZ6FSG69A1X", "current_trial": 214, "dateTime": 1512937853412, "trialdata": {"rt": -1, "stimulus": "<p id=\"stim\">10</p>", "key_press": -1, "trial_type": "single-stim", "trial_index": 214, "time_elapsed": 944581, "internal_node_id": "0.0-160.0-0.0"}}, {"uniqueid": "MTK0962:3WJEQKOXA990O64CXJ0XZ6FSG69A1X", "current_trial": 215, "dateTime": 1512937854415, "trialdata": {"rt": -1, "stimulus": "<p id=\"stim\">9</p>", "key_press": -1, "trial_type": "single-stim", "trial_index": 215, "time_elapsed": 945583, "internal_node_id": "0.0-160.0-1.0"}}, {"uniqueid": "MTK0962:3WJEQKOXA990O64CXJ0XZ6FSG69A1X", "current_trial": 216, "dateTime": 1512937855417, "trialdata": {"rt": -1, "stimulus": "<p id=\"stim\">8</p>", "key_press": -1, "trial_type": "single-stim", "trial_index": 216, "time_elapsed": 946585, "internal_node_id": "0.0-160.0-2.0"}}, {"uniqueid": "MTK0962:3WJEQKOXA990O64CXJ0XZ6FSG69A1X", "current_trial": 217, "dateTime": 1512937856418, "trialdata": {"rt": -1, "stimulus": "<p id=\"stim\">7</p>", "key_press": -1, "trial_type": "single-stim", "trial_index": 217, "time_elapsed": 947586, "internal_node_id": "0.0-160.0-3.0"}}, {"uniqueid": "MTK0962:3WJEQKOXA990O64CXJ0XZ6FSG69A1X", "current_trial": 218, "dateTime": 1512937857421, "trialdata": {"rt": -1, "stimulus": "<p id=\"stim\">6</p>", "key_press": -1, "trial_type": "single-stim", "trial_index": 218, "time_elapsed": 948589, "internal_node_id": "0.0-160.0-4.0"}}, {"uniqueid": "MTK0962:3WJEQKOXA990O64CXJ0XZ6FSG69A1X", "current_trial": 219, "dateTime": 1512937858423, "trialdata": {"rt": -1, "stimulus": "<p id=\"stim\">5</p>", "key_press": -1, "trial_type": "single-stim", "trial_index": 219, "time_elapsed": 949591, "internal_node_id": "0.0-160.0-5.0"}}, {"uniqueid": "MTK0962:3WJEQKOXA990O64CXJ0XZ6FSG69A1X", "current_trial": 220, "dateTime": 1512937859424, "trialdata": {"rt": -1, "stimulus": "<p id=\"stim\">4</p>", "key_press": -1, "trial_type": "single-stim", "trial_index": 220, "time_elapsed": 950592, "internal_node_id": "0.0-160.0-6.0"}}, {"uniqueid": "MTK0962:3WJEQKOXA990O64CXJ0XZ6FSG69A1X", "current_trial": 221, "dateTime": 1512937860427, "trialdata": {"rt": -1, "stimulus": "<p id=\"stim\">3</p>", "key_press": -1, "trial_type": "single-stim", "trial_index": 221, "time_elapsed": 951596, "internal_node_id": "0.0-160.0-7.0"}}, {"uniqueid": "MTK0962:3WJEQKOXA990O64CXJ0XZ6FSG69A1X", "current_trial": 222, "dateTime": 1512937861429, "trialdata": {"rt": -1, "stimulus": "<p id=\"stim\">2</p>", "key_press": -1, "trial_type": "single-stim", "trial_index": 222, "time_elapsed": 952597, "internal_node_id": "0.0-160.0-8.0"}}, {"uniqueid": "MTK0962:3WJEQKOXA990O64CXJ0XZ6FSG69A1X", "current_trial": 223, "dateTime": 1512937862430, "trialdata": {"rt": -1, "stimulus": "<p id=\"stim\">1</p>", "key_press": -1, "trial_type": "single-stim", "trial_index": 223, "time_elapsed": 953599, "internal_node_id": "0.0-160.0-9.0"}}, {"uniqueid": "MTK0962:3WJEQKOXA990O64CXJ0XZ6FSG69A1X", "current_trial": 224, "dateTime": 1512937863933, "trialdata": {"rt": -1, "stimulus": "<p id=\"stim\">+</p>", "key_press": -1, "type": "FIXATION", "trial_type": "single-stim", "trial_index": 224, "time_elapsed": 955102, "internal_node_id": "0.0-161.0-0.0"}}, {"uniqueid": "MTK0962:3WJEQKOXA990O64CXJ0XZ6FSG69A1X", "current_trial": 225, "dateTime": 1512937866458, "trialdata": {"rt": -1000, "stimulus": "/static/audio/wordpool/ANTLER.wav", "key_press": -1, "type": "PRES_AUD", "word": "antler", "wordID": 28, "conditions": [12, 1600, "a", 24000], "trial": 6, "serialpos": 0, "trial_type": "single-audio", "trial_index": 225, "time_elapsed": 957627, "internal_node_id": "0.0-162.0"}}, {"uniqueid": "MTK0962:3WJEQKOXA990O64CXJ0XZ6FSG69A1X", "current_trial": 226, "dateTime": 1512937869190, "trialdata": {"rt": -1000, "stimulus": "/static/audio/wordpool/SHERIFF.wav", "key_press": -1, "type": "PRES_AUD", "word": "sheriff", "wordID": 1283, "conditions": [12, 1600, "a", 24000], "trial": 6, "serialpos": 1, "trial_type": "single-audio", "trial_index": 226, "time_elapsed": 960359, "internal_node_id": "0.0-163.0"}}, {"uniqueid": "MTK0962:3WJEQKOXA990O64CXJ0XZ6FSG69A1X", "current_trial": 227, "dateTime": 1512937871928, "trialdata": {"rt": -1000, "stimulus": "/static/audio/wordpool/SCALLOP.wav", "key_press": -1, "type": "PRES_AUD", "word": "scallop", "wordID": 1241, "conditions": [12, 1600, "a", 24000], "trial": 6, "serialpos": 2, "trial_type": "single-audio", "trial_index": 227, "time_elapsed": 963097, "internal_node_id": "0.0-164.0"}}, {"uniqueid": "MTK0962:3WJEQKOXA990O64CXJ0XZ6FSG69A1X", "current_trial": 228, "dateTime": 1512937874347, "trialdata": {"rt": -1000, "stimulus": "/static/audio/wordpool/FRAGRANCE.wav", "key_press": -1, "type": "PRES_AUD", "word": "fragrance", "wordID": 598, "conditions": [12, 1600, "a", 24000], "trial": 6, "serialpos": 3, "trial_type": "single-audio", "trial_index": 228, "time_elapsed": 965516, "internal_node_id": "0.0-165.0"}}, {"uniqueid": "MTK0962:3WJEQKOXA990O64CXJ0XZ6FSG69A1X", "current_trial": 229, "dateTime": 1512937876970, "trialdata": {"rt": -1000, "stimulus": "/static/audio/wordpool/RAZOR.wav", "key_press": -1, "type": "PRES_AUD", "word": "razor", "wordID": 1170, "conditions": [12, 1600, "a", 24000], "trial": 6, "serialpos": 4, "trial_type": "single-audio", "trial_index": 229, "time_elapsed": 968138, "internal_node_id": "0.0-166.0"}}, {"uniqueid": "MTK0962:3WJEQKOXA990O64CXJ0XZ6FSG69A1X", "current_trial": 230, "dateTime": 1512937879593, "trialdata": {"rt": -1000, "stimulus": "/static/audio/wordpool/KNIFE.wav", "key_press": -1, "type": "PRES_AUD", "word": "knife", "wordID": 784, "conditions": [12, 1600, "a", 24000], "trial": 6, "serialpos": 5, "trial_type": "single-audio", "trial_index": 230, "time_elapsed": 970762, "internal_node_id": "0.0-167.0"}}, {"uniqueid": "MTK0962:3WJEQKOXA990O64CXJ0XZ6FSG69A1X", "current_trial": 231, "dateTime": 1512937882070, "trialdata": {"rt": -1000, "stimulus": "/static/audio/wordpool/APRON.wav", "key_press": -1, "type": "PRES_AUD", "word": "apron", "wordID": 34, "conditions": [12, 1600, "a", 24000], "trial": 6, "serialpos": 6, "trial_type": "single-audio", "trial_index": 231, "time_elapsed": 973239, "internal_node_id": "0.0-168.0"}}, {"uniqueid": "MTK0962:3WJEQKOXA990O64CXJ0XZ6FSG69A1X", "current_trial": 232, "dateTime": 1512937884839, "trialdata": {"rt": -1000, "stimulus": "/static/audio/wordpool/PEACH.wav", "key_press": -1, "type": "PRES_AUD", "word": "peach", "wordID": 1030, "conditions": [12, 1600, "a", 24000], "trial": 6, "serialpos": 7, "trial_type": "single-audio", "trial_index": 232, "time_elapsed": 976008, "internal_node_id": "0.0-169.0"}}, {"uniqueid": "MTK0962:3WJEQKOXA990O64CXJ0XZ6FSG69A1X", "current_trial": 233, "dateTime": 1512937887557, "trialdata": {"rt": -1000, "stimulus": "/static/audio/wordpool/FLASK.wav", "key_press": -1, "type": "PRES_AUD", "word": "flask", "wordID": 575, "conditions": [12, 1600, "a", 24000], "trial": 6, "serialpos": 8, "trial_type": "single-audio", "trial_index": 233, "time_elapsed": 978726, "internal_node_id": "0.0-170.0"}}, {"uniqueid": "MTK0962:3WJEQKOXA990O64CXJ0XZ6FSG69A1X", "current_trial": 234, "dateTime": 1512937890209, "trialdata": {"rt": -1000, "stimulus": "/static/audio/wordpool/ROOSTER.wav", "key_press": -1, "type": "PRES_AUD", "word": "rooster", "wordID": 1208, "conditions": [12, 1600, "a", 24000], "trial": 6, "serialpos": 9, "trial_type": "single-audio", "trial_index": 234, "time_elapsed": 981378, "internal_node_id": "0.0-171.0"}}, {"uniqueid": "MTK0962:3WJEQKOXA990O64CXJ0XZ6FSG69A1X", "current_trial": 235, "dateTime": 1512937892905, "trialdata": {"rt": -1000, "stimulus": "/static/audio/wordpool/PLAID.wav", "key_press": -1, "type": "PRES_AUD", "word": "plaid", "wordID": 1079, "conditions": [12, 1600, "a", 24000], "trial": 6, "serialpos": 10, "trial_type": "single-audio", "trial_index": 235, "time_elapsed": 984074, "internal_node_id": "0.0-172.0"}}, {"uniqueid": "MTK0962:3WJEQKOXA990O64CXJ0XZ6FSG69A1X", "current_trial": 236, "dateTime": 1512937895439, "trialdata": {"rt": -1000, "stimulus": "/static/audio/wordpool/CITRUS.wav", "key_press": -1, "type": "PRES_AUD", "word": "citrus", "wordID": 312, "conditions": [12, 1600, "a", 24000], "trial": 6, "serialpos": 11, "trial_type": "single-audio", "trial_index": 236, "time_elapsed": 986608, "internal_node_id": "0.0-173.0"}}, {"uniqueid": "MTK0962:3WJEQKOXA990O64CXJ0XZ6FSG69A1X", "current_trial": 237, "dateTime": 1512937896807, "trialdata": {"rt": -1, "stimulus": "", "key_press": -1, "type": "PRE_RECALL_DELAY", "trial_type": "single-stim", "trial_index": 237, "time_elapsed": 987976, "internal_node_id": "0.0-174.0-0.0"}}, {"uniqueid": "MTK0962:3WJEQKOXA990O64CXJ0XZ6FSG69A1X", "current_trial": 238, "dateTime": 1512937897309, "trialdata": {"rt": -1000, "stimulus": "/static/audio/400Hz.wav", "key_press": -1, "type": "PRE_RECALL_ALERT", "trial_type": "single-audio", "trial_index": 238, "time_elapsed": 988478, "internal_node_id": "0.0-175.0"}}, {"uniqueid": "MTK0962:3WJEQKOXA990O64CXJ0XZ6FSG69A1X", "current_trial": 239, "dateTime": 1512937957322, "trialdata": {"rt": [7366, 11214, 13773, 16014, 17750, 23941, 25325, 28622, 30421, 31782, 36381, 42829, 55085], "recwords": ["antler", "sheriff", "scallop", "finger", "razer", "apron", "peach", "flask", "rooster", "flag", "citrus", "knife", ""], "type": "FREE_RECALL", "conditions": [12, 1600, "a", 24000], "trial": 6, "trial_type": "free-recall", "trial_index": 239, "time_elapsed": 1048483, "internal_node_id": "0.0-176.0-0.0"}}, {"uniqueid": "MTK0962:3WJEQKOXA990O64CXJ0XZ6FSG69A1X", "current_trial": 240, "dateTime": 1512937960926, "trialdata": {"rt": 1601, "key_press": 13, "type": "INSTRUCTIONS", "trial_type": "text", "trial_index": 240, "time_elapsed": 1052095, "internal_node_id": "0.0-177.0"}}, {"uniqueid": "MTK0962:3WJEQKOXA990O64CXJ0XZ6FSG69A1X", "current_trial": 241, "dateTime": 1512937974931, "trialdata": {"rt": [4172, 5804, 8180, 10165], "responses": ["18", "9", "16", "13"], "num1": [7, 3, 7, 1, 3], "num2": [7, 3, 4, 3, 9], "num3": [4, 3, 5, 9, 5], "type": "DISTRACTOR", "conditions": [24, 800, "v", 12000], "trial": 7, "trial_type": "math-distractor", "trial_index": 241, "time_elapsed": 1066100, "internal_node_id": "0.0-178.0"}}, {"uniqueid": "MTK0962:3WJEQKOXA990O64CXJ0XZ6FSG69A1X", "current_trial": 242, "dateTime": 1512937977934, "trialdata": {"rt": -1, "stimulus": "<p id=\"stim\">10</p>", "key_press": -1, "trial_type": "single-stim", "trial_index": 242, "time_elapsed": 1069102, "internal_node_id": "0.0-179.0-0.0"}}, {"uniqueid": "MTK0962:3WJEQKOXA990O64CXJ0XZ6FSG69A1X", "current_trial": 243, "dateTime": 1512937978937, "trialdata": {"rt": -1, "stimulus": "<p id=\"stim\">9</p>", "key_press": -1, "trial_type": "single-stim", "trial_index": 243, "time_elapsed": 1070106, "internal_node_id": "0.0-179.0-1.0"}}, {"uniqueid": "MTK0962:3WJEQKOXA990O64CXJ0XZ6FSG69A1X", "current_trial": 244, "dateTime": 1512937979938, "trialdata": {"rt": -1, "stimulus": "<p id=\"stim\">8</p>", "key_press": -1, "trial_type": "single-stim", "trial_index": 244, "time_elapsed": 1071107, "internal_node_id": "0.0-179.0-2.0"}}, {"uniqueid": "MTK0962:3WJEQKOXA990O64CXJ0XZ6FSG69A1X", "current_trial": 245, "dateTime": 1512937980941, "trialdata": {"rt": -1, "stimulus": "<p id=\"stim\">7</p>", "key_press": -1, "trial_type": "single-stim", "trial_index": 245, "time_elapsed": 1072109, "internal_node_id": "0.0-179.0-3.0"}}, {"uniqueid": "MTK0962:3WJEQKOXA990O64CXJ0XZ6FSG69A1X", "current_trial": 246, "dateTime": 1512937981943, "trialdata": {"rt": -1, "stimulus": "<p id=\"stim\">6</p>", "key_press": -1, "trial_type": "single-stim", "trial_index": 246, "time_elapsed": 1073111, "internal_node_id": "0.0-179.0-4.0"}}, {"uniqueid": "MTK0962:3WJEQKOXA990O64CXJ0XZ6FSG69A1X", "current_trial": 247, "dateTime": 1512937982945, "trialdata": {"rt": -1, "stimulus": "<p id=\"stim\">5</p>", "key_press": -1, "trial_type": "single-stim", "trial_index": 247, "time_elapsed": 1074113, "internal_node_id": "0.0-179.0-5.0"}}, {"uniqueid": "MTK0962:3WJEQKOXA990O64CXJ0XZ6FSG69A1X", "current_trial": 248, "dateTime": 1512937983946, "trialdata": {"rt": -1, "stimulus": "<p id=\"stim\">4</p>", "key_press": -1, "trial_type": "single-stim", "trial_index": 248, "time_elapsed": 1075115, "internal_node_id": "0.0-179.0-6.0"}}, {"uniqueid": "MTK0962:3WJEQKOXA990O64CXJ0XZ6FSG69A1X", "current_trial": 249, "dateTime": 1512937984948, "trialdata": {"rt": -1, "stimulus": "<p id=\"stim\">3</p>", "key_press": -1, "trial_type": "single-stim", "trial_index": 249, "time_elapsed": 1076117, "internal_node_id": "0.0-179.0-7.0"}}, {"uniqueid": "MTK0962:3WJEQKOXA990O64CXJ0XZ6FSG69A1X", "current_trial": 250, "dateTime": 1512937985950, "trialdata": {"rt": -1, "stimulus": "<p id=\"stim\">2</p>", "key_press": -1, "trial_type": "single-stim", "trial_index": 250, "time_elapsed": 1077118, "internal_node_id": "0.0-179.0-8.0"}}, {"uniqueid": "MTK0962:3WJEQKOXA990O64CXJ0XZ6FSG69A1X", "current_trial": 251, "dateTime": 1512937986952, "trialdata": {"rt": -1, "stimulus": "<p id=\"stim\">1</p>", "key_press": -1, "trial_type": "single-stim", "trial_index": 251, "time_elapsed": 1078121, "internal_node_id": "0.0-179.0-9.0"}}, {"uniqueid": "MTK0962:3WJEQKOXA990O64CXJ0XZ6FSG69A1X", "current_trial": 252, "dateTime": 1512937988454, "trialdata": {"rt": -1, "stimulus": "<p id=\"stim\">+</p>", "key_press": -1, "type": "FIXATION", "trial_type": "single-stim", "trial_index": 252, "time_elapsed": 1079622, "internal_node_id": "0.0-180.0-0.0"}}, {"uniqueid": "MTK0962:3WJEQKOXA990O64CXJ0XZ6FSG69A1X", "current_trial": 253, "dateTime": 1512937989255, "trialdata": {"rt": -1, "stimulus": "<p id=\"stim\">SWIMMER</p>", "key_press": -1, "type": "PRES_VIS", "word": "swimmer", "wordID": 1419, "conditions": [24, 800, "v", 12000], "trial": 7, "serialpos": 0, "trial_type": "single-stim", "trial_index": 253, "time_elapsed": 1080424, "internal_node_id": "0.0-181.0"}}, {"uniqueid": "MTK0962:3WJEQKOXA990O64CXJ0XZ6FSG69A1X", "current_trial": 254, "dateTime": 1512937990884, "trialdata": {"rt": -1, "stimulus": "<p id=\"stim\">DIVER</p>", "key_press": -1, "type": "PRES_VIS", "word": "diver", "wordID": 475, "conditions": [24, 800, "v", 12000], "trial": 7, "serialpos": 1, "trial_type": "single-stim", "trial_index": 254, "time_elapsed": 1082053, "internal_node_id": "0.0-182.0"}}, {"uniqueid": "MTK0962:3WJEQKOXA990O64CXJ0XZ6FSG69A1X", "current_trial": 255, "dateTime": 1512937992778, "trialdata": {"rt": -1, "stimulus": "<p id=\"stim\">NIGHTGOWN</p>", "key_press": -1, "type": "PRES_VIS", "word": "nightgown", "wordID": 952, "conditions": [24, 800, "v", 12000], "trial": 7, "serialpos": 2, "trial_type": "single-stim", "trial_index": 255, "time_elapsed": 1083947, "internal_node_id": "0.0-183.0"}}, {"uniqueid": "MTK0962:3WJEQKOXA990O64CXJ0XZ6FSG69A1X", "current_trial": 256, "dateTime": 1512937994422, "trialdata": {"rt": -1, "stimulus": "<p id=\"stim\">CRUTCH</p>", "key_press": -1, "type": "PRES_VIS", "word": "crutch", "wordID": 416, "conditions": [24, 800, "v", 12000], "trial": 7, "serialpos": 3, "trial_type": "single-stim", "trial_index": 256, "time_elapsed": 1085591, "internal_node_id": "0.0-184.0"}}, {"uniqueid": "MTK0962:3WJEQKOXA990O64CXJ0XZ6FSG69A1X", "current_trial": 257, "dateTime": 1512937996390, "trialdata": {"rt": -1, "stimulus": "<p id=\"stim\">SHRUB</p>", "key_press": -1, "type": "PRES_VIS", "word": "shrub", "wordID": 1298, "conditions": [24, 800, "v", 12000], "trial": 7, "serialpos": 4, "trial_type": "single-stim", "trial_index": 257, "time_elapsed": 1087559, "internal_node_id": "0.0-185.0"}}, {"uniqueid": "MTK0962:3WJEQKOXA990O64CXJ0XZ6FSG69A1X", "current_trial": 258, "dateTime": 1512937998229, "trialdata": {"rt": -1, "stimulus": "<p id=\"stim\">CRITIC</p>", "key_press": -1, "type": "PRES_VIS", "word": "critic", "wordID": 409, "conditions": [24, 800, "v", 12000], "trial": 7, "serialpos": 5, "trial_type": "single-stim", "trial_index": 258, "time_elapsed": 1089397, "internal_node_id": "0.0-186.0"}}, {"uniqueid": "MTK0962:3WJEQKOXA990O64CXJ0XZ6FSG69A1X", "current_trial": 259, "dateTime": 1512938000159, "trialdata": {"rt": -1, "stimulus": "<p id=\"stim\">PORTRAIT</p>", "key_press": -1, "type": "PRES_VIS", "word": "portrait", "wordID": 1110, "conditions": [24, 800, "v", 12000], "trial": 7, "serialpos": 6, "trial_type": "single-stim", "trial_index": 259, "time_elapsed": 1091327, "internal_node_id": "0.0-187.0"}}, {"uniqueid": "MTK0962:3WJEQKOXA990O64CXJ0XZ6FSG69A1X", "current_trial": 260, "dateTime": 1512938001840, "trialdata": {"rt": -1, "stimulus": "<p id=\"stim\">BACKBONE</p>", "key_press": -1, "type": "PRES_VIS", "word": "backbone", "wordID": 65, "conditions": [24, 800, "v", 12000], "trial": 7, "serialpos": 7, "trial_type": "single-stim", "trial_index": 260, "time_elapsed": 1093008, "internal_node_id": "0.0-188.0"}}, {"uniqueid": "MTK0962:3WJEQKOXA990O64CXJ0XZ6FSG69A1X", "current_trial": 261, "dateTime": 1512938003553, "trialdata": {"rt": -1, "stimulus": "<p id=\"stim\">GUITAR</p>", "key_press": -1, "type": "PRES_VIS", "word": "guitar", "wordID": 669, "conditions": [24, 800, "v", 12000], "trial": 7, "serialpos": 8, "trial_type": "single-stim", "trial_index": 261, "time_elapsed": 1094721, "internal_node_id": "0.0-189.0"}}, {"uniqueid": "MTK0962:3WJEQKOXA990O64CXJ0XZ6FSG69A1X", "current_trial": 262, "dateTime": 1512938005522, "trialdata": {"rt": -1, "stimulus": "<p id=\"stim\">FIREPLACE</p>", "key_press": -1, "type": "PRES_VIS", "word": "fireplace", "wordID": 569, "conditions": [24, 800, "v", 12000], "trial": 7, "serialpos": 9, "trial_type": "single-stim", "trial_index": 262, "time_elapsed": 1096691, "internal_node_id": "0.0-190.0"}}, {"uniqueid": "MTK0962:3WJEQKOXA990O64CXJ0XZ6FSG69A1X", "current_trial": 263, "dateTime": 1512938007360, "trialdata": {"rt": -1, "stimulus": "<p id=\"stim\">SERVANT</p>", "key_press": -1, "type": "PRES_VIS", "word": "servant", "wordID": 1270, "conditions": [24, 800, "v", 12000], "trial": 7, "serialpos": 10, "trial_type": "single-stim", "trial_index": 263, "time_elapsed": 1098528, "internal_node_id": "0.0-191.0"}}, {"uniqueid": "MTK0962:3WJEQKOXA990O64CXJ0XZ6FSG69A1X", "current_trial": 264, "dateTime": 1512938009314, "trialdata": {"rt": -1, "stimulus": "<p id=\"stim\">CLOTHES</p>", "key_press": -1, "type": "PRES_VIS", "word": "clothes", "wordID": 326, "conditions": [24, 800, "v", 12000], "trial": 7, "serialpos": 11, "trial_type": "single-stim", "trial_index": 264, "time_elapsed": 1100483, "internal_node_id": "0.0-192.0"}}, {"uniqueid": "MTK0962:3WJEQKOXA990O64CXJ0XZ6FSG69A1X", "current_trial": 265, "dateTime": 1512938011152, "trialdata": {"rt": -1, "stimulus": "<p id=\"stim\">DOLPHIN</p>", "key_press": -1, "type": "PRES_VIS", "word": "dolphin", "wordID": 482, "conditions": [24, 800, "v", 12000], "trial": 7, "serialpos": 12, "trial_type": "single-stim", "trial_index": 265, "time_elapsed": 1102320, "internal_node_id": "0.0-193.0"}}, {"uniqueid": "MTK0962:3WJEQKOXA990O64CXJ0XZ6FSG69A1X", "current_trial": 266, "dateTime": 1512938012762, "trialdata": {"rt": -1, "stimulus": "<p id=\"stim\">SOFTBALL</p>", "key_press": -1, "type": "PRES_VIS", "word": "softball", "wordID": 1342, "conditions": [24, 800, "v", 12000], "trial": 7, "serialpos": 13, "trial_type": "single-stim", "trial_index": 266, "time_elapsed": 1103930, "internal_node_id": "0.0-194.0"}}, {"uniqueid": "MTK0962:3WJEQKOXA990O64CXJ0XZ6FSG69A1X", "current_trial": 267, "dateTime": 1512938014603, "trialdata": {"rt": -1, "stimulus": "<p id=\"stim\">CROWN</p>", "key_press": -1, "type": "PRES_VIS", "word": "crown", "wordID": 414, "conditions": [24, 800, "v", 12000], "trial": 7, "serialpos": 14, "trial_type": "single-stim", "trial_index": 267, "time_elapsed": 1105771, "internal_node_id": "0.0-195.0"}}, {"uniqueid": "MTK0962:3WJEQKOXA990O64CXJ0XZ6FSG69A1X", "current_trial": 268, "dateTime": 1512938016576, "trialdata": {"rt": -1, "stimulus": "<p id=\"stim\">HARP</p>", "key_press": -1, "type": "PRES_VIS", "word": "harp", "wordID": 688, "conditions": [24, 800, "v", 12000], "trial": 7, "serialpos": 15, "trial_type": "single-stim", "trial_index": 268, "time_elapsed": 1107745, "internal_node_id": "0.0-196.0"}}, {"uniqueid": "MTK0962:3WJEQKOXA990O64CXJ0XZ6FSG69A1X", "current_trial": 269, "dateTime": 1512938018464, "trialdata": {"rt": -1, "stimulus": "<p id=\"stim\">WIFE</p>", "key_press": -1, "type": "PRES_VIS", "word": "wife", "wordID": 1608, "conditions": [24, 800, "v", 12000], "trial": 7, "serialpos": 16, "trial_type": "single-stim", "trial_index": 269, "time_elapsed": 1109632, "internal_node_id": "0.0-197.0"}}, {"uniqueid": "MTK0962:3WJEQKOXA990O64CXJ0XZ6FSG69A1X", "current_trial": 270, "dateTime": 1512938020340, "trialdata": {"rt": -1, "stimulus": "<p id=\"stim\">COFFEE</p>", "key_press": -1, "type": "PRES_VIS", "word": "coffee", "wordID": 340, "conditions": 