{"condition": 0, "counterbalance": 2083, "assignmentId": "3YOH7BII0AEMMVTWGOXB08P4AMAVKM", "workerId": "MTK0973", "hitId": "3MD8CKRQZZUXVK83ZHNN9C44UJEJRS", "currenttrial": 626, "bonus": 0, "data": [{"uniqueid": "MTK0973:3YOH7BII0AEMMVTWGOXB08P4AMAVKM", "current_trial": 0, "dateTime": 1512940136181, "trialdata": {"rt": 2453, "key_press": 32, "type": "INSTRUCTIONS", "trial_type": "text", "trial_index": 0, "time_elapsed": 2454, "internal_node_id": "0.0-0.0"}}, {"uniqueid": "MTK0973:3YOH7BII0AEMMVTWGOXB08P4AMAVKM", "current_trial": 1, "dateTime": 1512940167610, "trialdata": {"rt": 31428, "key_press": 93, "type": "INSTRUCTIONS", "trial_type": "text", "trial_index": 1, "time_elapsed": 33884, "internal_node_id": "0.0-1.0"}}, {"uniqueid": "MTK0973:3YOH7BII0AEMMVTWGOXB08P4AMAVKM", "current_trial": 2, "dateTime": 1512940186889, "trialdata": {"rt": [19271], "responses": ["ocean"], "type": "AUDIO_TEST", "trial_type": "audio-test", "trial_index": 2, "time_elapsed": 53163, "internal_node_id": "0.0-2.0"}}, {"uniqueid": "MTK0973:3YOH7BII0AEMMVTWGOXB08P4AMAVKM", "current_trial": 3, "dateTime": 1512940194225, "trialdata": {"rt": [7333], "responses": ["crystal"], "type": "AUDIO_TEST", "trial_type": "audio-test", "trial_index": 3, "time_elapsed": 60499, "internal_node_id": "0.0-3.0"}}, {"uniqueid": "MTK0973:3YOH7BII0AEMMVTWGOXB08P4AMAVKM", "current_trial": 4, "dateTime": 1512940204856, "trialdata": {"rt": [10628], "responses": ["spice"], "type": "AUDIO_TEST", "trial_type": "audio-test", "trial_index": 4, "time_elapsed": 71130, "internal_node_id": "0.0-4.0"}}, {"uniqueid": "MTK0973:3YOH7BII0AEMMVTWGOXB08P4AMAVKM", "current_trial": 5, "dateTime": 1512940237375, "trialdata": {"rt": 31768, "responses": "{\"Q0\":\"11:00 PM\",\"Q1\":\"8:00 AM\",\"Q2\":\"5\"}", "type": "SLEEP_SURVEY", "trial_type": "survey-text", "trial_index": 5, "time_elapsed": 103649, "internal_node_id": "0.0-5.0"}}, {"uniqueid": "MTK0973:3YOH7BII0AEMMVTWGOXB08P4AMAVKM", "current_trial": 6, "dateTime": 1512940309609, "trialdata": {"rt": 71232, "key_press": 32, "type": "INSTRUCTIONS", "trial_type": "text", "trial_index": 6, "time_elapsed": 175883, "internal_node_id": "0.0-6.0"}}, {"uniqueid": "MTK0973:3YOH7BII0AEMMVTWGOXB08P4AMAVKM", "current_trial": 7, "dateTime": 1512940334296, "trialdata": {"rt": 24186, "key_press": 32, "type": "INSTRUCTIONS", "trial_type": "text", "trial_index": 7, "time_elapsed": 200570, "internal_node_id": "0.0-7.0"}}, {"uniqueid": "MTK0973:3YOH7BII0AEMMVTWGOXB08P4AMAVKM", "current_trial": 8, "dateTime": 1512940338175, "trialdata": {"rt": 3376, "key_press": 91, "type": "INSTRUCTIONS", "trial_type": "text", "trial_index": 8, "time_elapsed": 204449, "internal_node_id": "0.0-8.0"}}, {"uniqueid": "MTK0973:3YOH7BII0AEMMVTWGOXB08P4AMAVKM", "current_trial": 9, "dateTime": 1512940357184, "trialdata": {"rt": [3052, 6220, 8636, 13891], "responses": ["18", "17", "17", "12"], "num1": [7, 8, 6, 2, 2], "num2": [2, 6, 3, 6, 5], "num3": [9, 3, 8, 4, 9], "type": "DISTRACTOR", "conditions": [18, 1200, "a", 18000], "trial": 0, "trial_type": "math-distractor", "trial_index": 9, "time_elapsed": 223458, "internal_node_id": "0.0-9.0"}}, {"uniqueid": "MTK0973:3YOH7BII0AEMMVTWGOXB08P4AMAVKM", "current_trial": 10, "dateTime": 1512940360190, "trialdata": {"rt": -1, "stimulus": "<p id=\"stim\">10</p>", "key_press": -1, "trial_type": "single-stim", "trial_index": 10, "time_elapsed": 226464, "internal_node_id": "0.0-10.0-0.0"}}, {"uniqueid": "MTK0973:3YOH7BII0AEMMVTWGOXB08P4AMAVKM", "current_trial": 11, "dateTime": 1512940361194, "trialdata": {"rt": -1, "stimulus": "<p id=\"stim\">9</p>", "key_press": -1, "trial_type": "single-stim", "trial_index": 11, "time_elapsed": 227468, "internal_node_id": "0.0-10.0-1.0"}}, {"uniqueid": "MTK0973:3YOH7BII0AEMMVTWGOXB08P4AMAVKM", "current_trial": 12, "dateTime": 1512940362197, "trialdata": {"rt": -1, "stimulus": "<p id=\"stim\">8</p>", "key_press": -1, "trial_type": "single-stim", "trial_index": 12, "time_elapsed": 228471, "internal_node_id": "0.0-10.0-2.0"}}, {"uniqueid": "MTK0973:3YOH7BII0AEMMVTWGOXB08P4AMAVKM", "current_trial": 13, "dateTime": 1512940363202, "trialdata": {"rt": -1, "stimulus": "<p id=\"stim\">7</p>", "key_press": -1, "trial_type": "single-stim", "trial_index": 13, "time_elapsed": 229476, "internal_node_id": "0.0-10.0-3.0"}}, {"uniqueid": "MTK0973:3YOH7BII0AEMMVTWGOXB08P4AMAVKM", "current_trial": 14, "dateTime": 1512940364206, "trialdata": {"rt": -1, "stimulus": "<p id=\"stim\">6</p>", "key_press": -1, "trial_type": "single-stim", "trial_index": 14, "time_elapsed": 230480, "internal_node_id": "0.0-10.0-4.0"}}, {"uniqueid": "MTK0973:3YOH7BII0AEMMVTWGOXB08P4AMAVKM", "current_trial": 15, "dateTime": 1512940365210, "trialdata": {"rt": -1, "stimulus": "<p id=\"stim\">5</p>", "key_press": -1, "trial_type": "single-stim", "trial_index": 15, "time_elapsed": 231484, "internal_node_id": "0.0-10.0-5.0"}}, {"uniqueid": "MTK0973:3YOH7BII0AEMMVTWGOXB08P4AMAVKM", "current_trial": 16, "dateTime": 1512940366214, "trialdata": {"rt": -1, "stimulus": "<p id=\"stim\">4</p>", "key_press": -1, "trial_type": "single-stim", "trial_index": 16, "time_elapsed": 232488, "internal_node_id": "0.0-10.0-6.0"}}, {"uniqueid": "MTK0973:3YOH7BII0AEMMVTWGOXB08P4AMAVKM", "current_trial": 17, "dateTime": 1512940367219, "trialdata": {"rt": -1, "stimulus": "<p id=\"stim\">3</p>", "key_press": -1, "trial_type": "single-stim", "trial_index": 17, "time_elapsed": 233493, "internal_node_id": "0.0-10.0-7.0"}}, {"uniqueid": "MTK0973:3YOH7BII0AEMMVTWGOXB08P4AMAVKM", "current_trial": 18, "dateTime": 1512940368222, "trialdata": {"rt": -1, "stimulus": "<p id=\"stim\">2</p>", "key_press": -1, "trial_type": "single-stim", "trial_index": 18, "time_elapsed": 234496, "internal_node_id": "0.0-10.0-8.0"}}, {"uniqueid": "MTK0973:3YOH7BII0AEMMVTWGOXB08P4AMAVKM", "current_trial": 19, "dateTime": 1512940369226, "trialdata": {"rt": -1, "stimulus": "<p id=\"stim\">1</p>", "key_press": -1, "trial_type": "single-stim", "trial_index": 19, "time_elapsed": 235500, "internal_node_id": "0.0-10.0-9.0"}}, {"uniqueid": "MTK0973:3YOH7BII0AEMMVTWGOXB08P4AMAVKM", "current_trial": 20, "dateTime": 1512940370729, "trialdata": {"rt": -1, "stimulus": "<p id=\"stim\">+</p>", "key_press": -1, "type": "FIXATION", "trial_type": "single-stim", "trial_index": 20, "time_elapsed": 237003, "internal_node_id": "0.0-11.0-0.0"}}, {"uniqueid": "MTK0973:3YOH7BII0AEMMVTWGOXB08P4AMAVKM", "current_trial": 21, "dateTime": 1512940373005, "trialdata": {"rt": -1000, "stimulus": "/static/audio/wordpool/BUG.wav", "key_press": -1, "type": "PRES_AUD", "word": "bug", "wordID": 186, "conditions": [18, 1200, "a", 18000], "trial": 0, "serialpos": 0, "trial_type": "single-audio", "trial_index": 21, "time_elapsed": 239279, "internal_node_id": "0.0-12.0"}}, {"uniqueid": "MTK0973:3YOH7BII0AEMMVTWGOXB08P4AMAVKM", "current_trial": 22, "dateTime": 1512940375314, "trialdata": {"rt": -1000, "stimulus": "/static/audio/wordpool/MARINE.wav", "key_press": -1, "type": "PRES_AUD", "word": "marine", "wordID": 868, "conditions": [18, 1200, "a", 18000], "trial": 0, "serialpos": 1, "trial_type": "single-audio", "trial_index": 22, "time_elapsed": 241587, "internal_node_id": "0.0-13.0"}}, {"uniqueid": "MTK0973:3YOH7BII0AEMMVTWGOXB08P4AMAVKM", "current_trial": 23, "dateTime": 1512940377635, "trialdata": {"rt": -1000, "stimulus": "/static/audio/wordpool/CABBAGE.wav", "key_press": -1, "type": "PRES_AUD", "word": "cabbage", "wordID": 209, "conditions": [18, 1200, "a", 18000], "trial": 0, "serialpos": 2, "trial_type": "single-audio", "trial_index": 23, "time_elapsed": 243909, "internal_node_id": "0.0-14.0"}}, {"uniqueid": "MTK0973:3YOH7BII0AEMMVTWGOXB08P4AMAVKM", "current_trial": 24, "dateTime": 1512940379998, "trialdata": {"rt": -1000, "stimulus": "/static/audio/wordpool/CYCLONE.wav", "key_press": -1, "type": "PRES_AUD", "word": "cyclone", "wordID": 430, "conditions": [18, 1200, "a", 18000], "trial": 0, "serialpos": 3, "trial_type": "single-audio", "trial_index": 24, "time_elapsed": 246272, "internal_node_id": "0.0-15.0"}}, {"uniqueid": "MTK0973:3YOH7BII0AEMMVTWGOXB08P4AMAVKM", "current_trial": 25, "dateTime": 1512940382360, "trialdata": {"rt": -1000, "stimulus": "/static/audio/wordpool/OZONE.wav", "key_press": -1, "type": "PRES_AUD", "word": "ozone", "wordID": 995, "conditions": [18, 1200, "a", 18000], "trial": 0, "serialpos": 4, "trial_type": "single-audio", "trial_index": 25, "time_elapsed": 248634, "internal_node_id": "0.0-16.0"}}, {"uniqueid": "MTK0973:3YOH7BII0AEMMVTWGOXB08P4AMAVKM", "current_trial": 26, "dateTime": 1512940384522, "trialdata": {"rt": -1000, "stimulus": "/static/audio/wordpool/WHISKERS.wav", "key_press": -1, "type": "PRES_AUD", "word": "whiskers", "wordID": 1604, "conditions": [18, 1200, "a", 18000], "trial": 0, "serialpos": 5, "trial_type": "single-audio", "trial_index": 26, "time_elapsed": 250795, "internal_node_id": "0.0-17.0"}}, {"uniqueid": "MTK0973:3YOH7BII0AEMMVTWGOXB08P4AMAVKM", "current_trial": 27, "dateTime": 1512940386571, "trialdata": {"rt": -1000, "stimulus": "/static/audio/wordpool/DASHBOARD.wav", "key_press": -1, "type": "PRES_AUD", "word": "dashboard", "wordID": 440, "conditions": [18, 1200, "a", 18000], "trial": 0, "serialpos": 6, "trial_type": "single-audio", "trial_index": 27, "time_elapsed": 252845, "internal_node_id": "0.0-18.0"}}, {"uniqueid": "MTK0973:3YOH7BII0AEMMVTWGOXB08P4AMAVKM", "current_trial": 28, "dateTime": 1512940388898, "trialdata": {"rt": -1000, "stimulus": "/static/audio/wordpool/FLOWER.wav", "key_press": -1, "type": "PRES_AUD", "word": "flower", "wordID": 583, "conditions": [18, 1200, "a", 18000], "trial": 0, "serialpos": 7, "trial_type": "single-audio", "trial_index": 28, "time_elapsed": 255172, "internal_node_id": "0.0-19.0"}}, {"uniqueid": "MTK0973:3YOH7BII0AEMMVTWGOXB08P4AMAVKM", "current_trial": 29, "dateTime": 1512940391226, "trialdata": {"rt": -1000, "stimulus": "/static/audio/wordpool/STREAM.wav", "key_press": -1, "type": "PRES_AUD", "word": "stream", "wordID": 1391, "conditions": [18, 1200, "a", 18000], "trial": 0, "serialpos": 8, "trial_type": "single-audio", "trial_index": 29, "time_elapsed": 257500, "internal_node_id": "0.0-20.0"}}, {"uniqueid": "MTK0973:3YOH7BII0AEMMVTWGOXB08P4AMAVKM", "current_trial": 30, "dateTime": 1512940393629, "trialdata": {"rt": -1000, "stimulus": "/static/audio/wordpool/KEEPER.wav", "key_press": -1, "type": "PRES_AUD", "word": "keeper", "wordID": 768, "conditions": [18, 1200, "a", 18000], "trial": 0, "serialpos": 9, "trial_type": "single-audio", "trial_index": 30, "time_elapsed": 259903, "internal_node_id": "0.0-21.0"}}, {"uniqueid": "MTK0973:3YOH7BII0AEMMVTWGOXB08P4AMAVKM", "current_trial": 31, "dateTime": 1512940395899, "trialdata": {"rt": -1000, "stimulus": "/static/audio/wordpool/LIPSTICK.wav", "key_press": -1, "type": "PRES_AUD", "word": "lipstick", "wordID": 828, "conditions": [18, 1200, "a", 18000], "trial": 0, "serialpos": 10, "trial_type": "single-audio", "trial_index": 31, "time_elapsed": 262173, "internal_node_id": "0.0-22.0"}}, {"uniqueid": "MTK0973:3YOH7BII0AEMMVTWGOXB08P4AMAVKM", "current_trial": 32, "dateTime": 1512940398157, "trialdata": {"rt": -1000, "stimulus": "/static/audio/wordpool/MISTER.wav", "key_press": -1, "type": "PRES_AUD", "word": "mister", "wordID": 900, "conditions": [18, 1200, "a", 18000], "trial": 0, "serialpos": 11, "trial_type": "single-audio", "trial_index": 32, "time_elapsed": 264431, "internal_node_id": "0.0-23.0"}}, {"uniqueid": "MTK0973:3YOH7BII0AEMMVTWGOXB08P4AMAVKM", "current_trial": 33, "dateTime": 1512940400397, "trialdata": {"rt": -1000, "stimulus": "/static/audio/wordpool/WOMAN.wav", "key_press": -1, "type": "PRES_AUD", "word": "woman", "wordID": 1619, "conditions": [18, 1200, "a", 18000], "trial": 0, "serialpos": 12, "trial_type": "single-audio", "trial_index": 33, "time_elapsed": 266671, "internal_node_id": "0.0-24.0"}}, {"uniqueid": "MTK0973:3YOH7BII0AEMMVTWGOXB08P4AMAVKM", "current_trial": 34, "dateTime": 1512940402684, "trialdata": {"rt": -1000, "stimulus": "/static/audio/wordpool/LAKE.wav", "key_press": -1, "type": "PRES_AUD", "word": "lake", "wordID": 795, "conditions": [18, 1200, "a", 18000], "trial": 0, "serialpos": 13, "trial_type": "single-audio", "trial_index": 34, "time_elapsed": 268958, "internal_node_id": "0.0-25.0"}}, {"uniqueid": "MTK0973:3YOH7BII0AEMMVTWGOXB08P4AMAVKM", "current_trial": 35, "dateTime": 1512940404710, "trialdata": {"rt": -1000, "stimulus": "/static/audio/wordpool/ANTLER.wav", "key_press": -1, "type": "PRES_AUD", "word": "antler", "wordID": 28, "conditions": [18, 1200, "a", 18000], "trial": 0, "serialpos": 14, "trial_type": "single-audio", "trial_index": 35, "time_elapsed": 270984, "internal_node_id": "0.0-26.0"}}, {"uniqueid": "MTK0973:3YOH7BII0AEMMVTWGOXB08P4AMAVKM", "current_trial": 36, "dateTime": 1512940406753, "trialdata": {"rt": -1000, "stimulus": "/static/audio/wordpool/PUPPY.wav", "key_press": -1, "type": "PRES_AUD", "word": "puppy", "wordID": 1143, "conditions": [18, 1200, "a", 18000], "trial": 0, "serialpos": 15, "trial_type": "single-audio", "trial_index": 36, "time_elapsed": 273027, "internal_node_id": "0.0-27.0"}}, {"uniqueid": "MTK0973:3YOH7BII0AEMMVTWGOXB08P4AMAVKM", "current_trial": 37, "dateTime": 1512940409083, "trialdata": {"rt": -1000, "stimulus": "/static/audio/wordpool/PERCH.wav", "key_press": -1, "type": "PRES_AUD", "word": "perch", "wordID": 1047, "conditions": [18, 1200, "a", 18000], "trial": 0, "serialpos": 16, "trial_type": "single-audio", "trial_index": 37, "time_elapsed": 275357, "internal_node_id": "0.0-28.0"}}, {"uniqueid": "MTK0973:3YOH7BII0AEMMVTWGOXB08P4AMAVKM", "current_trial": 38, "dateTime": 1512940411380, "trialdata": {"rt": -1000, "stimulus": "/static/audio/wordpool/SPIDER.wav", "key_press": -1, "type": "PRES_AUD", "word": "spider", "wordID": 1350, "conditions": [18, 1200, "a", 18000], "trial": 0, "serialpos": 17, "trial_type": "single-audio", "trial_index": 38, "time_elapsed": 277654, "internal_node_id": "0.0-29.0"}}, {"uniqueid": "MTK0973:3YOH7BII0AEMMVTWGOXB08P4AMAVKM", "current_trial": 39, "dateTime": 1512940412715, "trialdata": {"rt": -1, "stimulus": "", "key_press": -1, "type": "PRE_RECALL_DELAY", "trial_type": "single-stim", "trial_index": 39, "time_elapsed": 278989, "internal_node_id": "0.0-30.0-0.0"}}, {"uniqueid": "MTK0973:3YOH7BII0AEMMVTWGOXB08P4AMAVKM", "current_trial": 40, "dateTime": 1512940413216, "trialdata": {"rt": -1000, "stimulus": "/static/audio/400Hz.wav", "key_press": -1, "type": "PRE_RECALL_ALERT", "trial_type": "single-audio", "trial_index": 40, "time_elapsed": 279490, "internal_node_id": "0.0-31.0"}}, {"uniqueid": "MTK0973:3YOH7BII0AEMMVTWGOXB08P4AMAVKM", "current_trial": 41, "dateTime": 1512940473219, "trialdata": {"rt": [3162, 4995, 6018, 7162, 11482, 13561, 18641, 24969, 42945], "recwords": ["bug", "marine", "spider", "antler", "dashboard", "antler", "perch", "puppy", ""], "type": "FREE_RECALL", "conditions": [18, 1200, "a", 18000], "trial": 0, "trial_type": "free-recall", "trial_index": 41, "time_elapsed": 339492, "internal_node_id": "0.0-32.0-0.0"}}, {"uniqueid": "MTK0973:3YOH7BII0AEMMVTWGOXB08P4AMAVKM", "current_trial": 42, "dateTime": 1512940477112, "trialdata": {"rt": 1891, "key_press": 76, "type": "INSTRUCTIONS", "trial_type": "text", "trial_index": 42, "time_elapsed": 343386, "internal_node_id": "0.0-33.0"}}, {"uniqueid": "MTK0973:3YOH7BII0AEMMVTWGOXB08P4AMAVKM", "current_trial": 43, "dateTime": 1512940497118, "trialdata": {"rt": [1827, 4155, 5939, 8939, 10459, 13107, 14659], "responses": ["12", "18", "9", "10", "14", "17", "16"], "num1": [3, 2, 2, 3, 6, 2, 4, 4], "num2": [3, 8, 2, 1, 6, 6, 4, 7], "num3": [6, 8, 5, 6, 2, 9, 8, 5], "type": "DISTRACTOR", "conditions": [18, 1200, "v", 18000], "trial": 1, "trial_type": "math-distractor", "trial_index": 43, "time_elapsed": 363392, "internal_node_id": "0.0-34.0"}}, {"uniqueid": "MTK0973:3YOH7BII0AEMMVTWGOXB08P4AMAVKM", "current_trial": 44, "dateTime": 1512940500124, "trialdata": {"rt": -1, "stimulus": "<p id=\"stim\">10</p>", "key_press": -1, "trial_type": "single-stim", "trial_index": 44, "time_elapsed": 366398, "internal_node_id": "0.0-35.0-0.0"}}, {"uniqueid": "MTK0973:3YOH7BII0AEMMVTWGOXB08P4AMAVKM", "current_trial": 45, "dateTime": 1512940501128, "trialdata": {"rt": -1, "stimulus": "<p id=\"stim\">9</p>", "key_press": -1, "trial_type": "single-stim", "trial_index": 45, "time_elapsed": 367402, "internal_node_id": "0.0-35.0-1.0"}}, {"uniqueid": "MTK0973:3YOH7BII0AEMMVTWGOXB08P4AMAVKM", "current_trial": 46, "dateTime": 1512940502132, "trialdata": {"rt": -1, "stimulus": "<p id=\"stim\">8</p>", "key_press": -1, "trial_type": "single-stim", "trial_index": 46, "time_elapsed": 368406, "internal_node_id": "0.0-35.0-2.0"}}, {"uniqueid": "MTK0973:3YOH7BII0AEMMVTWGOXB08P4AMAVKM", "current_trial": 47, "dateTime": 1512940503137, "trialdata": {"rt": -1, "stimulus": "<p id=\"stim\">7</p>", "key_press": -1, "trial_type": "single-stim", "trial_index": 47, "time_elapsed": 369411, "internal_node_id": "0.0-35.0-3.0"}}, {"uniqueid": "MTK0973:3YOH7BII0AEMMVTWGOXB08P4AMAVKM", "current_trial": 48, "dateTime": 1512940504140, "trialdata": {"rt": -1, "stimulus": "<p id=\"stim\">6</p>", "key_press": -1, "trial_type": "single-stim", "trial_index": 48, "time_elapsed": 370414, "internal_node_id": "0.0-35.0-4.0"}}, {"uniqueid": "MTK0973:3YOH7BII0AEMMVTWGOXB08P4AMAVKM", "current_trial": 49, "dateTime": 1512940505145, "trialdata": {"rt": -1, "stimulus": "<p id=\"stim\">5</p>", "key_press": -1, "trial_type": "single-stim", "trial_index": 49, "time_elapsed": 371419, "internal_node_id": "0.0-35.0-5.0"}}, {"uniqueid": "MTK0973:3YOH7BII0AEMMVTWGOXB08P4AMAVKM", "current_trial": 50, "dateTime": 1512940506148, "trialdata": {"rt": -1, "stimulus": "<p id=\"stim\">4</p>", "key_press": -1, "trial_type": "single-stim", "trial_index": 50, "time_elapsed": 372422, "internal_node_id": "0.0-35.0-6.0"}}, {"uniqueid": "MTK0973:3YOH7BII0AEMMVTWGOXB08P4AMAVKM", "current_trial": 51, "dateTime": 1512940507153, "trialdata": {"rt": -1, "stimulus": "<p id=\"stim\">3</p>", "key_press": -1, "trial_type": "single-stim", "trial_index": 51, "time_elapsed": 373427, "internal_node_id": "0.0-35.0-7.0"}}, {"uniqueid": "MTK0973:3YOH7BII0AEMMVTWGOXB08P4AMAVKM", "current_trial": 52, "dateTime": 1512940508157, "trialdata": {"rt": -1, "stimulus": "<p id=\"stim\">2</p>", "key_press": -1, "trial_type": "single-stim", "trial_index": 52, "time_elapsed": 374431, "internal_node_id": "0.0-35.0-8.0"}}, {"uniqueid": "MTK0973:3YOH7BII0AEMMVTWGOXB08P4AMAVKM", "current_trial": 53, "dateTime": 1512940509161, "trialdata": {"rt": -1, "stimulus": "<p id=\"stim\">1</p>", "key_press": -1, "trial_type": "single-stim", "trial_index": 53, "time_elapsed": 375435, "internal_node_id": "0.0-35.0-9.0"}}, {"uniqueid": "MTK0973:3YOH7BII0AEMMVTWGOXB08P4AMAVKM", "current_trial": 54, "dateTime": 1512940510664, "trialdata": {"rt": -1, "stimulus": "<p id=\"stim\">+</p>", "key_press": -1, "type": "FIXATION", "trial_type": "single-stim", "trial_index": 54, "time_elapsed": 376938, "internal_node_id": "0.0-36.0-0.0"}}, {"uniqueid": "MTK0973:3YOH7BII0AEMMVTWGOXB08P4AMAVKM", "current_trial": 55, "dateTime": 1512940511866, "trialdata": {"rt": -1, "stimulus": "<p id=\"stim\">TRENCH</p>", "key_press": -1, "type": "PRES_VIS", "word": "trench", "wordID": 1502, "conditions": [18, 1200, "v", 18000], "trial": 1, "serialpos": 0, "trial_type": "single-stim", "trial_index": 55, "time_elapsed": 378139, "internal_node_id": "0.0-37.0"}}, {"uniqueid": "MTK0973:3YOH7BII0AEMMVTWGOXB08P4AMAVKM", "current_trial": 56, "dateTime": 1512940513903, "trialdata": {"rt": -1, "stimulus": "<p id=\"stim\">KETCHUP</p>", "key_press": -1, "type": "PRES_VIS", "word": "ketchup", "wordID": 770, "conditions": [18, 1200, "v", 18000], "trial": 1, "serialpos": 1, "trial_type": "single-stim", "trial_index": 56, "time_elapsed": 380176, "internal_node_id": "0.0-38.0"}}, {"uniqueid": "MTK0973:3YOH7BII0AEMMVTWGOXB08P4AMAVKM", "current_trial": 57, "dateTime": 1512940516027, "trialdata": {"rt": -1, "stimulus": "<p id=\"stim\">SCISSORS</p>", "key_press": -1, "type": "PRES_VIS", "word": "scissors", "wordID": 1249, "conditions": [18, 1200, "v", 18000], "trial": 1, "serialpos": 2, "trial_type": "single-stim", "trial_index": 57, "time_elapsed": 382301, "internal_node_id": "0.0-39.0"}}, {"uniqueid": "MTK0973:3YOH7BII0AEMMVTWGOXB08P4AMAVKM", "current_trial": 58, "dateTime": 1512940518296, "trialdata": {"rt": -1, "stimulus": "<p id=\"stim\">SKETCH</p>", "key_press": -1, "type": "PRES_VIS", "word": "sketch", "wordID": 1314, "conditions": [18, 1200, "v", 18000], "trial": 1, "serialpos": 3, "trial_type": "single-stim", "trial_index": 58, "time_elapsed": 384570, "internal_node_id": "0.0-40.0"}}, {"uniqueid": "MTK0973:3YOH7BII0AEMMVTWGOXB08P4AMAVKM", "current_trial": 59, "dateTime": 1512940520490, "trialdata": {"rt": -1, "stimulus": "<p id=\"stim\">OMELET</p>", "key_press": -1, "type": "PRES_VIS", "word": "omelet", "wordID": 975, "conditions": [18, 1200, "v", 18000], "trial": 1, "serialpos": 4, "trial_type": "single-stim", "trial_index": 59, "time_elapsed": 386764, "internal_node_id": "0.0-41.0"}}, {"uniqueid": "MTK0973:3YOH7BII0AEMMVTWGOXB08P4AMAVKM", "current_trial": 60, "dateTime": 1512940522695, "trialdata": {"rt": -1, "stimulus": "<p id=\"stim\">CARROT</p>", "key_press": -1, "type": "PRES_VIS", "word": "carrot", "wordID": 248, "conditions": [18, 1200, "v", 18000], "trial": 1, "serialpos": 5, "trial_type": "single-stim", "trial_index": 60, "time_elapsed": 388969, "internal_node_id": "0.0-42.0"}}, {"uniqueid": "MTK0973:3YOH7BII0AEMMVTWGOXB08P4AMAVKM", "current_trial": 61, "dateTime": 1512940524808, "trialdata": {"rt": -1, "stimulus": "<p id=\"stim\">PEBBLE</p>", "key_press": -1, "type": "PRES_VIS", "word": "pebble", "wordID": 1034, "conditions": [18, 1200, "v", 18000], "trial": 1, "serialpos": 6, "trial_type": "single-stim", "trial_index": 61, "time_elapsed": 391082, "internal_node_id": "0.0-43.0"}}, {"uniqueid": "MTK0973:3YOH7BII0AEMMVTWGOXB08P4AMAVKM", "current_trial": 62, "dateTime": 1512940527187, "trialdata": {"rt": -1, "stimulus": "<p id=\"stim\">ANKLE</p>", "key_press": -1, "type": "PRES_VIS", "word": "ankle", "wordID": 23, "conditions": [18, 1200, "v", 18000], "trial": 1, "serialpos": 7, "trial_type": "single-stim", "trial_index": 62, "time_elapsed": 393461, "internal_node_id": "0.0-44.0"}}, {"uniqueid": "MTK0973:3YOH7BII0AEMMVTWGOXB08P4AMAVKM", "current_trial": 63, "dateTime": 1512940529538, "trialdata": {"rt": -1, "stimulus": "<p id=\"stim\">CAPTIVE</p>", "key_press": -1, "type": "PRES_VIS", "word": "captive", "wordID": 239, "conditions": [18, 1200, "v", 18000], "trial": 1, "serialpos": 8, "trial_type": "single-stim", "trial_index": 63, "time_elapsed": 395812, "internal_node_id": "0.0-45.0"}}, {"uniqueid": "MTK0973:3YOH7BII0AEMMVTWGOXB08P4AMAVKM", "current_trial": 64, "dateTime": 1512940531755, "trialdata": {"rt": -1, "stimulus": "<p id=\"stim\">GHETTO</p>", "key_press": -1, "type": "PRES_VIS", "word": "ghetto", "wordID": 632, "conditions": [18, 1200, "v", 18000], "trial": 1, "serialpos": 9, "trial_type": "single-stim", "trial_index": 64, "time_elapsed": 398029, "internal_node_id": "0.0-46.0"}}, {"uniqueid": "MTK0973:3YOH7BII0AEMMVTWGOXB08P4AMAVKM", "current_trial": 65, "dateTime": 1512940533978, "trialdata": {"rt": -1, "stimulus": "<p id=\"stim\">BINDER</p>", "key_press": -1, "type": "PRES_VIS", "word": "binder", "wordID": 126, "conditions": [18, 1200, "v", 18000], "trial": 1, "serialpos": 10, "trial_type": "single-stim", "trial_index": 65, "time_elapsed": 400251, "internal_node_id": "0.0-47.0"}}, {"uniqueid": "MTK0973:3YOH7BII0AEMMVTWGOXB08P4AMAVKM", "current_trial": 66, "dateTime": 1512940536287, "trialdata": {"rt": -1, "stimulus": "<p id=\"stim\">DRAGON</p>", "key_press": -1, "type": "PRES_VIS", "word": "dragon", "wordID": 491, "conditions": [18, 1200, "v", 18000], "trial": 1, "serialpos": 11, "trial_type": "single-stim", "trial_index": 66, "time_elapsed": 402561, "internal_node_id": "0.0-48.0"}}, {"uniqueid": "MTK0973:3YOH7BII0AEMMVTWGOXB08P4AMAVKM", "current_trial": 67, "dateTime": 1512940538359, "trialdata": {"rt": -1, "stimulus": "<p id=\"stim\">SMOG</p>", "key_press": -1, "type": "PRES_VIS", "word": "smog", "wordID": 1329, "conditions": [18, 1200, "v", 18000], "trial": 1, "serialpos": 12, "trial_type": "single-stim", "trial_index": 67, "time_elapsed": 404633, "internal_node_id": "0.0-49.0"}}, {"uniqueid": "MTK0973:3YOH7BII0AEMMVTWGOXB08P4AMAVKM", "current_trial": 68, "dateTime": 1512940540739, "trialdata": {"rt": -1, "stimulus": "<p id=\"stim\">CRAYON</p>", "key_press": -1, "type": "PRES_VIS", "word": "crayon", "wordID": 400, "conditions": [18, 1200, "v", 18000], "trial": 1, "serialpos": 13, "trial_type": "single-stim", "trial_index": 68, "time_elapsed": 407013, "internal_node_id": "0.0-50.0"}}, {"uniqueid": "MTK0973:3YOH7BII0AEMMVTWGOXB08P4AMAVKM", "current_trial": 69, "dateTime": 1512940542851, "trialdata": {"rt": -1, "stimulus": "<p id=\"stim\">CHAPEL</p>", "key_press": -1, "type": "PRES_VIS", "word": "chapel", "wordID": 279, "conditions": [18, 1200, "v", 18000], "trial": 1, "serialpos": 14, "trial_type": "single-stim", "trial_index": 69, "time_elapsed": 409125, "internal_node_id": "0.0-51.0"}}, {"uniqueid": "MTK0973:3YOH7BII0AEMMVTWGOXB08P4AMAVKM", "current_trial": 70, "dateTime": 1512940545039, "trialdata": {"rt": -1, "stimulus": "<p id=\"stim\">BELLY</p>", "key_press": -1, "type": "PRES_VIS", "word": "belly", "wordID": 118, "conditions": [18, 1200, "v", 18000], "trial": 1, "serialpos": 15, "trial_type": "single-stim", "trial_index": 70, "time_elapsed": 411313, "internal_node_id": "0.0-52.0"}}, {"uniqueid": "MTK0973:3YOH7BII0AEMMVTWGOXB08P4AMAVKM", "current_trial": 71, "dateTime": 1512940547140, "trialdata": {"rt": -1, "stimulus": "<p id=\"stim\">RATTLE</p>", "key_press": -1, "type": "PRES_VIS", "word": "rattle", "wordID": 1169, "conditions": [18, 1200, "v", 18000], "trial": 1, "serialpos": 16, "trial_type": "single-stim", "trial_index": 71, "time_elapsed": 413414, "internal_node_id": "0.0-53.0"}}, {"uniqueid": "MTK0973:3YOH7BII0AEMMVTWGOXB08P4AMAVKM", "current_trial": 72, "dateTime": 1512940549363, "trialdata": {"rt": -1, "stimulus": "<p id=\"stim\">TRACTOR</p>", "key_press": -1, "type": "PRES_VIS", "word": "tractor", "wordID": 1492, "conditions": [18, 1200, "v", 18000], "trial": 1, "serialpos": 17, "trial_type": "single-stim", "trial_index": 72, "time_elapsed": 415637, "internal_node_id": "0.0-54.0"}}, {"uniqueid": "MTK0973:3YOH7BII0AEMMVTWGOXB08P4AMAVKM", "current_trial": 73, "dateTime": 1512940551597, "trialdata": {"rt": -1, "stimulus": "", "key_press": -1, "type": "PRE_RECALL_DELAY", "trial_type": "single-stim", "trial_index": 73, "time_elapsed": 417871, "internal_node_id": "0.0-55.0-0.0"}}, {"uniqueid": "MTK0973:3YOH7BII0AEMMVTWGOXB08P4AMAVKM", "current_trial": 74, "dateTime": 1512940552098, "trialdata": {"rt": -1000, "stimulus": "/static/audio/400Hz.wav", "key_press": -1, "type": "PRE_RECALL_ALERT", "trial_type": "single-audio", "trial_index": 74, "time_elapsed": 418372, "internal_node_id": "0.0-56.0"}}, {"uniqueid": "MTK0973:3YOH7BII0AEMMVTWGOXB08P4AMAVKM", "current_trial": 75, "dateTime": 1512940612100, "trialdata": {"rt": [2904, 5040, 6200, 7464, 9960, 12312, 30311, 31671, 35391, 43998, 45158], "recwords": ["tractor", "crayon", "ankle", "sketch", "scissors", "smog", "ketchup", "omelet", "carrots", "trench", "captive"], "type": "FREE_RECALL", "conditions": [18, 1200, "v", 18000], "trial": 1, "trial_type": "free-recall", "trial_index": 75, "time_elapsed": 478373, "internal_node_id": "0.0-57.0-0.0"}}, {"uniqueid": "MTK0973:3YOH7BII0AEMMVTWGOXB08P4AMAVKM", "current_trial": 76, "dateTime": 1512940620731, "trialdata": {"rt": 6624, "key_press": 75, "type": "INSTRUCTIONS", "trial_type": "text", "trial_index": 76, "time_elapsed": 487003, "internal_node_id": "0.0-58.0"}}, {"uniqueid": "MTK0973:3YOH7BII0AEMMVTWGOXB08P4AMAVKM", "current_trial": 77, "dateTime": 1512940633738, "trialdata": {"rt": [3800, 6776, 8327, 11928], "responses": ["15", "15", "12", "20"], "num1": [6, 8, 1, 6, 1], "num2": [5, 4, 5, 6, 8], "num3": [4, 3, 6, 8, 4], "type": "DISTRACTOR", "conditions": [12, 800, "a", 12000], "trial": 2, "trial_type": "math-distractor", "trial_index": 77, "time_elapsed": 500012, "internal_node_id": "0.0-59.0"}}, {"uniqueid": "MTK0973:3YOH7BII0AEMMVTWGOXB08P4AMAVKM", "current_trial": 78, "dateTime": 1512940636744, "trialdata": {"rt": -1, "stimulus": "<p id=\"stim\">10</p>", "key_press": -1, "trial_type": "single-stim", "trial_index": 78, "time_elapsed": 503018, "internal_node_id": "0.0-60.0-0.0"}}, {"uniqueid": "MTK0973:3YOH7BII0AEMMVTWGOXB08P4AMAVKM", "current_trial": 79, "dateTime": 1512940637748, "trialdata": {"rt": -1, "stimulus": "<p id=\"stim\">9</p>", "key_press": -1, "trial_type": "single-stim", "trial_index": 79, "time_elapsed": 504022, "internal_node_id": "0.0-60.0-1.0"}}, {"uniqueid": "MTK0973:3YOH7BII0AEMMVTWGOXB08P4AMAVKM", "current_trial": 80, "dateTime": 1512940638752, "trialdata": {"rt": -1, "stimulus": "<p id=\"stim\">8</p>", "key_press": -1, "trial_type": "single-stim", "trial_index": 80, "time_elapsed": 505026, "internal_node_id": "0.0-60.0-2.0"}}, {"uniqueid": "MTK0973:3YOH7BII0AEMMVTWGOXB08P4AMAVKM", "current_trial": 81, "dateTime": 1512940639756, "trialdata": {"rt": -1, "stimulus": "<p id=\"stim\">7</p>", "key_press": -1, "trial_type": "single-stim", "trial_index": 81, "time_elapsed": 506030, "internal_node_id": "0.0-60.0-3.0"}}, {"uniqueid": "MTK0973:3YOH7BII0AEMMVTWGOXB08P4AMAVKM", "current_trial": 82, "dateTime": 1512940640760, "trialdata": {"rt": -1, "stimulus": "<p id=\"stim\">6</p>", "key_press": -1, "trial_type": "single-stim", "trial_index": 82, "time_elapsed": 507034, "internal_node_id": "0.0-60.0-4.0"}}, {"uniqueid": "MTK0973:3YOH7BII0AEMMVTWGOXB08P4AMAVKM", "current_trial": 83, "dateTime": 1512940641766, "trialdata": {"rt": -1, "stimulus": "<p id=\"stim\">5</p>", "key_press": -1, "trial_type": "single-stim", "trial_index": 83, "time_elapsed": 508040, "internal_node_id": "0.0-60.0-5.0"}}, {"uniqueid": "MTK0973:3YOH7BII0AEMMVTWGOXB08P4AMAVKM", "current_trial": 84, "dateTime": 1512940642768, "trialdata": {"rt": -1, "stimulus": "<p id=\"stim\">4</p>", "key_press": -1, "trial_type": "single-stim", "trial_index": 84, "time_elapsed": 509042, "internal_node_id": "0.0-60.0-6.0"}}, {"uniqueid": "MTK0973:3YOH7BII0AEMMVTWGOXB08P4AMAVKM", "current_trial": 85, "dateTime": 1512940643772, "trialdata": {"rt": -1, "stimulus": "<p id=\"stim\">3</p>", "key_press": -1, "trial_type": "single-stim", "trial_index": 85, "time_elapsed": 510046, "internal_node_id": "0.0-60.0-7.0"}}, {"uniqueid": "MTK0973:3YOH7BII0AEMMVTWGOXB08P4AMAVKM", "current_trial": 86, "dateTime": 1512940644776, "trialdata": {"rt": -1, "stimulus": "<p id=\"stim\">2</p>", "key_press": -1, "trial_type": "single-stim", "trial_index": 86, "time_elapsed": 511050, "internal_node_id": "0.0-60.0-8.0"}}, {"uniqueid": "MTK0973:3YOH7BII0AEMMVTWGOXB08P4AMAVKM", "current_trial": 87, "dateTime": 1512940645780, "trialdata": {"rt": -1, "stimulus": "<p id=\"stim\">1</p>", "key_press": -1, "trial_type": "single-stim", "trial_index": 87, "time_elapsed": 512054, "internal_node_id": "0.0-60.0-9.0"}}, {"uniqueid": "MTK0973:3YOH7BII0AEMMVTWGOXB08P4AMAVKM", "current_trial": 88, "dateTime": 1512940647284, "trialdata": {"rt": -1, "stimulus": "<p id=\"stim\">+</p>", "key_press": -1, "type": "FIXATION", "trial_type": "single-stim", "trial_index": 88, "time_elapsed": 513558, "internal_node_id": "0.0-61.0-0.0"}}, {"uniqueid": "MTK0973:3YOH7BII0AEMMVTWGOXB08P4AMAVKM", "current_trial": 89, "dateTime": 1512940649194, "trialdata": {"rt": -1000, "stimulus": "/static/audio/wordpool/ACTOR.wav", "key_press": -1, "type": "PRES_AUD", "word": "actor", "wordID": 4, "conditions": [12, 800, "a", 12000], "trial": 2, "serialpos": 0, "trial_type": "single-audio", "trial_index": 89, "time_elapsed": 515468, "internal_node_id": "0.0-62.0"}}, {"uniqueid": "MTK0973:3YOH7BII0AEMMVTWGOXB08P4AMAVKM", "current_trial": 90, "dateTime": 1512940651095, "trialdata": {"rt": -1000, "stimulus": "/static/audio/wordpool/ACTRESS.wav", "key_press": -1, "type": "PRES_AUD", "word": "actress", "wordID": 5, "conditions": [12, 800, "a", 12000], "trial": 2, "serialpos": 1, "trial_type": "single-audio", "trial_index": 90, "time_elapsed": 517369, "internal_node_id": "0.0-63.0"}}, {"uniqueid": "MTK0973:3YOH7BII0AEMMVTWGOXB08P4AMAVKM", "current_trial": 91, "dateTime": 1512940652958, "trialdata": {"rt": -1000, "stimulus": "/static/audio/wordpool/SHRUB.wav", "key_press": -1, "type": "PRES_AUD", "word": "shrub", "wordID": 1298, "conditions": [12, 800, "a", 12000], "trial": 2, "serialpos": 2, "trial_type": "single-audio", "trial_index": 91, "time_elapsed": 519232, "internal_node_id": "0.0-64.0"}}, {"uniqueid": "MTK0973:3YOH7BII0AEMMVTWGOXB08P4AMAVKM", "current_trial": 92, "dateTime": 1512940654642, "trialdata": {"rt": -1000, "stimulus": "/static/audio/wordpool/SALAD.wav", "key_press": -1, "type": "PRES_AUD", "word": "salad", "wordID": 1223, "conditions": [12, 800, "a", 12000], "trial": 2, "serialpos": 3, "trial_type": "single-audio", "trial_index": 92, "time_elapsed": 520916, "internal_node_id": "0.0-65.0"}}, {"uniqueid": "MTK0973:3YOH7BII0AEMMVTWGOXB08P4AMAVKM", "current_trial": 93, "dateTime": 1512940656342, "trialdata": {"rt": -1000, "stimulus": "/static/audio/wordpool/PIZZA.wav", "key_press": -1, "type": "PRES_AUD", "word": "pizza", "wordID": 1078, "conditions": [12, 800, "a", 12000], "trial": 2, "serialpos": 4, "trial_type": "single-audio", "trial_index": 93, "time_elapsed": 522616, "internal_node_id": "0.0-66.0"}}, {"uniqueid": "MTK0973:3YOH7BII0AEMMVTWGOXB08P4AMAVKM", "current_trial": 94, "dateTime": 1512940658316, "trialdata": {"rt": -1000, "stimulus": "/static/audio/wordpool/ONION.wav", "key_press": -1, "type": "PRES_AUD", "word": "onion", "wordID": 976, "conditions": [12, 800, "a", 12000], "trial": 2, "serialpos": 5, "trial_type": "single-audio", "trial_index": 94, "time_elapsed": 524590, "internal_node_id": "0.0-67.0"}}, {"uniqueid": "MTK0973:3YOH7BII0AEMMVTWGOXB08P4AMAVKM", "current_trial": 95, "dateTime": 1512940659982, "trialdata": {"rt": -1000, "stimulus": "/static/audio/wordpool/PORK.wav", "key_press": -1, "type": "PRES_AUD", "word": "pork", "wordID": 1107, "conditions": [12, 800, "a", 12000], "trial": 2, "serialpos": 6, "trial_type": "single-audio", "trial_index": 95, "time_elapsed": 526256, "internal_node_id": "0.0-68.0"}}, {"uniqueid": "MTK0973:3YOH7BII0AEMMVTWGOXB08P4AMAVKM", "current_trial": 96, "dateTime": 1512940661665, "trialdata": {"rt": -1000, "stimulus": "/static/audio/wordpool/PICTURE.wav", "key_press": -1, "type": "PRES_AUD", "word": "picture", "wordID": 1060, "conditions": [12, 800, "a", 12000], "trial": 2, "serialpos": 7, "trial_type": "single-audio", "trial_index": 96, "time_elapsed": 527939, "internal_node_id": "0.0-69.0"}}, {"uniqueid": "MTK0973:3YOH7BII0AEMMVTWGOXB08P4AMAVKM", "current_trial": 97, "dateTime": 1512940663563, "trialdata": {"rt": -1000, "stimulus": "/static/audio/wordpool/HATCHET.wav", "key_press": -1, "type": "PRES_AUD", "word": "hatchet", "wordID": 690, "conditions": [12, 800, "a", 12000], "trial": 2, "serialpos": 8, "trial_type": "single-audio", "trial_index": 97, "time_elapsed": 529837, "internal_node_id": "0.0-70.0"}}, {"uniqueid": "MTK0973:3YOH7BII0AEMMVTWGOXB08P4AMAVKM", "current_trial": 98, "dateTime": 1512940665311, "trialdata": {"rt": -1000, "stimulus": "/static/audio/wordpool/RADISH.wav", "key_press": -1, "type": "PRES_AUD", "word": "radish", "wordID": 1157, "conditions": [12, 800, "a", 12000], "trial": 2, "serialpos": 9, "trial_type": "single-audio", "trial_index": 98, "time_elapsed": 531585, "internal_node_id": "0.0-71.0"}}, {"uniqueid": "MTK0973:3YOH7BII0AEMMVTWGOXB08P4AMAVKM", "current_trial": 99, "dateTime": 1512940667242, "trialdata": {"rt": -1000, "stimulus": "/static/audio/wordpool/BEAKER.wav", "key_press": -1, "type": "PRES_AUD", "word": "beaker", "wordID": 103, "conditions": [12, 800, "a", 12000], "trial": 2, "serialpos": 10, "trial_type": "single-audio", "trial_index": 99, "time_elapsed": 533516, "internal_node_id": "0.0-72.0"}}, {"uniqueid": "MTK0973:3YOH7BII0AEMMVTWGOXB08P4AMAVKM", "current_trial": 100, "dateTime": 1512940668884, "trialdata": {"rt": -1000, "stimulus": "/static/audio/wordpool/RELISH.wav", "key_press": -1, "type": "PRES_AUD", "word": "relish", "wordID": 1182, "conditions": [12, 800, "a", 12000], "trial": 2, "serialpos": 11, "trial_type": "single-audio", "trial_index": 100, "time_elapsed": 535158, "internal_node_id": "0.0-73.0"}}, {"uniqueid": "MTK0973:3YOH7BII0AEMMVTWGOXB08P4AMAVKM", "current_trial": 101, "dateTime": 1512940670237, "trialdata": {"rt": -1, "stimulus": "", "key_press": -1, "type": "PRE_RECALL_DELAY", "trial_type": "single-stim", "trial_index": 101, "time_elapsed": 536511, "internal_node_id": "0.0-74.0-0.0"}}, {"uniqueid": "MTK0973:3YOH7BII0AEMMVTWGOXB08P4AMAVKM", "current_trial": 102, "dateTime": 1512940670738, "trialdata": {"rt": -1000, "stimulus": "/static/audio/400Hz.wav", "key_press": -1, "type": "PRE_RECALL_ALERT", "trial_type": "single-audio", "trial_index": 102, "time_elapsed": 537012, "internal_node_id": "0.0-75.0"}}, {"uniqueid": "MTK0973:3YOH7BII0AEMMVTWGOXB08P4AMAVKM", "current_trial": 103, "dateTime": 1512940730738, "trialdata": {"rt": [3034, 4010, 5146, 6090, 7458, 14658, 16113, 57711], "recwords": ["relish", "onion", "pizza", "salad", "beaker", "actor", "actress", "tractor"], "type": "FREE_RECALL", "conditions": [12, 800, "a", 12000], "trial": 2, "trial_type": "free-recall", "trial_index": 103, "time_elapsed": 597011, "internal_node_id": "0.0-76.0-0.0"}}, {"uniqueid": "MTK0973:3YOH7BII0AEMMVTWGOXB08P4AMAVKM", "current_trial": 104, "dateTime": 1512940734114, "trialdata": {"rt": 1374, "key_press": 75, "type": "INSTRUCTIONS", "trial_type": "text", "trial_index": 104, "time_elapsed": 600387, "internal_node_id": "0.0-77.0"}}, {"uniqueid": "MTK0973:3YOH7BII0AEMMVTWGOXB08P4AMAVKM", "current_trial": 105, "dateTime": 1512940748119, "trialdata": {"rt": [2708, 4116, 7836, 9684], "responses": ["17", "15", "18", "15"], "num1": [8, 9, 9, 5, 7], "num2": [3, 1, 4, 2, 1], "num3": [6, 5, 5, 8, 6], "type": "DISTRACTOR", "conditions": [12, 800, "v", 12000], "trial": 3, "trial_type": "math-distractor", "trial_index": 105, "time_elapsed": 614393, "internal_node_id": "0.0-78.0"}}, {"uniqueid": "MTK0973:3YOH7BII0AEMMVTWGOXB08P4AMAVKM", "current_trial": 106, "dateTime": 1512940751125, "trialdata": {"rt": -1, "stimulus": "<p id=\"stim\">10</p>", "key_press": -1, "trial_type": "single-stim", "trial_index": 106, "time_elapsed": 617399, "internal_node_id": "0.0-79.0-0.0"}}, {"uniqueid": "MTK0973:3YOH7BII0AEMMVTWGOXB08P4AMAVKM", "current_trial": 107, "dateTime": 1512940752129, "trialdata": {"rt": -1, "stimulus": "<p id=\"stim\">9</p>", "key_press": -1, "trial_type": "single-stim", "trial_index": 107, "time_elapsed": 618403, "internal_node_id": "0.0-79.0-1.0"}}, {"uniqueid": "MTK0973:3YOH7BII0AEMMVTWGOXB08P4AMAVKM", "current_trial": 108, "dateTime": 1512940753133, "trialdata": {"rt": -1, "stimulus": "<p id=\"stim\">8</p>", "key_press": -1, "trial_type": "single-stim", "trial_index": 108, "time_elapsed": 619407, "internal_node_id": "0.0-79.0-2.0"}}, {"uniqueid": "MTK0973:3YOH7BII0AEMMVTWGOXB08P4AMAVKM", "current_trial": 109, "dateTime": 1512940754137, "trialdata": {"rt": -1, "stimulus": "<p id=\"stim\">7</p>", "key_press": -1, "trial_type": "single-stim", "trial_index": 109, "time_elapsed": 620411, "internal_node_id": "0.0-79.0-3.0"}}, {"uniqueid": "MTK0973:3YOH7BII0AEMMVTWGOXB08P4AMAVKM", "current_trial": 110, "dateTime": 1512940755141, "trialdata": {"rt": -1, "stimulus": "<p id=\"stim\">6</p>", "key_press": -1, "trial_type": "single-stim", "trial_index": 110, "time_elapsed": 621415, "internal_node_id": "0.0-79.0-4.0"}}, {"uniqueid": "MTK0973:3YOH7BII0AEMMVTWGOXB08P4AMAVKM", "current_trial": 111, "dateTime": 1512940756145, "trialdata": {"rt": -1, "stimulus": "<p id=\"stim\">5</p>", "key_press": -1, "trial_type": "single-stim", "trial_index": 111, "time_elapsed": 622419, "internal_node_id": "0.0-79.0-5.0"}}, {"uniqueid": "MTK0973:3YOH7BII0AEMMVTWGOXB08P4AMAVKM", "current_trial": 112, "dateTime": 1512940757146, "trialdata": {"rt": -1, "stimulus": "<p id=\"stim\">4</p>", "key_press": -1, "trial_type": "single-stim", "trial_index": 112, "time_elapsed": 623420, "internal_node_id": "0.0-79.0-6.0"}}, {"uniqueid": "MTK0973:3YOH7BII0AEMMVTWGOXB08P4AMAVKM", "current_trial": 113, "dateTime": 1512940758147, "trialdata": {"rt": -1, "stimulus": "<p id=\"stim\">3</p>", "key_press": -1, "trial_type": "single-stim", "trial_index": 113, "time_elapsed": 624421, "internal_node_id": "0.0-79.0-7.0"}}, {"uniqueid": "MTK0973:3YOH7BII0AEMMVTWGOXB08P4AMAVKM", "current_trial": 114, "dateTime": 1512940759150, "trialdata": {"rt": -1, "stimulus": "<p id=\"stim\">2</p>", "key_press": -1, "trial_type": "single-stim", "trial_index": 114, "time_elapsed": 625424, "internal_node_id": "0.0-79.0-8.0"}}, {"uniqueid": "MTK0973:3YOH7BII0AEMMVTWGOXB08P4AMAVKM", "current_trial": 115, "dateTime": 1512940760153, "trialdata": {"rt": -1, "stimulus": "<p id=\"stim\">1</p>", "key_press": -1, "trial_type": "single-stim", "trial_index": 115, "time_elapsed": 626427, "internal_node_id": "0.0-79.0-9.0"}}, {"uniqueid": "MTK0973:3YOH7BII0AEMMVTWGOXB08P4AMAVKM", "current_trial": 116, "dateTime": 1512940761655, "trialdata": {"rt": -1, "stimulus": "<p id=\"stim\">+</p>", "key_press": -1, "type": "FIXATION", "trial_type": "single-stim", "trial_index": 116, "time_elapsed": 627929, "internal_node_id": "0.0-80.0-0.0"}}, {"uniqueid": "MTK0973:3YOH7BII0AEMMVTWGOXB08P4AMAVKM", "current_trial": 117, "dateTime": 1512940762460, "trialdata": {"rt": -1, "stimulus": "<p id=\"stim\">DENIM</p>", "key_press": -1, "type": "PRES_VIS", "word": "denim", "wordID": 445, "conditions": [12, 800, "v", 12000], "trial": 3, "serialpos": 0, "trial_type": "single-stim", "trial_index": 117, "time_elapsed": 628734, "internal_node_id": "0.0-81.0"}}, {"uniqueid": "MTK0973:3YOH7BII0AEMMVTWGOXB08P4AMAVKM", "current_trial": 118, "dateTime": 1512940764433, "trialdata": {"rt": -1, "stimulus": "<p id=\"stim\">WASP</p>", "key_press": -1, "type": "PRES_VIS", "word": "wasp", "wordID": 1592, "conditions": [12, 800, "v", 12000], "trial": 3, "serialpos": 1, "trial_type": "single-stim", "trial_index": 118, "time_elapsed": 630707, "internal_node_id": "0.0-82.0"}}, {"uniqueid": "MTK0973:3YOH7BII0AEMMVTWGOXB08P4AMAVKM", "current_trial": 119, "dateTime": 1512940766099, "trialdata": {"rt": -1, "stimulus": "<p id=\"stim\">VALLEY</p>", "key_press": -1, "type": "PRES_VIS", "word": "valley", "wordID": 1544, "conditions": [12, 800, "v", 12000], "trial": 3, "serialpos": 2, "trial_type": "single-stim", "trial_index": 119, "time_elapsed": 632373, "internal_node_id": "0.0-83.0"}}, {"uniqueid": "MTK0973:3YOH7BII0AEMMVTWGOXB08P4AMAVKM", "current_trial": 120, "dateTime": 1512940768089, "trialdata": {"rt": -1, "stimulus": "<p id=\"stim\">NEUTRON</p>", "key_press": -1, "type": "PRES_VIS", "word": "neutron", "wordID": 946, "conditions": [12, 800, "v", 12000], "trial": 3, "serialpos": 3, "trial_type": "single-stim", "trial_index": 120, "time_elapsed": 634363, "internal_node_id": "0.0-84.0"}}, {"uniqueid": "MTK0973:3YOH7BII0AEMMVTWGOXB08P4AMAVKM", "current_trial": 121, "dateTime": 1512940769813, "trialdata": {"rt": -1, "stimulus": "<p id=\"stim\">CARRIAGE</p>", "key_press": -1, "type": "PRES_VIS", "word": "carriage", "wordID": 247, "conditions": [12, 800, "v", 12000], "trial": 3, "serialpos": 4, "trial_type": "single-stim", "trial_index": 121, "time_elapsed": 636087, "internal_node_id": "0.0-85.0"}}, {"uniqueid": "MTK0973:3YOH7BII0AEMMVTWGOXB08P4AMAVKM", "current_trial": 122, "dateTime": 1512940771809, "trialdata": {"rt": -1, "stimulus": "<p id=\"stim\">HORNET</p>", "key_press": -1, "type": "PRES_VIS", "word": "hornet", "wordID": 717, "conditions": [12, 800, "v", 12000], "trial": 3, "serialpos": 5, "trial_type": "single-stim", "trial_index": 122, "time_elapsed": 638083, "internal_node_id": "0.0-86.0"}}, {"uniqueid": "MTK0973:3YOH7BII0AEMMVTWGOXB08P4AMAVKM", "current_trial": 123, "dateTime": 1512940773684, "trialdata": {"rt": -1, "stimulus": "<p id=\"stim\">PEACH</p>", "key_press": -1, "type": "PRES_VIS", "word": "peach", "wordID": 1030, "conditions": [12, 800, "v", 12000], "trial": 3, "serialpos": 6, "trial_type": "single-stim", "trial_index": 123, "time_elapsed": 639958, "internal_node_id": "0.0-87.0"}}, {"uniqueid": "MTK0973:3YOH7BII0AEMMVTWGOXB08P4AMAVKM", "current_trial": 124, "dateTime": 1512940775303, "trialdata": {"rt": -1, "stimulus": "<p id=\"stim\">PASTRY</p>", "key_press": -1, "type": "PRES_VIS", "word": "pastry", "wordID": 1021, "conditions": [12, 800, "v", 12000], "trial": 3, "serialpos": 7, "trial_type": "single-stim", "trial_index": 124, "time_elapsed": 641577, "internal_node_id": "0.0-88.0"}}, {"uniqueid": "MTK0973:3YOH7BII0AEMMVTWGOXB08P4AMAVKM", "current_trial": 125, "dateTime": 1512940777074, "trialdata": {"rt": -1, "stimulus": "<p id=\"stim\">OUTLAW</p>", "key_press": -1, "type": "PRES_VIS", "word": "outlaw", "wordID": 988, "conditions": [12, 800, "v", 12000], "trial": 3, "serialpos": 8, "trial_type": "single-stim", "trial_index": 125, "time_elapsed": 643347, "internal_node_id": "0.0-89.0"}}, {"uniqueid": "MTK0973:3YOH7BII0AEMMVTWGOXB08P4AMAVKM", "current_trial": 126, "dateTime": 1512940779006, "trialdata": {"rt": -1, "stimulus": "<p id=\"stim\">LODGE</p>", "key_press": -1, "type": "PRES_VIS", "word": "lodge", "wordID": 838, "conditions": [12, 800, "v", 12000], "trial": 3, "serialpos": 9, "trial_type": "single-stim", "trial_index": 126, "time_elapsed": 645280, "internal_node_id": "0.0-90.0"}}, {"uniqueid": "MTK0973:3YOH7BII0AEMMVTWGOXB08P4AMAVKM", "current_trial": 127, "dateTime": 1512940780979, "trialdata": {"rt": -1, "stimulus": "<p id=\"stim\">TRUCK</p>", "key_press": -1, "type": "PRES_VIS", "word": "truck", "wordID": 1511, "conditions": [12, 800, "v", 12000], "trial": 3, "serialpos": 10, "trial_type": "single-stim", "trial_index": 127, "time_elapsed": 647253, "internal_node_id": "0.0-91.0"}}, {"uniqueid": "MTK0973:3YOH7BII0AEMMVTWGOXB08P4AMAVKM", "current_trial": 128, "dateTime": 1512940782796, "trialdata": {"rt": -1, "stimulus": "<p id=\"stim\">DRIVER</p>", "key_press": -1, "type": "PRES_VIS", "word": "driver", "wordID": 498, "conditions": [12, 800, "v", 12000], "trial": 3, "serialpos": 11, "trial_type": "single-stim", "trial_index": 128, "time_elapsed": 649070, "internal_node_id": "0.0-92.0"}}, {"uniqueid": "MTK0973:3YOH7BII0AEMMVTWGOXB08P4AMAVKM", "current_trial": 129, "dateTime": 1512940784990, "trialdata": {"rt": -1, "stimulus": "", "key_press": -1, "type": "PRE_RECALL_DELAY", "trial_type": "single-stim", "trial_index": 129, "time_elapsed": 651264, "internal_node_id": "0.0-93.0-0.0"}}, {"uniqueid": "MTK0973:3YOH7BII0AEMMVTWGOXB08P4AMAVKM", "current_trial": 130, "dateTime": 1512940785492, "trialdata": {"rt": -1000, "stimulus": "/static/audio/400Hz.wav", "key_press": -1, "type": "PRE_RECALL_ALERT", "trial_type": "single-audio", "trial_index": 130, "time_elapsed": 651765, "internal_node_id": "0.0-94.0"}}, {"uniqueid": "MTK0973:3YOH7BII0AEMMVTWGOXB08P4AMAVKM", "current_trial": 131, "dateTime": 1512940845494, "trialdata": {"rt": [3099, 3923, 5291, 6291, 7387, 8586, 53873], "recwords": ["truck", "driver", "outlaw", "peach", "pastry", "denim", "outlaw"], "type": "FREE_RECALL", "conditions": [12, 800, "v", 12000], "trial": 3, "trial_type": "free-recall", "trial_index": 131, "time_elapsed": 711767, "internal_node_id": "0.0-95.0-0.0"}}, {"uniqueid": "MTK0973:3YOH7BII0AEMMVTWGOXB08P4AMAVKM", "current_trial": 132, "dateTime": 1512940851156, "trialdata": {"rt": 3658, "key_press": 83, "type": "INSTRUCTIONS", "trial_type": "text", "trial_index": 132, "time_elapsed": 717430, "internal_node_id": "0.0-96.0"}}, {"uniqueid": "MTK0973:3YOH7BII0AEMMVTWGOXB08P4AMAVKM", "current_trial": 133, "dateTime": 1512940877161, "trialdata": {"rt": [2189, 3829, 5381, 7101, 8565, 11261, 13068, 14612, 16436, 18612, 20012, 22820], "responses": ["9", "17", "18", "18", "18", "20", "16", "14", "14", "15", "15", "14"], "num1": [1, 8, 8, 6, 9, 9, 6, 2, 1, 7, 1, 2, 1], "num2": [1, 2, 1, 3, 1, 7, 9, 8, 6, 5, 9, 9, 3], "num3": [7, 7, 9, 9, 8, 4, 1, 4, 7, 3, 5, 3, 1], "type": "DISTRACTOR", "conditions": [12, 1600, "a", 24000], "trial": 4, "trial_type": "math-distractor", "trial_index": 133, "time_elapsed": 743435, "internal_node_id": "0.0-97.0"}}, {"uniqueid": "MTK0973:3YOH7BII0AEMMVTWGOXB08P4AMAVKM", "current_trial": 134, "dateTime": 1512940880168, "trialdata": {"rt": -1, "stimulus": "<p id=\"stim\">10</p>", "key_press": -1, "trial_type": "single-stim", "trial_index": 134, "time_elapsed": 746442, "internal_node_id": "0.0-98.0-0.0"}}, {"uniqueid": "MTK0973:3YOH7BII0AEMMVTWGOXB08P4AMAVKM", "current_trial": 135, "dateTime": 1512940881171, "trialdata": {"rt": -1, "stimulus": "<p id=\"stim\">9</p>", "key_press": -1, "trial_type": "single-stim", "trial_index": 135, "time_elapsed": 747445, "internal_node_id": "0.0-98.0-1.0"}}, {"uniqueid": "MTK0973:3YOH7BII0AEMMVTWGOXB08P4AMAVKM", "current_trial": 136, "dateTime": 1512940882175, "trialdata": {"rt": -1, "stimulus": "<p id=\"stim\">8</p>", "key_press": -1, "trial_type": "single-stim", "trial_index": 136, "time_elapsed": 748449, "internal_node_id": "0.0-98.0-2.0"}}, {"uniqueid": "MTK0973:3YOH7BII0AEMMVTWGOXB08P4AMAVKM", "current_trial": 137, "dateTime": 1512940883179, "trialdata": {"rt": -1, "stimulus": "<p id=\"stim\">7</p>", "key_press": -1, "trial_type": "single-stim", "trial_index": 137, "time_elapsed": 749453, "internal_node_id": "0.0-98.0-3.0"}}, {"uniqueid": "MTK0973:3YOH7BII0AEMMVTWGOXB08P4AMAVKM", "current_trial": 138, "dateTime": 1512940884183, "trialdata": {"rt": -1, "stimulus": "<p id=\"stim\">6</p>", "key_press": -1, "trial_type": "single-stim", "trial_index": 138, "time_elapsed": 750457, "internal_node_id": "0.0-98.0-4.0"}}, {"uniqueid": "MTK0973:3YOH7BII0AEMMVTWGOXB08P4AMAVKM", "current_trial": 139, "dateTime": 1512940885187, "trialdata": {"rt": -1, "stimulus": "<p id=\"stim\">5</p>", "key_press": -1, "trial_type": "single-stim", "trial_index": 139, "time_elapsed": 751461, "internal_node_id": "0.0-98.0-5.0"}}, {"uniqueid": "MTK0973:3YOH7BII0AEMMVTWGOXB08P4AMAVKM", "current_trial": 140, "dateTime": 1512940886192, "trialdata": {"rt": -1, "stimulus": "<p id=\"stim\">4</p>", "key_press": -1, "trial_type": "single-stim", "trial_index": 140, "time_elapsed": 752465, "internal_node_id": "0.0-98.0-6.0"}}, {"uniqueid": "MTK0973:3YOH7BII0AEMMVTWGOXB08P4AMAVKM", "current_trial": 141, "dateTime": 1512940887195, "trialdata": {"rt": -1, "stimulus": "<p id=\"stim\">3</p>", "key_press": -1, "trial_type": "single-stim", "trial_index": 141, "time_elapsed": 753469, "internal_node_id": "0.0-98.0-7.0"}}, {"uniqueid": "MTK0973:3YOH7BII0AEMMVTWGOXB08P4AMAVKM", "current_trial": 142, "dateTime": 1512940888200, "trialdata": {"rt": -1, "stimulus": "<p id=\"stim\">2</p>", "key_press": -1, "trial_type": "single-stim", "trial_index": 142, "time_elapsed": 754474, "internal_node_id": "0.0-98.0-8.0"}}, {"uniqueid": "MTK0973:3YOH7BII0AEMMVTWGOXB08P4AMAVKM", "current_trial": 143, "dateTime": 1512940889203, "trialdata": {"rt": -1, "stimulus": "<p id=\"stim\">1</p>", "key_press": -1, "trial_type": "single-stim", "trial_index": 143, "time_elapsed": 755477, "internal_node_id": "0.0-98.0-9.0"}}, {"uniqueid": "MTK0973:3YOH7BII0AEMMVTWGOXB08P4AMAVKM", "current_trial": 144, "dateTime": 1512940890707, "trialdata": {"rt": -1, "stimulus": "<p id=\"stim\">+</p>", "key_press": -1, "type": "FIXATION", "trial_type": "single-stim", "trial_index": 144, "time_elapsed": 756981, "internal_node_id": "0.0-99.0-0.0"}}, {"uniqueid": "MTK0973:3YOH7BII0AEMMVTWGOXB08P4AMAVKM", "current_trial": 145, "dateTime": 1512940893113, "trialdata": {"rt": -1000, "stimulus": "/static/audio/wordpool/CUSTARD.wav", "key_press": -1, "type": "PRES_AUD", "word": "custard", "wordID": 428, "conditions": [12, 1600, "a", 24000], "trial": 4, "serialpos": 0, "trial_type": "single-audio", "trial_index": 145, "time_elapsed": 759387, "internal_node_id": "0.0-100.0"}}, {"uniqueid": "MTK0973:3YOH7BII0AEMMVTWGOXB08P4AMAVKM", "current_trial": 146, "dateTime": 1512940895616, "trialdata": {"rt": -1000, "stimulus": "/static/audio/wordpool/BISON.wav", "key_press": -1, "type": "PRES_AUD", "word": "bison", "wordID": 130, "conditions": [12, 1600, "a", 24000], "trial": 4, "serialpos": 1, "trial_type": "single-audio", "trial_index": 146, "time_elapsed": 761889, "internal_node_id": "0.0-101.0"}}, {"uniqueid": "MTK0973:3YOH7BII0AEMMVTWGOXB08P4AMAVKM", "current_trial": 147, "dateTime": 1512940898157, "trialdata": {"rt": -1000, "stimulus": "/static/audio/wordpool/LAMP.wav", "key_press": -1, "type": "PRES_AUD", "word": "lamp", "wordID": 797, "conditions": [12, 1600, "a", 24000], "trial": 4, "serialpos": 2, "trial_type": "single-audio", "trial_index": 147, "time_elapsed": 764431, "internal_node_id": "0.0-102.0"}}, {"uniqueid": "MTK0973:3YOH7BII0AEMMVTWGOXB08P4AMAVKM", "current_trial": 148, "dateTime": 1512940900781, "trialdata": {"rt": -1000, "stimulus": "/static/audio/wordpool/RABBIT.wav", "key_press": -1, "type": "PRES_AUD", "word": "rabbit", "wordID": 1151, "conditions": [12, 1600, "a", 24000], "trial": 4, "serialpos": 3, "trial_type": "single-audio", "trial_index": 148, "time_elapsed": 767055, "internal_node_id": "0.0-103.0"}}, {"uniqueid": "MTK0973:3YOH7BII0AEMMVTWGOXB08P4AMAVKM", "current_trial": 149, "dateTime": 1512940903271, "trialdata": {"rt": -1000, "stimulus": "/static/audio/wordpool/CUPBOARD.wav", "key_press": -1, "type": "PRES_AUD", "word": "cupboard", "wordID": 424, "conditions": [12, 1600, "a", 24000], "trial": 4, "serialpos": 4, "trial_type": "single-audio", "trial_index": 149, "time_elapsed": 769545, "internal_node_id": "0.0-104.0"}}, {"uniqueid": "MTK0973:3YOH7BII0AEMMVTWGOXB08P4AMAVKM", "current_trial": 150, "dateTime": 1512940905988, "trialdata": {"rt": -1000, "stimulus": "/static/audio/wordpool/DRESSER.wav", "key_press": -1, "type": "PRES_AUD", "word": "dresser", "wordID": 495, "conditions": [12, 1600, "a", 24000], "trial": 4, "serialpos": 5, "trial_type": "single-audio", "trial_index": 150, "time_elapsed": 772262, "internal_node_id": "0.0-105.0"}}, {"uniqueid": "MTK0973:3YOH7BII0AEMMVTWGOXB08P4AMAVKM", "current_trial": 151, "dateTime": 1512940908397, "trialdata": {"rt": -1000, "stimulus": "/static/audio/wordpool/BLADE.wav", "key_press": -1, "type": "PRES_AUD", "word": "blade", "wordID": 133, "conditions": [12, 1600, "a", 24000], "trial": 4, "serialpos": 6, "trial_type": "single-audio", "trial_index": 151, "time_elapsed": 774671, "internal_node_id": "0.0-106.0"}}, {"uniqueid": "MTK0973:3YOH7BII0AEMMVTWGOXB08P4AMAVKM", "current_trial": 152, "dateTime": 1512940910881, "trialdata": {"rt": -1000, "stimulus": "/static/audio/wordpool/CAMEL.wav", "key_press": -1, "type": "PRES_AUD", "word": "camel", "wordID": 222, "conditions": [12, 1600, "a", 24000], "trial": 4, "serialpos": 7, "trial_type": "single-audio", "trial_index": 152, "time_elapsed": 777155, "internal_node_id": "0.0-107.0"}}, {"uniqueid": "MTK0973:3YOH7BII0AEMMVTWGOXB08P4AMAVKM", "current_trial": 153, "dateTime": 1512940913580, "trialdata": {"rt": -1000, "stimulus": "/static/audio/wordpool/POSSUM.wav", "key_press": -1, "type": "PRES_AUD", "word": "possum", "wordID": 1111, "conditions": [12, 1600, "a", 24000], "trial": 4, "serialpos": 8, "trial_type": "single-audio", "trial_index": 153, "time_elapsed": 779854, "internal_node_id": "0.0-108.0"}}, {"uniqueid": "MTK0973:3YOH7BII0AEMMVTWGOXB08P4AMAVKM", "current_trial": 154, "dateTime": 1512940915984, "trialdata": {"rt": -1000, "stimulus": "/static/audio/wordpool/MUFFIN.wav", "key_press": -1, "type": "PRES_AUD", "word": "muffin", "wordID": 928, "conditions": [12, 1600, "a", 24000], "trial": 4, "serialpos": 9, "trial_type": "single-audio", "trial_index": 154, "time_elapsed": 782258, "internal_node_id": "0.0-109.0"}}, {"uniqueid": "MTK0973:3YOH7BII0AEMMVTWGOXB08P4AMAVKM", "current_trial": 155, "dateTime": 1512940918433, "trialdata": {"rt": -1000, "stimulus": "/static/audio/wordpool/PLASTER.wav", "key_press": -1, "type": "PRES_AUD", "word": "plaster", "wordID": 1084, "conditions": [12, 1600, "a", 24000], "trial": 4, "serialpos": 10, "trial_type": "single-audio", "trial_index": 155, "time_elapsed": 784707, "internal_node_id": "0.0-110.0"}}, {"uniqueid": "MTK0973:3YOH7BII0AEMMVTWGOXB08P4AMAVKM", "current_trial": 156, "dateTime": 1512940921195, "trialdata": {"rt": -1000, "stimulus": "/static/audio/wordpool/GLASS.wav", "key_press": -1, "type": "PRES_AUD", "word": "glass", "wordID": 638, "conditions": [12, 1600, "a", 24000], "trial": 4, "serialpos": 11, "trial_type": "single-audio", "trial_index": 156, "time_elapsed": 787469, "internal_node_id": "0.0-111.0"}}, {"uniqueid": "MTK0973:3YOH7BII0AEMMVTWGOXB08P4AMAVKM", "current_trial": 157, "dateTime": 1512940922508, "trialdata": {"rt": -1, "stimulus": "", "key_press": -1, "type": "PRE_RECALL_DELAY", "trial_type": "single-stim", "trial_index": 157, "time_elapsed": 788782, "internal_node_id": "0.0-112.0-0.0"}}, {"uniqueid": "MTK0973:3YOH7BII0AEMMVTWGOXB08P4AMAVKM", "current_trial": 158, "dateTime": 1512940923009, "trialdata": {"rt": -1000, "stimulus": "/static/audio/400Hz.wav", "key_press": -1, "type": "PRE_RECALL_ALERT", "trial_type": "single-audio", "trial_index": 158, "time_elapsed": 789283, "internal_node_id": "0.0-113.0"}}, {"uniqueid": "MTK0973:3YOH7BII0AEMMVTWGOXB08P4AMAVKM", "current_trial": 159, "dateTime": 1512940983010, "trialdata": {"rt": [2277, 3253, 4469, 5565, 6869, 8021, 8917, 33468, 38491], "recwords": ["glass", "lamp", "custard", "bison", "muffin", "plaster", "glass", "dresser", "cupboard"], "type": "FREE_RECALL", "conditions": [12, 1600, "a", 24000], "trial": 4, "trial_type": "free-recall", "trial_index": 159, "time_elapsed": 849281, "internal_node_id": "0.0-114.0-0.0"}}, {"uniqueid": "MTK0973:3YOH7BII0AEMMVTWGOXB08P4AMAVKM", "current_trial": 160, "dateTime": 1512940986100, "trialdata": {"rt": 1086, "key_press": 74, "type": "INSTRUCTIONS", "trial_type": "text", "trial_index": 160, "time_elapsed": 852374, "internal_node_id": "0.0-115.0"}}, {"uniqueid": "MTK0973:3YOH7BII0AEMMVTWGOXB08P4AMAVKM", "current_trial": 161, "dateTime": 1512941012106, "trialdata": {"rt": [2414, 6438, 10686, 13157, 15917, 17413, 21693], "responses": ["11", "22", "20", "18", "13", "20", "23"], "num1": [1, 5, 7, 6, 1, 9, 8, 4], "num2": [6, 8, 4, 4, 8, 9, 8, 6], "num3": [4, 9, 9, 8, 4, 2, 7, 9], "type": "DISTRACTOR", "conditions": [24, 800, "a", 24000], "trial": 5, "trial_type": "math-distractor", "trial_index": 161, "time_elapsed": 878380, "internal_node_id": "0.0-116.0"}}, {"uniqueid": "MTK0973:3YOH7BII0AEMMVTWGOXB08P4AMAVKM", "current_trial": 162, "dateTime": 1512941015112, "trialdata": {"rt": -1, "stimulus": "<p id=\"stim\">10</p>", "key_press": -1, "trial_type": "single-stim", "trial_index": 162, "time_elapsed": 881386, "internal_node_id": "0.0-117.0-0.0"}}, {"uniqueid": "MTK0973:3YOH7BII0AEMMVTWGOXB08P4AMAVKM", "current_trial": 163, "dateTime": 1512941016116, "trialdata": {"rt": -1, "stimulus": "<p id=\"stim\">9</p>", "key_press": -1, "trial_type": "single-stim", "trial_index": 163, "time_elapsed": 882390, "internal_node_id": "0.0-117.0-1.0"}}, {"uniqueid": "MTK0973:3YOH7BII0AEMMVTWGOXB08P4AMAVKM", "current_trial": 164, "dateTime": 1512941017120, "trialdata": {"rt": -1, "stimulus": "<p id=\"stim\">8</p>", "key_press": -1, "trial_type": "single-stim", "trial_index": 164, "time_elapsed": 883394, "internal_node_id": "0.0-117.0-2.0"}}, {"uniqueid": "MTK0973:3YOH7BII0AEMMVTWGOXB08P4AMAVKM", "current_trial": 165, "dateTime": 1512941018124, "trialdata": {"rt": -1, "stimulus": "<p id=\"stim\">7</p>", "key_press": -1, "trial_type": "single-stim", "trial_index": 165, "time_elapsed": 884398, "internal_node_id": "0.0-117.0-3.0"}}, {"uniqueid": "MTK0973:3YOH7BII0AEMMVTWGOXB08P4AMAVKM", "current_trial": 166, "dateTime": 1512941019128, "trialdata": {"rt": -1, "stimulus": "<p id=\"stim\">6</p>", "key_press": -1, "trial_type": "single-stim", "trial_index": 166, "time_elapsed": 885402, "internal_node_id": "0.0-117.0-4.0"}}, {"uniqueid": "MTK0973:3YOH7BII0AEMMVTWGOXB08P4AMAVKM", "current_trial": 167, "dateTime": 1512941020132, "trialdata": {"rt": -1, "stimulus": "<p id=\"stim\">5</p>", "key_press": -1, "trial_type": "single-stim", "trial_index": 167, "time_elapsed": 886406, "internal_node_id": "0.0-117.0-5.0"}}, {"uniqueid": "MTK0973:3YOH7BII0AEMMVTWGOXB08P4AMAVKM", "current_trial": 168, "dateTime": 1512941021136, "trialdata": {"rt": -1, "stimulus": "<p id=\"stim\">4</p>", "key_press": -1, "trial_type": "single-stim", "trial_index": 168, "time_elapsed": 887410, "internal_node_id": "0.0-117.0-6.0"}}, {"uniqueid": "MTK0973:3YOH7BII0AEMMVTWGOXB08P4AMAVKM", "current_trial": 169, "dateTime": 1512941022140, "trialdata": {"rt": -1, "stimulus": "<p id=\"stim\">3</p>", "key_press": -1, "trial_type": "single-stim", "trial_index": 169, "time_elapsed": 888414, "internal_node_id": "0.0-117.0-7.0"}}, {"uniqueid": "MTK0973:3YOH7BII0AEMMVTWGOXB08P4AMAVKM", "current_trial": 170, "dateTime": 1512941023144, "trialdata": {"rt": -1, "stimulus": "<p id=\"stim\">2</p>", "key_press": -1, "trial_type": "single-stim", "trial_index": 170, "time_elapsed": 889418, "internal_node_id": "0.0-117.0-8.0"}}, {"uniqueid": "MTK0973:3YOH7BII0AEMMVTWGOXB08P4AMAVKM", "current_trial": 171, "dateTime": 1512941024148, "trialdata": {"rt": -1, "stimulus": "<p id=\"stim\">1</p>", "key_press": -1, "trial_type": "single-stim", "trial_index": 171, "time_elapsed": 890422, "internal_node_id": "0.0-117.0-9.0"}}, {"uniqueid": "MTK0973:3YOH7BII0AEMMVTWGOXB08P4AMAVKM", "current_trial": 172, "dateTime": 1512941025652, "trialdata": {"rt": -1, "stimulus": "<p id=\"stim\">+</p>", "key_press": -1, "type": "FIXATION", "trial_type": "single-stim", "trial_index": 172, "time_elapsed": 891925, "internal_node_id": "0.0-118.0-0.0"}}, {"uniqueid": "MTK0973:3YOH7BII0AEMMVTWGOXB08P4AMAVKM", "current_trial": 173, "dateTime": 1512941027546, "trialdata": {"rt": -1000, "stimulus": "/static/audio/wordpool/FINGER.wav", "key_press": -1, "type": "PRES_AUD", "word": "finger", "wordID": 566, "conditions": [24, 800, "a", 24000], "trial": 5, "serialpos": 0, "trial_type": "single-audio", "trial_index": 173, "time_elapsed": 893820, "internal_node_id": "0.0-119.0"}}, {"uniqueid": "MTK0973:3YOH7BII0AEMMVTWGOXB08P4AMAVKM", "current_trial": 174, "dateTime": 1512941029171, "trialdata": {"rt": -1000, "stimulus": "/static/audio/wordpool/WORKER.wav", "key_press": -1, "type": "PRES_AUD", "word": "worker", "wordID": 1620, "conditions": [24, 800, "a", 24000], "trial": 5, "serialpos": 1, "trial_type": "single-audio", "trial_index": 174, "time_elapsed": 895445, "internal_node_id": "0.0-120.0"}}, {"uniqueid": "MTK0973:3YOH7BII0AEMMVTWGOXB08P4AMAVKM", "current_trial": 175, "dateTime": 1512941030855, "trialdata": {"rt": -1000, "stimulus": "/static/audio/wordpool/LOVER.wav", "key_press": -1, "type": "PRES_AUD", "word": "lover", "wordID": 845, "conditions": [24, 800, "a", 24000], "trial": 5, "serialpos": 2, "trial_type": "single-audio", "trial_index": 175, "time_elapsed": 897129, "internal_node_id": "0.0-121.0"}}, {"uniqueid": "MTK0973:3YOH7BII0AEMMVTWGOXB08P4AMAVKM", "current_trial": 176, "dateTime": 1512941032741, "trialdata": {"rt": -1000, "stimulus": "/static/audio/wordpool/SWORD.wav", "key_press": -1, "type": "PRES_AUD", "word": "sword", "wordID": 1422, "conditions": [24, 800, "a", 24000], "trial": 5, "serialpos": 3, "trial_type": "single-audio", "trial_index": 176, "time_elapsed": 899015, "internal_node_id": "0.0-122.0"}}, {"uniqueid": "MTK0973:3YOH7BII0AEMMVTWGOXB08P4AMAVKM", "current_trial": 177, "dateTime": 1512941034494, "trialdata": {"rt": -1000, "stimulus": "/static/audio/wordpool/PROTON.wav", "key_press": -1, "type": "PRES_AUD", "word": "proton", "wordID": 1131, "conditions": [24, 800, "a", 24000], "trial": 5, "serialpos": 4, "trial_type": "single-audio", "trial_index": 177, "time_elapsed": 900768, "internal_node_id": "0.0-123.0"}}, {"uniqueid": "MTK0973:3YOH7BII0AEMMVTWGOXB08P4AMAVKM", "current_trial": 178, "dateTime": 1512941036265, "trialdata": {"rt": -1000, "stimulus": "/static/audio/wordpool/SHIRT.wav", "key_press": -1, "type": "PRES_AUD", "word": "shirt", "wordID": 1286, "conditions": [24, 800, "a", 24000], "trial": 5, "serialpos": 5, "trial_type": "single-audio", "trial_index": 178, "time_elapsed": 902539, "internal_node_id": "0.0-124.0"}}, {"uniqueid": "MTK0973:3YOH7BII0AEMMVTWGOXB08P4AMAVKM", "current_trial": 179, "dateTime": 1512941038145, "trialdata": {"rt": -1000, "stimulus": "/static/audio/wordpool/BLOUSE.wav", "key_press": -1, "type": "PRES_AUD", "word": "blouse", "wordID": 138, "conditions": [24, 800, "a", 24000], "trial": 5, "serialpos": 6, "trial_type": "single-audio", "trial_index": 179, "time_elapsed": 904419, "internal_node_id": "0.0-125.0"}}, {"uniqueid": "MTK0973:3YOH7BII0AEMMVTWGOXB08P4AMAVKM", "current_trial": 180, "dateTime": 1512941040113, "trialdata": {"rt": -1000, "stimulus": "/static/audio/wordpool/BLENDER.wav", "key_press": -1, "type": "PRES_AUD", "word": "blender", "wordID": 135, "conditions": [24, 800, "a", 24000], "trial": 5, "serialpos": 7, "trial_type": "single-audio", "trial_index": 180, "time_elapsed": 906387, "internal_node_id": "0.0-126.0"}}, {"uniqueid": "MTK0973:3YOH7BII0AEMMVTWGOXB08P4AMAVKM", "current_trial": 181, "dateTime": 1512941041913, "trialdata": {"rt": -1000, "stimulus": "/static/audio/wordpool/SUNSET.wav", "key_press": -1, "type": "PRES_AUD", "word": "sunset", "wordID": 1407, "conditions": [24, 800, "a", 24000], "trial": 5, "serialpos": 8, "trial_type": "single-audio", "trial_index": 181, "time_elapsed": 908186, "internal_node_id": "0.0-127.0"}}, {"uniqueid": "MTK0973:3YOH7BII0AEMMVTWGOXB08P4AMAVKM", "current_trial": 182, "dateTime": 1512941043829, "trialdata": {"rt": -1000, "stimulus": "/static/audio/wordpool/COMET.wav", "key_press": -1, "type": "PRES_AUD", "word": "comet", "wordID": 352, "conditions": [24, 800, "a", 24000], "trial": 5, "serialpos": 9, "trial_type": "single-audio", "trial_index": 182, "time_elapsed": 910103, "internal_node_id": "0.0-128.0"}}, {"uniqueid": "MTK0973:3YOH7BII0AEMMVTWGOXB08P4AMAVKM", "current_trial": 183, "dateTime": 1512941045575, "trialdata": {"rt": -1000, "stimulus": "/static/audio/wordpool/ICEBERG.wav", "key_press": -1, "type": "PRES_AUD", "word": "iceberg", "wordID": 730, "conditions": [24, 800, "a", 24000], "trial": 5, "serialpos": 10, "trial_type": "single-audio", "trial_index": 183, "time_elapsed": 911849, "internal_node_id": "0.0-129.0"}}, {"uniqueid": "MTK0973:3YOH7BII0AEMMVTWGOXB08P4AMAVKM", "current_trial": 184, "dateTime": 1512941047572, "trialdata": {"rt": -1000, "stimulus": "/static/audio/wordpool/WRIST.wav", "key_press": -1, "type": "PRES_AUD", "word": "wrist", "wordID": 1625, "conditions": [24, 800, "a", 24000], "trial": 5, "serialpos": 11, "trial_type": "single-audio", "trial_index": 184, "time_elapsed": 913846, "internal_node_id": "0.0-130.0"}}, {"uniqueid": "MTK0973:3YOH7BII0AEMMVTWGOXB08P4AMAVKM", "current_trial": 185, "dateTime": 1512941049472, "trialdata": {"rt": -1000, "stimulus": "/static/audio/wordpool/EMPIRE.wav", "key_press": -1, "type": "PRES_AUD", "word": "empire", "wordID": 529, "conditions": [24, 800, "a", 24000], "trial": 5, "serialpos": 12, "trial_type": "single-audio", "trial_index": 185, "time_elapsed": 915746, "internal_node_id": "0.0-131.0"}}, {"uniqueid": "MTK0973:3YOH7BII0AEMMVTWGOXB08P4AMAVKM", "current_trial": 186, "dateTime": 1512941051351, "trialdata": {"rt": -1000, "stimulus": "/static/audio/wordpool/OFFICE.wav", "key_press": -1, "type": "PRES_AUD", "word": "office", "wordID": 971, "conditions": [24, 800, "a", 24000], "trial": 5, "serialpos": 13, "trial_type": "single-audio", "trial_index": 186, "time_elapsed": 917625, "internal_node_id": "0.0-132.0"}}, {"uniqueid": "MTK0973:3YOH7BII0AEMMVTWGOXB08P4AMAVKM", "current_trial": 187, "dateTime": 1512941053046, "trialdata": {"rt": -1000, "stimulus": "/static/audio/wordpool/SEAGULL.wav", "key_press": -1, "type": "PRES_AUD", "word": "seagull", "wordID": 1260, "conditions": [24, 800, "a", 24000], "trial": 5, "serialpos": 14, "trial_type": "single-audio", "trial_index": 187, "time_elapsed": 919320, "internal_node_id": "0.0-133.0"}}, {"uniqueid": "MTK0973:3YOH7BII0AEMMVTWGOXB08P4AMAVKM", "current_trial": 188, "dateTime": 1512941054787, "trialdata": {"rt": -1000, "stimulus": "/static/audio/wordpool/POWDER.wav", "key_press": -1, "type": "PRES_AUD", "word": "powder", "wordID": 1116, "conditions": [24, 800, "a", 24000], "trial": 5, "serialpos": 15, "trial_type": "single-audio", "trial_index": 188, "time_elapsed": 921061, "internal_node_id": "0.0-134.0"}}, {"uniqueid": "MTK0973:3YOH7BII0AEMMVTWGOXB08P4AMAVKM", "current_trial": 189, "dateTime": 1512941056703, "trialdata": {"rt": -1000, "stimulus": "/static/audio/wordpool/PISTOL.wav", "key_press": -1, "type": "PRES_AUD", "word": "pistol", "wordID": 1074, "conditions": [24, 800, "a", 24000], "trial": 5, "serialpos": 16, "trial_type": "single-audio", "trial_index": 189, "time_elapsed": 922977, "internal_node_id": "0.0-135.0"}}, {"uniqueid": "MTK0973:3YOH7BII0AEMMVTWGOXB08P4AMAVKM", "current_trial": 190, "dateTime": 1512941058421, "trialdata": {"rt": -1000, "stimulus": "/static/audio/wordpool/KNIFE.wav", "key_press": -1, "type": "PRES_AUD", "word": "knife", "wordID": 784, "conditions": [24, 800, "a", 24000], "trial": 5, "serialpos": 17, "trial_type": "single-audio", "trial_index": 190, "time_elapsed": 924695, "internal_node_id": "0.0-136.0"}}, {"uniqueid": "MTK0973:3YOH7BII0AEMMVTWGOXB08P4AMAVKM", "current_trial": 191, "dateTime": 1512941060354, "trialdata": {"rt": -1000, "stimulus": "/static/audio/wordpool/PEANUT.wav", "key_press": -1, "type": "PRES_AUD", "word": "peanut", "wordID": 1031, "conditions": [24, 800, "a", 24000], "trial": 5, "serialpos": 18, "trial_type": "single-audio", "trial_index": 191, "time_elapsed": 926628, "internal_node_id": "0.0-137.0"}}, {"uniqueid": "MTK0973:3YOH7BII0AEMMVTWGOXB08P4AMAVKM", "current_trial": 192, "dateTime": 1512941062101, "trialdata": {"rt": -1000, "stimulus": "/static/audio/wordpool/DRAWING.wav", "key_press": -1, "type": "PRES_AUD", "word": "drawing", "wordID": 493, "conditions": [24, 800, "a", 24000], "trial": 5, "serialpos": 19, "trial_type": "single-audio", "trial_index": 192, "time_elapsed": 928375, "internal_node_id": "0.0-138.0"}}, {"uniqueid": "MTK0973:3YOH7BII0AEMMVTWGOXB08P4AMAVKM", "current_trial": 193, "dateTime": 1512941063918, "trialdata": {"rt": -1000, "stimulus": "/static/audio/wordpool/SANDWICH.wav", "key_press": -1, "type": "PRES_AUD", "word": "sandwich", "wordID": 1231, "conditions": [24, 800, "a", 24000], "trial": 5, "serialpos": 20, "trial_type": "single-audio", "trial_index": 193, "time_elapsed": 930192, "internal_node_id": "0.0-139.0"}}, {"uniqueid": "MTK0973:3YOH7BII0AEMMVTWGOXB08P4AMAVKM", "current_trial": 194, "dateTime": 1512941065567, "trialdata": {"rt": -1000, "stimulus": "/static/audio/wordpool/SHOVEL.wav", "key_press": -1, "type": "PRES_AUD", "word": "shovel", "wordID": 1294, "conditions": [24, 800, "a", 24000], "trial": 5, "serialpos": 21, "trial_type": "single-audio", "trial_index": 194, "time_elapsed": 931841, "internal_node_id": "0.0-140.0"}}, {"uniqueid": "MTK0973:3YOH7BII0AEMMVTWGOXB08P4AMAVKM", "current_trial": 195, "dateTime": 1512941067285, "trialdata": {"rt": -1000, "stimulus": "/static/audio/wordpool/CRUTCH.wav", "key_press": -1, "type": "PRES_AUD", "word": "crutch", "wordID": 416, "conditions": [24, 800, "a", 24000], "trial": 5, "serialpos": 22, "trial_type": "single-audio", "trial_index": 195, "time_elapsed": 933559, "internal_node_id": "0.0-141.0"}}, {"uniqueid": "MTK0973:3YOH7BII0AEMMVTWGOXB08P4AMAVKM", "current_trial": 196, "dateTime": 1512941069212, "trialdata": {"rt": -1000, "stimulus": "/static/audio/wordpool/DINER.wav", "key_press": -1, "type": "PRES_AUD", "word": "diner", "wordID": 466, "conditions": [24, 800, "a", 24000], "trial": 5, "serialpos": 23, "trial_type": "single-audio", "trial_index": 196, "time_elapsed": 935486, "internal_node_id": "0.0-142.0"}}, {"uniqueid": "MTK0973:3YOH7BII0AEMMVTWGOXB08P4AMAVKM", "current_trial": 197, "dateTime": 1512941070501, "trialdata": {"rt": -1, "stimulus": "", "key_press": -1, "type": "PRE_RECALL_DELAY", "trial_type": "single-stim", "trial_index": 197, "time_elapsed": 936775, "internal_node_id": "0.0-143.0-0.0"}}, {"uniqueid": "MTK0973:3YOH7BII0AEMMVTWGOXB08P4AMAVKM", "current_trial": 198, "dateTime": 1512941071002, "trialdata": {"rt": -1000, "stimulus": "/static/audio/400Hz.wav", "key_press": -1, "type": "PRE_RECALL_ALERT", "trial_type": "single-audio", "trial_index": 198, "time_elapsed": 937276, "internal_node_id": "0.0-144.0"}}, {"uniqueid": "MTK0973:3YOH7BII0AEMMVTWGOXB08P4AMAVKM", "current_trial": 199, "dateTime": 1512941131006, "trialdata": {"rt": [1972, 3933, 4852, 6108, 7292, 10540, 13132, 15508, 16356, 19523, 30131, 38163, 40010, 40970, 50386], "recwords": ["shovel", "crutch", "dinner", "sandwich", "drawing", "iceburg", "wrist", "shirt", "blouse", "peanut", "empire", "shovel", "pistel", "knife", "drawing"], "type": "FREE_RECALL", "conditions": [24, 800, "a", 24000], "trial": 5, "trial_type": "free-recall", "trial_index": 199, "time_elapsed": 997279, "internal_node_id": "0.0-145.0-0.0"}}, {"uniqueid": "MTK0973:3YOH7BII0AEMMVTWGOXB08P4AMAVKM", "current_trial": 200, "dateTime": 1512941133461, "trialdata": {"rt": 453, "key_press": 68, "type": "INSTRUCTIONS", "trial_type": "text", "trial_index": 200, "time_elapsed": 999735, "internal_node_id": "0.0-146.0"}}, {"uniqueid": "MTK0973:3YOH7BII0AEMMVTWGOXB08P4AMAVKM", "current_trial": 201, "dateTime": 1512941147464, "trialdata": {"rt": [1461, 4485, 6597, 8300, 10012], "responses": ["14", "13", "16", "13", "8"], "num1": [5, 1, 6, 3, 2, 9], "num2": [5, 4, 3, 7, 2, 2], "num3": [4, 8, 7, 3, 4, 5], "type": "DISTRACTOR", "conditions": [24, 800, "v", 12000], "trial": 6, "trial_type": "math-distractor", "trial_index": 201, "time_elapsed": 1013738, "internal_node_id": "0.0-147.0"}}, {"uniqueid": "MTK0973:3YOH7BII0AEMMVTWGOXB08P4AMAVKM", "current_trial": 202, "dateTime": 1512941150470, "trialdata": {"rt": -1, "stimulus": "<p id=\"stim\">10</p>", "key_press": -1, "trial_type": "single-stim", "trial_index": 202, "time_elapsed": 1016743, "internal_node_id": "0.0-148.0-0.0"}}, {"uniqueid": "MTK0973:3YOH7BII0AEMMVTWGOXB08P4AMAVKM", "current_trial": 203, "dateTime": 1512941151474, "trialdata": {"rt": -1, "stimulus": "<p id=\"stim\">9</p>", "key_press": -1, "trial_type": "single-stim", "trial_index": 203, "time_elapsed": 1017748, "internal_node_id": "0.0-148.0-1.0"}}, {"uniqueid": "MTK0973:3YOH7BII0AEMMVTWGOXB08P4AMAVKM", "current_trial": 204, "dateTime": 1512941152478, "trialdata": {"rt": -1, "stimulus": "<p id=\"stim\">8</p>", "key_press": -1, "trial_type": "single-stim", "trial_index": 204, "time_elapsed": 1018752, "internal_node_id": "0.0-148.0-2.0"}}, {"uniqueid": "MTK0973:3YOH7BII0AEMMVTWGOXB08P4AMAVKM", "current_trial": 205, "dateTime": 1512941153483, "trialdata": {"rt": -1, "stimulus": "<p id=\"stim\">7</p>", "key_press": -1, "trial_type": "single-stim", "trial_index": 205, "time_elapsed": 1019756, "internal_node_id": "0.0-148.0-3.0"}}, {"uniqueid": "MTK0973:3YOH7BII0AEMMVTWGOXB08P4AMAVKM", "current_trial": 206, "dateTime": 1512941154486, "trialdata": {"rt": -1, "stimulus": "<p id=\"stim\">6</p>", "key_press": -1, "trial_type": "single-stim", "trial_index": 206, "time_elapsed": 1020760, "internal_node_id": "0.0-148.0-4.0"}}, {"uniqueid": "MTK0973:3YOH7BII0AEMMVTWGOXB08P4AMAVKM", "current_trial": 207, "dateTime": 1512941155490, "trialdata": {"rt": -1, "stimulus": "<p id=\"stim\">5</p>", "key_press": -1, "trial_type": "single-stim", "trial_index": 207, "time_elapsed": 1021764, "internal_node_id": "0.0-148.0-5.0"}}, {"uniqueid": "MTK0973:3YOH7BII0AEMMVTWGOXB08P4AMAVKM", "current_trial": 208, "dateTime": 1512941156494, "trialdata": {"rt": -1, "stimulus": "<p id=\"stim\">4</p>", "key_press": -1, "trial_type": "single-stim", "trial_index": 208, "time_elapsed": 1022768, "internal_node_id": "0.0-148.0-6.0"}}, {"uniqueid": "MTK0973:3YOH7BII0AEMMVTWGOXB08P4AMAVKM", "current_trial": 209, "dateTime": 1512941157498, "trialdata": {"rt": -1, "stimulus": "<p id=\"stim\">3</p>", "key_press": -1, "trial_type": "single-stim", "trial_index": 209, "time_elapsed": 1023772, "internal_node_id": "0.0-148.0-7.0"}}, {"uniqueid": "MTK0973:3YOH7BII0AEMMVTWGOXB08P4AMAVKM", "current_trial": 210, "dateTime": 1512941158502, "trialdata": {"rt": -1, "stimulus": "<p id=\"stim\">2</p>", "key_press": -1, "trial_type": "single-stim", "trial_index": 210, "time_elapsed": 1024776, "internal_node_id": "0.0-148.0-8.0"}}, {"uniqueid": "MTK0973:3YOH7BII0AEMMVTWGOXB08P4AMAVKM", "current_trial": 211, "dateTime": 1512941159506, "trialdata": {"rt": -1, "stimulus": "<p id=\"stim\">1</p>", "key_press": -1, "trial_type": "single-stim", "trial_index": 211, "time_elapsed": 1025780, "internal_node_id": "0.0-148.0-9.0"}}, {"uniqueid": "MTK0973:3YOH7BII0AEMMVTWGOXB08P4AMAVKM", "current_trial": 212, "dateTime": 1512941161010, "trialdata": {"rt": -1, "stimulus": "<p id=\"stim\">+</p>", "key_press": -1, "type": "FIXATION", "trial_type": "single-stim", "trial_index": 212, "time_elapsed": 1027283, "internal_node_id": "0.0-149.0-0.0"}}, {"uniqueid": "MTK0973:3YOH7BII0AEMMVTWGOXB08P4AMAVKM", "current_trial": 213, "dateTime": 1512941161811, "trialdata": {"rt": -1, "stimulus": "<p id=\"stim\">HUSBAND</p>", "key_press": -1, "type": "PRES_VIS", "word": "husband", "wordID": 727, "conditions": [24, 800, "v", 12000], "trial": 6, "serialpos": 0, "trial_type": "single-stim", "trial_index": 213, "time_elapsed": 1028084, "internal_node_id": "0.0-150.0"}}, {"uniqueid": "MTK0973:3YOH7BII0AEMMVTWGOXB08P4AMAVKM", "current_trial": 214, "dateTime": 1512941163470, "trialdata": {"rt": -1, "stimulus": "<p id=\"stim\">BUBBLE</p>", "key_press": -1, "type": "PRES_VIS", "word": "bubble", "wordID": 182, "conditions": [24, 800, "v", 12000], "trial": 6, "serialpos": 1, "trial_type": "single-stim", "trial_index": 214, "time_elapsed": 1029744, "internal_node_id": "0.0-151.0"}}, {"uniqueid": "MTK0973:3YOH7BII0AEMMVTWGOXB08P4AMAVKM", "current_trial": 215, "dateTime": 1512941165235, "trialdata": {"rt": -1, "stimulus": "<p id=\"stim\">PICNIC</p>", "key_press": -1, "type": "PRES_VIS", "word": "picnic", "wordID": 1059, "conditions": [24, 800, "v", 12000], "trial": 6, "serialpos": 2, "trial_type": "single-stim", "trial_index": 215, "time_elapsed": 1031509, "internal_node_id": "0.0-152.0"}}, {"uniqueid": "MTK0973:3YOH7BII0AEMMVTWGOXB08P4AMAVKM", "current_trial": 216, "dateTime": 1512941167063, "trialdata": {"rt": -1, "stimulus": "<p id=\"stim\">SUPPER</p>", "key_press": -1, "type": "PRES_VIS", "word": "supper", "wordID": 1410, "conditions": [24, 800, "v", 12000], "trial": 6, "serialpos": 3, "trial_type": "single-stim", "trial_index": 216, "time_elapsed": 1033337, "internal_node_id": "0.0-153.0"}}, {"uniqueid": "MTK0973:3YOH7BII0AEMMVTWGOXB08P4AMAVKM", "current_trial": 217, "dateTime": 1512941169024, "trialdata": {"rt": -1, "stimulus": "<p id=\"stim\">MARKER</p>", "key_press": -1, "type": "PRES_VIS", "word": "marker", "wordID": 869, "conditions": [24, 800, "v", 12000], "trial": 6, "serialpos": 4, "trial_type": "single-stim", "trial_index": 217, "time_elapsed": 1035298, "internal_node_id": "0.0-154.0"}}, {"uniqueid": "MTK0973:3YOH7BII0AEMMVTWGOXB08P4AMAVKM", "current_trial": 218, "dateTime": 1512941170656, "trialdata": {"rt": -1, "stimulus": "<p id=\"stim\">UNCLE</p>", "key_press": -1, "type": "PRES_VIS", "word": "uncle", "wordID": 1535, "conditions": [24, 800, "v", 12000], "trial": 6, "serialpos": 5, "trial_type": "single-stim", "trial_index": 218, "time_elapsed": 1036929, "internal_node_id": "0.0-155.0"}}, {"uniqueid": "MTK0973:3YOH7BII0AEMMVTWGOXB08P4AMAVKM", "current_trial": 219, "dateTime": 1512941172350, "trialdata": {"rt": -1, "stimulus": "<p id=\"stim\">CIGAR</p>", "key_press": -1, "type": "PRES_VIS", "word": "cigar", "wordID": 307, "conditions": [24, 800, "v", 12000], "trial": 6, "serialpos": 6, "trial_type": "single-stim", "trial_index": 219, "time_elapsed": 1038624, "internal_node_id": "0.0-156.0"}}, {"uniqueid": "MTK0973:3YOH7BII0AEMMVTWGOXB08P4AMAVKM", "current_trial": 220, "dateTime": 1512941174004, "trialdata": {"rt": -1, "stimulus": "<p id=\"stim\">PECAN</p>", "key_press": -1, "type": "PRES_VIS", "word": "pecan", "wordID": 1035, "conditions": [24, 800, "v", 12000], "trial": 6, "serialpos": 7, "trial_type": "single-stim", "trial_index": 220, "time_elapsed": 1040278, "internal_node_id": "0.0-157.0"}}, {"uniqueid": "MTK0973:3YOH7BII0AEMMVTWGOXB08P4AMAVKM", "current_trial": 221, "dateTime": 1512941175739, "trialdata": {"rt": -1, "stimulus": "<p id=\"stim\">MAILBOX</p>", "key_press": -1, "type": "PRES_VIS", "word": "mailbox", "wordID": 856, "conditions": [24, 800, "v", 12000], "trial": 6, "serialpos": 8, "trial_type": "single-stim", "trial_index": 221, "time_elapsed": 1042013, "internal_node_id": "0.0-158.0"}}, {"uniqueid": "MTK0973:3YOH7BII0AEMMVTWGOXB08P4AMAVKM", "current_trial": 222, "dateTime": 1512941177643, "trialdata": {"rt": -1, "stimulus": "<p id=\"stim\">NOTEBOOK</p>", "key_press": -1, "type": "PRES_VIS", "word": "notebook", "wordID": 958, "conditions": [24, 800, "v", 12000], "trial": 6, "serialpos": 9, "trial_type": "single-stim", "trial_index": 222, "time_elapsed": 1043917, "internal_node_id": "0.0-159.0"}}, {"uniqueid": "MTK0973:3YOH7BII0AEMMVTWGOXB08P4AMAVKM", "current_trial": 223, "dateTime": 1512941179564, "trialdata": {"rt": -1, "stimulus": "<p id=\"stim\">MARKET</p>", "key_press": -1, "type": "PRES_VIS", "word": "market", "wordID": 870, "conditions": [24, 800, "v", 12000], "trial": 6, "serialpos": 10, "trial_type": "single-stim", "trial_index": 223, "time_elapsed": 1045838, "internal_node_id": "0.0-160.0"}}, {"uniqueid": "MTK0973:3YOH7BII0AEMMVTWGOXB08P4AMAVKM", "current_trial": 224, "dateTime": 1512941181450, "trialdata": {"rt": -1, "stimulus": "<p id=\"stim\">PANTHER</p>", "key_press": -1, "type": "PRES_VIS", "word": "panther", "wordID": 1008, "conditions": [24, 800, "v", 12000], "trial": 6, "serialpos": 11, "trial_type": "single-stim", "trial_index": 224, "time_elapsed": 1047724, "internal_node_id": "0.0-161.0"}}, {"uniqueid": "MTK0973:3YOH7BII0AEMMVTWGOXB08P4AMAVKM", "current_trial": 225, "dateTime": 1512941183290, "trialdata": {"rt": -1, "stimulus": "<p id=\"stim\">BASEMENT</p>", "key_press": -1, "type": "PRES_VIS", "word": "basement", "wordID": 93, "conditions": [24, 800, "v", 12000], "trial": 6, "serialpos": 12, "trial_type": "single-stim", "trial_index": 225, "time_elapsed": 1049564, "internal_node_id": "0.0-162.0"}}, {"uniqueid": "MTK0973:3YOH7BII0AEMMVTWGOXB08P4AMAVKM", "current_trial": 226, "dateTime": 1512941185124, "trialdata": {"rt": -1, "stimulus": "<p id=\"stim\">BANKER</p>", "key_press": -1, "type": "PRES_VIS", "word": "banker", "wordID": 83, "conditions": [24, 800, "v", 12000], "trial": 6, "serialpos": 13, "trial_type": "single-stim", "trial_index": 226, "time_elapsed": 1051398, "internal_node_id": "0.0-163.0"}}, {"uniqueid": "MTK0973:3YOH7BII0AEMMVTWGOXB08P4AMAVKM", "current_trial": 227, "dateTime": 1512941187015, "trialdata": {"rt": -1, "stimulus": "<p id=\"stim\">FRUIT</p>", "key_press": -1, "type": "PRES_VIS", "word": "fruit", "wordID": 609, "conditions": [24, 800, "v", 12000], "trial": 6, "serialpos": 14, "trial_type": "single-stim", "trial_index": 227, "time_elapsed": 1053289, "internal_node_id": "0.0-164.0"}}, {"uniqueid": "MTK0973:3YOH7BII0AEMMVTWGOXB08P4AMAVKM", "current_trial": 228, "dateTime": 1512941188803, "trialdata": {"rt": -1, "stimulus": "<p id=\"stim\">APPLE</p>", "key_press": -1, "type": "PRES_VIS", "word": "apple", "wordID": 32, "conditions": [24, 800, "v", 12000], "trial": 6, "serialpos": 15, "trial_type": "single-stim", "trial_index": 228, "time_elapsed": 1055077, "internal_node_id": "0.0-165.0"}}, {"uniqueid": "MTK0973:3YOH7BII0AEMMVTWGOXB08P4AMAVKM", "current_trial": 229, "dateTime": 1512941190452, "trialdata": {"rt": -1, "stimulus": "<p id=\"stim\">APRON</p>", "key_press": -1, "type": "PRES_VIS", "word": "apron", "wordID": 34, "conditions": [24, 800, "v", 12000], "trial": 6, "serialpos": 16, "trial_type": "single-stim", "trial_index": 229, "time_elapsed": 1056726, "internal_node_id": "0.0-166.0"}}, {"uniqueid": "MTK0973:3YOH7BII0AEMMVTWGOXB08P4AMAVKM", "current_trial": 230, "dateTime": 1512941192286, "trialdata": {"rt": -1, "stimulus": "<p id=\"stim\">CATCHER</p>", "key_press": -1, "type": "PRES_VIS", "word": "catcher", "wordID": 257, "conditions": [24, 800, "v", 12000], "trial": 6, "serialpos": 17, "trial_type": "single-stim", "trial_index": 230, "time_elapsed": 1058560, "internal_node_id": "0.0-167.0"}}, {"uniqueid": "MTK0973:3YOH7BII0AEMMVTWGOXB08P4AMAVKM", "current_trial": 231, "dateTime": 1512941194015, "trialdata": {"rt": -1, "stimulus": "<p id=\"stim\">TWEEZERS</p>", "key_press": -1, "type": "PRES_VIS", "word": "tweezers", "wordID": 1525, "conditions": [24, 800, "v", 12000], "trial": 6, "serialpos": 18, "trial_type": "single-stim", "trial_index": 231, "time_elapsed": 1060289, "internal_node_id": "0.0-168.0"}}, {"uniqueid": "MTK0973:3YOH7BII0AEMMVTWGOXB08P4AMAVKM", "current_trial": 232, "dateTime": 1512941195933, "trialdata": {"rt": -1, "stimulus": "<p id=\"stim\">SERVER</p>", "key_press": -1, "type": "PRES_VIS", "word": "server", "wordID": 1271, "conditions": [24, 800, "v", 12000], "trial": 6, "serialpos": 19, "trial_type": "single-stim", "trial_index": 232, "time_elapsed": 1062207, "internal_node_id": "0.0-169.0"}}, {"uniqueid": "MTK0973:3YOH7BII0AEMMVTWGOXB08P4AMAVKM", "current_trial": 233, "dateTime": 1512941197805, "trialdata": {"rt": -1, "stimulus": "<p id=\"stim\">ASIA</p>", "key_press": -1, "type": "PRES_VIS", "word": "asia", "wordID": 45, "conditions": [24, 800, "v", 12000], "trial": 6, "serialpos": 20, "trial_type": "single-stim", "trial_index": 233, "time_elapsed": 1064079, "internal_node_id": "0.0-170.0"}}, {"uniqueid": "MTK0973:3YOH7BII0AEMMVTWGOXB08P4AMAVKM", "current_trial": 234, "dateTime": 1512941199691, "trialdata": {"rt": -1, "stimulus": "<p id=\"stim\">PLIERS</p>", "key_press": -1, "type": "PRES_VIS", "word": "pliers", "wordID": 1088, "conditions": [24, 800, "v", 12000], "trial": 6, "serialpos": 21, "trial_type": "single-stim", "trial_index": 234, "time_elapsed": 1065965, "internal_node_id": "0.0-171.0"}}, {"uniqueid": "MTK0973:3YOH7BII0AEMMVTWGOXB08P4AMAVKM", "current_trial": 235, "dateTime": 1512941201376, "trialdata": {"rt": -1, "stimulus": "<p id=\"stim\">BANJO</p>", "key_press": -1, "type": "PRES_VIS", "word": "banjo", "wordID": 81, "conditions": [24, 800, "v", 12000], "trial": 6, "serialpos": 22, "trial_type": "single-stim", "trial_index": 235, "time_elapsed": 1067650, "internal_node_id": "0.0-172.0"}}, {"uniqueid": "MTK0973:3YOH7BII0AEMMVTWGOXB08P4AMAVKM", "current_trial": 236, "dateTime": 1512941203150, "trialdata": {"rt": -1, "stimulus": "<p id=\"stim\">THIEF</p>", "key_press": -1, "type": "PRES_VIS", "word": "thief", "wordID": 1455, "conditions": [24, 800, "v", 12000], "trial": 6, "serialpos": 23, "trial_type": "single-stim", "trial_index": 236, "time_elapsed": 1069424, "internal_node_id": "0.0-173.0"}}, {"uniqueid": "MTK0973:3YOH7BII0AEMMVTWGOXB08P4AMAVKM", "current_trial": 237, "dateTime": 1512941205541, "trialdata": {"rt": -1, "stimulus": "", "key_press": -1, "type": "PRE_RECALL_DELAY", "trial_type": "single-stim", "trial_index": 237, "time_elapsed": 1071815, "internal_node_id": "0.0-174.0-0.0"}}, {"uniqueid": "MTK0973:3YOH7BII0AEMMVTWGOXB08P4AMAVKM", "current_trial": 238, "dateTime": 1512941206042, "trialdata": {"rt": -1000, "stimulus": "/static/audio/400Hz.wav", "key_press": -1, "type": "PRE_RECALL_ALERT", "trial_type": "single-audio", "trial_index": 238, "time_elapsed": 1072316, "internal_node_id": "0.0-175.0"}}, {"uniqueid": "MTK0973:3YOH7BII0AEMMVTWGOXB08P4AMAVKM", "current_trial": 239, "dateTime": 1512941266047, "trialdata": {"rt": [2061, 5573, 7021, 8277, 11057, 12077, 14684, 15996, 20686, 25780, 41899, 48626, 49466, 56954], "recwords": ["thief", "banjo", "pliers", "apron", "uncle", "cigar", "notebook", "market", "pliers", "thief", "apron", "fruit", "apple", "husband"], "type": "FREE_RECALL", "conditions": [24, 800, "v", 12000], "trial": 6, "trial_type": "free-recall", "trial_index": 239, "time_elapsed": 1132319, "internal_node_id": "0.0-176.0-0.0"}}, {"uniqueid": "MTK0973:3YOH7BII0AEMMVTWGOXB08P4AMAVKM", "current_trial": 240, "dateTime": 1512941268469, "trialdata": {"rt": 421, "key_press": 74, "type": "INSTRUCTIONS", "trial_type": "text", "trial_index": 240, "time_elapsed": 1134743, "internal_node_id": "0.0-177.0"}}, {"uniqueid": "MTK0973:3YOH7BII0AEMMVTWGOXB08P4AMAVKM", "current_trial": 241, "dateTime": 1512941282476, "trialdata": {"rt": [3019, 4490, 6626, 7970], "responses": ["17", "11", "15", "15"], "num1": [4, 7, 4, 1, 9], "num2": [9, 3, 4, 9, 8], "num3": [4, 1, 7, 5, 8], "type": "DISTRACTOR", "conditions": [24, 800, "a", 12000], "trial": 7, "trial_type": "math-distractor", "trial_index": 241, "time_elapsed": 1148750, "internal_node_id": "0.0-178.0"}}, {"uniqueid": "MTK0973:3YOH7BII0AEMMVTWGOXB08P4AMAVKM", "current_trial": 242, "dateTime": 1512941285481, "trialdata": {"rt": -1, "stimulus": "<p id=\"stim\">10</p>", "key_press": -1, "trial_type": "single-stim", "trial_index": 242, "time_elapsed": 1151755, "internal_node_id": "0.0-179.0-0.0"}}, {"uniqueid": "MTK0973:3YOH7BII0AEMMVTWGOXB08P4AMAVKM", "current_trial": 243, "dateTime": 1512941286486, "trialdata": {"rt": -1, "stimulus": "<p id=\"stim\">9</p>", "key_press": -1, "trial_type": "single-stim", "trial_index": 243, "time_elapsed": 1152760, "internal_node_id": "0.0-179.0-1.0"}}, {"uniqueid": "MTK0973:3YOH7BII0AEMMVTWGOXB08P4AMAVKM", "current_trial": 244, "dateTime": 1512941287490, "trialdata": {"rt": -1, "stimulus": "<p id=\"stim\">8</p>", "key_press": -1, "trial_type": "single-stim", "trial_index": 244, "time_elapsed": 1153764, "internal_node_id": "0.0-179.0-2.0"}}, {"uniqueid": "MTK0973:3YOH7BII0AEMMVTWGOXB08P4AMAVKM", "current_trial": 245, "dateTime": 1512941288494, "trialdata": {"rt": -1, "stimulus": "<p id=\"stim\">7</p>", "key_press": -1, "trial_type": "single-stim", "trial_index": 245, "time_elapsed": 1154767, "internal_node_id": "0.0-179.0-3.0"}}, {"uniqueid": "MTK0973:3YOH7BII0AEMMVTWGOXB08P4AMAVKM", "current_trial": 246, "dateTime": 1512941289498, "trialdata": {"rt": -1, "stimulus": "<p id=\"stim\">6</p>", "key_press": -1, "trial_type": "single-stim", "trial_index": 246, "time_elapsed": 1155772, "internal_node_id": "0.0-179.0-4.0"}}, {"uniqueid": "MTK0973:3YOH7BII0AEMMVTWGOXB08P4AMAVKM", "current_trial": 247, "dateTime": 1512941290502, "trialdata": {"rt": -1, "stimulus": "<p id=\"stim\">5</p>", "key_press": -1, "trial_type": "single-stim", "trial_index": 247, "time_elapsed": 1156776, "internal_node_id": "0.0-179.0-5.0"}}, {"uniqueid": "MTK0973:3YOH7BII0AEMMVTWGOXB08P4AMAVKM", "current_trial": 248, "dateTime": 1512941291506, "trialdata": {"rt": -1, "stimulus": "<p id=\"stim\">4</p>", "key_press": -1, "trial_type": "single-stim", "trial_index": 248, "time_elapsed": 1157780, "internal_node_id": "0.0-179.0-6.0"}}, {"uniqueid": "MTK0973:3YOH7BII0AEMMVTWGOXB08P4AMAVKM", "current_trial": 249, "dateTime": 1512941292510, "trialdata": {"rt": -1, "stimulus": "<p id=\"stim\">3</p>", "key_press": -1, "trial_type": "single-stim", "trial_index": 249, "time_elapsed": 1158784, "internal_node_id": "0.0-179.0-7.0"}}, {"uniqueid": "MTK0973:3YOH7BII0AEMMVTWGOXB08P4AMAVKM", "current_trial": 250, "dateTime": 1512941293514, "trialdata": {"rt": -1, "stimulus": "<p id=\"stim\">2</p>", "key_press": -1, "trial_type": "single-stim", "trial_index": 250, "time_elapsed": 1159788, "internal_node_id": "0.0-179.0-8.0"}}, {"uniqueid": "MTK0973:3YOH7BII0AEMMVTWGOXB08P4AMAVKM", "current_trial": 251, "dateTime": 1512941294518, "trialdata": {"rt": -1, "stimulus": "<p id=\"stim\">1</p>", "key_press": -1, "trial_type": "single-stim", "trial_index": 251, "time_elapsed": 1160792, "internal_node_id": "0.0-179.0-9.0"}}, {"uniqueid": "MTK0973:3YOH7BII0AEMMVTWGOXB08P4AMAVKM", "current_trial": 252, "dateTime": 1512941296021, "trialdata": {"rt": -1, "stimulus": "<p id=\"stim\">+</p>", "key_press": -1, "type": "FIXATION", "trial_type": "single-stim", "trial_index": 252, "time_elapsed": 1162295, "internal_node_id": "0.0-180.0-0.0"}}, {"uniqueid": "MTK0973:3YOH7BII0AEMMVTWGOXB08P4AMAVKM", "current_trial": 253, "dateTime": 1512941297715, "trialdata": {"rt": -1000, "stimulus": "/static/audio/wordpool/FUNGUS.wav", "key_press": -1, "type": "PRES_AUD", "word": "fungus", "wordID": 613, "conditions": [24, 800, "a", 12000], "trial": 7, "serialpos": 0, "trial_type": "single-audio", "trial_index": 253, "time_elapsed": 1163989, "internal_node_id": "0.0-181.0"}}, {"uniqueid": "MTK0973:3YOH7BII0AEMMVTWGOXB08P4AMAVKM", "current_trial": 254, "dateTime": 1512941299550, "trialdata": {"rt": -1000, "stimulus": "/static/audio/wordpool/LETTUCE.wav", "key_press": -1, "type": "PRES_AUD", "word": "lettuce", "wordID": 813, "conditions": [24, 800, "a", 12000], "trial": 7, "serialpos": 1, "trial_type": "single-audio", "trial_index": 254, "time_elapsed": 1165824, "internal_node_id": "0.0-182.0"}}, {"uniqueid": "MTK0973:3YOH7BII0AEMMVTWGOXB08P4AMAVKM", "current_trial": 255, "dateTime": 1512941301198, "trialdata": {"rt": -1000, "stimulus": "/static/audio/wordpool/AUTHOR.wav", "key_press": -1, "type": "PRES_AUD", "word": "author", "wordID": 60, "conditions": [24, 800, "a", 12000], "trial": 7, "serialpos": 2, "trial_type": "single-audio", "trial_index": 255, "time_elapsed": 1167472, "internal_node_id": "0.0-183.0"}}, {"uniqueid": "MTK0973:3YOH7BII0AEMMVTWGOXB08P4AMAVKM", "current_trial": 256, "dateTime": 1512941302899, "trialdata": {"rt": -1000, "stimulus": "/static/audio/wordpool/COFFEE.wav", "key_press": -1, "type": "PRES_AUD", "word": "coffee", "wordID": 340, "conditions": [24, 800, "a", 12000], "trial": 7, "serialpos": 3, "trial_type": "single-audio", "trial_index": 256, "time_elapsed": 1169173, "internal_node_id": "0.0-184.0"}}, {"uniqueid": "MTK0973:3YOH7BII0AEMMVTWGOXB08P4AMAVKM", "current_trial": 257, "dateTime": 1512941304873, "trialdata": {"rt": -1000, "stimulus": "/static/audio/wordpool/GARDEN.wav", "key_press": -1, "type": "PRES_AUD", "word": "garden", "wordID": 622, "conditions": [24, 800, "a", 12000], "trial": 7, "serialpos": 4, "trial_type": "single-audio", "trial_index": 257, "time_elapsed": 1171146, "internal_node_id": "0.0-185.0"}}, {"uniqueid": "MTK0973:3YOH7BII0AEMMVTWGOXB08P4AMAVKM", "current_trial": 258, "dateTime": 1512941306498, "trialdata": {"rt": -1000, "stimulus": "/static/audio/wordpool/COCKTAIL.wav", "key_press": -1, "type": "PRES_AUD", "word": "cocktail", "wordID": 337, "conditions": [24, 800, "a", 12000], "trial": 7, "serialpos": 5, "trial_type": "single-audio", "trial_index": 258, "time_elapsed": 1172772, "internal_node_id": "0.0-186.0"}}, {"uniqueid": "MTK0973:3YOH7BII0AEMMVTWGOXB08P4AMAVKM", "current_trial": 259, "dateTime": 1512941308382, "trialdata": {"rt": -1000, "stimulus": "/static/audio/wordpool/ISLAND.wav", "key_press": -1, "type": "PRES_AUD", "word": "island", "wordID": 744, "conditions": [24, 800, "a", 12000], "trial": 7, "serialpos": 6, "trial_type": "single-audio", "trial_index": 259, "time_elapsed": 1174656, "internal_node_id": "0.0-187.0"}}, {"uniqueid": "MTK0973:3YOH7BII0AEMMVTWGOXB08P4AMAVKM", "current_trial": 260, "dateTime": 1512941310230, "trialdata": {"rt": -1000, "stimulus": "/static/audio/wordpool/PENGUIN.wav", "key_press": -1, "type": "PRES_AUD", "word": "penguin", "wordID": 1043, "conditions": [24, 800, "a", 12000], "trial": 7, "serialpos": 7, "trial_type": "single-audio", "trial_index": 260, "time_elapsed": 1176504, "internal_node_id": "0.0-188.0"}}, {"uniqueid": "MTK0973:3YOH7BII0AEMMVTWGOXB08P4AMAVKM", "current_trial": 261, "dateTime": 1512941312152, "trialdata": {"rt": -1000, "stimulus": "/static/audio/wordpool/ORCHID.wav", "key_press": -1, "type": "PRES_AUD", "word": "orchid", "wordID": 981, "conditions": [24, 800, "a", 12000], "trial": 7, "serialpos": 8, "trial_type": "single-audio", "trial_index": 261, "time_elapsed": 1178425, "internal_node_id": "0.0-189.0"}}, {"uniqueid": "MTK0973:3YOH7BII0AEMMVTWGOXB08P4AMAVKM", "current_trial": 262, "dateTime": 1512941313759, "trialdata": {"rt": -1000, "stimulus": "/static/audio/wordpool/RIVER.wav", "key_press": -1, "type": "PRES_AUD", "word": "river", "wordID": 1193, "conditions": [24, 800, "a", 12000], "trial": 7, "serialpos": 9, "trial_type": "single-audio", "trial_index": 262, "time_elapsed": 1180033, "internal_node_id": "0.0-190.0"}}, {"uniqueid": "MTK0973:3YOH7BII0AEMMVTWGOXB08P4AMAVKM", "current_trial": 263, "dateTime": 1512941315431, "trialdata": {"rt": -1000, "stimulus": "/static/audio/wordpool/LAGOON.wav", "key_press": -1, "type": "PRES_AUD", "word": "lagoon", "wordID": 794, "conditions": [24, 800, "a", 12000], "trial": 7, "serialpos": 10, "trial_type": "single-audio", "trial_index": 263, "time_elapsed": 1181705, "internal_node_id": "0.0-191.0"}}, {"uniqueid": "MTK0973:3YOH7BII0AEMMVTWGOXB08P4AMAVKM", "current_trial": 264, "dateTime": 1512941317068, "trialdata": {"rt": -1000, "stimulus": "/static/audio/wordpool/SPONGE.wav", "key_press": -1, "type": "PRES_AUD", "word": "sponge", "wordID": 1354, "conditions": [24, 800, "a", 12000], "trial": 7, "serialpos": 11, "trial_type": "single-audio", "trial_index": 264, "time_elapsed": 1183342, "internal_node_id": "0.0-192.0"}}, {"uniqueid": "MTK0973:3YOH7BII0AEMMVTWGOXB08P4AMAVKM", "current_trial": 265, "dateTime": 1512941318804, "trialdata": {"rt": -1000, "stimulus": "/static/audio/wordpool/BULLET.wav", "key_press": -1, "type": "PRES_AUD", "word": "bullet", "wordID": 193, "conditions": [24, 800, "a", 12000], "trial": 7, "serialpos": 12, "trial_type": "single-audio", "trial_index": 265, "time_elapsed": 1185078, "internal_node_id": "0.0-193.0"}}, {"uniqueid": "MTK0973:3YOH7BII0AEMMVTWGOXB08P4AMAVKM", "current_trial": 266, "dateTime": 1512941320447, "trialdata": {"rt": -1000, "stimulus": "/static/audio/wordpool/TROMBONE.wav", "key_press": -1, "type": "PRES_AUD", "word": "trombone", "wordID": 1507, "conditions": [24, 800, "a", 12000], "trial": 7, "serialpos": 13, "trial_type": "single-audio", "trial_index": 266, "time_elapsed": 1186720, "internal_node_id": "0.0-194.0"}}, {"uniqueid": "MTK0973:3YOH7BII0AEMMVTWGOXB08P4AMAVKM", "current_trial": 267, "dateTime": 1512941322058, "trialdata": {"rt": -1000, "stimulus": "/static/audio/wordpool/PATROL.wav", "key_press": -1, "type": "PRES_AUD", "word": "patrol", "wordID": 1026, "conditions": [24, 800, "a", 12000], "trial": 7, "serialpos": 14, "trial_type": "single-audio", "trial_index": 267, "time_elapsed": 1188332, "internal_node_id": "0.0-195.0"}}, {"uniqueid": "MTK0973:3YOH7BII0AEMMVTWGOXB08P4AMAVKM", "current_trial": 268, "dateTime": 1512941323883, "trialdata": {"rt": -1000, "stimulus": "/static/audio/wordpool/CAFE.wav", "key_press": -1, "type": "PRES_AUD", "word": "cafe", "wordID": 215, "conditions": [24, 800, "a", 12000], "trial": 7, "serialpos": 15, "trial_type": "single-audio", "trial_index": 268, "time_elapsed": 1190157, "internal_node_id": "0.0-196.0"}}, {"uniqueid": "MTK0973:3YOH7BII0AEMMVTWGOXB08P4AMAVKM", "current_trial": 269, "dateTime": 1512941325793, "trialdata": {"rt": -1000, "stimulus": "/static/audio/wordpool/FIREPLACE.wav", "key_press": -1, "type": "PRES_AUD", "word": "fireplace", "wordID": 569, "conditions": [24, 800, "a", 12000], "trial": 7, "serialpos": 16, "trial_type": "single-audio", "trial_index": 269, "time_elapsed": 1192067, "internal_node_id": "0.0-197.0"}}, {"uniqueid": "MTK0973:3YOH7BII0AEMMVTWGOXB08P4AMAVKM", "current_trial": 270, "dateTime": 1512941327760, "trialdata": {"rt": -1000, "stimulus": "/static/audio/wordpool/CLOCK.wav", "key_press": -1, "type": "PRES_AUD", "word": "clock", "wordID": 324, "conditions": [24, 800, "a", 12000], "trial": 7, "serialpos": 17, "trial_type": "single-audio", "trial_index": 270, "time_elapse