{"condition": 0, "counterbalance": 1344, "assignmentId": "3OCHAWUVGPREQKYRG3YTOTMPQXAXKJ", "workerId": "MTK0935", "hitId": "3ZQA3IO31BYN3Q0JH00DBH3DPFV1OY", "currenttrial": 626, "bonus": 0, "data": [{"uniqueid": "MTK0935:3OCHAWUVGPREQKYRG3YTOTMPQXAXKJ", "current_trial": 0, "dateTime": 1512931601438, "trialdata": {"rt": 7171, "key_press": 32, "type": "INSTRUCTIONS", "trial_type": "text", "trial_index": 0, "time_elapsed": 7173, "internal_node_id": "0.0-0.0"}}, {"uniqueid": "MTK0935:3OCHAWUVGPREQKYRG3YTOTMPQXAXKJ", "current_trial": 1, "dateTime": 1512931961975, "trialdata": {"rt": 360535, "key_press": 32, "type": "INSTRUCTIONS", "trial_type": "text", "trial_index": 1, "time_elapsed": 367711, "internal_node_id": "0.0-1.0"}}, {"uniqueid": "MTK0935:3OCHAWUVGPREQKYRG3YTOTMPQXAXKJ", "current_trial": 2, "dateTime": 1512931971960, "trialdata": {"rt": [9780], "responses": ["ocean"], "type": "AUDIO_TEST", "trial_type": "audio-test", "trial_index": 2, "time_elapsed": 377696, "internal_node_id": "0.0-2.0"}}, {"uniqueid": "MTK0935:3OCHAWUVGPREQKYRG3YTOTMPQXAXKJ", "current_trial": 3, "dateTime": 1512931982139, "trialdata": {"rt": [10174], "responses": ["crystal"], "type": "AUDIO_TEST", "trial_type": "audio-test", "trial_index": 3, "time_elapsed": 387875, "internal_node_id": "0.0-3.0"}}, {"uniqueid": "MTK0935:3OCHAWUVGPREQKYRG3YTOTMPQXAXKJ", "current_trial": 4, "dateTime": 1512931989087, "trialdata": {"rt": [6941], "responses": ["spice"], "type": "AUDIO_TEST", "trial_type": "audio-test", "trial_index": 4, "time_elapsed": 394823, "internal_node_id": "0.0-4.0"}}, {"uniqueid": "MTK0935:3OCHAWUVGPREQKYRG3YTOTMPQXAXKJ", "current_trial": 5, "dateTime": 1512932016246, "trialdata": {"rt": 26405, "responses": "{\"Q0\":\"11:30 PM\",\"Q1\":\"9:00 AM\",\"Q2\":\"5\"}", "type": "SLEEP_SURVEY", "trial_type": "survey-text", "trial_index": 5, "time_elapsed": 421982, "internal_node_id": "0.0-5.0"}}, {"uniqueid": "MTK0935:3OCHAWUVGPREQKYRG3YTOTMPQXAXKJ", "current_trial": 6, "dateTime": 1512932186529, "trialdata": {"rt": 169282, "key_press": 32, "type": "INSTRUCTIONS", "trial_type": "text", "trial_index": 6, "time_elapsed": 592265, "internal_node_id": "0.0-6.0"}}, {"uniqueid": "MTK0935:3OCHAWUVGPREQKYRG3YTOTMPQXAXKJ", "current_trial": 7, "dateTime": 1512932292325, "trialdata": {"rt": 105294, "key_press": 32, "type": "INSTRUCTIONS", "trial_type": "text", "trial_index": 7, "time_elapsed": 698061, "internal_node_id": "0.0-7.0"}}, {"uniqueid": "MTK0935:3OCHAWUVGPREQKYRG3YTOTMPQXAXKJ", "current_trial": 8, "dateTime": 1512932309999, "trialdata": {"rt": 17172, "key_press": 32, "type": "INSTRUCTIONS", "trial_type": "text", "trial_index": 8, "time_elapsed": 715735, "internal_node_id": "0.0-8.0"}}, {"uniqueid": "MTK0935:3OCHAWUVGPREQKYRG3YTOTMPQXAXKJ", "current_trial": 9, "dateTime": 1512932329016, "trialdata": {"rt": [4956, 8537, 12555, 15404], "responses": ["20", "7", "14", "12"], "num1": [7, 3, 3, 5, 8], "num2": [9, 3, 2, 1, 4], "num3": [4, 1, 9, 6, 8], "type": "DISTRACTOR", "conditions": [18, 1200, "v", 18000], "trial": 0, "trial_type": "math-distractor", "trial_index": 9, "time_elapsed": 734752, "internal_node_id": "0.0-9.0"}}, {"uniqueid": "MTK0935:3OCHAWUVGPREQKYRG3YTOTMPQXAXKJ", "current_trial": 10, "dateTime": 1512932332018, "trialdata": {"rt": -1, "stimulus": "<p id=\"stim\">10</p>", "key_press": -1, "trial_type": "single-stim", "trial_index": 10, "time_elapsed": 737754, "internal_node_id": "0.0-10.0-0.0"}}, {"uniqueid": "MTK0935:3OCHAWUVGPREQKYRG3YTOTMPQXAXKJ", "current_trial": 11, "dateTime": 1512932333020, "trialdata": {"rt": -1, "stimulus": "<p id=\"stim\">9</p>", "key_press": -1, "trial_type": "single-stim", "trial_index": 11, "time_elapsed": 738756, "internal_node_id": "0.0-10.0-1.0"}}, {"uniqueid": "MTK0935:3OCHAWUVGPREQKYRG3YTOTMPQXAXKJ", "current_trial": 12, "dateTime": 1512932334023, "trialdata": {"rt": -1, "stimulus": "<p id=\"stim\">8</p>", "key_press": -1, "trial_type": "single-stim", "trial_index": 12, "time_elapsed": 739759, "internal_node_id": "0.0-10.0-2.0"}}, {"uniqueid": "MTK0935:3OCHAWUVGPREQKYRG3YTOTMPQXAXKJ", "current_trial": 13, "dateTime": 1512932335024, "trialdata": {"rt": -1, "stimulus": "<p id=\"stim\">7</p>", "key_press": -1, "trial_type": "single-stim", "trial_index": 13, "time_elapsed": 740760, "internal_node_id": "0.0-10.0-3.0"}}, {"uniqueid": "MTK0935:3OCHAWUVGPREQKYRG3YTOTMPQXAXKJ", "current_trial": 14, "dateTime": 1512932336025, "trialdata": {"rt": -1, "stimulus": "<p id=\"stim\">6</p>", "key_press": -1, "trial_type": "single-stim", "trial_index": 14, "time_elapsed": 741761, "internal_node_id": "0.0-10.0-4.0"}}, {"uniqueid": "MTK0935:3OCHAWUVGPREQKYRG3YTOTMPQXAXKJ", "current_trial": 15, "dateTime": 1512932337027, "trialdata": {"rt": 487, "stimulus": "<p id=\"stim\">5</p>", "key_press": 13, "trial_type": "single-stim", "trial_index": 15, "time_elapsed": 742763, "internal_node_id": "0.0-10.0-5.0"}}, {"uniqueid": "MTK0935:3OCHAWUVGPREQKYRG3YTOTMPQXAXKJ", "current_trial": 16, "dateTime": 1512932338028, "trialdata": {"rt": -1, "stimulus": "<p id=\"stim\">4</p>", "key_press": -1, "trial_type": "single-stim", "trial_index": 16, "time_elapsed": 743764, "internal_node_id": "0.0-10.0-6.0"}}, {"uniqueid": "MTK0935:3OCHAWUVGPREQKYRG3YTOTMPQXAXKJ", "current_trial": 17, "dateTime": 1512932339030, "trialdata": {"rt": -1, "stimulus": "<p id=\"stim\">3</p>", "key_press": -1, "trial_type": "single-stim", "trial_index": 17, "time_elapsed": 744766, "internal_node_id": "0.0-10.0-7.0"}}, {"uniqueid": "MTK0935:3OCHAWUVGPREQKYRG3YTOTMPQXAXKJ", "current_trial": 18, "dateTime": 1512932340031, "trialdata": {"rt": -1, "stimulus": "<p id=\"stim\">2</p>", "key_press": -1, "trial_type": "single-stim", "trial_index": 18, "time_elapsed": 745767, "internal_node_id": "0.0-10.0-8.0"}}, {"uniqueid": "MTK0935:3OCHAWUVGPREQKYRG3YTOTMPQXAXKJ", "current_trial": 19, "dateTime": 1512932341034, "trialdata": {"rt": -1, "stimulus": "<p id=\"stim\">1</p>", "key_press": -1, "trial_type": "single-stim", "trial_index": 19, "time_elapsed": 746770, "internal_node_id": "0.0-10.0-9.0"}}, {"uniqueid": "MTK0935:3OCHAWUVGPREQKYRG3YTOTMPQXAXKJ", "current_trial": 20, "dateTime": 1512932342535, "trialdata": {"rt": -1, "stimulus": "<p id=\"stim\">+</p>", "key_press": -1, "type": "FIXATION", "trial_type": "single-stim", "trial_index": 20, "time_elapsed": 748271, "internal_node_id": "0.0-11.0-0.0"}}, {"uniqueid": "MTK0935:3OCHAWUVGPREQKYRG3YTOTMPQXAXKJ", "current_trial": 21, "dateTime": 1512932343737, "trialdata": {"rt": -1, "stimulus": "<p id=\"stim\">PANTHER</p>", "key_press": -1, "type": "PRES_VIS", "word": "panther", "wordID": 1008, "conditions": [18, 1200, "v", 18000], "trial": 0, "serialpos": 0, "trial_type": "single-stim", "trial_index": 21, "time_elapsed": 749473, "internal_node_id": "0.0-12.0"}}, {"uniqueid": "MTK0935:3OCHAWUVGPREQKYRG3YTOTMPQXAXKJ", "current_trial": 22, "dateTime": 1512932345983, "trialdata": {"rt": -1, "stimulus": "<p id=\"stim\">POCKET</p>", "key_press": -1, "type": "PRES_VIS", "word": "pocket", "wordID": 1092, "conditions": [18, 1200, "v", 18000], "trial": 0, "serialpos": 1, "trial_type": "single-stim", "trial_index": 22, "time_elapsed": 751719, "internal_node_id": "0.0-13.0"}}, {"uniqueid": "MTK0935:3OCHAWUVGPREQKYRG3YTOTMPQXAXKJ", "current_trial": 23, "dateTime": 1512932348166, "trialdata": {"rt": -1, "stimulus": "<p id=\"stim\">SERVER</p>", "key_press": -1, "type": "PRES_VIS", "word": "server", "wordID": 1271, "conditions": [18, 1200, "v", 18000], "trial": 0, "serialpos": 2, "trial_type": "single-stim", "trial_index": 23, "time_elapsed": 753902, "internal_node_id": "0.0-14.0"}}, {"uniqueid": "MTK0935:3OCHAWUVGPREQKYRG3YTOTMPQXAXKJ", "current_trial": 24, "dateTime": 1512932350313, "trialdata": {"rt": -1, "stimulus": "<p id=\"stim\">FINGER</p>", "key_press": -1, "type": "PRES_VIS", "word": "finger", "wordID": 566, "conditions": [18, 1200, "v", 18000], "trial": 0, "serialpos": 3, "trial_type": "single-stim", "trial_index": 24, "time_elapsed": 756049, "internal_node_id": "0.0-15.0"}}, {"uniqueid": "MTK0935:3OCHAWUVGPREQKYRG3YTOTMPQXAXKJ", "current_trial": 25, "dateTime": 1512932352441, "trialdata": {"rt": -1, "stimulus": "<p id=\"stim\">MAILBOX</p>", "key_press": -1, "type": "PRES_VIS", "word": "mailbox", "wordID": 856, "conditions": [18, 1200, "v", 18000], "trial": 0, "serialpos": 4, "trial_type": "single-stim", "trial_index": 25, "time_elapsed": 758177, "internal_node_id": "0.0-16.0"}}, {"uniqueid": "MTK0935:3OCHAWUVGPREQKYRG3YTOTMPQXAXKJ", "current_trial": 26, "dateTime": 1512932354815, "trialdata": {"rt": -1, "stimulus": "<p id=\"stim\">MARSH</p>", "key_press": -1, "type": "PRES_VIS", "word": "marsh", "wordID": 873, "conditions": [18, 1200, "v", 18000], "trial": 0, "serialpos": 5, "trial_type": "single-stim", "trial_index": 26, "time_elapsed": 760551, "internal_node_id": "0.0-17.0"}}, {"uniqueid": "MTK0935:3OCHAWUVGPREQKYRG3YTOTMPQXAXKJ", "current_trial": 27, "dateTime": 1512932356947, "trialdata": {"rt": -1, "stimulus": "<p id=\"stim\">CLAM</p>", "key_press": -1, "type": "PRES_VIS", "word": "clam", "wordID": 314, "conditions": [18, 1200, "v", 18000], "trial": 0, "serialpos": 6, "trial_type": "single-stim", "trial_index": 27, "time_elapsed": 762683, "internal_node_id": "0.0-18.0"}}, {"uniqueid": "MTK0935:3OCHAWUVGPREQKYRG3YTOTMPQXAXKJ", "current_trial": 28, "dateTime": 1512932359329, "trialdata": {"rt": -1, "stimulus": "<p id=\"stim\">PUDDING</p>", "key_press": -1, "type": "PRES_VIS", "word": "pudding", "wordID": 1138, "conditions": [18, 1200, "v", 18000], "trial": 0, "serialpos": 7, "trial_type": "single-stim", "trial_index": 28, "time_elapsed": 765065, "internal_node_id": "0.0-19.0"}}, {"uniqueid": "MTK0935:3OCHAWUVGPREQKYRG3YTOTMPQXAXKJ", "current_trial": 29, "dateTime": 1512932361361, "trialdata": {"rt": -1, "stimulus": "<p id=\"stim\">LABEL</p>", "key_press": -1, "type": "PRES_VIS", "word": "label", "wordID": 789, "conditions": [18, 1200, "v", 18000], "trial": 0, "serialpos": 8, "trial_type": "single-stim", "trial_index": 29, "time_elapsed": 767097, "internal_node_id": "0.0-20.0"}}, {"uniqueid": "MTK0935:3OCHAWUVGPREQKYRG3YTOTMPQXAXKJ", "current_trial": 30, "dateTime": 1512932363741, "trialdata": {"rt": -1, "stimulus": "<p id=\"stim\">PICNIC</p>", "key_press": -1, "type": "PRES_VIS", "word": "picnic", "wordID": 1059, "conditions": [18, 1200, "v", 18000], "trial": 0, "serialpos": 9, "trial_type": "single-stim", "trial_index": 30, "time_elapsed": 769477, "internal_node_id": "0.0-21.0"}}, {"uniqueid": "MTK0935:3OCHAWUVGPREQKYRG3YTOTMPQXAXKJ", "current_trial": 31, "dateTime": 1512932365773, "trialdata": {"rt": -1, "stimulus": "<p id=\"stim\">KIDNEY</p>", "key_press": -1, "type": "PRES_VIS", "word": "kidney", "wordID": 775, "conditions": [18, 1200, "v", 18000], "trial": 0, "serialpos": 10, "trial_type": "single-stim", "trial_index": 31, "time_elapsed": 771509, "internal_node_id": "0.0-22.0"}}, {"uniqueid": "MTK0935:3OCHAWUVGPREQKYRG3YTOTMPQXAXKJ", "current_trial": 32, "dateTime": 1512932367995, "trialdata": {"rt": -1, "stimulus": "<p id=\"stim\">RADISH</p>", "key_press": -1, "type": "PRES_VIS", "word": "radish", "wordID": 1157, "conditions": [18, 1200, "v", 18000], "trial": 0, "serialpos": 11, "trial_type": "single-stim", "trial_index": 32, "time_elapsed": 773731, "internal_node_id": "0.0-23.0"}}, {"uniqueid": "MTK0935:3OCHAWUVGPREQKYRG3YTOTMPQXAXKJ", "current_trial": 33, "dateTime": 1512932370012, "trialdata": {"rt": -1, "stimulus": "<p id=\"stim\">INFANT</p>", "key_press": -1, "type": "PRES_VIS", "word": "infant", "wordID": 736, "conditions": [18, 1200, "v", 18000], "trial": 0, "serialpos": 12, "trial_type": "single-stim", "trial_index": 33, "time_elapsed": 775748, "internal_node_id": "0.0-24.0"}}, {"uniqueid": "MTK0935:3OCHAWUVGPREQKYRG3YTOTMPQXAXKJ", "current_trial": 34, "dateTime": 1512932372349, "trialdata": {"rt": -1, "stimulus": "<p id=\"stim\">BREAST</p>", "key_press": -1, "type": "PRES_VIS", "word": "breast", "wordID": 170, "conditions": [18, 1200, "v", 18000], "trial": 0, "serialpos": 13, "trial_type": "single-stim", "trial_index": 34, "time_elapsed": 778085, "internal_node_id": "0.0-25.0"}}, {"uniqueid": "MTK0935:3OCHAWUVGPREQKYRG3YTOTMPQXAXKJ", "current_trial": 35, "dateTime": 1512932374496, "trialdata": {"rt": -1, "stimulus": "<p id=\"stim\">ASIA</p>", "key_press": -1, "type": "PRES_VIS", "word": "asia", "wordID": 45, "conditions": [18, 1200, "v", 18000], "trial": 0, "serialpos": 14, "trial_type": "single-stim", "trial_index": 35, "time_elapsed": 780232, "internal_node_id": "0.0-26.0"}}, {"uniqueid": "MTK0935:3OCHAWUVGPREQKYRG3YTOTMPQXAXKJ", "current_trial": 36, "dateTime": 1512932376540, "trialdata": {"rt": -1, "stimulus": "<p id=\"stim\">WINDOW</p>", "key_press": -1, "type": "PRES_VIS", "word": "window", "wordID": 1610, "conditions": [18, 1200, "v", 18000], "trial": 0, "serialpos": 15, "trial_type": "single-stim", "trial_index": 36, "time_elapsed": 782276, "internal_node_id": "0.0-27.0"}}, {"uniqueid": "MTK0935:3OCHAWUVGPREQKYRG3YTOTMPQXAXKJ", "current_trial": 37, "dateTime": 1512932378567, "trialdata": {"rt": -1, "stimulus": "<p id=\"stim\">VIKING</p>", "key_press": -1, "type": "PRES_VIS", "word": "viking", "wordID": 1564, "conditions": [18, 1200, "v", 18000], "trial": 0, "serialpos": 16, "trial_type": "single-stim", "trial_index": 37, "time_elapsed": 784303, "internal_node_id": "0.0-28.0"}}, {"uniqueid": "MTK0935:3OCHAWUVGPREQKYRG3YTOTMPQXAXKJ", "current_trial": 38, "dateTime": 1512932380738, "trialdata": {"rt": -1, "stimulus": "<p id=\"stim\">FRAME</p>", "key_press": -1, "type": "PRES_VIS", "word": "frame", "wordID": 599, "conditions": [18, 1200, "v", 18000], "trial": 0, "serialpos": 17, "trial_type": "single-stim", "trial_index": 38, "time_elapsed": 786474, "internal_node_id": "0.0-29.0"}}, {"uniqueid": "MTK0935:3OCHAWUVGPREQKYRG3YTOTMPQXAXKJ", "current_trial": 39, "dateTime": 1512932382968, "trialdata": {"rt": -1, "stimulus": "", "key_press": -1, "type": "PRE_RECALL_DELAY", "trial_type": "single-stim", "trial_index": 39, "time_elapsed": 788704, "internal_node_id": "0.0-30.0-0.0"}}, {"uniqueid": "MTK0935:3OCHAWUVGPREQKYRG3YTOTMPQXAXKJ", "current_trial": 40, "dateTime": 1512932383616, "trialdata": {"rt": -1000, "stimulus": "/static/audio/400Hz.wav", "key_press": -1, "type": "PRE_RECALL_ALERT", "trial_type": "single-audio", "trial_index": 40, "time_elapsed": 789352, "internal_node_id": "0.0-31.0"}}, {"uniqueid": "MTK0935:3OCHAWUVGPREQKYRG3YTOTMPQXAXKJ", "current_trial": 41, "dateTime": 1512932443621, "trialdata": {"rt": [3301, 7642, 13197, 18105, 28608, 32713, 45030], "recwords": ["frame", "viking", "breast", "mailbox", "clam", "pudding", "radish"], "type": "FREE_RECALL", "conditions": [18, 1200, "v", 18000], "trial": 0, "trial_type": "free-recall", "trial_index": 41, "time_elapsed": 849355, "internal_node_id": "0.0-32.0-0.0"}}, {"uniqueid": "MTK0935:3OCHAWUVGPREQKYRG3YTOTMPQXAXKJ", "current_trial": 42, "dateTime": 1512932449393, "trialdata": {"rt": 3771, "key_press": 32, "type": "INSTRUCTIONS", "trial_type": "text", "trial_index": 42, "time_elapsed": 855129, "internal_node_id": "0.0-33.0"}}, {"uniqueid": "MTK0935:3OCHAWUVGPREQKYRG3YTOTMPQXAXKJ", "current_trial": 43, "dateTime": 1512932469397, "trialdata": {"rt": [7326, 10828, 13860], "responses": ["16", "19", "20"], "num1": [3, 8, 4, 8], "num2": [5, 8, 8, 7], "num3": [8, 3, 8, 2], "type": "DISTRACTOR", "conditions": [18, 1200, "a", 18000], "trial": 1, "trial_type": "math-distractor", "trial_index": 43, "time_elapsed": 875133, "internal_node_id": "0.0-34.0"}}, {"uniqueid": "MTK0935:3OCHAWUVGPREQKYRG3YTOTMPQXAXKJ", "current_trial": 44, "dateTime": 1512932472399, "trialdata": {"rt": -1, "stimulus": "<p id=\"stim\">10</p>", "key_press": -1, "trial_type": "single-stim", "trial_index": 44, "time_elapsed": 878135, "internal_node_id": "0.0-35.0-0.0"}}, {"uniqueid": "MTK0935:3OCHAWUVGPREQKYRG3YTOTMPQXAXKJ", "current_trial": 45, "dateTime": 1512932473400, "trialdata": {"rt": -1, "stimulus": "<p id=\"stim\">9</p>", "key_press": -1, "trial_type": "single-stim", "trial_index": 45, "time_elapsed": 879136, "internal_node_id": "0.0-35.0-1.0"}}, {"uniqueid": "MTK0935:3OCHAWUVGPREQKYRG3YTOTMPQXAXKJ", "current_trial": 46, "dateTime": 1512932474401, "trialdata": {"rt": -1, "stimulus": "<p id=\"stim\">8</p>", "key_press": -1, "trial_type": "single-stim", "trial_index": 46, "time_elapsed": 880137, "internal_node_id": "0.0-35.0-2.0"}}, {"uniqueid": "MTK0935:3OCHAWUVGPREQKYRG3YTOTMPQXAXKJ", "current_trial": 47, "dateTime": 1512932475402, "trialdata": {"rt": -1, "stimulus": "<p id=\"stim\">7</p>", "key_press": -1, "trial_type": "single-stim", "trial_index": 47, "time_elapsed": 881138, "internal_node_id": "0.0-35.0-3.0"}}, {"uniqueid": "MTK0935:3OCHAWUVGPREQKYRG3YTOTMPQXAXKJ", "current_trial": 48, "dateTime": 1512932476403, "trialdata": {"rt": -1, "stimulus": "<p id=\"stim\">6</p>", "key_press": -1, "trial_type": "single-stim", "trial_index": 48, "time_elapsed": 882139, "internal_node_id": "0.0-35.0-4.0"}}, {"uniqueid": "MTK0935:3OCHAWUVGPREQKYRG3YTOTMPQXAXKJ", "current_trial": 49, "dateTime": 1512932477405, "trialdata": {"rt": -1, "stimulus": "<p id=\"stim\">5</p>", "key_press": -1, "trial_type": "single-stim", "trial_index": 49, "time_elapsed": 883141, "internal_node_id": "0.0-35.0-5.0"}}, {"uniqueid": "MTK0935:3OCHAWUVGPREQKYRG3YTOTMPQXAXKJ", "current_trial": 50, "dateTime": 1512932478406, "trialdata": {"rt": -1, "stimulus": "<p id=\"stim\">4</p>", "key_press": -1, "trial_type": "single-stim", "trial_index": 50, "time_elapsed": 884142, "internal_node_id": "0.0-35.0-6.0"}}, {"uniqueid": "MTK0935:3OCHAWUVGPREQKYRG3YTOTMPQXAXKJ", "current_trial": 51, "dateTime": 1512932479407, "trialdata": {"rt": -1, "stimulus": "<p id=\"stim\">3</p>", "key_press": -1, "trial_type": "single-stim", "trial_index": 51, "time_elapsed": 885143, "internal_node_id": "0.0-35.0-7.0"}}, {"uniqueid": "MTK0935:3OCHAWUVGPREQKYRG3YTOTMPQXAXKJ", "current_trial": 52, "dateTime": 1512932480409, "trialdata": {"rt": -1, "stimulus": "<p id=\"stim\">2</p>", "key_press": -1, "trial_type": "single-stim", "trial_index": 52, "time_elapsed": 886145, "internal_node_id": "0.0-35.0-8.0"}}, {"uniqueid": "MTK0935:3OCHAWUVGPREQKYRG3YTOTMPQXAXKJ", "current_trial": 53, "dateTime": 1512932481410, "trialdata": {"rt": -1, "stimulus": "<p id=\"stim\">1</p>", "key_press": -1, "trial_type": "single-stim", "trial_index": 53, "time_elapsed": 887146, "internal_node_id": "0.0-35.0-9.0"}}, {"uniqueid": "MTK0935:3OCHAWUVGPREQKYRG3YTOTMPQXAXKJ", "current_trial": 54, "dateTime": 1512932482913, "trialdata": {"rt": -1, "stimulus": "<p id=\"stim\">+</p>", "key_press": -1, "type": "FIXATION", "trial_type": "single-stim", "trial_index": 54, "time_elapsed": 888649, "internal_node_id": "0.0-36.0-0.0"}}, {"uniqueid": "MTK0935:3OCHAWUVGPREQKYRG3YTOTMPQXAXKJ", "current_trial": 55, "dateTime": 1512932485005, "trialdata": {"rt": -1000, "stimulus": "/static/audio/wordpool/TAXI.wav", "key_press": -1, "type": "PRES_AUD", "word": "taxi", "wordID": 1437, "conditions": [18, 1200, "a", 18000], "trial": 1, "serialpos": 0, "trial_type": "single-audio", "trial_index": 55, "time_elapsed": 890741, "internal_node_id": "0.0-37.0"}}, {"uniqueid": "MTK0935:3OCHAWUVGPREQKYRG3YTOTMPQXAXKJ", "current_trial": 56, "dateTime": 1512932487066, "trialdata": {"rt": -1000, "stimulus": "/static/audio/wordpool/ISLAND.wav", "key_press": -1, "type": "PRES_AUD", "word": "island", "wordID": 744, "conditions": [18, 1200, "a", 18000], "trial": 1, "serialpos": 1, "trial_type": "single-audio", "trial_index": 56, "time_elapsed": 892802, "internal_node_id": "0.0-38.0"}}, {"uniqueid": "MTK0935:3OCHAWUVGPREQKYRG3YTOTMPQXAXKJ", "current_trial": 57, "dateTime": 1512932489372, "trialdata": {"rt": -1000, "stimulus": "/static/audio/wordpool/FIREPLACE.wav", "key_press": -1, "type": "PRES_AUD", "word": "fireplace", "wordID": 569, "conditions": [18, 1200, "a", 18000], "trial": 1, "serialpos": 2, "trial_type": "single-audio", "trial_index": 57, "time_elapsed": 895108, "internal_node_id": "0.0-39.0"}}, {"uniqueid": "MTK0935:3OCHAWUVGPREQKYRG3YTOTMPQXAXKJ", "current_trial": 58, "dateTime": 1512932491627, "trialdata": {"rt": -1000, "stimulus": "/static/audio/wordpool/GRILL.wav", "key_press": -1, "type": "PRES_AUD", "word": "grill", "wordID": 660, "conditions": [18, 1200, "a", 18000], "trial": 1, "serialpos": 3, "trial_type": "single-audio", "trial_index": 58, "time_elapsed": 897362, "internal_node_id": "0.0-40.0"}}, {"uniqueid": "MTK0935:3OCHAWUVGPREQKYRG3YTOTMPQXAXKJ", "current_trial": 59, "dateTime": 1512932493744, "trialdata": {"rt": -1000, "stimulus": "/static/audio/wordpool/CHIPMUNK.wav", "key_press": -1, "type": "PRES_AUD", "word": "chipmunk", "wordID": 303, "conditions": [18, 1200, "a", 18000], "trial": 1, "serialpos": 4, "trial_type": "single-audio", "trial_index": 59, "time_elapsed": 899479, "internal_node_id": "0.0-41.0"}}, {"uniqueid": "MTK0935:3OCHAWUVGPREQKYRG3YTOTMPQXAXKJ", "current_trial": 60, "dateTime": 1512932495885, "trialdata": {"rt": -1000, "stimulus": "/static/audio/wordpool/JURY.wav", "key_press": -1, "type": "PRES_AUD", "word": "jury", "wordID": 765, "conditions": [18, 1200, "a", 18000], "trial": 1, "serialpos": 5, "trial_type": "single-audio", "trial_index": 60, "time_elapsed": 901620, "internal_node_id": "0.0-42.0"}}, {"uniqueid": "MTK0935:3OCHAWUVGPREQKYRG3YTOTMPQXAXKJ", "current_trial": 61, "dateTime": 1512932498018, "trialdata": {"rt": -1000, "stimulus": "/static/audio/wordpool/SPARROW.wav", "key_press": -1, "type": "PRES_AUD", "word": "sparrow", "wordID": 1346, "conditions": [18, 1200, "a", 18000], "trial": 1, "serialpos": 6, "trial_type": "single-audio", "trial_index": 61, "time_elapsed": 903753, "internal_node_id": "0.0-43.0"}}, {"uniqueid": "MTK0935:3OCHAWUVGPREQKYRG3YTOTMPQXAXKJ", "current_trial": 62, "dateTime": 1512932500316, "trialdata": {"rt": -1000, "stimulus": "/static/audio/wordpool/SLIME.wav", "key_press": -1, "type": "PRES_AUD", "word": "slime", "wordID": 1326, "conditions": [18, 1200, "a", 18000], "trial": 1, "serialpos": 7, "trial_type": "single-audio", "trial_index": 62, "time_elapsed": 906052, "internal_node_id": "0.0-44.0"}}, {"uniqueid": "MTK0935:3OCHAWUVGPREQKYRG3YTOTMPQXAXKJ", "current_trial": 63, "dateTime": 1512932502582, "trialdata": {"rt": -1000, "stimulus": "/static/audio/wordpool/TRANSPLANT.wav", "key_press": -1, "type": "PRES_AUD", "word": "transplant", "wordID": 1495, "conditions": [18, 1200, "a", 18000], "trial": 1, "serialpos": 8, "trial_type": "single-audio", "trial_index": 63, "time_elapsed": 908317, "internal_node_id": "0.0-45.0"}}, {"uniqueid": "MTK0935:3OCHAWUVGPREQKYRG3YTOTMPQXAXKJ", "current_trial": 64, "dateTime": 1512932504958, "trialdata": {"rt": -1000, "stimulus": "/static/audio/wordpool/FRIEND.wav", "key_press": -1, "type": "PRES_AUD", "word": "friend", "wordID": 605, "conditions": [18, 1200, "a", 18000], "trial": 1, "serialpos": 9, "trial_type": "single-audio", "trial_index": 64, "time_elapsed": 910694, "internal_node_id": "0.0-46.0"}}, {"uniqueid": "MTK0935:3OCHAWUVGPREQKYRG3YTOTMPQXAXKJ", "current_trial": 65, "dateTime": 1512932507288, "trialdata": {"rt": -1000, "stimulus": "/static/audio/wordpool/LEADER.wav", "key_press": -1, "type": "PRES_AUD", "word": "leader", "wordID": 806, "conditions": [18, 1200, "a", 18000], "trial": 1, "serialpos": 10, "trial_type": "single-audio", "trial_index": 65, "time_elapsed": 913024, "internal_node_id": "0.0-47.0"}}, {"uniqueid": "MTK0935:3OCHAWUVGPREQKYRG3YTOTMPQXAXKJ", "current_trial": 66, "dateTime": 1512932509435, "trialdata": {"rt": -1000, "stimulus": "/static/audio/wordpool/EAGLE.wav", "key_press": -1, "type": "PRES_AUD", "word": "eagle", "wordID": 511, "conditions": [18, 1200, "a", 18000], "trial": 1, "serialpos": 11, "trial_type": "single-audio", "trial_index": 66, "time_elapsed": 915171, "internal_node_id": "0.0-48.0"}}, {"uniqueid": "MTK0935:3OCHAWUVGPREQKYRG3YTOTMPQXAXKJ", "current_trial": 67, "dateTime": 1512932511437, "trialdata": {"rt": -1000, "stimulus": "/static/audio/wordpool/SADDLE.wav", "key_press": -1, "type": "PRES_AUD", "word": "saddle", "wordID": 1220, "conditions": [18, 1200, "a", 18000], "trial": 1, "serialpos": 12, "trial_type": "single-audio", "trial_index": 67, "time_elapsed": 917172, "internal_node_id": "0.0-49.0"}}, {"uniqueid": "MTK0935:3OCHAWUVGPREQKYRG3YTOTMPQXAXKJ", "current_trial": 68, "dateTime": 1512932513533, "trialdata": {"rt": -1000, "stimulus": "/static/audio/wordpool/DRESS.wav", "key_press": -1, "type": "PRES_AUD", "word": "dress", "wordID": 494, "conditions": [18, 1200, "a", 18000], "trial": 1, "serialpos": 13, "trial_type": "single-audio", "trial_index": 68, "time_elapsed": 919267, "internal_node_id": "0.0-50.0"}}, {"uniqueid": "MTK0935:3OCHAWUVGPREQKYRG3YTOTMPQXAXKJ", "current_trial": 69, "dateTime": 1512932515567, "trialdata": {"rt": -1000, "stimulus": "/static/audio/wordpool/WAITER.wav", "key_press": -1, "type": "PRES_AUD", "word": "waiter", "wordID": 1579, "conditions": [18, 1200, "a", 18000], "trial": 1, "serialpos": 14, "trial_type": "single-audio", "trial_index": 69, "time_elapsed": 921302, "internal_node_id": "0.0-51.0"}}, {"uniqueid": "MTK0935:3OCHAWUVGPREQKYRG3YTOTMPQXAXKJ", "current_trial": 70, "dateTime": 1512932517671, "trialdata": {"rt": -1000, "stimulus": "/static/audio/wordpool/SKIRT.wav", "key_press": -1, "type": "PRES_AUD", "word": "skirt", "wordID": 1318, "conditions": [18, 1200, "a", 18000], "trial": 1, "serialpos": 15, "trial_type": "single-audio", "trial_index": 70, "time_elapsed": 923406, "internal_node_id": "0.0-52.0"}}, {"uniqueid": "MTK0935:3OCHAWUVGPREQKYRG3YTOTMPQXAXKJ", "current_trial": 71, "dateTime": 1512932520011, "trialdata": {"rt": -1000, "stimulus": "/static/audio/wordpool/MILDEW.wav", "key_press": -1, "type": "PRES_AUD", "word": "mildew", "wordID": 892, "conditions": [18, 1200, "a", 18000], "trial": 1, "serialpos": 16, "trial_type": "single-audio", "trial_index": 71, "time_elapsed": 925746, "internal_node_id": "0.0-53.0"}}, {"uniqueid": "MTK0935:3OCHAWUVGPREQKYRG3YTOTMPQXAXKJ", "current_trial": 72, "dateTime": 1512932522342, "trialdata": {"rt": -1000, "stimulus": "/static/audio/wordpool/LOVER.wav", "key_press": -1, "type": "PRES_AUD", "word": "lover", "wordID": 845, "conditions": [18, 1200, "a", 18000], "trial": 1, "serialpos": 17, "trial_type": "single-audio", "trial_index": 72, "time_elapsed": 928078, "internal_node_id": "0.0-54.0"}}, {"uniqueid": "MTK0935:3OCHAWUVGPREQKYRG3YTOTMPQXAXKJ", "current_trial": 73, "dateTime": 1512932523724, "trialdata": {"rt": -1, "stimulus": "", "key_press": -1, "type": "PRE_RECALL_DELAY", "trial_type": "single-stim", "trial_index": 73, "time_elapsed": 929460, "internal_node_id": "0.0-55.0-0.0"}}, {"uniqueid": "MTK0935:3OCHAWUVGPREQKYRG3YTOTMPQXAXKJ", "current_trial": 74, "dateTime": 1512932524226, "trialdata": {"rt": -1000, "stimulus": "/static/audio/400Hz.wav", "key_press": -1, "type": "PRE_RECALL_ALERT", "trial_type": "single-audio", "trial_index": 74, "time_elapsed": 929962, "internal_node_id": "0.0-56.0"}}, {"uniqueid": "MTK0935:3OCHAWUVGPREQKYRG3YTOTMPQXAXKJ", "current_trial": 75, "dateTime": 1512932584232, "trialdata": {"rt": [3594, 5437, 8101, 11665, 16467, 55381], "recwords": ["mildew", "lover", "saddle", "skirt", "taxi", "dirt"], "type": "FREE_RECALL", "conditions": [18, 1200, "a", 18000], "trial": 1, "trial_type": "free-recall", "trial_index": 75, "time_elapsed": 989965, "internal_node_id": "0.0-57.0-0.0"}}, {"uniqueid": "MTK0935:3OCHAWUVGPREQKYRG3YTOTMPQXAXKJ", "current_trial": 76, "dateTime": 1512932590663, "trialdata": {"rt": 4426, "key_press": 32, "type": "INSTRUCTIONS", "trial_type": "text", "trial_index": 76, "time_elapsed": 996395, "internal_node_id": "0.0-58.0"}}, {"uniqueid": "MTK0935:3OCHAWUVGPREQKYRG3YTOTMPQXAXKJ", "current_trial": 77, "dateTime": 1512932615665, "trialdata": {"rt": [3318, 7049, 10256, 13996, 17592, 20461, 23902], "responses": ["18", "15", "17", "16", "12", "23", "23"], "num1": [6, 5, 8, 7, 2, 5, 9, 1], "num2": [6, 6, 5, 3, 4, 9, 7, 9], "num3": [6, 4, 4, 6, 6, 9, 7, 9], "type": "DISTRACTOR", "conditions": [24, 1600, "v", 24000], "trial": 2, "trial_type": "math-distractor", "trial_index": 77, "time_elapsed": 1021401, "internal_node_id": "0.0-59.0"}}, {"uniqueid": "MTK0935:3OCHAWUVGPREQKYRG3YTOTMPQXAXKJ", "current_trial": 78, "dateTime": 1512932618667, "trialdata": {"rt": -1, "stimulus": "<p id=\"stim\">10</p>", "key_press": -1, "trial_type": "single-stim", "trial_index": 78, "time_elapsed": 1024403, "internal_node_id": "0.0-60.0-0.0"}}, {"uniqueid": "MTK0935:3OCHAWUVGPREQKYRG3YTOTMPQXAXKJ", "current_trial": 79, "dateTime": 1512932619668, "trialdata": {"rt": -1, "stimulus": "<p id=\"stim\">9</p>", "key_press": -1, "trial_type": "single-stim", "trial_index": 79, "time_elapsed": 1025404, "internal_node_id": "0.0-60.0-1.0"}}, {"uniqueid": "MTK0935:3OCHAWUVGPREQKYRG3YTOTMPQXAXKJ", "current_trial": 80, "dateTime": 1512932620669, "trialdata": {"rt": -1, "stimulus": "<p id=\"stim\">8</p>", "key_press": -1, "trial_type": "single-stim", "trial_index": 80, "time_elapsed": 1026405, "internal_node_id": "0.0-60.0-2.0"}}, {"uniqueid": "MTK0935:3OCHAWUVGPREQKYRG3YTOTMPQXAXKJ", "current_trial": 81, "dateTime": 1512932621671, "trialdata": {"rt": -1, "stimulus": "<p id=\"stim\">7</p>", "key_press": -1, "trial_type": "single-stim", "trial_index": 81, "time_elapsed": 1027407, "internal_node_id": "0.0-60.0-3.0"}}, {"uniqueid": "MTK0935:3OCHAWUVGPREQKYRG3YTOTMPQXAXKJ", "current_trial": 82, "dateTime": 1512932622672, "trialdata": {"rt": -1, "stimulus": "<p id=\"stim\">6</p>", "key_press": -1, "trial_type": "single-stim", "trial_index": 82, "time_elapsed": 1028408, "internal_node_id": "0.0-60.0-4.0"}}, {"uniqueid": "MTK0935:3OCHAWUVGPREQKYRG3YTOTMPQXAXKJ", "current_trial": 83, "dateTime": 1512932623674, "trialdata": {"rt": -1, "stimulus": "<p id=\"stim\">5</p>", "key_press": -1, "trial_type": "single-stim", "trial_index": 83, "time_elapsed": 1029410, "internal_node_id": "0.0-60.0-5.0"}}, {"uniqueid": "MTK0935:3OCHAWUVGPREQKYRG3YTOTMPQXAXKJ", "current_trial": 84, "dateTime": 1512932624676, "trialdata": {"rt": -1, "stimulus": "<p id=\"stim\">4</p>", "key_press": -1, "trial_type": "single-stim", "trial_index": 84, "time_elapsed": 1030412, "internal_node_id": "0.0-60.0-6.0"}}, {"uniqueid": "MTK0935:3OCHAWUVGPREQKYRG3YTOTMPQXAXKJ", "current_trial": 85, "dateTime": 1512932625677, "trialdata": {"rt": -1, "stimulus": "<p id=\"stim\">3</p>", "key_press": -1, "trial_type": "single-stim", "trial_index": 85, "time_elapsed": 1031413, "internal_node_id": "0.0-60.0-7.0"}}, {"uniqueid": "MTK0935:3OCHAWUVGPREQKYRG3YTOTMPQXAXKJ", "current_trial": 86, "dateTime": 1512932626678, "trialdata": {"rt": -1, "stimulus": "<p id=\"stim\">2</p>", "key_press": -1, "trial_type": "single-stim", "trial_index": 86, "time_elapsed": 1032414, "internal_node_id": "0.0-60.0-8.0"}}, {"uniqueid": "MTK0935:3OCHAWUVGPREQKYRG3YTOTMPQXAXKJ", "current_trial": 87, "dateTime": 1512932627679, "trialdata": {"rt": -1, "stimulus": "<p id=\"stim\">1</p>", "key_press": -1, "trial_type": "single-stim", "trial_index": 87, "time_elapsed": 1033415, "internal_node_id": "0.0-60.0-9.0"}}, {"uniqueid": "MTK0935:3OCHAWUVGPREQKYRG3YTOTMPQXAXKJ", "current_trial": 88, "dateTime": 1512932629181, "trialdata": {"rt": -1, "stimulus": "<p id=\"stim\">+</p>", "key_press": -1, "type": "FIXATION", "trial_type": "single-stim", "trial_index": 88, "time_elapsed": 1034917, "internal_node_id": "0.0-61.0-0.0"}}, {"uniqueid": "MTK0935:3OCHAWUVGPREQKYRG3YTOTMPQXAXKJ", "current_trial": 89, "dateTime": 1512932630783, "trialdata": {"rt": -1, "stimulus": "<p id=\"stim\">GIRL</p>", "key_press": -1, "type": "PRES_VIS", "word": "girl", "wordID": 636, "conditions": [24, 1600, "v", 24000], "trial": 2, "serialpos": 0, "trial_type": "single-stim", "trial_index": 89, "time_elapsed": 1036519, "internal_node_id": "0.0-62.0"}}, {"uniqueid": "MTK0935:3OCHAWUVGPREQKYRG3YTOTMPQXAXKJ", "current_trial": 90, "dateTime": 1512932633275, "trialdata": {"rt": -1, "stimulus": "<p id=\"stim\">BOYFRIEND</p>", "key_press": -1, "type": "PRES_VIS", "word": "boyfriend", "wordID": 161, "conditions": [24, 1600, "v", 24000], "trial": 2, "serialpos": 1, "trial_type": "single-stim", "trial_index": 90, "time_elapsed": 1039011, "internal_node_id": "0.0-63.0"}}, {"uniqueid": "MTK0935:3OCHAWUVGPREQKYRG3YTOTMPQXAXKJ", "current_trial": 91, "dateTime": 1512932635883, "trialdata": {"rt": -1, "stimulus": "<p id=\"stim\">QUEEN</p>", "key_press": -1, "type": "PRES_VIS", "word": "queen", "wordID": 1148, "conditions": [24, 1600, "v", 24000], "trial": 2, "serialpos": 2, "trial_type": "single-stim", "trial_index": 91, "time_elapsed": 1041619, "internal_node_id": "0.0-64.0"}}, {"uniqueid": "MTK0935:3OCHAWUVGPREQKYRG3YTOTMPQXAXKJ", "current_trial": 92, "dateTime": 1512932638577, "trialdata": {"rt": -1, "stimulus": "<p id=\"stim\">CROWN</p>", "key_press": -1, "type": "PRES_VIS", "word": "crown", "wordID": 414, "conditions": [24, 1600, "v", 24000], "trial": 2, "serialpos": 3, "trial_type": "single-stim", "trial_index": 92, "time_elapsed": 1044313, "internal_node_id": "0.0-65.0"}}, {"uniqueid": "MTK0935:3OCHAWUVGPREQKYRG3YTOTMPQXAXKJ", "current_trial": 93, "dateTime": 1512932641316, "trialdata": {"rt": -1, "stimulus": "<p id=\"stim\">SUSPECT</p>", "key_press": -1, "type": "PRES_VIS", "word": "suspect", "wordID": 1414, "conditions": [24, 1600, "v", 24000], "trial": 2, "serialpos": 4, "trial_type": "single-stim", "trial_index": 93, "time_elapsed": 1047052, "internal_node_id": "0.0-66.0"}}, {"uniqueid": "MTK0935:3OCHAWUVGPREQKYRG3YTOTMPQXAXKJ", "current_trial": 94, "dateTime": 1512932644061, "trialdata": {"rt": -1, "stimulus": "<p id=\"stim\">FRUIT</p>", "key_press": -1, "type": "PRES_VIS", "word": "fruit", "wordID": 609, "conditions": [24, 1600, "v", 24000], "trial": 2, "serialpos": 5, "trial_type": "single-stim", "trial_index": 94, "time_elapsed": 1049797, "internal_node_id": "0.0-67.0"}}, {"uniqueid": "MTK0935:3OCHAWUVGPREQKYRG3YTOTMPQXAXKJ", "current_trial": 95, "dateTime": 1512932646576, "trialdata": {"rt": -1, "stimulus": "<p id=\"stim\">PARSLEY</p>", "key_press": -1, "type": "PRES_VIS", "word": "parsley", "wordID": 1015, "conditions": [24, 1600, "v", 24000], "trial": 2, "serialpos": 6, "trial_type": "single-stim", "trial_index": 95, "time_elapsed": 1052312, "internal_node_id": "0.0-68.0"}}, {"uniqueid": "MTK0935:3OCHAWUVGPREQKYRG3YTOTMPQXAXKJ", "current_trial": 96, "dateTime": 1512932649217, "trialdata": {"rt": -1, "stimulus": "<p id=\"stim\">QUARTER</p>", "key_press": -1, "type": "PRES_VIS", "word": "quarter", "wordID": 1147, "conditions": [24, 1600, "v", 24000], "trial": 2, "serialpos": 7, "trial_type": "single-stim", "trial_index": 96, "time_elapsed": 1054953, "internal_node_id": "0.0-69.0"}}, {"uniqueid": "MTK0935:3OCHAWUVGPREQKYRG3YTOTMPQXAXKJ", "current_trial": 97, "dateTime": 1512932651620, "trialdata": {"rt": -1, "stimulus": "<p id=\"stim\">KITCHEN</p>", "key_press": -1, "type": "PRES_VIS", "word": "kitchen", "wordID": 777, "conditions": [24, 1600, "v", 24000], "trial": 2, "serialpos": 8, "trial_type": "single-stim", "trial_index": 97, "time_elapsed": 1057356, "internal_node_id": "0.0-70.0"}}, {"uniqueid": "MTK0935:3OCHAWUVGPREQKYRG3YTOTMPQXAXKJ", "current_trial": 98, "dateTime": 1512932654123, "trialdata": {"rt": -1, "stimulus": "<p id=\"stim\">DAUGHTER</p>", "key_press": -1, "type": "PRES_VIS", "word": "daughter", "wordID": 441, "conditions": [24, 1600, "v", 24000], "trial": 2, "serialpos": 9, "trial_type": "single-stim", "trial_index": 98, "time_elapsed": 1059859, "internal_node_id": "0.0-71.0"}}, {"uniqueid": "MTK0935:3OCHAWUVGPREQKYRG3YTOTMPQXAXKJ", "current_trial": 99, "dateTime": 1512932656875, "trialdata": {"rt": -1, "stimulus": "<p id=\"stim\">PEPPER</p>", "key_press": -1, "type": "PRES_VIS", "word": "pepper", "wordID": 1046, "conditions": [24, 1600, "v", 24000], "trial": 2, "serialpos": 10, "trial_type": "single-stim", "trial_index": 99, "time_elapsed": 1062611, "internal_node_id": "0.0-72.0"}}, {"uniqueid": "MTK0935:3OCHAWUVGPREQKYRG3YTOTMPQXAXKJ", "current_trial": 100, "dateTime": 1512932659326, "trialdata": {"rt": -1, "stimulus": "<p id=\"stim\">DRILL</p>", "key_press": -1, "type": "PRES_VIS", "word": "drill", "wordID": 496, "conditions": [24, 1600, "v", 24000], "trial": 2, "serialpos": 11, "trial_type": "single-stim", "trial_index": 100, "time_elapsed": 1065062, "internal_node_id": "0.0-73.0"}}, {"uniqueid": "MTK0935:3OCHAWUVGPREQKYRG3YTOTMPQXAXKJ", "current_trial": 101, "dateTime": 1512932661952, "trialdata": {"rt": -1, "stimulus": "<p id=\"stim\">SHIRT</p>", "key_press": -1, "type": "PRES_VIS", "word": "shirt", "wordID": 1286, "conditions": [24, 1600, "v", 24000], "trial": 2, "serialpos": 12, "trial_type": "single-stim", "trial_index": 101, "time_elapsed": 1067688, "internal_node_id": "0.0-74.0"}}, {"uniqueid": "MTK0935:3OCHAWUVGPREQKYRG3YTOTMPQXAXKJ", "current_trial": 102, "dateTime": 1512932664504, "trialdata": {"rt": -1, "stimulus": "<p id=\"stim\">DOUGHNUT</p>", "key_press": -1, "type": "PRES_VIS", "word": "doughnut", "wordID": 489, "conditions": [24, 1600, "v", 24000], "trial": 2, "serialpos": 13, "trial_type": "single-stim", "trial_index": 102, "time_elapsed": 1070240, "internal_node_id": "0.0-75.0"}}, {"uniqueid": "MTK0935:3OCHAWUVGPREQKYRG3YTOTMPQXAXKJ", "current_trial": 103, "dateTime": 1512932666951, "trialdata": {"rt": -1, "stimulus": "<p id=\"stim\">LUGGAGE</p>", "key_press": -1, "type": "PRES_VIS", "word": "luggage", "wordID": 846, "conditions": [24, 1600, "v", 24000], "trial": 2, "serialpos": 14, "trial_type": "single-stim", "trial_index": 103, "time_elapsed": 1072687, "internal_node_id": "0.0-76.0"}}, {"uniqueid": "MTK0935:3OCHAWUVGPREQKYRG3YTOTMPQXAXKJ", "current_trial": 104, "dateTime": 1512932669374, "trialdata": {"rt": -1, "stimulus": "<p id=\"stim\">GANGSTER</p>", "key_press": -1, "type": "PRES_VIS", "word": "gangster", "wordID": 619, "conditions": [24, 1600, "v", 24000], "trial": 2, "serialpos": 15, "trial_type": "single-stim", "trial_index": 104, "time_elapsed": 1075110, "internal_node_id": "0.0-77.0"}}, {"uniqueid": "MTK0935:3OCHAWUVGPREQKYRG3YTOTMPQXAXKJ", "current_trial": 105, "dateTime": 1512932671863, "trialdata": {"rt": -1, "stimulus": "<p id=\"stim\">VAGRANT</p>", "key_press": -1, "type": "PRES_VIS", "word": "vagrant", "wordID": 1543, "conditions": [24, 1600, "v", 24000], "trial": 2, "serialpos": 16, "trial_type": "single-stim", "trial_index": 105, "time_elapsed": 1077599, "internal_node_id": "0.0-78.0"}}, {"uniqueid": "MTK0935:3OCHAWUVGPREQKYRG3YTOTMPQXAXKJ", "current_trial": 106, "dateTime": 1512932674384, "trialdata": {"rt": -1, "stimulus": "<p id=\"stim\">PORTRAIT</p>", "key_press": -1, "type": "PRES_VIS", "word": "portrait", "wordID": 1110, "conditions": [24, 1600, "v", 24000], "trial": 2, "serialpos": 17, "trial_type": "single-stim", "trial_index": 106, "time_elapsed": 1080120, "internal_node_id": "0.0-79.0"}}, {"uniqueid": "MTK0935:3OCHAWUVGPREQKYRG3YTOTMPQXAXKJ", "current_trial": 107, "dateTime": 1512932676958, "trialdata": {"rt": -1, "stimulus": "<p id=\"stim\">PICTURE</p>", "key_press": -1, "type": "PRES_VIS", "word": "picture", "wordID": 1060, "conditions": [24, 1600, "v", 24000], "trial": 2, "serialpos": 18, "trial_type": "single-stim", "trial_index": 107, "time_elapsed": 1082694, "internal_node_id": "0.0-80.0"}}, {"uniqueid": "MTK0935:3OCHAWUVGPREQKYRG3YTOTMPQXAXKJ", "current_trial": 108, "dateTime": 1512932679666, "trialdata": {"rt": -1, "stimulus": "<p id=\"stim\">PIZZA</p>", "key_press": -1, "type": "PRES_VIS", "word": "pizza", "wordID": 1078, "conditions": [24, 1600, "v", 24000], "trial": 2, "serialpos": 19, "trial_type": "single-stim", "trial_index": 108, "time_elapsed": 1085402, "internal_node_id": "0.0-81.0"}}, {"uniqueid": "MTK0935:3OCHAWUVGPREQKYRG3YTOTMPQXAXKJ", "current_trial": 109, "dateTime": 1512932682350, "trialdata": {"rt": -1, "stimulus": "<p id=\"stim\">SUNRISE</p>", "key_press": -1, "type": "PRES_VIS", "word": "sunrise", "wordID": 1406, "conditions": [24, 1600, "v", 24000], "trial": 2, "serialpos": 20, "trial_type": "single-stim", "trial_index": 109, "time_elapsed": 1088086, "internal_node_id": "0.0-82.0"}}, {"uniqueid": "MTK0935:3OCHAWUVGPREQKYRG3YTOTMPQXAXKJ", "current_trial": 110, "dateTime": 1512932685107, "trialdata": {"rt": -1, "stimulus": "<p id=\"stim\">DRAGON</p>", "key_press": -1, "type": "PRES_VIS", "word": "dragon", "wordID": 491, "conditions": [24, 1600, "v", 24000], "trial": 2, "serialpos": 21, "trial_type": "single-stim", "trial_index": 110, "time_elapsed": 1090843, "internal_node_id": "0.0-83.0"}}, {"uniqueid": "MTK0935:3OCHAWUVGPREQKYRG3YTOTMPQXAXKJ", "current_trial": 111, "dateTime": 1512932687738, "trialdata": {"rt": -1, "stimulus": "<p id=\"stim\">SCARF</p>", "key_press": -1, "type": "PRES_VIS", "word": "scarf", "wordID": 1245, "conditions": [24, 1600, "v", 24000], "trial": 2, "serialpos": 22, "trial_type": "single-stim", "trial_index": 111, "time_elapsed": 1093474, "internal_node_id": "0.0-84.0"}}, {"uniqueid": "MTK0935:3OCHAWUVGPREQKYRG3YTOTMPQXAXKJ", "current_trial": 112, "dateTime": 1512932690317, "trialdata": {"rt": -1, "stimulus": "<p id=\"stim\">LONDON</p>", "key_press": -1, "type": "PRES_VIS", "word": "london", "wordID": 842, "conditions": [24, 1600, "v", 24000], "trial": 2, "serialpos": 23, "trial_type": "single-stim", "trial_index": 112, "time_elapsed": 1096053, "internal_node_id": "0.0-85.0"}}, {"uniqueid": "MTK0935:3OCHAWUVGPREQKYRG3YTOTMPQXAXKJ", "current_trial": 113, "dateTime": 1512932692555, "trialdata": {"rt": -1, "stimulus": "", "key_press": -1, "type": "PRE_RECALL_DELAY", "trial_type": "single-stim", "trial_index": 113, "time_elapsed": 1098291, "internal_node_id": "0.0-86.0-0.0"}}, {"uniqueid": "MTK0935:3OCHAWUVGPREQKYRG3YTOTMPQXAXKJ", "current_trial": 114, "dateTime": 1512932693057, "trialdata": {"rt": -1000, "stimulus": "/static/audio/400Hz.wav", "key_press": -1, "type": "PRE_RECALL_ALERT", "trial_type": "single-audio", "trial_index": 114, "time_elapsed": 1098793, "internal_node_id": "0.0-87.0"}}, {"uniqueid": "MTK0935:3OCHAWUVGPREQKYRG3YTOTMPQXAXKJ", "current_trial": 115, "dateTime": 1512932753062, "trialdata": {"rt": [4293, 7134, 10754, 13362], "recwords": ["picture", "pizza", "sunrise", "dragon"], "type": "FREE_RECALL", "conditions": [24, 1600, "v", 24000], "trial": 2, "trial_type": "free-recall", "trial_index": 115, "time_elapsed": 1158796, "internal_node_id": "0.0-88.0-0.0"}}, {"uniqueid": "MTK0935:3OCHAWUVGPREQKYRG3YTOTMPQXAXKJ", "current_trial": 116, "dateTime": 1512932765262, "trialdata": {"rt": 10198, "key_press": 13, "type": "INSTRUCTIONS", "trial_type": "text", "trial_index": 116, "time_elapsed": 1170998, "internal_node_id": "0.0-89.0"}}, {"uniqueid": "MTK0935:3OCHAWUVGPREQKYRG3YTOTMPQXAXKJ", "current_trial": 117, "dateTime": 1512932779267, "trialdata": {"rt": [3797, 9036], "responses": ["14", "17"], "num1": [4, 4, 9], "num2": [2, 5, 9], "num3": [8, 8, 2], "type": "DISTRACTOR", "conditions": [24, 1600, "v", 12000], "trial": 3, "trial_type": "math-distractor", "trial_index": 117, "time_elapsed": 1185003, "internal_node_id": "0.0-90.0"}}, {"uniqueid": "MTK0935:3OCHAWUVGPREQKYRG3YTOTMPQXAXKJ", "current_trial": 118, "dateTime": 1512932782270, "trialdata": {"rt": -1, "stimulus": "<p id=\"stim\">10</p>", "key_press": -1, "trial_type": "single-stim", "trial_index": 118, "time_elapsed": 1188006, "internal_node_id": "0.0-91.0-0.0"}}, {"uniqueid": "MTK0935:3OCHAWUVGPREQKYRG3YTOTMPQXAXKJ", "current_trial": 119, "dateTime": 1512932783271, "trialdata": {"rt": -1, "stimulus": "<p id=\"stim\">9</p>", "key_press": -1, "trial_type": "single-stim", "trial_index": 119, "time_elapsed": 1189007, "internal_node_id": "0.0-91.0-1.0"}}, {"uniqueid": "MTK0935:3OCHAWUVGPREQKYRG3YTOTMPQXAXKJ", "current_trial": 120, "dateTime": 1512932784273, "trialdata": {"rt": -1, "stimulus": "<p id=\"stim\">8</p>", "key_press": -1, "trial_type": "single-stim", "trial_index": 120, "time_elapsed": 1190009, "internal_node_id": "0.0-91.0-2.0"}}, {"uniqueid": "MTK0935:3OCHAWUVGPREQKYRG3YTOTMPQXAXKJ", "current_trial": 121, "dateTime": 1512932785274, "trialdata": {"rt": -1, "stimulus": "<p id=\"stim\">7</p>", "key_press": -1, "trial_type": "single-stim", "trial_index": 121, "time_elapsed": 1191010, "internal_node_id": "0.0-91.0-3.0"}}, {"uniqueid": "MTK0935:3OCHAWUVGPREQKYRG3YTOTMPQXAXKJ", "current_trial": 122, "dateTime": 1512932786275, "trialdata": {"rt": -1, "stimulus": "<p id=\"stim\">6</p>", "key_press": -1, "trial_type": "single-stim", "trial_index": 122, "time_elapsed": 1192011, "internal_node_id": "0.0-91.0-4.0"}}, {"uniqueid": "MTK0935:3OCHAWUVGPREQKYRG3YTOTMPQXAXKJ", "current_trial": 123, "dateTime": 1512932787277, "trialdata": {"rt": -1, "stimulus": "<p id=\"stim\">5</p>", "key_press": -1, "trial_type": "single-stim", "trial_index": 123, "time_elapsed": 1193013, "internal_node_id": "0.0-91.0-5.0"}}, {"uniqueid": "MTK0935:3OCHAWUVGPREQKYRG3YTOTMPQXAXKJ", "current_trial": 124, "dateTime": 1512932788278, "trialdata": {"rt": -1, "stimulus": "<p id=\"stim\">4</p>", "key_press": -1, "trial_type": "single-stim", "trial_index": 124, "time_elapsed": 1194014, "internal_node_id": "0.0-91.0-6.0"}}, {"uniqueid": "MTK0935:3OCHAWUVGPREQKYRG3YTOTMPQXAXKJ", "current_trial": 125, "dateTime": 1512932789279, "trialdata": {"rt": -1, "stimulus": "<p id=\"stim\">3</p>", "key_press": -1, "trial_type": "single-stim", "trial_index": 125, "time_elapsed": 1195015, "internal_node_id": "0.0-91.0-7.0"}}, {"uniqueid": "MTK0935:3OCHAWUVGPREQKYRG3YTOTMPQXAXKJ", "current_trial": 126, "dateTime": 1512932790280, "trialdata": {"rt": -1, "stimulus": "<p id=\"stim\">2</p>", "key_press": -1, "trial_type": "single-stim", "trial_index": 126, "time_elapsed": 1196016, "internal_node_id": "0.0-91.0-8.0"}}, {"uniqueid": "MTK0935:3OCHAWUVGPREQKYRG3YTOTMPQXAXKJ", "current_trial": 127, "dateTime": 1512932791281, "trialdata": {"rt": -1, "stimulus": "<p id=\"stim\">1</p>", "key_press": -1, "trial_type": "single-stim", "trial_index": 127, "time_elapsed": 1197017, "internal_node_id": "0.0-91.0-9.0"}}, {"uniqueid": "MTK0935:3OCHAWUVGPREQKYRG3YTOTMPQXAXKJ", "current_trial": 128, "dateTime": 1512932792783, "trialdata": {"rt": -1, "stimulus": "<p id=\"stim\">+</p>", "key_press": -1, "type": "FIXATION", "trial_type": "single-stim", "trial_index": 128, "time_elapsed": 1198519, "internal_node_id": "0.0-92.0-0.0"}}, {"uniqueid": "MTK0935:3OCHAWUVGPREQKYRG3YTOTMPQXAXKJ", "current_trial": 129, "dateTime": 1512932794384, "trialdata": {"rt": -1, "stimulus": "<p id=\"stim\">NECKLACE</p>", "key_press": -1, "type": "PRES_VIS", "word": "necklace", "wordID": 939, "conditions": [24, 1600, "v", 12000], "trial": 3, "serialpos": 0, "trial_type": "single-stim", "trial_index": 129, "time_elapsed": 1200120, "internal_node_id": "0.0-93.0"}}, {"uniqueid": "MTK0935:3OCHAWUVGPREQKYRG3YTOTMPQXAXKJ", "current_trial": 130, "dateTime": 1512932797060, "trialdata": {"rt": -1, "stimulus": "<p id=\"stim\">ROOSTER</p>", "key_press": -1, "type": "PRES_VIS", "word": "rooster", "wordID": 1208, "conditions": [24, 1600, "v", 12000], "trial": 3, "serialpos": 1, "trial_type": "single-stim", "trial_index": 130, "time_elapsed": 1202796, "internal_node_id": "0.0-94.0"}}, {"uniqueid": "MTK0935:3OCHAWUVGPREQKYRG3YTOTMPQXAXKJ", "current_trial": 131, "dateTime": 1512932799821, "trialdata": {"rt": -1, "stimulus": "<p id=\"stim\">MILK</p>", "key_press": -1, "type": "PRES_VIS", "word": "milk", "wordID": 894, "conditions": [24, 1600, "v", 12000], "trial": 3, "serialpos": 2, "trial_type": "single-stim", "trial_index": 131, "time_elapsed": 1205557, "internal_node_id": "0.0-95.0"}}, {"uniqueid": "MTK0935:3OCHAWUVGPREQKYRG3YTOTMPQXAXKJ", "current_trial": 132, "dateTime": 1512932802471, "trialdata": {"rt": -1, "stimulus": "<p id=\"stim\">HONEY</p>", "key_press": -1, "type": "PRES_VIS", "word": "honey", "wordID": 712, "conditions": [24, 1600, "v", 12000], "trial": 3, "serialpos": 3, "trial_type": "single-stim", "trial_index": 132, "time_elapsed": 1208207, "internal_node_id": "0.0-96.0"}}, {"uniqueid": "MTK0935:3OCHAWUVGPREQKYRG3YTOTMPQXAXKJ", "current_trial": 133, "dateTime": 1512932805002, "trialdata": {"rt": -1, "stimulus": "<p id=\"stim\">LIVER</p>", "key_press": -1, "type": "PRES_VIS", "word": "liver", "wordID": 832, "conditions": [24, 1600, "v", 12000], "trial": 3, "serialpos": 4, "trial_type": "single-stim", "trial_index": 133, "time_elapsed": 1210738, "internal_node_id": "0.0-97.0"}}, {"uniqueid": "MTK0935:3OCHAWUVGPREQKYRG3YTOTMPQXAXKJ", "current_trial": 134, "dateTime": 1512932807712, "trialdata": {"rt": -1, "stimulus": "<p id=\"stim\">SHRUB</p>", "key_press": -1, "type": "PRES_VIS", "word": "shrub", "wordID": 1298, "conditions": [24, 1600, "v", 12000], "trial": 3, "serialpos": 5, "trial_type": "single-stim", "trial_index": 134, "time_elapsed": 1213448, "internal_node_id": "0.0-98.0"}}, {"uniqueid": "MTK0935:3OCHAWUVGPREQKYRG3YTOTMPQXAXKJ", "current_trial": 135, "dateTime": 1512932810503, "trialdata": {"rt": -1, "stimulus": "<p id=\"stim\">POWDER</p>", "key_press": -1, "type": "PRES_VIS", "word": "powder", "wordID": 1116, "conditions": [24, 1600, "v", 12000], "trial": 3, "serialpos": 6, "trial_type": "single-stim", "trial_index": 135, "time_elapsed": 1216239, "internal_node_id": "0.0-99.0"}}, {"uniqueid": "MTK0935:3OCHAWUVGPREQKYRG3YTOTMPQXAXKJ", "current_trial": 136, "dateTime": 1512932813005, "trialdata": {"rt": -1, "stimulus": "<p id=\"stim\">BELLY</p>", "key_press": -1, "type": "PRES_VIS", "word": "belly", "wordID": 118, "conditions": [24, 1600, "v", 12000], "trial": 3, "serialpos": 7, "trial_type": "single-stim", "trial_index": 136, "time_elapsed": 1218741, "internal_node_id": "0.0-100.0"}}, {"uniqueid": "MTK0935:3OCHAWUVGPREQKYRG3YTOTMPQXAXKJ", "current_trial": 137, "dateTime": 1512932815463, "trialdata": {"rt": -1, "stimulus": "<p id=\"stim\">OX</p>", "key_press": -1, "type": "PRES_VIS", "word": "ox", "wordID": 993, "conditions": [24, 1600, "v", 12000], "trial": 3, "serialpos": 8, "trial_type": "single-stim", "trial_index": 137, "time_elapsed": 1221199, "internal_node_id": "0.0-101.0"}}, {"uniqueid": "MTK0935:3OCHAWUVGPREQKYRG3YTOTMPQXAXKJ", "current_trial": 138, "dateTime": 1512932818240, "trialdata": {"rt": -1, "stimulus": "<p id=\"stim\">VELVET</p>", "key_press": -1, "type": "PRES_VIS", "word": "velvet", "wordID": 1554, "conditions": [24, 1600, "v", 12000], "trial": 3, "serialpos": 9, "trial_type": "single-stim", "trial_index": 138, "time_elapsed": 1223976, "internal_node_id": "0.0-102.0"}}, {"uniqueid": "MTK0935:3OCHAWUVGPREQKYRG3YTOTMPQXAXKJ", "current_trial": 139, "dateTime": 1512932821041, "trialdata": {"rt": -1, "stimulus": "<p id=\"stim\">DRUG</p>", "key_press": -1, "type": "PRES_VIS", "word": "drug", "wordID": 500, "conditions": [24, 1600, "v", 12000], "trial": 3, "serialpos": 10, "trial_type": "single-stim", "trial_index": 139, "time_elapsed": 1226777, "internal_node_id": "0.0-103.0"}}, {"uniqueid": "MTK0935:3OCHAWUVGPREQKYRG3YTOTMPQXAXKJ", "current_trial": 140, "dateTime": 1512932823512, "trialdata": {"rt": -1, "stimulus": "<p id=\"stim\">RABBIT</p>", "key_press": -1, "type": "PRES_VIS", "word": "rabbit", "wordID": 1151, "conditions": [24, 1600, "v", 12000], "trial": 3, "serialpos": 11, "trial_type": "single-stim", "trial_index": 140, "time_elapsed": 1229248, "internal_node_id": "0.0-104.0"}}, {"uniqueid": "MTK0935:3OCHAWUVGPREQKYRG3YTOTMPQXAXKJ", "current_trial": 141, "dateTime": 1512932825916, "trialdata": {"rt": -1, "stimulus": "<p id=\"stim\">FLIPPER</p>", "key_press": -1, "type": "PRES_VIS", "word": "flipper", "wordID": 579, "conditions": [24, 1600, "v", 12000], "trial": 3, "serialpos": 12, "trial_type": "single-stim", "trial_index": 141, "time_elapsed": 1231652, "internal_node_id": "0.0-105.0"}}, {"uniqueid": "MTK0935:3OCHAWUVGPREQKYRG3YTOTMPQXAXKJ", "current_trial": 142, "dateTime": 1512932828352, "trialdata": {"rt": -1, "stimulus": "<p id=\"stim\">PIMPLE</p>", "key_press": -1, "type": "PRES_VIS", "word": "pimple", "wordID": 1070, "conditions": [24, 1600, "v", 12000], "trial": 3, "serialpos": 13, "trial_type": "single-stim", "trial_index": 142, "time_elapsed": 1234088, "internal_node_id": "0.0-106.0"}}, {"uniqueid": "MTK0935:3OCHAWUVGPREQKYRG3YTOTMPQXAXKJ", "current_trial": 143, "dateTime": 1512932830889, "trialdata": {"rt": -1, "stimulus": "<p id=\"stim\">FEMALE</p>", "key_press": -1, "type": "PRES_VIS", "word": "female", "wordID": 558, "conditions": [24, 1600, "v", 12000], "trial": 3, "serialpos": 14, "trial_type": "single-stim", "trial_index": 143, "time_elapsed": 1236625, "internal_node_id": "0.0-107.0"}}, {"uniqueid": "MTK0935:3OCHAWUVGPREQKYRG3YTOTMPQXAXKJ", "current_trial": 144, "dateTime": 1512932833382, "trialdata": {"rt": -1, "stimulus": "<p id=\"stim\">VALLEY</p>", "key_press": -1, "type": "PRES_VIS", "word": "valley", "wordID": 1544, "conditions": [24, 1600, "v", 12000], "trial": 3, "serialpos": 15, "trial_type": "single-stim", "trial_index": 144, "time_elapsed": 1239118, "internal_node_id": "0.0-108.0"}}, {"uniqueid": "MTK0935:3OCHAWUVGPREQKYRG3YTOTMPQXAXKJ", "current_trial": 145, "dateTime": 1512932836168, "trialdata": {"rt": -1, "stimulus": "<p id=\"stim\">TUTU</p>", "key_press": -1, "type": "PRES_VIS", "word": "tutu", "wordID": 1523, "conditions": [24, 1600, "v", 12000], "trial": 3, "serialpos": 16, "trial_type": "single-stim", "trial_index": 145, "time_elapsed": 1241904, "internal_node_id": "0.0-109.0"}}, {"uniqueid": "MTK0935:3OCHAWUVGPREQKYRG3YTOTMPQXAXKJ", "current_trial": 146, "dateTime": 1512932838754, "trialdata": {"rt": -1, "stimulus": "<p id=\"stim\">LIZARD</p>", "key_press": -1, "type": "PRES_VIS", "word": "lizard", "wordID": 833, "conditions": [24, 1600, "v", 12000], "trial": 3, "serialpos": 17, "trial_type": "single-stim", "trial_index": 146, "time_elapsed": 1244490, "internal_node_id": "0.0-110.0"}}, {"uniqueid": "MTK0935:3OCHAWUVGPREQKYRG3YTOTMPQXAXKJ", "current_trial": 147, "dateTime": 1512932841506, "trialdata": {"rt": -1, "stimulus": "<p id=\"stim\">COBRA</p>", "key_press": -1, "type": "PRES_VIS", "word": "cobra", "wordID": 335, "conditions": [24, 1600, "v", 12000], "trial": 3, "serialpos": 18, "trial_type": "single-stim", "trial_index": 147, "time_elapsed": 1247242, "internal_node_id": "0.0-111.0"}}, {"uniqueid": "MTK0935:3OCHAWUVGPREQKYRG3YTOTMPQXAXKJ", "current_trial": 148, "dateTime": 1512932844210, "trialdata": {"rt": -1, "stimulus": "<p id=\"stim\">DENIM</p>", "key_press": -1, "type": "PRES_VIS", "word": "denim", "wordID": 445, "conditions": [24, 1600, "v", 12000], "trial": 3, "serialpos": 19, "trial_type": "single-stim", "trial_index": 148, "time_elapsed": 1249946, "internal_node_id": "0.0-112.0"}}, {"uniqueid": "MTK0935:3OCHAWUVGPREQKYRG3YTOTMPQXAXKJ", "current_trial": 149, "dateTime": 1512932846807, "trialdata": {"rt": -1, "stimulus": "<p id=\"stim\">LUMBER</p>", "key_press": -1, "type": "PRES_VIS", "word": "lumber", "wordID": 847, "conditions": [24, 1600, "v", 12000], "trial": 3, "serialpos": 20, "trial_type": "single-stim", "trial_index": 149, "time_elapsed": 1252543, "internal_node_id": "0.0-113.0"}}, {"uniqueid": "MTK0935:3OCHAWUVGPREQKYRG3YTOTMPQXAXKJ", "current_trial": 150, "dateTime": 1512932849398, "trialdata": {"rt": -1, "stimulus": "<p id=\"stim\">MATTRESS</p>", "key_press": -1, "type": "PRES_VIS", "word": "mattress", "wordID": 878, "conditions": [24, 1600, "v", 12000], "trial": 3, "serialpos": 21, "trial_type": "single-stim", "trial_index": 150, "time_elapsed": 1255134, "internal_node_id": "0.0-114.0"}}, {"uniqueid": "MTK0935:3OCHAWUVGPREQKYRG3YTOTMPQXAXKJ", "current_trial": 151, "dateTime": 1512932852152, "trialdata": {"rt": -1, "stimulus": "<p id=\"stim\">ORCHID</p>", "key_press": -1, "type": "PRES_VIS", "word": "orchid", "wordID": 981, "conditions": [24, 1600, "v", 12000], "trial": 3, "serialpos": 22, "trial_type": "single-stim", "trial_index": 151, "time_elapsed": 1257888, "internal_node_id": "0.0-115.0"}}, {"uniqueid": "MTK0935:3OCHAWUVGPREQKYRG3YTOTMPQXAXKJ", "current_trial": 152, "dateTime": 1512932854897, "trialdata": {"rt": -1, "stimulus": "<p id=\"stim\">CANYON</p>", "key_press": -1, "type": "PRES_VIS", "word": "canyon", "wordID": 234, "conditions": [24, 1600, "v", 12000], "trial": 3, "serialpos": 23, "trial_type": "single-stim", "trial_index": 152, "time_elapsed": 1260633, "internal_node_id": "0.0-116.0"}}, {"uniqueid": "MTK0935:3OCHAWUVGPREQKYRG3YTOTMPQXAXKJ", "current_trial": 153, "dateTime": 1512932857232, "trialdata": {"rt": -1, "stimulus": "", "key_press": -1, "type": "PRE_RECALL_DELAY", "trial_type": "single-stim", "trial_index": 153, "time_elapsed": 1262968, "internal_node_id": "0.0-117.0-0.0"}}, {"uniqueid": "MTK0935:3OCHAWUVGPREQKYRG3YTOTMPQXAXKJ", "current_trial": 154, "dateTime": 1512932857734, "trialdata": {"rt": -1000, "stimulus": "/static/audio/400Hz.wav", "key_press": -1, "type": "PRE_RECALL_ALERT", "trial_type": "single-audio", "trial_index": 154, "time_elapsed": 1263470, "internal_node_id": "0.0-118.0"}}, {"uniqueid": "MTK0935:3OCHAWUVGPREQKYRG3YTOTMPQXAXKJ", "current_trial": 155, "dateTime": 1512932917737, "trialdata": {"rt": [5791, 11156, 15410, 19497, 24641, 30729, 37341, 42669, 47813], "recwords": ["milk", "orchid", "drug", "liver", "rooster", "lumber", "female", "velvet", "belly"], "type": "FREE_RECALL", "conditions": [24, 1600, "v", 12000], "trial": 3, "trial_type": "free-recall", "trial_index": 155, "time_elapsed": 1323471, "internal_node_id": "0.0-119.0-0.0"}}, {"uniqueid": "MTK0935:3OCHAWUVGPREQKYRG3YTOTMPQXAXKJ", "current_trial": 156, "dateTime": 1512932928374, "trialdata": {"rt": 8635, "key_press": 32, "type": "INSTRUCTIONS", "trial_type": "text", "trial_index": 156, "time_elapsed": 1334109, "internal_node_id": "0.0-120.0"}}, {"uniqueid": "MTK0935:3OCHAWUVGPREQKYRG3YTOTMPQXAXKJ", "current_trial": 157, "dateTime": 1512932954376, "trialdata": {"rt": [10036, 17060, 20573], "responses": ["15   ", "15", "16"], "num1": [4, 4, 9, 9], "num2": [2, 3, 4, 1], "num3": [9, 8, 3, 7], "type": "DISTRACTOR", "conditions": [12, 800, "v", 24000], "trial": 4, "trial_type": "math-distractor", "trial_index": 157, "time_elapsed": 1360112, "internal_node_id": "0.0-121.0"}}, {"uniqueid": "MTK0935:3OCHAWUVGPREQKYRG3YTOTMPQXAXKJ", "current_trial": 158, "dateTime": 1512932957378, "trialdata": {"rt": -1, "stimulus": "<p id=\"stim\">10</p>", "key_press": -1, "trial_type": "single-stim", "trial_index": 158, "time_elapsed": 1363114, "internal_node_id": "0.0-122.0-0.0"}}, {"uniqueid": "MTK0935:3OCHAWUVGPREQKYRG3YTOTMPQXAXKJ", "current_trial": 159, "dateTime": 1512932958380, "trialdata": {"rt": -1, "stimulus": "<p id=\"stim\">9</p>", "key_press": -1, "trial_type": "single-stim", "trial_index": 159, "time_elapsed": 1364116, "internal_node_id": "0.0-122.0-1.0"}}, {"uniqueid": "MTK0935:3OCHAWUVGPREQKYRG3YTOTMPQXAXKJ", "current_trial": 160, "dateTime": 1512932959381, "trialdata": {"rt": -1, "stimulus": "<p id=\"stim\">8</p>", "key_press": -1, "trial_type": "single-stim", "trial_index": 160, "time_elapsed": 1365117, "internal_node_id": "0.0-122.0-2.0"}}, {"uniqueid": "MTK0935:3OCHAWUVGPREQKYRG3YTOTMPQXAXKJ", "current_trial": 161, "dateTime": 1512932960382, "trialdata": {"rt": -1, "stimulus": "<p id=\"stim\">7</p>", "key_press": -1, "trial_type": "single-stim", "trial_index": 161, "time_elapsed": 1366118, "internal_node_id": "0.0-122.0-3.0"}}, {"uniqueid": "MTK0935:3OCHAWUVGPREQKYRG3YTOTMPQXAXKJ", "current_trial": 162, "dateTime": 1512932961383, "trialdata": {"rt": -1, "stimulus": "<p id=\"stim\">6</p>", "key_press": -1, "trial_type": "single-stim", "trial_index": 162, "time_elapsed": 1367119, "internal_node_id": "0.0-122.0-4.0"}}, {"uniqueid": "MTK0935:3OCHAWUVGPREQKYRG3YTOTMPQXAXKJ", "current_trial": 163, "dateTime": 1512932962385, "trialdata": {"rt": -1, "stimulus": "<p id=\"stim\">5</p>", "key_press": -1, "trial_type": "single-stim", "trial_index": 163, "time_elapsed": 1368121, "internal_node_id": "0.0-122.0-5.0"}}, {"uniqueid": "MTK0935:3OCHAWUVGPREQKYRG3YTOTMPQXAXKJ", "current_trial": 164, "dateTime": 1512932963386, "trialdata": {"rt": -1, "stimulus": "<p id=\"stim\">4</p>", "key_press": -1, "trial_type": "single-stim", "trial_index": 164, "time_elapsed": 1369122, "internal_node_id": "0.0-122.0-6.0"}}, {"uniqueid": "MTK0935:3OCHAWUVGPREQKYRG3YTOTMPQXAXKJ", "current_trial": 165, "dateTime": 1512932964388, "trialdata": {"rt": -1, "stimulus": "<p id=\"stim\">3</p>", "key_press": -1, "trial_type": "single-stim", "trial_index": 165, "time_elapsed": 1370124, "internal_node_id": "0.0-122.0-7.0"}}, {"uniqueid": "MTK0935:3OCHAWUVGPREQKYRG3YTOTMPQXAXKJ", "current_trial": 166, "dateTime": 1512932965390, "trialdata": {"rt": -1, "stimulus": "<p id=\"stim\">2</p>", "key_press": -1, "trial_type": "single-stim", "trial_index": 166, "time_elapsed": 1371126, "internal_node_id": "0.0-122.0-8.0"}}, {"uniqueid": "MTK0935:3OCHAWUVGPREQKYRG3YTOTMPQXAXKJ", "current_trial": 167, "dateTime": 1512932966391, "trialdata": {"rt": -1, "stimulus": "<p id=\"stim\">1</p>", "key_press": -1, "trial_type": "single-stim", "trial_index": 167, "time_elapsed": 1372127, "internal_node_id": "0.0-122.0-9.0"}}, {"uniqueid": "MTK0935:3OCHAWUVGPREQKYRG3YTOTMPQXAXKJ", "current_trial": 168, "dateTime": 1512932967892, "trialdata": {"rt": -1, "stimulus": "<p id=\"stim\">+</p>", "key_press": -1, "type": "FIXATION", "trial_type": "single-stim", "trial_index": 168, "time_elapsed": 1373628, "internal_node_id": "0.0-123.0-0.0"}}, {"uniqueid": "MTK0935:3OCHAWUVGPREQKYRG3YTOTMPQXAXKJ", "current_trial": 169, "dateTime": 1512932968695, "trialdata": {"rt": -1, "stimulus": "<p id=\"stim\">FREEZER</p>", "key_press": -1, "type": "PRES_VIS", "word": "freezer", "wordID": 603, "conditions": [12, 800, "v", 24000], "trial": 4, "serialpos": 0, "trial_type": "single-stim", "trial_index": 169, "time_elapsed": 1374431, "internal_node_id": "0.0-124.0"}}, {"uniqueid": "MTK0935:3OCHAWUVGPREQKYRG3YTOTMPQXAXKJ", "current_trial": 170, "dateTime": 1512932970454, "trialdata": {"rt": -1, "stimulus": "<p id=\"stim\">GUITAR</p>", "key_press": -1, "type": "PRES_VIS", "word": "guitar", "wordID": 669, "conditions": [12, 800, "v", 24000], "trial": 4, "serialpos": 1, "trial_type": "single-stim", "trial_index": 170, "time_elapsed": 1376190, "internal_node_id": "0.0-125.0"}}, {"uniqueid": "MTK0935:3OCHAWUVGPREQKYRG3YTOTMPQXAXKJ", "current_trial": 171, "dateTime": 1512932972299, "trialdata": {"rt": -1, "stimulus": "<p id=\"stim\">SWORD</p>", "key_press": -1, "type": "PRES_VIS", "word": "sword", "wordID": 1422, "conditions": [12, 800, "v", 24000], "trial": 4, "serialpos": 2, "trial_type": "single-stim", "trial_index": 171, "time_elapsed": 1378035, "internal_node_id": "0.0-126.0"}}, {"uniqueid": "MTK0935:3OCHAWUVGPREQKYRG3YTOTMPQXAXKJ", "current_trial": 172, "dateTime": 1512932974194, "trialdata": {"rt": -1, "stimulus": "<p id=\"stim\">HARP</p>", "key_press": -1, "type": "PRES_VIS", "word": "harp", "wordID": 688, "conditions": [12, 800, "v", 24000], "trial": 4, "serialpos": 3, "trial_type": "single-stim", "trial_index": 172, "time_elapsed": 1379930, "internal_node_id": "0.0-127.0"}}, {"uniqueid": "MTK0935:3OCHAWUVGPREQKYRG3YTOTMPQXAXKJ", "current_trial": 173, "dateTime": 1512932975920, "trialdata": {"rt": -1, "stimulus": "<p id=\"stim\">FLUTE</p>", "key_press": -1, "type": "PRES_VIS", "word": "flute", "wordID": 584, "conditions": [12, 800, "v", 24000], "trial": 4, "serialpos": 4, "trial_type": "single-stim", "trial_index": 173, "time_elapsed": 1381656, "internal_node_id": "0.0-128.0"}}, {"uniqueid": "MTK0935:3OCHAWUVGPREQKYRG3YTOTMPQXAXKJ", "current_trial": 174, "dateTime": 1512932977623, "trialdata": {"rt": -1, "stimulus": "<p id=\"stim\">VENUS</p>", "key_press": -1, "type": "PRES_VIS", "word": "venus", "wordID": 1556, "conditions": [12, 800, "v", 24000], "trial": 4, "serialpos": 5, "trial_type": "single-stim", "trial_index": 174, "time_elapsed": 1383359, "internal_node_id": "0.0-129.0"}}, {"uniqueid": "MTK0935:3OCHAWUVGPREQKYRG3YTOTMPQXAXKJ", "current_trial": 175, "dateTime": 1512932979554, "trialdata": {"rt": -1, "stimulus": "<p id=\"stim\">COWBOY</p>", "key_press": -1, "type": "PRES_VIS", "word": "cowboy", "wordID": 394, "conditions": [12, 800, "v", 24000], "trial": 4, "serialpos": 6, "trial_type": "single-stim", "trial_index": 175, "time_elapsed": 1385290, "internal_node_id": "0.0-130.0"}}, {"uniqueid": "MTK0935:3OCHAWUVGPREQKYRG3YTOTMPQXAXKJ", "current_trial": 176, "dateTime": 1512932981294, "trialdata": {"rt": -1, "stimulus": "<p id=\"stim\">KNIFE</p>", "key_press": -1, "type": "PRES_VIS", "word": "knife", "wordID": 784, "conditions": [12, 800, "v", 24000], "trial": 4, "serialpos": 7, "trial_type": "single-stim", "trial_index": 176, "time_elapsed": 1387030, "internal_node_id": "0.0-131.0"}}, {"uniqueid": "MTK0935:3OCHAWUVGPREQKYRG3YTOTMPQXAXKJ", "current_trial": 177, "dateTime": 1512932983019, "trialdata": {"rt": -1, "stimulus": "<p id=\"stim\">XEROX</p>", "key_press": -1, "type": "PRES_VIS", "word": "xerox", "wordID": 1627, "conditions": [12, 800, "v", 24000], "trial": 4, "serialpos": 8, "trial_type": "single-stim", "trial_index": 177, "time_elapsed": 1388755, "internal_node_id": "0.0-132.0"}}, {"uniqueid": "MTK0935:3OCHAWUVGPREQKYRG3YTOTMPQXAXKJ", "current_trial": 178, "dateTime": 1512932984867, "trialdata": {"rt": -1, "stimulus": "<p id=\"stim\">LIPSTICK</p>", "key_press": -1, "type": "PRES_VIS", "word": "lipstick", "wordID": 828, "conditions": [12, 800, "v", 24000], "trial": 4, "serialpos": 9, "trial_type": "single-stim", "trial_index": 178, "time_elapsed": 1390603, "internal_node_id": "0.0-133.0"}}, {"uniqueid": "MTK0935:3OCHAWUVGPREQKYRG3YTOTMPQXAXKJ", "current_trial": 179, "dateTime": 1512932986697, "trialdata": {"rt": -1, "stimulus": "<p id=\"stim\">WIDOW</p>", "key_press": -1, "type": "PRES_VIS", "word": "widow", "wordID": 1607, "conditions": [12, 800, "v", 24000], "trial": 4, "serialpos": 10, "trial_type": "single-stim", "trial_index": 179, "time_elapsed": 1392433, "internal_node_id": "0.0-134.0"}}, {"uniqueid": "MTK0935:3OCHAWUVGPREQKYRG3YTOTMPQXAXKJ", "current_trial": 180, "dateTime": 1512932988526, "trialdata": {"rt": -1, "stimulus": "<p id=\"stim\">BEAKER</p>", "key_press": -1, "type": "PRES_VIS", "word": "beaker", "wordID": 103, "conditions": [12, 800, "v", 24000], "trial": 4, "serialpos": 11, "trial_type": "single-stim", "trial_index": 180, "time_elapsed": 1394262, "internal_node_id": "0.0-135.0"}}, {"uniqueid": "MTK0935:3OCHAWUVGPREQKYRG3YTOTMPQXAXKJ", "current_trial": 181, "dateTime": 1512932990673, "trialdata": {"rt": -1, "stimulus": "", "key_press": -1, "type": "PRE_RECALL_DELAY", "trial_type": "single-stim", "trial_index": 181, "time_elapsed": 1396409, "internal_node_id": "0.0-136.0-0.0"}}, {"uniqueid": "MTK0935:3OCHAWUVGPREQKYRG3YTOTMPQXAXKJ", "current_trial": 182, "dateTime": 1512932991177, "trialdata": {"rt": -1000, "stimulus": "/static/audio/400Hz.wav", "key_press": -1, "type": "PRE_RECALL_ALERT", "trial_type": "single-audio", "trial_index": 182, "time_elapsed": 1396911, "internal_node_id": "0.0-137.0"}}, {"uniqueid": "MTK0935:3OCHAWUVGPREQKYRG3YTOTMPQXAXKJ", "current_trial": 183, "dateTime": 1512933051183, "trialdata": {"rt": [8094, 12260, 16535, 20225, 25364], "recwords": ["widow", "xerox", "venus", "harp", "freezer"], "type": "FREE_RECALL", "conditions": [12, 800, "v", 24000], "trial": 4, "trial_type": "free-recall", "trial_index": 183, "time_elapsed": 1456917, "internal_node_id": "0.0-138.0-0.0"}}, {"uniqueid": "MTK0935:3OCHAWUVGPREQKYRG3YTOTMPQXAXKJ", "current_trial": 184, "dateTime": 1512933055097, "trialdata": {"rt": 1912, "key_press": 32, "type": "INSTRUCTIONS", "trial_type": "text", "trial_index": 184, "time_elapsed": 1460833, "internal_node_id": "0.0-139.0"}}, {"uniqueid": "MTK0935:3OCHAWUVGPREQKYRG3YTOTMPQXAXKJ", "current_trial": 185, "dateTime": 1512933069100, "trialdata": {"rt": [3851, 6975, 10000], "responses": ["17", "21", "16"], "num1": [3, 5, 5, 9], "num2": [5, 8, 6, 2], "num3": [9, 8, 5, 2], "type": "DISTRACTOR", "conditions": [12, 800, "v", 12000], "trial": 5, "trial_type": "math-distractor", "trial_index": 185, "time_elapsed": 1474836, "internal_node_id": "0.0-140.0"}}, {"uniqueid": "MTK0935:3OCHAWUVGPREQKYRG3YTOTMPQXAXKJ", "current_trial": 186, "dateTime": 1512933072101, "trialdata": {"rt": -1, "stimulus": "<p id=\"stim\">10</p>", "key_press": -1, "trial_type": "single-stim", "trial_index": 186, "time_elapsed": 1477837, "internal_node_id": "0.0-141.0-0.0"}}, {"uniqueid": "MTK0935:3OCHAWUVGPREQKYRG3YTOTMPQXAXKJ", "current_trial": 187, "dateTime": 1512933073102, "trialdata": {"rt": -1, "stimulus": "<p id=\"stim\">9</p>", "key_press": -1, "trial_type": "single-stim", "trial_index": 187, "time_elapsed": 1478838, "internal_node_id": "0.0-141.0-1.0"}}, {"uniqueid": "MTK0935:3OCHAWUVGPREQKYRG3YTOTMPQXAXKJ", "current_trial": 188, "dateTime": 1512933074104, "trialdata": {"rt": -1, "stimulus": "<p id=\"stim\">8</p>", "key_press": -1, "trial_type": "single-stim", "trial_index": 188, "time_elapsed": 1479840, "internal_node_id": "0.0-141.0-2.0"}}, {"uniqueid": "MTK0935:3OCHAWUVGPREQKYRG3YTOTMPQXAXKJ", "current_trial": 189, "dateTime": 1512933075106, "trialdata": {"rt": -1, "stimulus": "<p id=\"stim\">7</p>", "key_press": -1, "trial_type": "single-stim", "trial_index": 189, "time_elapsed": 1480842, "internal_node_id": "0.0-141.0-3.0"}}, {"uniqueid": "MTK0935:3OCHAWUVGPREQKYRG3YTOTMPQXAXKJ", "current_trial": 190, "dateTime": 1512933076107, "trialdata": {"rt": -1, "stimulus": "<p id=\"stim\">6</p>", "key_press": -1, "trial_type": "single-stim", "trial_index": 190, "time_elapsed": 1481843, "internal_node_id": "0.0-141.0-4.0"}}, {"uniqueid": "MTK0935:3OCHAWUVGPREQKYRG3YTOTMPQXAXKJ", "current_trial": 191, "dateTime": 1512933077108, "trialdata": {"rt": -1, "stimulus": "<p id=\"stim\">5</p>", "key_press": -1, "trial_type": "single-stim", "trial_index": 191, "time_elapsed": 1482844, "internal_node_id": "0.0-141.0-5.0"}}, {"uniqueid": "MTK0935:3OCHAWUVGPREQKYRG3YTOTMPQXAXKJ", "current_trial": 192, "dateTime": 1512933078110, "trialdata": {"rt": -1, "stimulus": "<p id=\"stim\">4</p>", "key_press": -1, "trial_type": "single-stim", "trial_index": 192, "time_elapsed": 1483846, "internal_node_id": "0.0-141.0-6.0"}}, {"uniqueid": "MTK0935:3OCHAWUVGPREQKYRG3YTOTMPQXAXKJ", "current_trial": 193, "dateTime": 1512933079111, "trialdata": {"rt": -1, "stimulus": "<p id=\"stim\">3</p>", "key_press": -1, "trial_type": "single-stim", "trial_index": 193, "time_elapsed": 1484847, "internal_node_id": "0.0-141.0-7.0"}}, {"uniqueid": "MTK0935:3OCHAWUVGPREQKYRG3YTOTMPQXAXKJ", "current_trial": 194, "dateTime": 1512933080114, "trialdata": {"rt": -1, "stimulus": "<p id=\"stim\">2</p>", "key_press": -1, "trial_type": "single-stim", "trial_index": 194, "time_elapsed": 1485850, "internal_node_id": "0.0-141.0-8.0"}}, {"uniqueid": "MTK0935:3OCHAWUVGPREQKYRG3YTOTMPQXAXKJ", "current_trial": 195, "dateTime": 1512933081115, "trialdata": {"rt": -1, "stimulus": "<p id=\"stim\">1</p>", "key_press": -1, "trial_type": "single-stim", "trial_index": 195, "time_elapsed": 1486851, "internal_node_id": "0.0-141.0-9.0"}}, {"uniqueid": "MTK0935:3OCHAWUVGPREQKYRG3YTOTMPQXAXKJ", "current_trial": 196, "dateTime": 1512933082617, "trialdata": {"rt": -1, "stimulus": "<p id=\"stim\">+</p>", "key_press": -1, "type": "FIXATION", "trial_type": "single-stim", "trial_index": 196, "time_elapsed": 1488353, "internal_node_id": "0.0-142.0-0.0"}}, {"uniqueid": "MTK0935:3OCHAWUVGPREQKYRG3YTOTMPQXAXKJ", "current_trial": 197, "dateTime": 1512933083418, "trialdata": {"rt": -1, "stimulus": "<p id=\"stim\">SKETCH</p>", "key_press": -1, "type": "PRES_VIS", "word": "sketch", "wordID": 1314, "conditions": [12, 800, "v", 12000], "trial": 5, "serialpos": 0, "trial_type": "single-stim", "trial_index": 197, "time_elapsed": 1489154, "internal_node_id": "0.0-143.0"}}, {"uniqueid": "MTK0935:3OCHAWUVGPREQKYRG3YTOTMPQXAXKJ", "current_trial": 198, "dateTime": 1512933085399, "trialdata": {"rt": -1, "stimulus": "<p id=\"stim\">MAMMAL</p>", "key_press": -1, "type": "PRES_VIS", "word": "mammal", "wordID": 860, "conditions": [12, 800, "v", 12000], "trial": 5, "serialpos": 1, "trial_type": "single-stim", "trial_index": 198, "time_elapsed": 1491135, "internal_node_id": "0.0-144.0"}}, {"uniqueid": "MTK0935:3OCHAWUVGPREQKYRG3YTOTMPQXAXKJ", "current_trial": 199, "dateTime": 1512933087096, "trialdata": {"rt": -1, "stimulus": "<p id=\"stim\">SHARK</p>", "key_press": -1, "type": "PRES_VIS", "word": "shark", "wordID": 1274, "conditions": [12, 800, "v", 12000], "trial": 5, "serialpos": 2, "trial_type": "single-stim", "trial_index": 199, "time_elapsed": 1492832, "internal_node_id": "0.0-145.0"}}, {"uniqueid": "MTK0935:3OCHAWUVGPREQKYRG3YTOTMPQXAXKJ", "current_trial": 200, "dateTime": 1512933088816, "trialdata": {"rt": -1, "stimulus": "<p id=\"stim\">SILK</p>", "key_press": -1, "type": "PRES_VIS", "word": "silk", "wordID": 1306, "conditions": [12, 800, "v", 12000], "trial": 5, "serialpos": 3, "trial_type": "single-stim", "trial_index": 200, "time_elapsed": 1494552, "internal_node_id": "0.0-146.0"}}, {"uniqueid": "MTK0935:3OCHAWUVGPREQKYRG3YTOTMPQXAXKJ", "current_trial": 201, "dateTime": 1512933090606, "trialdata": {"rt": -1, "stimulus": "<p id=\"stim\">PIGMENT</p>", "key_press": -1, "type": "PRES_VIS", "word": "pigment", "wordID": 1065, "conditions": [12, 800, "v", 12000], "trial": 5, "serialpos": 4, "trial_type": "single-stim", "trial_index": 201, "time_elapsed": 1496342, "internal_node_id": "0.0-147.0"}}, {"uniqueid": "MTK0935:3OCHAWUVGPREQKYRG3YTOTMPQXAXKJ", "current_trial": 202, "dateTime": 1512933092534, "trialdata": {"rt": -1, "stimulus": "<p id=\"stim\">GROUND</p>", "key_press": -1, "type": "PRES_VIS", "word": "ground", "wordID": 665, "conditions": [12, 800, "v", 12000], "trial": 5, "serialpos": 5, "trial_type": "single-stim", "trial_index": 202, "time_elapsed": 1498270, "internal_node_id": "0.0-148.0"}}, {"uniqueid": "MTK0935:3OCHAWUVGPREQKYRG3YTOTMPQXAXKJ", "current_trial": 203, "dateTime": 1512933094450, "trialdata": {"rt": -1, "stimulus": "<p id=\"stim\">FLOWER</p>", "key_press": -1, "type": "PRES_VIS", "word": "flower", "wordID": 583, "conditions": [12, 800, "v", 12000], "trial": 5, "serialpos": 6, "trial_type": "single-stim", "trial_index": 203, "time_elapsed": 1500186, "internal_node_id": "0.0-149.0"}}, {"uniqueid": "MTK0935:3OCHAWUVGPREQKYRG3YTOTMPQXAXKJ", "current_trial": 204, "dateTime": 1512933096349, "trialdata": {"rt": -1, "stimulus": "<p id=\"stim\">TURTLE</p>", "key_press": -1, "type": "PRES_VIS", "word": "turtle", "wordID": 1521, "conditions": [12, 800, "v", 12000], "trial": 5, "serialpos": 7, "trial_type": "single-stim", "trial_index": 204, "time_elapsed": 1502085, "internal_node_id": "0.0-150.0"}}, {"uniqueid": "MTK0935:3OCHAWUVGPREQKYRG3YTOTMPQXAXKJ", "current_trial": 205, "dateTime": 1512933098181, "trialdata": {"rt": -1, "stimulus": "<p id=\"stim\">COCOON</p>", "key_press": -1, "type": "PRES_VIS", "word": "cocoon", "wordID": 338, "conditions": [12, 800, "v", 12000], "trial": 5, "serialpos": 8, "trial_type": "single-stim", "trial_index": 205, "time_elapsed": 1503917, "internal_node_id": "0.0-151.0"}}, {"uniqueid": "MTK0935:3OCHAWUVGPREQKYRG3YTOTMPQXAXKJ", "current_trial": 206, "dateTime": 1512933100119, "trialdata": {"rt": -1, "stimulus": "<p id=\"stim\">COFFEE</p>", "key_press": -1, "type": "PRES_VIS", "word": "coffee", "wordID": 340, "conditions": [12, 800, "v", 12000], "trial": 5, "serialpos": 9, "trial_type": "single-stim", "trial_index": 206, "time_elapsed": 1505855, "internal_node_id": "0.0-152.0"}}, {"uniqueid": "MTK0935:3OCHAWUVGPREQKYRG3YTOTMPQXAXKJ", "current_trial": 207, "dateTime": 1512933101749, "trialdata": {"rt": -1, "stimulus": "<p id=\"stim\">GARDEN</p>", "key_press": -1, "type": "PRES_VIS", "word": "garden", "wordID": 622, "conditions": [12, 800, "v", 12000], "trial": 5, "serialpos": 10, "trial_type": "single-stim", "trial_index": 207, "time_elapsed": 1507485, "internal_node_id": "0.0-153.0"}}, {"uniqueid": "MTK0935:3OCHAWUVGPREQKYRG3YTOTMPQXAXKJ", "current_trial": 208, "dateTime": 1512933103494, "trialdata": {"rt": -1, "stimulus": "<p id=\"stim\">FLESH</p>", "key_press": -1, "type": "PRES_VIS", "word": "flesh", "wordID": 578, "conditions": [12, 800, "v", 12000], "trial": 5, "serialpos": 11, "trial_type": "single-stim", "trial_index": 208, "time_elapsed": 1509230, "internal_node_id": "0.0-154.0"}}, {"uniqueid": "MTK0935:3OCHAWUVGPREQKYRG3YTOTMPQXAXKJ", "current_trial": 209, "dateTime": 1512933105932, "trialdata": {"rt": -1, "stimulus": "", "key_press": -1, "type": "PRE_RECALL_DELAY", "trial_type": "single-stim", "trial_index": 209, "time_elapsed": 1511668, "internal_node_id": "0.0-155.0-0.0"}}, {"uniqueid": "MTK0935:3OCHAWUVGPREQKYRG3YTOTMPQXAXKJ", "current_trial": 210, "dateTime": 1512933106434, "trialdata": {"rt": -1000, "stimulus": "/static/audio/400Hz.wav", "key_press": -1, "type": "PRE_RECALL_ALERT", "trial_type": "single-audio", "trial_index": 210, "time_elapsed": 1512170, "internal_node_id": "0.0-156.0"}}, {"uniqueid": "MTK0935:3OCHAWUVGPREQKYRG3YTOTMPQXAXKJ", "current_trial": 211, "dateTime": 1512933166440, "trialdata": {"rt": [5568, 9388, 16845, 20905, 28557], "recwords": ["sketch", "silk", "ground", "coffee", "ferment"], "type": "FREE_RECALL", "conditions": [12, 800, "v", 12000], "trial": 5, "trial_type": "free-recall", "trial_index": 211, "time_elapsed": 1572174, "internal_node_id": "0.0-157.0-0.0"}}, {"uniqueid": "MTK0935:3OCHAWUVGPREQKYRG3YTOTMPQXAXKJ", "current_trial": 212, "dateTime": 1512933173648, "trialdata": {"rt": 5206, "key_press": 32, "type": "INSTRUCTIONS", "trial_type": "text", "trial_index": 212, "time_elapsed": 1579384, "internal_node_id": "0.0-158.0"}}, {"uniqueid": "MTK0935:3OCHAWUVGPREQKYRG3YTOTMPQXAXKJ", "current_trial": 213, "dateTime": 1512933199651, "trialdata": {"rt": [3742, 8983, 12314, 18027, 21482], "responses": ["10", "16 ", "15", "8", "7"], "num1": [6, 6, 3, 2, 4, 8], "num2": [2, 3, 7, 3, 2, 3], "num3": [2, 7, 5, 3, 1, 6], "type": "DISTRACTOR", "conditions": [24, 800, "a", 24000], "trial": 6, "trial_type": "math-distractor", "trial_index": 213, "time_elapsed": 1605387, "internal_node_id": "0.0-159.0"}}, {"uniqueid": "MTK0935:3OCHAWUVGPREQKYRG3YTOTMPQXAXKJ", "current_trial": 214, "dateTime": 1512933202653, "trialdata": {"rt": -1, "stimulus": "<p id=\"stim\">10</p>", "key_press": -1, "trial_type": "single-stim", "trial_index": 214, "time_elapsed": 1608389, "internal_node_id": "0.0-160.0-0.0"}}, {"uniqueid": "MTK0935:3OCHAWUVGPREQKYRG3YTOTMPQXAXKJ", "current_trial": 215, "dateTime": 1512933203655, "trialdata": {"rt": -1, "stimulus": "<p id=\"stim\">9</p>", "key_press": -1, "trial_type": "single-stim", "trial_index": 215, "time_elapsed": 1609391, "internal_node_id": "0.0-160.0-1.0"}}, {"uniqueid": "MTK0935:3OCHAWUVGPREQKYRG3YTOTMPQXAXKJ", "current_trial": 216, "dateTime": 1512933204657, "trialdata": {"rt": -1, "stimulus": "<p id=\"stim\">8</p>", "key_press": -1, "trial_type": "single-stim", "trial_index": 216, "time_elapsed": 1610393, "internal_node_id": "0.0-160.0-2.0"}}, {"uniqueid": "MTK0935:3OCHAWUVGPREQKYRG3YTOTMPQXAXKJ", "current_trial": 217, "dateTime": 1512933205660, "trialdata": {"rt": -1, "stimulus": "<p id=\"stim\">7</p>", "key_press": -1, "trial_type": "single-stim", "trial_index": 217, "time_elapsed": 1611396, "internal_node_id": "0.0-160.0-3.0"}}, {"uniqueid": "MTK0935:3OCHAWUVGPREQKYRG3YTOTMPQXAXKJ", "current_trial": 218, "dateTime": 1512933206661, "trialdata": {"rt": -1, "stimulus": "<p id=\"stim\">6</p>", "key_press": -1, "trial_type": "single-stim", "trial_index": 218, "time_elapsed": 1612397, "internal_node_id": "0.0-160.0-4.0"}}, {"uniqueid": "MTK0935:3OCHAWUVGPREQKYRG3YTOTMPQXAXKJ", "current_trial": 219, "dateTime": 1512933207662, "trialdata": {"rt": -1, "stimulus": "<p id=\"stim\">5</p>", "key_press": -1, "trial_type": "single-stim", "trial_index": 219, "time_elapsed": 1613398, "internal_node_id": "0.0-160.0-5.0"}}, {"uniqueid": "MTK0935:3OCHAWUVGPREQKYRG3YTOTMPQXAXKJ", "current_trial": 220, "dateTime": 1512933208664, "trialdata": {"rt": -1, "stimulus": "<p id=\"stim\">4</p>", "key_press": -1, "trial_type": "single-stim", "trial_index": 220, "time_elapsed": 1614400, "internal_node_id": "0.0-160.0-6.0"}}, {"uniqueid": "MTK0935:3OCHAWUVGPREQKYRG3YTOTMPQXAXKJ", "current_trial": 221, "dateTime": 1512933209666, "trialdata": {"rt": -1, "stimulus": "<p id=\"stim\">3</p>", "key_press": -1, "trial_type": "single-stim", "trial_index": 221, "time_elapsed": 1615402, "internal_node_id": "0.0-160.0-7.0"}}, {"uniqueid": "MTK0935:3OCHAWUVGPREQKYRG3YTOTMPQXAXKJ", "current_trial": 222, "dateTime": 1512933210668, "trialdata": {"rt": -1, "stimulus": "<p id=\"stim\">2</p>", "key_press": -1, "trial_type": "single-stim", "trial_index": 222, "time_elapsed": 1616404, "internal_node_id": "0.0-160.0-8.0"}}, {"uniqueid": "MTK0935:3OCHAWUVGPREQKYRG3YTOTMPQXAXKJ", "current_trial": 223, "dateTime": 1512933211669, "trialdata": {"rt": -1, "stimulus": "<p id=\"stim\">1</p>", "key_press": -1, "trial_type": "single-stim", "trial_index": 223, "time_elapsed": 1617405, "internal_node_id": "0.0-160.0-9.0"}}, {"uniqueid": "MTK0935:3OCHAWUVGPREQKYRG3YTOTMPQXAXKJ", "current_trial": 224, "dateTime": 1512933213170, "trialdata": {"rt": -1, "stimulus": "<p id=\"stim\">+</p>", "key_press": -1, "type": "FIXATION", "trial_type": "single-stim", "trial_index": 224, "time_elapsed": 1618906, "internal_node_id": "0.0-161.0-0.0"}}, {"uniqueid": "MTK0935:3OCHAWUVGPREQKYRG3YTOTMPQXAXKJ", "current_trial": 225, "dateTime": 1512933215072, "trialdata": {"rt": -1000, "stimulus": "/static/audio/wordpool/CRICKET.wav", "key_press": -1, "type": "PRES_AUD", "word": "cricket", "wordID": 407, "conditions": [24, 800, "a", 24000], "trial": 6, "serialpos": 0, "trial_type": "single-audio", "trial_index": 225, "time_elapsed": 1620807, "internal_node_id": "0.0-162.0"}}, {"uniqueid": "MTK0935:3OCHAWUVGPREQKYRG3YTOTMPQXAXKJ", "current_trial": 226, "dateTime": 1512933216854, "trialdata": {"rt": -1000, "stimulus": "/static/audio/wordpool/DOLPHIN.wav", "key_press": -1, "type": "PRES_AUD", "word": "dolphin", "wordID": 482, "conditions": [24, 800, "a", 24000], "trial": 6, "serialpos": 1, "trial_type": "single-audio", "trial_index": 226, "time_elapsed": 1622589, "internal_node_id": "0.0-163.0"}}, {"uniqueid": "MTK0935:3OCHAWUVGPREQKYRG3YTOTMPQXAXKJ", "current_trial": 227, "dateTime": 1512933218691, "trialdata": {"rt": -1000, "stimulus": "/static/audio/wordpool/CONTRACT.wav", "key_press": -1, "type": "PRES_AUD", "word": "contract", "wordID": 367, "conditions": [24, 800, "a", 24000], "trial": 6, "serialpos": 2, "trial_type": "single-audio", "trial_index": 227, "time_elapsed": 1624426, "internal_node_id": "0.0-164.0"}}, {"uniqueid": "MTK0935:3OCHAWUVGPREQKYRG3YTOTMPQXAXKJ", "current_trial": 228, "dateTime": 1512933220422, "trialdata": {"rt": -1000, "stimulus": "/static/audio/wordpool/GYMNAST.wav", "key_press": -1, "type": "PRES_AUD", "word": "gymnast", "wordID": 674, "conditions": [24, 800, "a", 24000], "trial": 6, "serialpos": 3, "trial_type": "single-audio", "trial_index": 228, "time_elapsed": 1626157, "internal_node_id": "0.0-165.0"}}, {"uniqueid": "MTK0935:3OCHAWUVGPREQKYRG3YTOTMPQXAXKJ", "current_trial": 229, "dateTime": 1512933222387, "trialdata": {"rt": -1000, "stimulus": "/static/audio/wordpool/GIFT.wav", "key_press": -1, "type": "PRES_AUD", "word": "gift", "wordID": 634, "conditions": [24, 800, "a", 24000], "trial": 6, "serialpos": 4, "trial_type": "single-audio", "trial_index": 229, "time_elapsed": 1628122, "internal_node_id": "0.0-166.0"}}, {"uniqueid": "MTK0935:3OCHAWUVGPREQKYRG3YTOTMPQXAXKJ", "current_trial": 230, "dateTime": 1512933224016, "trialdata": {"rt": -1000, "stimulus": "/static/audio/wordpool/BANQUET.wav", "key_press": -1, "type": "PRES_AUD", "word": "banquet", "wordID": 85, "conditions": [24, 800, "a", 24000], "trial": 6, "serialpos": 5, "trial_type": "single-audio", "trial_index": 230, "time_elapsed": 1629752, "internal_node_id": "0.0-167.0"}}, {"uniqueid": "MTK0935:3OCHAWUVGPREQKYRG3YTOTMPQXAXKJ", "current_trial": 231, "dateTime": 1512933225926, "trialdata": {"rt": -1000, "stimulus": "/static/audio/wordpool/BASEMENT.wav", "key_press": -1, "type": "PRES_AUD", "word": "basement", "wordID": 93, "conditions": [24, 800, "a", 24000], "trial": 6, "serialpos": 6, "trial_type": "single-audio", "trial_index": 231, "time_elapsed": 1631661, "internal_node_id": "0.0-168.0"}}, {"uniqueid": "MTK0935:3OCHAWUVGPREQKYRG3YTOTMPQXAXKJ", "current_trial": 232, "dateTime": 1512933227874, "trialdata": {"rt": -1000, "stimulus": "/static/audio/wordpool/SURVEY.wav", "key_press": -1, "type": "PRES_AUD", "word": "survey", "wordID": 1413, "conditions": [24, 800, "a", 24000], "trial": 6, "serialpos": 7, "trial_type": "single-audio", "trial_index": 232, "time_elapsed": 1633609, "internal_node_id": "0.0-169.0"}}, {"uniqueid": "MTK0935:3OCHAWUVGPREQKYRG3YTOTMPQXAXKJ", "current_trial": 233, "dateTime": 1512933229617, "trialdata": {"rt": -1000, "stimulus": "/static/audio/wordpool/REPORT.wav", "key_press": -1, "type": "PRES_AUD", "word": "report", "wordID": 1183, "conditions": [24, 800, "a", 24000], "trial": 6, "serialpos": 8, "trial_type": "single-audio", "trial_index": 233, "time_elapsed": 1635353, "internal_node_id": "0.0-170.0"}}, {"uniqueid": "MTK0935:3OCHAWUVGPREQKYRG3YTOTMPQXAXKJ", "current_trial": 234, "dateTime": 1512933231321, "trialdata": {"rt": -1000, "stimulus": "/static/audio/wordpool/CELLAR.wav", "key_press": -1, "type": "PRES_AUD", "word": "cellar", "wordID": 266, "conditions": [24, 800, "a", 24000], "trial": 6, "serialpos": 9, "trial_type": "single-audio", "trial_index": 234, "time_elapsed": 1637056, "internal_node_id": "0.0-171.0"}}, {"uniqueid": "MTK0935:3OCHAWUVGPREQKYRG3YTOTMPQXAXKJ", "current_trial": 235, "dateTime": 1512933233225, "trialdata": {"rt": -1000, "stimulus": "/static/audio/wordpool/SOFTBALL.wav", "key_press": -1, "type": "PRES_AUD", "word": "softball", "wordID": 1342, "conditions": [24, 800, "a", 24000], "trial": 6, "serialpos": 10, "trial_type": "single-audio", "trial_index": 235, "time_elapsed": 1638961, "internal_node_id": "0.0-172.0"}}, {"uniqueid": "MTK0935:3OCHAWUVGPREQKYRG3YTOTMPQXAXKJ", "current_trial": 236, "dateTime": 1512933234838, "trialdata": {"rt": -1000, "stimulus": "/static/audio/wordpool/BLOCKADE.wav", "key_press": -1, "type": "PRES_AUD", "word": "blockade", "wordID": 136, "conditions": [24, 800, "a", 24000], "trial": 6, "serialpos": 11, "trial_type": "single-audio", "trial_index": 236, "time_elapsed": 1640574, "internal_node_id": "0.0-173.0"}}, {"uniqueid": "MTK0935:3OCHAWUVGPREQKYRG3YTOTMPQXAXKJ", "current_trial": 237, "dateTime": 1512933236700, "trialdata": {"rt": -1000, "stimulus": "/static/audio/wordpool/CRAYON.wav", "key_press": -1, "type": "PRES_AUD", "word": "crayon", "wordID": 400, "conditions": [24, 800, "a", 24000], "trial": 6, "serialpos": 12, "trial_type": "single-audio", "trial_index": 237, "time_elapsed": 1642436, "internal_node_id": "0.0-174.0"}}, {"uniqueid": "MTK0935:3OCHAWUVGPREQKYRG3YTOTMPQXAXKJ", "current_trial": 238, "dateTime": 1512933238562, "trialdata": {"rt": -1000, "stimulus": "/static/audio/wordpool/NIGHTGOWN.wav", "key_press": -1, "type": "PRES_AUD", "word": "nightgown", "wordID": 952, "conditions": [24, 800, "a", 24000], "trial": 6, "serialpos": 13, "trial_type": "single-audio", "trial_index": 238, "time_elapsed": 1644298, "internal_node_id": "0.0-175.0"}}, {"uniqueid": "MTK0935:3OCHAWUVGPREQKYRG3YTOTMPQXAXKJ", "current_trial": 239, "dateTime": 1512933240556, "trialdata": {"rt": -1000, "stimulus": "/static/audio/wordpool/RUG.wav", "key_press": -1, "type": "PRES_AUD", "word": "rug", "wordID": 1214, "conditions": [24, 800, "a", 24000], "trial": 6, "serialpos": 14, "trial_type": "single-audio", "trial_index": 239, "time_elapsed": 1646291, "internal_node_id": "0.0-176.0"}}, {"uniqueid": "MTK0935:3OCHAWUVGPREQKYRG3YTOTMPQXAXKJ", "current_trial": 240, "dateTime": 1512933242192, "trialdata": {"rt": -1000, "stimulus": "/static/audio/wordpool/MESSAGE.wav", "key_press": -1, "type": "PRES_AUD", "word": "message", "wordID": 887, "conditions": [24, 800, "a", 24000], "trial": 6, "serialpos": 15, "trial_type": "single-audio", "trial_index": 240, "time_elapsed": 1647928, "internal_node_id": "0.0-177.0"}}, {"uniqueid": "MTK0935:3OCHAWUVGPREQKYRG3YTOTMPQXAXKJ", "current_trial": 241, "dateTime": 1512933244040, "trialdata": {"rt": -1000, "stimulus": "/static/audio/wordpool/SERVANT.wav", "key_press": -1, "type": "PRES_AUD", "word": "servant", "wordID": 1270, "conditions": [24, 800, "a", 24000], "trial": 6, "serialpos": 16, "trial_type": "single-audio", "trial_index": 241, "time_elapsed": 1649776, "internal_node_id": "0.0-178.0"}}, {"uniqueid": "MTK0935:3OCHAWUVGPREQKYRG3YTOTMPQXAXKJ", "current_trial": 242, "dateTime": 1512933245848, "trialdata": {"rt": -1000, "stimulus": "/static/audio/wordpool/PLIERS.wav", "key_press": -1, "type": "PRES_AUD", "word": "pliers", "wordID": 1088, "conditions": [24, 800, "a", 24000], "trial": 6, "serialpos": 17, "trial_type": "single-audio", "trial_index": 242, "time_elapsed": 1651584, "internal_node_id": "0.0-179.0"}}, {"uniqueid": "MTK0935:3OCHAWUVGPREQKYRG3YTOTMPQXAXKJ", "current_trial": 243, "dateTime": 1512933247493, "trialdata": {"rt": -1000, "stimulus": "/static/audio/wordpool/TRUCK.wav", "key_press": -1, "type": "PRES_AUD", "word": "truck", "wordID": 1511, "conditions": [24, 800, "a", 24000], "trial": 6, "serialpos": 18, "trial_type": "single-audio", "trial_index": 243, "time_elapsed": 1653229, "internal_node_id": "0.0-180.0"}}, {"uniqueid": "MTK0935:3OCHAWUVGPREQKYRG3YTOTMPQXAXKJ", "current_trial": 244, "dateTime": 1512933249214, "trialdata": {"rt": -1000, "stimulus": "/static/audio/wordpool/TRACTOR.wav", "key_press": -1, "type": "PRES_AUD", "word": "tractor", "wordID": 1492, "conditions": [24, 800, "a", 24000], "trial": 6, "serialpos": 19, "trial_type": "single-audio", "trial_index": 244, "time_elapsed": 1654950, "internal_node_id": "0.0-181.0"}}, {"uniqueid": "MTK0935:3OCHAWUVGPREQKYRG3YTOTMPQXAXKJ", "current_trial": 245, "dateTime": 1512933251060, "trialdata": {"rt": -1000, "stimulus": "/static/audio/wordpool/GRAVEL.wav", "key_press": -1, "type": "PRES_AUD", "word": "gravel", "wordID": 658, "conditions": [24, 800, "a", 24000], "trial": 6, "serialpos": 20, "trial_type": "single-audio", "trial_index": 245, "time_elapsed": 1656796, "internal_node_id": "0.0-182.0"}}, {"uniqueid": "MTK0935:3OCHAWUVGPREQKYRG3YTOTMPQXAXKJ", "current_trial": 246, "dateTime": 1512933252896, "trialdata": {"rt": -1000, "stimulus": "/static/audio/wordpool/CLOTHES.wav", "key_press": -1, "type": "PRES_AUD", "word": "clothes", "wordID": 326, "conditions": [24, 800, "a", 24000], "trial": 6, "serialpos": 21, "trial_type": "single-audio", "trial_index": 246, "time_elapsed": 1658631, "internal_node_id": "0.0-183.0"}}, {"uniqueid": "MTK0935:3OCHAWUVGPREQKYRG3YTOTMPQXAXKJ", "current_trial": 247, "dateTime": 1512933254785, "trialdata": {"rt": -1000, "stimulus": "/static/audio/wordpool/MONSTER.wav", "key_press": -1, "type": "PRES_AUD", "word": "monster", "wordID": 911, "conditions": [24, 800, "a", 24000], "trial": 6, "serialpos": 22, "trial_type": "single-audio", "trial_index": 247, "time_elapsed": 1660521, "internal_node_id": "0.0-184.0"}}, {"uniqueid": "MTK0935:3OCHAWUVGPREQKYRG3YTOTMPQXAXKJ", "current_trial": 248, "dateTime": 1512933256572, "trialdata": {"rt": -1000, "stimulus": "/static/audio/wordpool/CYCLONE.wav", "key_press": -1, "type": "PRES_AUD", "word": "cyclone", "wordID": 430, "conditions": [24, 800, "a", 24000], "trial": 6, "serialpos": 23, "trial_type": "single-audio", "trial_index": 248, "time_elapsed": 1662308, "internal_node_id": "0.0-185.0"}}, {"uniqueid": "MTK0935:3OCHAWUVGPREQKYRG3YTOTMPQXAXKJ", "current_trial": 249, "dateTime": 1512933257877, "trialdata": {"rt": -1, "stimulus": "", "key_press": -1, "type": "PRE_RECALL_DELAY", "trial_type": "single-stim", "trial_index": 249, "time_elapsed": 1663613, "internal_node_id": "0.0-186.0-0.0"}}, {"uniqueid": "MTK0935:3OCHAWUVGPREQKYRG3YTOTMPQXAXKJ", "current_trial": 250, "dateTime": 1512933258378, "trialdata": {"rt": -1000, "stimulus": "/static/audio/400Hz.wav", "key_press": -1, "type": "PRE_RECALL_ALERT", "trial_type": "single-audio", "trial_index": 250, "time_elapsed": 1664114, "internal_node_id": "0.0-187.0"}}, {"uniqueid": "MTK0935:3OCHAWUVGPREQKYRG3YTOTMPQXAXKJ", "current_trial": 251, "dateTime": 1512933318384, "trialdata": {"rt": [8488, 14098, 17676, 22694, 27838, 32872, 38424, 43482, 46635, 55050], "recwords": ["monster", "cyclone", "gravel", "servant", "message", "dolphin", "basement", "report", "survey", "cricket"], "type": "FREE_RECALL", "conditions": [24, 800, "a", 24000], "trial": 6, "trial_type": "free-recall", "trial_index": 251, "time_elapsed": 1724117, "internal_node_id": "0.0-188.0-0.0"}}, {"uniqueid": "MTK0935:3OCHAWUVGPREQKYRG3YTOTMPQXAXKJ", "current_trial": 252, "dateTime": 1512933337598, "trialdata": {"rt": 17212, "key_press": 32, "type": "INSTRUCTIONS", "trial_type": "text", "trial_index": 252, "time_elapsed": 1743334, "internal_node_id": "0.0-189.0"}}, {"uniqueid": "MTK0935:3OCHAWUVGPREQKYRG3YTOTMPQXAXKJ", "current_trial": 253, "dateTime": 1512933351600, "trialdata": {"rt": [2986, 6264, 9647], "responses": ["21", "11", "14"], "num1": [5, 4, 3, 4], "num2": [8, 5, 5, 9], "num3": [8, 2, 6, 8], "type": "DISTRACTOR", "conditions": [12, 1600, "a", 12000], "trial": 7, "trial_type": "math-distractor", "trial_index": 253, "time_elapsed": 1757336, "internal_node_id": "0.0-190.0"}}, {"uniqueid": "MTK0935:3OCHAWUVGPREQKYRG3YTOTMPQXAXKJ", "current_trial": 254, "dateTime": 1512933354602, "trialdata": {"rt": -1, "stimulus": "<p id=\"stim\">10</p>", "key_press": -1, "trial_type": "single-stim", "trial_index": 254, "time_elapsed": 1760338, "internal_node_id": "0.0-191.0-0.0"}}, {"uniqueid": "MTK0935:3OCHAWUVGPREQKYRG3YTOTMPQXAXKJ", "current_trial": 255, "dateTime": 1512933355604, "trialdata": {"rt": -1, "stimulus": "<p id=\"stim\">9</p>", "key_press": -1, "trial_type": "single-stim", "trial_index": 255, "time_elapsed": 1761340, "internal_node_id": "0.0-191.0-1.0"}}, {"uniqueid": "MTK0935:3OCHAWUVGPREQKYRG3YTOTMPQXAXKJ", "current_trial": 256, "dateTime": 1512933356605, "trialdata": {"rt": -1, "stimulus": "<p id=\"stim\">8</p>", "key_press": -1, "trial_type": "single-stim", "trial_index": 256, "time_elapsed": 1762341, "internal_node_id": "0.0-191.0-2.0"}}, {"uniqueid": "MTK0935:3OCHAWUVGPREQKYRG3YTOTMPQXAXKJ", "current_trial": 257, "dateTime": 1512933357606, "trialdata": {"rt": -1, "stimulus": "<p id=\"stim\">7</p>", "key_press": -1, "trial_type": "single-stim", "trial_index": 257, "time_elapsed": 1763342, "internal_node_id": "0.0-191.0-3.0"}}, {"uniqueid": "MTK0935:3OCHAWUVGPREQKYRG3YTOTMPQXAXKJ", "current_trial": 258, "dateTime": 1512933358607, "trialdata": {"rt": -1, "stimulus": "<p id=\"stim\">6</p>", "key_press": -1, "trial_type": "single-stim", "trial_index": 258, "time_elapsed": 1764343, "internal_node_id": "0.0-191.0-4.0"}}, {"uniqueid": "MTK0935:3OCHAWUVGPREQKYRG3YTOTMPQXAXKJ", "current_trial": 259, "dateTime": 1512933359610, "trialdata": {"rt": -1, "stimulus": "<p id=\"stim\">5</p>", "key_press": -1, "trial_type": "single-stim", "trial_index": 259, "time_elapsed": 1765345, "internal_node_id": "0.0-191.0-5.0"}}, {"uniqueid": "MTK0935:3OCHAWUVGPREQKYRG3YTOTMPQXAXKJ", "current_trial": 260, "dateTime": 1512933360611, "trialdata": {"rt": -1, "stimulus": "<p id=\"stim\">4</p>", "key_press": -1, "trial_type": "single-stim", "trial_index": 260, "time_elapsed": 1766347, "internal_node_id": "0.0-191.0-6.0"}}, {"uniqueid": "MTK0935:3OCHAWUVGPREQKYRG3YTOTMPQXAXKJ", "current_trial": 261, "dateTime": 1512933361613, "trialdata": {"rt": -1, "stimulus": "<p id=\"stim\">3</p>", "key_press": -1, "trial_type": "single-stim", "trial_index": 261, "time_elapsed": 1767349, "internal_node_id": "0.0-191.0-7.0"}}, {"uniqueid": "MTK0935:3OCHAWUVGPREQKYRG3YTOTMPQXAXKJ", "current_trial": 262, "dateTime": 1512933362615, "trialdata": {"rt": -1, "stimulus": "<p id=\"stim\">2</p>", "key_press": -1, "trial_type": "single-stim", "trial_index": 262, "time_elapsed": 1768351, "internal_node_id": "0.0-191.0-8.0"}}, {"uniqueid": "MTK0935:3OCHAWUVGPREQKYRG3YTOTMPQXAXKJ", "current_trial": 263, "dateTime": 1512933363616, "trialdata": {"rt": -1, "stimulus": "<p id=\"stim\">1</p>", "key_press": -1, "trial_type": "single-stim", "trial_index": 263, "time_elapsed": 1769352, "internal_node_id": "0.0-191.0-9.0"}}, {"uniqueid": "MTK0935:3OCHAWUVGPREQKYRG3YTOTMPQXAXKJ", "current_trial": 264, "dateTime": 1512933365117, "trialdata": {"rt": -1, "stimulus": "<p id=\"stim\">+</p>", "key_press": -1, "type": "FIXATION", "trial_type": "single-stim", "trial_index": 264, "time_elapsed": 1770853, "internal_node_id": "0.0-192.0-0.0"}}, {"uniqueid": "MTK0935:3OCHAWUVGPREQKYRG3YTOTMPQXAXKJ", "current_trial": 265, "dateTime": 1512933367544, "trialdata": {"rt": -1000, "stimulus": "/static/audio/wordpool/SPHINX.wav", "key_press": -1, "type": "PRES_AUD", "word": "sphinx", "wordID": 1348, "conditions": [12, 1600, "a", 12000], "trial": 7, "serialpos": 0, "trial_type": "single-audio", "trial_index": 265, "time_elapsed": 1773279, "internal_node_id": "0.0-193.0"}}, {"uniqueid": "MTK0935:3OCHAWUVGPREQKYRG3YTOTMPQXAXKJ", "current_trial": 266, "dateTime": 1512933369989, "trialdata": {"rt": -1000, "stimulus": "/static/audio/wordpool/COOK.wav", "key_press": -1, "type": "PRES_AUD", "word": "cook", "wordID": 371, "conditions": [12, 1600, "a", 12000], "trial": 7, "serialpos": 1, "trial_type": "single-audio", "trial_index": 266, "time_elapsed": 1775725, "internal_node_id": "0.0-194.0"}}, {"uniqueid": "MTK0935:3OCHAWUVGPREQKYRG3YTOTMPQXAXKJ", "current_trial": 267, "dateTime": 1512933372693, "trialdata": {"rt": -1000, "stimulus": "/static/audio/wordpool/MISTER.wav", "key_press": -1, "type": "PRES_AUD", "word": "mister", "wordID": 900, "conditions": [12, 1600, "a", 12000], "trial": 7, "serialpos": 2, "trial_type": "single-audio", "trial_index": 267, "time_elapsed": 1778428, "internal_node_id": "0.0-195.0"}}, {"uniqueid": "MTK0935:3OCHAWUVGPREQKYRG3YTOTMPQXAXKJ", "current_trial": 268, "dateTime": 1512933375357, "trialdata": {"rt": -1000, "stimulus": "/static/audio/wordpool/SHOULDER.wav", "key_press": -1, "type": "PRES_AUD", "word": "shoulder", "wordID": 1293, "conditions": [12, 1600, "a", 12000], "trial": 7, "serialpos": 3, "trial_type": "single-audio", "trial_index": 268, "time_elapsed": 1781092, "internal_node_id": "0.0-196.0"}}, {"uniqueid": "MTK0935:3OCHAWUVGPREQKYRG3YTOTMPQXAXKJ", "current_trial": 269, "dateTime": 1512933378112, "trialdata": {"rt": -1000, "stimulus": "/static/audio/wordpool/ANKLE.wav", "key_press": -1, "type": "PRES_AUD", "word": "ankle", "wordID": 23, "conditions": [12, 1600, "a", 12000], "trial": 7, "serialpos": 4, "trial_type": "single-audio", "trial_index": 269, "time_elapsed": 1783848, "internal_node_id": "0.0-197.0"}}, {"uniqueid": "MTK0935:3OCHAWUVGPREQKYRG3YTOTMPQXAXKJ", "current_trial": 270, "dateTime": 1512933380737, "trialdata": {"rt": -1000, "stimulus": "/static/audio/wordpool/DUST.wav", "key_press": -1, "type": "PRES_AUD", "word": "dust", "wordID": 507, "conditions": [12, 1600, "a", 12000], "trial": 7, "serialpos": 5, "trial_type": "single-audio", "trial_index": 270, "time_elapsed": 1786473, "internal_node_id": "0.0-198.0"}}, {"uniqueid": "MTK0935:3OCHAWUVGPREQKYRG3YTOTMPQXAXKJ", "current_trial": 271, "dateTime": 1512933383220, "trialdata": {"rt": -1000, "stimulus": "/static/audio/wordpool/RAZOR.wav", "key_press": -1, "type": "PRES_AUD", "word": "razor", "wordID": 1170, "conditions": [12, 1600, "a", 12000], "trial": 7, "serialpos": 6, "trial_type": "single-audio", "trial_index": 271, "time_elapsed": 1788955, "internal_node_id": "0.0-199.0"}}, {"uniqueid": "MTK0935:3OCHAWUVGPREQKYRG3YTOTMPQXAXKJ", "current_trial": 272, "dateTime": 1512933385683, "trialdata": {"rt": -1000, "stimulus": "/static/audio/wordpool/SUMMIT.wav", "key_press": -1, "type": "PRES_AUD", "word": "summit", "wordID": 1404, "conditions": [12, 1600, "a", 12000], "trial": 7, "serialpos": 7, "trial_type": "single-audio", "trial_index": 272, "time_elapsed": 1791418, "internal_node_id": "0.0-200.0"}}, {"uniqueid": "MTK0935:3OCHAWUVGPREQKYRG3YTOTMPQXAXKJ", "current_trial": 273, "dateTime": 1512933388191, "tr