{"condition": 0, "counterbalance": 168, "assignmentId": "3CTOC39K38XP0LMIG5UJTF9O66SJ7N", "workerId": "MTK0287", "hitId": "3CMV9YRYP38MSMDQUXQRN0V5O69LJI", "currenttrial": 626, "bonus": 0, "data": [{"uniqueid": "MTK0287:3CTOC39K38XP0LMIG5UJTF9O66SJ7N", "current_trial": 0, "dateTime": 1510708078630, "trialdata": {"rt": 17173, "key_press": 32, "type": "INSTRUCTIONS", "trial_type": "text", "trial_index": 0, "time_elapsed": 17174, "internal_node_id": "0.0-0.0"}}, {"uniqueid": "MTK0287:3CTOC39K38XP0LMIG5UJTF9O66SJ7N", "current_trial": 1, "dateTime": 1510708555054, "trialdata": {"rt": 476423, "key_press": 32, "type": "INSTRUCTIONS", "trial_type": "text", "trial_index": 1, "time_elapsed": 493599, "internal_node_id": "0.0-1.0"}}, {"uniqueid": "MTK0287:3CTOC39K38XP0LMIG5UJTF9O66SJ7N", "current_trial": 2, "dateTime": 1510708568368, "trialdata": {"rt": [13299], "responses": ["ocean"], "type": "AUDIO_TEST", "trial_type": "audio-test", "trial_index": 2, "time_elapsed": 506912, "internal_node_id": "0.0-2.0"}}, {"uniqueid": "MTK0287:3CTOC39K38XP0LMIG5UJTF9O66SJ7N", "current_trial": 3, "dateTime": 1510708576831, "trialdata": {"rt": [8458], "responses": ["crystal"], "type": "AUDIO_TEST", "trial_type": "audio-test", "trial_index": 3, "time_elapsed": 515376, "internal_node_id": "0.0-3.0"}}, {"uniqueid": "MTK0287:3CTOC39K38XP0LMIG5UJTF9O66SJ7N", "current_trial": 4, "dateTime": 1510708581983, "trialdata": {"rt": [5146], "responses": ["spice"], "type": "AUDIO_TEST", "trial_type": "audio-test", "trial_index": 4, "time_elapsed": 520528, "internal_node_id": "0.0-4.0"}}, {"uniqueid": "MTK0287:3CTOC39K38XP0LMIG5UJTF9O66SJ7N", "current_trial": 5, "dateTime": 1510708597343, "trialdata": {"rt": 14596, "responses": "{\"Q0\":\"11\",\"Q1\":\"6\",\"Q2\":\"4\"}", "type": "SLEEP_SURVEY", "trial_type": "survey-text", "trial_index": 5, "time_elapsed": 535888, "internal_node_id": "0.0-5.0"}}, {"uniqueid": "MTK0287:3CTOC39K38XP0LMIG5UJTF9O66SJ7N", "current_trial": 6, "dateTime": 1510708633549, "trialdata": {"rt": 35195, "key_press": 32, "type": "INSTRUCTIONS", "trial_type": "text", "trial_index": 6, "time_elapsed": 572094, "internal_node_id": "0.0-6.0"}}, {"uniqueid": "MTK0287:3CTOC39K38XP0LMIG5UJTF9O66SJ7N", "current_trial": 7, "dateTime": 1510708690109, "trialdata": {"rt": 56048, "key_press": 32, "type": "INSTRUCTIONS", "trial_type": "text", "trial_index": 7, "time_elapsed": 628654, "internal_node_id": "0.0-7.0"}}, {"uniqueid": "MTK0287:3CTOC39K38XP0LMIG5UJTF9O66SJ7N", "current_trial": 8, "dateTime": 1510708754732, "trialdata": {"rt": 64113, "key_press": 32, "type": "INSTRUCTIONS", "trial_type": "text", "trial_index": 8, "time_elapsed": 693277, "internal_node_id": "0.0-8.0"}}, {"uniqueid": "MTK0287:3CTOC39K38XP0LMIG5UJTF9O66SJ7N", "current_trial": 9, "dateTime": 1510708773747, "trialdata": {"rt": [6044, 8828, 10876, 12908, 15436, 17676], "responses": ["17", "11", "18", "10", "11", "11"], "num1": [2, 1, 9, 4, 4, 1, 8], "num2": [6, 3, 6, 3, 4, 8, 3], "num3": [9, 7, 3, 3, 3, 2, 1], "type": "DISTRACTOR", "conditions": [18, 1200, "v", 18000], "trial": 0, "trial_type": "math-distractor", "trial_index": 9, "time_elapsed": 712292, "internal_node_id": "0.0-9.0"}}, {"uniqueid": "MTK0287:3CTOC39K38XP0LMIG5UJTF9O66SJ7N", "current_trial": 10, "dateTime": 1510708776776, "trialdata": {"rt": -1, "stimulus": "<p id=\"stim\">10</p>", "key_press": -1, "trial_type": "single-stim", "trial_index": 10, "time_elapsed": 715321, "internal_node_id": "0.0-10.0-0.0"}}, {"uniqueid": "MTK0287:3CTOC39K38XP0LMIG5UJTF9O66SJ7N", "current_trial": 11, "dateTime": 1510708777778, "trialdata": {"rt": -1, "stimulus": "<p id=\"stim\">9</p>", "key_press": -1, "trial_type": "single-stim", "trial_index": 11, "time_elapsed": 716323, "internal_node_id": "0.0-10.0-1.0"}}, {"uniqueid": "MTK0287:3CTOC39K38XP0LMIG5UJTF9O66SJ7N", "current_trial": 12, "dateTime": 1510708778775, "trialdata": {"rt": -1, "stimulus": "<p id=\"stim\">8</p>", "key_press": -1, "trial_type": "single-stim", "trial_index": 12, "time_elapsed": 717320, "internal_node_id": "0.0-10.0-2.0"}}, {"uniqueid": "MTK0287:3CTOC39K38XP0LMIG5UJTF9O66SJ7N", "current_trial": 13, "dateTime": 1510708779776, "trialdata": {"rt": -1, "stimulus": "<p id=\"stim\">7</p>", "key_press": -1, "trial_type": "single-stim", "trial_index": 13, "time_elapsed": 718321, "internal_node_id": "0.0-10.0-3.0"}}, {"uniqueid": "MTK0287:3CTOC39K38XP0LMIG5UJTF9O66SJ7N", "current_trial": 14, "dateTime": 1510708780777, "trialdata": {"rt": -1, "stimulus": "<p id=\"stim\">6</p>", "key_press": -1, "trial_type": "single-stim", "trial_index": 14, "time_elapsed": 719322, "internal_node_id": "0.0-10.0-4.0"}}, {"uniqueid": "MTK0287:3CTOC39K38XP0LMIG5UJTF9O66SJ7N", "current_trial": 15, "dateTime": 1510708781767, "trialdata": {"rt": -1, "stimulus": "<p id=\"stim\">5</p>", "key_press": -1, "trial_type": "single-stim", "trial_index": 15, "time_elapsed": 720312, "internal_node_id": "0.0-10.0-5.0"}}, {"uniqueid": "MTK0287:3CTOC39K38XP0LMIG5UJTF9O66SJ7N", "current_trial": 16, "dateTime": 1510708782768, "trialdata": {"rt": -1, "stimulus": "<p id=\"stim\">4</p>", "key_press": -1, "trial_type": "single-stim", "trial_index": 16, "time_elapsed": 721313, "internal_node_id": "0.0-10.0-6.0"}}, {"uniqueid": "MTK0287:3CTOC39K38XP0LMIG5UJTF9O66SJ7N", "current_trial": 17, "dateTime": 1510708783777, "trialdata": {"rt": -1, "stimulus": "<p id=\"stim\">3</p>", "key_press": -1, "trial_type": "single-stim", "trial_index": 17, "time_elapsed": 722322, "internal_node_id": "0.0-10.0-7.0"}}, {"uniqueid": "MTK0287:3CTOC39K38XP0LMIG5UJTF9O66SJ7N", "current_trial": 18, "dateTime": 1510708784764, "trialdata": {"rt": -1, "stimulus": "<p id=\"stim\">2</p>", "key_press": -1, "trial_type": "single-stim", "trial_index": 18, "time_elapsed": 723309, "internal_node_id": "0.0-10.0-8.0"}}, {"uniqueid": "MTK0287:3CTOC39K38XP0LMIG5UJTF9O66SJ7N", "current_trial": 19, "dateTime": 1510708785777, "trialdata": {"rt": -1, "stimulus": "<p id=\"stim\">1</p>", "key_press": -1, "trial_type": "single-stim", "trial_index": 19, "time_elapsed": 724322, "internal_node_id": "0.0-10.0-9.0"}}, {"uniqueid": "MTK0287:3CTOC39K38XP0LMIG5UJTF9O66SJ7N", "current_trial": 20, "dateTime": 1510708787292, "trialdata": {"rt": -1, "stimulus": "<p id=\"stim\">+</p>", "key_press": -1, "type": "FIXATION", "trial_type": "single-stim", "trial_index": 20, "time_elapsed": 725837, "internal_node_id": "0.0-11.0-0.0"}}, {"uniqueid": "MTK0287:3CTOC39K38XP0LMIG5UJTF9O66SJ7N", "current_trial": 21, "dateTime": 1510708788497, "trialdata": {"rt": -1, "stimulus": "<p id=\"stim\">ZEBRA</p>", "key_press": -1, "type": "PRES_VIS", "word": "zebra", "wordID": 1634, "conditions": [18, 1200, "v", 18000], "trial": 0, "serialpos": 0, "trial_type": "single-stim", "trial_index": 21, "time_elapsed": 727041, "internal_node_id": "0.0-12.0"}}, {"uniqueid": "MTK0287:3CTOC39K38XP0LMIG5UJTF9O66SJ7N", "current_trial": 22, "dateTime": 1510708790546, "trialdata": {"rt": -1, "stimulus": "<p id=\"stim\">HARP</p>", "key_press": -1, "type": "PRES_VIS", "word": "harp", "wordID": 688, "conditions": [18, 1200, "v", 18000], "trial": 0, "serialpos": 1, "trial_type": "single-stim", "trial_index": 22, "time_elapsed": 729091, "internal_node_id": "0.0-13.0"}}, {"uniqueid": "MTK0287:3CTOC39K38XP0LMIG5UJTF9O66SJ7N", "current_trial": 23, "dateTime": 1510708792795, "trialdata": {"rt": -1, "stimulus": "<p id=\"stim\">NOVEL</p>", "key_press": -1, "type": "PRES_VIS", "word": "novel", "wordID": 959, "conditions": [18, 1200, "v", 18000], "trial": 0, "serialpos": 2, "trial_type": "single-stim", "trial_index": 23, "time_elapsed": 731340, "internal_node_id": "0.0-14.0"}}, {"uniqueid": "MTK0287:3CTOC39K38XP0LMIG5UJTF9O66SJ7N", "current_trial": 24, "dateTime": 1510708794946, "trialdata": {"rt": -1, "stimulus": "<p id=\"stim\">CASHEW</p>", "key_press": -1, "type": "PRES_VIS", "word": "cashew", "wordID": 252, "conditions": [18, 1200, "v", 18000], "trial": 0, "serialpos": 3, "trial_type": "single-stim", "trial_index": 24, "time_elapsed": 733491, "internal_node_id": "0.0-15.0"}}, {"uniqueid": "MTK0287:3CTOC39K38XP0LMIG5UJTF9O66SJ7N", "current_trial": 25, "dateTime": 1510708797271, "trialdata": {"rt": -1, "stimulus": "<p id=\"stim\">ROBOT</p>", "key_press": -1, "type": "PRES_VIS", "word": "robot", "wordID": 1199, "conditions": [18, 1200, "v", 18000], "trial": 0, "serialpos": 4, "trial_type": "single-stim", "trial_index": 25, "time_elapsed": 735816, "internal_node_id": "0.0-16.0"}}, {"uniqueid": "MTK0287:3CTOC39K38XP0LMIG5UJTF9O66SJ7N", "current_trial": 26, "dateTime": 1510708799373, "trialdata": {"rt": -1, "stimulus": "<p id=\"stim\">NURSE</p>", "key_press": -1, "type": "PRES_VIS", "word": "nurse", "wordID": 962, "conditions": [18, 1200, "v", 18000], "trial": 0, "serialpos": 5, "trial_type": "single-stim", "trial_index": 26, "time_elapsed": 737918, "internal_node_id": "0.0-17.0"}}, {"uniqueid": "MTK0287:3CTOC39K38XP0LMIG5UJTF9O66SJ7N", "current_trial": 27, "dateTime": 1510708801762, "trialdata": {"rt": -1, "stimulus": "<p id=\"stim\">EYELASH</p>", "key_press": -1, "type": "PRES_VIS", "word": "eyelash", "wordID": 545, "conditions": [18, 1200, "v", 18000], "trial": 0, "serialpos": 6, "trial_type": "single-stim", "trial_index": 27, "time_elapsed": 740307, "internal_node_id": "0.0-18.0"}}, {"uniqueid": "MTK0287:3CTOC39K38XP0LMIG5UJTF9O66SJ7N", "current_trial": 28, "dateTime": 1510708804028, "trialdata": {"rt": -1, "stimulus": "<p id=\"stim\">CANAL</p>", "key_press": -1, "type": "PRES_VIS", "word": "canal", "wordID": 225, "conditions": [18, 1200, "v", 18000], "trial": 0, "serialpos": 7, "trial_type": "single-stim", "trial_index": 28, "time_elapsed": 742572, "internal_node_id": "0.0-19.0"}}, {"uniqueid": "MTK0287:3CTOC39K38XP0LMIG5UJTF9O66SJ7N", "current_trial": 29, "dateTime": 1510708806162, "trialdata": {"rt": -1, "stimulus": "<p id=\"stim\">WORKER</p>", "key_press": -1, "type": "PRES_VIS", "word": "worker", "wordID": 1620, "conditions": [18, 1200, "v", 18000], "trial": 0, "serialpos": 8, "trial_type": "single-stim", "trial_index": 29, "time_elapsed": 744707, "internal_node_id": "0.0-20.0"}}, {"uniqueid": "MTK0287:3CTOC39K38XP0LMIG5UJTF9O66SJ7N", "current_trial": 30, "dateTime": 1510708808530, "trialdata": {"rt": -1, "stimulus": "<p id=\"stim\">HIGHWAY</p>", "key_press": -1, "type": "PRES_VIS", "word": "highway", "wordID": 706, "conditions": [18, 1200, "v", 18000], "trial": 0, "serialpos": 9, "trial_type": "single-stim", "trial_index": 30, "time_elapsed": 747075, "internal_node_id": "0.0-21.0"}}, {"uniqueid": "MTK0287:3CTOC39K38XP0LMIG5UJTF9O66SJ7N", "current_trial": 31, "dateTime": 1510708810677, "trialdata": {"rt": -1, "stimulus": "<p id=\"stim\">SNAIL</p>", "key_press": -1, "type": "PRES_VIS", "word": "snail", "wordID": 1331, "conditions": [18, 1200, "v", 18000], "trial": 0, "serialpos": 10, "trial_type": "single-stim", "trial_index": 31, "time_elapsed": 749222, "internal_node_id": "0.0-22.0"}}, {"uniqueid": "MTK0287:3CTOC39K38XP0LMIG5UJTF9O66SJ7N", "current_trial": 32, "dateTime": 1510708813061, "trialdata": {"rt": -1, "stimulus": "<p id=\"stim\">COD</p>", "key_press": -1, "type": "PRES_VIS", "word": "cod", "wordID": 339, "conditions": [18, 1200, "v", 18000], "trial": 0, "serialpos": 11, "trial_type": "single-stim", "trial_index": 32, "time_elapsed": 751606, "internal_node_id": "0.0-23.0"}}, {"uniqueid": "MTK0287:3CTOC39K38XP0LMIG5UJTF9O66SJ7N", "current_trial": 33, "dateTime": 1510708815358, "trialdata": {"rt": -1, "stimulus": "<p id=\"stim\">BADGE</p>", "key_press": -1, "type": "PRES_VIS", "word": "badge", "wordID": 67, "conditions": [18, 1200, "v", 18000], "trial": 0, "serialpos": 12, "trial_type": "single-stim", "trial_index": 33, "time_elapsed": 753903, "internal_node_id": "0.0-24.0"}}, {"uniqueid": "MTK0287:3CTOC39K38XP0LMIG5UJTF9O66SJ7N", "current_trial": 34, "dateTime": 1510708817680, "trialdata": {"rt": -1, "stimulus": "<p id=\"stim\">ZIPPER</p>", "key_press": -1, "type": "PRES_VIS", "word": "zipper", "wordID": 1635, "conditions": [18, 1200, "v", 18000], "trial": 0, "serialpos": 13, "trial_type": "single-stim", "trial_index": 34, "time_elapsed": 756224, "internal_node_id": "0.0-25.0"}}, {"uniqueid": "MTK0287:3CTOC39K38XP0LMIG5UJTF9O66SJ7N", "current_trial": 35, "dateTime": 1510708819998, "trialdata": {"rt": -1, "stimulus": "<p id=\"stim\">CASKET</p>", "key_press": -1, "type": "PRES_VIS", "word": "casket", "wordID": 254, "conditions": [18, 1200, "v", 18000], "trial": 0, "serialpos": 14, "trial_type": "single-stim", "trial_index": 35, "time_elapsed": 758543, "internal_node_id": "0.0-26.0"}}, {"uniqueid": "MTK0287:3CTOC39K38XP0LMIG5UJTF9O66SJ7N", "current_trial": 36, "dateTime": 1510708822393, "trialdata": {"rt": -1, "stimulus": "<p id=\"stim\">DORM</p>", "key_press": -1, "type": "PRES_VIS", "word": "dorm", "wordID": 487, "conditions": [18, 1200, "v", 18000], "trial": 0, "serialpos": 15, "trial_type": "single-stim", "trial_index": 36, "time_elapsed": 760938, "internal_node_id": "0.0-27.0"}}, {"uniqueid": "MTK0287:3CTOC39K38XP0LMIG5UJTF9O66SJ7N", "current_trial": 37, "dateTime": 1510708824694, "trialdata": {"rt": -1, "stimulus": "<p id=\"stim\">TUNNEL</p>", "key_press": -1, "type": "PRES_VIS", "word": "tunnel", "wordID": 1518, "conditions": [18, 1200, "v", 18000], "trial": 0, "serialpos": 16, "trial_type": "single-stim", "trial_index": 37, "time_elapsed": 763239, "internal_node_id": "0.0-28.0"}}, {"uniqueid": "MTK0287:3CTOC39K38XP0LMIG5UJTF9O66SJ7N", "current_trial": 38, "dateTime": 1510708826863, "trialdata": {"rt": -1, "stimulus": "<p id=\"stim\">TUTU</p>", "key_press": -1, "type": "PRES_VIS", "word": "tutu", "wordID": 1523, "conditions": [18, 1200, "v", 18000], "trial": 0, "serialpos": 17, "trial_type": "single-stim", "trial_index": 38, "time_elapsed": 765408, "internal_node_id": "0.0-29.0"}}, {"uniqueid": "MTK0287:3CTOC39K38XP0LMIG5UJTF9O66SJ7N", "current_trial": 39, "dateTime": 1510708829453, "trialdata": {"rt": -1, "stimulus": "", "key_press": -1, "type": "PRE_RECALL_DELAY", "trial_type": "single-stim", "trial_index": 39, "time_elapsed": 767998, "internal_node_id": "0.0-30.0-0.0"}}, {"uniqueid": "MTK0287:3CTOC39K38XP0LMIG5UJTF9O66SJ7N", "current_trial": 40, "dateTime": 1510708829984, "trialdata": {"rt": -1000, "stimulus": "/static/audio/400Hz.wav", "key_press": -1, "type": "PRE_RECALL_ALERT", "trial_type": "single-audio", "trial_index": 40, "time_elapsed": 768529, "internal_node_id": "0.0-31.0"}}, {"uniqueid": "MTK0287:3CTOC39K38XP0LMIG5UJTF9O66SJ7N", "current_trial": 41, "dateTime": 1510708890006, "trialdata": {"rt": [3896, 4920, 6776, 9512, 10856, 26697, 37352, 50631], "recwords": ["zebra", "cod", "casket", "harp", "canal", "zipper", "hearth", "eyelash"], "type": "FREE_RECALL", "conditions": [18, 1200, "v", 18000], "trial": 0, "trial_type": "free-recall", "trial_index": 41, "time_elapsed": 828547, "internal_node_id": "0.0-32.0-0.0"}}, {"uniqueid": "MTK0287:3CTOC39K38XP0LMIG5UJTF9O66SJ7N", "current_trial": 42, "dateTime": 1510708893626, "trialdata": {"rt": 1618, "key_press": 13, "type": "INSTRUCTIONS", "trial_type": "text", "trial_index": 42, "time_elapsed": 832171, "internal_node_id": "0.0-33.0"}}, {"uniqueid": "MTK0287:3CTOC39K38XP0LMIG5UJTF9O66SJ7N", "current_trial": 43, "dateTime": 1510708913657, "trialdata": {"rt": [2079, 6127, 9487, 12447, 15071, 16943], "responses": ["19", "25", "18", "12", "15", "15"], "num1": [9, 9, 2, 6, 4, 4, 6], "num2": [6, 9, 7, 1, 3, 6, 5], "num3": [4, 7, 9, 5, 8, 5, 1], "type": "DISTRACTOR", "conditions": [18, 1200, "a", 18000], "trial": 1, "trial_type": "math-distractor", "trial_index": 43, "time_elapsed": 852202, "internal_node_id": "0.0-34.0"}}, {"uniqueid": "MTK0287:3CTOC39K38XP0LMIG5UJTF9O66SJ7N", "current_trial": 44, "dateTime": 1510708916667, "trialdata": {"rt": -1, "stimulus": "<p id=\"stim\">10</p>", "key_press": -1, "trial_type": "single-stim", "trial_index": 44, "time_elapsed": 855212, "internal_node_id": "0.0-35.0-0.0"}}, {"uniqueid": "MTK0287:3CTOC39K38XP0LMIG5UJTF9O66SJ7N", "current_trial": 45, "dateTime": 1510708917668, "trialdata": {"rt": -1, "stimulus": "<p id=\"stim\">9</p>", "key_press": -1, "trial_type": "single-stim", "trial_index": 45, "time_elapsed": 856213, "internal_node_id": "0.0-35.0-1.0"}}, {"uniqueid": "MTK0287:3CTOC39K38XP0LMIG5UJTF9O66SJ7N", "current_trial": 46, "dateTime": 1510708918659, "trialdata": {"rt": -1, "stimulus": "<p id=\"stim\">8</p>", "key_press": -1, "trial_type": "single-stim", "trial_index": 46, "time_elapsed": 857204, "internal_node_id": "0.0-35.0-2.0"}}, {"uniqueid": "MTK0287:3CTOC39K38XP0LMIG5UJTF9O66SJ7N", "current_trial": 47, "dateTime": 1510708919659, "trialdata": {"rt": -1, "stimulus": "<p id=\"stim\">7</p>", "key_press": -1, "trial_type": "single-stim", "trial_index": 47, "time_elapsed": 858203, "internal_node_id": "0.0-35.0-3.0"}}, {"uniqueid": "MTK0287:3CTOC39K38XP0LMIG5UJTF9O66SJ7N", "current_trial": 48, "dateTime": 1510708920659, "trialdata": {"rt": -1, "stimulus": "<p id=\"stim\">6</p>", "key_press": -1, "trial_type": "single-stim", "trial_index": 48, "time_elapsed": 859204, "internal_node_id": "0.0-35.0-4.0"}}, {"uniqueid": "MTK0287:3CTOC39K38XP0LMIG5UJTF9O66SJ7N", "current_trial": 49, "dateTime": 1510708921657, "trialdata": {"rt": -1, "stimulus": "<p id=\"stim\">5</p>", "key_press": -1, "trial_type": "single-stim", "trial_index": 49, "time_elapsed": 860202, "internal_node_id": "0.0-35.0-5.0"}}, {"uniqueid": "MTK0287:3CTOC39K38XP0LMIG5UJTF9O66SJ7N", "current_trial": 50, "dateTime": 1510708922671, "trialdata": {"rt": -1, "stimulus": "<p id=\"stim\">4</p>", "key_press": -1, "trial_type": "single-stim", "trial_index": 50, "time_elapsed": 861216, "internal_node_id": "0.0-35.0-6.0"}}, {"uniqueid": "MTK0287:3CTOC39K38XP0LMIG5UJTF9O66SJ7N", "current_trial": 51, "dateTime": 1510708923659, "trialdata": {"rt": -1, "stimulus": "<p id=\"stim\">3</p>", "key_press": -1, "trial_type": "single-stim", "trial_index": 51, "time_elapsed": 862204, "internal_node_id": "0.0-35.0-7.0"}}, {"uniqueid": "MTK0287:3CTOC39K38XP0LMIG5UJTF9O66SJ7N", "current_trial": 52, "dateTime": 1510708924667, "trialdata": {"rt": -1, "stimulus": "<p id=\"stim\">2</p>", "key_press": -1, "trial_type": "single-stim", "trial_index": 52, "time_elapsed": 863211, "internal_node_id": "0.0-35.0-8.0"}}, {"uniqueid": "MTK0287:3CTOC39K38XP0LMIG5UJTF9O66SJ7N", "current_trial": 53, "dateTime": 1510708925665, "trialdata": {"rt": -1, "stimulus": "<p id=\"stim\">1</p>", "key_press": -1, "trial_type": "single-stim", "trial_index": 53, "time_elapsed": 864210, "internal_node_id": "0.0-35.0-9.0"}}, {"uniqueid": "MTK0287:3CTOC39K38XP0LMIG5UJTF9O66SJ7N", "current_trial": 54, "dateTime": 1510708927169, "trialdata": {"rt": -1, "stimulus": "<p id=\"stim\">+</p>", "key_press": -1, "type": "FIXATION", "trial_type": "single-stim", "trial_index": 54, "time_elapsed": 865714, "internal_node_id": "0.0-36.0-0.0"}}, {"uniqueid": "MTK0287:3CTOC39K38XP0LMIG5UJTF9O66SJ7N", "current_trial": 55, "dateTime": 1510708929316, "trialdata": {"rt": -1000, "stimulus": "/static/audio/wordpool/AWARD.wav", "key_press": -1, "type": "PRES_AUD", "word": "award", "wordID": 62, "conditions": [18, 1200, "a", 18000], "trial": 1, "serialpos": 0, "trial_type": "single-audio", "trial_index": 55, "time_elapsed": 867861, "internal_node_id": "0.0-37.0"}}, {"uniqueid": "MTK0287:3CTOC39K38XP0LMIG5UJTF9O66SJ7N", "current_trial": 56, "dateTime": 1510708931723, "trialdata": {"rt": -1000, "stimulus": "/static/audio/wordpool/HEART.wav", "key_press": -1, "type": "PRES_AUD", "word": "heart", "wordID": 696, "conditions": [18, 1200, "a", 18000], "trial": 1, "serialpos": 1, "trial_type": "single-audio", "trial_index": 56, "time_elapsed": 870268, "internal_node_id": "0.0-38.0"}}, {"uniqueid": "MTK0287:3CTOC39K38XP0LMIG5UJTF9O66SJ7N", "current_trial": 57, "dateTime": 1510708933958, "trialdata": {"rt": -1000, "stimulus": "/static/audio/wordpool/BISON.wav", "key_press": -1, "type": "PRES_AUD", "word": "bison", "wordID": 130, "conditions": [18, 1200, "a", 18000], "trial": 1, "serialpos": 2, "trial_type": "single-audio", "trial_index": 57, "time_elapsed": 872503, "internal_node_id": "0.0-39.0"}}, {"uniqueid": "MTK0287:3CTOC39K38XP0LMIG5UJTF9O66SJ7N", "current_trial": 58, "dateTime": 1510708936290, "trialdata": {"rt": -1000, "stimulus": "/static/audio/wordpool/STAR.wav", "key_press": -1, "type": "PRES_AUD", "word": "star", "wordID": 1372, "conditions": [18, 1200, "a", 18000], "trial": 1, "serialpos": 3, "trial_type": "single-audio", "trial_index": 58, "time_elapsed": 874835, "internal_node_id": "0.0-40.0"}}, {"uniqueid": "MTK0287:3CTOC39K38XP0LMIG5UJTF9O66SJ7N", "current_trial": 59, "dateTime": 1510708938517, "trialdata": {"rt": -1000, "stimulus": "/static/audio/wordpool/NAPKIN.wav", "key_press": -1, "type": "PRES_AUD", "word": "napkin", "wordID": 936, "conditions": [18, 1200, "a", 18000], "trial": 1, "serialpos": 4, "trial_type": "single-audio", "trial_index": 59, "time_elapsed": 877062, "internal_node_id": "0.0-41.0"}}, {"uniqueid": "MTK0287:3CTOC39K38XP0LMIG5UJTF9O66SJ7N", "current_trial": 60, "dateTime": 1510708940646, "trialdata": {"rt": -1000, "stimulus": "/static/audio/wordpool/DOLPHIN.wav", "key_press": -1, "type": "PRES_AUD", "word": "dolphin", "wordID": 482, "conditions": [18, 1200, "a", 18000], "trial": 1, "serialpos": 5, "trial_type": "single-audio", "trial_index": 60, "time_elapsed": 879191, "internal_node_id": "0.0-42.0"}}, {"uniqueid": "MTK0287:3CTOC39K38XP0LMIG5UJTF9O66SJ7N", "current_trial": 61, "dateTime": 1510708942690, "trialdata": {"rt": -1000, "stimulus": "/static/audio/wordpool/BURGLAR.wav", "key_press": -1, "type": "PRES_AUD", "word": "burglar", "wordID": 199, "conditions": [18, 1200, "a", 18000], "trial": 1, "serialpos": 6, "trial_type": "single-audio", "trial_index": 61, "time_elapsed": 881235, "internal_node_id": "0.0-43.0"}}, {"uniqueid": "MTK0287:3CTOC39K38XP0LMIG5UJTF9O66SJ7N", "current_trial": 62, "dateTime": 1510708944961, "trialdata": {"rt": -1000, "stimulus": "/static/audio/wordpool/BACKBONE.wav", "key_press": -1, "type": "PRES_AUD", "word": "backbone", "wordID": 65, "conditions": [18, 1200, "a", 18000], "trial": 1, "serialpos": 7, "trial_type": "single-audio", "trial_index": 62, "time_elapsed": 883506, "internal_node_id": "0.0-44.0"}}, {"uniqueid": "MTK0287:3CTOC39K38XP0LMIG5UJTF9O66SJ7N", "current_trial": 63, "dateTime": 1510708946977, "trialdata": {"rt": -1000, "stimulus": "/static/audio/wordpool/FLEET.wav", "key_press": -1, "type": "PRES_AUD", "word": "fleet", "wordID": 577, "conditions": [18, 1200, "a", 18000], "trial": 1, "serialpos": 8, "trial_type": "single-audio", "trial_index": 63, "time_elapsed": 885522, "internal_node_id": "0.0-45.0"}}, {"uniqueid": "MTK0287:3CTOC39K38XP0LMIG5UJTF9O66SJ7N", "current_trial": 64, "dateTime": 1510708949275, "trialdata": {"rt": -1000, "stimulus": "/static/audio/wordpool/STONE.wav", "key_press": -1, "type": "PRES_AUD", "word": "stone", "wordID": 1384, "conditions": [18, 1200, "a", 18000], "trial": 1, "serialpos": 9, "trial_type": "single-audio", "trial_index": 64, "time_elapsed": 887819, "internal_node_id": "0.0-46.0"}}, {"uniqueid": "MTK0287:3CTOC39K38XP0LMIG5UJTF9O66SJ7N", "current_trial": 65, "dateTime": 1510708951385, "trialdata": {"rt": -1000, "stimulus": "/static/audio/wordpool/GARBAGE.wav", "key_press": -1, "type": "PRES_AUD", "word": "garbage", "wordID": 621, "conditions": [18, 1200, "a", 18000], "trial": 1, "serialpos": 10, "trial_type": "single-audio", "trial_index": 65, "time_elapsed": 889930, "internal_node_id": "0.0-47.0"}}, {"uniqueid": "MTK0287:3CTOC39K38XP0LMIG5UJTF9O66SJ7N", "current_trial": 66, "dateTime": 1510708953495, "trialdata": {"rt": -1000, "stimulus": "/static/audio/wordpool/TART.wav", "key_press": -1, "type": "PRES_AUD", "word": "tart", "wordID": 1435, "conditions": [18, 1200, "a", 18000], "trial": 1, "serialpos": 11, "trial_type": "single-audio", "trial_index": 66, "time_elapsed": 892039, "internal_node_id": "0.0-48.0"}}, {"uniqueid": "MTK0287:3CTOC39K38XP0LMIG5UJTF9O66SJ7N", "current_trial": 67, "dateTime": 1510708955574, "trialdata": {"rt": -1000, "stimulus": "/static/audio/wordpool/VAGRANT.wav", "key_press": -1, "type": "PRES_AUD", "word": "vagrant", "wordID": 1543, "conditions": [18, 1200, "a", 18000], "trial": 1, "serialpos": 12, "trial_type": "single-audio", "trial_index": 67, "time_elapsed": 894119, "internal_node_id": "0.0-49.0"}}, {"uniqueid": "MTK0287:3CTOC39K38XP0LMIG5UJTF9O66SJ7N", "current_trial": 68, "dateTime": 1510708957773, "trialdata": {"rt": -1000, "stimulus": "/static/audio/wordpool/FOREST.wav", "key_press": -1, "type": "PRES_AUD", "word": "forest", "wordID": 592, "conditions": [18, 1200, "a", 18000], "trial": 1, "serialpos": 13, "trial_type": "single-audio", "trial_index": 68, "time_elapsed": 896318, "internal_node_id": "0.0-50.0"}}, {"uniqueid": "MTK0287:3CTOC39K38XP0LMIG5UJTF9O66SJ7N", "current_trial": 69, "dateTime": 1510708959990, "trialdata": {"rt": -1000, "stimulus": "/static/audio/wordpool/PALACE.wav", "key_press": -1, "type": "PRES_AUD", "word": "palace", "wordID": 1005, "conditions": [18, 1200, "a", 18000], "trial": 1, "serialpos": 14, "trial_type": "single-audio", "trial_index": 69, "time_elapsed": 898534, "internal_node_id": "0.0-51.0"}}, {"uniqueid": "MTK0287:3CTOC39K38XP0LMIG5UJTF9O66SJ7N", "current_trial": 70, "dateTime": 1510708962040, "trialdata": {"rt": -1000, "stimulus": "/static/audio/wordpool/STALLION.wav", "key_press": -1, "type": "PRES_AUD", "word": "stallion", "wordID": 1368, "conditions": [18, 1200, "a", 18000], "trial": 1, "serialpos": 15, "trial_type": "single-audio", "trial_index": 70, "time_elapsed": 900584, "internal_node_id": "0.0-52.0"}}, {"uniqueid": "MTK0287:3CTOC39K38XP0LMIG5UJTF9O66SJ7N", "current_trial": 71, "dateTime": 1510708964247, "trialdata": {"rt": -1000, "stimulus": "/static/audio/wordpool/PISTON.wav", "key_press": -1, "type": "PRES_AUD", "word": "piston", "wordID": 1075, "conditions": [18, 1200, "a", 18000], "trial": 1, "serialpos": 16, "trial_type": "single-audio", "trial_index": 71, "time_elapsed": 902792, "internal_node_id": "0.0-53.0"}}, {"uniqueid": "MTK0287:3CTOC39K38XP0LMIG5UJTF9O66SJ7N", "current_trial": 72, "dateTime": 1510708966606, "trialdata": {"rt": -1000, "stimulus": "/static/audio/wordpool/CHAUFFEUR.wav", "key_press": -1, "type": "PRES_AUD", "word": "chauffeur", "wordID": 282, "conditions": [18, 1200, "a", 18000], "trial": 1, "serialpos": 17, "trial_type": "single-audio", "trial_index": 72, "time_elapsed": 905151, "internal_node_id": "0.0-54.0"}}, {"uniqueid": "MTK0287:3CTOC39K38XP0LMIG5UJTF9O66SJ7N", "current_trial": 73, "dateTime": 1510708967956, "trialdata": {"rt": -1, "stimulus": "", "key_press": -1, "type": "PRE_RECALL_DELAY", "trial_type": "single-stim", "trial_index": 73, "time_elapsed": 906501, "internal_node_id": "0.0-55.0-0.0"}}, {"uniqueid": "MTK0287:3CTOC39K38XP0LMIG5UJTF9O66SJ7N", "current_trial": 74, "dateTime": 1510708968456, "trialdata": {"rt": -1000, "stimulus": "/static/audio/400Hz.wav", "key_press": -1, "type": "PRE_RECALL_ALERT", "trial_type": "single-audio", "trial_index": 74, "time_elapsed": 907001, "internal_node_id": "0.0-56.0"}}, {"uniqueid": "MTK0287:3CTOC39K38XP0LMIG5UJTF9O66SJ7N", "current_trial": 75, "dateTime": 1510709028469, "trialdata": {"rt": [4878, 6206, 7566, 9310, 50878], "recwords": ["chauffeur", "palace", "piston", "heart", "sharp"], "type": "FREE_RECALL", "conditions": [18, 1200, "a", 18000], "trial": 1, "trial_type": "free-recall", "trial_index": 75, "time_elapsed": 967012, "internal_node_id": "0.0-57.0-0.0"}}, {"uniqueid": "MTK0287:3CTOC39K38XP0LMIG5UJTF9O66SJ7N", "current_trial": 76, "dateTime": 1510709032268, "trialdata": {"rt": 1791, "key_press": 13, "type": "INSTRUCTIONS", "trial_type": "text", "trial_index": 76, "time_elapsed": 970809, "internal_node_id": "0.0-58.0"}}, {"uniqueid": "MTK0287:3CTOC39K38XP0LMIG5UJTF9O66SJ7N", "current_trial": 77, "dateTime": 1510709045290, "trialdata": {"rt": [4686, 7005, 8349, 11422], "responses": ["22", "15", "6", "14"], "num1": [9, 5, 4, 7, 1], "num2": [7, 2, 1, 1, 3], "num3": [6, 8, 1, 6, 9], "type": "DISTRACTOR", "conditions": [12, 800, "v", 12000], "trial": 2, "trial_type": "math-distractor", "trial_index": 77, "time_elapsed": 983834, "internal_node_id": "0.0-59.0"}}, {"uniqueid": "MTK0287:3CTOC39K38XP0LMIG5UJTF9O66SJ7N", "current_trial": 78, "dateTime": 1510709048297, "trialdata": {"rt": -1, "stimulus": "<p id=\"stim\">10</p>", "key_press": -1, "trial_type": "single-stim", "trial_index": 78, "time_elapsed": 986841, "internal_node_id": "0.0-60.0-0.0"}}, {"uniqueid": "MTK0287:3CTOC39K38XP0LMIG5UJTF9O66SJ7N", "current_trial": 79, "dateTime": 1510709049297, "trialdata": {"rt": -1, "stimulus": "<p id=\"stim\">9</p>", "key_press": -1, "trial_type": "single-stim", "trial_index": 79, "time_elapsed": 987841, "internal_node_id": "0.0-60.0-1.0"}}, {"uniqueid": "MTK0287:3CTOC39K38XP0LMIG5UJTF9O66SJ7N", "current_trial": 80, "dateTime": 1510709050300, "trialdata": {"rt": -1, "stimulus": "<p id=\"stim\">8</p>", "key_press": -1, "trial_type": "single-stim", "trial_index": 80, "time_elapsed": 988845, "internal_node_id": "0.0-60.0-2.0"}}, {"uniqueid": "MTK0287:3CTOC39K38XP0LMIG5UJTF9O66SJ7N", "current_trial": 81, "dateTime": 1510709051308, "trialdata": {"rt": -1, "stimulus": "<p id=\"stim\">7</p>", "key_press": -1, "trial_type": "single-stim", "trial_index": 81, "time_elapsed": 989853, "internal_node_id": "0.0-60.0-3.0"}}, {"uniqueid": "MTK0287:3CTOC39K38XP0LMIG5UJTF9O66SJ7N", "current_trial": 82, "dateTime": 1510709052307, "trialdata": {"rt": -1, "stimulus": "<p id=\"stim\">6</p>", "key_press": -1, "trial_type": "single-stim", "trial_index": 82, "time_elapsed": 990852, "internal_node_id": "0.0-60.0-4.0"}}, {"uniqueid": "MTK0287:3CTOC39K38XP0LMIG5UJTF9O66SJ7N", "current_trial": 83, "dateTime": 1510709053308, "trialdata": {"rt": -1, "stimulus": "<p id=\"stim\">5</p>", "key_press": -1, "trial_type": "single-stim", "trial_index": 83, "time_elapsed": 991852, "internal_node_id": "0.0-60.0-5.0"}}, {"uniqueid": "MTK0287:3CTOC39K38XP0LMIG5UJTF9O66SJ7N", "current_trial": 84, "dateTime": 1510709054306, "trialdata": {"rt": -1, "stimulus": "<p id=\"stim\">4</p>", "key_press": -1, "trial_type": "single-stim", "trial_index": 84, "time_elapsed": 992850, "internal_node_id": "0.0-60.0-6.0"}}, {"uniqueid": "MTK0287:3CTOC39K38XP0LMIG5UJTF9O66SJ7N", "current_trial": 85, "dateTime": 1510709055304, "trialdata": {"rt": -1, "stimulus": "<p id=\"stim\">3</p>", "key_press": -1, "trial_type": "single-stim", "trial_index": 85, "time_elapsed": 993849, "internal_node_id": "0.0-60.0-7.0"}}, {"uniqueid": "MTK0287:3CTOC39K38XP0LMIG5UJTF9O66SJ7N", "current_trial": 86, "dateTime": 1510709056307, "trialdata": {"rt": -1, "stimulus": "<p id=\"stim\">2</p>", "key_press": -1, "trial_type": "single-stim", "trial_index": 86, "time_elapsed": 994852, "internal_node_id": "0.0-60.0-8.0"}}, {"uniqueid": "MTK0287:3CTOC39K38XP0LMIG5UJTF9O66SJ7N", "current_trial": 87, "dateTime": 1510709057298, "trialdata": {"rt": -1, "stimulus": "<p id=\"stim\">1</p>", "key_press": -1, "trial_type": "single-stim", "trial_index": 87, "time_elapsed": 995843, "internal_node_id": "0.0-60.0-9.0"}}, {"uniqueid": "MTK0287:3CTOC39K38XP0LMIG5UJTF9O66SJ7N", "current_trial": 88, "dateTime": 1510709058815, "trialdata": {"rt": -1, "stimulus": "<p id=\"stim\">+</p>", "key_press": -1, "type": "FIXATION", "trial_type": "single-stim", "trial_index": 88, "time_elapsed": 997360, "internal_node_id": "0.0-61.0-0.0"}}, {"uniqueid": "MTK0287:3CTOC39K38XP0LMIG5UJTF9O66SJ7N", "current_trial": 89, "dateTime": 1510709059639, "trialdata": {"rt": -1, "stimulus": "<p id=\"stim\">BEAST</p>", "key_press": -1, "type": "PRES_VIS", "word": "beast", "wordID": 107, "conditions": [12, 800, "v", 12000], "trial": 2, "serialpos": 0, "trial_type": "single-stim", "trial_index": 89, "time_elapsed": 998183, "internal_node_id": "0.0-62.0"}}, {"uniqueid": "MTK0287:3CTOC39K38XP0LMIG5UJTF9O66SJ7N", "current_trial": 90, "dateTime": 1510709061520, "trialdata": {"rt": -1, "stimulus": "<p id=\"stim\">LEG</p>", "key_press": -1, "type": "PRES_VIS", "word": "leg", "wordID": 808, "conditions": [12, 800, "v", 12000], "trial": 2, "serialpos": 1, "trial_type": "single-stim", "trial_index": 90, "time_elapsed": 1000065, "internal_node_id": "0.0-63.0"}}, {"uniqueid": "MTK0287:3CTOC39K38XP0LMIG5UJTF9O66SJ7N", "current_trial": 91, "dateTime": 1510709063395, "trialdata": {"rt": -1, "stimulus": "<p id=\"stim\">BASEMENT</p>", "key_press": -1, "type": "PRES_VIS", "word": "basement", "wordID": 93, "conditions": [12, 800, "v", 12000], "trial": 2, "serialpos": 2, "trial_type": "single-stim", "trial_index": 91, "time_elapsed": 1001940, "internal_node_id": "0.0-64.0"}}, {"uniqueid": "MTK0287:3CTOC39K38XP0LMIG5UJTF9O66SJ7N", "current_trial": 92, "dateTime": 1510709065389, "trialdata": {"rt": -1, "stimulus": "<p id=\"stim\">CELLAR</p>", "key_press": -1, "type": "PRES_VIS", "word": "cellar", "wordID": 266, "conditions": [12, 800, "v", 12000], "trial": 2, "serialpos": 3, "trial_type": "single-stim", "trial_index": 92, "time_elapsed": 1003933, "internal_node_id": "0.0-65.0"}}, {"uniqueid": "MTK0287:3CTOC39K38XP0LMIG5UJTF9O66SJ7N", "current_trial": 93, "dateTime": 1510709067300, "trialdata": {"rt": -1, "stimulus": "<p id=\"stim\">PARSLEY</p>", "key_press": -1, "type": "PRES_VIS", "word": "parsley", "wordID": 1015, "conditions": [12, 800, "v", 12000], "trial": 2, "serialpos": 4, "trial_type": "single-stim", "trial_index": 93, "time_elapsed": 1005845, "internal_node_id": "0.0-66.0"}}, {"uniqueid": "MTK0287:3CTOC39K38XP0LMIG5UJTF9O66SJ7N", "current_trial": 94, "dateTime": 1510709069276, "trialdata": {"rt": -1, "stimulus": "<p id=\"stim\">PICNIC</p>", "key_press": -1, "type": "PRES_VIS", "word": "picnic", "wordID": 1059, "conditions": [12, 800, "v", 12000], "trial": 2, "serialpos": 5, "trial_type": "single-stim", "trial_index": 94, "time_elapsed": 1007821, "internal_node_id": "0.0-67.0"}}, {"uniqueid": "MTK0287:3CTOC39K38XP0LMIG5UJTF9O66SJ7N", "current_trial": 95, "dateTime": 1510709071272, "trialdata": {"rt": -1, "stimulus": "<p id=\"stim\">ARM</p>", "key_press": -1, "type": "PRES_VIS", "word": "arm", "wordID": 37, "conditions": [12, 800, "v", 12000], "trial": 2, "serialpos": 6, "trial_type": "single-stim", "trial_index": 95, "time_elapsed": 1009817, "internal_node_id": "0.0-68.0"}}, {"uniqueid": "MTK0287:3CTOC39K38XP0LMIG5UJTF9O66SJ7N", "current_trial": 96, "dateTime": 1510709073053, "trialdata": {"rt": -1, "stimulus": "<p id=\"stim\">HAND</p>", "key_press": -1, "type": "PRES_VIS", "word": "hand", "wordID": 682, "conditions": [12, 800, "v", 12000], "trial": 2, "serialpos": 7, "trial_type": "single-stim", "trial_index": 96, "time_elapsed": 1011598, "internal_node_id": "0.0-69.0"}}, {"uniqueid": "MTK0287:3CTOC39K38XP0LMIG5UJTF9O66SJ7N", "current_trial": 97, "dateTime": 1510709074753, "trialdata": {"rt": -1, "stimulus": "<p id=\"stim\">FOX</p>", "key_press": -1, "type": "PRES_VIS", "word": "fox", "wordID": 597, "conditions": [12, 800, "v", 12000], "trial": 2, "serialpos": 8, "trial_type": "single-stim", "trial_index": 97, "time_elapsed": 1013298, "internal_node_id": "0.0-70.0"}}, {"uniqueid": "MTK0287:3CTOC39K38XP0LMIG5UJTF9O66SJ7N", "current_trial": 98, "dateTime": 1510709076629, "trialdata": {"rt": -1, "stimulus": "<p id=\"stim\">ICEBERG</p>", "key_press": -1, "type": "PRES_VIS", "word": "iceberg", "wordID": 730, "conditions": [12, 800, "v", 12000], "trial": 2, "serialpos": 9, "trial_type": "single-stim", "trial_index": 98, "time_elapsed": 1015174, "internal_node_id": "0.0-71.0"}}, {"uniqueid": "MTK0287:3CTOC39K38XP0LMIG5UJTF9O66SJ7N", "current_trial": 99, "dateTime": 1510709078293, "trialdata": {"rt": -1, "stimulus": "<p id=\"stim\">FREEZER</p>", "key_press": -1, "type": "PRES_VIS", "word": "freezer", "wordID": 603, "conditions": [12, 800, "v", 12000], "trial": 2, "serialpos": 10, "trial_type": "single-stim", "trial_index": 99, "time_elapsed": 1016837, "internal_node_id": "0.0-72.0"}}, {"uniqueid": "MTK0287:3CTOC39K38XP0LMIG5UJTF9O66SJ7N", "current_trial": 100, "dateTime": 1510709080053, "trialdata": {"rt": -1, "stimulus": "<p id=\"stim\">TRUCK</p>", "key_press": -1, "type": "PRES_VIS", "word": "truck", "wordID": 1511, "conditions": [12, 800, "v", 12000], "trial": 2, "serialpos": 11, "trial_type": "single-stim", "trial_index": 100, "time_elapsed": 1018598, "internal_node_id": "0.0-73.0"}}, {"uniqueid": "MTK0287:3CTOC39K38XP0LMIG5UJTF9O66SJ7N", "current_trial": 101, "dateTime": 1510709082290, "trialdata": {"rt": -1, "stimulus": "", "key_press": -1, "type": "PRE_RECALL_DELAY", "trial_type": "single-stim", "trial_index": 101, "time_elapsed": 1020835, "internal_node_id": "0.0-74.0-0.0"}}, {"uniqueid": "MTK0287:3CTOC39K38XP0LMIG5UJTF9O66SJ7N", "current_trial": 102, "dateTime": 1510709082805, "trialdata": {"rt": -1000, "stimulus": "/static/audio/400Hz.wav", "key_press": -1, "type": "PRE_RECALL_ALERT", "trial_type": "single-audio", "trial_index": 102, "time_elapsed": 1021350, "internal_node_id": "0.0-75.0"}}, {"uniqueid": "MTK0287:3CTOC39K38XP0LMIG5UJTF9O66SJ7N", "current_trial": 103, "dateTime": 1510709142824, "trialdata": {"rt": [1921, 3265, 4577, 6369, 8209, 10273, 12081, 24417], "recwords": ["beast", "leg", "basement", "celler", "freezer", "ar", "arm", "parsley"], "type": "FREE_RECALL", "conditions": [12, 800, "v", 12000], "trial": 2, "trial_type": "free-recall", "trial_index": 103, "time_elapsed": 1081367, "internal_node_id": "0.0-76.0-0.0"}}, {"uniqueid": "MTK0287:3CTOC39K38XP0LMIG5UJTF9O66SJ7N", "current_trial": 104, "dateTime": 1510709145880, "trialdata": {"rt": 1041, "key_press": 13, "type": "INSTRUCTIONS", "trial_type": "text", "trial_index": 104, "time_elapsed": 1084424, "internal_node_id": "0.0-77.0"}}, {"uniqueid": "MTK0287:3CTOC39K38XP0LMIG5UJTF9O66SJ7N", "current_trial": 105, "dateTime": 1510709171909, "trialdata": {"rt": [6432, 7856, 9280, 10640, 12592, 16000, 19232, 21104, 22752], "responses": ["24", "13", "17", "12", "19", "20", "20", "16", "11"], "num1": [7, 9, 8, 4, 2, 9, 7, 6, 1, 6], "num2": [8, 5, 2, 6, 8, 4, 8, 9, 8, 2], "num3": [9, 3, 7, 2, 9, 7, 5, 1, 2, 6], "type": "DISTRACTOR", "conditions": [24, 1600, "a", 24000], "trial": 3, "trial_type": "math-distractor", "trial_index": 105, "time_elapsed": 1110454, "internal_node_id": "0.0-78.0"}}, {"uniqueid": "MTK0287:3CTOC39K38XP0LMIG5UJTF9O66SJ7N", "current_trial": 106, "dateTime": 1510709174921, "trialdata": {"rt": -1, "stimulus": "<p id=\"stim\">10</p>", "key_press": -1, "trial_type": "single-stim", "trial_index": 106, "time_elapsed": 1113465, "internal_node_id": "0.0-79.0-0.0"}}, {"uniqueid": "MTK0287:3CTOC39K38XP0LMIG5UJTF9O66SJ7N", "current_trial": 107, "dateTime": 1510709175922, "trialdata": {"rt": -1, "stimulus": "<p id=\"stim\">9</p>", "key_press": -1, "trial_type": "single-stim", "trial_index": 107, "time_elapsed": 1114467, "internal_node_id": "0.0-79.0-1.0"}}, {"uniqueid": "MTK0287:3CTOC39K38XP0LMIG5UJTF9O66SJ7N", "current_trial": 108, "dateTime": 1510709176923, "trialdata": {"rt": -1, "stimulus": "<p id=\"stim\">8</p>", "key_press": -1, "trial_type": "single-stim", "trial_index": 108, "time_elapsed": 1115467, "internal_node_id": "0.0-79.0-2.0"}}, {"uniqueid": "MTK0287:3CTOC39K38XP0LMIG5UJTF9O66SJ7N", "current_trial": 109, "dateTime": 1510709177928, "trialdata": {"rt": -1, "stimulus": "<p id=\"stim\">7</p>", "key_press": -1, "trial_type": "single-stim", "trial_index": 109, "time_elapsed": 1116473, "internal_node_id": "0.0-79.0-3.0"}}, {"uniqueid": "MTK0287:3CTOC39K38XP0LMIG5UJTF9O66SJ7N", "current_trial": 110, "dateTime": 1510709178933, "trialdata": {"rt": -1, "stimulus": "<p id=\"stim\">6</p>", "key_press": -1, "trial_type": "single-stim", "trial_index": 110, "time_elapsed": 1117477, "internal_node_id": "0.0-79.0-4.0"}}, {"uniqueid": "MTK0287:3CTOC39K38XP0LMIG5UJTF9O66SJ7N", "current_trial": 111, "dateTime": 1510709179921, "trialdata": {"rt": -1, "stimulus": "<p id=\"stim\">5</p>", "key_press": -1, "trial_type": "single-stim", "trial_index": 111, "time_elapsed": 1118466, "internal_node_id": "0.0-79.0-5.0"}}, {"uniqueid": "MTK0287:3CTOC39K38XP0LMIG5UJTF9O66SJ7N", "current_trial": 112, "dateTime": 1510709180921, "trialdata": {"rt": -1, "stimulus": "<p id=\"stim\">4</p>", "key_press": -1, "trial_type": "single-stim", "trial_index": 112, "time_elapsed": 1119466, "internal_node_id": "0.0-79.0-6.0"}}, {"uniqueid": "MTK0287:3CTOC39K38XP0LMIG5UJTF9O66SJ7N", "current_trial": 113, "dateTime": 1510709181921, "trialdata": {"rt": -1, "stimulus": "<p id=\"stim\">3</p>", "key_press": -1, "trial_type": "single-stim", "trial_index": 113, "time_elapsed": 1120466, "internal_node_id": "0.0-79.0-7.0"}}, {"uniqueid": "MTK0287:3CTOC39K38XP0LMIG5UJTF9O66SJ7N", "current_trial": 114, "dateTime": 1510709182922, "trialdata": {"rt": -1, "stimulus": "<p id=\"stim\">2</p>", "key_press": -1, "trial_type": "single-stim", "trial_index": 114, "time_elapsed": 1121467, "internal_node_id": "0.0-79.0-8.0"}}, {"uniqueid": "MTK0287:3CTOC39K38XP0LMIG5UJTF9O66SJ7N", "current_trial": 115, "dateTime": 1510709183937, "trialdata": {"rt": -1, "stimulus": "<p id=\"stim\">1</p>", "key_press": -1, "trial_type": "single-stim", "trial_index": 115, "time_elapsed": 1122482, "internal_node_id": "0.0-79.0-9.0"}}, {"uniqueid": "MTK0287:3CTOC39K38XP0LMIG5UJTF9O66SJ7N", "current_trial": 116, "dateTime": 1510709185453, "trialdata": {"rt": -1, "stimulus": "<p id=\"stim\">+</p>", "key_press": -1, "type": "FIXATION", "trial_type": "single-stim", "trial_index": 116, "time_elapsed": 1123997, "internal_node_id": "0.0-80.0-0.0"}}, {"uniqueid": "MTK0287:3CTOC39K38XP0LMIG5UJTF9O66SJ7N", "current_trial": 117, "dateTime": 1510709188220, "trialdata": {"rt": -1000, "stimulus": "/static/audio/wordpool/SEAFOOD.wav", "key_press": -1, "type": "PRES_AUD", "word": "seafood", "wordID": 1259, "conditions": [24, 1600, "a", 24000], "trial": 3, "serialpos": 0, "trial_type": "single-audio", "trial_index": 117, "time_elapsed": 1126765, "internal_node_id": "0.0-81.0"}}, {"uniqueid": "MTK0287:3CTOC39K38XP0LMIG5UJTF9O66SJ7N", "current_trial": 118, "dateTime": 1510709190837, "trialdata": {"rt": -1000, "stimulus": "/static/audio/wordpool/STATUE.wav", "key_press": -1, "type": "PRES_AUD", "word": "statue", "wordID": 1373, "conditions": [24, 1600, "a", 24000], "trial": 3, "serialpos": 1, "trial_type": "single-audio", "trial_index": 118, "time_elapsed": 1129382, "internal_node_id": "0.0-82.0"}}, {"uniqueid": "MTK0287:3CTOC39K38XP0LMIG5UJTF9O66SJ7N", "current_trial": 119, "dateTime": 1510709193431, "trialdata": {"rt": -1000, "stimulus": "/static/audio/wordpool/SCULPTURE.wav", "key_press": -1, "type": "PRES_AUD", "word": "sculpture", "wordID": 1257, "conditions": [24, 1600, "a", 24000], "trial": 3, "serialpos": 2, "trial_type": "single-audio", "trial_index": 119, "time_elapsed": 1131976, "internal_node_id": "0.0-83.0"}}, {"uniqueid": "MTK0287:3CTOC39K38XP0LMIG5UJTF9O66SJ7N", "current_trial": 120, "dateTime": 1510709195875, "trialdata": {"rt": -1000, "stimulus": "/static/audio/wordpool/LABEL.wav", "key_press": -1, "type": "PRES_AUD", "word": "label", "wordID": 789, "conditions": [24, 1600, "a", 24000], "trial": 3, "serialpos": 3, "trial_type": "single-audio", "trial_index": 120, "time_elapsed": 1134420, "internal_node_id": "0.0-84.0"}}, {"uniqueid": "MTK0287:3CTOC39K38XP0LMIG5UJTF9O66SJ7N", "current_trial": 121, "dateTime": 1510709198610, "trialdata": {"rt": -1000, "stimulus": "/static/audio/wordpool/HAMPER.wav", "key_press": -1, "type": "PRES_AUD", "word": "hamper", "wordID": 681, "conditions": [24, 1600, "a", 24000], "trial": 3, "serialpos": 4, "trial_type": "single-audio", "trial_index": 121, "time_elapsed": 1137155, "internal_node_id": "0.0-85.0"}}, {"uniqueid": "MTK0287:3CTOC39K38XP0LMIG5UJTF9O66SJ7N", "current_trial": 122, "dateTime": 1510709201345, "trialdata": {"rt": -1000, "stimulus": "/static/audio/wordpool/SISTER.wav", "key_press": -1, "type": "PRES_AUD", "word": "sister", "wordID": 1311, "conditions": [24, 1600, "a", 24000], "trial": 3, "serialpos": 5, "trial_type": "single-audio", "trial_index": 122, "time_elapsed": 1139889, "internal_node_id": "0.0-86.0"}}, {"uniqueid": "MTK0287:3CTOC39K38XP0LMIG5UJTF9O66SJ7N", "current_trial": 123, "dateTime": 1510709203824, "trialdata": {"rt": -1000, "stimulus": "/static/audio/wordpool/WAGON.wav", "key_press": -1, "type": "PRES_AUD", "word": "wagon", "wordID": 1577, "conditions": [24, 1600, "a", 24000], "trial": 3, "serialpos": 6, "trial_type": "single-audio", "trial_index": 123, "time_elapsed": 1142369, "internal_node_id": "0.0-87.0"}}, {"uniqueid": "MTK0287:3CTOC39K38XP0LMIG5UJTF9O66SJ7N", "current_trial": 124, "dateTime": 1510709206358, "trialdata": {"rt": -1000, "stimulus": "/static/audio/wordpool/TURNIP.wav", "key_press": -1, "type": "PRES_AUD", "word": "turnip", "wordID": 1520, "conditions": [24, 1600, "a", 24000], "trial": 3, "serialpos": 7, "trial_type": "single-audio", "trial_index": 124, "time_elapsed": 1144902, "internal_node_id": "0.0-88.0"}}, {"uniqueid": "MTK0287:3CTOC39K38XP0LMIG5UJTF9O66SJ7N", "current_trial": 125, "dateTime": 1510709208870, "trialdata": {"rt": -1000, "stimulus": "/static/audio/wordpool/OMELET.wav", "key_press": -1, "type": "PRES_AUD", "word": "omelet", "wordID": 975, "conditions": [24, 1600, "a", 24000], "trial": 3, "serialpos": 8, "trial_type": "single-audio", "trial_index": 125, "time_elapsed": 1147415, "internal_node_id": "0.0-89.0"}}, {"uniqueid": "MTK0287:3CTOC39K38XP0LMIG5UJTF9O66SJ7N", "current_trial": 126, "dateTime": 1510709211470, "trialdata": {"rt": -1000, "stimulus": "/static/audio/wordpool/NOMAD.wav", "key_press": -1, "type": "PRES_AUD", "word": "nomad", "wordID": 954, "conditions": [24, 1600, "a", 24000], "trial": 3, "serialpos": 9, "trial_type": "single-audio", "trial_index": 126, "time_elapsed": 1150015, "internal_node_id": "0.0-90.0"}}, {"uniqueid": "MTK0287:3CTOC39K38XP0LMIG5UJTF9O66SJ7N", "current_trial": 127, "dateTime": 1510709214255, "trialdata": {"rt": -1000, "stimulus": "/static/audio/wordpool/QUAIL.wav", "key_press": -1, "type": "PRES_AUD", "word": "quail", "wordID": 1146, "conditions": [24, 1600, "a", 24000], "trial": 3, "serialpos": 10, "trial_type": "single-audio", "trial_index": 127, "time_elapsed": 1152800, "internal_node_id": "0.0-91.0"}}, {"uniqueid": "MTK0287:3CTOC39K38XP0LMIG5UJTF9O66SJ7N", "current_trial": 128, "dateTime": 1510709217053, "trialdata": {"rt": -1000, "stimulus": "/static/audio/wordpool/TRACTOR.wav", "key_press": -1, "type": "PRES_AUD", "word": "tractor", "wordID": 1492, "conditions": [24, 1600, "a", 24000], "trial": 3, "serialpos": 11, "trial_type": "single-audio", "trial_index": 128, "time_elapsed": 1155598, "internal_node_id": "0.0-92.0"}}, {"uniqueid": "MTK0287:3CTOC39K38XP0LMIG5UJTF9O66SJ7N", "current_trial": 129, "dateTime": 1510709219780, "trialdata": {"rt": -1000, "stimulus": "/static/audio/wordpool/KIDNEY.wav", "key_press": -1, "type": "PRES_AUD", "word": "kidney", "wordID": 775, "conditions": [24, 1600, "a", 24000], "trial": 3, "serialpos": 12, "trial_type": "single-audio", "trial_index": 129, "time_elapsed": 1158325, "internal_node_id": "0.0-93.0"}}, {"uniqueid": "MTK0287:3CTOC39K38XP0LMIG5UJTF9O66SJ7N", "current_trial": 130, "dateTime": 1510709222368, "trialdata": {"rt": -1000, "stimulus": "/static/audio/wordpool/COMPASS.wav", "key_press": -1, "type": "PRES_AUD", "word": "compass", "wordID": 357, "conditions": [24, 1600, "a", 24000], "trial": 3, "serialpos": 13, "trial_type": "single-audio", "trial_index": 130, "time_elapsed": 1160913, "internal_node_id": "0.0-94.0"}}, {"uniqueid": "MTK0287:3CTOC39K38XP0LMIG5UJTF9O66SJ7N", "current_trial": 131, "dateTime": 1510709225012, "trialdata": {"rt": -1000, "stimulus": "/static/audio/wordpool/DUST.wav", "key_press": -1, "type": "PRES_AUD", "word": "dust", "wordID": 507, "conditions": [24, 1600, "a", 24000], "trial": 3, "serialpos": 14, "trial_type": "single-audio", "trial_index": 131, "time_elapsed": 1163557, "internal_node_id": "0.0-95.0"}}, {"uniqueid": "MTK0287:3CTOC39K38XP0LMIG5UJTF9O66SJ7N", "current_trial": 132, "dateTime": 1510709227589, "trialdata": {"rt": -1000, "stimulus": "/static/audio/wordpool/SLIME.wav", "key_press": -1, "type": "PRES_AUD", "word": "slime", "wordID": 1326, "conditions": [24, 1600, "a", 24000], "trial": 3, "serialpos": 15, "trial_type": "single-audio", "trial_index": 132, "time_elapsed": 1166134, "internal_node_id": "0.0-96.0"}}, {"uniqueid": "MTK0287:3CTOC39K38XP0LMIG5UJTF9O66SJ7N", "current_trial": 133, "dateTime": 1510709230324, "trialdata": {"rt": -1000, "stimulus": "/static/audio/wordpool/TRANSPLANT.wav", "key_press": -1, "type": "PRES_AUD", "word": "transplant", "wordID": 1495, "conditions": [24, 1600, "a", 24000], "trial": 3, "serialpos": 16, "trial_type": "single-audio", "trial_index": 133, "time_elapsed": 1168869, "internal_node_id": "0.0-97.0"}}, {"uniqueid": "MTK0287:3CTOC39K38XP0LMIG5UJTF9O66SJ7N", "current_trial": 134, "dateTime": 1510709232778, "trialdata": {"rt": -1000, "stimulus": "/static/audio/wordpool/COBRA.wav", "key_press": -1, "type": "PRES_AUD", "word": "cobra", "wordID": 335, "conditions": [24, 1600, "a", 24000], "trial": 3, "serialpos": 17, "trial_type": "single-audio", "trial_index": 134, "time_elapsed": 1171323, "internal_node_id": "0.0-98.0"}}, {"uniqueid": "MTK0287:3CTOC39K38XP0LMIG5UJTF9O66SJ7N", "current_trial": 135, "dateTime": 1510709235413, "trialdata": {"rt": -1000, "stimulus": "/static/audio/wordpool/COUSIN.wav", "key_press": -1, "type": "PRES_AUD", "word": "cousin", "wordID": 391, "conditions": [24, 1600, "a", 24000], "trial": 3, "serialpos": 18, "trial_type": "single-audio", "trial_index": 135, "time_elapsed": 1173958, "internal_node_id": "0.0-99.0"}}, {"uniqueid": "MTK0287:3CTOC39K38XP0LMIG5UJTF9O66SJ7N", "current_trial": 136, "dateTime": 1510709238148, "trialdata": {"rt": -1000, "stimulus": "/static/audio/wordpool/SIBLING.wav", "key_press": -1, "type": "PRES_AUD", "word": "sibling", "wordID": 1300, "conditions": [24, 1600, "a", 24000], "trial": 3, "serialpos": 19, "trial_type": "single-audio", "trial_index": 136, "time_elapsed": 1176692, "internal_node_id": "0.0-100.0"}}, {"uniqueid": "MTK0287:3CTOC39K38XP0LMIG5UJTF9O66SJ7N", "current_trial": 137, "dateTime": 1510709240829, "trialdata": {"rt": -1000, "stimulus": "/static/audio/wordpool/TYPIST.wav", "key_press": -1, "type": "PRES_AUD", "word": "typist", "wordID": 1531, "conditions": [24, 1600, "a", 24000], "trial": 3, "serialpos": 20, "trial_type": "single-audio", "trial_index": 137, "time_elapsed": 1179373, "internal_node_id": "0.0-101.0"}}, {"uniqueid": "MTK0287:3CTOC39K38XP0LMIG5UJTF9O66SJ7N", "current_trial": 138, "dateTime": 1510709243353, "trialdata": {"rt": -1000, "stimulus": "/static/audio/wordpool/PLAYGROUND.wav", "key_press": -1, "type": "PRES_AUD", "word": "playground", "wordID": 1086, "conditions": [24, 1600, "a", 24000], "trial": 3, "serialpos": 21, "trial_type": "single-audio", "trial_index": 138, "time_elapsed": 1181898, "internal_node_id": "0.0-102.0"}}, {"uniqueid": "MTK0287:3CTOC39K38XP0LMIG5UJTF9O66SJ7N", "current_trial": 139, "dateTime": 1510709245937, "trialdata": {"rt": -1000, "stimulus": "/static/audio/wordpool/PIMPLE.wav", "key_press": -1, "type": "PRES_AUD", "word": "pimple", "wordID": 1070, "conditions": [24, 1600, "a", 24000], "trial": 3, "serialpos": 22, "trial_type": "single-audio", "trial_index": 139, "time_elapsed": 1184481, "internal_node_id": "0.0-103.0"}}, {"uniqueid": "MTK0287:3CTOC39K38XP0LMIG5UJTF9O66SJ7N", "current_trial": 140, "dateTime": 1510709248656, "trialdata": {"rt": -1000, "stimulus": "/static/audio/wordpool/SPACE.wav", "key_press": -1, "type": "PRES_AUD", "word": "space", "wordID": 1344, "conditions": [24, 1600, "a", 24000], "trial": 3, "serialpos": 23, "trial_type": "single-audio", "trial_index": 140, "time_elapsed": 1187200, "internal_node_id": "0.0-104.0"}}, {"uniqueid": "MTK0287:3CTOC39K38XP0LMIG5UJTF9O66SJ7N", "current_trial": 141, "dateTime": 1510709249999, "trialdata": {"rt": -1, "stimulus": "", "key_press": -1, "type": "PRE_RECALL_DELAY", "trial_type": "single-stim", "trial_index": 141, "time_elapsed": 1188544, "internal_node_id": "0.0-105.0-0.0"}}, {"uniqueid": "MTK0287:3CTOC39K38XP0LMIG5UJTF9O66SJ7N", "current_trial": 142, "dateTime": 1510709250513, "trialdata": {"rt": -1000, "stimulus": "/static/audio/400Hz.wav", "key_press": -1, "type": "PRE_RECALL_ALERT", "trial_type": "single-audio", "trial_index": 142, "time_elapsed": 1189058, "internal_node_id": "0.0-106.0"}}, {"uniqueid": "MTK0287:3CTOC39K38XP0LMIG5UJTF9O66SJ7N", "current_trial": 143, "dateTime": 1510709310522, "trialdata": {"rt": [3299, 5507, 7619, 10723, 11907, 17219, 19059, 27827], "recwords": ["seafood", "nomad", "space", "typist", "nomad", "slime", "omelet", "space"], "type": "FREE_RECALL", "conditions": [24, 1600, "a", 24000], "trial": 3, "trial_type": "free-recall", "trial_index": 143, "time_elapsed": 1249064, "internal_node_id": "0.0-107.0-0.0"}}, {"uniqueid": "MTK0287:3CTOC39K38XP0LMIG5UJTF9O66SJ7N", "current_trial": 144, "dateTime": 1510709315334, "trialdata": {"rt": 2811, "key_press": 13, "type": "INSTRUCTIONS", "trial_type": "text", "trial_index": 144, "time_elapsed": 1253879, "internal_node_id": "0.0-108.0"}}, {"uniqueid": "MTK0287:3CTOC39K38XP0LMIG5UJTF9O66SJ7N", "current_trial": 145, "dateTime": 1510709329353, "trialdata": {"rt": [3114, 5690, 7146, 8922, 11434], "responses": ["17", "10", "11", "18", "17"], "num1": [6, 3, 1, 8, 9, 7], "num2": [6, 6, 1, 5, 6, 9], "num3": [5, 1, 9, 5, 2, 4], "type": "DISTRACTOR", "conditions": [24, 1600, "v", 12000], "trial": 4, "trial_type": "math-distractor", "trial_index": 145, "time_elapsed": 1267898, "internal_node_id": "0.0-109.0"}}, {"uniqueid": "MTK0287:3CTOC39K38XP0LMIG5UJTF9O66SJ7N", "current_trial": 146, "dateTime": 1510709332352, "trialdata": {"rt": -1, "stimulus": "<p id=\"stim\">10</p>", "key_press": -1, "trial_type": "single-stim", "trial_index": 146, "time_elapsed": 1270897, "internal_node_id": "0.0-110.0-0.0"}}, {"uniqueid": "MTK0287:3CTOC39K38XP0LMIG5UJTF9O66SJ7N", "current_trial": 147, "dateTime": 1510709333367, "trialdata": {"rt": -1, "stimulus": "<p id=\"stim\">9</p>", "key_press": -1, "trial_type": "single-stim", "trial_index": 147, "time_elapsed": 1271912, "internal_node_id": "0.0-110.0-1.0"}}, {"uniqueid": "MTK0287:3CTOC39K38XP0LMIG5UJTF9O66SJ7N", "current_trial": 148, "dateTime": 1510709334369, "trialdata": {"rt": -1, "stimulus": "<p id=\"stim\">8</p>", "key_press": -1, "trial_type": "single-stim", "trial_index": 148, "time_elapsed": 1272914, "internal_node_id": "0.0-110.0-2.0"}}, {"uniqueid": "MTK0287:3CTOC39K38XP0LMIG5UJTF9O66SJ7N", "current_trial": 149, "dateTime": 1510709335353, "trialdata": {"rt": -1, "stimulus": "<p id=\"stim\">7</p>", "key_press": -1, "trial_type": "single-stim", "trial_index": 149, "time_elapsed": 1273898, "internal_node_id": "0.0-110.0-3.0"}}, {"uniqueid": "MTK0287:3CTOC39K38XP0LMIG5UJTF9O66SJ7N", "current_trial": 150, "dateTime": 1510709336356, "trialdata": {"rt": -1, "stimulus": "<p id=\"stim\">6</p>", "key_press": -1, "trial_type": "single-stim", "trial_index": 150, "time_elapsed": 1274901, "internal_node_id": "0.0-110.0-4.0"}}, {"uniqueid": "MTK0287:3CTOC39K38XP0LMIG5UJTF9O66SJ7N", "current_trial": 151, "dateTime": 1510709337359, "trialdata": {"rt": -1, "stimulus": "<p id=\"stim\">5</p>", "key_press": -1, "trial_type": "single-stim", "trial_index": 151, "time_elapsed": 1275904, "internal_node_id": "0.0-110.0-5.0"}}, {"uniqueid": "MTK0287:3CTOC39K38XP0LMIG5UJTF9O66SJ7N", "current_trial": 152, "dateTime": 1510709338352, "trialdata": {"rt": -1, "stimulus": "<p id=\"stim\">4</p>", "key_press": -1, "trial_type": "single-stim", "trial_index": 152, "time_elapsed": 1276897, "internal_node_id": "0.0-110.0-6.0"}}, {"uniqueid": "MTK0287:3CTOC39K38XP0LMIG5UJTF9O66SJ7N", "current_trial": 153, "dateTime": 1510709339352, "trialdata": {"rt": -1, "stimulus": "<p id=\"stim\">3</p>", "key_press": -1, "trial_type": "single-stim", "trial_index": 153, "time_elapsed": 1277897, "internal_node_id": "0.0-110.0-7.0"}}, {"uniqueid": "MTK0287:3CTOC39K38XP0LMIG5UJTF9O66SJ7N", "current_trial": 154, "dateTime": 1510709340355, "trialdata": {"rt": -1, "stimulus": "<p id=\"stim\">2</p>", "key_press": -1, "trial_type": "single-stim", "trial_index": 154, "time_elapsed": 1278900, "internal_node_id": "0.0-110.0-8.0"}}, {"uniqueid": "MTK0287:3CTOC39K38XP0LMIG5UJTF9O66SJ7N", "current_trial": 155, "dateTime": 1510709341361, "trialdata": {"rt": -1, "stimulus": "<p id=\"stim\">1</p>", "key_press": -1, "trial_type": "single-stim", "trial_index": 155, "time_elapsed": 1279906, "internal_node_id": "0.0-110.0-9.0"}}, {"uniqueid": "MTK0287:3CTOC39K38XP0LMIG5UJTF9O66SJ7N", "current_trial": 156, "dateTime": 1510709342863, "trialdata": {"rt": -1, "stimulus": "<p id=\"stim\">+</p>", "key_press": -1, "type": "FIXATION", "trial_type": "single-stim", "trial_index": 156, "time_elapsed": 1281408, "internal_node_id": "0.0-111.0-0.0"}}, {"uniqueid": "MTK0287:3CTOC39K38XP0LMIG5UJTF9O66SJ7N", "current_trial": 157, "dateTime": 1510709344469, "trialdata": {"rt": -1, "stimulus": "<p id=\"stim\">LAKE</p>", "key_press": -1, "type": "PRES_VIS", "word": "lake", "wordID": 795, "conditions": [24, 1600, "v", 12000], "trial": 4, "serialpos": 0, "trial_type": "single-stim", "trial_index": 157, "time_elapsed": 1283014, "internal_node_id": "0.0-112.0"}}, {"uniqueid": "MTK0287:3CTOC39K38XP0LMIG5UJTF9O66SJ7N", "current_trial": 158, "dateTime": 1510709347201, "trialdata": {"rt": -1, "stimulus": "<p id=\"stim\">BEAVER</p>", "key_press": -1, "type": "PRES_VIS", "word": "beaver", "wordID": 108, "conditions": [24, 1600, "v", 12000], "trial": 4, "serialpos": 1, "trial_type": "single-stim", "trial_index": 158, "time_elapsed": 1285746, "internal_node_id": "0.0-113.0"}}, {"uniqueid": "MTK0287:3CTOC39K38XP0LMIG5UJTF9O66SJ7N", "current_trial": 159, "dateTime": 1510709349795, "trialdata": {"rt": -1, "stimulus": "<p id=\"stim\">MILK</p>", "key_press": -1, "type": "PRES_VIS", "word": "milk", "wordID": 894, "conditions": [24, 1600, "v", 12000], "trial": 4, "serialpos": 2, "trial_type": "single-stim", "trial_index": 159, "time_elapsed": 1288340, "internal_node_id": "0.0-114.0"}}, {"uniqueid": "MTK0287:3CTOC39K38XP0LMIG5UJTF9O66SJ7N", "current_trial": 160, "dateTime": 1510709352313, "trialdata": {"rt": -1, "stimulus": "<p id=\"stim\">MUFFIN</p>", "key_press": -1, "type": "PRES_VIS", "word": "muffin", "wordID": 928, "conditions": [24, 1600, "v", 12000], "trial": 4, "serialpos": 3, "trial_type": "single-stim", "trial_index": 160, "time_elapsed": 1290858, "internal_node_id": "0.0-115.0"}}, {"uniqueid": "MTK0287:3CTOC39K38XP0LMIG5UJTF9O66SJ7N", "current_trial": 161, "dateTime": 1510709355124, "trialdata": {"rt": -1, "stimulus": "<p id=\"stim\">SNACK</p>", "key_press": -1, "type": "PRES_VIS", "word": "snack", "wordID": 1330, "conditions": [24, 1600, "v", 12000], "trial": 4, "serialpos": 4, "trial_type": "single-stim", "trial_index": 161, "time_elapsed": 1293669, "internal_node_id": "0.0-116.0"}}, {"uniqueid": "MTK0287:3CTOC39K38XP0LMIG5UJTF9O66SJ7N", "current_trial": 162, "dateTime": 1510709357596, "trialdata": {"rt": -1, "stimulus": "<p id=\"stim\">RECEIPT</p>", "key_press": -1, "type": "PRES_VIS", "word": "receipt", "wordID": 1172, "conditions": [24, 1600, "v", 12000], "trial": 4, "serialpos": 5, "trial_type": "single-stim", "trial_index": 162, "time_elapsed": 1296140, "internal_node_id": "0.0-117.0"}}, {"uniqueid": "MTK0287:3CTOC39K38XP0LMIG5UJTF9O66SJ7N", "current_trial": 163, "dateTime": 1510709360119, "trialdata": {"rt": -1, "stimulus": "<p id=\"stim\">BULLET</p>", "key_press": -1, "type": "PRES_VIS", "word": "bullet", "wordID": 193, "conditions": [24, 1600, "v", 12000], "trial": 4, "serialpos": 6, "trial_type": "single-stim", "trial_index": 163, "time_elapsed": 1298663, "internal_node_id": "0.0-118.0"}}, {"uniqueid": "MTK0287:3CTOC39K38XP0LMIG5UJTF9O66SJ7N", "current_trial": 164, "dateTime": 1510709362719, "trialdata": {"rt": -1, "stimulus": "<p id=\"stim\">BRANCH</p>", "key_press": -1, "type": "PRES_VIS", "word": "branch", "wordID": 167, "conditions": [24, 1600, "v", 12000], "trial": 4, "serialpos": 7, "trial_type": "single-stim", "trial_index": 164, "time_elapsed": 1301263, "internal_node_id": "0.0-119.0"}}, {"uniqueid": "MTK0287:3CTOC39K38XP0LMIG5UJTF9O66SJ7N", "current_trial": 165, "dateTime": 1510709365515, "trialdata": {"rt": -1, "stimulus": "<p id=\"stim\">BRACES</p>", "key_press": -1, "type": "PRES_VIS", "word": "braces", "wordID": 163, "conditions": [24, 1600, "v", 12000], "trial": 4, "serialpos": 8, "trial_type": "single-stim", "trial_index": 165, "time_elapsed": 1304060, "internal_node_id": "0.0-120.0"}}, {"uniqueid": "MTK0287:3CTOC39K38XP0LMIG5UJTF9O66SJ7N", "current_trial": 166, "dateTime": 1510709367996, "trialdata": {"rt": -1, "stimulus": "<p id=\"stim\">HONEY</p>", "key_press": -1, "type": "PRES_VIS", "word": "honey", "wordID": 712, "conditions": [24, 1600, "v", 12000], "trial": 4, "serialpos": 9, "trial_type": "single-stim", "trial_index": 166, "time_elapsed": 1306541, "internal_node_id": "0.0-121.0"}}, {"uniqueid": "MTK0287:3CTOC39K38XP0LMIG5UJTF9O66SJ7N", "current_trial": 167, "dateTime": 1510709370685, "trialdata": {"rt": -1, "stimulus": "<p id=\"stim\">PREACHER</p>", "key_press": -1, "type": "PRES_VIS", "word": "preacher", "wordID": 1118, "conditions": [24, 1600, "v", 12000], "trial": 4, "serialpos": 10, "trial_type": "single-stim", "trial_index": 167, "time_elapsed": 1309230, "internal_node_id": "0.0-122.0"}}, {"uniqueid": "MTK0287:3CTOC39K38XP0LMIG5UJTF9O66SJ7N", "current_trial": 168, "dateTime": 1510709373202, "trialdata": {"rt": -1, "stimulus": "<p id=\"stim\">SPOOL</p>", "key_press": -1, "type": "PRES_VIS", "word": "spool", "wordID": 1355, "conditions": [24, 1600, "v", 12000], "trial": 4, "serialpos": 11, "trial_type": "single-stim", "trial_index": 168, "time_elapsed": 1311747, "internal_node_id": "0.0-123.0"}}, {"uniqueid": "MTK0287:3CTOC39K38XP0LMIG5UJTF9O66SJ7N", "current_trial": 169, "dateTime": 1510709375750, "trialdata": {"rt": -1, "stimulus": "<p id=\"stim\">BLOUSE</p>", "key_press": -1, "type": "PRES_VIS", "word": "blouse", "wordID": 138, "conditions": [24, 1600, "v", 12000], "trial": 4, "serialpos": 12, "trial_type": "single-stim", "trial_index": 169, "time_elapsed": 1314295, "internal_node_id": "0.0-124.0"}}, {"uniqueid": "MTK0287:3CTOC39K38XP0LMIG5UJTF9O66SJ7N", "current_trial": 170, "dateTime": 1510709378234, "trialdata": {"rt": -1, "stimulus": "<p id=\"stim\">BANKER</p>", "key_press": -1, "type": "PRES_VIS", "word": "banker", "wordID": 83, "conditions": [24, 1600, "v", 12000], "trial": 4, "serialpos": 13, "trial_type": "single-stim", "trial_index": 170, "time_elapsed": 1316779, "internal_node_id": "0.0-125.0"}}, {"uniqueid": "MTK0287:3CTOC39K38XP0LMIG5UJTF9O66SJ7N", "current_trial": 171, "dateTime": 1510709381013, "trialdata": {"rt": -1, "stimulus": "<p id=\"stim\">NECKLACE</p>", "key_press": -1, "type": "PRES_VIS", "word": "necklace", "wordID": 939, "conditions": [24, 1600, "v", 12000], "trial": 4, "serialpos": 14, "trial_type": "single-stim", "trial_index": 171, "time_elapsed": 1319558, "internal_node_id": "0.0-126.0"}}, {"uniqueid": "MTK0287:3CTOC39K38XP0LMIG5UJTF9O66SJ7N", "current_trial": 172, "dateTime": 1510709383756, "trialdata": {"rt": -1, "stimulus": "<p id=\"stim\">SCARF</p>", "key_press": -1, "type": "PRES_VIS", "word": "scarf", "wordID": 1245, "conditions": [24, 1600, "v", 12000], "trial": 4, "serialpos": 15, "trial_type": "single-stim", "trial_index": 172, "time_elapsed": 1322301, "internal_node_id": "0.0-127.0"}}, {"uniqueid": "MTK0287:3CTOC39K38XP0LMIG5UJTF9O66SJ7N", "current_trial": 173, "dateTime": 1510709386193, "trialdata": {"rt": -1, "stimulus": "<p id=\"stim\">PASTA</p>", "key_press": -1, "type": "PRES_VIS", "word": "pasta", "wordID": 1020, "conditions": [24, 1600, "v", 12000], "trial": 4, "serialpos": 16, "trial_type": "single-stim", "trial_index": 173, "time_elapsed": 1324738, "internal_node_id": "0.0-128.0"}}, {"uniqueid": "MTK0287:3CTOC39K38XP0LMIG5UJTF9O66SJ7N", "current_trial": 174, "dateTime": 1510709388947, "trialdata": {"rt": -1, "stimulus": "<p id=\"stim\">SHORTCAKE</p>", "key_press": -1, "type": "PRES_VIS", "word": "shortcake", "wordID": 1291, "conditions": [24, 1600, "v", 12000], "trial": 4, "serialpos": 17, "trial_type": "single-stim", "trial_index": 174, "time_elapsed": 1327492, "internal_node_id": "0.0-129.0"}}, {"uniqueid": "MTK0287:3CTOC39K38XP0LMIG5UJTF9O66SJ7N", "current_trial": 175, "dateTime": 1510709391495, "trialdata": {"rt": -1, "stimulus": "<p id=\"stim\">PLAZA</p>", "key_press": -1, "type": "PRES_VIS", "word": "plaza", "wordID": 1087, "conditions": [24, 1600, "v", 12000], "trial": 4, "serialpos": 18, "trial_type": "single-stim", "trial_index": 175, "time_elapsed": 1330040, "internal_node_id": "0.0-130.0"}}, {"uniqueid": "MTK0287:3CTOC39K38XP0LMIG5UJTF9O66SJ7N", "current_trial": 176, "dateTime": 1510709394198, "trialdata": {"rt": -1, "stimulus": "<p id=\"stim\">TERMITE</p>", "key_press": -1, "type": "PRES_VIS", "word": "termite", "wordID": 1450, "conditions": [24, 1600, "v", 12000], "trial": 4, "serialpos": 19, "trial_type": "single-stim", "trial_index": 176, "time_elapsed": 1332742, "internal_node_id": "0.0-131.0"}}, {"uniqueid": "MTK0287:3CTOC39K38XP0LMIG5UJTF9O66SJ7N", "current_trial": 177, "dateTime": 1510709396989, "trialdata": {"rt": -1, "stimulus": "<p id=\"stim\">GARDEN</p>", "key_press": -1, "type": "PRES_VIS", "word": "garden", "wordID": 622, "conditions": [24, 1600, "v", 12000], "trial": 4, "serialpos": 20, "trial_type": "single-stim", "trial_index": 177, "time_elapsed": 1335534, "internal_node_id": "0.0-132.0"}}, {"uniqueid": "MTK0287:3CTOC39K38XP0LMIG5UJTF9O66SJ7N", "current_trial": 178, "dateTime": 1510709399795, "trialdata": {"rt": -1, "stimulus": "<p id=\"stim\">DONOR</p>", "key_press": -1, "type": "PRES_VIS", "word": "donor", "wordID": 484, "conditions": [24, 1600, "v", 12000], "trial": 4, "serialpos": 21, "trial_type": "single-stim", "trial_index": 178, "time_elapsed": 1338339, "internal_node_id": "0.0-133.0"}}, {"uniqueid": "MTK0287:3CTOC39K38XP0LMIG5UJTF9O66SJ7N", "current_trial": 179, "dateTime": 1510709402613, "trialdata": {"rt": -1, "stimulus": "<p id=\"stim\">PADDING</p>", "key_press": -1, "type": "PRES_VIS", "word": "padding", "wordID": 998, "conditions": [24, 1600, "v", 12000], "trial": 4, "serialpos": 22, "trial_type": "single-stim", "trial_index": 179, "time_elapsed": 1341158, "internal_node_id": "0.0-134.0"}}, {"uniqueid": "MTK0287:3CTOC39K38XP0LMIG5UJTF9O66SJ7N", "current_trial": 180, "dateTime": 1510709405168, "trialdata": {"rt": -1, "stimulus": "<p id=\"stim\">KNIFE</p>", "key_press": -1, "type": "PRES_VIS", "word": "knife", "wordID": 784, "conditions": [24, 1600, "v", 12000], "trial": 4, "serialpos": 23, "trial_type": "single-stim", "trial_index": 180, "time_elapsed": 1343713, "internal_node_id": "0.0-135.0"}}, {"uniqueid": "MTK0287:3CTOC39K38XP0LMIG5UJTF9O66SJ7N", "current_trial": 181, "dateTime": 1510709407285, "trialdata": {"rt": -1, "stimulus": "", "key_press": -1, "type": "PRE_RECALL_DELAY", "trial_type": "single-stim", "trial_index": 181, "time_elapsed": 1345829, "internal_node_id": "0.0-136.0-0.0"}}, {"uniqueid": "MTK0287:3CTOC39K38XP0LMIG5UJTF9O66SJ7N", "current_trial": 182, "dateTime": 1510709407801, "trialdata": {"rt": -1000, "stimulus": "/static/audio/400Hz.wav", "key_press": -1, "type": "PRE_RECALL_ALERT", "trial_type": "single-audio", "trial_index": 182, "time_elapsed": 1346346, "internal_node_id": "0.0-137.0"}}, {"uniqueid": "MTK0287:3CTOC39K38XP0LMIG5UJTF9O66SJ7N", "current_trial": 183, "dateTime": 1510709467817, "trialdata": {"rt": [3257, 5225, 10473, 11705, 14425, 15913], "recwords": ["knife", "padding", "scarf", "blouse", "turnip", "river"], "type": "FREE_RECALL", "conditions": [24, 1600, "v", 12000], "trial": 4, "trial_type": "free-recall", "trial_index": 183, "time_elapsed": 1406359, "internal_node_id": "0.0-138.0-0.0"}}, {"uniqueid": "MTK0287:3CTOC39K38XP0LMIG5UJTF9O66SJ7N", "current_trial": 184, "dateTime": 1510709471828, "trialdata": {"rt": 2009, "key_press": 13, "type": "INSTRUCTIONS", "trial_type": "text", "trial_index": 184, "time_elapsed": 1410373, "internal_node_id": "0.0-139.0"}}, {"uniqueid": "MTK0287:3CTOC39K38XP0LMIG5UJTF9O66SJ7N", "current_trial": 185, "dateTime": 1510709485846, "trialdata": {"rt": [2630, 5222, 7670, 10102, 11542], "responses": ["7", "9", "12", "13", "14"], "num1": [2, 3, 1, 2, 4, 1], "num2": [2, 5, 8, 6, 7, 3], "num3": [3, 1, 3, 5, 3, 1], "type": "DISTRACTOR", "conditions": [24, 800, "a", 12000], "trial": 5, "trial_type": "math-distractor", "trial_index": 185, "time_elapsed": 1424391, "internal_node_id": "0.0-140.0"}}, {"uniqueid": "MTK0287:3CTOC39K38XP0LMIG5UJTF9O66SJ7N", "current_trial": 186, "dateTime": 1510709488855, "trialdata": {"rt": -1, "stimulus": "<p id=\"stim\">10</p>", "key_press": -1, "trial_type": "single-stim", "trial_index": 186, "time_elapsed": 1427400, "internal_node_id": "0.0-141.0-0.0"}}, {"uniqueid": "MTK0287:3CTOC39K38XP0LMIG5UJTF9O66SJ7N", "current_trial": 187, "dateTime": 1510709489868, "trialdata": {"rt": -1, "stimulus": "<p id=\"stim\">9</p>", "key_press": -1, "trial_type": "single-stim", "trial_index": 187, "time_elapsed": 1428413, "internal_node_id": "0.0-141.0-1.0"}}, {"uniqueid": "MTK0287:3CTOC39K38XP0LMIG5UJTF9O66SJ7N", "current_trial": 188, "dateTime": 1510709490855, "trialdata": {"rt": -1, "stimulus": "<p id=\"stim\">8</p>", "key_press": -1, "trial_type": "single-stim", "trial_index": 188, "time_elapsed": 1429400, "internal_node_id": "0.0-141.0-2.0"}}, {"uniqueid": "MTK0287:3CTOC39K38XP0LMIG5UJTF9O66SJ7N", "current_trial": 189, "dateTime": 1510709491867, "trialdata": {"rt": -1, "stimulus": "<p id=\"stim\">7</p>", "key_press": -1, "trial_type": "single-stim", "trial_index": 189, "time_elapsed": 1430412, "internal_node_id": "0.0-141.0-3.0"}}, {"uniqueid": "MTK0287:3CTOC39K38XP0LMIG5UJTF9O66SJ7N", "current_trial": 190, "dateTime": 1510709492867, "trialdata": {"rt": -1, "stimulus": "<p id=\"stim\">6</p>", "key_press": -1, "trial_type": "single-stim", "trial_index": 190, "time_elapsed": 1431412, "internal_node_id": "0.0-141.0-4.0"}}, {"uniqueid": "MTK0287:3CTOC39K38XP0LMIG5UJTF9O66SJ7N", "current_trial": 191, "dateTime": 1510709493867, "trialdata": {"rt": -1, "stimulus": "<p id=\"stim\">5</p>", "key_press": -1, "trial_type": "single-stim", "trial_index": 191, "time_elapsed": 1432411, "internal_node_id": "0.0-141.0-5.0"}}, {"uniqueid": "MTK0287:3CTOC39K38XP0LMIG5UJTF9O66SJ7N", "current_trial": 192, "dateTime": 1510709494867, "trialdata": {"rt": -1, "stimulus": "<p id=\"stim\">4</p>", "key_press": -1, "trial_type": "single-stim", "trial_index": 192, "time_elapsed": 1433412, "internal_node_id": "0.0-141.0-6.0"}}, {"uniqueid": "MTK0287:3CTOC39K38XP0LMIG5UJTF9O66SJ7N", "current_trial": 193, "dateTime": 1510709495860, "trialdata": {"rt": -1, "stimulus": "<p id=\"stim\">3</p>", "key_press": -1, "trial_type": "single-stim", "trial_index": 193, "time_elapsed": 1434404, "internal_node_id": "0.0-141.0-7.0"}}, {"uniqueid": "MTK0287:3CTOC39K38XP0LMIG5UJTF9O66SJ7N", "current_trial": 194, "dateTime": 1510709496867, "trialdata": {"rt": -1, "stimulus": "<p id=\"stim\">2</p>", "key_press": -1, "trial_type": "single-stim", "trial_index": 194, "time_elapsed": 1435412, "internal_node_id": "0.0-141.0-8.0"}}, {"uniqueid": "MTK0287:3CTOC39K38XP0LMIG5UJTF9O66SJ7N", "current_trial": 195, "dateTime": 1510709497869, "trialdata": {"rt": -1, "stimulus": "<p id=\"stim\">1</p>", "key_press": -1, "trial_type": "single-stim", "trial_index": 195, "time_elapsed": 1436414, "internal_node_id": "0.0-141.0-9.0"}}, {"uniqueid": "MTK0287:3CTOC39K38XP0LMIG5UJTF9O66SJ7N", "current_trial": 196, "dateTime": 1510709499379, "trialdata": {"rt": -1, "stimulus": "<p id=\"stim\">+</p>", "key_press": -1, "type": "FIXATION", "trial_type": "single-stim", "trial_index": 196, "time_elapsed": 1437924, "internal_node_id": "0.0-142.0-0.0"}}, {"uniqueid": "MTK0287:3CTOC39K38XP0LMIG5UJTF9O66SJ7N", "current_trial": 197, "dateTime": 1510709501115, "trialdata": {"rt": -1000, "stimulus": "/static/audio/wordpool/TUBA.wav", "key_press": -1, "type": "PRES_AUD", "word": "tuba", "wordID": 1514, "conditions": [24, 800, "a", 12000], "trial": 5, "serialpos": 0, "trial_type": "single-audio", "trial_index": 197, "time_elapsed": 1439660, "internal_node_id": "0.0-143.0"}}, {"uniqueid": "MTK0287:3CTOC39K38XP0LMIG5UJTF9O66SJ7N", "current_trial": 198, "dateTime": 1510709502803, "trialdata": {"rt": -1000, "stimulus": "/static/audio/wordpool/PEPPER.wav", "key_press": -1, "type": "PRES_AUD", "word": "pepper", "wordID": 1046, "conditions": [24, 800, "a", 12000], "trial": 5, "serialpos": 1, "trial_type": "single-audio", "trial_index": 198, "time_elapsed": 1441348, "internal_node_id": "0.0-144.0"}}, {"uniqueid": "MTK0287:3CTOC39K38XP0LMIG5UJTF9O66SJ7N", "current_trial": 199, "dateTime": 1510709504651, "trialdata": {"rt": -1000, "stimulus": "/static/audio/wordpool/LOVER.wav", "key_press": -1, "type": "PRES_AUD", "word": "lover", "wordID": 845, "conditions": [24, 800, "a", 12000], "trial": 5, "serialpos": 2, "trial_type": "single-audio", "trial_index": 199, "time_elapsed": 1443196, "internal_node_id": "0.0-145.0"}}, {"uniqueid": "MTK0287:3CTOC39K38XP0LMIG5UJTF9O66SJ7N", "current_trial": 200, "dateTime": 1510709506495, "trialdata": {"rt": -1000, "stimulus": "/static/audio/wordpool/BOYFRIEND.wav", "key_press": -1, "type": "PRES_AUD", "word": "boyfriend", "wordID": 161, "conditions": [24, 800, "a", 12000], "trial": 5, "serialpos": 3, "trial_type": "single-audio", "trial_index": 200, "time_elapsed": 1445040, "internal_node_id": "0.0-146.0"}}, {"uniqueid": "MTK0287:3CTOC39K38XP0LMIG5UJTF9O66SJ7N", "current_trial": 201, "dateTime": 1510709508464, "trialdata": {"rt": -1000, "stimulus": "/static/audio/wordpool/FOREHEAD.wav", "key_press": -1, "type": "PRES_AUD", "word": "forehead", "wordID": 591, "conditions": [24, 800, "a", 12000], "trial": 5, "serialpos": 4, "trial_type": "single-audio", "trial_index": 201, "time_elapsed": 1447009, "internal_node_id": "0.0-147.0"}}, {"uniqueid": "MTK0287:3CTOC39K38XP0LMIG5UJTF9O66SJ7N", "current_trial": 202, "dateTime": 1510709510137, "trialdata": {"rt": -1000, "stimulus": "/static/audio/wordpool/QUEEN.wav", "key_press": -1, "type": "PRES_AUD", "word": "queen", "wordID": 1148, "conditions": [24, 800, "a", 12000], "trial": 5, "serialpos": 5, "trial_type": "single-audio", "trial_index": 202, "time_elapsed": 1448682, "internal_node_id": "0.0-148.0"}}, {"uniqueid": "MTK0287:3CTOC39K38XP0LMIG5UJTF9O66SJ7N", "current_trial": 203, "dateTime": 1510709512083, "trialdata": {"rt": -1000, "stimulus": "/static/audio/wordpool/EGYPT.wav", "key_press": -1, "type": "PRES_AUD", "word": "egypt", "wordID": 518, "conditions": [24, 800, "a", 12000], "trial": 5, "serialpos": 6, "trial_type": "single-audio", "trial_index": 203, "time_elapsed": 1450628, "internal_node_id": "0.0-149.0"}}, {"uniqueid": "MTK0287:3CTOC39K38XP0LMIG5UJTF9O66SJ7N", "current_trial": 204, "dateTime": 1510709513984, "trialdata": {"rt": -1000, "stimulus": "/static/audio/wordpool/GUITAR.wav", "key_press": -1, "type": "PRES_AUD", "word": "guitar", "wordID": 669, "conditions": [24, 800, "a", 12000], "trial": 5, "serialpos": 7, "trial_type": "single-audio", "trial_index": 204, "time_elapsed": 1452528, "internal_node_id": "0.0-150.0"}}, {"uniqueid": "MTK0287:3CTOC39K38XP0LMIG5UJTF9O66SJ7N", "current_trial": 205, "dateTime": 1510709515872, "trialdata": {"rt": -1000, "stimulus": "/static/audio/wordpool/FRECKLE.wav", "key_press": -1, "type": "PRES_AUD", "word": "freckle", "wordID": 601, "conditions": [24, 800, "a", 12000], "trial": 5, "serialpos": 8, "trial_type": "single-audio", "trial_index": 205, "time_elapsed": 1454417, "internal_node_id": "0.0-151.0"}}, {"uniqueid": "MTK0287:3CTOC39K38XP0LMIG5UJTF9O66SJ7N", "current_trial": 206, "dateTime": 1510709517851, "trialdata": {"rt": -1000, "stimulus": "/static/audio/wordpool/CAPTIVE.wav", "key_press": -1, "type": "PRES_AUD", "word": "captive", "wordID": 239, "conditions": [24, 800, "a", 12000], "trial": 5, "serialpos": 9, "trial_type": "single-audio", "trial_index": 206, "time_elapsed": 1456395, "internal_node_id": "0.0-152.0"}}, {"uniqueid": "MTK0287:3CTOC39K38XP0LMIG5UJTF9O66SJ7N", "current_trial": 207, "dateTime": 1510709519593, "trialdata": {"rt": -1000, "stimulus": "/static/audio/wordpool/BODY.wav", "key_press": -1, "type": "PRES_AUD", "word": "body", "wordID": 144, "conditions": [24, 800, "a", 12000], "trial": 5, "serialpos": 10, "trial_type": "single-audio", "trial_index": 207, "time_elapsed": 1458137, "internal_node_id": "0.0-153.0"}}, {"uniqueid": "MTK0287:3CTOC39K38XP0LMIG5UJTF9O66SJ7N", "current_trial": 208, "dateTime": 1510709521467, "trialdata": {"rt": -1000, "stimulus": "/static/audio/wordpool/BROOK.wav", "key_press": -1, "type": "PRES_AUD", "word": "brook", "wordID": 176, "conditions": [24, 800, "a", 12000], "trial": 5, "serialpos": 11, "trial_type": "single-audio", "trial_index": 208, "time_elapsed": 1460011, "internal_node_id": "0.0-154.0"}}, {"uniqueid": "MTK0287:3CTOC39K38XP0LMIG5UJTF9O66SJ7N", "current_trial": 209, "dateTime": 1510709523266, "trialdata": {"rt": -1000, "stimulus": "/static/audio/wordpool/PASTRY.wav", "key_press": -1, "type": "PRES_AUD", "word": "pastry", "wordID": 1021, "conditions": [24, 800, "a", 12000], "trial": 5, "serialpos": 12, "trial_type": "single-audio", "trial_index": 209, "time_elapsed": 1461811, "internal_node_id": "0.0-155.0"}}, {"uniqueid": "MTK0287:3CTOC39K38XP0LMIG5UJTF9O66SJ7N", "current_trial": 210, "dateTime": 1510709525049, "trialdata": {"rt": -1000, "stimulus": "/static/audio/wordpool/FLASK.wav", "key_press": -1, "type": "PRES_AUD", "word": "flask", "wordID": 575, "conditions": [24, 800, "a", 12000], "trial": 5, "serialpos": 13, "trial_type": "single-audio", "trial_index": 210, "time_elapsed": 1463594, "internal_node_id": "0.0-156.0"}}, {"uniqueid": "MTK0287:3CTOC39K38XP0LMIG5UJTF9O66SJ7N", "current_trial": 211, "dateTime": 1510709526833, "trialdata": {"rt": -1000, "stimulus": "/static/audio/wordpool/FINGER.wav", "key_press": -1, "type": "PRES_AUD", "word": "finger", "wordID": 566, "conditions": [24, 800, "a", 12000], "trial": 5, "serialpos": 14, "trial_type": "single-audio", "trial_index": 211, "time_elapsed": 1465378, "internal_node_id": "0.0-157.0"}}, {"uniqueid": "MTK0287:3CTOC39K38XP0LMIG5UJTF9O66SJ7N", "current_trial": 212, "dateTime": 1510709528803, "trialdata": {"rt": -1000, "stimulus": "/static/audio/wordpool/BREAST.wav", "key_press": -1, "type": "PRES_AUD", "word": "breast", "wordID": 170, "conditions": [24, 800, "a", 12000], "trial": 5, "serialpos": 15, "trial_type": "single-audio", "trial_index": 212, "time_elapsed": 1467348, "internal_node_id": "0.0-158.0"}}, {"uniqueid": "MTK0287:3CTOC39K38XP0LMIG5UJTF9O66SJ7N", "current_trial": 213, "dateTime": 1510709530587, "trialdata": {"rt": -1000, "stimulus": "/static/audio/wordpool/STOMACH.wav", "key_press": -1, "type": "PRES_AUD", "word": "stomach", "wordID": 1383, "conditions": [24, 800, "a", 12000], "trial": 5, "serialpos": 16, "trial_type": "single-audio", "trial_index": 213, "time_elapsed": 1469132, "internal_node_id": "0.0-159.0"}}, {"uniqueid": "MTK0287:3CTOC39K38XP0LMIG5UJTF9O66SJ7N", "current_trial": 214, "dateTime": 1510709532230, "trialdata": {"rt": -1000, "stimulus": "/static/audio/wordpool/TURTLE.wav", "key_press": -1, "type": "PRES_AUD", "word": "turtle", "wordID": 1521, "conditions": [24, 800, "a", 12000], "trial": 5, "serialpos": 17, "trial_type": "single-audio", "trial_index": 214, "time_elapsed": 1470775, "internal_node_id": "0.0-160.0"}}, {"uniqueid": "MTK0287:3CTOC39K38XP0LMIG5UJTF9O66SJ7N", "current_trial": 215, "dateTime": 1510709534091, "trialdata": {"rt": -1000, "stimulus": "/static/audio/wordpool/LUMBER.wav", "key_press": -1, "type": "PRES_AUD", "word": "lumber", "wordID": 847, "conditions": [24, 800, "a", 12000], "trial": 5, "serialpos": 18, "trial_type": "single-audio", "trial_index": 215, "time_elapsed": 1472636, "internal_node_id": "0.0-161.0"}}, {"uniqueid": "MTK0287:3CTOC39K38XP0LMIG5UJTF9O66SJ7N", "current_trial": 216, "dateTime": 1510709535816, "trialdata": {"rt": -1000, "stimulus": "/static/audio/wordpool/TILE.wav", "key_press": -1, "type": "PRES_AUD", "word": "tile", "wordID": 1467, "conditions": [24, 800, "a", 12000], "trial": 5, "serialpos": 19, "trial_type": "single-audio", "trial_index": 216, "time_elapsed": 1474361, "internal_node_id": "0.0-162.0"}}, {"uniqueid": "MTK0287:3CTOC39K38XP0LMIG5UJTF9O66SJ7N", "current_trial": 217, "dateTime": 1510709537473, "trialdata": {"rt": -1000, "stimulus": "/static/audio/wordpool/POSSUM.wav", "key_press": -1, "type": "PRES_AUD", "word": "possum", "wordID": 1111, "conditions": [24, 800, "a", 12000], "trial": 5, "serialpos": 20, "trial_type": "single-audio", "trial_index": 217, "time_elapsed": 1476018, "internal_node_id": "0.0-163.0"}}, {"uniqueid": "MTK0287:3CTOC39K38XP0LMIG5UJTF9O66SJ7N", "current_trial": 218, "dateTime": 1510709539083, "trialdata": {"rt": -1000, "stimulus": "/static/audio/wordpool/PANTHER.wav", "key_press": -1, "type": "PRES_AUD", "word": "panther", "wordID": 1008, "conditions": [24, 800, "a", 12000], "trial": 5, "serialpos": 21, "trial_type": "single-audio", "trial_index": 218, "time_elapsed": 1477628, "internal_node_id": "0.0-164.0"}}, {"uniqueid": "MTK0287:3CTOC39K38XP0LMIG5UJTF9O66SJ7N", "current_trial": 219, "dateTime": 1510709541066, "trialdata": {"rt": -1000, "stimulus": "/static/audio/wordpool/BRICK.wav", "key_press": -1, "type": "PRES_AUD", "word": "brick", "wordID": 171, "conditions": [24, 800, "a", 12000], "trial": 5, "serialpos": 22, "trial_type": "single-audio", "trial_index": 219, "time_elapsed": 1479611, "internal_node_id": "0.0-165.0"}}, {"uniqueid": "MTK0287:3CTOC39K38XP0LMIG5UJTF9O66SJ7N", "current_trial": 220, "dateTime": 1510709542834, "trialdata": {"rt": -1000, "stimulus": "/static/audio/wordpool/DAISY.wav", "key_press": -1, "type": "PRES_AUD", "word": "daisy", "wordID": 434, "conditions": [24, 800, "a", 12000], "trial": 5, "serialpos": 23, "trial_type": "single-audio", "trial_index": 220, "time_elapsed": 1481379, "internal_node_id": "0.0-166.0"}}, {"uniqueid": "MTK0287:3CTOC39K38XP0LMIG5UJTF9O66SJ7N", "current_trial": 221, "dateTime": 1510709544178, "trialdata": {"rt": -1, "stimulus": "", "key_press": -1, "type": "PRE_RECALL_DELAY", "trial_type": "single-stim", "trial_index": 221, "time_elapsed": 1482723, "internal_node_id": "0.0-167.0-0.0"}}, {"uniqueid": "MTK0287:3CTOC39K38XP0LMIG5UJTF9O66SJ7N", "current_trial": 222, "dateTime": 1510709544688, "trialdata": {"rt": -1000, "stimulus": "/static/audio/400Hz.wav", "key_press": -1, "type": "PRE_RECALL_ALERT", "trial_type": "single-audio", "trial_index": 222, "time_elapsed": 1483233, "internal_node_id": "0.0-168.0"}}, {"uniqueid": "MTK0287:3CTOC39K38XP0LMIG5UJTF9O66SJ7N", "current_trial": 223, "dateTime": 1510709604705, "trialdata": {"rt": [2129, 3425, 5185, 6033], "recwords": ["brick", "daisy", "lumber", "tile"], "type": "FREE_RECALL", "conditions": [24, 800, "a", 12000], "trial": 5, "trial_type": "free-recall", "trial_index": 223, "time_elapsed": 1543246, "internal_node_id": "0.0-169.0-0.0"}}, {"uniqueid": "MTK0287:3CTOC39K38XP0LMIG5UJTF9O66SJ7N", "current_trial": 224, "dateTime": 1510709610754, "trialdata": {"rt": 4050, "key_press": 13, "type": "INSTRUCTIONS", "trial_type": "text", "trial_index": 224, "time_elapsed": 1549299, "internal_node_id": "0.0-170.0"}}, {"uniqueid": "MTK0287:3CTOC39K38XP0LMIG5UJTF9O66SJ7N", "current_trial": 225, "dateTime": 1510709624781, "trialdata": {"rt": [2115, 3842, 5315, 7779, 10659], "responses": ["19", "11", "12", "17", "9"], "num1": [7, 4, 2, 6, 3, 2], "num2": [3, 4, 7, 2, 4, 5], "num3": [9, 3, 3, 9, 2, 8], "type": "DISTRACTOR", "conditions": [12, 1600, "a", 12000], "trial": 6, "trial_type": "math-distractor", "trial_index": 225, "time_elapsed": 1563326, "internal_node_id": "0.0-171.0"}}, {"uniqueid": "MTK0287:3CTOC39K38XP0LMIG5UJTF9O66SJ7N", "current_trial": 226, "dateTime": 1510709627784, "trialdata": {"rt": -1, "stimulus": "<p id=\"stim\">10</p>", "key_press": -1, "trial_type": "single-stim", "trial_index": 226, "time_elapsed": 1566329, "internal_node_id": "0.0-172.0-0.0"}}, {"uniqueid": "MTK0287:3CTOC39K38XP0LMIG5UJTF9O66SJ7N", "current_trial": 227, "dateTime": 1510709628799, "trialdata": {"rt": -1, "stimulus": "<p id=\"stim\">9</p>", "key_press": -1, "trial_type": "single-stim", "trial_index": 227, "time_elapsed": 1567343, "internal_node_id": "0.0-172.0-1.0"}}, {"uniqueid": "MTK0287:3CTOC39K38XP0LMIG5UJTF9O66SJ7N", "current_trial": 228, "dateTime": 1510709629797, "trialdata": {"rt": -1, "stimulus": "<p id=\"stim\">8</p>", "key_press": -1, "trial_type": "single-stim", "trial_index": 228, "time_elapsed": 1568342, "internal_node_id": "0.0-172.0-2.0"}}, {"uniqueid": "MTK0287:3CTOC39K38XP0LMIG5UJTF9O66SJ7N", "current_trial": 229, "dateTime": 1510709630785, "trialdata": {"rt": -1, "stimulus": "<p id=\"stim\">7</p>", "key_press": -1, "trial_type": "single-stim", "trial_index": 229, "time_elapsed": 1569329, "internal_node_id": "0.0-172.0-3.0"}}, {"uniqueid": "MTK0287:3CTOC39K38XP0LMIG5UJTF9O66SJ7N", "current_trial": 230, "dateTime": 1510709631788, "trialdata": {"rt": -1, "stimulus": "<p id=\"stim\">6</p>", "key_press": -1, "trial_type": "single-stim", "trial_index": 230, "time_elapsed": 1570333, "internal_node_id": "0.0-172.0-4.0"}}, {"uniqueid": "MTK0287:3CTOC39K38XP0LMIG5UJTF9O66SJ7N", "current_trial": 231, "dateTime": 1510709632790, "trialdata": {"rt": -1, "stimulus": "<p id=\"stim\">5</p>", "key_press": -1, "trial_type": "single-stim", "trial_index": 231, "time_elapsed": 1571335, "internal_node_id": "0.0-172.0-5.0"}}, {"uniqueid": "MTK0287:3CTOC39K38XP0LMIG5UJTF9O66SJ7N", "current_trial": 232, "dateTime": 1510709633794, "trialdata": {"rt": -1, "stimulus": "<p id=\"stim\">4</p>", "key_press": -1, "trial_type": "single-stim", "trial_index": 232, "time_elapsed": 1572339, "internal_node_id": "0.0-172.0-6.0"}}, {"uniqueid": "MTK0287:3CTOC39K38XP0LMIG5UJTF9O66SJ7N", "current_trial": 233, "dateTime": 1510709634787, "trialdata": {"rt": -1, "stimulus": "<p id=\"stim\">3</p>", "key_press": -1, "trial_type": "single-stim", "trial_index": 233, "time_elapsed": 1573331, "internal_node_id": "0.0-172.0-7.0"}}, {"uniqueid": "MTK0287:3CTOC39K38XP0LMIG5UJTF9O66SJ7N", "current_trial": 234, "dateTime": 1510709635783, "trialdata": {"rt": -1, "stimulus": "<p id=\"stim\">2</p>", "key_press": -1, "trial_type": "single-stim", "trial_index": 234, "time_elapsed": 1574328, "internal_node_id": "0.0-172.0-8.0"}}, {"uniqueid": "MTK0287:3CTOC39K38XP0LMIG5UJTF9O66SJ7N", "current_trial": 235, "dateTime": 1510709636786, "trialdata": {"rt": -1, "stimulus": "<p id=\"stim\">1</p>", "key_press": -1, "trial_type": "single-stim", "trial_index": 235, "time_elapsed": 1575331, "internal_node_id": "0.0-172.0-9.0"}}, {"uniqueid": "MTK0287:3CTOC39K38XP0LMIG5UJTF9O66SJ7N", "current_trial": 236, "dateTime": 1510709638285, "trialdata": {"rt": -1, "stimulus": "<p id=\"stim\">+</p>", "key_press": -1, "type": "FIXATION", "trial_type": "single-stim", "trial_index": 236, "time_elapsed": 1576830, "internal_node_id": "0.0-173.0-0.0"}}, {"uniqueid": "MTK0287:3CTOC39K38XP0LMIG5UJTF9O66SJ7N", "current_trial": 237, "dateTime": 1510709640965, "trialdata": {"rt": -1000, "stimulus": "/static/audio/wordpool/PICTURE.wav", "key_press": -1, "type": "PRES_AUD", "word": "picture", "wordID": 1060, "conditions": [12, 1600, "a", 12000], "trial": 6, "serialpos": 0, "trial_type": "single-audio", "trial_index": 237, "time_elapsed": 1579510, "internal_node_id": "0.0-174.0"}}, {"uniqueid": "MTK0287:3CTOC39K38XP0LMIG5UJTF9O66SJ7N", "current_trial": 238, "dateTime": 1510709643544, "trialdata": {"rt": -1000, "stimulus": "/static/audio/wordpool/STREAM.wav", "key_press": -1, "type": "PRES_AUD", "word": "stream", "wordID": 1391, "conditions": [12, 1600, "a", 12000], "trial": 6, "serialpos": 1, "trial_type": "single-audio", "trial_index": 238, "time_elapsed": 1582089, "internal_node_id": "0.0-175.0"}}, {"uniqueid": "MTK0287:3CTOC39K38XP0LMIG5UJTF9O66SJ7N", "current_trial": 239, "dateTime": 1510709646177, "trialdata": {"rt": -1000, "stimulus": "/static/audio/wordpool/SAUSAGE.wav", "key_press": -1, "type": "PRES_AUD", "word": "sausage", "wordID": 1237, "conditions": [12, 1600, "a", 12000], "trial": 6, "serialpos": 2, "trial_type": "single-audio", "trial_index": 239, "time_elapsed": 1584722, "internal_node_id": "0.0-176.0"}}, {"uniqueid": "MTK0287:3CTOC39K38XP0LMIG5UJTF9O66SJ7N", "current_trial": 240, "dateTime": 1510709648733, "trialdata": {"rt": -1000, "stimulus": "/static/audio/wordpool/TROMBONE.wav", "key_press": -1, "type": "PRES_AUD", "word": "trombone", "wordID": 1507, "conditions": [12, 1600, "a", 12000], "trial": 6, "serialpos": 3, "trial_type": "single-audio", "trial_index": 240, "time_elapsed": 1587278, "internal_node_id": "0.0-177.0"}}, {"uniqueid": "MTK0287:3CTOC39K38XP0LMIG5UJTF9O66SJ7N", "current_trial": 241, "dateTime": 1510709651439, "trialdata": {"rt": -1000, "stimulus": "/static/audio/wordpool/SOFTBALL.wav", "key_press": -1, "type": "PRES_AUD", "word": "softball", "wordID": 1342, "conditions": [12, 1600, "a", 12000], "trial": 6, "serialpos": 4, "trial_type": "single-audio", "trial_index": 241, "time_elapsed": 1589983, "internal_node_id": "0.0-178.0"}}, {"uniqueid": "MTK0287:3CTOC39K38XP0LMIG5UJTF9O66SJ7N", "current_trial": 242, "dateTime": 1510709653940, "trialdata": {"rt": -1000, "stimulus": "/static/audio/wordpool/CABBAGE.wav", "key_press": -1, "type": "PRES_AUD", "word": "cabbage", "wordID": 209, "conditions": [12, 1600, "a", 12000], "trial": 6, "serialpos": 5, "trial_type": "single-audio", "trial_index": 242, "time_elapsed": 1592484, "internal_node_id": "0.0-179.0"}}, {"uniqueid": "MTK0287:3CTOC39K38XP0LMIG5UJTF9O66SJ7N", "current_trial": 243, "dateTime": 1510709656736, "trialdata": {"rt": -1000, "stimulus": "/static/audio/wordpool/CASHIER.wav", "key_press": -1, "type": "PRES_AUD", "word": "cashier", "wordID": 253, "conditions": [12, 1600, "a", 12000], "trial": 6, "serialpos": 6, "trial_type": "single-audio", "trial_index": 243, "time_elapsed": 1595280, "internal_node_id": "0.0-180.0"}}, {"uniqueid": "MTK0287:3CTOC39K38XP0LMIG5UJTF9O66SJ7N", "current_trial": 244, "dateTime": 1510709659394, "trialdata": {"rt": -1000, "stimulus": "/static/audio/wordpool/GOBLIN.wav", "key_press": -1, "type": "PRES_AUD", "word": "goblin", "wordID": 644, "conditions": [12, 1600, "a", 12000], "trial": 6, "serialpos": 7, "trial_type": "single-audio", "trial_index": 244, "time_elapsed": 1597938, "internal_node_id": "0.0-181.0"}}, {"uniqueid": "MTK0287:3CTOC39K38XP0LMIG5UJTF9O66SJ7N", "current_trial": 245, "dateTime": 1510709661942, "trialdata": {"rt": -1000, "stimulus": "/static/audio/wordpool/MAILBOX.wav", "key_press": -1, "type": "PRES_AUD", "word": "mailbox", "wordID": 856, "conditions": [12, 1600, "a", 12000], "trial": 6, "serialpos": 8, "trial_type": "single-audio", "trial_index": 245, "time_elapsed": 1600486, "internal_node_id": "0.0-182.0"}}, {"uniqueid": "MTK0287:3CTOC39K38XP0LMIG5UJTF9O66SJ7N", "current_trial": 246, "dateTime": 1510709664348, "trialdata": {"rt": -1000, "stimulus": "/static/audio/wordpool/MAILMAN.wav", "key_press": -1, "type": "PRES_AUD", "word": "mailman", "wordID": 857, "conditions": [12, 1600, "a", 12000], "trial": 6, "serialpos": 9, "trial_type": "single-audio", "trial_index": 246, "time_elapsed": 1602893, "internal_node_id": "0.0-183.0"}}, {"uniqueid": "MTK0287:3CTOC39K38XP0LMIG5UJTF9O66SJ7N", "current_trial": 247, "dateTime": 1510709667128, "trialdata": {"rt": -1000, "stimulus": "/static/audio/wordpool/FRANCE.wav", "key_press": -1, "type": "PRES_AUD", "word": "france", "wordID": 600, "conditions": [12, 1600, "a", 12000], "trial": 6, "serialpos": 10, "trial_type": "single-audio", "trial_index": 247, "time_elapsed": 1605673, "internal_node_id": "0.0-184.0"}}, {"uniqueid": "MTK0287:3CTOC39K38XP0LMIG5UJTF9O66SJ7N", "current_trial": 248, "dateTime": 1510709669767, "trialdata": {"rt": -1000, "stimulus": "/static/audio/wordpool/WAITRESS.wav", "key_press": -1, "type": "PRES_AUD", "word": "waitress", "wordID": 1580, "conditions": [12, 1600, "a", 12000], "trial": 6, "serialpos": 11, "trial_type": "single-audio", "trial_index": 248, "time_elapsed": 1608312, "internal_node_id": "0.0-185.0"}}, {"uniqueid": "MTK0287:3CTOC39K38XP0LMIG5UJTF9O66SJ7N", "current_trial": 249, "dateTime": 1510709671096, "trialdata": {"rt": -1, "stimulus": "", "key_press": -1, "type": "PRE_RECALL_DELAY", "trial_type": "single-stim", "trial_index": 249, "time_elapsed": 1609641, "internal_node_id": "0.0-186.0-0.0"}}, {"uniqueid": "MTK0287:3CTOC39K38XP0LMIG5UJTF9O66SJ7N", "current_trial": 250, "dateTime": 1510709671615, "trialdata": {"rt": -1000, "stimulus": "/static/audio/400Hz.wav", "key_press": -1, "type": "PRE_RECALL_ALERT", "trial_type": "single-audio", "trial_index": 250, "time_elapsed": 1610160, "internal_node_id": "0.0-187.0"}}, {"uniqueid": "MTK0287:3CTOC39K38XP0LMIG5UJTF9O66SJ7N", "current_trial": 251, "dateTime": 1510709731635, "trialdata": {"rt": [2719, 6319, 7438, 11167], "recwords": ["waitress", "goblin", "trees", "menu"], "type": "FREE_RECALL", "conditions": [12, 1600, "a", 12000], "trial": 6, "trial_type": "free-recall", "trial_index": 251, "time_elapsed": 1670176, "internal_node_id": "0.0-188.0-0.0"}}, {"uniqueid": "MTK0287:3CTOC39K38XP0LMIG5UJTF9O66SJ7N", "current_trial": 252, "dateTime": 1510709736161, "trialdata": {"rt": 2511, "key_press": 13, "type": "INSTRUCTIONS", "trial_type": "text", "trial_index": 252, "time_elapsed": 1674706, "internal_node_id": "0.0-189.0"}}, {"uniqueid": "MTK0287:3CTOC39K38XP0LMIG5UJTF9O66SJ7N", "current_trial": 253, "dateTime": 1510709762181, "trialdata": {"rt": [1720, 3144, 5112, 6744, 8056, 11049, 13160, 14872, 20568, 21784, 23880], "responses": ["11", "12", "13", "9", "19", "16", "10", "12", "15", "19", "17"], "num1": [1, 2, 3, 1, 5, 7, 2, 6, 1, 5, 6, 5], "num2": [3, 8, 2, 2, 5, 8, 3, 2, 8, 5, 5, 9], "num3": [7, 2, 8, 6, 9, 1, 5, 4, 6, 9, 6, 4], "type": "DISTRACTOR", "conditions": [12, 800, "v", 24000], "trial": 7, "trial_type": "math-distractor", "trial_index": 253, "time_elapsed": 1700726, "internal_node_id": "0.0-190.0"}}, {"uniqueid": "MTK0287:3CTOC39K38XP0LMIG5UJTF9O66SJ7N", "current_trial": 254, "dateTime": 1510709765198, "trialdata": {"rt": -1, "stimulus": "<p id=\"stim\">10</p>", "key_press": -1, "trial_type": "single-stim", "trial_index": 254, "time_elapsed": 1703743, "internal_node_id": "0.0-191.0-0.0"}}, {"uniqueid": "MTK0287:3CTOC39K38XP0LMIG5UJTF9O66SJ7N", "current_trial": 255, "dateTime": 1510709766198, "trialdata": {"rt": -1, "stimulus": "<p id=\"stim\">9</p>", "key_press": -1, "trial_type": "single-stim", "trial_index": 255, "time_elapsed": 1704743, "internal_node_id": "0.0-191.0-1.0"}}, {"uniqueid": "MTK0287:3CTOC39K38XP0LMIG5UJTF9O66SJ7N", "current_trial": 256, "dateTime": 1510709767197, "trialdata": {"rt": -1, "stimulus": "<p id=\"stim\">8</p>", "key_press": -1, "trial_type": "single-stim", "trial_index": 256, "time_elapsed": 1705742, "internal_node_id": "0.0-191.0-2.0"}}, {"uniqueid": "MTK0287:3CTOC39K38XP0LMIG5UJTF9O66SJ7N", "current_trial": 257, "dateTime": 1510709768194, "trialdata": {"rt": -1, "stimulus": "<p id=\"stim\">7</p>", "key_press": -1, "trial_type": "single-stim", "trial_index": 257, "time_elapsed": 1706739, "internal_node_id": "0.0-191.0-3.0"}}, {"uniqueid": "MTK0287:3CTOC39K38XP0LMIG5UJTF9O66SJ7N", "current_trial": 258, "dateTime": 1510709769197, "trialdata": {"rt": -1, "stimulus": "<p id=\"stim\">6</p>", "key_press": -1, "trial_type": "single-stim", "trial_index": 258, "time_elapsed": 1707742, "internal_node_id": "0.0-191.0-4.0"}}, {"uniqueid": "MTK0287:3CTOC39K38XP0LMIG5UJTF9O66SJ7N", "current_trial": 259, "dateTime": 1510709770197, "trialdata": {"rt": -1, "stimulus": "<p id=\"stim\">5</p>", "key_press": -1, "trial_type": "single-stim", "trial_index": 259, "time_elapsed": 1708742, "internal_node_id": "0.0-191.0-5.0"}}, {"uniqueid": "MTK0287:3CTOC39K38XP0LMIG5UJTF9O66SJ7N", "current_trial": 260, "dateTime": 1510709771189, "trialdata": {"rt": -1, "stimulus": "<p id=\"stim\">4</p>", "key_press": -1, "trial_type": "single-stim", "trial_index": 260, "time_elapsed": 1709734, "internal_node_id": "0.0-191.0-6.0"}}, {"uniqueid": "MTK0287:3CTOC39K38XP0LMIG5UJTF9O66SJ7N", "current_trial": 261, "dateTime": 1510709772197, "trialdata": {"rt": -1, "stimulus": "<p id=\"stim\">3</p>", "key_press": -1, "trial_type": "single-stim", "trial_index": 261, "time_elapsed": 1710742, "internal_node_id": "0.0-191.0-7.0"}}, {"uniqueid": "MTK0287:3CTOC39K38XP0LMIG5UJTF9O66SJ7N", "current_trial": 262, "dateTime": 1510709773197, "trialdata": {"rt": -1, "stimulus": "<p id=\"stim\">2</p>", "key_press": -1, "trial_type": "single-stim", "trial_index": 262, "time_elapsed": 1711742, "internal_node_id": "0.0-191.0-8.0"}}, {"uniqueid": "MTK0287:3CTOC39K38XP0LMIG5UJTF9O66SJ7N", "current_trial": 263, "dateTime": 1510709774197, "trialdata": {"rt": -1, "stimulus": "<p id=\"stim\">1</p>", "key_press": -1, "trial_type": "single-stim", "trial_index": 263, "time_elapsed": 1712742, "internal_node_id": "0.0-191.0-9.0"}}, {"uniqueid": "MTK0287:3CTOC39K38XP0LMIG5UJTF9O66SJ7N", "current_trial": 264, "dateTime": 1510709775714, "trialdata": {"rt": -1, "stimulus": "<p id=\"stim\">+</p>", "key_press": -1, "type": "FIXATION", "trial_type": "single-stim", "trial_index": 264, "time_elapsed": 1714259, "internal_node_id": "0.0-192.0-0.0"}}, {"uniqueid": "MTK0287:3CTOC39K38XP0LMIG5UJTF9O66SJ7N", "current_trial": 265, "dateTime": 1510709776531, "trialdata": {"rt": -1, "stimulus": "<p id=\"stim\">SPOUSE</p>", "key_press": -1, "type": "PRES_VIS", "word": "spouse", "wordID": 1357, "conditions": [12, 800, "v", 24000], "trial": 7, "serialpos": 0, "trial_type": "single-stim", "trial_index": 265, "time_elapsed": 1715075, "internal_node_id": "0.0-193.0"}}, {"uniqueid": "MTK0287:3CTOC39K38XP0LMIG5UJTF9O66SJ7N", "current_trial": 266, "dateTime": 1510709778514, "trialdata": {"rt": -1, "stimulus": "<p id=\"stim\">WIFE</p>", "key_press": -1, "type": "PRES_VIS", "word": "wife", "wordID": 1608, "conditions": [12, 800, "v", 24000], "trial": 7, "serialpos": 1, "trial_type": "single-stim", "trial_index": 266, "time_elapsed": 1717058, "internal_node_id": "0.0-194.0"}}, {"uniqueid": "MTK0287:3CTOC39K38XP0LMIG5UJTF9O66SJ7N", "current_trial": 267, "dateTime": 1510709780397, "trialdata": {"rt": -1, "stimulus": "<p id=\"stim\">EXPERT</p>", "key_press": -1, "type": "PRES_VIS", "word": "expert", "wordID": 542, "conditions": [12, 800, "v", 24000], "trial": 7, "serialpos": 2, "trial_type": "single-stim", "trial_index": 267, "time_elapsed": 1718942, "internal_node_id": "0.0-195.0"}}, {"uniqueid": "MTK0287:3CTOC39K38XP0LMIG5UJTF9O66SJ7N", "current_trial": 268, "dateTime": 1510709782040, "trialdata": {"rt": -1, "stimulus": "<p id=\"stim\">LILY</p>", "key_press": -1, "type": "PRES_VIS", "word": "lily", "wordID": 820, "conditions": [12, 800, "v", 24000], "trial": 7, "serialpos": 3, "trial_type": "single-stim", "trial_index": 268, "time_elapsed": 1720585, "internal_node_id": "0.0-196.0"}}, {"uniqueid": "MTK0287:3CTOC39K38XP0LMIG5UJTF9O66SJ7N", "current_trial": 269, "dateTime": 1510709783830, "trialdata": {"rt": -1, "stimulus": "<p id=\"stim\">BANQUET</p>", "key_press": -1, "type": "PRES_VIS", "word": "banquet", "wordID": 85, "conditions": [12, 800, "v", 24000], "trial": 7, "serialpos": 4, "trial_type": "single-stim", "trial_index": 269, "time_elapsed": 1722375, "internal_node_id": "0.0-197.0"}}, {"uniqueid": "MTK0287:3CTOC39K38XP0LMIG5UJTF9O66SJ7N", "current_trial": 270, "dateTime": 1510709785843, "trialdata": {"rt": -1, "stimulus": "<p id=\"stim\">KETCHUP</p>", "key_press": -1, "type": "PRES_VIS", "word": "ketchup", "wordID": 770, "conditions": [12, 800, "v", 24000], "trial": 7, "serialpos": 5, "trial_type": "single-stim", "trial_index": 270, "time_elapsed": 1724388, "internal_node_id": "0.0-198.0"}}, {"uniqueid": "MTK0287:3CTOC39K38XP0LMIG5UJTF9O66SJ7N", "current_trial": 271, "dateTime": 1510709787760, "trialdata": {"rt": -1, "stimulus": "<p id=\"stim\">SCOTCH</p>", "key_press": -1, "type": "PRES_VIS", "word": "scotch", "wordID": 1250, "conditions": [12, 800, "v", 24000],