{"condition": 0, "counterbalance": 400, "assignmentId": "340UGXU9DZ80PRY8A21D6VY28A0UV0", "workerId": "MTK0004", "hitId": "3D17ECOUOE2YH17XY2GLNE52THQ31H", "currenttrial": 625, "bonus": 0, "data": [{"uniqueid": "MTK0004:340UGXU9DZ80PRY8A21D6VY28A0UV0", "current_trial": 0, "dateTime": 1508954659136, "trialdata": {"rt": 3231, "key_press": 32, "type": "INSTRUCTIONS", "trial_type": "text", "trial_index": 0, "time_elapsed": 3235, "internal_node_id": "0.0-0.0"}}, {"uniqueid": "MTK0004:340UGXU9DZ80PRY8A21D6VY28A0UV0", "current_trial": 1, "dateTime": 1508954680473, "trialdata": {"rt": 21334, "key_press": 32, "type": "INSTRUCTIONS", "trial_type": "text", "trial_index": 1, "time_elapsed": 24574, "internal_node_id": "0.0-1.0"}}, {"uniqueid": "MTK0004:340UGXU9DZ80PRY8A21D6VY28A0UV0", "current_trial": 2, "dateTime": 1508954689079, "trialdata": {"rt": [8575], "responses": ["ocean"], "type": "AUDIO_TEST", "trial_type": "audio-test", "trial_index": 2, "time_elapsed": 33180, "internal_node_id": "0.0-2.0"}}, {"uniqueid": "MTK0004:340UGXU9DZ80PRY8A21D6VY28A0UV0", "current_trial": 3, "dateTime": 1508954696915, "trialdata": {"rt": [7826], "responses": ["crystal"], "type": "AUDIO_TEST", "trial_type": "audio-test", "trial_index": 3, "time_elapsed": 41016, "internal_node_id": "0.0-3.0"}}, {"uniqueid": "MTK0004:340UGXU9DZ80PRY8A21D6VY28A0UV0", "current_trial": 4, "dateTime": 1508954704685, "trialdata": {"rt": [7760], "responses": ["spice"], "type": "AUDIO_TEST", "trial_type": "audio-test", "trial_index": 4, "time_elapsed": 48786, "internal_node_id": "0.0-4.0"}}, {"uniqueid": "MTK0004:340UGXU9DZ80PRY8A21D6VY28A0UV0", "current_trial": 5, "dateTime": 1508954709438, "trialdata": {"rt": 4000, "key_press": 32, "type": "INSTRUCTIONS", "trial_type": "text", "trial_index": 5, "time_elapsed": 53539, "internal_node_id": "0.0-5.0"}}, {"uniqueid": "MTK0004:340UGXU9DZ80PRY8A21D6VY28A0UV0", "current_trial": 6, "dateTime": 1508954825075, "trialdata": {"rt": 115633, "key_press": 32, "type": "INSTRUCTIONS", "trial_type": "text", "trial_index": 6, "time_elapsed": 169175, "internal_node_id": "0.0-6.0"}}, {"uniqueid": "MTK0004:340UGXU9DZ80PRY8A21D6VY28A0UV0", "current_trial": 7, "dateTime": 1508954841378, "trialdata": {"rt": 16300, "key_press": 32, "type": "INSTRUCTIONS", "trial_type": "text", "trial_index": 7, "time_elapsed": 185478, "internal_node_id": "0.0-7.0"}}, {"uniqueid": "MTK0004:340UGXU9DZ80PRY8A21D6VY28A0UV0", "current_trial": 8, "dateTime": 1508954883661, "trialdata": {"rt": 42281, "key_press": 32, "type": "INSTRUCTIONS", "trial_type": "text", "trial_index": 8, "time_elapsed": 227762, "internal_node_id": "0.0-8.0"}}, {"uniqueid": "MTK0004:340UGXU9DZ80PRY8A21D6VY28A0UV0", "current_trial": 9, "dateTime": 1508954902697, "trialdata": {"rt": [3643, 6320, 9090, 12867], "responses": ["14", "17", "14", "17"], "num1": [2, 8, 3, 8, 8], "num2": [6, 8, 4, 6, 5], "num3": [6, 1, 7, 3, 3], "type": "DISTRACTOR", "conditions": [18, 1200, "v", 18000], "trial": 0, "trial_type": "math-distractor", "trial_index": 9, "time_elapsed": 246797, "internal_node_id": "0.0-9.0"}}, {"uniqueid": "MTK0004:340UGXU9DZ80PRY8A21D6VY28A0UV0", "current_trial": 10, "dateTime": 1508954905714, "trialdata": {"rt": -1, "stimulus": "<p id=\"stim\">10</p>", "key_press": -1, "trial_type": "single-stim", "trial_index": 10, "time_elapsed": 249815, "internal_node_id": "0.0-10.0-0.0"}}, {"uniqueid": "MTK0004:340UGXU9DZ80PRY8A21D6VY28A0UV0", "current_trial": 11, "dateTime": 1508954906717, "trialdata": {"rt": -1, "stimulus": "<p id=\"stim\">9</p>", "key_press": -1, "trial_type": "single-stim", "trial_index": 11, "time_elapsed": 250818, "internal_node_id": "0.0-10.0-1.0"}}, {"uniqueid": "MTK0004:340UGXU9DZ80PRY8A21D6VY28A0UV0", "current_trial": 12, "dateTime": 1508954907729, "trialdata": {"rt": -1, "stimulus": "<p id=\"stim\">8</p>", "key_press": -1, "trial_type": "single-stim", "trial_index": 12, "time_elapsed": 251830, "internal_node_id": "0.0-10.0-2.0"}}, {"uniqueid": "MTK0004:340UGXU9DZ80PRY8A21D6VY28A0UV0", "current_trial": 13, "dateTime": 1508954908731, "trialdata": {"rt": -1, "stimulus": "<p id=\"stim\">7</p>", "key_press": -1, "trial_type": "single-stim", "trial_index": 13, "time_elapsed": 252832, "internal_node_id": "0.0-10.0-3.0"}}, {"uniqueid": "MTK0004:340UGXU9DZ80PRY8A21D6VY28A0UV0", "current_trial": 14, "dateTime": 1508954909732, "trialdata": {"rt": -1, "stimulus": "<p id=\"stim\">6</p>", "key_press": -1, "trial_type": "single-stim", "trial_index": 14, "time_elapsed": 253833, "internal_node_id": "0.0-10.0-4.0"}}, {"uniqueid": "MTK0004:340UGXU9DZ80PRY8A21D6VY28A0UV0", "current_trial": 15, "dateTime": 1508954910734, "trialdata": {"rt": -1, "stimulus": "<p id=\"stim\">5</p>", "key_press": -1, "trial_type": "single-stim", "trial_index": 15, "time_elapsed": 254835, "internal_node_id": "0.0-10.0-5.0"}}, {"uniqueid": "MTK0004:340UGXU9DZ80PRY8A21D6VY28A0UV0", "current_trial": 16, "dateTime": 1508954911735, "trialdata": {"rt": -1, "stimulus": "<p id=\"stim\">4</p>", "key_press": -1, "trial_type": "single-stim", "trial_index": 16, "time_elapsed": 255836, "internal_node_id": "0.0-10.0-6.0"}}, {"uniqueid": "MTK0004:340UGXU9DZ80PRY8A21D6VY28A0UV0", "current_trial": 17, "dateTime": 1508954912736, "trialdata": {"rt": -1, "stimulus": "<p id=\"stim\">3</p>", "key_press": -1, "trial_type": "single-stim", "trial_index": 17, "time_elapsed": 256837, "internal_node_id": "0.0-10.0-7.0"}}, {"uniqueid": "MTK0004:340UGXU9DZ80PRY8A21D6VY28A0UV0", "current_trial": 18, "dateTime": 1508954913740, "trialdata": {"rt": -1, "stimulus": "<p id=\"stim\">2</p>", "key_press": -1, "trial_type": "single-stim", "trial_index": 18, "time_elapsed": 257841, "internal_node_id": "0.0-10.0-8.0"}}, {"uniqueid": "MTK0004:340UGXU9DZ80PRY8A21D6VY28A0UV0", "current_trial": 19, "dateTime": 1508954914743, "trialdata": {"rt": -1, "stimulus": "<p id=\"stim\">1</p>", "key_press": -1, "trial_type": "single-stim", "trial_index": 19, "time_elapsed": 258843, "internal_node_id": "0.0-10.0-9.0"}}, {"uniqueid": "MTK0004:340UGXU9DZ80PRY8A21D6VY28A0UV0", "current_trial": 20, "dateTime": 1508954916254, "trialdata": {"rt": -1, "stimulus": "<p id=\"stim\">+</p>", "key_press": -1, "type": "FIXATION", "trial_type": "single-stim", "trial_index": 20, "time_elapsed": 260355, "internal_node_id": "0.0-11.0-0.0"}}, {"uniqueid": "MTK0004:340UGXU9DZ80PRY8A21D6VY28A0UV0", "current_trial": 21, "dateTime": 1508954917469, "trialdata": {"rt": -1, "stimulus": "<p id=\"stim\">CRITIC</p>", "key_press": -1, "type": "PRES_VIS", "word": "critic", "wordID": 409, "conditions": [18, 1200, "v", 18000], "trial": 0, "serialpos": 0, "trial_type": "single-stim", "trial_index": 21, "time_elapsed": 261569, "internal_node_id": "0.0-12.0"}}, {"uniqueid": "MTK0004:340UGXU9DZ80PRY8A21D6VY28A0UV0", "current_trial": 22, "dateTime": 1508954919515, "trialdata": {"rt": -1, "stimulus": "<p id=\"stim\">QUARTER</p>", "key_press": -1, "type": "PRES_VIS", "word": "quarter", "wordID": 1147, "conditions": [18, 1200, "v", 18000], "trial": 0, "serialpos": 1, "trial_type": "single-stim", "trial_index": 22, "time_elapsed": 263615, "internal_node_id": "0.0-13.0"}}, {"uniqueid": "MTK0004:340UGXU9DZ80PRY8A21D6VY28A0UV0", "current_trial": 23, "dateTime": 1508954921569, "trialdata": {"rt": -1, "stimulus": "<p id=\"stim\">MISSILE</p>", "key_press": -1, "type": "PRES_VIS", "word": "missile", "wordID": 899, "conditions": [18, 1200, "v", 18000], "trial": 0, "serialpos": 2, "trial_type": "single-stim", "trial_index": 23, "time_elapsed": 265669, "internal_node_id": "0.0-14.0"}}, {"uniqueid": "MTK0004:340UGXU9DZ80PRY8A21D6VY28A0UV0", "current_trial": 24, "dateTime": 1508954923754, "trialdata": {"rt": -1, "stimulus": "<p id=\"stim\">LUMBER</p>", "key_press": -1, "type": "PRES_VIS", "word": "lumber", "wordID": 847, "conditions": [18, 1200, "v", 18000], "trial": 0, "serialpos": 3, "trial_type": "single-stim", "trial_index": 24, "time_elapsed": 267855, "internal_node_id": "0.0-15.0"}}, {"uniqueid": "MTK0004:340UGXU9DZ80PRY8A21D6VY28A0UV0", "current_trial": 25, "dateTime": 1508954926022, "trialdata": {"rt": -1, "stimulus": "<p id=\"stim\">TUTU</p>", "key_press": -1, "type": "PRES_VIS", "word": "tutu", "wordID": 1523, "conditions": [18, 1200, "v", 18000], "trial": 0, "serialpos": 4, "trial_type": "single-stim", "trial_index": 25, "time_elapsed": 270123, "internal_node_id": "0.0-16.0"}}, {"uniqueid": "MTK0004:340UGXU9DZ80PRY8A21D6VY28A0UV0", "current_trial": 26, "dateTime": 1508954928324, "trialdata": {"rt": -1, "stimulus": "<p id=\"stim\">COUSIN</p>", "key_press": -1, "type": "PRES_VIS", "word": "cousin", "wordID": 391, "conditions": [18, 1200, "v", 18000], "trial": 0, "serialpos": 5, "trial_type": "single-stim", "trial_index": 26, "time_elapsed": 272425, "internal_node_id": "0.0-17.0"}}, {"uniqueid": "MTK0004:340UGXU9DZ80PRY8A21D6VY28A0UV0", "current_trial": 27, "dateTime": 1508954930381, "trialdata": {"rt": -1, "stimulus": "<p id=\"stim\">SLIME</p>", "key_press": -1, "type": "PRES_VIS", "word": "slime", "wordID": 1326, "conditions": [18, 1200, "v", 18000], "trial": 0, "serialpos": 6, "trial_type": "single-stim", "trial_index": 27, "time_elapsed": 274482, "internal_node_id": "0.0-18.0"}}, {"uniqueid": "MTK0004:340UGXU9DZ80PRY8A21D6VY28A0UV0", "current_trial": 28, "dateTime": 1508954932525, "trialdata": {"rt": -1, "stimulus": "<p id=\"stim\">FOOTBALL</p>", "key_press": -1, "type": "PRES_VIS", "word": "football", "wordID": 590, "conditions": [18, 1200, "v", 18000], "trial": 0, "serialpos": 7, "trial_type": "single-stim", "trial_index": 28, "time_elapsed": 276626, "internal_node_id": "0.0-19.0"}}, {"uniqueid": "MTK0004:340UGXU9DZ80PRY8A21D6VY28A0UV0", "current_trial": 29, "dateTime": 1508954934828, "trialdata": {"rt": -1, "stimulus": "<p id=\"stim\">FLEET</p>", "key_press": -1, "type": "PRES_VIS", "word": "fleet", "wordID": 577, "conditions": [18, 1200, "v", 18000], "trial": 0, "serialpos": 8, "trial_type": "single-stim", "trial_index": 29, "time_elapsed": 278929, "internal_node_id": "0.0-20.0"}}, {"uniqueid": "MTK0004:340UGXU9DZ80PRY8A21D6VY28A0UV0", "current_trial": 30, "dateTime": 1508954937218, "trialdata": {"rt": -1, "stimulus": "<p id=\"stim\">GLOBE</p>", "key_press": -1, "type": "PRES_VIS", "word": "globe", "wordID": 640, "conditions": [18, 1200, "v", 18000], "trial": 0, "serialpos": 9, "trial_type": "single-stim", "trial_index": 30, "time_elapsed": 281319, "internal_node_id": "0.0-21.0"}}, {"uniqueid": "MTK0004:340UGXU9DZ80PRY8A21D6VY28A0UV0", "current_trial": 31, "dateTime": 1508954939268, "trialdata": {"rt": -1, "stimulus": "<p id=\"stim\">SMOG</p>", "key_press": -1, "type": "PRES_VIS", "word": "smog", "wordID": 1329, "conditions": [18, 1200, "v", 18000], "trial": 0, "serialpos": 10, "trial_type": "single-stim", "trial_index": 31, "time_elapsed": 283368, "internal_node_id": "0.0-22.0"}}, {"uniqueid": "MTK0004:340UGXU9DZ80PRY8A21D6VY28A0UV0", "current_trial": 32, "dateTime": 1508954941674, "trialdata": {"rt": -1, "stimulus": "<p id=\"stim\">GRAVE</p>", "key_press": -1, "type": "PRES_VIS", "word": "grave", "wordID": 657, "conditions": [18, 1200, "v", 18000], "trial": 0, "serialpos": 11, "trial_type": "single-stim", "trial_index": 32, "time_elapsed": 285775, "internal_node_id": "0.0-23.0"}}, {"uniqueid": "MTK0004:340UGXU9DZ80PRY8A21D6VY28A0UV0", "current_trial": 33, "dateTime": 1508954943993, "trialdata": {"rt": -1, "stimulus": "<p id=\"stim\">COMPASS</p>", "key_press": -1, "type": "PRES_VIS", "word": "compass", "wordID": 357, "conditions": [18, 1200, "v", 18000], "trial": 0, "serialpos": 12, "trial_type": "single-stim", "trial_index": 33, "time_elapsed": 288093, "internal_node_id": "0.0-24.0"}}, {"uniqueid": "MTK0004:340UGXU9DZ80PRY8A21D6VY28A0UV0", "current_trial": 34, "dateTime": 1508954946223, "trialdata": {"rt": -1, "stimulus": "<p id=\"stim\">COBRA</p>", "key_press": -1, "type": "PRES_VIS", "word": "cobra", "wordID": 335, "conditions": [18, 1200, "v", 18000], "trial": 0, "serialpos": 13, "trial_type": "single-stim", "trial_index": 34, "time_elapsed": 290323, "internal_node_id": "0.0-25.0"}}, {"uniqueid": "MTK0004:340UGXU9DZ80PRY8A21D6VY28A0UV0", "current_trial": 35, "dateTime": 1508954948385, "trialdata": {"rt": -1, "stimulus": "<p id=\"stim\">LEG</p>", "key_press": -1, "type": "PRES_VIS", "word": "leg", "wordID": 808, "conditions": [18, 1200, "v", 18000], "trial": 0, "serialpos": 14, "trial_type": "single-stim", "trial_index": 35, "time_elapsed": 292486, "internal_node_id": "0.0-26.0"}}, {"uniqueid": "MTK0004:340UGXU9DZ80PRY8A21D6VY28A0UV0", "current_trial": 36, "dateTime": 1508954950434, "trialdata": {"rt": -1, "stimulus": "<p id=\"stim\">MUMMY</p>", "key_press": -1, "type": "PRES_VIS", "word": "mummy", "wordID": 931, "conditions": [18, 1200, "v", 18000], "trial": 0, "serialpos": 15, "trial_type": "single-stim", "trial_index": 36, "time_elapsed": 294535, "internal_node_id": "0.0-27.0"}}, {"uniqueid": "MTK0004:340UGXU9DZ80PRY8A21D6VY28A0UV0", "current_trial": 37, "dateTime": 1508954952794, "trialdata": {"rt": -1, "stimulus": "<p id=\"stim\">FEMALE</p>", "key_press": -1, "type": "PRES_VIS", "word": "female", "wordID": 558, "conditions": [18, 1200, "v", 18000], "trial": 0, "serialpos": 16, "trial_type": "single-stim", "trial_index": 37, "time_elapsed": 296895, "internal_node_id": "0.0-28.0"}}, {"uniqueid": "MTK0004:340UGXU9DZ80PRY8A21D6VY28A0UV0", "current_trial": 38, "dateTime": 1508954955125, "trialdata": {"rt": -1, "stimulus": "<p id=\"stim\">TRANSPLANT</p>", "key_press": -1, "type": "PRES_VIS", "word": "transplant", "wordID": 1495, "conditions": [18, 1200, "v", 18000], "trial": 0, "serialpos": 17, "trial_type": "single-stim", "trial_index": 38, "time_elapsed": 299226, "internal_node_id": "0.0-29.0"}}, {"uniqueid": "MTK0004:340UGXU9DZ80PRY8A21D6VY28A0UV0", "current_trial": 39, "dateTime": 1508954957456, "trialdata": {"rt": -1, "stimulus": "", "key_press": -1, "type": "PRE_RECALL_DELAY", "trial_type": "single-stim", "trial_index": 39, "time_elapsed": 301557, "internal_node_id": "0.0-30.0-0.0"}}, {"uniqueid": "MTK0004:340UGXU9DZ80PRY8A21D6VY28A0UV0", "current_trial": 40, "dateTime": 1508954957970, "trialdata": {"rt": -1000, "stimulus": "/static/audio/400Hz.wav", "key_press": -1, "type": "PRE_RECALL_ALERT", "trial_type": "single-audio", "trial_index": 40, "time_elapsed": 302071, "internal_node_id": "0.0-31.0"}}, {"uniqueid": "MTK0004:340UGXU9DZ80PRY8A21D6VY28A0UV0", "current_trial": 41, "dateTime": 1508955017980, "trialdata": {"rt": [3326, 5680, 6680, 10470, 11992, 16289, 20247, 23729, 27761, 33265, 51098], "recwords": ["mummy", "transplant", "tutu", "critic", "missile", "leg", "fleet", "globe", "quarter", "cousin", "compass"], "type": "FREE_RECALL", "conditions": [18, 1200, "v", 18000], "trial": 0, "trial_type": "free-recall", "trial_index": 41, "time_elapsed": 362081, "internal_node_id": "0.0-32.0-0.0"}}, {"uniqueid": "MTK0004:340UGXU9DZ80PRY8A21D6VY28A0UV0", "current_trial": 42, "dateTime": 1508955022070, "trialdata": {"rt": 2083, "key_press": 32, "type": "INSTRUCTIONS", "trial_type": "text", "trial_index": 42, "time_elapsed": 366171, "internal_node_id": "0.0-33.0"}}, {"uniqueid": "MTK0004:340UGXU9DZ80PRY8A21D6VY28A0UV0", "current_trial": 43, "dateTime": 1508955042102, "trialdata": {"rt": [4630, 8841, 12109, 16787], "responses": ["16", "13", "13", "13"], "num1": [4, 1, 4, 1, 3], "num2": [3, 5, 1, 5, 8], "num3": [9, 7, 8, 7, 8], "type": "DISTRACTOR", "conditions": [18, 1200, "a", 18000], "trial": 1, "trial_type": "math-distractor", "trial_index": 43, "time_elapsed": 386202, "internal_node_id": "0.0-34.0"}}, {"uniqueid": "MTK0004:340UGXU9DZ80PRY8A21D6VY28A0UV0", "current_trial": 44, "dateTime": 1508955045113, "trialdata": {"rt": -1, "stimulus": "<p id=\"stim\">10</p>", "key_press": -1, "trial_type": "single-stim", "trial_index": 44, "time_elapsed": 389213, "internal_node_id": "0.0-35.0-0.0"}}, {"uniqueid": "MTK0004:340UGXU9DZ80PRY8A21D6VY28A0UV0", "current_trial": 45, "dateTime": 1508955046115, "trialdata": {"rt": -1, "stimulus": "<p id=\"stim\">9</p>", "key_press": -1, "trial_type": "single-stim", "trial_index": 45, "time_elapsed": 390216, "internal_node_id": "0.0-35.0-1.0"}}, {"uniqueid": "MTK0004:340UGXU9DZ80PRY8A21D6VY28A0UV0", "current_trial": 46, "dateTime": 1508955047118, "trialdata": {"rt": -1, "stimulus": "<p id=\"stim\">8</p>", "key_press": -1, "trial_type": "single-stim", "trial_index": 46, "time_elapsed": 391219, "internal_node_id": "0.0-35.0-2.0"}}, {"uniqueid": "MTK0004:340UGXU9DZ80PRY8A21D6VY28A0UV0", "current_trial": 47, "dateTime": 1508955048126, "trialdata": {"rt": -1, "stimulus": "<p id=\"stim\">7</p>", "key_press": -1, "trial_type": "single-stim", "trial_index": 47, "time_elapsed": 392226, "internal_node_id": "0.0-35.0-3.0"}}, {"uniqueid": "MTK0004:340UGXU9DZ80PRY8A21D6VY28A0UV0", "current_trial": 48, "dateTime": 1508955049128, "trialdata": {"rt": -1, "stimulus": "<p id=\"stim\">6</p>", "key_press": -1, "trial_type": "single-stim", "trial_index": 48, "time_elapsed": 393228, "internal_node_id": "0.0-35.0-4.0"}}, {"uniqueid": "MTK0004:340UGXU9DZ80PRY8A21D6VY28A0UV0", "current_trial": 49, "dateTime": 1508955050130, "trialdata": {"rt": -1, "stimulus": "<p id=\"stim\">5</p>", "key_press": -1, "trial_type": "single-stim", "trial_index": 49, "time_elapsed": 394231, "internal_node_id": "0.0-35.0-5.0"}}, {"uniqueid": "MTK0004:340UGXU9DZ80PRY8A21D6VY28A0UV0", "current_trial": 50, "dateTime": 1508955051142, "trialdata": {"rt": -1, "stimulus": "<p id=\"stim\">4</p>", "key_press": -1, "trial_type": "single-stim", "trial_index": 50, "time_elapsed": 395243, "internal_node_id": "0.0-35.0-6.0"}}, {"uniqueid": "MTK0004:340UGXU9DZ80PRY8A21D6VY28A0UV0", "current_trial": 51, "dateTime": 1508955052145, "trialdata": {"rt": -1, "stimulus": "<p id=\"stim\">3</p>", "key_press": -1, "trial_type": "single-stim", "trial_index": 51, "time_elapsed": 396246, "internal_node_id": "0.0-35.0-7.0"}}, {"uniqueid": "MTK0004:340UGXU9DZ80PRY8A21D6VY28A0UV0", "current_trial": 52, "dateTime": 1508955053159, "trialdata": {"rt": -1, "stimulus": "<p id=\"stim\">2</p>", "key_press": -1, "trial_type": "single-stim", "trial_index": 52, "time_elapsed": 397259, "internal_node_id": "0.0-35.0-8.0"}}, {"uniqueid": "MTK0004:340UGXU9DZ80PRY8A21D6VY28A0UV0", "current_trial": 53, "dateTime": 1508955054161, "trialdata": {"rt": -1, "stimulus": "<p id=\"stim\">1</p>", "key_press": -1, "trial_type": "single-stim", "trial_index": 53, "time_elapsed": 398262, "internal_node_id": "0.0-35.0-9.0"}}, {"uniqueid": "MTK0004:340UGXU9DZ80PRY8A21D6VY28A0UV0", "current_trial": 54, "dateTime": 1508955055674, "trialdata": {"rt": -1, "stimulus": "<p id=\"stim\">+</p>", "key_press": -1, "type": "FIXATION", "trial_type": "single-stim", "trial_index": 54, "time_elapsed": 399774, "internal_node_id": "0.0-36.0-0.0"}}, {"uniqueid": "MTK0004:340UGXU9DZ80PRY8A21D6VY28A0UV0", "current_trial": 55, "dateTime": 1508955057760, "trialdata": {"rt": -1000, "stimulus": "/static/audio/wordpool/LIZARD.wav", "key_press": -1, "type": "PRES_AUD", "word": "lizard", "wordID": 833, "conditions": [18, 1200, "a", 18000], "trial": 1, "serialpos": 0, "trial_type": "single-audio", "trial_index": 55, "time_elapsed": 401861, "internal_node_id": "0.0-37.0"}}, {"uniqueid": "MTK0004:340UGXU9DZ80PRY8A21D6VY28A0UV0", "current_trial": 56, "dateTime": 1508955060068, "trialdata": {"rt": -1000, "stimulus": "/static/audio/wordpool/HOOD.wav", "key_press": -1, "type": "PRES_AUD", "word": "hood", "wordID": 713, "conditions": [18, 1200, "a", 18000], "trial": 1, "serialpos": 1, "trial_type": "single-audio", "trial_index": 56, "time_elapsed": 404169, "internal_node_id": "0.0-38.0"}}, {"uniqueid": "MTK0004:340UGXU9DZ80PRY8A21D6VY28A0UV0", "current_trial": 57, "dateTime": 1508955062183, "trialdata": {"rt": -1000, "stimulus": "/static/audio/wordpool/SIBLING.wav", "key_press": -1, "type": "PRES_AUD", "word": "sibling", "wordID": 1300, "conditions": [18, 1200, "a", 18000], "trial": 1, "serialpos": 2, "trial_type": "single-audio", "trial_index": 57, "time_elapsed": 406284, "internal_node_id": "0.0-39.0"}}, {"uniqueid": "MTK0004:340UGXU9DZ80PRY8A21D6VY28A0UV0", "current_trial": 58, "dateTime": 1508955064262, "trialdata": {"rt": -1000, "stimulus": "/static/audio/wordpool/GRAPE.wav", "key_press": -1, "type": "PRES_AUD", "word": "grape", "wordID": 653, "conditions": [18, 1200, "a", 18000], "trial": 1, "serialpos": 3, "trial_type": "single-audio", "trial_index": 58, "time_elapsed": 408363, "internal_node_id": "0.0-40.0"}}, {"uniqueid": "MTK0004:340UGXU9DZ80PRY8A21D6VY28A0UV0", "current_trial": 59, "dateTime": 1508955066412, "trialdata": {"rt": -1000, "stimulus": "/static/audio/wordpool/NURSE.wav", "key_press": -1, "type": "PRES_AUD", "word": "nurse", "wordID": 962, "conditions": [18, 1200, "a", 18000], "trial": 1, "serialpos": 4, "trial_type": "single-audio", "trial_index": 59, "time_elapsed": 410513, "internal_node_id": "0.0-41.0"}}, {"uniqueid": "MTK0004:340UGXU9DZ80PRY8A21D6VY28A0UV0", "current_trial": 60, "dateTime": 1508955068536, "trialdata": {"rt": -1000, "stimulus": "/static/audio/wordpool/PERFUME.wav", "key_press": -1, "type": "PRES_AUD", "word": "perfume", "wordID": 1048, "conditions": [18, 1200, "a", 18000], "trial": 1, "serialpos": 5, "trial_type": "single-audio", "trial_index": 60, "time_elapsed": 412637, "internal_node_id": "0.0-42.0"}}, {"uniqueid": "MTK0004:340UGXU9DZ80PRY8A21D6VY28A0UV0", "current_trial": 61, "dateTime": 1508955070848, "trialdata": {"rt": -1000, "stimulus": "/static/audio/wordpool/FINGER.wav", "key_press": -1, "type": "PRES_AUD", "word": "finger", "wordID": 566, "conditions": [18, 1200, "a", 18000], "trial": 1, "serialpos": 6, "trial_type": "single-audio", "trial_index": 61, "time_elapsed": 414949, "internal_node_id": "0.0-43.0"}}, {"uniqueid": "MTK0004:340UGXU9DZ80PRY8A21D6VY28A0UV0", "current_trial": 62, "dateTime": 1508955073118, "trialdata": {"rt": -1000, "stimulus": "/static/audio/wordpool/HAND.wav", "key_press": -1, "type": "PRES_AUD", "word": "hand", "wordID": 682, "conditions": [18, 1200, "a", 18000], "trial": 1, "serialpos": 7, "trial_type": "single-audio", "trial_index": 62, "time_elapsed": 417219, "internal_node_id": "0.0-44.0"}}, {"uniqueid": "MTK0004:340UGXU9DZ80PRY8A21D6VY28A0UV0", "current_trial": 63, "dateTime": 1508955075375, "trialdata": {"rt": -1000, "stimulus": "/static/audio/wordpool/GLOVE.wav", "key_press": -1, "type": "PRES_AUD", "word": "glove", "wordID": 641, "conditions": [18, 1200, "a", 18000], "trial": 1, "serialpos": 8, "trial_type": "single-audio", "trial_index": 63, "time_elapsed": 419475, "internal_node_id": "0.0-45.0"}}, {"uniqueid": "MTK0004:340UGXU9DZ80PRY8A21D6VY28A0UV0", "current_trial": 64, "dateTime": 1508955077784, "trialdata": {"rt": -1000, "stimulus": "/static/audio/wordpool/PASTRY.wav", "key_press": -1, "type": "PRES_AUD", "word": "pastry", "wordID": 1021, "conditions": [18, 1200, "a", 18000], "trial": 1, "serialpos": 9, "trial_type": "single-audio", "trial_index": 64, "time_elapsed": 421885, "internal_node_id": "0.0-46.0"}}, {"uniqueid": "MTK0004:340UGXU9DZ80PRY8A21D6VY28A0UV0", "current_trial": 65, "dateTime": 1508955079974, "trialdata": {"rt": -1000, "stimulus": "/static/audio/wordpool/GYMNAST.wav", "key_press": -1, "type": "PRES_AUD", "word": "gymnast", "wordID": 674, "conditions": [18, 1200, "a", 18000], "trial": 1, "serialpos": 10, "trial_type": "single-audio", "trial_index": 65, "time_elapsed": 424075, "internal_node_id": "0.0-47.0"}}, {"uniqueid": "MTK0004:340UGXU9DZ80PRY8A21D6VY28A0UV0", "current_trial": 66, "dateTime": 1508955082284, "trialdata": {"rt": -1000, "stimulus": "/static/audio/wordpool/HEDGE.wav", "key_press": -1, "type": "PRES_AUD", "word": "hedge", "wordID": 698, "conditions": [18, 1200, "a", 18000], "trial": 1, "serialpos": 11, "trial_type": "single-audio", "trial_index": 66, "time_elapsed": 426385, "internal_node_id": "0.0-48.0"}}, {"uniqueid": "MTK0004:340UGXU9DZ80PRY8A21D6VY28A0UV0", "current_trial": 67, "dateTime": 1508955084631, "trialdata": {"rt": -1000, "stimulus": "/static/audio/wordpool/PORTRAIT.wav", "key_press": -1, "type": "PRES_AUD", "word": "portrait", "wordID": 1110, "conditions": [18, 1200, "a", 18000], "trial": 1, "serialpos": 12, "trial_type": "single-audio", "trial_index": 67, "time_elapsed": 428731, "internal_node_id": "0.0-49.0"}}, {"uniqueid": "MTK0004:340UGXU9DZ80PRY8A21D6VY28A0UV0", "current_trial": 68, "dateTime": 1508955086731, "trialdata": {"rt": -1000, "stimulus": "/static/audio/wordpool/MUSTARD.wav", "key_press": -1, "type": "PRES_AUD", "word": "mustard", "wordID": 934, "conditions": [18, 1200, "a", 18000], "trial": 1, "serialpos": 13, "trial_type": "single-audio", "trial_index": 68, "time_elapsed": 430832, "internal_node_id": "0.0-50.0"}}, {"uniqueid": "MTK0004:340UGXU9DZ80PRY8A21D6VY28A0UV0", "current_trial": 69, "dateTime": 1508955088963, "trialdata": {"rt": -1000, "stimulus": "/static/audio/wordpool/EAGLE.wav", "key_press": -1, "type": "PRES_AUD", "word": "eagle", "wordID": 511, "conditions": [18, 1200, "a", 18000], "trial": 1, "serialpos": 14, "trial_type": "single-audio", "trial_index": 69, "time_elapsed": 433063, "internal_node_id": "0.0-51.0"}}, {"uniqueid": "MTK0004:340UGXU9DZ80PRY8A21D6VY28A0UV0", "current_trial": 70, "dateTime": 1508955091179, "trialdata": {"rt": -1000, "stimulus": "/static/audio/wordpool/FIREPLACE.wav", "key_press": -1, "type": "PRES_AUD", "word": "fireplace", "wordID": 569, "conditions": [18, 1200, "a", 18000], "trial": 1, "serialpos": 15, "trial_type": "single-audio", "trial_index": 70, "time_elapsed": 435280, "internal_node_id": "0.0-52.0"}}, {"uniqueid": "MTK0004:340UGXU9DZ80PRY8A21D6VY28A0UV0", "current_trial": 71, "dateTime": 1508955093260, "trialdata": {"rt": -1000, "stimulus": "/static/audio/wordpool/BUREAU.wav", "key_press": -1, "type": "PRES_AUD", "word": "bureau", "wordID": 198, "conditions": [18, 1200, "a", 18000], "trial": 1, "serialpos": 16, "trial_type": "single-audio", "trial_index": 71, "time_elapsed": 437361, "internal_node_id": "0.0-53.0"}}, {"uniqueid": "MTK0004:340UGXU9DZ80PRY8A21D6VY28A0UV0", "current_trial": 72, "dateTime": 1508955095541, "trialdata": {"rt": -1000, "stimulus": "/static/audio/wordpool/DOUGHNUT.wav", "key_press": -1, "type": "PRES_AUD", "word": "doughnut", "wordID": 489, "conditions": [18, 1200, "a", 18000], "trial": 1, "serialpos": 17, "trial_type": "single-audio", "trial_index": 72, "time_elapsed": 439641, "internal_node_id": "0.0-54.0"}}, {"uniqueid": "MTK0004:340UGXU9DZ80PRY8A21D6VY28A0UV0", "current_trial": 73, "dateTime": 1508955096917, "trialdata": {"rt": -1, "stimulus": "", "key_press": -1, "type": "PRE_RECALL_DELAY", "trial_type": "single-stim", "trial_index": 73, "time_elapsed": 441017, "internal_node_id": "0.0-55.0-0.0"}}, {"uniqueid": "MTK0004:340UGXU9DZ80PRY8A21D6VY28A0UV0", "current_trial": 74, "dateTime": 1508955097431, "trialdata": {"rt": -1000, "stimulus": "/static/audio/400Hz.wav", "key_press": -1, "type": "PRE_RECALL_ALERT", "trial_type": "single-audio", "trial_index": 74, "time_elapsed": 441532, "internal_node_id": "0.0-56.0"}}, {"uniqueid": "MTK0004:340UGXU9DZ80PRY8A21D6VY28A0UV0", "current_trial": 75, "dateTime": 1508955157448, "trialdata": {"rt": [3238, 5390, 6712, 9588, 10880, 12151, 14013, 42013], "recwords": ["mustard", "fireplace", "donut", "lizard", "finger", "glove", "nurse", "eagle"], "type": "FREE_RECALL", "conditions": [18, 1200, "a", 18000], "trial": 1, "trial_type": "free-recall", "trial_index": 75, "time_elapsed": 501549, "internal_node_id": "0.0-57.0-0.0"}}, {"uniqueid": "MTK0004:340UGXU9DZ80PRY8A21D6VY28A0UV0", "current_trial": 76, "dateTime": 1508955163543, "trialdata": {"rt": 4076, "key_press": 32, "type": "INSTRUCTIONS", "trial_type": "text", "trial_index": 76, "time_elapsed": 507644, "internal_node_id": "0.0-58.0"}}, {"uniqueid": "MTK0004:340UGXU9DZ80PRY8A21D6VY28A0UV0", "current_trial": 77, "dateTime": 1508955188567, "trialdata": {"rt": [3048, 6290, 8471, 11139, 13695, 16092, 19194, 23627], "responses": ["10", "21", "13", "15", "18", "11", "19", "15"], "num1": [2, 9, 3, 2, 8, 3, 7, 2, 5], "num2": [6, 3, 6, 8, 9, 3, 4, 5, 4], "num3": [2, 9, 4, 5, 1, 5, 8, 8, 4], "type": "DISTRACTOR", "conditions": [24, 800, "v", 24000], "trial": 2, "trial_type": "math-distractor", "trial_index": 77, "time_elapsed": 532667, "internal_node_id": "0.0-59.0"}}, {"uniqueid": "MTK0004:340UGXU9DZ80PRY8A21D6VY28A0UV0", "current_trial": 78, "dateTime": 1508955191592, "trialdata": {"rt": -1, "stimulus": "<p id=\"stim\">10</p>", "key_press": -1, "trial_type": "single-stim", "trial_index": 78, "time_elapsed": 535692, "internal_node_id": "0.0-60.0-0.0"}}, {"uniqueid": "MTK0004:340UGXU9DZ80PRY8A21D6VY28A0UV0", "current_trial": 79, "dateTime": 1508955192595, "trialdata": {"rt": -1, "stimulus": "<p id=\"stim\">9</p>", "key_press": -1, "trial_type": "single-stim", "trial_index": 79, "time_elapsed": 536695, "internal_node_id": "0.0-60.0-1.0"}}, {"uniqueid": "MTK0004:340UGXU9DZ80PRY8A21D6VY28A0UV0", "current_trial": 80, "dateTime": 1508955193599, "trialdata": {"rt": -1, "stimulus": "<p id=\"stim\">8</p>", "key_press": -1, "trial_type": "single-stim", "trial_index": 80, "time_elapsed": 537699, "internal_node_id": "0.0-60.0-2.0"}}, {"uniqueid": "MTK0004:340UGXU9DZ80PRY8A21D6VY28A0UV0", "current_trial": 81, "dateTime": 1508955194601, "trialdata": {"rt": -1, "stimulus": "<p id=\"stim\">7</p>", "key_press": -1, "trial_type": "single-stim", "trial_index": 81, "time_elapsed": 538702, "internal_node_id": "0.0-60.0-3.0"}}, {"uniqueid": "MTK0004:340UGXU9DZ80PRY8A21D6VY28A0UV0", "current_trial": 82, "dateTime": 1508955195607, "trialdata": {"rt": -1, "stimulus": "<p id=\"stim\">6</p>", "key_press": -1, "trial_type": "single-stim", "trial_index": 82, "time_elapsed": 539708, "internal_node_id": "0.0-60.0-4.0"}}, {"uniqueid": "MTK0004:340UGXU9DZ80PRY8A21D6VY28A0UV0", "current_trial": 83, "dateTime": 1508955196623, "trialdata": {"rt": -1, "stimulus": "<p id=\"stim\">5</p>", "key_press": -1, "trial_type": "single-stim", "trial_index": 83, "time_elapsed": 540724, "internal_node_id": "0.0-60.0-5.0"}}, {"uniqueid": "MTK0004:340UGXU9DZ80PRY8A21D6VY28A0UV0", "current_trial": 84, "dateTime": 1508955197633, "trialdata": {"rt": -1, "stimulus": "<p id=\"stim\">4</p>", "key_press": -1, "trial_type": "single-stim", "trial_index": 84, "time_elapsed": 541733, "internal_node_id": "0.0-60.0-6.0"}}, {"uniqueid": "MTK0004:340UGXU9DZ80PRY8A21D6VY28A0UV0", "current_trial": 85, "dateTime": 1508955198642, "trialdata": {"rt": -1, "stimulus": "<p id=\"stim\">3</p>", "key_press": -1, "trial_type": "single-stim", "trial_index": 85, "time_elapsed": 542743, "internal_node_id": "0.0-60.0-7.0"}}, {"uniqueid": "MTK0004:340UGXU9DZ80PRY8A21D6VY28A0UV0", "current_trial": 86, "dateTime": 1508955199648, "trialdata": {"rt": -1, "stimulus": "<p id=\"stim\">2</p>", "key_press": -1, "trial_type": "single-stim", "trial_index": 86, "time_elapsed": 543748, "internal_node_id": "0.0-60.0-8.0"}}, {"uniqueid": "MTK0004:340UGXU9DZ80PRY8A21D6VY28A0UV0", "current_trial": 87, "dateTime": 1508955200659, "trialdata": {"rt": -1, "stimulus": "<p id=\"stim\">1</p>", "key_press": -1, "trial_type": "single-stim", "trial_index": 87, "time_elapsed": 544759, "internal_node_id": "0.0-60.0-9.0"}}, {"uniqueid": "MTK0004:340UGXU9DZ80PRY8A21D6VY28A0UV0", "current_trial": 88, "dateTime": 1508955202164, "trialdata": {"rt": -1, "stimulus": "<p id=\"stim\">+</p>", "key_press": -1, "type": "FIXATION", "trial_type": "single-stim", "trial_index": 88, "time_elapsed": 546265, "internal_node_id": "0.0-61.0-0.0"}}, {"uniqueid": "MTK0004:340UGXU9DZ80PRY8A21D6VY28A0UV0", "current_trial": 89, "dateTime": 1508955202978, "trialdata": {"rt": -1, "stimulus": "<p id=\"stim\">HIKER</p>", "key_press": -1, "type": "PRES_VIS", "word": "hiker", "wordID": 707, "conditions": [24, 800, "v", 24000], "trial": 2, "serialpos": 0, "trial_type": "single-stim", "trial_index": 89, "time_elapsed": 547079, "internal_node_id": "0.0-62.0"}}, {"uniqueid": "MTK0004:340UGXU9DZ80PRY8A21D6VY28A0UV0", "current_trial": 90, "dateTime": 1508955204929, "trialdata": {"rt": -1, "stimulus": "<p id=\"stim\">GALLON</p>", "key_press": -1, "type": "PRES_VIS", "word": "gallon", "wordID": 617, "conditions": [24, 800, "v", 24000], "trial": 2, "serialpos": 1, "trial_type": "single-stim", "trial_index": 90, "time_elapsed": 549029, "internal_node_id": "0.0-63.0"}}, {"uniqueid": "MTK0004:340UGXU9DZ80PRY8A21D6VY28A0UV0", "current_trial": 91, "dateTime": 1508955206884, "trialdata": {"rt": -1, "stimulus": "<p id=\"stim\">VALLEY</p>", "key_press": -1, "type": "PRES_VIS", "word": "valley", "wordID": 1544, "conditions": [24, 800, "v", 24000], "trial": 2, "serialpos": 2, "trial_type": "single-stim", "trial_index": 91, "time_elapsed": 550985, "internal_node_id": "0.0-64.0"}}, {"uniqueid": "MTK0004:340UGXU9DZ80PRY8A21D6VY28A0UV0", "current_trial": 92, "dateTime": 1508955208792, "trialdata": {"rt": -1, "stimulus": "<p id=\"stim\">LAKE</p>", "key_press": -1, "type": "PRES_VIS", "word": "lake", "wordID": 795, "conditions": [24, 800, "v", 24000], "trial": 2, "serialpos": 3, "trial_type": "single-stim", "trial_index": 92, "time_elapsed": 552893, "internal_node_id": "0.0-65.0"}}, {"uniqueid": "MTK0004:340UGXU9DZ80PRY8A21D6VY28A0UV0", "current_trial": 93, "dateTime": 1508955210623, "trialdata": {"rt": -1, "stimulus": "<p id=\"stim\">TURTLE</p>", "key_press": -1, "type": "PRES_VIS", "word": "turtle", "wordID": 1521, "conditions": [24, 800, "v", 24000], "trial": 2, "serialpos": 4, "trial_type": "single-stim", "trial_index": 93, "time_elapsed": 554724, "internal_node_id": "0.0-66.0"}}, {"uniqueid": "MTK0004:340UGXU9DZ80PRY8A21D6VY28A0UV0", "current_trial": 94, "dateTime": 1508955212353, "trialdata": {"rt": -1, "stimulus": "<p id=\"stim\">PREACHER</p>", "key_press": -1, "type": "PRES_VIS", "word": "preacher", "wordID": 1118, "conditions": [24, 800, "v", 24000], "trial": 2, "serialpos": 5, "trial_type": "single-stim", "trial_index": 94, "time_elapsed": 556454, "internal_node_id": "0.0-67.0"}}, {"uniqueid": "MTK0004:340UGXU9DZ80PRY8A21D6VY28A0UV0", "current_trial": 95, "dateTime": 1508955214226, "trialdata": {"rt": -1, "stimulus": "<p id=\"stim\">PERMIT</p>", "key_press": -1, "type": "PRES_VIS", "word": "permit", "wordID": 1050, "conditions": [24, 800, "v", 24000], "trial": 2, "serialpos": 6, "trial_type": "single-stim", "trial_index": 95, "time_elapsed": 558327, "internal_node_id": "0.0-68.0"}}, {"uniqueid": "MTK0004:340UGXU9DZ80PRY8A21D6VY28A0UV0", "current_trial": 96, "dateTime": 1508955215989, "trialdata": {"rt": -1, "stimulus": "<p id=\"stim\">TRACTOR</p>", "key_press": -1, "type": "PRES_VIS", "word": "tractor", "wordID": 1492, "conditions": [24, 800, "v", 24000], "trial": 2, "serialpos": 7, "trial_type": "single-stim", "trial_index": 96, "time_elapsed": 560089, "internal_node_id": "0.0-69.0"}}, {"uniqueid": "MTK0004:340UGXU9DZ80PRY8A21D6VY28A0UV0", "current_trial": 97, "dateTime": 1508955217703, "trialdata": {"rt": -1, "stimulus": "<p id=\"stim\">GIRL</p>", "key_press": -1, "type": "PRES_VIS", "word": "girl", "wordID": 636, "conditions": [24, 800, "v", 24000], "trial": 2, "serialpos": 8, "trial_type": "single-stim", "trial_index": 97, "time_elapsed": 561804, "internal_node_id": "0.0-70.0"}}, {"uniqueid": "MTK0004:340UGXU9DZ80PRY8A21D6VY28A0UV0", "current_trial": 98, "dateTime": 1508955219430, "trialdata": {"rt": -1, "stimulus": "<p id=\"stim\">BABY</p>", "key_press": -1, "type": "PRES_VIS", "word": "baby", "wordID": 63, "conditions": [24, 800, "v", 24000], "trial": 2, "serialpos": 9, "trial_type": "single-stim", "trial_index": 98, "time_elapsed": 563531, "internal_node_id": "0.0-71.0"}}, {"uniqueid": "MTK0004:340UGXU9DZ80PRY8A21D6VY28A0UV0", "current_trial": 99, "dateTime": 1508955221083, "trialdata": {"rt": -1, "stimulus": "<p id=\"stim\">CLIMBER</p>", "key_press": -1, "type": "PRES_VIS", "word": "climber", "wordID": 322, "conditions": [24, 800, "v", 24000], "trial": 2, "serialpos": 10, "trial_type": "single-stim", "trial_index": 99, "time_elapsed": 565183, "internal_node_id": "0.0-72.0"}}, {"uniqueid": "MTK0004:340UGXU9DZ80PRY8A21D6VY28A0UV0", "current_trial": 100, "dateTime": 1508955222923, "trialdata": {"rt": -1, "stimulus": "<p id=\"stim\">LODGE</p>", "key_press": -1, "type": "PRES_VIS", "word": "lodge", "wordID": 838, "conditions": [24, 800, "v", 24000], "trial": 2, "serialpos": 11, "trial_type": "single-stim", "trial_index": 100, "time_elapsed": 567023, "internal_node_id": "0.0-73.0"}}, {"uniqueid": "MTK0004:340UGXU9DZ80PRY8A21D6VY28A0UV0", "current_trial": 101, "dateTime": 1508955224848, "trialdata": {"rt": -1, "stimulus": "<p id=\"stim\">CRICKET</p>", "key_press": -1, "type": "PRES_VIS", "word": "cricket", "wordID": 407, "conditions": [24, 800, "v", 24000], "trial": 2, "serialpos": 12, "trial_type": "single-stim", "trial_index": 101, "time_elapsed": 568949, "internal_node_id": "0.0-74.0"}}, {"uniqueid": "MTK0004:340UGXU9DZ80PRY8A21D6VY28A0UV0", "current_trial": 102, "dateTime": 1508955226594, "trialdata": {"rt": -1, "stimulus": "<p id=\"stim\">KETCHUP</p>", "key_press": -1, "type": "PRES_VIS", "word": "ketchup", "wordID": 770, "conditions": [24, 800, "v", 24000], "trial": 2, "serialpos": 13, "trial_type": "single-stim", "trial_index": 102, "time_elapsed": 570695, "internal_node_id": "0.0-75.0"}}, {"uniqueid": "MTK0004:340UGXU9DZ80PRY8A21D6VY28A0UV0", "current_trial": 103, "dateTime": 1508955228276, "trialdata": {"rt": -1, "stimulus": "<p id=\"stim\">LEOPARD</p>", "key_press": -1, "type": "PRES_VIS", "word": "leopard", "wordID": 811, "conditions": [24, 800, "v", 24000], "trial": 2, "serialpos": 14, "trial_type": "single-stim", "trial_index": 103, "time_elapsed": 572377, "internal_node_id": "0.0-76.0"}}, {"uniqueid": "MTK0004:340UGXU9DZ80PRY8A21D6VY28A0UV0", "current_trial": 104, "dateTime": 1508955230207, "trialdata": {"rt": -1, "stimulus": "<p id=\"stim\">SHERIFF</p>", "key_press": -1, "type": "PRES_VIS", "word": "sheriff", "wordID": 1283, "conditions": [24, 800, "v", 24000], "trial": 2, "serialpos": 15, "trial_type": "single-stim", "trial_index": 104, "time_elapsed": 574308, "internal_node_id": "0.0-77.0"}}, {"uniqueid": "MTK0004:340UGXU9DZ80PRY8A21D6VY28A0UV0", "current_trial": 105, "dateTime": 1508955231849, "trialdata": {"rt": -1, "stimulus": "<p id=\"stim\">PIGEON</p>", "key_press": -1, "type": "PRES_VIS", "word": "pigeon", "wordID": 1064, "conditions": [24, 800, "v", 24000], "trial": 2, "serialpos": 16, "trial_type": "single-stim", "trial_index": 105, "time_elapsed": 575949, "internal_node_id": "0.0-78.0"}}, {"uniqueid": "MTK0004:340UGXU9DZ80PRY8A21D6VY28A0UV0", "current_trial": 106, "dateTime": 1508955233582, "trialdata": {"rt": -1, "stimulus": "<p id=\"stim\">LUGGAGE</p>", "key_press": -1, "type": "PRES_VIS", "word": "luggage", "wordID": 846, "conditions": [24, 800, "v", 24000], "trial": 2, "serialpos": 17, "trial_type": "single-stim", "trial_index": 106, "time_elapsed": 577683, "internal_node_id": "0.0-79.0"}}, {"uniqueid": "MTK0004:340UGXU9DZ80PRY8A21D6VY28A0UV0", "current_trial": 107, "dateTime": 1508955235355, "trialdata": {"rt": -1, "stimulus": "<p id=\"stim\">SUITCASE</p>", "key_press": -1, "type": "PRES_VIS", "word": "suitcase", "wordID": 1402, "conditions": [24, 800, "v", 24000], "trial": 2, "serialpos": 18, "trial_type": "single-stim", "trial_index": 107, "time_elapsed": 579455, "internal_node_id": "0.0-80.0"}}, {"uniqueid": "MTK0004:340UGXU9DZ80PRY8A21D6VY28A0UV0", "current_trial": 108, "dateTime": 1508955237321, "trialdata": {"rt": -1, "stimulus": "<p id=\"stim\">TABLET</p>", "key_press": -1, "type": "PRES_VIS", "word": "tablet", "wordID": 1426, "conditions": [24, 800, "v", 24000], "trial": 2, "serialpos": 19, "trial_type": "single-stim", "trial_index": 108, "time_elapsed": 581422, "internal_node_id": "0.0-81.0"}}, {"uniqueid": "MTK0004:340UGXU9DZ80PRY8A21D6VY28A0UV0", "current_trial": 109, "dateTime": 1508955239182, "trialdata": {"rt": -1, "stimulus": "<p id=\"stim\">SERVER</p>", "key_press": -1, "type": "PRES_VIS", "word": "server", "wordID": 1271, "conditions": [24, 800, "v", 24000], "trial": 2, "serialpos": 20, "trial_type": "single-stim", "trial_index": 109, "time_elapsed": 583283, "internal_node_id": "0.0-82.0"}}, {"uniqueid": "MTK0004:340UGXU9DZ80PRY8A21D6VY28A0UV0", "current_trial": 110, "dateTime": 1508955241078, "trialdata": {"rt": -1, "stimulus": "<p id=\"stim\">COUNTY</p>", "key_press": -1, "type": "PRES_VIS", "word": "county", "wordID": 388, "conditions": [24, 800, "v", 24000], "trial": 2, "serialpos": 21, "trial_type": "single-stim", "trial_index": 110, "time_elapsed": 585178, "internal_node_id": "0.0-83.0"}}, {"uniqueid": "MTK0004:340UGXU9DZ80PRY8A21D6VY28A0UV0", "current_trial": 111, "dateTime": 1508955243017, "trialdata": {"rt": -1, "stimulus": "<p id=\"stim\">LEADER</p>", "key_press": -1, "type": "PRES_VIS", "word": "leader", "wordID": 806, "conditions": [24, 800, "v", 24000], "trial": 2, "serialpos": 22, "trial_type": "single-stim", "trial_index": 111, "time_elapsed": 587118, "internal_node_id": "0.0-84.0"}}, {"uniqueid": "MTK0004:340UGXU9DZ80PRY8A21D6VY28A0UV0", "current_trial": 112, "dateTime": 1508955244975, "trialdata": {"rt": -1, "stimulus": "<p id=\"stim\">RACKET</p>", "key_press": -1, "type": "PRES_VIS", "word": "racket", "wordID": 1154, "conditions": [24, 800, "v", 24000], "trial": 2, "serialpos": 23, "trial_type": "single-stim", "trial_index": 112, "time_elapsed": 589076, "internal_node_id": "0.0-85.0"}}, {"uniqueid": "MTK0004:340UGXU9DZ80PRY8A21D6VY28A0UV0", "current_trial": 113, "dateTime": 1508955247492, "trialdata": {"rt": -1, "stimulus": "", "key_press": -1, "type": "PRE_RECALL_DELAY", "trial_type": "single-stim", "trial_index": 113, "time_elapsed": 591592, "internal_node_id": "0.0-86.0-0.0"}}, {"uniqueid": "MTK0004:340UGXU9DZ80PRY8A21D6VY28A0UV0", "current_trial": 114, "dateTime": 1508955248001, "trialdata": {"rt": -1000, "stimulus": "/static/audio/400Hz.wav", "key_press": -1, "type": "PRE_RECALL_ALERT", "trial_type": "single-audio", "trial_index": 114, "time_elapsed": 592102, "internal_node_id": "0.0-87.0"}}, {"uniqueid": "MTK0004:340UGXU9DZ80PRY8A21D6VY28A0UV0", "current_trial": 115, "dateTime": 1508955308011, "trialdata": {"rt": [2133, 3534, 4731, 8918, 9738, 11090, 13682, 15174, 16655, 20068, 22166, 24797, 28023, 29796], "recwords": ["county", "leader", "racket", "sherriff", "lake", "gallon", "server", "hiker", "lodge", "climber", "luggage", "suitcase", "baby", "girl"], "type": "FREE_RECALL", "conditions": [24, 800, "v", 24000], "trial": 2, "trial_type": "free-recall", "trial_index": 115, "time_elapsed": 652111, "internal_node_id": "0.0-88.0-0.0"}}, {"uniqueid": "MTK0004:340UGXU9DZ80PRY8A21D6VY28A0UV0", "current_trial": 116, "dateTime": 1508955311622, "trialdata": {"rt": 1605, "key_press": 32, "type": "INSTRUCTIONS", "trial_type": "text", "trial_index": 116, "time_elapsed": 655722, "internal_node_id": "0.0-89.0"}}, {"uniqueid": "MTK0004:340UGXU9DZ80PRY8A21D6VY28A0UV0", "current_trial": 117, "dateTime": 1508955325645, "trialdata": {"rt": [4571, 6118, 9880], "responses": ["16", "11", "17"], "num1": [7, 8, 9, 7], "num2": [3, 2, 3, 8], "num3": [6, 1, 5, 8], "type": "DISTRACTOR", "conditions": [24, 800, "a", 12000], "trial": 3, "trial_type": "math-distractor", "trial_index": 117, "time_elapsed": 669746, "internal_node_id": "0.0-90.0"}}, {"uniqueid": "MTK0004:340UGXU9DZ80PRY8A21D6VY28A0UV0", "current_trial": 118, "dateTime": 1508955328692, "trialdata": {"rt": -1, "stimulus": "<p id=\"stim\">10</p>", "key_press": -1, "trial_type": "single-stim", "trial_index": 118, "time_elapsed": 672792, "internal_node_id": "0.0-91.0-0.0"}}, {"uniqueid": "MTK0004:340UGXU9DZ80PRY8A21D6VY28A0UV0", "current_trial": 119, "dateTime": 1508955329712, "trialdata": {"rt": -1, "stimulus": "<p id=\"stim\">9</p>", "key_press": -1, "trial_type": "single-stim", "trial_index": 119, "time_elapsed": 673812, "internal_node_id": "0.0-91.0-1.0"}}, {"uniqueid": "MTK0004:340UGXU9DZ80PRY8A21D6VY28A0UV0", "current_trial": 120, "dateTime": 1508955330759, "trialdata": {"rt": -1, "stimulus": "<p id=\"stim\">8</p>", "key_press": -1, "trial_type": "single-stim", "trial_index": 120, "time_elapsed": 674860, "internal_node_id": "0.0-91.0-2.0"}}, {"uniqueid": "MTK0004:340UGXU9DZ80PRY8A21D6VY28A0UV0", "current_trial": 121, "dateTime": 1508955331782, "trialdata": {"rt": -1, "stimulus": "<p id=\"stim\">7</p>", "key_press": -1, "trial_type": "single-stim", "trial_index": 121, "time_elapsed": 675882, "internal_node_id": "0.0-91.0-3.0"}}, {"uniqueid": "MTK0004:340UGXU9DZ80PRY8A21D6VY28A0UV0", "current_trial": 122, "dateTime": 1508955332824, "trialdata": {"rt": -1, "stimulus": "<p id=\"stim\">6</p>", "key_press": -1, "trial_type": "single-stim", "trial_index": 122, "time_elapsed": 676925, "internal_node_id": "0.0-91.0-4.0"}}, {"uniqueid": "MTK0004:340UGXU9DZ80PRY8A21D6VY28A0UV0", "current_trial": 123, "dateTime": 1508955333830, "trialdata": {"rt": 999, "stimulus": "<p id=\"stim\">5</p>", "key_press": 17, "trial_type": "single-stim", "trial_index": 123, "time_elapsed": 677931, "internal_node_id": "0.0-91.0-5.0"}}, {"uniqueid": "MTK0004:340UGXU9DZ80PRY8A21D6VY28A0UV0", "current_trial": 124, "dateTime": 1508955334857, "trialdata": {"rt": 299, "stimulus": "<p id=\"stim\">4</p>", "key_press": 117, "trial_type": "single-stim", "trial_index": 124, "time_elapsed": 678958, "internal_node_id": "0.0-91.0-6.0"}}, {"uniqueid": "MTK0004:340UGXU9DZ80PRY8A21D6VY28A0UV0", "current_trial": 125, "dateTime": 1508955335869, "trialdata": {"rt": -1, "stimulus": "<p id=\"stim\">3</p>", "key_press": -1, "trial_type": "single-stim", "trial_index": 125, "time_elapsed": 679969, "internal_node_id": "0.0-91.0-7.0"}}, {"uniqueid": "MTK0004:340UGXU9DZ80PRY8A21D6VY28A0UV0", "current_trial": 126, "dateTime": 1508955336898, "trialdata": {"rt": -1, "stimulus": "<p id=\"stim\">2</p>", "key_press": -1, "trial_type": "single-stim", "trial_index": 126, "time_elapsed": 680999, "internal_node_id": "0.0-91.0-8.0"}}, {"uniqueid": "MTK0004:340UGXU9DZ80PRY8A21D6VY28A0UV0", "current_trial": 127, "dateTime": 1508955337916, "trialdata": {"rt": -1, "stimulus": "<p id=\"stim\">1</p>", "key_press": -1, "trial_type": "single-stim", "trial_index": 127, "time_elapsed": 682017, "internal_node_id": "0.0-91.0-9.0"}}, {"uniqueid": "MTK0004:340UGXU9DZ80PRY8A21D6VY28A0UV0", "current_trial": 128, "dateTime": 1508955339427, "trialdata": {"rt": -1, "stimulus": "<p id=\"stim\">+</p>", "key_press": -1, "type": "FIXATION", "trial_type": "single-stim", "trial_index": 128, "time_elapsed": 683528, "internal_node_id": "0.0-92.0-0.0"}}, {"uniqueid": "MTK0004:340UGXU9DZ80PRY8A21D6VY28A0UV0", "current_trial": 129, "dateTime": 1508955341078, "trialdata": {"rt": -1000, "stimulus": "/static/audio/wordpool/PASTA.wav", "key_press": -1, "type": "PRES_AUD", "word": "pasta", "wordID": 1020, "conditions": [24, 800, "a", 12000], "trial": 3, "serialpos": 0, "trial_type": "single-audio", "trial_index": 129, "time_elapsed": 685179, "internal_node_id": "0.0-93.0"}}, {"uniqueid": "MTK0004:340UGXU9DZ80PRY8A21D6VY28A0UV0", "current_trial": 130, "dateTime": 1508955342832, "trialdata": {"rt": -1000, "stimulus": "/static/audio/wordpool/DENIM.wav", "key_press": -1, "type": "PRES_AUD", "word": "denim", "wordID": 445, "conditions": [24, 800, "a", 12000], "trial": 3, "serialpos": 1, "trial_type": "single-audio", "trial_index": 130, "time_elapsed": 686933, "internal_node_id": "0.0-94.0"}}, {"uniqueid": "MTK0004:340UGXU9DZ80PRY8A21D6VY28A0UV0", "current_trial": 131, "dateTime": 1508955344779, "trialdata": {"rt": -1000, "stimulus": "/static/audio/wordpool/GIFT.wav", "key_press": -1, "type": "PRES_AUD", "word": "gift", "wordID": 634, "conditions": [24, 800, "a", 12000], "trial": 3, "serialpos": 2, "trial_type": "single-audio", "trial_index": 131, "time_elapsed": 688879, "internal_node_id": "0.0-95.0"}}, {"uniqueid": "MTK0004:340UGXU9DZ80PRY8A21D6VY28A0UV0", "current_trial": 132, "dateTime": 1508955346604, "trialdata": {"rt": -1000, "stimulus": "/static/audio/wordpool/COSTUME.wav", "key_press": -1, "type": "PRES_AUD", "word": "costume", "wordID": 382, "conditions": [24, 800, "a", 12000], "trial": 3, "serialpos": 3, "trial_type": "single-audio", "trial_index": 132, "time_elapsed": 690705, "internal_node_id": "0.0-96.0"}}, {"uniqueid": "MTK0004:340UGXU9DZ80PRY8A21D6VY28A0UV0", "current_trial": 133, "dateTime": 1508955348410, "trialdata": {"rt": -1000, "stimulus": "/static/audio/wordpool/PACKAGE.wav", "key_press": -1, "type": "PRES_AUD", "word": "package", "wordID": 996, "conditions": [24, 800, "a", 12000], "trial": 3, "serialpos": 4, "trial_type": "single-audio", "trial_index": 133, "time_elapsed": 692510, "internal_node_id": "0.0-97.0"}}, {"uniqueid": "MTK0004:340UGXU9DZ80PRY8A21D6VY28A0UV0", "current_trial": 134, "dateTime": 1508955350262, "trialdata": {"rt": -1000, "stimulus": "/static/audio/wordpool/SUPPER.wav", "key_press": -1, "type": "PRES_AUD", "word": "supper", "wordID": 1410, "conditions": [24, 800, "a", 12000], "trial": 3, "serialpos": 5, "trial_type": "single-audio", "trial_index": 134, "time_elapsed": 694363, "internal_node_id": "0.0-98.0"}}, {"uniqueid": "MTK0004:340UGXU9DZ80PRY8A21D6VY28A0UV0", "current_trial": 135, "dateTime": 1508955352039, "trialdata": {"rt": -1000, "stimulus": "/static/audio/wordpool/BANQUET.wav", "key_press": -1, "type": "PRES_AUD", "word": "banquet", "wordID": 85, "conditions": [24, 800, "a", 12000], "trial": 3, "serialpos": 6, "trial_type": "single-audio", "trial_index": 135, "time_elapsed": 696140, "internal_node_id": "0.0-99.0"}}, {"uniqueid": "MTK0004:340UGXU9DZ80PRY8A21D6VY28A0UV0", "current_trial": 136, "dateTime": 1508955353978, "trialdata": {"rt": -1000, "stimulus": "/static/audio/wordpool/DRESS.wav", "key_press": -1, "type": "PRES_AUD", "word": "dress", "wordID": 494, "conditions": [24, 800, "a", 12000], "trial": 3, "serialpos": 7, "trial_type": "single-audio", "trial_index": 136, "time_elapsed": 698079, "internal_node_id": "0.0-100.0"}}, {"uniqueid": "MTK0004:340UGXU9DZ80PRY8A21D6VY28A0UV0", "current_trial": 137, "dateTime": 1508955355851, "trialdata": {"rt": -1000, "stimulus": "/static/audio/wordpool/BINDER.wav", "key_press": -1, "type": "PRES_AUD", "word": "binder", "wordID": 126, "conditions": [24, 800, "a", 12000], "trial": 3, "serialpos": 8, "trial_type": "single-audio", "trial_index": 137, "time_elapsed": 699951, "internal_node_id": "0.0-101.0"}}, {"uniqueid": "MTK0004:340UGXU9DZ80PRY8A21D6VY28A0UV0", "current_trial": 138, "dateTime": 1508955357740, "trialdata": {"rt": -1000, "stimulus": "/static/audio/wordpool/THREAD.wav", "key_press": -1, "type": "PRES_AUD", "word": "thread", "wordID": 1459, "conditions": [24, 800, "a", 12000], "trial": 3, "serialpos": 9, "trial_type": "single-audio", "trial_index": 138, "time_elapsed": 701840, "internal_node_id": "0.0-102.0"}}, {"uniqueid": "MTK0004:340UGXU9DZ80PRY8A21D6VY28A0UV0", "current_trial": 139, "dateTime": 1508955359720, "trialdata": {"rt": -1000, "stimulus": "/static/audio/wordpool/PROTON.wav", "key_press": -1, "type": "PRES_AUD", "word": "proton", "wordID": 1131, "conditions": [24, 800, "a", 12000], "trial": 3, "serialpos": 10, "trial_type": "single-audio", "trial_index": 139, "time_elapsed": 703821, "internal_node_id": "0.0-103.0"}}, {"uniqueid": "MTK0004:340UGXU9DZ80PRY8A21D6VY28A0UV0", "current_trial": 140, "dateTime": 1508955361564, "trialdata": {"rt": -1000, "stimulus": "/static/audio/wordpool/COFFEE.wav", "key_press": -1, "type": "PRES_AUD", "word": "coffee", "wordID": 340, "conditions": [24, 800, "a", 12000], "trial": 3, "serialpos": 11, "trial_type": "single-audio", "trial_index": 140, "time_elapsed": 705665, "internal_node_id": "0.0-104.0"}}, {"uniqueid": "MTK0004:340UGXU9DZ80PRY8A21D6VY28A0UV0", "current_trial": 141, "dateTime": 1508955363286, "trialdata": {"rt": -1000, "stimulus": "/static/audio/wordpool/CHIPMUNK.wav", "key_press": -1, "type": "PRES_AUD", "word": "chipmunk", "wordID": 303, "conditions": [24, 800, "a", 12000], "trial": 3, "serialpos": 12, "trial_type": "single-audio", "trial_index": 141, "time_elapsed": 707387, "internal_node_id": "0.0-105.0"}}, {"uniqueid": "MTK0004:340UGXU9DZ80PRY8A21D6VY28A0UV0", "current_trial": 142, "dateTime": 1508955364965, "trialdata": {"rt": -1000, "stimulus": "/static/audio/wordpool/PILOT.wav", "key_press": -1, "type": "PRES_AUD", "word": "pilot", "wordID": 1069, "conditions": [24, 800, "a", 12000], "trial": 3, "serialpos": 13, "trial_type": "single-audio", "trial_index": 142, "time_elapsed": 709065, "internal_node_id": "0.0-106.0"}}, {"uniqueid": "MTK0004:340UGXU9DZ80PRY8A21D6VY28A0UV0", "current_trial": 143, "dateTime": 1508955366934, "trialdata": {"rt": -1000, "stimulus": "/static/audio/wordpool/BANKER.wav", "key_press": -1, "type": "PRES_AUD", "word": "banker", "wordID": 83, "conditions": [24, 800, "a", 12000], "trial": 3, "serialpos": 14, "trial_type": "single-audio", "trial_index": 143, "time_elapsed": 711035, "internal_node_id": "0.0-107.0"}}, {"uniqueid": "MTK0004:340UGXU9DZ80PRY8A21D6VY28A0UV0", "current_trial": 144, "dateTime": 1508955368801, "trialdata": {"rt": -1000, "stimulus": "/static/audio/wordpool/FRECKLE.wav", "key_press": -1, "type": "PRES_AUD", "word": "freckle", "wordID": 601, "conditions": [24, 800, "a", 12000], "trial": 3, "serialpos": 15, "trial_type": "single-audio", "trial_index": 144, "time_elapsed": 712901, "internal_node_id": "0.0-108.0"}}, {"uniqueid": "MTK0004:340UGXU9DZ80PRY8A21D6VY28A0UV0", "current_trial": 145, "dateTime": 1508955370520, "trialdata": {"rt": -1000, "stimulus": "/static/audio/wordpool/PARROT.wav", "key_press": -1, "type": "PRES_AUD", "word": "parrot", "wordID": 1014, "conditions": [24, 800, "a", 12000], "trial": 3, "serialpos": 16, "trial_type": "single-audio", "trial_index": 145, "time_elapsed": 714620, "internal_node_id": "0.0-109.0"}}, {"uniqueid": "MTK0004:340UGXU9DZ80PRY8A21D6VY28A0UV0", "current_trial": 146, "dateTime": 1508955372320, "trialdata": {"rt": -1000, "stimulus": "/static/audio/wordpool/GANGSTER.wav", "key_press": -1, "type": "PRES_AUD", "word": "gangster", "wordID": 619, "conditions": [24, 800, "a", 12000], "trial": 3, "serialpos": 17, "trial_type": "single-audio", "trial_index": 146, "time_elapsed": 716420, "internal_node_id": "0.0-110.0"}}, {"uniqueid": "MTK0004:340UGXU9DZ80PRY8A21D6VY28A0UV0", "current_trial": 147, "dateTime": 1508955374251, "trialdata": {"rt": -1000, "stimulus": "/static/audio/wordpool/TOMBSTONE.wav", "key_press": -1, "type": "PRES_AUD", "word": "tombstone", "wordID": 1477, "conditions": [24, 800, "a", 12000], "trial": 3, "serialpos": 18, "trial_type": "single-audio", "trial_index": 147, "time_elapsed": 718352, "internal_node_id": "0.0-111.0"}}, {"uniqueid": "MTK0004:340UGXU9DZ80PRY8A21D6VY28A0UV0", "current_trial": 148, "dateTime": 1508955376205, "trialdata": {"rt": -1000, "stimulus": "/static/audio/wordpool/STATUE.wav", "key_press": -1, "type": "PRES_AUD", "word": "statue", "wordID": 1373, "conditions": [24, 800, "a", 12000], "trial": 3, "serialpos": 19, "trial_type": "single-audio", "trial_index": 148, "time_elapsed": 720305, "internal_node_id": "0.0-112.0"}}, {"uniqueid": "MTK0004:340UGXU9DZ80PRY8A21D6VY28A0UV0", "current_trial": 149, "dateTime": 1508955377992, "trialdata": {"rt": -1000, "stimulus": "/static/audio/wordpool/PICTURE.wav", "key_press": -1, "type": "PRES_AUD", "word": "picture", "wordID": 1060, "conditions": [24, 800, "a", 12000], "trial": 3, "serialpos": 20, "trial_type": "single-audio", "trial_index": 149, "time_elapsed": 722092, "internal_node_id": "0.0-113.0"}}, {"uniqueid": "MTK0004:340UGXU9DZ80PRY8A21D6VY28A0UV0", "current_trial": 150, "dateTime": 1508955379605, "trialdata": {"rt": -1000, "stimulus": "/static/audio/wordpool/PIMPLE.wav", "key_press": -1, "type": "PRES_AUD", "word": "pimple", "wordID": 1070, "conditions": [24, 800, "a", 12000], "trial": 3, "serialpos": 21, "trial_type": "single-audio", "trial_index": 150, "time_elapsed": 723705, "internal_node_id": "0.0-114.0"}}, {"uniqueid": "MTK0004:340UGXU9DZ80PRY8A21D6VY28A0UV0", "current_trial": 151, "dateTime": 1508955381490, "trialdata": {"rt": -1000, "stimulus": "/static/audio/wordpool/SNAKE.wav", "key_press": -1, "type": "PRES_AUD", "word": "snake", "wordID": 1332, "conditions": [24, 800, "a", 12000], "trial": 3, "serialpos": 22, "trial_type": "single-audio", "trial_index": 151, "time_elapsed": 725591, "internal_node_id": "0.0-115.0"}}, {"uniqueid": "MTK0004:340UGXU9DZ80PRY8A21D6VY28A0UV0", "current_trial": 152, "dateTime": 1508955383290, "trialdata": {"rt": -1000, "stimulus": "/static/audio/wordpool/BREAST.wav", "key_press": -1, "type": "PRES_AUD", "word": "breast", "wordID": 170, "conditions": [24, 800, "a", 12000], "trial": 3, "serialpos": 23, "trial_type": "single-audio", "trial_index": 152, "time_elapsed": 727390, "internal_node_id": "0.0-116.0"}}, {"uniqueid": "MTK0004:340UGXU9DZ80PRY8A21D6VY28A0UV0", "current_trial": 153, "dateTime": 1508955384658, "trialdata": {"rt": -1, "stimulus": "", "key_press": -1, "type": "PRE_RECALL_DELAY", "trial_type": "single-stim", "trial_index": 153, "time_elapsed": 728758, "internal_node_id": "0.0-117.0-0.0"}}, {"uniqueid": "MTK0004:340UGXU9DZ80PRY8A21D6VY28A0UV0", "current_trial": 154, "dateTime": 1508955385163, "trialdata": {"rt": -1000, "stimulus": "/static/audio/400Hz.wav", "key_press": -1, "type": "PRE_RECALL_ALERT", "trial_type": "single-audio", "trial_index": 154, "time_elapsed": 729263, "internal_node_id": "0.0-118.0"}}, {"uniqueid": "MTK0004:340UGXU9DZ80PRY8A21D6VY28A0UV0", "current_trial": 155, "dateTime": 1508955445170, "trialdata": {"rt": [7179, 8433, 10110, 11486, 13608, 19077, 21164, 28610, 32206], "recwords": ["pimple", "snake", "breast", "coffee", "gangster", "pilot", "banquet", "picture", "statue"], "type": "FREE_RECALL", "conditions": [24, 800, "a", 12000], "trial": 3, "trial_type": "free-recall", "trial_index": 155, "time_elapsed": 789270, "internal_node_id": "0.0-119.0-0.0"}}, {"uniqueid": "MTK0004:340UGXU9DZ80PRY8A21D6VY28A0UV0", "current_trial": 156, "dateTime": 1508955448147, "trialdata": {"rt": 974, "key_press": 32, "type": "INSTRUCTIONS", "trial_type": "text", "trial_index": 156, "time_elapsed": 792247, "internal_node_id": "0.0-120.0"}}, {"uniqueid": "MTK0004:340UGXU9DZ80PRY8A21D6VY28A0UV0", "current_trial": 157, "dateTime": 1508955474189, "trialdata": {"rt": [7168, 10045, 13843, 17505, 19771, 21707], "responses": ["22", "10", "8", "20", "12", "7"], "num1": [7, 3, 1, 6, 3, 1, 7], "num2": [8, 3, 3, 6, 4, 1, 9], "num3": [7, 4, 4, 8, 5, 5, 9], "type": "DISTRACTOR", "conditions": [24, 1600, "a", 24000], "trial": 4, "trial_type": "math-distractor", "trial_index": 157, "time_elapsed": 818288, "internal_node_id": "0.0-121.0"}}, {"uniqueid": "MTK0004:340UGXU9DZ80PRY8A21D6VY28A0UV0", "current_trial": 158, "dateTime": 1508955477200, "trialdata": {"rt": -1, "stimulus": "<p id=\"stim\">10</p>", "key_press": -1, "trial_type": "single-stim", "trial_index": 158, "time_elapsed": 821300, "internal_node_id": "0.0-122.0-0.0"}}, {"uniqueid": "MTK0004:340UGXU9DZ80PRY8A21D6VY28A0UV0", "current_trial": 159, "dateTime": 1508955478207, "trialdata": {"rt": -1, "stimulus": "<p id=\"stim\">9</p>", "key_press": -1, "trial_type": "single-stim", "trial_index": 159, "time_elapsed": 822308, "internal_node_id": "0.0-122.0-1.0"}}, {"uniqueid": "MTK0004:340UGXU9DZ80PRY8A21D6VY28A0UV0", "current_trial": 160, "dateTime": 1508955479212, "trialdata": {"rt": -1, "stimulus": "<p id=\"stim\">8</p>", "key_press": -1, "trial_type": "single-stim", "trial_index": 160, "time_elapsed": 823313, "internal_node_id": "0.0-122.0-2.0"}}, {"uniqueid": "MTK0004:340UGXU9DZ80PRY8A21D6VY28A0UV0", "current_trial": 161, "dateTime": 1508955480228, "trialdata": {"rt": -1, "stimulus": "<p id=\"stim\">7</p>", "key_press": -1, "trial_type": "single-stim", "trial_index": 161, "time_elapsed": 824329, "internal_node_id": "0.0-122.0-3.0"}}, {"uniqueid": "MTK0004:340UGXU9DZ80PRY8A21D6VY28A0UV0", "current_trial": 162, "dateTime": 1508955481230, "trialdata": {"rt": -1, "stimulus": "<p id=\"stim\">6</p>", "key_press": -1, "trial_type": "single-stim", "trial_index": 162, "time_elapsed": 825330, "internal_node_id": "0.0-122.0-4.0"}}, {"uniqueid": "MTK0004:340UGXU9DZ80PRY8A21D6VY28A0UV0", "current_trial": 163, "dateTime": 1508955482231, "trialdata": {"rt": -1, "stimulus": "<p id=\"stim\">5</p>", "key_press": -1, "trial_type": "single-stim", "trial_index": 163, "time_elapsed": 826332, "internal_node_id": "0.0-122.0-5.0"}}, {"uniqueid": "MTK0004:340UGXU9DZ80PRY8A21D6VY28A0UV0", "current_trial": 164, "dateTime": 1508955483233, "trialdata": {"rt": -1, "stimulus": "<p id=\"stim\">4</p>", "key_press": -1, "trial_type": "single-stim", "trial_index": 164, "time_elapsed": 827333, "internal_node_id": "0.0-122.0-6.0"}}, {"uniqueid": "MTK0004:340UGXU9DZ80PRY8A21D6VY28A0UV0", "current_trial": 165, "dateTime": 1508955484245, "trialdata": {"rt": -1, "stimulus": "<p id=\"stim\">3</p>", "key_press": -1, "trial_type": "single-stim", "trial_index": 165, "time_elapsed": 828345, "internal_node_id": "0.0-122.0-7.0"}}, {"uniqueid": "MTK0004:340UGXU9DZ80PRY8A21D6VY28A0UV0", "current_trial": 166, "dateTime": 1508955485252, "trialdata": {"rt": -1, "stimulus": "<p id=\"stim\">2</p>", "key_press": -1, "trial_type": "single-stim", "trial_index": 166, "time_elapsed": 829353, "internal_node_id": "0.0-122.0-8.0"}}, {"uniqueid": "MTK0004:340UGXU9DZ80PRY8A21D6VY28A0UV0", "current_trial": 167, "dateTime": 1508955486264, "trialdata": {"rt": -1, "stimulus": "<p id=\"stim\">1</p>", "key_press": -1, "trial_type": "single-stim", "trial_index": 167, "time_elapsed": 830364, "internal_node_id": "0.0-122.0-9.0"}}, {"uniqueid": "MTK0004:340UGXU9DZ80PRY8A21D6VY28A0UV0", "current_trial": 168, "dateTime": 1508955487777, "trialdata": {"rt": -1, "stimulus": "<p id=\"stim\">+</p>", "key_press": -1, "type": "FIXATION", "trial_type": "single-stim", "trial_index": 168, "time_elapsed": 831878, "internal_node_id": "0.0-123.0-0.0"}}, {"uniqueid": "MTK0004:340UGXU9DZ80PRY8A21D6VY28A0UV0", "current_trial": 169, "dateTime": 1508955490567, "trialdata": {"rt": -1000, "stimulus": "/static/audio/wordpool/CROWN.wav", "key_press": -1, "type": "PRES_AUD", "word": "crown", "wordID": 414, "conditions": [24, 1600, "a", 24000], "trial": 4, "serialpos": 0, "trial_type": "single-audio", "trial_index": 169, "time_elapsed": 834668, "internal_node_id": "0.0-124.0"}}, {"uniqueid": "MTK0004:340UGXU9DZ80PRY8A21D6VY28A0UV0", "current_trial": 170, "dateTime": 1508955493354, "trialdata": {"rt": -1000, "stimulus": "/static/audio/wordpool/EMPIRE.wav", "key_press": -1, "type": "PRES_AUD", "word": "empire", "wordID": 529, "conditions": [24, 1600, "a", 24000], "trial": 4, "serialpos": 1, "trial_type": "single-audio", "trial_index": 170, "time_elapsed": 837455, "internal_node_id": "0.0-125.0"}}, {"uniqueid": "MTK0004:340UGXU9DZ80PRY8A21D6VY28A0UV0", "current_trial": 171, "dateTime": 1508955496036, "trialdata": {"rt": -1000, "stimulus": "/static/audio/wordpool/GOBLIN.wav", "key_press": -1, "type": "PRES_AUD", "word": "goblin", "wordID": 644, "conditions": [24, 1600, "a", 24000], "trial": 4, "serialpos": 2, "trial_type": "single-audio", "trial_index": 171, "time_elapsed": 840137, "internal_node_id": "0.0-126.0"}}, {"uniqueid": "MTK0004:340UGXU9DZ80PRY8A21D6VY28A0UV0", "current_trial": 172, "dateTime": 1508955498528, "trialdata": {"rt": -1000, "stimulus": "/static/audio/wordpool/CATCHER.wav", "key_press": -1, "type": "PRES_AUD", "word": "catcher", "wordID": 257, "conditions": [24, 1600, "a", 24000], "trial": 4, "serialpos": 3, "trial_type": "single-audio", "trial_index": 172, "time_elapsed": 842629, "internal_node_id": "0.0-127.0"}}, {"uniqueid": "MTK0004:340UGXU9DZ80PRY8A21D6VY28A0UV0", "current_trial": 173, "dateTime": 1508955501190, "trialdata": {"rt": -1000, "stimulus": "/static/audio/wordpool/GUARD.wav", "key_press": -1, "type": "PRES_AUD", "word": "guard", "wordID": 666, "conditions": [24, 1600, "a", 24000], "trial": 4, "serialpos": 4, "trial_type": "single-audio", "trial_index": 173, "time_elapsed": 845289, "internal_node_id": "0.0-128.0"}}, {"uniqueid": "MTK0004:340UGXU9DZ80PRY8A21D6VY28A0UV0", "current_trial": 174, "dateTime": 1508955503624, "trialdata": {"rt": -1000, "stimulus": "/static/audio/wordpool/POPCORN.wav", "key_press": -1, "type": "PRES_AUD", "word": "popcorn", "wordID": 1103, "conditions": [24, 1600, "a", 24000], "trial": 4, "serialpos": 5, "trial_type": "single-audio", "trial_index": 174, "time_elapsed": 847724, "internal_node_id": "0.0-129.0"}}, {"uniqueid": "MTK0004:340UGXU9DZ80PRY8A21D6VY28A0UV0", "current_trial": 175, "dateTime": 1508955506122, "trialdata": {"rt": -1000, "stimulus": "/static/audio/wordpool/WRIST.wav", "key_press": -1, "type": "PRES_AUD", "word": "wrist", "wordID": 1625, "conditions": [24, 1600, "a", 24000], "trial": 4, "serialpos": 6, "trial_type": "single-audio", "trial_index": 175, "time_elapsed": 850222, "internal_node_id": "0.0-130.0"}}, {"uniqueid": "MTK0004:340UGXU9DZ80PRY8A21D6VY28A0UV0", "current_trial": 176, "dateTime": 1508955508849, "trialdata": {"rt": -1000, "stimulus": "/static/audio/wordpool/DRAGON.wav", "key_press": -1, "type": "PRES_AUD", "word": "dragon", "wordID": 491, "conditions": [24, 1600, "a", 24000], "trial": 4, "serialpos": 7, "trial_type": "single-audio", "trial_index": 176, "time_elapsed": 852949, "internal_node_id": "0.0-131.0"}}, {"uniqueid": "MTK0004:340UGXU9DZ80PRY8A21D6VY28A0UV0", "current_trial": 177, "dateTime": 1508955511371, "trialdata": {"rt": -1000, "stimulus": "/static/audio/wordpool/VELVET.wav", "key_press": -1, "type": "PRES_AUD", "word": "velvet", "wordID": 1554, "conditions": [24, 1600, "a", 24000], "trial": 4, "serialpos": 8, "trial_type": "single-audio", "trial_index": 177, "time_elapsed": 855471, "internal_node_id": "0.0-132.0"}}, {"uniqueid": "MTK0004:340UGXU9DZ80PRY8A21D6VY28A0UV0", "current_trial": 178, "dateTime": 1508955513949, "trialdata": {"rt": -1000, "stimulus": "/static/audio/wordpool/LACE.wav", "key_press": -1, "type": "PRES_AUD", "word": "lace", "wordID": 791, "conditions": [24, 1600, "a", 24000], "trial": 4, "serialpos": 9, "trial_type": "single-audio", "trial_index": 178, "time_elapsed": 858050, "internal_node_id": "0.0-133.0"}}, {"uniqueid": "MTK0004:340UGXU9DZ80PRY8A21D6VY28A0UV0", "current_trial": 179, "dateTime": 1508955516703, "trialdata": {"rt": -1000, "stimulus": "/static/audio/wordpool/PARTNER.wav", "key_press": -1, "type": "PRES_AUD", "word": "partner", "wordID": 1016, "conditions": [24, 1600, "a", 24000], "trial": 4, "serialpos": 10, "trial_type": "single-audio", "trial_index": 179, "time_elapsed": 860803, "internal_node_id": "0.0-134.0"}}, {"uniqueid": "MTK0004:340UGXU9DZ80PRY8A21D6VY28A0UV0", "current_trial": 180, "dateTime": 1508955519239, "trialdata": {"rt": -1000, "stimulus": "/static/audio/wordpool/AWARD.wav", "key_press": -1, "type": "PRES_AUD", "word": "award", "wordID": 62, "conditions": [24, 1600, "a", 24000], "trial": 4, "serialpos": 11, "trial_type": "single-audio", "trial_index": 180, "time_elapsed": 863340, "internal_node_id": "0.0-135.0"}}, {"uniqueid": "MTK0004:340UGXU9DZ80PRY8A21D6VY28A0UV0", "current_trial": 181, "dateTime": 1508955521824, "trialdata": {"rt": -1000, "stimulus": "/static/audio/wordpool/HANDBAG.wav", "key_press": -1, "type": "PRES_AUD", "word": "handbag", "wordID": 683, "conditions": [24, 1600, "a", 24000], "trial": 4, "serialpos": 12, "trial_type": "single-audio", "trial_index": 181, "time_elapsed": 865924, "internal_node_id": "0.0-136.0"}}, {"uniqueid": "MTK0004:340UGXU9DZ80PRY8A21D6VY28A0UV0", "current_trial": 182, "dateTime": 1508955524456, "trialdata": {"rt": -1000, "stimulus": "/static/audio/wordpool/BRIEFCASE.wav", "key_press": -1, "type": "PRES_AUD", "word": "briefcase", "wordID": 174, "conditions": [24, 1600, "a", 24000], "trial": 4, "serialpos": 13, "trial_type": "single-audio", "trial_index": 182, "time_elapsed": 868557, "internal_node_id": "0.0-137.0"}}, {"uniqueid": "MTK0004:340UGXU9DZ80PRY8A21D6VY28A0UV0", "current_trial": 183, "dateTime": 1508955527174, "trialdata": {"rt": -1000, "stimulus": "/static/audio/wordpool/REPORT.wav", "key_press": -1, "type": "PRES_AUD", "word": "report", "wordID": 1183, "conditions": [24, 1600, "a", 24000], "trial": 4, "serialpos": 14, "trial_type": "single-audio", "trial_index": 183, "time_elapsed": 871274, "internal_node_id": "0.0-138.0"}}, {"uniqueid": "MTK0004:340UGXU9DZ80PRY8A21D6VY28A0UV0", "current_trial": 184, "dateTime": 1508955529964, "trialdata": {"rt": -1000, "stimulus": "/static/audio/wordpool/SWORD.wav", "key_press": -1, "type": "PRES_AUD", "word": "sword", "wordID": 1422, "conditions": [24, 1600, "a", 24000], "trial": 4, "serialpos": 15, "trial_type": "single-audio", "trial_index": 184, "time_elapsed": 874064, "internal_node_id": "0.0-139.0"}}, {"uniqueid": "MTK0004:340UGXU9DZ80PRY8A21D6VY28A0UV0", "current_trial": 185, "dateTime": 1508955532574, "trialdata": {"rt": -1000, "stimulus": "/static/audio/wordpool/ICING.wav", "key_press": -1, "type": "PRES_AUD", "word": "icing", "wordID": 731, "conditions": [24, 1600, "a", 24000], "trial": 4, "serialpos": 16, "trial_type": "single-audio", "trial_index": 185, "time_elapsed": 876675, "internal_node_id": "0.0-140.0"}}, {"uniqueid": "MTK0004:340UGXU9DZ80PRY8A21D6VY28A0UV0", "current_trial": 186, "dateTime": 1508955535180, "trialdata": {"rt": -1000, "stimulus": "/static/audio/wordpool/SKIRT.wav", "key_press": -1, "type": "PRES_AUD", "word": "skirt", "wordID": 1318, "conditions": [24, 1600, "a", 24000], "trial": 4, "serialpos": 17, "trial_type": "single-audio", "trial_index": 186, "time_elapsed": 879281, "internal_node_id": "0.0-141.0"}}, {"uniqueid": "MTK0004:340UGXU9DZ80PRY8A21D6VY28A0UV0", "current_trial": 187, "dateTime": 1508955537829, "trialdata": {"rt": -1000, "stimulus": "/static/audio/wordpool/CANAL.wav", "key_press": -1, "type": "PRES_AUD", "word": "canal", "wordID": 225, "conditions": [24, 1600, "a", 24000], "trial": 4, "serialpos": 18, "trial_type": "single-audio", "trial_index": 187, "time_elapsed": 881930, "internal_node_id": "0.0-142.0"}}, {"uniqueid": "MTK0004:340UGXU9DZ80PRY8A21D6VY28A0UV0", "current_trial": 188, "dateTime": 1508955540501, "trialdata": {"rt": -1000, "stimulus": "/static/audio/wordpool/WAGON.wav", "key_press": -1, "type": "PRES_AUD", "word": "wagon", "wordID": 1577, "conditions": [24, 1600, "a", 24000], "trial": 4, "serialpos": 19, "trial_type": "single-audio", "trial_index": 188, "time_elapsed": 884602, "internal_node_id": "0.0-143.0"}}, {"uniqueid": "MTK0004:340UGXU9DZ80PRY8A21D6VY28A0UV0", "current_trial": 189, "dateTime": 1508955543206, "trialdata": {"rt": -1000, "stimulus": "/static/audio/wordpool/MARKER.wav", "key_press": -1, "type": "PRES_AUD", "word": "marker", "wordID": 869, "conditions": [24, 1600, "a", 24000], "trial": 4, "serialpos": 20, "trial_type": "single-audio", "trial_index": 189, "time_elapsed": 887307, "internal_node_id": "0.0-144.0"}}, {"uniqueid": "MTK0004:340UGXU9DZ80PRY8A21D6VY28A0UV0", "current_trial": 190, "dateTime": 1508955545748, "trialdata": {"rt": -1000, "stimulus": "/static/audio/wordpool/LUNCH.wav", "key_press": -1, "type": "PRES_AUD", "word": "lunch", "wordID": 848, "conditions": [24, 1600, "a", 24000], "trial": 4, "serialpos": 21, "trial_type": "single-audio", "trial_index": 190, "time_elapsed": 889849, "internal_node_id": "0.0-145.0"}}, {"uniqueid": "MTK0004:340UGXU9DZ80PRY8A21D6VY28A0UV0", "current_trial": 191, "dateTime": 1508955548410, "trialdata": {"rt": -1000, "stimulus": "/static/audio/wordpool/SERVANT.wav", "key_press": -1, "type": "PRES_AUD", "word": "servant", "wordID": 1270, "conditions": [24, 1600, "a", 24000], "trial": 4, "serialpos": 22, "trial_type": "single-audio", "trial_index": 191, "time_elapsed": 892510, "internal_node_id": "0.0-146.0"}}, {"uniqueid": "MTK0004:340UGXU9DZ80PRY8A21D6VY28A0UV0", "current_trial": 192, "dateTime": 1508955550995, "trialdata": {"rt": -1000, "stimulus": "/static/audio/wordpool/KNIFE.wav", "key_press": -1, "type": "PRES_AUD", "word": "knife", "wordID": 784, "conditions": [24, 1600, "a", 24000], "trial": 4, "serialpos": 23, "trial_type": "single-audio", "trial_index": 192, "time_elapsed": 895096, "internal_node_id": "0.0-147.0"}}, {"uniqueid": "MTK0004:340UGXU9DZ80PRY8A21D6VY28A0UV0", "current_trial": 193, "dateTime": 1508955552219, "trialdata": {"rt": -1, "stimulus": "", "key_press": -1, "type": "PRE_RECALL_DELAY", "trial_type": "single-stim", "trial_index": 193, "time_elapsed": 896319, "internal_node_id": "0.0-148.0-0.0"}}, {"uniqueid": "MTK0004:340UGXU9DZ80PRY8A21D6VY28A0UV0", "current_trial": 194, "dateTime": 1508955552729, "trialdata": {"rt": -1000, "stimulus": "/static/audio/400Hz.wav", "key_press": -1, "type": "PRE_RECALL_ALERT", "trial_type": "single-audio", "trial_index": 194, "time_elapsed": 896830, "internal_node_id": "0.0-149.0"}}, {"uniqueid": "MTK0004:340UGXU9DZ80PRY8A21D6VY28A0UV0", "current_trial": 195, "dateTime": 1508955612744, "trialdata": {"rt": [3232, 5304, 6916, 8352, 10749, 12802, 14399, 16455, 19643, 21196, 33147, 42758], "recwords": ["guard", "empire", "crown", "dragon", "sword", "velvet", "wrist", "knife", "handbag", "lace", "catcher", "servant"], "type": "FREE_RECALL", "conditions": [24, 1600, "a", 24000], "trial": 4, "trial_type": "free-recall", "trial_index": 195, "time_elapsed": 956845, "internal_node_id": "0.0-150.0-0.0"}}, {"uniqueid": "MTK0004:340UGXU9DZ80PRY8A21D6VY28A0UV0", "current_trial": 196, "dateTime": 1508955615880, "trialdata": {"rt": 1132, "key_press": 32, "type": "INSTRUCTIONS", "trial_type": "text", "trial_index": 196, "time_elapsed": 959981, "internal_node_id": "0.0-151.0"}}, {"uniqueid": "MTK0004:340UGXU9DZ80PRY8A21D6VY28A0UV0", "current_trial": 197, "dateTime": 1508955641942, "trialdata": {"rt": [3277, 7064, 9306, 12263, 15511, 17739, 20059], "responses": ["13", "20", "12", "13", "15", "11", "14"], "num1": [4, 4, 7, 3, 2, 7, 4, 8], "num2": [7, 9, 1, 9, 5, 3, 8, 6], "num3": [2, 7, 4, 1, 8, 3, 2, 9], "type": "DISTRACTOR", "conditions": [24, 1600, "v", 24000], "trial": 5, "trial_type": "math-distractor", "trial_index": 197, "time_elapsed": 986042, "internal_node_id": "0.0-152.0"}}, {"uniqueid": "MTK0004:340UGXU9DZ80PRY8A21D6VY28A0UV0", "current_trial": 198, "dateTime": 1508955644968, "trialdata": {"rt": -1, "stimulus": "<p id=\"stim\">10</p>", "key_press": -1, "trial_type": "single-stim", "trial_index": 198, "time_elapsed": 989068, "internal_node_id": "0.0-153.0-0.0"}}, {"uniqueid": "MTK0004:340UGXU9DZ80PRY8A21D6VY28A0UV0", "current_trial": 199, "dateTime": 1508955645984, "trialdata": {"rt": -1, "stimulus": "<p id=\"stim\">9</p>", "key_press": -1, "trial_type": "single-stim", "trial_index": 199, "time_elapsed": 990083, "internal_node_id": "0.0-153.0-1.0"}}, {"uniqueid": "MTK0004:340UGXU9DZ80PRY8A21D6VY28A0UV0", "current_trial": 200, "dateTime": 1508955646987, "trialdata": {"rt": -1, "stimulus": "<p id=\"stim\">8</p>", "key_press": -1, "trial_type": "single-stim", "trial_index": 200, "time_elapsed": 991086, "internal_node_id": "0.0-153.0-2.0"}}, {"uniqueid": "MTK0004:340UGXU9DZ80PRY8A21D6VY28A0UV0", "current_trial": 201, "dateTime": 1508955647990, "trialdata": {"rt": -1, "stimulus": "<p id=\"stim\">7</p>", "key_press": -1, "trial_type": "single-stim", "trial_index": 201, "time_elapsed": 992090, "internal_node_id": "0.0-153.0-3.0"}}, {"uniqueid": "MTK0004:340UGXU9DZ80PRY8A21D6VY28A0UV0", "current_trial": 202, "dateTime": 1508955648999, "trialdata": {"rt": -1, "stimulus": "<p id=\"stim\">6</p>", "key_press": -1, "trial_type": "single-stim", "trial_index": 202, "time_elapsed": 993100, "internal_node_id": "0.0-153.0-4.0"}}, {"uniqueid": "MTK0004:340UGXU9DZ80PRY8A21D6VY28A0UV0", "current_trial": 203, "dateTime": 1508955650007, "trialdata": {"rt": -1, "stimulus": "<p id=\"stim\">5</p>", "key_press": -1, "trial_type": "single-stim", "trial_index": 203, "time_elapsed": 994108, "internal_node_id": "0.0-153.0-5.0"}}, {"uniqueid": "MTK0004:340UGXU9DZ80PRY8A21D6VY28A0UV0", "current_trial": 204, "dateTime": 1508955651018, "trialdata": {"rt": -1, "stimulus": "<p id=\"stim\">4</p>", "key_press": -1, "trial_type": "single-stim", "trial_index": 204, "time_elapsed": 995119, "internal_node_id": "0.0-153.0-6.0"}}, {"uniqueid": "MTK0004:340UGXU9DZ80PRY8A21D6VY28A0UV0", "current_trial": 205, "dateTime": 1508955652028, "trialdata": {"rt": -1, "stimulus": "<p id=\"stim\">3</p>", "key_press": -1, "trial_type": "single-stim", "trial_index": 205, "time_elapsed": 996128, "internal_node_id": "0.0-153.0-7.0"}}, {"uniqueid": "MTK0004:340UGXU9DZ80PRY8A21D6VY28A0UV0", "current_trial": 206, "dateTime": 1508955653041, "trialdata": {"rt": -1, "stimulus": "<p id=\"stim\">2</p>", "key_press": -1, "trial_type": "single-stim", "trial_index": 206, "time_elapsed": 997141, "internal_node_id": "0.0-153.0-8.0"}}, {"uniqueid": "MTK0004:340UGXU9DZ80PRY8A21D6VY28A0UV0", "current_trial": 207, "dateTime": 1508955654057, "trialdata": {"rt": -1, "stimulus": "<p id=\"stim\">1</p>", "key_press": -1, "trial_type": "single-stim", "trial_index": 207, "time_elapsed": 998157, "internal_node_id": "0.0-153.0-9.0"}}, {"uniqueid": "MTK0004:340UGXU9DZ80PRY8A21D6VY28A0UV0", "current_trial": 208, "dateTime": 1508955655573, "trialdata": {"rt": -1, "stimulus": "<p id=\"stim\">+</p>", "key_press": -1, "type": "FIXATION", "trial_type": "single-stim", "trial_index": 208, "time_elapsed": 999674, "internal_node_id": "0.0-154.0-0.0"}}, {"uniqueid": "MTK0004:340UGXU9DZ80PRY8A21D6VY28A0UV0", "current_trial": 209, "dateTime": 1508955657175, "trialdata": {"rt": -1, "stimulus": "<p id=\"stim\">CHURCH</p>", "key_press": -1, "type": "PRES_VIS", "word": "church", "wordID": 306, "conditions": [24, 1600, "v", 24000], "trial": 5, "serialpos": 0, "trial_type": "single-stim", "trial_index": 209, "time_elapsed": 1001275, "internal_node_id": "0.0-155.0"}}, {"uniqueid": "MTK0004:340UGXU9DZ80PRY8A21D6VY28A0UV0", "current_trial": 210, "dateTime": 1508955659785, "trialdata": {"rt": -1, "stimulus": "<p id=\"stim\">MARINE</p>", "key_press": -1, "type": "PRES_VIS", "word": "marine", "wordID": 868, "conditions": [24, 1600, "v", 24000], "trial": 5, "serialpos": 1, "trial_type": "single-stim", "trial_index": 210, "time_elapsed": 1003886, "internal_node_id": "0.0-156.0"}}, {"uniqueid": "MTK0004:340UGXU9DZ80PRY8A21D6VY28A0UV0", "current_trial": 211, "dateTime": 1508955662487, "trialdata": {"rt": -1, "stimulus": "<p id=\"stim\">ISLAND</p>", "key_press": -1, "type": "PRES_VIS", "word": "island", "wordID": 744, "conditions": [24, 1600, "v", 24000], "trial": 5, "serialpos": 2, "trial_type": "single-stim", "trial_index": 211, "time_elapsed": 1006588, "internal_node_id": "0.0-157.0"}}, {"uniqueid": "MTK0004:340UGXU9DZ80PRY8A21D6VY28A0UV0", "current_trial": 212, "dateTime": 1508955665186, "trialdata": {"rt": -1, "stimulus": "<p id=\"stim\">SHELTER</p>", "key_press": -1, "type": "PRES_VIS", "word": "shelter", "wordID": 1281, "conditions": [24, 1600, "v", 24000], "trial": 5, "serialpos": 3, "trial_type": "single-stim", "trial_index": 212, "time_elapsed": 1009286, "internal_node_id": "0.0-158.0"}}, {"uniqueid": "MTK0004:340UGXU9DZ80PRY8A21D6VY28A0UV0", "current_trial": 213, "dateTime": 1508955667926, "trialdata": {"rt": -1, "stimulus": "<p id=\"stim\">KIDNEY</p>", "key_press": -1, "type": "PRES_VIS", "word": "kidney", "wordID": 775, "conditions": [24, 1600, "v", 24000], "trial": 5, "serialpos": 4, "trial_type": "single-stim", "trial_index": 213, "time_elapsed": 1012026, "internal_node_id": "0.0-159.0"}}, {"uniqueid": "MTK0004:340UGXU9DZ80PRY8A21D6VY28A0UV0", "current_trial": 214, "dateTime": 1508955670612, "trialdata": {"rt": -1, "stimulus": "<p id=\"stim\">DAISY</p>", "key_press": -1, "type": "PRES_VIS", "word": "daisy", "wordID": 434, "conditions": [24, 1600, "v", 24000], "trial": 5, "serialpos": 5, "trial_type": "single-stim", "trial_index": 214, "time_elapsed": 1014713, "internal_node_id": "0.0-160.0"}}, {"uniqueid": "MTK0004:340UGXU9DZ80PRY8A21D6VY28A0UV0", "current_trial": 215, "dateTime": 1508955673064, "trialdata": {"rt": -1, "stimulus": "<p id=\"stim\">FLOWER</p>", "key_press": -1, "type": "PRES_VIS", "word": "flower", "wordID": 583, "conditions": [24, 1600, "v", 24000], "trial": 5, "serialpos": 6, "trial_type": "single-stim", "trial_index": 215, "time_elapsed": 1017165, "internal_node_id": "0.0-161.0"}}, {"uniqueid": "MTK0004:340UGXU9DZ80PRY8A21D6VY28A0UV0", "current_trial": 216, "dateTime": 1508955675798, "trialdata": {"rt": -1, "stimulus": "<p id=\"stim\">CASHEW</p>", "key_press": -1, "type": "PRES_VIS", "word": "cashew", "wordID": 252, "conditions": [24, 1600, "v", 24000], "trial": 5, "serialpos": 7, "trial_type": "single-stim", "trial_index": 216, "time_elapsed": 1019899, "internal_node_id": "0.0-162.0"}}, {"uniqueid": "MTK0004:340UGXU9DZ80PRY8A21D6VY28A0UV0", "current_trial": 217, "dateTime": 1508955678500, "trialdata": {"rt": -1, "stimulus": "<p id=\"stim\">HEART</p>", "key_press": -1, "type": "PRES_VIS", "word": "heart", "wordID": 696, "conditions": [24, 1600, "v", 24000], "trial": 5, "serialpos": 8, "trial_type": "single-stim", "trial_index": 217, "time_elapsed": 1022600, "internal_node_id": "0.0-163.0"}}, {"uniqueid": "MTK0004:340UGXU9DZ80PRY8A21D6VY28A0UV0", "current_trial": 218, "dateTime": 1508955680948, "trialdata": {"rt": -1, "stimulus": "<p id=\"stim\">SPACE</p>", "key_press": -1, "type": "PRES_VIS", "word": "space", "wordID": 1344, "conditions": [24, 1600, "v", 24000], "trial": 5, "serialpos": 9, "trial_type": "single-stim", "trial_index": 218, "time_elapsed": 1025049, "internal_node_id": "0.0-164.0"}}, {"uniqueid": "MTK0004:340UGXU9DZ80PRY8A21D6VY28A0UV0", "current_trial": 219, "dateTime": 1508955683631, "trialdata": {"rt": -1, "stimulus": "<p id=\"stim\">CITRUS</p>", "key_press": -1, "type": "PRES_VIS", "word": "citrus", "wordID": 312, "conditions": [24, 1600, "v", 24000], "trial": 5, "serialpos": 10, "trial_type": "single-stim", "trial_index": 219, "time_elapsed": 1027732, "internal_node_id": "0.0-165.0"}}, {"uniqueid": "MTK0004:340UGXU9DZ80PRY8A21D6VY28A0UV0", "current_trial": 220, "dateTime": 1508955686235, "trialdata": {"rt": -1, "stimulus": "<p id=\"stim\">CHAPEL</p>", "key_press": -1, "type": "PRES_VIS", "word": "chapel", "wordID": 279, "conditions": [24, 1600, "v", 24000], "trial": 5, "serialpos": 11, "trial_type": "single-stim", "trial_index": 220, "time_elapsed": 1030335, "internal_node_id": "0.0-166.0"}}, {"uniqueid": "MTK0004:340UGXU9DZ80PRY8A21D6VY28A0UV0", "current_trial": 221, "dateTime": 1508955688704, "trialdata": {"rt": -1, "stimulus": "<p id=\"stim\">BELLY</p>", "key_press": -1, "type": "PRES_VIS", "word": "belly", "wordID": 118, "conditions": [24, 1600, "v", 24000], "trial": 5, "serialpos": 12, "trial_type": "single-stim", "trial_index": 221, "time_elapsed": 1032804, "internal_node_id": "0.0-167.0"}}, {"uniqueid": "MTK0004:340UGXU9DZ80PRY8A21D6VY28A0UV0", "current_trial": 222, "dateTime": 1508955691488, "trialdata": {"rt": -1, "stimulus": "<p id=\"stim\">SCISSORS</p>", "key_press": -1, "type": "PRES_VIS", "word": "scissors", "wordID": 1249, "conditions": [24, 1600, "v", 24000], "trial": 5, "serialpos": 13, "trial_type": "single-stim", "trial_index": 222, "time_elapsed": 1035589, "internal_node_id": "0.0-168.0"}}, {"uniqueid": "MTK0004:340UGXU9DZ80PRY8A21D6VY28A0UV0", "current_trial": 223, "dateTime": 1508955694138, "trialdata": {"rt": -1, "stimulus": "<p id=\"stim\">POCKET</p>", "key_press": -1, "type": "PRES_VIS", "word": "pocket", "wordID": 1092, "conditions": [24, 1600, "v", 24000], "trial": 5, "serialpos": 14, "trial_type": "single-stim", "trial_index": 223, "time_elapsed": 1038239, "internal_node_id": "0.0-169.0"}}, {"uniqueid": "MTK0004:340UGXU9DZ80PRY8A21D6VY28A0UV0", "current_trial": 224, "dateTime": 1508955696657, "trialdata": {"rt": -1, "stimulus": "<p id=\"stim\">TAXI</p>", "key_press": -1, "type": "PRES_VIS", "word": "taxi", "wordID": 1437, "conditions": [24, 1600, "v", 24000], "trial": 5, "serialpos": 15, "trial_type": "single-stim", "trial_index": 224, "time_elapsed": 1040757, "internal_node_id": "0.0-170.0"}}, {"uniqueid": "MTK0004:340UGXU9DZ80PRY8A21D6VY28A0UV0", "current_trial": 225, "dateTime": 1508955699404, "trialdata": {"rt": -1, "stimulus": "<p id=\"stim\">SHOULDER</p>", "key_press": -1, "type": "PRES_VIS", "word": "shoulder", "wordID": 1293, "conditions": [24, 1600, "v", 24000], "trial": 5, "serialpos": 16, "trial_type": "single-stim", "trial_index": 225, "time_elapsed": 1043505, "internal_node_id": "0.0-171.0"}}, {"uniqueid": "MTK0004:340UGXU9DZ80PRY8A21D6VY28A0UV0", "current_trial": 226, "dateTime": 1508955702073, "trialdata": {"rt": -1, "stimulus": "<p id=\"stim\">ELBOW</p>", "key_press": -1, "type": "PRES_VIS", "word": "elbow", "wordID": 519, "conditions": [24, 1600, "v", 24000], "trial": 5, "serialpos": 17, "trial_type": "single-stim", "trial_index": 226, "time_elapsed": 1046174, "internal_node_id": "0.0-172.0"}}, {"uniqueid": "MTK0004:340UGXU9DZ80PRY8A21D6VY28A0UV0", "current_trial": 227, "dateTime": 1508955704603, "trialdata": {"rt": -1, "stimulus": "<p id=\"stim\">ACTRESS</p>", "key_press": -1, "type": "PRES_VIS", "word": "actress", "wordID": 5, "conditions": [24, 1600, "v", 24000], "trial": 5, "serialpos": 18, "trial_type": "single-stim", "trial_index": 227, "time_elapsed": 1048704, "internal_node_id": "0.0-173.0"}}, {"uniqueid": "MTK0004:340UGXU9DZ80PRY8A21D6VY28A0UV0", "current_trial": 228, "dateTime": 1508955707265, "trialdata": {"rt": -1, "stimulus": "<p id=\"stim\">PLIERS</p>", "key_press": -1, "type": "PRES_VIS", "word": "pliers", "wordID": 1088, "conditions": [24, 1600, "v", 24000], "trial": 5, "serialpos": 19, "trial_type": "single-stim", "trial_index": 228, "time_elapsed": 1051365, "internal_node_id": "0.0-174.0"}}, {"uniqueid": "MTK0004:340UGXU9DZ80PRY8A21D6VY28A0UV0", "current_trial": 229, "dateTime": 1508955709732, "trialdata": {"rt": -1, "stimulus": "<p id=\"stim\">TABLE</p>", "key_press": -1, "type": "PRES_VIS", "word": "table", "wordID": 1425, "conditions": [24, 1600, "v", 24000], "trial": 5, "serialpos": 20, "trial_type": "single-stim", "trial_index": 229, "time_elapsed": 1053833, "internal_node_id": "0.0-175.0"}}, {"uniqueid": "MTK0004:340UGXU9DZ80PRY8A21D6VY28A0UV0", "current_trial": 230, "dateTime": 1508955712184, "trialdata": {"rt": -1, "stimulus": "<p id=\"stim\">POWDER</p>", "key_press": -1, "type": "PRES_VIS", "word": "powder", "wordID": 1116, "conditions": [24, 1600, "v", 24000], "trial": 5, "serialpos": 21, "trial_type": "single-stim", "trial_index": 230, "time_elapsed": 1056285, "internal_node_id": "0.0-176.0"}}, {"uniqueid": "MTK0004:340UGXU9DZ80PRY8A21D6VY28A0UV0", "current_trial": 231, "dateTime": 1508955714874, "trialdata": {"rt": -1, "stimulus": "<p id=\"stim\">ITEM</p>", "key_press": -1, "type": "PRES_VIS", "word": "item", "wordID": 745, "conditions": [24, 1600, "v", 24000], "trial": 5, "serialpos": 22, "trial_type": "single-stim", "trial_index": 231, "time_elapsed": 1058975, "internal_node_id": "0.0-177.0"}}, {"uniqueid": "MTK0004:340UGXU9DZ80PRY8A21D6VY28A0UV0", "current_trial": 232, "dateTime": 1508955717437, "trialdata": {"rt": -1, "stimulus": "<p id=\"stim\">SHELF</p>", "key_press": -1, "type": "PRES_VIS", "word": "shelf", "wordID": 1279, "conditions": [24, 1600, "v", 24000], "trial": 5, "serialpos": 23, "trial_type": "single-stim", "trial_index": 232, "time_elapsed": 1061538, "internal_node_id": "0.0-178.0"}}, {"uniqueid": "MTK0004:340UGXU9DZ80PRY8A21D6VY28A0UV0", "current_trial": 233, "dateTime": 1508955719628, "trialdata": {"rt": -1, "stimulus": "", "key_press": -1, "type": "PRE_RECALL_DELAY", "trial_type": "single-stim", "trial_index": 233, "time_elapsed": 1063728, "internal_node_id": "0.0-179.0-0.0"}}, {"uniqueid": "MTK0004:340UGXU9DZ80PRY8A21D6VY28A0UV0", "current_trial": 234, "dateTime": 1508955720129, "trialdata": {"rt": -1000, "stimulus": "/static/audio/400Hz.wav", "key_press": -1, "type": "PRE_RECALL_ALERT", "trial_type": "single-audio", "trial_index": 234, "time_elapsed": 1064229, "internal_node_id": "0.0-180.0"}}, {"uniqueid": "MTK0004:340UGXU9DZ80PRY8A21D6VY28A0UV0", "current_trial": 235, "dateTime": 1508955780139, "trialdata": {"rt": [2834, 4692, 6331, 12261, 16901, 26375, 29209], "recwords": ["item", "shoulder", "shelf", "space", "elbow", "daisy", "flower"], "type": "FREE_RECALL", "conditions": [24, 1600, "v", 24000], "trial": 5, "trial_type": "free-recall", "trial_index": 235, "time_elapsed": 1124239, "internal_node_id": "0.0-181.0-0.0"}}, {"uniqueid": "MTK0004:340UGXU9DZ80PRY8A21D6VY28A0UV0", "current_trial": 236, "dateTime": 1508955783380, "trialdata": {"rt": 1238, "key_press": 32, "type": "INSTRUCTIONS", "trial_type": "text", "trial_index": 236, "time_elapsed": 1127479, "internal_node_id": "0.0-182.0"}}, {"uniqueid": "MTK0004:340UGXU9DZ80PRY8A21D6VY28A0UV0", "current_trial": 237, "dateTime": 1508955797404, "trialdata": {"rt": [3311, 6098, 9816], "responses": ["20", "15", "15"], "num1": [8, 3, 8, 8], "num2": [4, 3, 6, 7], "num3": [8, 9, 1, 7], "type": "DISTRACTOR", "conditions": [24, 800, "v", 12000], "trial": 6, "trial_type": "math-distractor", "trial_index": 237, "time_elapsed": 1141504, "internal_node_id": "0.0-183.0"}}, {"uniqueid": "MTK0004:340UGXU9DZ80PRY8A21D6VY28A0UV0", "current_trial": 238, "dateTime": 1508955800425, "trialdata": {"rt": -1, "stimulus": "<p id=\"stim\">10</p>", "key_press": -1, "trial_type": "single-stim", "trial_index": 238, "time_elapsed": 1144525, "internal_node_id": "0.0-184.0-0.0"}}, {"uniqueid": "MTK0004:340UGXU9DZ80PRY8A21D6VY28A0UV0", "current_trial": 239, "dateTime": 1508955801426, "trialdata": {"rt": -1, "stimulus": "<p id=\"stim\">9</p>", "key_press": -1, "trial_type": "single-stim", "trial_index": 239, "time_elapsed": 1145527, "internal_node_id": "0.0-184.0-1.0"}}, {"uniqueid": "MTK0004:340UGXU9DZ80PRY8A21D6VY28A0UV0", "current_trial": 240, "dateTime": 1508955802428, "trialdata": {"rt": -1, "stimulus": "<p id=\"stim\">8</p>", "key_press": -1, "trial_type": "single-stim", "trial_index": 240, "time_elapsed": 1146528, "internal_node_id": "0.0-184.0-2.0"}}, {"uniqueid": "MTK0004:340UGXU9DZ80PRY8A21D6VY28A0UV0", "current_trial": 241, "dateTime": 1508955803429, "trialdata": {"rt": -1, "stimulus": "<p id=\"stim\">7</p>", "key_press": -1, "trial_type": "single-stim", "trial_index": 241, "time_elapsed": 1147530, "internal_node_id": "0.0-184.0-3.0"}}, {"uniqueid": "MTK0004:340UGXU9DZ80PRY8A21D6VY28A0UV0", "current_trial": 242, "dateTime": 1508955804438, "trialdata": {"rt": -1, "stimulus": "<p id=\"stim\">6</p>", "key_press": -1, "trial_type": "single-stim", "trial_index": 242, "time_elapsed": 1148539, "internal_node_id": "0.0-184.0-4.0"}}, {"uniqueid": "MTK0004:340UGXU9DZ80PRY8A21D6VY28A0UV0", "current_trial": 243, "dateTime": 1508955805453, "trialdata": {"rt": -1, "stimulus": "<p id=\"stim\">5</p>", "key_press": -1, "trial_type": "single-stim", "trial_index": 243, "time_elapsed": 1149553, "internal_node_id": "0.0-184.0-5.0"}}, {"uniqueid": "MTK0004:340UGXU9DZ80PRY8A21D6VY28A0UV0", "current_trial": 244, "dateTime": 1508955806464, "trialdata": {"rt": -1, "stimulus": "<p id=\"stim\">4</p>", "key_press": -1, "trial_type": "single-stim", "trial_index": 244, "time_elapsed": 1150565, "internal_node_id": "0.0-184.0-6.0"}}, {"uniqueid": "MTK0004:340UGXU9DZ80PRY8A21D6VY28A0UV0", "current_trial": 245, "dateTime": 1508955807470, "trialdata": {"rt": -1, "stimulus": "<p id=\"stim\">3</p>", "key_press": -1, "trial_type": "single-stim", "trial_index": 245, "time_elapsed": 1151570, "internal_node_id": "0.0-184.0-7.0"}}, {"uniqueid": "MTK0004:340UGXU9DZ80PRY8A21D6VY28A0UV0", "current_trial": 246, "dateTime": 1508955808472, "trialdata": {"rt": -1, "stimulus": "<p id=\"stim\">2</p>", "key_press": -1, "trial_type": "single-stim", "trial_index": 246, "time_elapsed": 1152573, "internal_node_id": "0.0-184.0-8.0"}}, {"uniqueid": "MTK0004:340UGXU9DZ80PRY8A21D6VY28A0UV0", "current_trial": 247, "dateTime": 1508955809474, "trialdata": {"rt": -1, "stimulus": "<p id=\"stim\">1</p>", "key_press": -1, "trial_type": "single-stim", "trial_index": 247, "time_elapsed": 1153575, "internal_node_id": "0.0-184.0-9.0"}}, {"uniqueid": "MTK0004:340UGXU9DZ80PRY8A21D6VY28A0UV0", "current_trial": 248, "dateTime": 1508955810982, "trialdata": {"rt": -1, "stimulus": "<p id=\"stim\">+</p>", "key_press": -1, "type": "FIXATION", "trial_type": "single-stim", "trial_index": 248, "time_elapsed": 1155083, "internal_node_id": "0.0-185.0-0.0"}}, {"uniqueid": "MTK0004:340UGXU9DZ80PRY8A21D6VY28A0UV0", "current_trial": 249, "dateTime": 1508955811791, "trialdata": {"rt": -1, "stimulus": "<p id=\"stim\">VIRUS</p>", "key_press": -1, "type": "PRES_VIS", "word": "virus", "wordID": 1571, "conditions": [24, 800, "v", 12000], "trial": 6, "serialpos": 0, "trial_type": "single-stim", "trial_index": 249, "time_elapsed": 1155892, "internal_node_id": "0.0-186.0"}}, {"uniqueid": "MTK0004:340UGXU9DZ80PRY8A21D6VY28A0UV0", "current_trial": 250, "dateTime": 1508955813630, "trialdata": {"rt": -1, "stimulus": "<p id=\"stim\">TUNNEL</p>", "key_press": -1, "type": "PRES_VIS", "word": "tunnel", "wordID": 1518, "conditions": [24, 800, "v", 12000], "trial": 6, "serialpos": 1, "trial_type": "single-stim", "trial_index": 250, "time_elapsed": 1157731, "internal_node_id": "0.0-187.0"}}, {"uniqueid": "MTK0004:340UGXU9DZ80PRY8A21D6VY28A0UV0", "current_trial": 251, "dateTime": 1508955815459, "trialdata": {"rt": -1, "stimulus": "<p id=\"stim\">DRUG</p>", "key_press": -1, "type": "PRES_VIS", "word": "drug", "wordID": 500, "conditions": [24, 800, "v", 12000], "trial": 6, "serialpos": 2, "trial_type": "single-stim", "trial_index": 251, "time_elapsed": 1159560, "internal_node_id": "0.0-188.0"}}, {"uniqueid": "MTK0004:340UGXU9DZ80PRY8A21D6VY28A0UV0", "current_trial": 252, "dateTime": 1508955817366, "trialdata": {"rt": -1, "stimulus": "<p id=\"stim\">BEAST</p>", "key_press": -1, "type": "PRES_VIS", "word": "beast", "wordID": 107, "conditions": [24, 800, "v", 12000], "trial": 6, "serialpos": 3, "trial_type": "single-stim", "trial_index": 252, "time_elapsed": 1161467, "internal_node_id": "0.0-189.0"}}, {"uniqueid": "MTK0004:340UGXU9DZ80PRY8A21D6VY28A0UV0", "current_trial": 253, "dateTime": 1508955819004, "trialdata": {"rt": -1, "stimulus": "<p id=\"stim\">BODY</p>", "key_press": -1, "type": "PRES_VIS", "word": "body", "wordID": 144, "conditions": [24, 800, "v", 12000], "trial": 6, "serialpos": 4, "trial_type": "single-stim", "trial_index": 253, "time_elapsed": 1163104, "internal_node_id": "0.0-190.0"}}, {"uniqueid": "MTK0004:340UGXU9DZ80PRY8A21D6VY28A0UV0", "current_trial": 254, "dateTime": 1508955820874, "trialdata": {"rt": -1, "stimulus": "<p id=\"stim\">CATTLE</p>", "key_press": -1, "type": "PRES_VIS", "word": "cattle", "wordID": 260, "conditions": [24, 800, "v", 12000], "trial": 6, "serialpos": 5, "trial_type": "single-stim", "trial_index": 254, "time_elapsed": 1164974, "internal_node_id": "0.0-191.0"}}, {"uniqueid": "MTK0004:340UGXU9DZ80PRY8A21D6VY28A0UV0", "current_trial": 255, "dateTime": 1508955822650, "trialdata": {"rt": -1, "stimulus": "<p id=\"stim\">BEEF</p>", "key_press": -1, "type": "PRES_VIS", "word": "beef", "wordID": 112, "conditions": [24, 800, "v", 12000], "trial": 6, "serialpos": 6, "trial_type": "single-stim", "trial_index": 255, "time_elapsed": 1166751, "internal_node_id": "0.0-192.0"}}, {"uniqueid": "MTK0004:340UGXU9DZ80PRY8A21D6VY28A0UV0", "current_trial": 256, "dateTime": 1508955824284, "trialdata": {"rt": -1, "stimulus": "<p id=\"stim\">OINTMENT</p>", "key_press": -1, "type": "PRES_VIS", "word": "ointment", "wordID": 973, "conditions": [24, 800, "v", 12000], "trial": 6, "serialpos": 7, "trial_type": "single-stim", "trial_index": 256, "time_elapsed": 1168385, "internal_node_id": "0.0-193.0"}}, {"uniqueid": "MTK0004:340UGXU9DZ80PRY8A21D6VY28A0UV0", "current_trial": 257, "dateTime": 1508955826055, "trialdata": {"rt": -1, "stimulus": "<p id=\"stim\">SCULPTURE</p>", "key_press": -1, "type": "PRES_VIS", "word": "sculpture", "wordID": 1257, "conditions": [24, 800, "v", 12000], "trial": 6, "serialpos": 8, "trial_type": "single-stim", "trial_index": 257, "time_elapsed": 1170156, "internal_node_id": "0.0-194.0"}}, {"uniqueid": "MTK0004:340UGXU9DZ80PRY8A21D6VY28A0UV0", "current_trial": 258, "dateTime": 1508955827760, "trialdata": {"rt": -1, "stimulus": "<p id=\"stim\">SPARROW</p>", "key_press": -1, "type": "PRES_VIS", "word": "sparrow", "wordID": 1346, "conditions": [24, 800, "v", 12000], "trial": 6, "serialpos": 9, "trial_type": "single-stim", "trial_index": 258, "time_elapsed": 1171860, "internal_node_id": "0.0-195.0"}}, {"uniqueid": "MTK0004:340UGXU9DZ80PRY8A21D6VY28A0UV0", "current_trial": 259, "dateTime": 1508955829714, "trialdata": {"rt": -1, "stimulus": "<p id=\"stim\">PEBBLE</p>", "key_press": -1, "type": "PRES_VIS", "word": "pebble", "wordID": 1034, "conditions": [24, 800, "v", 12000], "trial": 6, "serialpos": 10, "trial_type": "single-stim", "trial_index": 259, "time_elapsed": 1173815, "internal_node_id": "0.0-196.0"}}, {"uniqueid": "MTK0004:340UGXU9DZ80PRY8A21D6VY28A0UV0", "current_trial": 260, "dateTime": 1508955831492, "trialdata": {"rt": -1, "stimulus": "<p id=\"stim\">BUG</p>", "key_press": -1, "type": "PRES_VIS", "word": "bug", "wordID": 186, "conditions": [24, 800, "v", 12000], "trial": 6, "serialpos": 11, "trial_type": "single-stim", "trial_index": 260, "time_elapsed": 1175593, "internal_node_id": "0.0-197.0"}}, {"uniqueid": "MTK0004:340UGXU9DZ80PRY8A21D6VY28A0UV0", "current_trial": 261, "dateTime": 1508955833255, "trialdata": {"rt": -1, "stimulus": "<p id=\"stim\">TILE</p>", "key_press": -1, "type": "PRES_VIS", "word": "tile", "wordID": 1467, "conditions": [24, 800, "v", 12000], "trial": 6, "serialpos": 12, "trial_type": "single-stim", "trial_index": 261, "time_elapsed": 1177355, "internal_node_id": "0.0-198.0"}}, {"uniqueid": "MTK0004:340UGXU9DZ80PRY8A21D6VY28A0UV0", "current_trial": 262, "dateTime": 1508955834953, "trialdata": {"rt": -1, "stimulus": "<p id=\"stim\">FIDDLE</p>", "key_press": -1, "type": "PRES_VIS", "word": "fiddle", "wordID": 560, "conditions": [24, 800, "v", 12000], "trial": 6, "serialpos": 13, "trial_type": "single-stim", "trial_index": 262, "time_elapsed": 1179053, "internal_node_id": "0.0-199.0"}}, {"uniqueid": "MTK0004:340UGXU9DZ80PRY8A21D6VY28A0UV0", "current_trial": 263, "dateTime": 1508955836727, "trialdata": {"rt": -1, "stimulus": "<p id=\"stim\">SURVEY</p>", "key_press": -1, "type": "PRES_VIS", "word": "survey", "wordID": 1413, "conditions": [24, 800, "v", 12000], "trial": 6, "serialpos": 14, "trial_type": "single-stim", "trial_index": 263, "time_elapsed": 1180827, "internal_node_id": "0.0-200.0"}}, {"uniqueid": "MTK0004:340UGXU9DZ80PRY8A21D6VY28A0UV0", "current_trial": 264, "dateTime": 1508955838599, "trialdata": {"rt": -1, "stimulus": "<p id=\"stim\">COIN</p>", "key_press": -1, "type": "PRES_VIS", "word": "coin", "wordID": 342, "conditions": [24, 800, "v", 12000], "trial": 6, "serialpos": 15, "trial_type": "single-stim", "trial_index": 264, "time_elapsed": 1182700, "internal_node_id": "0.0-201.0"}}, {"uniqueid": "MTK0004:340UGXU9DZ80PRY8A21D6VY28A0UV0", "current_trial": 265, "dateTime": 1508955840243, "trialdata": {"rt": -1, "stimulus": "<p id=\"stim\">PENGUIN</p>", "key_press": -1, "type": "PRES_VIS", "word": "penguin", "wordID": 1043, "conditions": [24, 800, "v", 12000], "trial": 6, "serialpos": 16, "trial_type": "single-stim", "trial_index": 265, "time_elapsed": 1184344, "internal_node_id": "0.0-202.0"}}, {"uniqueid": "MTK0004:340UGXU9DZ80PRY8A21D6VY28A0UV0", "current_trial": 266, "dateTime": 1508955842105, "trialdata": {"rt": -1, "stimulus": "<p id=\"stim\">SALMON</p>", "key_press": -1, "type": "PRES_VIS", "word": "salmon", "wordID": 1226, "conditions": [24, 800, "v", 12000], "trial": 6, "serialpos": 17, "trial_type": "single-stim", "trial_index": 266, "time_elapsed": 1186205, "internal_node_id": "0.0-203.0"}}, {"uniqueid": "MTK0004:340UGXU9DZ80PRY8A21D6VY28A0UV0", "current_trial": 267, "dateTime": 1508955843796, "trialdata": {"rt": -1, "stimulus": "<p id=\"stim\">ZIPPER</p>", "key_press": -1, "type": "PRES_VIS", "word": "zipper", "wordID": 1635, "conditions": [24, 800, "v", 12000], "trial": 6, "serialpos": 18, "trial_type": "single-stim", "trial_index": 267, "time_elapsed": 1187897, "internal_node_id": "0.0-204.0"}}, {"uniqueid": "MTK0004:340UGXU9DZ80PRY8A21D6VY28A0UV0", "current_trial": 268, "dat