{"condition": 0, "counterbalance": 647, "assignmentId": "3CTOC39K38XP0LMIG5UJTF9O66SJ7N", "workerId": "MTK0263", "hitId": "3CMV9YRYP38MSMDQUXQRN0V5O69LJI", "currenttrial": 626, "bonus": 0, "data": [{"uniqueid": "MTK0263:3CTOC39K38XP0LMIG5UJTF9O66SJ7N", "current_trial": 0, "dateTime": 1510688545313, "trialdata": {"rt": 25295, "key_press": 32, "type": "INSTRUCTIONS", "trial_type": "text", "trial_index": 0, "time_elapsed": 25297, "internal_node_id": "0.0-0.0"}}, {"uniqueid": "MTK0263:3CTOC39K38XP0LMIG5UJTF9O66SJ7N", "current_trial": 1, "dateTime": 1510688566674, "trialdata": {"rt": 21357, "key_press": 32, "type": "INSTRUCTIONS", "trial_type": "text", "trial_index": 1, "time_elapsed": 46658, "internal_node_id": "0.0-1.0"}}, {"uniqueid": "MTK0263:3CTOC39K38XP0LMIG5UJTF9O66SJ7N", "current_trial": 2, "dateTime": 1510688576407, "trialdata": {"rt": [9724], "responses": ["ocean"], "type": "AUDIO_TEST", "trial_type": "audio-test", "trial_index": 2, "time_elapsed": 56391, "internal_node_id": "0.0-2.0"}}, {"uniqueid": "MTK0263:3CTOC39K38XP0LMIG5UJTF9O66SJ7N", "current_trial": 3, "dateTime": 1510688592119, "trialdata": {"rt": [15711], "responses": ["crystal"], "type": "AUDIO_TEST", "trial_type": "audio-test", "trial_index": 3, "time_elapsed": 72103, "internal_node_id": "0.0-3.0"}}, {"uniqueid": "MTK0263:3CTOC39K38XP0LMIG5UJTF9O66SJ7N", "current_trial": 4, "dateTime": 1510688597926, "trialdata": {"rt": [5805], "responses": ["spice"], "type": "AUDIO_TEST", "trial_type": "audio-test", "trial_index": 4, "time_elapsed": 77910, "internal_node_id": "0.0-4.0"}}, {"uniqueid": "MTK0263:3CTOC39K38XP0LMIG5UJTF9O66SJ7N", "current_trial": 5, "dateTime": 1510688630222, "trialdata": {"rt": 31543, "responses": "{\"Q0\":\"9:50\",\"Q1\":\"6:45\",\"Q2\":\"4\"}", "type": "SLEEP_SURVEY", "trial_type": "survey-text", "trial_index": 5, "time_elapsed": 110206, "internal_node_id": "0.0-5.0"}}, {"uniqueid": "MTK0263:3CTOC39K38XP0LMIG5UJTF9O66SJ7N", "current_trial": 6, "dateTime": 1510688688616, "trialdata": {"rt": 57393, "key_press": 32, "type": "INSTRUCTIONS", "trial_type": "text", "trial_index": 6, "time_elapsed": 168600, "internal_node_id": "0.0-6.0"}}, {"uniqueid": "MTK0263:3CTOC39K38XP0LMIG5UJTF9O66SJ7N", "current_trial": 7, "dateTime": 1510688706544, "trialdata": {"rt": 17425, "key_press": 32, "type": "INSTRUCTIONS", "trial_type": "text", "trial_index": 7, "time_elapsed": 186527, "internal_node_id": "0.0-7.0"}}, {"uniqueid": "MTK0263:3CTOC39K38XP0LMIG5UJTF9O66SJ7N", "current_trial": 8, "dateTime": 1510688771047, "trialdata": {"rt": 64002, "key_press": 32, "type": "INSTRUCTIONS", "trial_type": "text", "trial_index": 8, "time_elapsed": 251031, "internal_node_id": "0.0-8.0"}}, {"uniqueid": "MTK0263:3CTOC39K38XP0LMIG5UJTF9O66SJ7N", "current_trial": 9, "dateTime": 1510688790052, "trialdata": {"rt": [2571, 4764, 7099, 9891, 12491, 15163, 17963], "responses": ["12", "12", "16", "19", "13", "14", "19"], "num1": [4, 3, 5, 9, 4, 4, 9, 5], "num2": [4, 5, 4, 6, 5, 9, 6, 5], "num3": [4, 4, 6, 4, 4, 1, 4, 4], "type": "DISTRACTOR", "conditions": [18, 1200, "a", 18000], "trial": 0, "trial_type": "math-distractor", "trial_index": 9, "time_elapsed": 270035, "internal_node_id": "0.0-9.0"}}, {"uniqueid": "MTK0263:3CTOC39K38XP0LMIG5UJTF9O66SJ7N", "current_trial": 10, "dateTime": 1510688793055, "trialdata": {"rt": -1, "stimulus": "<p id=\"stim\">10</p>", "key_press": -1, "trial_type": "single-stim", "trial_index": 10, "time_elapsed": 273038, "internal_node_id": "0.0-10.0-0.0"}}, {"uniqueid": "MTK0263:3CTOC39K38XP0LMIG5UJTF9O66SJ7N", "current_trial": 11, "dateTime": 1510688794057, "trialdata": {"rt": -1, "stimulus": "<p id=\"stim\">9</p>", "key_press": -1, "trial_type": "single-stim", "trial_index": 11, "time_elapsed": 274041, "internal_node_id": "0.0-10.0-1.0"}}, {"uniqueid": "MTK0263:3CTOC39K38XP0LMIG5UJTF9O66SJ7N", "current_trial": 12, "dateTime": 1510688795058, "trialdata": {"rt": -1, "stimulus": "<p id=\"stim\">8</p>", "key_press": -1, "trial_type": "single-stim", "trial_index": 12, "time_elapsed": 275042, "internal_node_id": "0.0-10.0-2.0"}}, {"uniqueid": "MTK0263:3CTOC39K38XP0LMIG5UJTF9O66SJ7N", "current_trial": 13, "dateTime": 1510688796060, "trialdata": {"rt": -1, "stimulus": "<p id=\"stim\">7</p>", "key_press": -1, "trial_type": "single-stim", "trial_index": 13, "time_elapsed": 276044, "internal_node_id": "0.0-10.0-3.0"}}, {"uniqueid": "MTK0263:3CTOC39K38XP0LMIG5UJTF9O66SJ7N", "current_trial": 14, "dateTime": 1510688797061, "trialdata": {"rt": -1, "stimulus": "<p id=\"stim\">6</p>", "key_press": -1, "trial_type": "single-stim", "trial_index": 14, "time_elapsed": 277045, "internal_node_id": "0.0-10.0-4.0"}}, {"uniqueid": "MTK0263:3CTOC39K38XP0LMIG5UJTF9O66SJ7N", "current_trial": 15, "dateTime": 1510688798063, "trialdata": {"rt": -1, "stimulus": "<p id=\"stim\">5</p>", "key_press": -1, "trial_type": "single-stim", "trial_index": 15, "time_elapsed": 278047, "internal_node_id": "0.0-10.0-5.0"}}, {"uniqueid": "MTK0263:3CTOC39K38XP0LMIG5UJTF9O66SJ7N", "current_trial": 16, "dateTime": 1510688799064, "trialdata": {"rt": -1, "stimulus": "<p id=\"stim\">4</p>", "key_press": -1, "trial_type": "single-stim", "trial_index": 16, "time_elapsed": 279048, "internal_node_id": "0.0-10.0-6.0"}}, {"uniqueid": "MTK0263:3CTOC39K38XP0LMIG5UJTF9O66SJ7N", "current_trial": 17, "dateTime": 1510688800067, "trialdata": {"rt": -1, "stimulus": "<p id=\"stim\">3</p>", "key_press": -1, "trial_type": "single-stim", "trial_index": 17, "time_elapsed": 280051, "internal_node_id": "0.0-10.0-7.0"}}, {"uniqueid": "MTK0263:3CTOC39K38XP0LMIG5UJTF9O66SJ7N", "current_trial": 18, "dateTime": 1510688801068, "trialdata": {"rt": -1, "stimulus": "<p id=\"stim\">2</p>", "key_press": -1, "trial_type": "single-stim", "trial_index": 18, "time_elapsed": 281052, "internal_node_id": "0.0-10.0-8.0"}}, {"uniqueid": "MTK0263:3CTOC39K38XP0LMIG5UJTF9O66SJ7N", "current_trial": 19, "dateTime": 1510688802069, "trialdata": {"rt": -1, "stimulus": "<p id=\"stim\">1</p>", "key_press": -1, "trial_type": "single-stim", "trial_index": 19, "time_elapsed": 282053, "internal_node_id": "0.0-10.0-9.0"}}, {"uniqueid": "MTK0263:3CTOC39K38XP0LMIG5UJTF9O66SJ7N", "current_trial": 20, "dateTime": 1510688803571, "trialdata": {"rt": -1, "stimulus": "<p id=\"stim\">+</p>", "key_press": -1, "type": "FIXATION", "trial_type": "single-stim", "trial_index": 20, "time_elapsed": 283555, "internal_node_id": "0.0-11.0-0.0"}}, {"uniqueid": "MTK0263:3CTOC39K38XP0LMIG5UJTF9O66SJ7N", "current_trial": 21, "dateTime": 1510688805885, "trialdata": {"rt": -1000, "stimulus": "/static/audio/wordpool/PLAZA.wav", "key_press": -1, "type": "PRES_AUD", "word": "plaza", "wordID": 1087, "conditions": [18, 1200, "a", 18000], "trial": 0, "serialpos": 0, "trial_type": "single-audio", "trial_index": 21, "time_elapsed": 285869, "internal_node_id": "0.0-12.0"}}, {"uniqueid": "MTK0263:3CTOC39K38XP0LMIG5UJTF9O66SJ7N", "current_trial": 22, "dateTime": 1510688808035, "trialdata": {"rt": -1000, "stimulus": "/static/audio/wordpool/TWIG.wav", "key_press": -1, "type": "PRES_AUD", "word": "twig", "wordID": 1526, "conditions": [18, 1200, "a", 18000], "trial": 0, "serialpos": 1, "trial_type": "single-audio", "trial_index": 22, "time_elapsed": 288019, "internal_node_id": "0.0-13.0"}}, {"uniqueid": "MTK0263:3CTOC39K38XP0LMIG5UJTF9O66SJ7N", "current_trial": 23, "dateTime": 1510688810164, "trialdata": {"rt": -1000, "stimulus": "/static/audio/wordpool/SIBLING.wav", "key_press": -1, "type": "PRES_AUD", "word": "sibling", "wordID": 1300, "conditions": [18, 1200, "a", 18000], "trial": 0, "serialpos": 2, "trial_type": "single-audio", "trial_index": 23, "time_elapsed": 290148, "internal_node_id": "0.0-14.0"}}, {"uniqueid": "MTK0263:3CTOC39K38XP0LMIG5UJTF9O66SJ7N", "current_trial": 24, "dateTime": 1510688812216, "trialdata": {"rt": -1000, "stimulus": "/static/audio/wordpool/TUNNEL.wav", "key_press": -1, "type": "PRES_AUD", "word": "tunnel", "wordID": 1518, "conditions": [18, 1200, "a", 18000], "trial": 0, "serialpos": 3, "trial_type": "single-audio", "trial_index": 24, "time_elapsed": 292200, "internal_node_id": "0.0-15.0"}}, {"uniqueid": "MTK0263:3CTOC39K38XP0LMIG5UJTF9O66SJ7N", "current_trial": 25, "dateTime": 1510688814261, "trialdata": {"rt": -1000, "stimulus": "/static/audio/wordpool/CUPBOARD.wav", "key_press": -1, "type": "PRES_AUD", "word": "cupboard", "wordID": 424, "conditions": [18, 1200, "a", 18000], "trial": 0, "serialpos": 4, "trial_type": "single-audio", "trial_index": 25, "time_elapsed": 294245, "internal_node_id": "0.0-16.0"}}, {"uniqueid": "MTK0263:3CTOC39K38XP0LMIG5UJTF9O66SJ7N", "current_trial": 26, "dateTime": 1510688816349, "trialdata": {"rt": -1000, "stimulus": "/static/audio/wordpool/KNIFE.wav", "key_press": -1, "type": "PRES_AUD", "word": "knife", "wordID": 784, "conditions": [18, 1200, "a", 18000], "trial": 0, "serialpos": 5, "trial_type": "single-audio", "trial_index": 26, "time_elapsed": 296333, "internal_node_id": "0.0-17.0"}}, {"uniqueid": "MTK0263:3CTOC39K38XP0LMIG5UJTF9O66SJ7N", "current_trial": 27, "dateTime": 1510688818388, "trialdata": {"rt": -1000, "stimulus": "/static/audio/wordpool/COTTAGE.wav", "key_press": -1, "type": "PRES_AUD", "word": "cottage", "wordID": 383, "conditions": [18, 1200, "a", 18000], "trial": 0, "serialpos": 6, "trial_type": "single-audio", "trial_index": 27, "time_elapsed": 298372, "internal_node_id": "0.0-18.0"}}, {"uniqueid": "MTK0263:3CTOC39K38XP0LMIG5UJTF9O66SJ7N", "current_trial": 28, "dateTime": 1510688820472, "trialdata": {"rt": -1000, "stimulus": "/static/audio/wordpool/MILDEW.wav", "key_press": -1, "type": "PRES_AUD", "word": "mildew", "wordID": 892, "conditions": [18, 1200, "a", 18000], "trial": 0, "serialpos": 7, "trial_type": "single-audio", "trial_index": 28, "time_elapsed": 300456, "internal_node_id": "0.0-19.0"}}, {"uniqueid": "MTK0263:3CTOC39K38XP0LMIG5UJTF9O66SJ7N", "current_trial": 29, "dateTime": 1510688822654, "trialdata": {"rt": -1000, "stimulus": "/static/audio/wordpool/DAUGHTER.wav", "key_press": -1, "type": "PRES_AUD", "word": "daughter", "wordID": 441, "conditions": [18, 1200, "a", 18000], "trial": 0, "serialpos": 8, "trial_type": "single-audio", "trial_index": 29, "time_elapsed": 302638, "internal_node_id": "0.0-20.0"}}, {"uniqueid": "MTK0263:3CTOC39K38XP0LMIG5UJTF9O66SJ7N", "current_trial": 30, "dateTime": 1510688824670, "trialdata": {"rt": -1000, "stimulus": "/static/audio/wordpool/PERFUME.wav", "key_press": -1, "type": "PRES_AUD", "word": "perfume", "wordID": 1048, "conditions": [18, 1200, "a", 18000], "trial": 0, "serialpos": 9, "trial_type": "single-audio", "trial_index": 30, "time_elapsed": 304654, "internal_node_id": "0.0-21.0"}}, {"uniqueid": "MTK0263:3CTOC39K38XP0LMIG5UJTF9O66SJ7N", "current_trial": 31, "dateTime": 1510688826932, "trialdata": {"rt": -1000, "stimulus": "/static/audio/wordpool/ARM.wav", "key_press": -1, "type": "PRES_AUD", "word": "arm", "wordID": 37, "conditions": [18, 1200, "a", 18000], "trial": 0, "serialpos": 10, "trial_type": "single-audio", "trial_index": 31, "time_elapsed": 306916, "internal_node_id": "0.0-22.0"}}, {"uniqueid": "MTK0263:3CTOC39K38XP0LMIG5UJTF9O66SJ7N", "current_trial": 32, "dateTime": 1510688829108, "trialdata": {"rt": -1000, "stimulus": "/static/audio/wordpool/CANYON.wav", "key_press": -1, "type": "PRES_AUD", "word": "canyon", "wordID": 234, "conditions": [18, 1200, "a", 18000], "trial": 0, "serialpos": 11, "trial_type": "single-audio", "trial_index": 32, "time_elapsed": 309092, "internal_node_id": "0.0-23.0"}}, {"uniqueid": "MTK0263:3CTOC39K38XP0LMIG5UJTF9O66SJ7N", "current_trial": 33, "dateTime": 1510688831178, "trialdata": {"rt": -1000, "stimulus": "/static/audio/wordpool/CAPTIVE.wav", "key_press": -1, "type": "PRES_AUD", "word": "captive", "wordID": 239, "conditions": [18, 1200, "a", 18000], "trial": 0, "serialpos": 12, "trial_type": "single-audio", "trial_index": 33, "time_elapsed": 311162, "internal_node_id": "0.0-24.0"}}, {"uniqueid": "MTK0263:3CTOC39K38XP0LMIG5UJTF9O66SJ7N", "current_trial": 34, "dateTime": 1510688833318, "trialdata": {"rt": -1000, "stimulus": "/static/audio/wordpool/TUBA.wav", "key_press": -1, "type": "PRES_AUD", "word": "tuba", "wordID": 1514, "conditions": [18, 1200, "a", 18000], "trial": 0, "serialpos": 13, "trial_type": "single-audio", "trial_index": 34, "time_elapsed": 313302, "internal_node_id": "0.0-25.0"}}, {"uniqueid": "MTK0263:3CTOC39K38XP0LMIG5UJTF9O66SJ7N", "current_trial": 35, "dateTime": 1510688835404, "trialdata": {"rt": -1000, "stimulus": "/static/audio/wordpool/SPHINX.wav", "key_press": -1, "type": "PRES_AUD", "word": "sphinx", "wordID": 1348, "conditions": [18, 1200, "a", 18000], "trial": 0, "serialpos": 14, "trial_type": "single-audio", "trial_index": 35, "time_elapsed": 315388, "internal_node_id": "0.0-26.0"}}, {"uniqueid": "MTK0263:3CTOC39K38XP0LMIG5UJTF9O66SJ7N", "current_trial": 36, "dateTime": 1510688837745, "trialdata": {"rt": -1000, "stimulus": "/static/audio/wordpool/PISTON.wav", "key_press": -1, "type": "PRES_AUD", "word": "piston", "wordID": 1075, "conditions": [18, 1200, "a", 18000], "trial": 0, "serialpos": 15, "trial_type": "single-audio", "trial_index": 36, "time_elapsed": 317729, "internal_node_id": "0.0-27.0"}}, {"uniqueid": "MTK0263:3CTOC39K38XP0LMIG5UJTF9O66SJ7N", "current_trial": 37, "dateTime": 1510688839867, "trialdata": {"rt": -1000, "stimulus": "/static/audio/wordpool/MAILBOX.wav", "key_press": -1, "type": "PRES_AUD", "word": "mailbox", "wordID": 856, "conditions": [18, 1200, "a", 18000], "trial": 0, "serialpos": 16, "trial_type": "single-audio", "trial_index": 37, "time_elapsed": 319851, "internal_node_id": "0.0-28.0"}}, {"uniqueid": "MTK0263:3CTOC39K38XP0LMIG5UJTF9O66SJ7N", "current_trial": 38, "dateTime": 1510688841990, "trialdata": {"rt": -1000, "stimulus": "/static/audio/wordpool/LUNCH.wav", "key_press": -1, "type": "PRES_AUD", "word": "lunch", "wordID": 848, "conditions": [18, 1200, "a", 18000], "trial": 0, "serialpos": 17, "trial_type": "single-audio", "trial_index": 38, "time_elapsed": 321974, "internal_node_id": "0.0-29.0"}}, {"uniqueid": "MTK0263:3CTOC39K38XP0LMIG5UJTF9O66SJ7N", "current_trial": 39, "dateTime": 1510688843253, "trialdata": {"rt": -1, "stimulus": "", "key_press": -1, "type": "PRE_RECALL_DELAY", "trial_type": "single-stim", "trial_index": 39, "time_elapsed": 323236, "internal_node_id": "0.0-30.0-0.0"}}, {"uniqueid": "MTK0263:3CTOC39K38XP0LMIG5UJTF9O66SJ7N", "current_trial": 40, "dateTime": 1510688843753, "trialdata": {"rt": -1000, "stimulus": "/static/audio/400Hz.wav", "key_press": -1, "type": "PRE_RECALL_ALERT", "trial_type": "single-audio", "trial_index": 40, "time_elapsed": 323737, "internal_node_id": "0.0-31.0"}}, {"uniqueid": "MTK0263:3CTOC39K38XP0LMIG5UJTF9O66SJ7N", "current_trial": 41, "dateTime": 1510688903758, "trialdata": {"rt": [3357, 5173, 8405, 29605, 34397, 56740], "recwords": ["mailbox", "lunch", "sibling", "daughter", "chef", "tuba"], "type": "FREE_RECALL", "conditions": [18, 1200, "a", 18000], "trial": 0, "trial_type": "free-recall", "trial_index": 41, "time_elapsed": 383740, "internal_node_id": "0.0-32.0-0.0"}}, {"uniqueid": "MTK0263:3CTOC39K38XP0LMIG5UJTF9O66SJ7N", "current_trial": 42, "dateTime": 1510688906895, "trialdata": {"rt": 1135, "key_press": 32, "type": "INSTRUCTIONS", "trial_type": "text", "trial_index": 42, "time_elapsed": 386879, "internal_node_id": "0.0-33.0"}}, {"uniqueid": "MTK0263:3CTOC39K38XP0LMIG5UJTF9O66SJ7N", "current_trial": 43, "dateTime": 1510688926897, "trialdata": {"rt": [2174, 3574, 6030, 7998, 9591, 11118, 12646, 14342, 16430], "responses": ["6", "1", "9", "10", "7", "4", "11", "12", "9"], "num1": [1, 6, 2, 4, 1, 1, 6, 4, 2, 4], "num2": [3, 6, 4, 2, 5, 2, 4, 7, 6, 9], "num3": [2, 1, 3, 4, 1, 1, 1, 1, 1, 9], "type": "DISTRACTOR", "conditions": [18, 1200, "v", 18000], "trial": 1, "trial_type": "math-distractor", "trial_index": 43, "time_elapsed": 406881, "internal_node_id": "0.0-34.0"}}, {"uniqueid": "MTK0263:3CTOC39K38XP0LMIG5UJTF9O66SJ7N", "current_trial": 44, "dateTime": 1510688929899, "trialdata": {"rt": -1, "stimulus": "<p id=\"stim\">10</p>", "key_press": -1, "trial_type": "single-stim", "trial_index": 44, "time_elapsed": 409883, "internal_node_id": "0.0-35.0-0.0"}}, {"uniqueid": "MTK0263:3CTOC39K38XP0LMIG5UJTF9O66SJ7N", "current_trial": 45, "dateTime": 1510688930901, "trialdata": {"rt": -1, "stimulus": "<p id=\"stim\">9</p>", "key_press": -1, "trial_type": "single-stim", "trial_index": 45, "time_elapsed": 410885, "internal_node_id": "0.0-35.0-1.0"}}, {"uniqueid": "MTK0263:3CTOC39K38XP0LMIG5UJTF9O66SJ7N", "current_trial": 46, "dateTime": 1510688931902, "trialdata": {"rt": -1, "stimulus": "<p id=\"stim\">8</p>", "key_press": -1, "trial_type": "single-stim", "trial_index": 46, "time_elapsed": 411886, "internal_node_id": "0.0-35.0-2.0"}}, {"uniqueid": "MTK0263:3CTOC39K38XP0LMIG5UJTF9O66SJ7N", "current_trial": 47, "dateTime": 1510688932904, "trialdata": {"rt": -1, "stimulus": "<p id=\"stim\">7</p>", "key_press": -1, "trial_type": "single-stim", "trial_index": 47, "time_elapsed": 412888, "internal_node_id": "0.0-35.0-3.0"}}, {"uniqueid": "MTK0263:3CTOC39K38XP0LMIG5UJTF9O66SJ7N", "current_trial": 48, "dateTime": 1510688933905, "trialdata": {"rt": -1, "stimulus": "<p id=\"stim\">6</p>", "key_press": -1, "trial_type": "single-stim", "trial_index": 48, "time_elapsed": 413889, "internal_node_id": "0.0-35.0-4.0"}}, {"uniqueid": "MTK0263:3CTOC39K38XP0LMIG5UJTF9O66SJ7N", "current_trial": 49, "dateTime": 1510688934907, "trialdata": {"rt": -1, "stimulus": "<p id=\"stim\">5</p>", "key_press": -1, "trial_type": "single-stim", "trial_index": 49, "time_elapsed": 414891, "internal_node_id": "0.0-35.0-5.0"}}, {"uniqueid": "MTK0263:3CTOC39K38XP0LMIG5UJTF9O66SJ7N", "current_trial": 50, "dateTime": 1510688935908, "trialdata": {"rt": -1, "stimulus": "<p id=\"stim\">4</p>", "key_press": -1, "trial_type": "single-stim", "trial_index": 50, "time_elapsed": 415892, "internal_node_id": "0.0-35.0-6.0"}}, {"uniqueid": "MTK0263:3CTOC39K38XP0LMIG5UJTF9O66SJ7N", "current_trial": 51, "dateTime": 1510688936910, "trialdata": {"rt": -1, "stimulus": "<p id=\"stim\">3</p>", "key_press": -1, "trial_type": "single-stim", "trial_index": 51, "time_elapsed": 416894, "internal_node_id": "0.0-35.0-7.0"}}, {"uniqueid": "MTK0263:3CTOC39K38XP0LMIG5UJTF9O66SJ7N", "current_trial": 52, "dateTime": 1510688937911, "trialdata": {"rt": -1, "stimulus": "<p id=\"stim\">2</p>", "key_press": -1, "trial_type": "single-stim", "trial_index": 52, "time_elapsed": 417895, "internal_node_id": "0.0-35.0-8.0"}}, {"uniqueid": "MTK0263:3CTOC39K38XP0LMIG5UJTF9O66SJ7N", "current_trial": 53, "dateTime": 1510688938912, "trialdata": {"rt": -1, "stimulus": "<p id=\"stim\">1</p>", "key_press": -1, "trial_type": "single-stim", "trial_index": 53, "time_elapsed": 418896, "internal_node_id": "0.0-35.0-9.0"}}, {"uniqueid": "MTK0263:3CTOC39K38XP0LMIG5UJTF9O66SJ7N", "current_trial": 54, "dateTime": 1510688940413, "trialdata": {"rt": -1, "stimulus": "<p id=\"stim\">+</p>", "key_press": -1, "type": "FIXATION", "trial_type": "single-stim", "trial_index": 54, "time_elapsed": 420397, "internal_node_id": "0.0-36.0-0.0"}}, {"uniqueid": "MTK0263:3CTOC39K38XP0LMIG5UJTF9O66SJ7N", "current_trial": 55, "dateTime": 1510688941614, "trialdata": {"rt": -1, "stimulus": "<p id=\"stim\">SLUG</p>", "key_press": -1, "type": "PRES_VIS", "word": "slug", "wordID": 1328, "conditions": [18, 1200, "v", 18000], "trial": 1, "serialpos": 0, "trial_type": "single-stim", "trial_index": 55, "time_elapsed": 421598, "internal_node_id": "0.0-37.0"}}, {"uniqueid": "MTK0263:3CTOC39K38XP0LMIG5UJTF9O66SJ7N", "current_trial": 56, "dateTime": 1510688943923, "trialdata": {"rt": -1, "stimulus": "<p id=\"stim\">LOVER</p>", "key_press": -1, "type": "PRES_VIS", "word": "lover", "wordID": 845, "conditions": [18, 1200, "v", 18000], "trial": 1, "serialpos": 1, "trial_type": "single-stim", "trial_index": 56, "time_elapsed": 423907, "internal_node_id": "0.0-38.0"}}, {"uniqueid": "MTK0263:3CTOC39K38XP0LMIG5UJTF9O66SJ7N", "current_trial": 57, "dateTime": 1510688946308, "trialdata": {"rt": -1, "stimulus": "<p id=\"stim\">BRICK</p>", "key_press": -1, "type": "PRES_VIS", "word": "brick", "wordID": 171, "conditions": [18, 1200, "v", 18000], "trial": 1, "serialpos": 2, "trial_type": "single-stim", "trial_index": 57, "time_elapsed": 426292, "internal_node_id": "0.0-39.0"}}, {"uniqueid": "MTK0263:3CTOC39K38XP0LMIG5UJTF9O66SJ7N", "current_trial": 58, "dateTime": 1510688948531, "trialdata": {"rt": -1, "stimulus": "<p id=\"stim\">KETCHUP</p>", "key_press": -1, "type": "PRES_VIS", "word": "ketchup", "wordID": 770, "conditions": [18, 1200, "v", 18000], "trial": 1, "serialpos": 3, "trial_type": "single-stim", "trial_index": 58, "time_elapsed": 428515, "internal_node_id": "0.0-40.0"}}, {"uniqueid": "MTK0263:3CTOC39K38XP0LMIG5UJTF9O66SJ7N", "current_trial": 59, "dateTime": 1510688950869, "trialdata": {"rt": -1, "stimulus": "<p id=\"stim\">TRANSPLANT</p>", "key_press": -1, "type": "PRES_VIS", "word": "transplant", "wordID": 1495, "conditions": [18, 1200, "v", 18000], "trial": 1, "serialpos": 4, "trial_type": "single-stim", "trial_index": 59, "time_elapsed": 430853, "internal_node_id": "0.0-41.0"}}, {"uniqueid": "MTK0263:3CTOC39K38XP0LMIG5UJTF9O66SJ7N", "current_trial": 60, "dateTime": 1510688953050, "trialdata": {"rt": -1, "stimulus": "<p id=\"stim\">FLASHLIGHT</p>", "key_press": -1, "type": "PRES_VIS", "word": "flashlight", "wordID": 574, "conditions": [18, 1200, "v", 18000], "trial": 1, "serialpos": 5, "trial_type": "single-stim", "trial_index": 60, "time_elapsed": 433034, "internal_node_id": "0.0-42.0"}}, {"uniqueid": "MTK0263:3CTOC39K38XP0LMIG5UJTF9O66SJ7N", "current_trial": 61, "dateTime": 1510688955368, "trialdata": {"rt": -1, "stimulus": "<p id=\"stim\">JURY</p>", "key_press": -1, "type": "PRES_VIS", "word": "jury", "wordID": 765, "conditions": [18, 1200, "v", 18000], "trial": 1, "serialpos": 6, "trial_type": "single-stim", "trial_index": 61, "time_elapsed": 435352, "internal_node_id": "0.0-43.0"}}, {"uniqueid": "MTK0263:3CTOC39K38XP0LMIG5UJTF9O66SJ7N", "current_trial": 62, "dateTime": 1510688957665, "trialdata": {"rt": -1, "stimulus": "<p id=\"stim\">BLACKBOARD</p>", "key_press": -1, "type": "PRES_VIS", "word": "blackboard", "wordID": 132, "conditions": [18, 1200, "v", 18000], "trial": 1, "serialpos": 7, "trial_type": "single-stim", "trial_index": 62, "time_elapsed": 437649, "internal_node_id": "0.0-44.0"}}, {"uniqueid": "MTK0263:3CTOC39K38XP0LMIG5UJTF9O66SJ7N", "current_trial": 63, "dateTime": 1510688959993, "trialdata": {"rt": -1, "stimulus": "<p id=\"stim\">ROBIN</p>", "key_press": -1, "type": "PRES_VIS", "word": "robin", "wordID": 1198, "conditions": [18, 1200, "v", 18000], "trial": 1, "serialpos": 8, "trial_type": "single-stim", "trial_index": 63, "time_elapsed": 439977, "internal_node_id": "0.0-45.0"}}, {"uniqueid": "MTK0263:3CTOC39K38XP0LMIG5UJTF9O66SJ7N", "current_trial": 64, "dateTime": 1510688962312, "trialdata": {"rt": -1, "stimulus": "<p id=\"stim\">OUTFIT</p>", "key_press": -1, "type": "PRES_VIS", "word": "outfit", "wordID": 987, "conditions": [18, 1200, "v", 18000], "trial": 1, "serialpos": 9, "trial_type": "single-stim", "trial_index": 64, "time_elapsed": 442296, "internal_node_id": "0.0-46.0"}}, {"uniqueid": "MTK0263:3CTOC39K38XP0LMIG5UJTF9O66SJ7N", "current_trial": 65, "dateTime": 1510688964399, "trialdata": {"rt": -1, "stimulus": "<p id=\"stim\">SLIDE</p>", "key_press": -1, "type": "PRES_VIS", "word": "slide", "wordID": 1325, "conditions": [18, 1200, "v", 18000], "trial": 1, "serialpos": 10, "trial_type": "single-stim", "trial_index": 65, "time_elapsed": 444383, "internal_node_id": "0.0-47.0"}}, {"uniqueid": "MTK0263:3CTOC39K38XP0LMIG5UJTF9O66SJ7N", "current_trial": 66, "dateTime": 1510688966584, "trialdata": {"rt": -1, "stimulus": "<p id=\"stim\">ONION</p>", "key_press": -1, "type": "PRES_VIS", "word": "onion", "wordID": 976, "conditions": [18, 1200, "v", 18000], "trial": 1, "serialpos": 11, "trial_type": "single-stim", "trial_index": 66, "time_elapsed": 446568, "internal_node_id": "0.0-48.0"}}, {"uniqueid": "MTK0263:3CTOC39K38XP0LMIG5UJTF9O66SJ7N", "current_trial": 67, "dateTime": 1510688968635, "trialdata": {"rt": -1, "stimulus": "<p id=\"stim\">TOMBSTONE</p>", "key_press": -1, "type": "PRES_VIS", "word": "tombstone", "wordID": 1477, "conditions": [18, 1200, "v", 18000], "trial": 1, "serialpos": 12, "trial_type": "single-stim", "trial_index": 67, "time_elapsed": 448619, "internal_node_id": "0.0-49.0"}}, {"uniqueid": "MTK0263:3CTOC39K38XP0LMIG5UJTF9O66SJ7N", "current_trial": 68, "dateTime": 1510688970898, "trialdata": {"rt": -1, "stimulus": "<p id=\"stim\">PEANUT</p>", "key_press": -1, "type": "PRES_VIS", "word": "peanut", "wordID": 1031, "conditions": [18, 1200, "v", 18000], "trial": 1, "serialpos": 13, "trial_type": "single-stim", "trial_index": 68, "time_elapsed": 450881, "internal_node_id": "0.0-50.0"}}, {"uniqueid": "MTK0263:3CTOC39K38XP0LMIG5UJTF9O66SJ7N", "current_trial": 69, "dateTime": 1510688973115, "trialdata": {"rt": -1, "stimulus": "<p id=\"stim\">ELBOW</p>", "key_press": -1, "type": "PRES_VIS", "word": "elbow", "wordID": 519, "conditions": [18, 1200, "v", 18000], "trial": 1, "serialpos": 14, "trial_type": "single-stim", "trial_index": 69, "time_elapsed": 453099, "internal_node_id": "0.0-51.0"}}, {"uniqueid": "MTK0263:3CTOC39K38XP0LMIG5UJTF9O66SJ7N", "current_trial": 70, "dateTime": 1510688975361, "trialdata": {"rt": -1, "stimulus": "<p id=\"stim\">DENIM</p>", "key_press": -1, "type": "PRES_VIS", "word": "denim", "wordID": 445, "conditions": [18, 1200, "v", 18000], "trial": 1, "serialpos": 15, "trial_type": "single-stim", "trial_index": 70, "time_elapsed": 455345, "internal_node_id": "0.0-52.0"}}, {"uniqueid": "MTK0263:3CTOC39K38XP0LMIG5UJTF9O66SJ7N", "current_trial": 71, "dateTime": 1510688977669, "trialdata": {"rt": -1, "stimulus": "<p id=\"stim\">TWISTER</p>", "key_press": -1, "type": "PRES_VIS", "word": "twister", "wordID": 1529, "conditions": [18, 1200, "v", 18000], "trial": 1, "serialpos": 16, "trial_type": "single-stim", "trial_index": 71, "time_elapsed": 457653, "internal_node_id": "0.0-53.0"}}, {"uniqueid": "MTK0263:3CTOC39K38XP0LMIG5UJTF9O66SJ7N", "current_trial": 72, "dateTime": 1510688979819, "trialdata": {"rt": -1, "stimulus": "<p id=\"stim\">ICEBERG</p>", "key_press": -1, "type": "PRES_VIS", "word": "iceberg", "wordID": 730, "conditions": [18, 1200, "v", 18000], "trial": 1, "serialpos": 17, "trial_type": "single-stim", "trial_index": 72, "time_elapsed": 459803, "internal_node_id": "0.0-54.0"}}, {"uniqueid": "MTK0263:3CTOC39K38XP0LMIG5UJTF9O66SJ7N", "current_trial": 73, "dateTime": 1510688982066, "trialdata": {"rt": -1, "stimulus": "", "key_press": -1, "type": "PRE_RECALL_DELAY", "trial_type": "single-stim", "trial_index": 73, "time_elapsed": 462050, "internal_node_id": "0.0-55.0-0.0"}}, {"uniqueid": "MTK0263:3CTOC39K38XP0LMIG5UJTF9O66SJ7N", "current_trial": 74, "dateTime": 1510688982568, "trialdata": {"rt": -1000, "stimulus": "/static/audio/400Hz.wav", "key_press": -1, "type": "PRE_RECALL_ALERT", "trial_type": "single-audio", "trial_index": 74, "time_elapsed": 462551, "internal_node_id": "0.0-56.0"}}, {"uniqueid": "MTK0263:3CTOC39K38XP0LMIG5UJTF9O66SJ7N", "current_trial": 75, "dateTime": 1510689042574, "trialdata": {"rt": [4172, 6675, 28596, 38340, 47804, 54452], "recwords": ["iceberg", "twig", "ketchup", "robin", "sibling", "stem"], "type": "FREE_RECALL", "conditions": [18, 1200, "v", 18000], "trial": 1, "trial_type": "free-recall", "trial_index": 75, "time_elapsed": 522557, "internal_node_id": "0.0-57.0-0.0"}}, {"uniqueid": "MTK0263:3CTOC39K38XP0LMIG5UJTF9O66SJ7N", "current_trial": 76, "dateTime": 1510689050617, "trialdata": {"rt": 6040, "key_press": 13, "type": "INSTRUCTIONS", "trial_type": "text", "trial_index": 76, "time_elapsed": 530599, "internal_node_id": "0.0-58.0"}}, {"uniqueid": "MTK0263:3CTOC39K38XP0LMIG5UJTF9O66SJ7N", "current_trial": 77, "dateTime": 1510689075621, "trialdata": {"rt": [3547, 5211, 8139, 10291, 11923, 13476, 15243, 16987, 20387, 21867], "responses": ["15", "12", "14", "13", "15", "13", "17", "5", "21", "9"], "num1": [7, 1, 7, 6, 2, 3, 6, 3, 6, 1, 1], "num2": [3, 3, 6, 1, 8, 7, 4, 1, 7, 2, 5], "num3": [5, 8, 1, 6, 5, 3, 7, 1, 8, 6, 7], "type": "DISTRACTOR", "conditions": [12, 800, "a", 24000], "trial": 2, "trial_type": "math-distractor", "trial_index": 77, "time_elapsed": 555604, "internal_node_id": "0.0-59.0"}}, {"uniqueid": "MTK0263:3CTOC39K38XP0LMIG5UJTF9O66SJ7N", "current_trial": 78, "dateTime": 1510689078624, "trialdata": {"rt": -1, "stimulus": "<p id=\"stim\">10</p>", "key_press": -1, "trial_type": "single-stim", "trial_index": 78, "time_elapsed": 558608, "internal_node_id": "0.0-60.0-0.0"}}, {"uniqueid": "MTK0263:3CTOC39K38XP0LMIG5UJTF9O66SJ7N", "current_trial": 79, "dateTime": 1510689079625, "trialdata": {"rt": -1, "stimulus": "<p id=\"stim\">9</p>", "key_press": -1, "trial_type": "single-stim", "trial_index": 79, "time_elapsed": 559609, "internal_node_id": "0.0-60.0-1.0"}}, {"uniqueid": "MTK0263:3CTOC39K38XP0LMIG5UJTF9O66SJ7N", "current_trial": 80, "dateTime": 1510689080627, "trialdata": {"rt": -1, "stimulus": "<p id=\"stim\">8</p>", "key_press": -1, "trial_type": "single-stim", "trial_index": 80, "time_elapsed": 560611, "internal_node_id": "0.0-60.0-2.0"}}, {"uniqueid": "MTK0263:3CTOC39K38XP0LMIG5UJTF9O66SJ7N", "current_trial": 81, "dateTime": 1510689081628, "trialdata": {"rt": -1, "stimulus": "<p id=\"stim\">7</p>", "key_press": -1, "trial_type": "single-stim", "trial_index": 81, "time_elapsed": 561612, "internal_node_id": "0.0-60.0-3.0"}}, {"uniqueid": "MTK0263:3CTOC39K38XP0LMIG5UJTF9O66SJ7N", "current_trial": 82, "dateTime": 1510689082628, "trialdata": {"rt": -1, "stimulus": "<p id=\"stim\">6</p>", "key_press": -1, "trial_type": "single-stim", "trial_index": 82, "time_elapsed": 562612, "internal_node_id": "0.0-60.0-4.0"}}, {"uniqueid": "MTK0263:3CTOC39K38XP0LMIG5UJTF9O66SJ7N", "current_trial": 83, "dateTime": 1510689083629, "trialdata": {"rt": -1, "stimulus": "<p id=\"stim\">5</p>", "key_press": -1, "trial_type": "single-stim", "trial_index": 83, "time_elapsed": 563613, "internal_node_id": "0.0-60.0-5.0"}}, {"uniqueid": "MTK0263:3CTOC39K38XP0LMIG5UJTF9O66SJ7N", "current_trial": 84, "dateTime": 1510689084631, "trialdata": {"rt": -1, "stimulus": "<p id=\"stim\">4</p>", "key_press": -1, "trial_type": "single-stim", "trial_index": 84, "time_elapsed": 564615, "internal_node_id": "0.0-60.0-6.0"}}, {"uniqueid": "MTK0263:3CTOC39K38XP0LMIG5UJTF9O66SJ7N", "current_trial": 85, "dateTime": 1510689085632, "trialdata": {"rt": -1, "stimulus": "<p id=\"stim\">3</p>", "key_press": -1, "trial_type": "single-stim", "trial_index": 85, "time_elapsed": 565616, "internal_node_id": "0.0-60.0-7.0"}}, {"uniqueid": "MTK0263:3CTOC39K38XP0LMIG5UJTF9O66SJ7N", "current_trial": 86, "dateTime": 1510689086634, "trialdata": {"rt": -1, "stimulus": "<p id=\"stim\">2</p>", "key_press": -1, "trial_type": "single-stim", "trial_index": 86, "time_elapsed": 566618, "internal_node_id": "0.0-60.0-8.0"}}, {"uniqueid": "MTK0263:3CTOC39K38XP0LMIG5UJTF9O66SJ7N", "current_trial": 87, "dateTime": 1510689087635, "trialdata": {"rt": -1, "stimulus": "<p id=\"stim\">1</p>", "key_press": -1, "trial_type": "single-stim", "trial_index": 87, "time_elapsed": 567619, "internal_node_id": "0.0-60.0-9.0"}}, {"uniqueid": "MTK0263:3CTOC39K38XP0LMIG5UJTF9O66SJ7N", "current_trial": 88, "dateTime": 1510689089137, "trialdata": {"rt": -1, "stimulus": "<p id=\"stim\">+</p>", "key_press": -1, "type": "FIXATION", "trial_type": "single-stim", "trial_index": 88, "time_elapsed": 569121, "internal_node_id": "0.0-61.0-0.0"}}, {"uniqueid": "MTK0263:3CTOC39K38XP0LMIG5UJTF9O66SJ7N", "current_trial": 89, "dateTime": 1510689090787, "trialdata": {"rt": -1000, "stimulus": "/static/audio/wordpool/PATIENT.wav", "key_press": -1, "type": "PRES_AUD", "word": "patient", "wordID": 1023, "conditions": [12, 800, "a", 24000], "trial": 2, "serialpos": 0, "trial_type": "single-audio", "trial_index": 89, "time_elapsed": 570771, "internal_node_id": "0.0-62.0"}}, {"uniqueid": "MTK0263:3CTOC39K38XP0LMIG5UJTF9O66SJ7N", "current_trial": 90, "dateTime": 1510689092757, "trialdata": {"rt": -1000, "stimulus": "/static/audio/wordpool/FREEZER.wav", "key_press": -1, "type": "PRES_AUD", "word": "freezer", "wordID": 603, "conditions": [12, 800, "a", 24000], "trial": 2, "serialpos": 1, "trial_type": "single-audio", "trial_index": 90, "time_elapsed": 572741, "internal_node_id": "0.0-63.0"}}, {"uniqueid": "MTK0263:3CTOC39K38XP0LMIG5UJTF9O66SJ7N", "current_trial": 91, "dateTime": 1510689094466, "trialdata": {"rt": -1000, "stimulus": "/static/audio/wordpool/LIPSTICK.wav", "key_press": -1, "type": "PRES_AUD", "word": "lipstick", "wordID": 828, "conditions": [12, 800, "a", 24000], "trial": 2, "serialpos": 2, "trial_type": "single-audio", "trial_index": 91, "time_elapsed": 574450, "internal_node_id": "0.0-64.0"}}, {"uniqueid": "MTK0263:3CTOC39K38XP0LMIG5UJTF9O66SJ7N", "current_trial": 92, "dateTime": 1510689096429, "trialdata": {"rt": -1000, "stimulus": "/static/audio/wordpool/NAPKIN.wav", "key_press": -1, "type": "PRES_AUD", "word": "napkin", "wordID": 936, "conditions": [12, 800, "a", 24000], "trial": 2, "serialpos": 3, "trial_type": "single-audio", "trial_index": 92, "time_elapsed": 576413, "internal_node_id": "0.0-65.0"}}, {"uniqueid": "MTK0263:3CTOC39K38XP0LMIG5UJTF9O66SJ7N", "current_trial": 93, "dateTime": 1510689098182, "trialdata": {"rt": -1000, "stimulus": "/static/audio/wordpool/MESSAGE.wav", "key_press": -1, "type": "PRES_AUD", "word": "message", "wordID": 887, "conditions": [12, 800, "a", 24000], "trial": 2, "serialpos": 4, "trial_type": "single-audio", "trial_index": 93, "time_elapsed": 578166, "internal_node_id": "0.0-66.0"}}, {"uniqueid": "MTK0263:3CTOC39K38XP0LMIG5UJTF9O66SJ7N", "current_trial": 94, "dateTime": 1510689099856, "trialdata": {"rt": -1000, "stimulus": "/static/audio/wordpool/SCRIBBLE.wav", "key_press": -1, "type": "PRES_AUD", "word": "scribble", "wordID": 1255, "conditions": [12, 800, "a", 24000], "trial": 2, "serialpos": 5, "trial_type": "single-audio", "trial_index": 94, "time_elapsed": 579840, "internal_node_id": "0.0-67.0"}}, {"uniqueid": "MTK0263:3CTOC39K38XP0LMIG5UJTF9O66SJ7N", "current_trial": 95, "dateTime": 1510689101548, "trialdata": {"rt": -1000, "stimulus": "/static/audio/wordpool/SWORD.wav", "key_press": -1, "type": "PRES_AUD", "word": "sword", "wordID": 1422, "conditions": [12, 800, "a", 24000], "trial": 2, "serialpos": 6, "trial_type": "single-audio", "trial_index": 95, "time_elapsed": 581532, "internal_node_id": "0.0-68.0"}}, {"uniqueid": "MTK0263:3CTOC39K38XP0LMIG5UJTF9O66SJ7N", "current_trial": 96, "dateTime": 1510689103169, "trialdata": {"rt": -1000, "stimulus": "/static/audio/wordpool/SKILLET.wav", "key_press": -1, "type": "PRES_AUD", "word": "skillet", "wordID": 1316, "conditions": [12, 800, "a", 24000], "trial": 2, "serialpos": 7, "trial_type": "single-audio", "trial_index": 96, "time_elapsed": 583153, "internal_node_id": "0.0-69.0"}}, {"uniqueid": "MTK0263:3CTOC39K38XP0LMIG5UJTF9O66SJ7N", "current_trial": 97, "dateTime": 1510689104919, "trialdata": {"rt": -1000, "stimulus": "/static/audio/wordpool/BLENDER.wav", "key_press": -1, "type": "PRES_AUD", "word": "blender", "wordID": 135, "conditions": [12, 800, "a", 24000], "trial": 2, "serialpos": 8, "trial_type": "single-audio", "trial_index": 97, "time_elapsed": 584903, "internal_node_id": "0.0-70.0"}}, {"uniqueid": "MTK0263:3CTOC39K38XP0LMIG5UJTF9O66SJ7N", "current_trial": 98, "dateTime": 1510689106690, "trialdata": {"rt": -1000, "stimulus": "/static/audio/wordpool/NURSE.wav", "key_press": -1, "type": "PRES_AUD", "word": "nurse", "wordID": 962, "conditions": [12, 800, "a", 24000], "trial": 2, "serialpos": 9, "trial_type": "single-audio", "trial_index": 98, "time_elapsed": 586674, "internal_node_id": "0.0-71.0"}}, {"uniqueid": "MTK0263:3CTOC39K38XP0LMIG5UJTF9O66SJ7N", "current_trial": 99, "dateTime": 1510689108513, "trialdata": {"rt": -1000, "stimulus": "/static/audio/wordpool/CRUTCH.wav", "key_press": -1, "type": "PRES_AUD", "word": "crutch", "wordID": 416, "conditions": [12, 800, "a", 24000], "trial": 2, "serialpos": 10, "trial_type": "single-audio", "trial_index": 99, "time_elapsed": 588497, "internal_node_id": "0.0-72.0"}}, {"uniqueid": "MTK0263:3CTOC39K38XP0LMIG5UJTF9O66SJ7N", "current_trial": 100, "dateTime": 1510689110176, "trialdata": {"rt": -1000, "stimulus": "/static/audio/wordpool/INFANT.wav", "key_press": -1, "type": "PRES_AUD", "word": "infant", "wordID": 736, "conditions": [12, 800, "a", 24000], "trial": 2, "serialpos": 11, "trial_type": "single-audio", "trial_index": 100, "time_elapsed": 590160, "internal_node_id": "0.0-73.0"}}, {"uniqueid": "MTK0263:3CTOC39K38XP0LMIG5UJTF9O66SJ7N", "current_trial": 101, "dateTime": 1510689111552, "trialdata": {"rt": -1, "stimulus": "", "key_press": -1, "type": "PRE_RECALL_DELAY", "trial_type": "single-stim", "trial_index": 101, "time_elapsed": 591535, "internal_node_id": "0.0-74.0-0.0"}}, {"uniqueid": "MTK0263:3CTOC39K38XP0LMIG5UJTF9O66SJ7N", "current_trial": 102, "dateTime": 1510689112054, "trialdata": {"rt": -1000, "stimulus": "/static/audio/400Hz.wav", "key_press": -1, "type": "PRE_RECALL_ALERT", "trial_type": "single-audio", "trial_index": 102, "time_elapsed": 592036, "internal_node_id": "0.0-75.0"}}, {"uniqueid": "MTK0263:3CTOC39K38XP0LMIG5UJTF9O66SJ7N", "current_trial": 103, "dateTime": 1510689172059, "trialdata": {"rt": [4535, 5791, 7999, 42799], "recwords": ["infant", "sore", "crutch", "blender"], "type": "FREE_RECALL", "conditions": [12, 800, "a", 24000], "trial": 2, "trial_type": "free-recall", "trial_index": 103, "time_elapsed": 652040, "internal_node_id": "0.0-76.0-0.0"}}, {"uniqueid": "MTK0263:3CTOC39K38XP0LMIG5UJTF9O66SJ7N", "current_trial": 104, "dateTime": 1510689175408, "trialdata": {"rt": 1348, "key_press": 32, "type": "INSTRUCTIONS", "trial_type": "text", "trial_index": 104, "time_elapsed": 655392, "internal_node_id": "0.0-77.0"}}, {"uniqueid": "MTK0263:3CTOC39K38XP0LMIG5UJTF9O66SJ7N", "current_trial": 105, "dateTime": 1510689189409, "trialdata": {"rt": [1429, 3789, 5317, 7733, 9772, 11517], "responses": ["14", "20", "12", "17", "6", "21"], "num1": [3, 9, 6, 7, 1, 9, 1], "num2": [7, 3, 1, 9, 3, 9, 3], "num3": [4, 8, 5, 1, 2, 3, 5], "type": "DISTRACTOR", "conditions": [12, 1600, "v", 12000], "trial": 3, "trial_type": "math-distractor", "trial_index": 105, "time_elapsed": 669393, "internal_node_id": "0.0-78.0"}}, {"uniqueid": "MTK0263:3CTOC39K38XP0LMIG5UJTF9O66SJ7N", "current_trial": 106, "dateTime": 1510689192411, "trialdata": {"rt": -1, "stimulus": "<p id=\"stim\">10</p>", "key_press": -1, "trial_type": "single-stim", "trial_index": 106, "time_elapsed": 672395, "internal_node_id": "0.0-79.0-0.0"}}, {"uniqueid": "MTK0263:3CTOC39K38XP0LMIG5UJTF9O66SJ7N", "current_trial": 107, "dateTime": 1510689193414, "trialdata": {"rt": -1, "stimulus": "<p id=\"stim\">9</p>", "key_press": -1, "trial_type": "single-stim", "trial_index": 107, "time_elapsed": 673398, "internal_node_id": "0.0-79.0-1.0"}}, {"uniqueid": "MTK0263:3CTOC39K38XP0LMIG5UJTF9O66SJ7N", "current_trial": 108, "dateTime": 1510689194415, "trialdata": {"rt": -1, "stimulus": "<p id=\"stim\">8</p>", "key_press": -1, "trial_type": "single-stim", "trial_index": 108, "time_elapsed": 674399, "internal_node_id": "0.0-79.0-2.0"}}, {"uniqueid": "MTK0263:3CTOC39K38XP0LMIG5UJTF9O66SJ7N", "current_trial": 109, "dateTime": 1510689195417, "trialdata": {"rt": -1, "stimulus": "<p id=\"stim\">7</p>", "key_press": -1, "trial_type": "single-stim", "trial_index": 109, "time_elapsed": 675401, "internal_node_id": "0.0-79.0-3.0"}}, {"uniqueid": "MTK0263:3CTOC39K38XP0LMIG5UJTF9O66SJ7N", "current_trial": 110, "dateTime": 1510689196418, "trialdata": {"rt": -1, "stimulus": "<p id=\"stim\">6</p>", "key_press": -1, "trial_type": "single-stim", "trial_index": 110, "time_elapsed": 676402, "internal_node_id": "0.0-79.0-4.0"}}, {"uniqueid": "MTK0263:3CTOC39K38XP0LMIG5UJTF9O66SJ7N", "current_trial": 111, "dateTime": 1510689197420, "trialdata": {"rt": -1, "stimulus": "<p id=\"stim\">5</p>", "key_press": -1, "trial_type": "single-stim", "trial_index": 111, "time_elapsed": 677404, "internal_node_id": "0.0-79.0-5.0"}}, {"uniqueid": "MTK0263:3CTOC39K38XP0LMIG5UJTF9O66SJ7N", "current_trial": 112, "dateTime": 1510689198420, "trialdata": {"rt": -1, "stimulus": "<p id=\"stim\">4</p>", "key_press": -1, "trial_type": "single-stim", "trial_index": 112, "time_elapsed": 678404, "internal_node_id": "0.0-79.0-6.0"}}, {"uniqueid": "MTK0263:3CTOC39K38XP0LMIG5UJTF9O66SJ7N", "current_trial": 113, "dateTime": 1510689199422, "trialdata": {"rt": -1, "stimulus": "<p id=\"stim\">3</p>", "key_press": -1, "trial_type": "single-stim", "trial_index": 113, "time_elapsed": 679406, "internal_node_id": "0.0-79.0-7.0"}}, {"uniqueid": "MTK0263:3CTOC39K38XP0LMIG5UJTF9O66SJ7N", "current_trial": 114, "dateTime": 1510689200423, "trialdata": {"rt": -1, "stimulus": "<p id=\"stim\">2</p>", "key_press": -1, "trial_type": "single-stim", "trial_index": 114, "time_elapsed": 680407, "internal_node_id": "0.0-79.0-8.0"}}, {"uniqueid": "MTK0263:3CTOC39K38XP0LMIG5UJTF9O66SJ7N", "current_trial": 115, "dateTime": 1510689201425, "trialdata": {"rt": -1, "stimulus": "<p id=\"stim\">1</p>", "key_press": -1, "trial_type": "single-stim", "trial_index": 115, "time_elapsed": 681409, "internal_node_id": "0.0-79.0-9.0"}}, {"uniqueid": "MTK0263:3CTOC39K38XP0LMIG5UJTF9O66SJ7N", "current_trial": 116, "dateTime": 1510689202926, "trialdata": {"rt": -1, "stimulus": "<p id=\"stim\">+</p>", "key_press": -1, "type": "FIXATION", "trial_type": "single-stim", "trial_index": 116, "time_elapsed": 682910, "internal_node_id": "0.0-80.0-0.0"}}, {"uniqueid": "MTK0263:3CTOC39K38XP0LMIG5UJTF9O66SJ7N", "current_trial": 117, "dateTime": 1510689204526, "trialdata": {"rt": -1, "stimulus": "<p id=\"stim\">MISSILE</p>", "key_press": -1, "type": "PRES_VIS", "word": "missile", "wordID": 899, "conditions": [12, 1600, "v", 12000], "trial": 3, "serialpos": 0, "trial_type": "single-stim", "trial_index": 117, "time_elapsed": 684510, "internal_node_id": "0.0-81.0"}}, {"uniqueid": "MTK0263:3CTOC39K38XP0LMIG5UJTF9O66SJ7N", "current_trial": 118, "dateTime": 1510689207133, "trialdata": {"rt": -1, "stimulus": "<p id=\"stim\">DRILL</p>", "key_press": -1, "type": "PRES_VIS", "word": "drill", "wordID": 496, "conditions": [12, 1600, "v", 12000], "trial": 3, "serialpos": 1, "trial_type": "single-stim", "trial_index": 118, "time_elapsed": 687117, "internal_node_id": "0.0-82.0"}}, {"uniqueid": "MTK0263:3CTOC39K38XP0LMIG5UJTF9O66SJ7N", "current_trial": 119, "dateTime": 1510689209866, "trialdata": {"rt": -1, "stimulus": "<p id=\"stim\">SURVEY</p>", "key_press": -1, "type": "PRES_VIS", "word": "survey", "wordID": 1413, "conditions": [12, 1600, "v", 12000], "trial": 3, "serialpos": 2, "trial_type": "single-stim", "trial_index": 119, "time_elapsed": 689850, "internal_node_id": "0.0-83.0"}}, {"uniqueid": "MTK0263:3CTOC39K38XP0LMIG5UJTF9O66SJ7N", "current_trial": 120, "dateTime": 1510689212595, "trialdata": {"rt": -1, "stimulus": "<p id=\"stim\">PEBBLE</p>", "key_press": -1, "type": "PRES_VIS", "word": "pebble", "wordID": 1034, "conditions": [12, 1600, "v", 12000], "trial": 3, "serialpos": 3, "trial_type": "single-stim", "trial_index": 120, "time_elapsed": 692579, "internal_node_id": "0.0-84.0"}}, {"uniqueid": "MTK0263:3CTOC39K38XP0LMIG5UJTF9O66SJ7N", "current_trial": 121, "dateTime": 1510689215144, "trialdata": {"rt": -1, "stimulus": "<p id=\"stim\">HUSBAND</p>", "key_press": -1, "type": "PRES_VIS", "word": "husband", "wordID": 727, "conditions": [12, 1600, "v", 12000], "trial": 3, "serialpos": 4, "trial_type": "single-stim", "trial_index": 121, "time_elapsed": 695128, "internal_node_id": "0.0-85.0"}}, {"uniqueid": "MTK0263:3CTOC39K38XP0LMIG5UJTF9O66SJ7N", "current_trial": 122, "dateTime": 1510689217822, "trialdata": {"rt": -1, "stimulus": "<p id=\"stim\">JAPAN</p>", "key_press": -1, "type": "PRES_VIS", "word": "japan", "wordID": 748, "conditions": [12, 1600, "v", 12000], "trial": 3, "serialpos": 5, "trial_type": "single-stim", "trial_index": 122, "time_elapsed": 697806, "internal_node_id": "0.0-86.0"}}, {"uniqueid": "MTK0263:3CTOC39K38XP0LMIG5UJTF9O66SJ7N", "current_trial": 123, "dateTime": 1510689220309, "trialdata": {"rt": -1, "stimulus": "<p id=\"stim\">CHEMIST</p>", "key_press": -1, "type": "PRES_VIS", "word": "chemist", "wordID": 291, "conditions": [12, 1600, "v", 12000], "trial": 3, "serialpos": 6, "trial_type": "single-stim", "trial_index": 123, "time_elapsed": 700293, "internal_node_id": "0.0-87.0"}}, {"uniqueid": "MTK0263:3CTOC39K38XP0LMIG5UJTF9O66SJ7N", "current_trial": 124, "dateTime": 1510689223032, "trialdata": {"rt": -1, "stimulus": "<p id=\"stim\">BABY</p>", "key_press": -1, "type": "PRES_VIS", "word": "baby", "wordID": 63, "conditions": [12, 1600, "v", 12000], "trial": 3, "serialpos": 7, "trial_type": "single-stim", "trial_index": 124, "time_elapsed": 703016, "internal_node_id": "0.0-88.0"}}, {"uniqueid": "MTK0263:3CTOC39K38XP0LMIG5UJTF9O66SJ7N", "current_trial": 125, "dateTime": 1510689225464, "trialdata": {"rt": -1, "stimulus": "<p id=\"stim\">CRIB</p>", "key_press": -1, "type": "PRES_VIS", "word": "crib", "wordID": 406, "conditions": [12, 1600, "v", 12000], "trial": 3, "serialpos": 8, "trial_type": "single-stim", "trial_index": 125, "time_elapsed": 705448, "internal_node_id": "0.0-89.0"}}, {"uniqueid": "MTK0263:3CTOC39K38XP0LMIG5UJTF9O66SJ7N", "current_trial": 126, "dateTime": 1510689228006, "trialdata": {"rt": -1, "stimulus": "<p id=\"stim\">JELLY</p>", "key_press": -1, "type": "PRES_VIS", "word": "jelly", "wordID": 754, "conditions": [12, 1600, "v", 12000], "trial": 3, "serialpos": 9, "trial_type": "single-stim", "trial_index": 126, "time_elapsed": 707990, "internal_node_id": "0.0-90.0"}}, {"uniqueid": "MTK0263:3CTOC39K38XP0LMIG5UJTF9O66SJ7N", "current_trial": 127, "dateTime": 1510689230460, "trialdata": {"rt": -1, "stimulus": "<p id=\"stim\">PANTHER</p>", "key_press": -1, "type": "PRES_VIS", "word": "panther", "wordID": 1008, "conditions": [12, 1600, "v", 12000], "trial": 3, "serialpos": 10, "trial_type": "single-stim", "trial_index": 127, "time_elapsed": 710444, "internal_node_id": "0.0-91.0"}}, {"uniqueid": "MTK0263:3CTOC39K38XP0LMIG5UJTF9O66SJ7N", "current_trial": 128, "dateTime": 1510689232926, "trialdata": {"rt": -1, "stimulus": "<p id=\"stim\">REPORT</p>", "key_press": -1, "type": "PRES_VIS", "word": "report", "wordID": 1183, "conditions": [12, 1600, "v", 12000], "trial": 3, "serialpos": 11, "trial_type": "single-stim", "trial_index": 128, "time_elapsed": 712910, "internal_node_id": "0.0-92.0"}}, {"uniqueid": "MTK0263:3CTOC39K38XP0LMIG5UJTF9O66SJ7N", "current_trial": 129, "dateTime": 1510689235163, "trialdata": {"rt": -1, "stimulus": "", "key_press": -1, "type": "PRE_RECALL_DELAY", "trial_type": "single-stim", "trial_index": 129, "time_elapsed": 715147, "internal_node_id": "0.0-93.0-0.0"}}, {"uniqueid": "MTK0263:3CTOC39K38XP0LMIG5UJTF9O66SJ7N", "current_trial": 130, "dateTime": 1510689235665, "trialdata": {"rt": -1000, "stimulus": "/static/audio/400Hz.wav", "key_press": -1, "type": "PRE_RECALL_ALERT", "trial_type": "single-audio", "trial_index": 130, "time_elapsed": 715649, "internal_node_id": "0.0-94.0"}}, {"uniqueid": "MTK0263:3CTOC39K38XP0LMIG5UJTF9O66SJ7N", "current_trial": 131, "dateTime": 1510689295671, "trialdata": {"rt": [3867, 5451, 7315, 9051, 37772], "recwords": ["report", "baby", "husband", "crib", "drill"], "type": "FREE_RECALL", "conditions": [12, 1600, "v", 12000], "trial": 3, "trial_type": "free-recall", "trial_index": 131, "time_elapsed": 775653, "internal_node_id": "0.0-95.0-0.0"}}, {"uniqueid": "MTK0263:3CTOC39K38XP0LMIG5UJTF9O66SJ7N", "current_trial": 132, "dateTime": 1510689761149, "trialdata": {"rt": 463478, "key_press": 32, "type": "INSTRUCTIONS", "trial_type": "text", "trial_index": 132, "time_elapsed": 1241133, "internal_node_id": "0.0-96.0"}}, {"uniqueid": "MTK0263:3CTOC39K38XP0LMIG5UJTF9O66SJ7N", "current_trial": 133, "dateTime": 1510689775153, "trialdata": {"rt": [1811, 4988, 6651, 8619, 11060], "responses": ["12", "22", "19", "15", "19"], "num1": [5, 5, 7, 5, 6, 6], "num2": [3, 9, 3, 7, 5, 9], "num3": [4, 8, 9, 3, 8, 6], "type": "DISTRACTOR", "conditions": [12, 800, "v", 12000], "trial": 4, "trial_type": "math-distractor", "trial_index": 133, "time_elapsed": 1255137, "internal_node_id": "0.0-97.0"}}, {"uniqueid": "MTK0263:3CTOC39K38XP0LMIG5UJTF9O66SJ7N", "current_trial": 134, "dateTime": 1510689778155, "trialdata": {"rt": -1, "stimulus": "<p id=\"stim\">10</p>", "key_press": -1, "trial_type": "single-stim", "trial_index": 134, "time_elapsed": 1258139, "internal_node_id": "0.0-98.0-0.0"}}, {"uniqueid": "MTK0263:3CTOC39K38XP0LMIG5UJTF9O66SJ7N", "current_trial": 135, "dateTime": 1510689779156, "trialdata": {"rt": -1, "stimulus": "<p id=\"stim\">9</p>", "key_press": -1, "trial_type": "single-stim", "trial_index": 135, "time_elapsed": 1259140, "internal_node_id": "0.0-98.0-1.0"}}, {"uniqueid": "MTK0263:3CTOC39K38XP0LMIG5UJTF9O66SJ7N", "current_trial": 136, "dateTime": 1510689780157, "trialdata": {"rt": -1, "stimulus": "<p id=\"stim\">8</p>", "key_press": -1, "trial_type": "single-stim", "trial_index": 136, "time_elapsed": 1260141, "internal_node_id": "0.0-98.0-2.0"}}, {"uniqueid": "MTK0263:3CTOC39K38XP0LMIG5UJTF9O66SJ7N", "current_trial": 137, "dateTime": 1510689781159, "trialdata": {"rt": -1, "stimulus": "<p id=\"stim\">7</p>", "key_press": -1, "trial_type": "single-stim", "trial_index": 137, "time_elapsed": 1261143, "internal_node_id": "0.0-98.0-3.0"}}, {"uniqueid": "MTK0263:3CTOC39K38XP0LMIG5UJTF9O66SJ7N", "current_trial": 138, "dateTime": 1510689782160, "trialdata": {"rt": -1, "stimulus": "<p id=\"stim\">6</p>", "key_press": -1, "trial_type": "single-stim", "trial_index": 138, "time_elapsed": 1262144, "internal_node_id": "0.0-98.0-4.0"}}, {"uniqueid": "MTK0263:3CTOC39K38XP0LMIG5UJTF9O66SJ7N", "current_trial": 139, "dateTime": 1510689783161, "trialdata": {"rt": -1, "stimulus": "<p id=\"stim\">5</p>", "key_press": -1, "trial_type": "single-stim", "trial_index": 139, "time_elapsed": 1263145, "internal_node_id": "0.0-98.0-5.0"}}, {"uniqueid": "MTK0263:3CTOC39K38XP0LMIG5UJTF9O66SJ7N", "current_trial": 140, "dateTime": 1510689784162, "trialdata": {"rt": -1, "stimulus": "<p id=\"stim\">4</p>", "key_press": -1, "trial_type": "single-stim", "trial_index": 140, "time_elapsed": 1264146, "internal_node_id": "0.0-98.0-6.0"}}, {"uniqueid": "MTK0263:3CTOC39K38XP0LMIG5UJTF9O66SJ7N", "current_trial": 141, "dateTime": 1510689785164, "trialdata": {"rt": -1, "stimulus": "<p id=\"stim\">3</p>", "key_press": -1, "trial_type": "single-stim", "trial_index": 141, "time_elapsed": 1265148, "internal_node_id": "0.0-98.0-7.0"}}, {"uniqueid": "MTK0263:3CTOC39K38XP0LMIG5UJTF9O66SJ7N", "current_trial": 142, "dateTime": 1510689786165, "trialdata": {"rt": -1, "stimulus": "<p id=\"stim\">2</p>", "key_press": -1, "trial_type": "single-stim", "trial_index": 142, "time_elapsed": 1266149, "internal_node_id": "0.0-98.0-8.0"}}, {"uniqueid": "MTK0263:3CTOC39K38XP0LMIG5UJTF9O66SJ7N", "current_trial": 143, "dateTime": 1510689787166, "trialdata": {"rt": -1, "stimulus": "<p id=\"stim\">1</p>", "key_press": -1, "trial_type": "single-stim", "trial_index": 143, "time_elapsed": 1267150, "internal_node_id": "0.0-98.0-9.0"}}, {"uniqueid": "MTK0263:3CTOC39K38XP0LMIG5UJTF9O66SJ7N", "current_trial": 144, "dateTime": 1510689788667, "trialdata": {"rt": -1, "stimulus": "<p id=\"stim\">+</p>", "key_press": -1, "type": "FIXATION", "trial_type": "single-stim", "trial_index": 144, "time_elapsed": 1268651, "internal_node_id": "0.0-99.0-0.0"}}, {"uniqueid": "MTK0263:3CTOC39K38XP0LMIG5UJTF9O66SJ7N", "current_trial": 145, "dateTime": 1510689789468, "trialdata": {"rt": -1, "stimulus": "<p id=\"stim\">CITRUS</p>", "key_press": -1, "type": "PRES_VIS", "word": "citrus", "wordID": 312, "conditions": [12, 800, "v", 12000], "trial": 4, "serialpos": 0, "trial_type": "single-stim", "trial_index": 145, "time_elapsed": 1269452, "internal_node_id": "0.0-100.0"}}, {"uniqueid": "MTK0263:3CTOC39K38XP0LMIG5UJTF9O66SJ7N", "current_trial": 146, "dateTime": 1510689791235, "trialdata": {"rt": -1, "stimulus": "<p id=\"stim\">ACTRESS</p>", "key_press": -1, "type": "PRES_VIS", "word": "actress", "wordID": 5, "conditions": [12, 800, "v", 12000], "trial": 4, "serialpos": 1, "trial_type": "single-stim", "trial_index": 146, "time_elapsed": 1271219, "internal_node_id": "0.0-101.0"}}, {"uniqueid": "MTK0263:3CTOC39K38XP0LMIG5UJTF9O66SJ7N", "current_trial": 147, "dateTime": 1510689793153, "trialdata": {"rt": -1, "stimulus": "<p id=\"stim\">WIFE</p>", "key_press": -1, "type": "PRES_VIS", "word": "wife", "wordID": 1608, "conditions": [12, 800, "v", 12000], "trial": 4, "serialpos": 2, "trial_type": "single-stim", "trial_index": 147, "time_elapsed": 1273137, "internal_node_id": "0.0-102.0"}}, {"uniqueid": "MTK0263:3CTOC39K38XP0LMIG5UJTF9O66SJ7N", "current_trial": 148, "dateTime": 1510689795033, "trialdata": {"rt": -1, "stimulus": "<p id=\"stim\">SPOUSE</p>", "key_press": -1, "type": "PRES_VIS", "word": "spouse", "wordID": 1357, "conditions": [12, 800, "v", 12000], "trial": 4, "serialpos": 3, "trial_type": "single-stim", "trial_index": 148, "time_elapsed": 1275017, "internal_node_id": "0.0-103.0"}}, {"uniqueid": "MTK0263:3CTOC39K38XP0LMIG5UJTF9O66SJ7N", "current_trial": 149, "dateTime": 1510689796679, "trialdata": {"rt": -1, "stimulus": "<p id=\"stim\">NECKLACE</p>", "key_press": -1, "type": "PRES_VIS", "word": "necklace", "wordID": 939, "conditions": [12, 800, "v", 12000], "trial": 4, "serialpos": 4, "trial_type": "single-stim", "trial_index": 149, "time_elapsed": 1276663, "internal_node_id": "0.0-104.0"}}, {"uniqueid": "MTK0263:3CTOC39K38XP0LMIG5UJTF9O66SJ7N", "current_trial": 150, "dateTime": 1510689798524, "trialdata": {"rt": -1, "stimulus": "<p id=\"stim\">SHOVEL</p>", "key_press": -1, "type": "PRES_VIS", "word": "shovel", "wordID": 1294, "conditions": [12, 800, "v", 12000], "trial": 4, "serialpos": 5, "trial_type": "single-stim", "trial_index": 150, "time_elapsed": 1278508, "internal_node_id": "0.0-105.0"}}, {"uniqueid": "MTK0263:3CTOC39K38XP0LMIG5UJTF9O66SJ7N", "current_trial": 151, "dateTime": 1510689800244, "trialdata": {"rt": -1, "stimulus": "<p id=\"stim\">BRANCH</p>", "key_press": -1, "type": "PRES_VIS", "word": "branch", "wordID": 167, "conditions": [12, 800, "v", 12000], "trial": 4, "serialpos": 6, "trial_type": "single-stim", "trial_index": 151, "time_elapsed": 1280228, "internal_node_id": "0.0-106.0"}}, {"uniqueid": "MTK0263:3CTOC39K38XP0LMIG5UJTF9O66SJ7N", "current_trial": 152, "dateTime": 1510689801916, "trialdata": {"rt": -1, "stimulus": "<p id=\"stim\">ACTOR</p>", "key_press": -1, "type": "PRES_VIS", "word": "actor", "wordID": 4, "conditions": [12, 800, "v", 12000], "trial": 4, "serialpos": 7, "trial_type": "single-stim", "trial_index": 152, "time_elapsed": 1281900, "internal_node_id": "0.0-107.0"}}, {"uniqueid": "MTK0263:3CTOC39K38XP0LMIG5UJTF9O66SJ7N", "current_trial": 153, "dateTime": 1510689803832, "trialdata": {"rt": -1, "stimulus": "<p id=\"stim\">BLUEPRINT</p>", "key_press": -1, "type": "PRES_VIS", "word": "blueprint", "wordID": 141, "conditions": [12, 800, "v", 12000], "trial": 4, "serialpos": 8, "trial_type": "single-stim", "trial_index": 153, "time_elapsed": 1283816, "internal_node_id": "0.0-108.0"}}, {"uniqueid": "MTK0263:3CTOC39K38XP0LMIG5UJTF9O66SJ7N", "current_trial": 154, "dateTime": 1510689805533, "trialdata": {"rt": -1, "stimulus": "<p id=\"stim\">DRAGON</p>", "key_press": -1, "type": "PRES_VIS", "word": "dragon", "wordID": 491, "conditions": [12, 800, "v", 12000], "trial": 4, "serialpos": 9, "trial_type": "single-stim", "trial_index": 154, "time_elapsed": 1285517, "internal_node_id": "0.0-109.0"}}, {"uniqueid": "MTK0263:3CTOC39K38XP0LMIG5UJTF9O66SJ7N", "current_trial": 155, "dateTime": 1510689807380, "trialdata": {"rt": -1, "stimulus": "<p id=\"stim\">QUEEN</p>", "key_press": -1, "type": "PRES_VIS", "word": "queen", "wordID": 1148, "conditions": [12, 800, "v", 12000], "trial": 4, "serialpos": 10, "trial_type": "single-stim", "trial_index": 155, "time_elapsed": 1287364, "internal_node_id": "0.0-110.0"}}, {"uniqueid": "MTK0263:3CTOC39K38XP0LMIG5UJTF9O66SJ7N", "current_trial": 156, "dateTime": 1510689809057, "trialdata": {"rt": -1, "stimulus": "<p id=\"stim\">CABBAGE</p>", "key_press": -1, "type": "PRES_VIS", "word": "cabbage", "wordID": 209, "conditions": [12, 800, "v", 12000], "trial": 4, "serialpos": 11, "trial_type": "single-stim", "trial_index": 156, "time_elapsed": 1289041, "internal_node_id": "0.0-111.0"}}, {"uniqueid": "MTK0263:3CTOC39K38XP0LMIG5UJTF9O66SJ7N", "current_trial": 157, "dateTime": 1510689811190, "trialdata": {"rt": -1, "stimulus": "", "key_press": -1, "type": "PRE_RECALL_DELAY", "trial_type": "single-stim", "trial_index": 157, "time_elapsed": 1291174, "internal_node_id": "0.0-112.0-0.0"}}, {"uniqueid": "MTK0263:3CTOC39K38XP0LMIG5UJTF9O66SJ7N", "current_trial": 158, "dateTime": 1510689811691, "trialdata": {"rt": -1000, "stimulus": "/static/audio/400Hz.wav", "key_press": -1, "type": "PRE_RECALL_ALERT", "trial_type": "single-audio", "trial_index": 158, "time_elapsed": 1291675, "internal_node_id": "0.0-113.0"}}, {"uniqueid": "MTK0263:3CTOC39K38XP0LMIG5UJTF9O66SJ7N", "current_trial": 159, "dateTime": 1510689871697, "trialdata": {"rt": [14145, 20912], "recwords": ["cabbage", "queen"], "type": "FREE_RECALL", "conditions": [12, 800, "v", 12000], "trial": 4, "trial_type": "free-recall", "trial_index": 159, "time_elapsed": 1351678, "internal_node_id": "0.0-114.0-0.0"}}, {"uniqueid": "MTK0263:3CTOC39K38XP0LMIG5UJTF9O66SJ7N", "current_trial": 160, "dateTime": 1510689895710, "trialdata": {"rt": 22010, "key_press": 32, "type": "INSTRUCTIONS", "trial_type": "text", "trial_index": 160, "time_elapsed": 1375694, "internal_node_id": "0.0-115.0"}}, {"uniqueid": "MTK0263:3CTOC39K38XP0LMIG5UJTF9O66SJ7N", "current_trial": 161, "dateTime": 1510689921712, "trialdata": {"rt": [4741, 6894, 9541, 11853, 14421, 16829, 18717, 21500], "responses": ["13", "13", "10", "19", "19", "9", "19", "22"], "num1": [2, 4, 1, 6, 7, 1, 9, 8, 8], "num2": [4, 1, 7, 9, 5, 5, 5, 8, 6], "num3": [7, 8, 2, 4, 7, 3, 5, 6, 8], "type": "DISTRACTOR", "conditions": [12, 1600, "v", 24000], "trial": 5, "trial_type": "math-distractor", "trial_index": 161, "time_elapsed": 1401696, "internal_node_id": "0.0-116.0"}}, {"uniqueid": "MTK0263:3CTOC39K38XP0LMIG5UJTF9O66SJ7N", "current_trial": 162, "dateTime": 1510689924714, "trialdata": {"rt": -1, "stimulus": "<p id=\"stim\">10</p>", "key_press": -1, "trial_type": "single-stim", "trial_index": 162, "time_elapsed": 1404698, "internal_node_id": "0.0-117.0-0.0"}}, {"uniqueid": "MTK0263:3CTOC39K38XP0LMIG5UJTF9O66SJ7N", "current_trial": 163, "dateTime": 1510689925715, "trialdata": {"rt": -1, "stimulus": "<p id=\"stim\">9</p>", "key_press": -1, "trial_type": "single-stim", "trial_index": 163, "time_elapsed": 1405699, "internal_node_id": "0.0-117.0-1.0"}}, {"uniqueid": "MTK0263:3CTOC39K38XP0LMIG5UJTF9O66SJ7N", "current_trial": 164, "dateTime": 1510689926715, "trialdata": {"rt": -1, "stimulus": "<p id=\"stim\">8</p>", "key_press": -1, "trial_type": "single-stim", "trial_index": 164, "time_elapsed": 1406699, "internal_node_id": "0.0-117.0-2.0"}}, {"uniqueid": "MTK0263:3CTOC39K38XP0LMIG5UJTF9O66SJ7N", "current_trial": 165, "dateTime": 1510689927716, "trialdata": {"rt": -1, "stimulus": "<p id=\"stim\">7</p>", "key_press": -1, "trial_type": "single-stim", "trial_index": 165, "time_elapsed": 1407700, "internal_node_id": "0.0-117.0-3.0"}}, {"uniqueid": "MTK0263:3CTOC39K38XP0LMIG5UJTF9O66SJ7N", "current_trial": 166, "dateTime": 1510689928717, "trialdata": {"rt": -1, "stimulus": "<p id=\"stim\">6</p>", "key_press": -1, "trial_type": "single-stim", "trial_index": 166, "time_elapsed": 1408701, "internal_node_id": "0.0-117.0-4.0"}}, {"uniqueid": "MTK0263:3CTOC39K38XP0LMIG5UJTF9O66SJ7N", "current_trial": 167, "dateTime": 1510689929718, "trialdata": {"rt": -1, "stimulus": "<p id=\"stim\">5</p>", "key_press": -1, "trial_type": "single-stim", "trial_index": 167, "time_elapsed": 1409702, "internal_node_id": "0.0-117.0-5.0"}}, {"uniqueid": "MTK0263:3CTOC39K38XP0LMIG5UJTF9O66SJ7N", "current_trial": 168, "dateTime": 1510689930721, "trialdata": {"rt": -1, "stimulus": "<p id=\"stim\">4</p>", "key_press": -1, "trial_type": "single-stim", "trial_index": 168, "time_elapsed": 1410705, "internal_node_id": "0.0-117.0-6.0"}}, {"uniqueid": "MTK0263:3CTOC39K38XP0LMIG5UJTF9O66SJ7N", "current_trial": 169, "dateTime": 1510689931722, "trialdata": {"rt": -1, "stimulus": "<p id=\"stim\">3</p>", "key_press": -1, "trial_type": "single-stim", "trial_index": 169, "time_elapsed": 1411706, "internal_node_id": "0.0-117.0-7.0"}}, {"uniqueid": "MTK0263:3CTOC39K38XP0LMIG5UJTF9O66SJ7N", "current_trial": 170, "dateTime": 1510689932723, "trialdata": {"rt": -1, "stimulus": "<p id=\"stim\">2</p>", "key_press": -1, "trial_type": "single-stim", "trial_index": 170, "time_elapsed": 1412707, "internal_node_id": "0.0-117.0-8.0"}}, {"uniqueid": "MTK0263:3CTOC39K38XP0LMIG5UJTF9O66SJ7N", "current_trial": 171, "dateTime": 1510689933726, "trialdata": {"rt": -1, "stimulus": "<p id=\"stim\">1</p>", "key_press": -1, "trial_type": "single-stim", "trial_index": 171, "time_elapsed": 1413710, "internal_node_id": "0.0-117.0-9.0"}}, {"uniqueid": "MTK0263:3CTOC39K38XP0LMIG5UJTF9O66SJ7N", "current_trial": 172, "dateTime": 1510689935227, "trialdata": {"rt": -1, "stimulus": "<p id=\"stim\">+</p>", "key_press": -1, "type": "FIXATION", "trial_type": "single-stim", "trial_index": 172, "time_elapsed": 1415211, "internal_node_id": "0.0-118.0-0.0"}}, {"uniqueid": "MTK0263:3CTOC39K38XP0LMIG5UJTF9O66SJ7N", "current_trial": 173, "dateTime": 1510689936828, "trialdata": {"rt": -1, "stimulus": "<p id=\"stim\">LIVER</p>", "key_press": -1, "type": "PRES_VIS", "word": "liver", "wordID": 832, "conditions": [12, 1600, "v", 24000], "trial": 5, "serialpos": 0, "trial_type": "single-stim", "trial_index": 173, "time_elapsed": 1416812, "internal_node_id": "0.0-119.0"}}, {"uniqueid": "MTK0263:3CTOC39K38XP0LMIG5UJTF9O66SJ7N", "current_trial": 174, "dateTime": 1510689939509, "trialdata": {"rt": -1, "stimulus": "<p id=\"stim\">KIDNEY</p>", "key_press": -1, "type": "PRES_VIS", "word": "kidney", "wordID": 775, "conditions": [12, 1600, "v", 24000], "trial": 5, "serialpos": 1, "trial_type": "single-stim", "trial_index": 174, "time_elapsed": 1419493, "internal_node_id": "0.0-120.0"}}, {"uniqueid": "MTK0263:3CTOC39K38XP0LMIG5UJTF9O66SJ7N", "current_trial": 175, "dateTime": 1510689942305, "trialdata": {"rt": -1, "stimulus": "<p id=\"stim\">BACON</p>", "key_press": -1, "type": "PRES_VIS", "word": "bacon", "wordID": 66, "conditions": [12, 1600, "v", 24000], "trial": 5, "serialpos": 2, "trial_type": "single-stim", "trial_index": 175, "time_elapsed": 1422289, "internal_node_id": "0.0-121.0"}}, {"uniqueid": "MTK0263:3CTOC39K38XP0LMIG5UJTF9O66SJ7N", "current_trial": 176, "dateTime": 1510689944821, "trialdata": {"rt": -1, "stimulus": "<p id=\"stim\">COOK</p>", "key_press": -1, "type": "PRES_VIS", "word": "cook", "wordID": 371, "conditions": [12, 1600, "v", 24000], "trial": 5, "serialpos": 3, "trial_type": "single-stim", "trial_index": 176, "time_elapsed": 1424805, "internal_node_id": "0.0-122.0"}}, {"uniqueid": "MTK0263:3CTOC39K38XP0LMIG5UJTF9O66SJ7N", "current_trial": 177, "dateTime": 1510689947473, "trialdata": {"rt": -1, "stimulus": "<p id=\"stim\">HOSTESS</p>", "key_press": -1, "type": "PRES_VIS", "word": "hostess", "wordID": 722, "conditions": [12, 1600, "v", 24000], "trial": 5, "serialpos": 4, "trial_type": "single-stim", "trial_index": 177, "time_elapsed": 1427457, "internal_node_id": "0.0-123.0"}}, {"uniqueid": "MTK0263:3CTOC39K38XP0LMIG5UJTF9O66SJ7N", "current_trial": 178, "dateTime": 1510689950149, "trialdata": {"rt": -1, "stimulus": "<p id=\"stim\">PENGUIN</p>", "key_press": -1, "type": "PRES_VIS", "word": "penguin", "wordID": 1043, "conditions": [12, 1600, "v", 24000], "trial": 5, "serialpos": 5, "trial_type": "single-stim", "trial_index": 178, "time_elapsed": 1430133, "internal_node_id": "0.0-124.0"}}, {"uniqueid": "MTK0263:3CTOC39K38XP0LMIG5UJTF9O66SJ7N", "current_trial": 179, "dateTime": 1510689952679, "trialdata": {"rt": -1, "stimulus": "<p id=\"stim\">SCARECROW</p>", "key_press": -1, "type": "PRES_VIS", "word": "scarecrow", "wordID": 1244, "conditions": [12, 1600, "v", 24000], "trial": 5, "serialpos": 6, "trial_type": "single-stim", "trial_index": 179, "time_elapsed": 1432663, "internal_node_id": "0.0-125.0"}}, {"uniqueid": "MTK0263:3CTOC39K38XP0LMIG5UJTF9O66SJ7N", "current_trial": 180, "dateTime": 1510689955217, "trialdata": {"rt": -1, "stimulus": "<p id=\"stim\">MAPLE</p>", "key_press": -1, "type": "PRES_VIS", "word": "maple", "wordID": 865, "conditions": [12, 1600, "v", 24000], "trial": 5, "serialpos": 7, "trial_type": "single-stim", "trial_index": 180, "time_elapsed": 1435200, "internal_node_id": "0.0-126.0"}}, {"uniqueid": "MTK0263:3CTOC39K38XP0LMIG5UJTF9O66SJ7N", "current_trial": 181, "dateTime": 1510689957659, "trialdata": {"rt": -1, "stimulus": "<p id=\"stim\">OUTLAW</p>", "key_press": -1, "type": "PRES_VIS", "word": "outlaw", "wordID": 988, "conditions": [12, 1600, "v", 24000], "trial": 5, "serialpos": 8, "trial_type": "single-stim", "trial_index": 181, "time_elapsed": 1437643, "internal_node_id": "0.0-127.0"}}, {"uniqueid": "MTK0263:3CTOC39K38XP0LMIG5UJTF9O66SJ7N", "current_trial": 182, "dateTime": 1510689960252, "trialdata": {"rt": -1, "stimulus": "<p id=\"stim\">TURKEY</p>", "key_press": -1, "type": "PRES_VIS", "word": "turkey", "wordID": 1519, "conditions": [12, 1600, "v", 24000], "trial": 5, "serialpos": 9, "trial_type": "single-stim", "trial_index": 182, "time_elapsed": 1440236, "internal_node_id": "0.0-128.0"}}, {"uniqueid": "MTK0263:3CTOC39K38XP0LMIG5UJTF9O66SJ7N", "current_trial": 183, "dateTime": 1510689962686, "trialdata": {"rt": -1, "stimulus": "<p id=\"stim\">QUAIL</p>", "key_press": -1, "type": "PRES_VIS", "word": "quail", "wordID": 1146, "conditions": [12, 1600, "v", 24000], "trial": 5, "serialpos": 10, "trial_type": "single-stim", "trial_index": 183, "time_elapsed": 1442670, "internal_node_id": "0.0-129.0"}}, {"uniqueid": "MTK0263:3CTOC39K38XP0LMIG5UJTF9O66SJ7N", "current_trial": 184, "dateTime": 1510689965235, "trialdata": {"rt": -1, "stimulus": "<p id=\"stim\">CLOCK</p>", "key_press": -1, "type": "PRES_VIS", "word": "clock", "wordID": 324, "conditions": [12, 1600, "v", 24000], "trial": 5, "serialpos": 11, "trial_type": "single-stim", "trial_index": 184, "time_elapsed": 1445219, "internal_node_id": "0.0-130.0"}}, {"uniqueid": "MTK0263:3CTOC39K38XP0LMIG5UJTF9O66SJ7N", "current_trial": 185, "dateTime": 1510689967440, "trialdata": {"rt": -1, "stimulus": "", "key_press": -1, "type": "PRE_RECALL_DELAY", "trial_type": "single-stim", "trial_index": 185, "time_elapsed": 1447424, "internal_node_id": "0.0-131.0-0.0"}}, {"uniqueid": "MTK0263:3CTOC39K38XP0LMIG5UJTF9O66SJ7N", "current_trial": 186, "dateTime": 1510689967942, "trialdata": {"rt": -1000, "stimulus": "/static/audio/400Hz.wav", "key_press": -1, "type": "PRE_RECALL_ALERT", "trial_type": "single-audio", "trial_index": 186, "time_elapsed": 1447925, "internal_node_id": "0.0-132.0"}}, {"uniqueid": "MTK0263:3CTOC39K38XP0LMIG5UJTF9O66SJ7N", "current_trial": 187, "dateTime": 1510690027946, "trialdata": {"rt": [5669, 6005, 8598, 12206, 15798, 20758, 23150], "recwords": ["quail", "", "cook", "bacon", "kidney", "bacon", "liver"], "type": "FREE_RECALL", "conditions": [12, 1600, "v", 24000], "trial": 5, "trial_type": "free-recall", "trial_index": 187, "time_elapsed": 1507928, "internal_node_id": "0.0-133.0-0.0"}}, {"uniqueid": "MTK0263:3CTOC39K38XP0LMIG5UJTF9O66SJ7N", "current_trial": 188, "dateTime": 1510690033431, "trialdata": {"rt": 3483, "key_press": 220, "type": "INSTRUCTIONS", "trial_type": "text", "trial_index": 188, "time_elapsed": 1513414, "internal_node_id": "0.0-134.0"}}, {"uniqueid": "MTK0263:3CTOC39K38XP0LMIG5UJTF9O66SJ7N", "current_trial": 189, "dateTime": 1510690047432, "trialdata": {"rt": [2773, 5916, 7580, 8995], "responses": ["9", "17", "14", "19"], "num1": [3, 2, 9, 9, 8], "num2": [4, 8, 1, 1, 9], "num3": [2, 7, 4, 9, 7], "type": "DISTRACTOR", "conditions": [24, 800, "a", 12000], "trial": 6, "trial_type": "math-distractor", "trial_index": 189, "time_elapsed": 1527416, "internal_node_id": "0.0-135.0"}}, {"uniqueid": "MTK0263:3CTOC39K38XP0LMIG5UJTF9O66SJ7N", "current_trial": 190, "dateTime": 1510690050435, "trialdata": {"rt": -1, "stimulus": "<p id=\"stim\">10</p>", "key_press": -1, "trial_type": "single-stim", "trial_index": 190, "time_elapsed": 1530419, "internal_node_id": "0.0-136.0-0.0"}}, {"uniqueid": "MTK0263:3CTOC39K38XP0LMIG5UJTF9O66SJ7N", "current_trial": 191, "dateTime": 1510690051436, "trialdata": {"rt": -1, "stimulus": "<p id=\"stim\">9</p>", "key_press": -1, "trial_type": "single-stim", "trial_index": 191, "time_elapsed": 1531420, "internal_node_id": "0.0-136.0-1.0"}}, {"uniqueid": "MTK0263:3CTOC39K38XP0LMIG5UJTF9O66SJ7N", "current_trial": 192, "dateTime": 1510690052436, "trialdata": {"rt": -1, "stimulus": "<p id=\"stim\">8</p>", "key_press": -1, "trial_type": "single-stim", "trial_index": 192, "time_elapsed": 1532420, "internal_node_id": "0.0-136.0-2.0"}}, {"uniqueid": "MTK0263:3CTOC39K38XP0LMIG5UJTF9O66SJ7N", "current_trial": 193, "dateTime": 1510690053437, "trialdata": {"rt": -1, "stimulus": "<p id=\"stim\">7</p>", "key_press": -1, "trial_type": "single-stim", "trial_index": 193, "time_elapsed": 1533421, "internal_node_id": "0.0-136.0-3.0"}}, {"uniqueid": "MTK0263:3CTOC39K38XP0LMIG5UJTF9O66SJ7N", "current_trial": 194, "dateTime": 1510690054438, "trialdata": {"rt": -1, "stimulus": "<p id=\"stim\">6</p>", "key_press": -1, "trial_type": "single-stim", "trial_index": 194, "time_elapsed": 1534422, "internal_node_id": "0.0-136.0-4.0"}}, {"uniqueid": "MTK0263:3CTOC39K38XP0LMIG5UJTF9O66SJ7N", "current_trial": 195, "dateTime": 1510690055439, "trialdata": {"rt": -1, "stimulus": "<p id=\"stim\">5</p>", "key_press": -1, "trial_type": "single-stim", "trial_index": 195, "time_elapsed": 1535423, "internal_node_id": "0.0-136.0-5.0"}}, {"uniqueid": "MTK0263:3CTOC39K38XP0LMIG5UJTF9O66SJ7N", "current_trial": 196, "dateTime": 1510690056441, "trialdata": {"rt": -1, "stimulus": "<p id=\"stim\">4</p>", "key_press": -1, "trial_type": "single-stim", "trial_index": 196, "time_elapsed": 1536425, "internal_node_id": "0.0-136.0-6.0"}}, {"uniqueid": "MTK0263:3CTOC39K38XP0LMIG5UJTF9O66SJ7N", "current_trial": 197, "dateTime": 1510690057442, "trialdata": {"rt": -1, "stimulus": "<p id=\"stim\">3</p>", "key_press": -1, "trial_type": "single-stim", "trial_index": 197, "time_elapsed": 1537426, "internal_node_id": "0.0-136.0-7.0"}}, {"uniqueid": "MTK0263:3CTOC39K38XP0LMIG5UJTF9O66SJ7N", "current_trial": 198, "dateTime": 1510690058443, "trialdata": {"rt": -1, "stimulus": "<p id=\"stim\">2</p>", "key_press": -1, "trial_type": "single-stim", "trial_index": 198, "time_elapsed": 1538427, "internal_node_id": "0.0-136.0-8.0"}}, {"uniqueid": "MTK0263:3CTOC39K38XP0LMIG5UJTF9O66SJ7N", "current_trial": 199, "dateTime": 1510690059444, "trialdata": {"rt": -1, "stimulus": "<p id=\"stim\">1</p>", "key_press": -1, "trial_type": "single-stim", "trial_index": 199, "time_elapsed": 1539428, "internal_node_id": "0.0-136.0-9.0"}}, {"uniqueid": "MTK0263:3CTOC39K38XP0LMIG5UJTF9O66SJ7N", "current_trial": 200, "dateTime": 1510690060945, "trialdata": {"rt": -1, "stimulus": "<p id=\"stim\">+</p>", "key_press": -1, "type": "FIXATION", "trial_type": "single-stim", "trial_index": 200, "time_elapsed": 1540929, "internal_node_id": "0.0-137.0-0.0"}}, {"uniqueid": "MTK0263:3CTOC39K38XP0LMIG5UJTF9O66SJ7N", "current_trial": 201, "dateTime": 1510690062548, "trialdata": {"rt": -1000, "stimulus": "/static/audio/wordpool/SILK.wav", "key_press": -1, "type": "PRES_AUD", "word": "silk", "wordID": 1306, "conditions": [24, 800, "a", 12000], "trial": 6, "serialpos": 0, "trial_type": "single-audio", "trial_index": 201, "time_elapsed": 1542532, "internal_node_id": "0.0-138.0"}}, {"uniqueid": "MTK0263:3CTOC39K38XP0LMIG5UJTF9O66SJ7N", "current_trial": 202, "dateTime": 1510690064525, "trialdata": {"rt": -1000, "stimulus": "/static/audio/wordpool/LADY.wav", "key_press": -1, "type": "PRES_AUD", "word": "lady", "wordID": 793, "conditions": [24, 800, "a", 12000], "trial": 6, "serialpos": 1, "trial_type": "single-audio", "trial_index": 202, "time_elapsed": 1544509, "internal_node_id": "0.0-139.0"}}, {"uniqueid": "MTK0263:3CTOC39K38XP0LMIG5UJTF9O66SJ7N", "current_trial": 203, "dateTime": 1510690066417, "trialdata": {"rt": -1000, "stimulus": "/static/audio/wordpool/POCKET.wav", "key_press": -1, "type": "PRES_AUD", "word": "pocket", "wordID": 1092, "conditions": [24, 800, "a", 12000], "trial": 6, "serialpos": 2, "trial_type": "single-audio", "trial_index": 203, "time_elapsed": 1546401, "internal_node_id": "0.0-140.0"}}, {"uniqueid": "MTK0263:3CTOC39K38XP0LMIG5UJTF9O66SJ7N", "current_trial": 204, "dateTime": 1510690068162, "trialdata": {"rt": -1000, "stimulus": "/static/audio/wordpool/BRIEFCASE.wav", "key_press": -1, "type": "PRES_AUD", "word": "briefcase", "wordID": 174, "conditions": [24, 800, "a", 12000], "trial": 6, "serialpos": 3, "trial_type": "single-audio", "trial_index": 204, "time_elapsed": 1548146, "internal_node_id": "0.0-141.0"}}, {"uniqueid": "MTK0263:3CTOC39K38XP0LMIG5UJTF9O66SJ7N", "current_trial": 205, "dateTime": 1510690069875, "trialdata": {"rt": -1000, "stimulus": "/static/audio/wordpool/PASTA.wav", "key_press": -1, "type": "PRES_AUD", "word": "pasta", "wordID": 1020, "conditions": [24, 800, "a", 12000], "trial": 6, "serialpos": 4, "trial_type": "single-audio", "trial_index": 205, "time_elapsed": 1549859, "internal_node_id": "0.0-142.0"}}, {"uniqueid": "MTK0263:3CTOC39K38XP0LMIG5UJTF9O66SJ7N", "current_trial": 206, "dateTime": 1510690071800, "trialdata": {"rt": -1000, "stimulus": "/static/audio/wordpool/ANKLE.wav", "key_press": -1, "type": "PRES_AUD", "word": "ankle", "wordID": 23, "conditions": [24, 800, "a", 12000], "trial": 6, "serialpos": 5, "trial_type": "single-audio", "trial_index": 206, "time_elapsed": 1551784, "internal_node_id": "0.0-143.0"}}, {"uniqueid": "MTK0263:3CTOC39K38XP0LMIG5UJTF9O66SJ7N", "current_trial": 207, "dateTime": 1510690073654, "trialdata": {"rt": -1000, "stimulus": "/static/audio/wordpool/BINDER.wav", "key_press": -1, "type": "PRES_AUD", "word": "binder", "wordID": 126, "conditions": [24, 800, "a", 12000], "trial": 6, "serialpos": 6, "trial_type": "single-audio", "trial_index": 207, "time_elapsed": 1553638, "internal_node_id": "0.0-144.0"}}, {"uniqueid": "MTK0263:3CTOC39K38XP0LMIG5UJTF9O66SJ7N", "current_trial": 208, "dateTime": 1510690075563, "trialdata": {"rt": -1000, "stimulus": "/static/audio/wordpool/BRANDY.wav", "key_press": -1, "type": "PRES_AUD", "word": "brandy", "wordID": 168, "conditions": [24, 800, "a", 12000], "trial": 6, "serialpos": 7, "trial_type": "single-audio", "trial_index": 208, "time_elapsed": 1555547, "internal_node_id": "0.0-145.0"}}, {"uniqueid": "MTK0263:3CTOC39K38XP0LMIG5UJTF9O66SJ7N", "current_trial": 209, "dateTime": 1510690077419, "trialdata": {"rt": -1000, "stimulus": "/static/audio/wordpool/VELVET.wav", "key_press": -1, "type": "PRES_AUD", "word": "velvet", "wordID": 1554, "conditions": [24, 800, "a", 12000], "trial": 6, "serialpos": 8, "trial_type": "single-audio", "trial_index": 209, "time_elapsed": 1557402, "internal_node_id": "0.0-146.0"}}, {"uniqueid": "MTK0263:3CTOC39K38XP0LMIG5UJTF9O66SJ7N", "current_trial": 210, "dateTime": 1510690079327, "trialdata": {"rt": -1000, "stimulus": "/static/audio/wordpool/BOUQUET.wav", "key_press": -1, "type": "PRES_AUD", "word": "bouquet", "wordID": 156, "conditions": [24, 800, "a", 12000], "trial": 6, "serialpos": 9, "trial_type": "single-audio", "trial_index": 210, "time_elapsed": 1559311, "internal_node_id": "0.0-147.0"}}, {"uniqueid": "MTK0263:3CTOC39K38XP0LMIG5UJTF9O66SJ7N", "current_trial": 211, "dateTime": 1510690081106, "trialdata": {"rt": -1000, "stimulus": "/static/audio/wordpool/AWARD.wav", "key_press": -1, "type": "PRES_AUD", "word": "award", "wordID": 62, "conditions": [24, 800, "a", 12000], "trial": 6, "serialpos": 10, "trial_type": "single-audio", "trial_index": 211, "time_elapsed": 1561089, "internal_node_id": "0.0-148.0"}}, {"uniqueid": "MTK0263:3CTOC39K38XP0LMIG5UJTF9O66SJ7N", "current_trial": 212, "dateTime": 1510690082961, "trialdata": {"rt": -1000, "stimulus": "/static/audio/wordpool/DINER.wav", "key_press": -1, "type": "PRES_AUD", "word": "diner", "wordID": 466, "conditions": [24, 800, "a", 12000], "trial": 6, "serialpos": 11, "trial_type": "single-audio", "trial_index": 212, "time_elapsed": 1562945, "internal_node_id": "0.0-149.0"}}, {"uniqueid": "MTK0263:3CTOC39K38XP0LMIG5UJTF9O66SJ7N", "current_trial": 213, "dateTime": 1510690084609, "trialdata": {"rt": -1000, "stimulus": "/static/audio/wordpool/ROBOT.wav", "key_press": -1, "type": "PRES_AUD", "word": "robot", "wordID": 1199, "conditions": [24, 800, "a", 12000], "trial": 6, "serialpos": 12, "trial_type": "single-audio", "trial_index": 213, "time_elapsed": 1564593, "internal_node_id": "0.0-150.0"}}, {"uniqueid": "MTK0263:3CTOC39K38XP0LMIG5UJTF9O66SJ7N", "current_trial": 214, "dateTime": 1510690086441, "trialdata": {"rt": -1000, "stimulus": "/static/audio/wordpool/SUSPECT.wav", "key_press": -1, "type": "PRES_AUD", "word": "suspect", "wordID": 1414, "conditions": [24, 800, "a", 12000], "trial": 6, "serialpos": 13, "trial_type": "single-audio", "trial_index": 214, "time_elapsed": 1566425, "internal_node_id": "0.0-151.0"}}, {"uniqueid": "MTK0263:3CTOC39K38XP0LMIG5UJTF9O66SJ7N", "current_trial": 215, "dateTime": 1510690088406, "trialdata": {"rt": -1000, "stimulus": "/static/audio/wordpool/WOMAN.wav", "key_press": -1, "type": "PRES_AUD", "word": "woman", "wordID": 1619, "conditions": [24, 800, "a", 12000], "trial": 6, "serialpos": 14, "trial_type": "single-audio", "trial_index": 215, "time_elapsed": 1568390, "internal_node_id": "0.0-152.0"}}, {"uniqueid": "MTK0263:3CTOC39K38XP0LMIG5UJTF9O66SJ7N", "current_trial": 216, "dateTime": 1510690090033, "trialdata": {"rt": -1000, "stimulus": "/static/audio/wordpool/JUNGLE.wav", "key_press": -1, "type": "PRES_AUD", "word": "jungle", "wordID": 763, "conditions": [24, 800, "a", 12000], "trial": 6, "serialpos": 15, "trial_type": "single-audio", "trial_index": 216, "time_elapsed": 1570017, "internal_node_id": "0.0-153.0"}}, {"uniqueid": "MTK0263:3CTOC39K38XP0LMIG5UJTF9O66SJ7N", "current_trial": 217, "dateTime": 1510690091981, "trialdata": {"rt": -1000, "stimulus": "/static/audio/wordpool/MOP.wav", "key_press": -1, "type": "PRES_AUD", "word": "mop", "wordID": 915, "conditions": [24, 800, "a", 12000], "trial": 6, "serialpos": 16, "trial_type": "single-audio", "trial_index": 217, "time_elapsed": 1571965, "internal_node_id": "0.0-154.0"}}, {"uniqueid": "MTK0263:3CTOC39K38XP0LMIG5UJTF9O66SJ7N", "current_trial": 218, "dateTime": 1510690093788, "trialdata": {"rt": -1000, "stimulus": "/static/audio/wordpool/PADDLE.wav", "key_press": -1, "type": "PRES_AUD", "word": "paddle", "wordID": 999, "conditions": [24, 800, "a", 12000], "trial": 6, "serialpos": 17, "trial_type": "single-audio", "trial_index": 218, "time_elapsed": 1573772, "internal_node_id": "0.0-155.0"}}, {"uniqueid": "MTK0263:3CTOC39K38XP0LMIG5UJTF9O66SJ7N", "current_trial": 219, "dateTime": 1510690095704, "trialdata": {"rt": -1000, "stimulus": "/static/audio/wordpool/RAZOR.wav", "key_press": -1, "type": "PRES_AUD", "word": "razor", "wordID": 1170, "conditions": [24, 800, "a", 12000], "trial": 6, "serialpos": 18, "trial_type": "single-audio", "trial_index": 219, "time_elapsed": 1575688, "internal_node_id": "0.0-156.0"}}, {"uniqueid": "MTK0263:3CTOC39K38XP0LMIG5UJTF9O66SJ7N", "current_trial": 220, "dateTime": 1510690097578, "trialdata": {"rt": -1000, "stimulus": "/static/audio/wordpool/COMPASS.wav", "key_press": -1, "type": "PRES_AUD", "word": "compass", "wordID": 357, "conditions": [24, 800, "a", 12000], "trial": 6, "serialpos": 19, "trial_type": "single-audio", "trial_index": 220, "time_elapsed": 1577562, "internal_node_id": "0.0-157.0"}}, {"uniqueid": "MTK0263:3CTOC39K38XP0LMIG5UJTF9O66SJ7N", "current_trial": 221, "dateTime": 1510690099317, "trialdata": {"rt": -1000, "stimulus": "/static/audio/wordpool/BANK.wav", "key_press": -1, "type": "PRES_AUD", "word": "bank", "wordID": 82, "conditions": [24, 800, "a", 12000], "trial": 6, "serialpos": 20, "trial_type": "single-audio", "trial_index": 221, "time_elapsed": 1579301, "internal_node_id": "0.0-158.0"}}, {"uniqueid": "MTK0263:3CTOC39K38XP0LMIG5UJTF9O66SJ7N", "current_trial": 222, "dateTime": 1510690100979, "trialdata": {"rt": -1000, "stimulus": "/static/audio/wordpool/BANKER.wav", "key_press": -1, "type": "PRES_AUD", "word": "banker", "wordID": 83, "conditions": [24, 800, "a", 12000], "trial": 6, "serialpos": 21, "trial_type": "single-audio", "trial_index": 222, "time_elapsed": 1580963, "internal_node_id": "0.0-159.0"}}, {"uniqueid": "MTK0263:3CTOC39K38XP0LMIG5UJTF9O66SJ7N", "current_trial": 223, "dateTime": 1510690102819, "trialdata": {"rt": -1000, "stimulus": "/static/audio/wordpool/BLADE.wav", "key_press": -1, "type": "PRES_AUD", "word": "blade", "wordID": 133, "conditions": [24, 800, "a", 12000], "trial": 6, "serialpos": 22, "trial_type": "single-audio", "trial_index": 223, "time_elapsed": 1582803, "internal_node_id": "0.0-160.0"}}, {"uniqueid": "MTK0263:3CTOC39K38XP0LMIG5UJTF9O66SJ7N", "current_trial": 224, "dateTime": 1510690104507, "trialdata": {"rt": -1000, "stimulus": "/static/audio/wordpool/CROWN.wav", "key_press": -1, "type": "PRES_AUD", "word": "crown", "wordID": 414, "conditions": [24, 800, "a", 12000], "trial": 6, "serialpos": 23, "trial_type": "single-audio", "trial_index": 224, "time_elapsed": 1584491, "internal_node_id": "0.0-161.0"}}, {"uniqueid": "MTK0263:3CTOC39K38XP0LMIG5UJTF9O66SJ7N", "current_trial": 225, "dateTime": 1510690105822, "trialdata": {"rt": -1, "stimulus": "", "key_press": -1, "type": "PRE_RECALL_DELAY", "trial_type": "single-stim", "trial_index": 225, "time_elapsed": 1585806, "internal_node_id": "0.0-162.0-0.0"}}, {"uniqueid": "MTK0263:3CTOC39K38XP0LMIG5UJTF9O66SJ7N", "current_trial": 226, "dateTime": 1510690106324, "trialdata": {"rt": -1000, "stimulus": "/static/audio/400Hz.wav", "key_press": -1, "type": "PRE_RECALL_ALERT", "trial_type": "single-audio", "trial_index": 226, "time_elapsed": 1586308, "internal_node_id": "0.0-163.0"}}, {"uniqueid": "MTK0263:3CTOC39K38XP0LMIG5UJTF9O66SJ7N", "current_trial": 227, "dateTime": 1510690166334, "trialdata": {"rt": [5047, 7471, 36783, 38511], "recwords": ["crown", "baker", "pasta", "ankle"], "type": "FREE_RECALL", "conditions": [24, 800, "a", 12000], "trial": 6, "trial_type": "free-recall", "trial_index": 227, "time_elapsed": 1646312, "internal_node_id": "0.0-164.0-0.0"}}, {"uniqueid": "MTK0263:3CTOC39K38XP0LMIG5UJTF9O66SJ7N", "current_trial": 228, "dateTime": 1510690171614, "trialdata": {"rt": 3279, "key_press": 13, "type": "INSTRUCTIONS", "trial_type": "text", "trial_index": 228, "time_elapsed": 1651598, "internal_node_id": "0.0-165.0"}}, {"uniqueid": "MTK0263:3CTOC39K38XP0LMIG5UJTF9O66SJ7N", "current_trial": 229, "dateTime": 1510690197616, "trialdata": {"rt": [2358, 4046, 5694, 7654, 9726, 11926, 14942, 16702, 18806, 20197, 22198], "responses": ["17", "9", "10", "13", "18", "13", "21", "13", "13", "11", "9"], "num1": [8, 3, 2, 1, 9, 3, 7, 6, 2, 4, 1, 5], "num2": [7, 5, 7, 9, 4, 8, 5, 3, 7, 6, 3, 6], "num3": [2, 1, 1, 3, 5, 2, 9, 4, 4, 1, 5, 2], "type": "DISTRACTOR", "conditions": [24, 1600, "v", 24000], "trial": 7, "trial_type": "math-distractor", "trial_index": 229, "time_elapsed": 1677600, "internal_node_id": "0.0-166.0"}}, {"uniqueid": "MTK0263:3CTOC39K38XP0LMIG5UJTF9O66SJ7N", "current_trial": 230, "dateTime": 1510690200619, "trialdata": {"rt": -1, "stimulus": "<p id=\"stim\">10</p>", "key_press": -1, "trial_type": "single-stim", "trial_index": 230, "time_elapsed": 1680603, "internal_node_id": "0.0-167.0-0.0"}}, {"uniqueid": "MTK0263:3CTOC39K38XP0LMIG5UJTF9O66SJ7N", "current_trial": 231, "dateTime": 1510690201622, "trialdata": {"rt": -1, "stimulus": "<p id=\"stim\">9</p>", "key_press": -1, "trial_type": "single-stim", "trial_index": 231, "time_elapsed": 1681606, "internal_node_id": "0.0-167.0-1.0"}}, {"uniqueid": "MTK0263:3CTOC39K38XP0LMIG5UJTF9O66SJ7N", "current_trial": 232, "dateTime": 1510690202622, "trialdata": {"rt": -1, "stimulus": "<p id=\"stim\">8</p>", "key_press": -1, "trial_type": "single-stim", "trial_index": 232, "time_elapsed": 1682606, "internal_node_id": "0.0-167.0-2.0"}}, {"uniqueid": "MTK0263:3CTOC39K38XP0LMIG5UJTF9O66SJ7N", "current_trial": 233, "dateTime": 1510690203624, "trialdata": {"rt": -1, "stimulus": "<p id=\"stim\">7</p>", "key_press": -1, "trial_type": "single-stim", "trial_index": 233, "time_elapsed": 1683608, "internal_node_id": "0.0-167.0-3.0"}}, {"uniqueid": "MTK0263:3CTOC39K38XP0LMIG5UJTF9O66SJ7N", "current_trial": 234, "dateTime": 1510690204624, "trialdata": {"rt": -1, "stimulus": "<p id=\"stim\">6</p>", "key_press": -1, "trial_type": "single-stim", "trial_index": 234, "time_elapsed": 1684608, "internal_node_id": "0.0-167.0-4.0"}}, {"uniqueid": "MTK0263:3CTOC39K38XP0LMIG5UJTF9O66SJ7N", "current_trial": 235, "dateTime": 1510690205626, "trialdata": {"rt": -1, "stimulus": "<p id=\"stim\">5</p>", "key_press": -1, "trial_type": "single-stim", "trial_index": 235, "time_elapsed": 1685610, "internal_node_id": "0.0-167.0-5.0"}}, {"uniqueid": "MTK0263:3CTOC39K38XP0LMIG5UJTF9O66SJ7N", "current_trial": 236, "dateTime": 1510690206627, "trialdata": {"rt": -1, "stimulus": "<p id=\"stim\">4</p>", "key_press": -1, "trial_type": "single-stim", "trial_index": 236, "time_elapsed": 1686611, "internal_node_id": "0.0-167.0-6.0"}}, {"uniqueid": "MTK0263:3CTOC39K38XP0LMIG5UJTF9O66SJ7N", "current_trial": 237, "dateTime": 1510690207628, "trialdata": {"rt": -1, "stimulus": "<p id=\"stim\">3</p>", "key_press": -1, "trial_type": "single-stim", "trial_index": 237, "time_elapsed": 1687612, "internal_node_id": "0.0-167.0-7.0"}}, {"uniqueid": "MTK0263:3CTOC39K38XP0LMIG5UJTF9O66SJ7N", "current_trial": 238, "dateTime": 1510690208629, "trialdata": {"rt": -1, "stimulus": "<p id=\"stim\">2</p>", "key_press": -1, "trial_type": "single-stim", "trial_index": 238, "time_elapsed": 1688613, "internal_node_id": "0.0-167.0-8.0"}}, {"uniqueid": "MTK0263:3CTOC39K38XP0LMIG5UJTF9O66SJ7N", "current_trial": 239, "dateTime": 1510690209630, "trialdata": {"rt": -1, "stimulus": "<p id=\"stim\">1</p>", "key_press": -1, "trial_type": "single-stim", "trial_index": 239, "time_elapsed": 1689614, "internal_node_id": "0.0-167.0-9.0"}}, {"uniqueid": "MTK0263:3CTOC39K38XP0LMIG5UJTF9O66SJ7N", "current_trial": 240, "dateTime": 1510690211131, "trialdata": {"rt": -1, "stimulus": "<p id=\"stim\">+</p>", "key_press": -1, "type": "FIXATION", "trial_type": "single-stim", "trial_index": 240, "time_elapsed": 1691115, "internal_node_id": "0.0-168.0-0.0"}}, {"uniqueid": "MTK0263:3CTOC39K38XP0LMIG5UJTF9O66SJ7N", "current_trial": 241, "dateTime": 1510690212733, "trialdata": {"rt": -1, "stimulus": "<p id=\"stim\">TILE</p>", "key_press": -1, "type": "PRES_VIS", "word": "tile", "wordID": 1467, "conditions": [24, 1600, "v", 24000], "trial": 7, "serialpos": 0, "trial_type": "single-stim", "trial_index": 241, "time_elapsed": 1692717, "internal_node_id": "0.0-169.0"}}, {"uniqueid": "MTK0263:3CTOC39K38XP0LMIG5UJTF9O66SJ7N", "current_trial": 242, "dateTime": 1510690215363, "trialdata": {"rt": -1, "stimulus": "<p id=\"stim\">PRIMATE</p>", "key_press": -1, "type": "PRES_VIS", "word": "primate", "wordID": 1122, "conditions": [24, 1600, "v", 24000], "trial": 7, "serialpos": 1, "trial_type": "single-stim", "trial_index": 242, "time_elapsed": 1695346, "internal_node_id": "0.0-170.0"}}, {"uniqueid": "MTK0263:3CTOC39K38XP0LMIG5UJTF9O66SJ7N", "current_trial": 243, "dateTime": 1510690218133, "trialdata": {"rt": -1, "stimulus": "<p id=\"stim\">FLAG</p>", "key_press": -1, "type": "PRES_VIS", "word": "flag", "wordID": 572, "conditions": [24, 1600, "v", 24000], "trial": 7, "serialpos": 2, "trial_type": "single-stim", "trial_index": 243, "time_elapsed": 1698117, "internal_node_id": "0.0-171.0"}}, {"uniqueid": "MTK0263:3CTOC39K38XP0LMIG5UJTF9O66SJ7N", "current_trial": 244, "dateTime": 1510690220652, "trialdata": {"rt": -1, "stimulus": "<p id=\"stim\">OMELET</p>", "key_press": -1, "type": "PRES_VIS", "word": "omelet", "wordID": 975, "conditions": [24, 1600, "v", 24000], "trial": 7, "serialpos": 3, "trial_type": "single-stim", "trial_index": 244, "time_elapsed": 1700636, "internal_node_id": "0.0-172.0"}}, {"uniqueid": "MTK0263:3CTOC39K38XP0LMIG5UJTF9O66SJ7N", "current_trial": 245, "dateTime": 1510690223408, "trialdata": {"rt": -1, "stimulus": "<p id=\"stim\">SHIRT</p>", "key_press": -1, "type": "PRES_VIS", "word": "shirt", "wordID": 1286, "conditions": [24, 1600, "v", 24000], "trial": 7, "serialpos": 4, "trial_type": "single-stim", "trial_index": 245, "time_elapsed": 1703392, "internal_node_id": "0.0-173.0"}}, {"uniqueid": "MTK0263:3CTOC39K38XP0LMIG5UJTF9O66SJ7N", "current_trial": 246, "dateTime": 1510690225896, "trialdata": {"rt": -1, "stimulus": "<p id=\"stim\">DONKEY</p>", "key_press": -1, "type": "PRES_VIS", "word": "donkey", "wordID": 483, "conditions": [24, 1600, "v", 24000], "trial": 7, "serialpos": 5, "trial_type": "single-stim", "trial_index": 246, "time_elapsed": 1705880, "internal_node_id": "0.0-174.0"}}, {"uniqueid": "MTK0263:3CTOC39K38XP0LMIG5UJTF9O66SJ7N", "current_trial": 247, "dateTime": 1510690228335, "trialdata": {"rt": -1, "stimulus": "<p id=\"stim\">SOFTBALL</p>", "key_press": -1, "type": "PRES_VIS", "word": "softball", "wordID": 1342, "conditions": [24, 1600, "v", 24000], "trial": 7, "serialpos": 6, "trial_type": "single-stim", "trial_index": 247, "time_elapsed": 1708319, "internal_node_id": "0.0-175.0"}}, {"uniqueid": "MTK0263:3CTOC39K38XP0LMIG5UJTF9O66SJ7N", "current_trial": 248, "dateTime": 1510690230844, "trialdata": {"rt": -1, "stimulus": "<p id=\"stim\">SCARF</p>", "key_press": -1, "type": "PRES_VIS", "word": "scarf", "wordID": 1245, "conditions": [24, 1600, "v", 24000], "trial": 7, "serialpos": 7, "trial_type": "single-stim", "trial_index": 248, "time_elapsed": 1710828, "internal_node_id": "0.0-176.0"}}, {"uniqueid": "MTK0263:3CTOC39K38XP0LMIG5UJTF9O66SJ7N", "current_trial": 249, "dateTime": 1510690233426, "trialdata": {"rt": -1, "stimulus": "<p id=\"stim\">FLUTE</p>", "key_press": -1, "type": "PRES_VIS", "word": "flute", "wordID": 584, "conditions": [24, 1600, "v", 24000], "trial": 7, "serialpos": 8, "trial_type": "single-stim", "trial_index": 249, "time_elapsed": 1713410, "internal_node_id": "0.0-177.0"}}, {"uniqueid": "MTK0263:3CTOC39K38XP0LMIG5UJTF9O66SJ7N", "current_trial": 250, "dateTime": 1510690236119, "trialdata": {"rt": -1, "stimulus": "<p id=\"stim\">RABBIT</p>", "key_press": -1, "type": "PRES_VIS", "word": "rabbit", "wordID": 1151, "conditions": [24, 1600, "v", 24000], "trial": 7, "serialpos": 9, "trial_type": "single-stim", "trial_index": 250, "time_elapsed": 1716103, "internal_node_id": "0.0-178.0"}}, {"uniqueid": "MTK0263:3CTOC39K38XP0LMIG5UJTF9O66SJ7N", "current_trial": 251, "dateTime": 1510690238606, "trialdata": {"rt": -1, "stimulus": "<p id=\"stim\">STUDENT</p>", "key_press": -1, "type": "PRES_VIS", "word": "student", "wordID": 1394, "conditions": [24, 1600, "v", 24000], "trial": 7, "serialpos": 10, "trial_type": "single-stim", "trial_index": 251, "time_elapsed": 1718590, "internal_node_id": "0.0-179.0"}}, {"uniqueid": "MTK0263:3CTOC39K38XP0LMIG5UJTF9O66SJ7N", "current_trial": 252, "dateTime": 1510690241090, "trialdata": {"rt": -1, "stimulus": "<p id=\"stim\">COLLEGE</p>", "key_press": -1, "type": "PRES_VIS", "word": "college", "wordID": 345, "conditions": [24, 1600, "v", 24000], "trial": 7, "serialpos": 11, "trial_type": "single-stim", "trial_index": 252, "time_elapsed": 1721074, "internal_node_id": "0.0-180.0"}}, {"uniqueid": "MTK0263:3CTOC39K38XP0LMIG5UJTF9O66SJ7N", "current_trial": 253, "dateTime": 1510690243882, "trialdata": {"rt": -1, "stimulus": "<p id=\"stim\">RUG</p>", "key_press": -1, "type": "PRES_VIS", "word": "rug", "wordID": 1214, "conditions": [24, 1600, "v", 24000], "trial": 7, "serialpos": 12, "trial_type": "single-stim", "trial_index": 253, "time_elapsed": 1723866, "internal_node_id": "0.0-181.0"}}, {"uniqueid": "MTK0263:3CTOC39K38XP0LMIG5UJTF9O66SJ7N", "current_trial": 254, "dateTime": 1510690246600, "trialdata": {"rt": -1, "stimulus": "<p id=\"stim\">BROOK</p>", "key_press": -1, "type": "PRES_VIS", "word": "brook", "wordID": 176, "conditions": [24, 1600, "v", 24000], "trial": 7, "serialpos": 13, "trial_type": "single-stim", "trial_index": 254, "time_elapsed": 1726584, "internal_node_id": "0.0-182.0"}}, {"uniqueid": "MTK0263:3CTOC39K38XP0LMIG5UJTF9O66SJ7N", "current_trial": 255, "dateTime": 1510690249296, "trialdata": {"rt": -1, "stimulus": "<p id=\"stim\">CRATER</p>", "key_press": -1, "type": "PRES_VIS", "word": "crater", "wordID": 399, "conditions": [24, 1600, "v", 24000], "trial": 7, "serialpos": 14, "trial_type": "single-stim", "trial_index": 255, "time_elapsed": 1729280, "internal_node_id": "0.0-183.0"}}, {"uniqueid": "MTK0263:3CTOC39K38XP0LMIG5UJTF9O66SJ7N", "current_trial": 256, "dateTime": 1510690251965, "trialdata": {"rt": -1, "stimulus": "<p id=\"stim\">FLOWER</p>", "key_press": -1, "type": "PRES_VIS", "word": "flower", "wordID": 583, "conditions": [24, 1600, "v", 24000], "trial": 7, "serialpos": 15, "trial_type": "single-stim", "trial_index": 256, "time_elapsed": 1731949, "internal_node_id": "0.0-184.0"}}, {"uniqueid": "MTK0263:3CTOC39K38XP0LMIG5UJTF9O66SJ7N", "current_trial": 257, "dateTime": 1510690254518, "trialdata": {"rt": -1, "stimulus": "<p id=\"stim\">LILY</p>", "key_press": -1, "type": "PRES_VIS", "word": "lily", "wordID": 820, "conditions": [24, 1600, "v", 24000], "trial": 7, "serialpos": 16, "trial_type": "single-stim", "trial_index": 257, "time_elapsed": 1734502, "internal_node_id": "0.0-185.0"}}, {"uniqueid": "MTK0263:3CTOC39K38XP0LMIG5UJTF9O66SJ7N", "current_trial": 258, "dateTime": 1510690257233, "trialdata": {"rt": -1, "stimulus": "<p id=\"stim\">STONE</p>", "key_press": -1, "type": "PRES_VIS", "word": "stone", "wordID": 1384, "conditions": [24, 1600, "v", 24000], "trial": 7, "serialpos": 17, "trial_type": "single-stim", "trial_index": 258, "time_elapsed": 1737217, "internal_node_id": "0.0-186.0"}}, {"uniqueid": "MTK0263:3CTOC39K38XP0LMIG5UJTF9O66SJ7N", "current_trial": 259, "dateTime": 1510690259763, "trialdata": {"rt": -1, "stimulus": "<p id=\"stim\">MARSH</p>", "key_press": -1, "type": "PRES_VIS", "word": "marsh", "wordID": 873, "conditions": [24, 1600, "v", 24000], "trial": 7, "serialpos": 18, "trial_type": "single-stim", "trial_index": 259, "time_elapsed": 1739747, "internal_node_id": "0.0-187.0"}}, {"uniqueid": "MTK0263:3CTOC39K38XP0LMIG5UJTF9O66SJ7N", "current_trial": 260, "dateTime": 1510690262222, "trialdata": {"rt": -1, "stimulus": "<p id=\"stim\">HIGHWAY</p>", "key_press": -1, "type": "PRES_VIS", "word": "highway", "wordID": 706, "conditions": [24, 1600, "v", 24000], "trial": 7, "serialpos": 19, "trial_type": "single-stim", "trial_index": 260, "time_elapsed": 1742206, "internal_node_id": "0.0-188.0"}}, {"uniqueid": "MTK0263:3CTOC39K38XP0LMIG5UJTF9O66SJ7N", "current_trial": 261, "dateTime": 1510690264832, "trialdata": {"rt": -1, "stimulus": "<p id=\"stim\">TEACHER</p>", "key_press": -1, "type": "PRES_VIS", "word": "teacher", "wordID": 1439, "conditions": [24, 1600, "v", 24000], "trial": 7, "serialpos": 20, "trial_type": "single-stim", "trial_index": 261, "time_elapsed": 1744816, "internal_node_id": "0.0-189.0"}}, {"uniqueid": "MTK0263:3CTOC39K38XP0LMIG5UJTF9O66SJ7N", "current_trial": 262, "dateTime": 1510690267318, "trialdata": {"rt": -1, "stimulus": "<p id=\"stim\">SHORTCAKE</p>", "key_press": -1, "type": "PRES_VIS", "word": "shortcake", "wordID": 1291, "conditions": [24, 1600, "v", 24000], "trial": 7, "serialpos": 21, "trial_type": "single-stim", "trial_index": 262, "time_elapsed": 1747302, "internal_node_id": "0.0-190.0"}}, {"uniqueid": "MTK0263:3CTOC39K38XP0LMIG5UJTF9O66SJ7N", "current_trial": 263, "dateTime": 1510690269886, "trialdata": {"rt": -1, "stimulus": "<p id=\"stim\">LAVA</p>", "key_press": -1, "type": "PRES_VIS", "word": "lava", "wordID": 803, "conditions": [24, 1600, "v", 24000], "trial": 7, "serialpos": 22, "trial_type": "single-stim", "trial_index": 263, "time_elapsed": 1749870, "internal_node_id": "0.0-191.0"}}, {"uniqueid": "MTK0263:3CTOC39K38XP0LMIG5UJTF9O66SJ7N", "current_trial": 264, "dateTime": 1510690272472, "trialdata": {"rt": -1, "stimulus": "<p id=\"stim\">ZEBRA</p>", "key_press": -1, "type": "PRES_VIS", "word": "zebra", "wordID": 1634, "conditions": [24, 1600, "v", 24000], "trial": 7, "serialpos": 23, "trial_type": "single-stim", "trial_index": 264, "time_elapsed": 1752456, "internal_node_id": "0.0-192.0"}}, {"uniqueid": "MTK0263:3CTOC39K38XP0LMIG5UJTF9O66SJ7N", "current_trial": 265, "dateTime": 1510690274928, "trialdata": {"rt": -1, "stimulus": "", "key_press": -1, "type": "PRE_RECALL_DELAY", "trial_type": "single-stim", "trial_index": 265, "time_elapsed": 1754912, "internal_node_id": "0.0-193.0-0.0"}}, {"uniqueid": "MTK0263:3CTOC39K38XP0LMIG5UJTF9O66SJ7N", "current_trial": 266, "dateTime": 1510690275430, "trialdata": {"rt": -1000, "stimulus": "/static/audio/400Hz.wav", "key_press": -1, "type": "PRE_RECALL_ALERT", "trial_type": "single-audio", "trial_index": 266, "time_elapsed": 1755414, "internal_node_id": "0.0-194.0"}}, {"uniqueid": "MTK0263:3CTOC39K38XP0LMIG5UJTF9O66SJ7N", "current_trial": 267, "dateTime": 1510690335435, "trialdata": {"rt": [1869, 4965, 7134, 8950], "recwords": ["lava", "zebra", "teacher", "cake"], "type": "FREE_RECALL", "conditions": [24, 1600, "v", 24000], "trial": 7, "trial_type": "free-recall", "trial_index": 267, "time_elapsed": 1815417, "internal_node_id": "0.0-195.0-0.0"}}, {"uniqueid": "MTK0263:3CTOC39K38XP0LMIG5UJTF9O66SJ7N", "current_trial": 268, "dateTime": 1510690339910, "trialdata": {"rt": 2472, "key_press": 13, "type": "INSTRUCTIONS", "trial_type": "text", "trial_index": 268, "time_elapsed": 1819894, "internal_node_id": "0.0-196.0"}}, {"uniqueid": "MTK0263:3CTOC39K38XP0LMIG5UJTF9O66SJ7N", "current_trial": 269, "dateTime": 1510690353913, "trialdata": {"rt": [2221, 3917, 5684, 7157, 8509, 10676], "responses": ["15", "12", "7", "13", "11", "12"], "num1": [3, 2, 1, 8, 1, 3, 2], "num2": [4, 8, 1, 3, 2, 4, 8], "num3": [8, 2, 5, 2, 8, 5, 6], "type": "DISTRACTOR", "conditions": [24, 1600, "v", 12000], "trial": 8, "trial_type": "math-distractor", "trial_index": 269, "time_elapsed": 1833897, "internal_node_id": "0.0-197.0"}}, {"uniqueid": "MTK0263:3CTOC39K38XP0LMIG5UJTF9O66SJ7N", "current_trial": 270, "dateTime": 1510690356915, "trialdata": {"rt": -1, "stimulus": "<p id=\"stim\">10</p>", "key_press": -1, "trial_type": "single-stim", "trial_index": 270, "time_elapsed": 1836899, "internal_node_id": "0.0-198.0-0.0"}}, {"uniqueid": "MTK0263:3CTOC39K38XP0LMIG5UJTF9O66SJ7N", "current_trial": 271, "dateTime": 1510690357916, "trialdata": {"rt": -1, "stimulus": "<p id=\"stim\">9</p>", "key_press": -1, "trial_type": "single-stim", "trial_index": 271, "time_elapsed": 1837900, "internal_node_id": "0.0-198.0-1.0"}}, {"uniqueid": "MTK0263:3CTOC39K38XP0LMIG5UJTF9O66SJ7N", "current_trial": 272, "dateTime": 1510690358917, "trialdata": {"rt": -1, "stimulus": "<p id=\"stim\">8</p>", "key_press": -1, "trial_type": "single-stim", "trial_index": 272, "time_elapsed": 1838901, "internal_node_id": "0.0-198.0-2.0"}}, {"uniqueid": "MTK0263:3CTOC39K38XP0LMIG5UJTF9O66SJ7N", "current_trial": 273, "dateTime": 1510690359919, "trialdata": {"rt": -1, "stimulus": "<p id=\"stim\">7</p>", "key_press": -1, "trial_type": "single-stim", "trial_index": 273, "time_elapsed": 1839903, "internal_node_id": "0.0-198.0-3.0"}}, {"uniqueid": "MTK0263:3CTOC39K38XP0LMIG5UJTF9O66SJ7N", "current_trial": 274, "dateTime": 1510690360921, "trialdata": {"rt": -1, "