{"condition": 0, "counterbalance": 2262, "assignmentId": "3X1FV8S5JYYHK9XDQXCW2GXB34KVG8", "workerId": "MTK0868", "hitId": "3HFWPF5AK9QYBL6RBLV5JFSBKN1S31", "currenttrial": 626, "bonus": 0, "data": [{"uniqueid": "MTK0868:3X1FV8S5JYYHK9XDQXCW2GXB34KVG8", "current_trial": 0, "dateTime": 1512853751591, "trialdata": {"rt": 2561, "key_press": 13, "type": "INSTRUCTIONS", "trial_type": "text", "trial_index": 0, "time_elapsed": 2565, "internal_node_id": "0.0-0.0"}}, {"uniqueid": "MTK0868:3X1FV8S5JYYHK9XDQXCW2GXB34KVG8", "current_trial": 1, "dateTime": 1512853815821, "trialdata": {"rt": 64228, "key_press": 13, "type": "INSTRUCTIONS", "trial_type": "text", "trial_index": 1, "time_elapsed": 66795, "internal_node_id": "0.0-1.0"}}, {"uniqueid": "MTK0868:3X1FV8S5JYYHK9XDQXCW2GXB34KVG8", "current_trial": 2, "dateTime": 1512853827597, "trialdata": {"rt": [11760], "responses": ["ocean"], "type": "AUDIO_TEST", "trial_type": "audio-test", "trial_index": 2, "time_elapsed": 78571, "internal_node_id": "0.0-2.0"}}, {"uniqueid": "MTK0868:3X1FV8S5JYYHK9XDQXCW2GXB34KVG8", "current_trial": 3, "dateTime": 1512853844180, "trialdata": {"rt": [16577], "responses": ["crystal"], "type": "AUDIO_TEST", "trial_type": "audio-test", "trial_index": 3, "time_elapsed": 95155, "internal_node_id": "0.0-3.0"}}, {"uniqueid": "MTK0868:3X1FV8S5JYYHK9XDQXCW2GXB34KVG8", "current_trial": 4, "dateTime": 1512853851516, "trialdata": {"rt": [7331], "responses": ["spice"], "type": "AUDIO_TEST", "trial_type": "audio-test", "trial_index": 4, "time_elapsed": 102490, "internal_node_id": "0.0-4.0"}}, {"uniqueid": "MTK0868:3X1FV8S5JYYHK9XDQXCW2GXB34KVG8", "current_trial": 5, "dateTime": 1512853879847, "trialdata": {"rt": 27574, "responses": "{\"Q0\":\"2:00\",\"Q1\":\"9:00\",\"Q2\":\"4\"}", "type": "SLEEP_SURVEY", "trial_type": "survey-text", "trial_index": 5, "time_elapsed": 130822, "internal_node_id": "0.0-5.0"}}, {"uniqueid": "MTK0868:3X1FV8S5JYYHK9XDQXCW2GXB34KVG8", "current_trial": 6, "dateTime": 1512853924404, "trialdata": {"rt": 43555, "key_press": 122, "type": "INSTRUCTIONS", "trial_type": "text", "trial_index": 6, "time_elapsed": 175378, "internal_node_id": "0.0-6.0"}}, {"uniqueid": "MTK0868:3X1FV8S5JYYHK9XDQXCW2GXB34KVG8", "current_trial": 7, "dateTime": 1512853928586, "trialdata": {"rt": 3680, "key_press": 13, "type": "INSTRUCTIONS", "trial_type": "text", "trial_index": 7, "time_elapsed": 179561, "internal_node_id": "0.0-7.0"}}, {"uniqueid": "MTK0868:3X1FV8S5JYYHK9XDQXCW2GXB34KVG8", "current_trial": 8, "dateTime": 1512853944459, "trialdata": {"rt": 15371, "key_press": 13, "type": "INSTRUCTIONS", "trial_type": "text", "trial_index": 8, "time_elapsed": 195434, "internal_node_id": "0.0-8.0"}}, {"uniqueid": "MTK0868:3X1FV8S5JYYHK9XDQXCW2GXB34KVG8", "current_trial": 9, "dateTime": 1512853963502, "trialdata": {"rt": [3478, 8366, 10462, 12662, 15622], "responses": ["13", "15", "16", "19", "11"], "num1": [2, 4, 6, 8, 4, 3], "num2": [5, 7, 4, 2, 3, 6], "num3": [6, 4, 6, 9, 4, 6], "type": "DISTRACTOR", "conditions": [18, 1200, "a", 18000], "trial": 0, "trial_type": "math-distractor", "trial_index": 9, "time_elapsed": 214477, "internal_node_id": "0.0-9.0"}}, {"uniqueid": "MTK0868:3X1FV8S5JYYHK9XDQXCW2GXB34KVG8", "current_trial": 10, "dateTime": 1512853966509, "trialdata": {"rt": -1, "stimulus": "<p id=\"stim\">10</p>", "key_press": -1, "trial_type": "single-stim", "trial_index": 10, "time_elapsed": 217483, "internal_node_id": "0.0-10.0-0.0"}}, {"uniqueid": "MTK0868:3X1FV8S5JYYHK9XDQXCW2GXB34KVG8", "current_trial": 11, "dateTime": 1512853967511, "trialdata": {"rt": -1, "stimulus": "<p id=\"stim\">9</p>", "key_press": -1, "trial_type": "single-stim", "trial_index": 11, "time_elapsed": 218486, "internal_node_id": "0.0-10.0-1.0"}}, {"uniqueid": "MTK0868:3X1FV8S5JYYHK9XDQXCW2GXB34KVG8", "current_trial": 12, "dateTime": 1512853968513, "trialdata": {"rt": -1, "stimulus": "<p id=\"stim\">8</p>", "key_press": -1, "trial_type": "single-stim", "trial_index": 12, "time_elapsed": 219488, "internal_node_id": "0.0-10.0-2.0"}}, {"uniqueid": "MTK0868:3X1FV8S5JYYHK9XDQXCW2GXB34KVG8", "current_trial": 13, "dateTime": 1512853969519, "trialdata": {"rt": -1, "stimulus": "<p id=\"stim\">7</p>", "key_press": -1, "trial_type": "single-stim", "trial_index": 13, "time_elapsed": 220494, "internal_node_id": "0.0-10.0-3.0"}}, {"uniqueid": "MTK0868:3X1FV8S5JYYHK9XDQXCW2GXB34KVG8", "current_trial": 14, "dateTime": 1512853970521, "trialdata": {"rt": -1, "stimulus": "<p id=\"stim\">6</p>", "key_press": -1, "trial_type": "single-stim", "trial_index": 14, "time_elapsed": 221496, "internal_node_id": "0.0-10.0-4.0"}}, {"uniqueid": "MTK0868:3X1FV8S5JYYHK9XDQXCW2GXB34KVG8", "current_trial": 15, "dateTime": 1512853971525, "trialdata": {"rt": -1, "stimulus": "<p id=\"stim\">5</p>", "key_press": -1, "trial_type": "single-stim", "trial_index": 15, "time_elapsed": 222500, "internal_node_id": "0.0-10.0-5.0"}}, {"uniqueid": "MTK0868:3X1FV8S5JYYHK9XDQXCW2GXB34KVG8", "current_trial": 16, "dateTime": 1512853972528, "trialdata": {"rt": -1, "stimulus": "<p id=\"stim\">4</p>", "key_press": -1, "trial_type": "single-stim", "trial_index": 16, "time_elapsed": 223503, "internal_node_id": "0.0-10.0-6.0"}}, {"uniqueid": "MTK0868:3X1FV8S5JYYHK9XDQXCW2GXB34KVG8", "current_trial": 17, "dateTime": 1512853973530, "trialdata": {"rt": -1, "stimulus": "<p id=\"stim\">3</p>", "key_press": -1, "trial_type": "single-stim", "trial_index": 17, "time_elapsed": 224505, "internal_node_id": "0.0-10.0-7.0"}}, {"uniqueid": "MTK0868:3X1FV8S5JYYHK9XDQXCW2GXB34KVG8", "current_trial": 18, "dateTime": 1512853974532, "trialdata": {"rt": -1, "stimulus": "<p id=\"stim\">2</p>", "key_press": -1, "trial_type": "single-stim", "trial_index": 18, "time_elapsed": 225507, "internal_node_id": "0.0-10.0-8.0"}}, {"uniqueid": "MTK0868:3X1FV8S5JYYHK9XDQXCW2GXB34KVG8", "current_trial": 19, "dateTime": 1512853975534, "trialdata": {"rt": -1, "stimulus": "<p id=\"stim\">1</p>", "key_press": -1, "trial_type": "single-stim", "trial_index": 19, "time_elapsed": 226509, "internal_node_id": "0.0-10.0-9.0"}}, {"uniqueid": "MTK0868:3X1FV8S5JYYHK9XDQXCW2GXB34KVG8", "current_trial": 20, "dateTime": 1512853977037, "trialdata": {"rt": -1, "stimulus": "<p id=\"stim\">+</p>", "key_press": -1, "type": "FIXATION", "trial_type": "single-stim", "trial_index": 20, "time_elapsed": 228012, "internal_node_id": "0.0-11.0-0.0"}}, {"uniqueid": "MTK0868:3X1FV8S5JYYHK9XDQXCW2GXB34KVG8", "current_trial": 21, "dateTime": 1512853979290, "trialdata": {"rt": -1000, "stimulus": "/static/audio/wordpool/PEBBLE.wav", "key_press": -1, "type": "PRES_AUD", "word": "pebble", "wordID": 1034, "conditions": [18, 1200, "a", 18000], "trial": 0, "serialpos": 0, "trial_type": "single-audio", "trial_index": 21, "time_elapsed": 230265, "internal_node_id": "0.0-12.0"}}, {"uniqueid": "MTK0868:3X1FV8S5JYYHK9XDQXCW2GXB34KVG8", "current_trial": 22, "dateTime": 1512853981404, "trialdata": {"rt": -1000, "stimulus": "/static/audio/wordpool/POPCORN.wav", "key_press": -1, "type": "PRES_AUD", "word": "popcorn", "wordID": 1103, "conditions": [18, 1200, "a", 18000], "trial": 0, "serialpos": 1, "trial_type": "single-audio", "trial_index": 22, "time_elapsed": 232378, "internal_node_id": "0.0-13.0"}}, {"uniqueid": "MTK0868:3X1FV8S5JYYHK9XDQXCW2GXB34KVG8", "current_trial": 23, "dateTime": 1512853983742, "trialdata": {"rt": -1000, "stimulus": "/static/audio/wordpool/FRIEND.wav", "key_press": -1, "type": "PRES_AUD", "word": "friend", "wordID": 605, "conditions": [18, 1200, "a", 18000], "trial": 0, "serialpos": 2, "trial_type": "single-audio", "trial_index": 23, "time_elapsed": 234717, "internal_node_id": "0.0-14.0"}}, {"uniqueid": "MTK0868:3X1FV8S5JYYHK9XDQXCW2GXB34KVG8", "current_trial": 24, "dateTime": 1512853986036, "trialdata": {"rt": -1000, "stimulus": "/static/audio/wordpool/PLAZA.wav", "key_press": -1, "type": "PRES_AUD", "word": "plaza", "wordID": 1087, "conditions": [18, 1200, "a", 18000], "trial": 0, "serialpos": 3, "trial_type": "single-audio", "trial_index": 24, "time_elapsed": 237011, "internal_node_id": "0.0-15.0"}}, {"uniqueid": "MTK0868:3X1FV8S5JYYHK9XDQXCW2GXB34KVG8", "current_trial": 25, "dateTime": 1512853988253, "trialdata": {"rt": -1000, "stimulus": "/static/audio/wordpool/LAKE.wav", "key_press": -1, "type": "PRES_AUD", "word": "lake", "wordID": 795, "conditions": [18, 1200, "a", 18000], "trial": 0, "serialpos": 4, "trial_type": "single-audio", "trial_index": 25, "time_elapsed": 239227, "internal_node_id": "0.0-16.0"}}, {"uniqueid": "MTK0868:3X1FV8S5JYYHK9XDQXCW2GXB34KVG8", "current_trial": 26, "dateTime": 1512853990461, "trialdata": {"rt": -1000, "stimulus": "/static/audio/wordpool/FLASK.wav", "key_press": -1, "type": "PRES_AUD", "word": "flask", "wordID": 575, "conditions": [18, 1200, "a", 18000], "trial": 0, "serialpos": 5, "trial_type": "single-audio", "trial_index": 26, "time_elapsed": 241436, "internal_node_id": "0.0-17.0"}}, {"uniqueid": "MTK0868:3X1FV8S5JYYHK9XDQXCW2GXB34KVG8", "current_trial": 27, "dateTime": 1512853992692, "trialdata": {"rt": -1000, "stimulus": "/static/audio/wordpool/LAGOON.wav", "key_press": -1, "type": "PRES_AUD", "word": "lagoon", "wordID": 794, "conditions": [18, 1200, "a", 18000], "trial": 0, "serialpos": 6, "trial_type": "single-audio", "trial_index": 27, "time_elapsed": 243666, "internal_node_id": "0.0-18.0"}}, {"uniqueid": "MTK0868:3X1FV8S5JYYHK9XDQXCW2GXB34KVG8", "current_trial": 28, "dateTime": 1512853994964, "trialdata": {"rt": -1000, "stimulus": "/static/audio/wordpool/PORTRAIT.wav", "key_press": -1, "type": "PRES_AUD", "word": "portrait", "wordID": 1110, "conditions": [18, 1200, "a", 18000], "trial": 0, "serialpos": 7, "trial_type": "single-audio", "trial_index": 28, "time_elapsed": 245939, "internal_node_id": "0.0-19.0"}}, {"uniqueid": "MTK0868:3X1FV8S5JYYHK9XDQXCW2GXB34KVG8", "current_trial": 29, "dateTime": 1512853997216, "trialdata": {"rt": -1000, "stimulus": "/static/audio/wordpool/FOX.wav", "key_press": -1, "type": "PRES_AUD", "word": "fox", "wordID": 597, "conditions": [18, 1200, "a", 18000], "trial": 0, "serialpos": 8, "trial_type": "single-audio", "trial_index": 29, "time_elapsed": 248191, "internal_node_id": "0.0-20.0"}}, {"uniqueid": "MTK0868:3X1FV8S5JYYHK9XDQXCW2GXB34KVG8", "current_trial": 30, "dateTime": 1512853999430, "trialdata": {"rt": -1000, "stimulus": "/static/audio/wordpool/PIGMENT.wav", "key_press": -1, "type": "PRES_AUD", "word": "pigment", "wordID": 1065, "conditions": [18, 1200, "a", 18000], "trial": 0, "serialpos": 9, "trial_type": "single-audio", "trial_index": 30, "time_elapsed": 250405, "internal_node_id": "0.0-21.0"}}, {"uniqueid": "MTK0868:3X1FV8S5JYYHK9XDQXCW2GXB34KVG8", "current_trial": 31, "dateTime": 1512854001594, "trialdata": {"rt": -1000, "stimulus": "/static/audio/wordpool/MARS.wav", "key_press": -1, "type": "PRES_AUD", "word": "mars", "wordID": 872, "conditions": [18, 1200, "a", 18000], "trial": 0, "serialpos": 10, "trial_type": "single-audio", "trial_index": 31, "time_elapsed": 252569, "internal_node_id": "0.0-22.0"}}, {"uniqueid": "MTK0868:3X1FV8S5JYYHK9XDQXCW2GXB34KVG8", "current_trial": 32, "dateTime": 1512854003884, "trialdata": {"rt": -1000, "stimulus": "/static/audio/wordpool/YACHT.wav", "key_press": -1, "type": "PRES_AUD", "word": "yacht", "wordID": 1628, "conditions": [18, 1200, "a", 18000], "trial": 0, "serialpos": 11, "trial_type": "single-audio", "trial_index": 32, "time_elapsed": 254859, "internal_node_id": "0.0-23.0"}}, {"uniqueid": "MTK0868:3X1FV8S5JYYHK9XDQXCW2GXB34KVG8", "current_trial": 33, "dateTime": 1512854006171, "trialdata": {"rt": -1000, "stimulus": "/static/audio/wordpool/HOOD.wav", "key_press": -1, "type": "PRES_AUD", "word": "hood", "wordID": 713, "conditions": [18, 1200, "a", 18000], "trial": 0, "serialpos": 12, "trial_type": "single-audio", "trial_index": 33, "time_elapsed": 257146, "internal_node_id": "0.0-24.0"}}, {"uniqueid": "MTK0868:3X1FV8S5JYYHK9XDQXCW2GXB34KVG8", "current_trial": 34, "dateTime": 1512854008210, "trialdata": {"rt": -1000, "stimulus": "/static/audio/wordpool/PEPPER.wav", "key_press": -1, "type": "PRES_AUD", "word": "pepper", "wordID": 1046, "conditions": [18, 1200, "a", 18000], "trial": 0, "serialpos": 13, "trial_type": "single-audio", "trial_index": 34, "time_elapsed": 259185, "internal_node_id": "0.0-25.0"}}, {"uniqueid": "MTK0868:3X1FV8S5JYYHK9XDQXCW2GXB34KVG8", "current_trial": 35, "dateTime": 1512854010308, "trialdata": {"rt": -1000, "stimulus": "/static/audio/wordpool/BLOCKADE.wav", "key_press": -1, "type": "PRES_AUD", "word": "blockade", "wordID": 136, "conditions": [18, 1200, "a", 18000], "trial": 0, "serialpos": 14, "trial_type": "single-audio", "trial_index": 35, "time_elapsed": 261283, "internal_node_id": "0.0-26.0"}}, {"uniqueid": "MTK0868:3X1FV8S5JYYHK9XDQXCW2GXB34KVG8", "current_trial": 36, "dateTime": 1512854012383, "trialdata": {"rt": -1000, "stimulus": "/static/audio/wordpool/FRAME.wav", "key_press": -1, "type": "PRES_AUD", "word": "frame", "wordID": 599, "conditions": [18, 1200, "a", 18000], "trial": 0, "serialpos": 15, "trial_type": "single-audio", "trial_index": 36, "time_elapsed": 263358, "internal_node_id": "0.0-27.0"}}, {"uniqueid": "MTK0868:3X1FV8S5JYYHK9XDQXCW2GXB34KVG8", "current_trial": 37, "dateTime": 1512854014623, "trialdata": {"rt": -1000, "stimulus": "/static/audio/wordpool/FUNGUS.wav", "key_press": -1, "type": "PRES_AUD", "word": "fungus", "wordID": 613, "conditions": [18, 1200, "a", 18000], "trial": 0, "serialpos": 16, "trial_type": "single-audio", "trial_index": 37, "time_elapsed": 265598, "internal_node_id": "0.0-28.0"}}, {"uniqueid": "MTK0868:3X1FV8S5JYYHK9XDQXCW2GXB34KVG8", "current_trial": 38, "dateTime": 1512854016639, "trialdata": {"rt": -1000, "stimulus": "/static/audio/wordpool/KLEENEX.wav", "key_press": -1, "type": "PRES_AUD", "word": "kleenex", "wordID": 781, "conditions": [18, 1200, "a", 18000], "trial": 0, "serialpos": 17, "trial_type": "single-audio", "trial_index": 38, "time_elapsed": 267614, "internal_node_id": "0.0-29.0"}}, {"uniqueid": "MTK0868:3X1FV8S5JYYHK9XDQXCW2GXB34KVG8", "current_trial": 39, "dateTime": 1512854017992, "trialdata": {"rt": -1, "stimulus": "", "key_press": -1, "type": "PRE_RECALL_DELAY", "trial_type": "single-stim", "trial_index": 39, "time_elapsed": 268966, "internal_node_id": "0.0-30.0-0.0"}}, {"uniqueid": "MTK0868:3X1FV8S5JYYHK9XDQXCW2GXB34KVG8", "current_trial": 40, "dateTime": 1512854018495, "trialdata": {"rt": -1000, "stimulus": "/static/audio/400Hz.wav", "key_press": -1, "type": "PRE_RECALL_ALERT", "trial_type": "single-audio", "trial_index": 40, "time_elapsed": 269470, "internal_node_id": "0.0-31.0"}}, {"uniqueid": "MTK0868:3X1FV8S5JYYHK9XDQXCW2GXB34KVG8", "current_trial": 41, "dateTime": 1512854078507, "trialdata": {"rt": [3807, 5879, 9263, 12262, 13470, 15102, 16118, 34094], "recwords": ["fungus", "kleenex", "blockade", "pigment", "frame", "pebble", "lake", "fox"], "type": "FREE_RECALL", "conditions": [18, 1200, "a", 18000], "trial": 0, "trial_type": "free-recall", "trial_index": 41, "time_elapsed": 329476, "internal_node_id": "0.0-32.0-0.0"}}, {"uniqueid": "MTK0868:3X1FV8S5JYYHK9XDQXCW2GXB34KVG8", "current_trial": 42, "dateTime": 1512854084241, "trialdata": {"rt": 3733, "key_press": 13, "type": "INSTRUCTIONS", "trial_type": "text", "trial_index": 42, "time_elapsed": 335216, "internal_node_id": "0.0-33.0"}}, {"uniqueid": "MTK0868:3X1FV8S5JYYHK9XDQXCW2GXB34KVG8", "current_trial": 43, "dateTime": 1512854104248, "trialdata": {"rt": [2299, 3810, 5898, 8267, 11755, 15354, 17514], "responses": ["13", "11", "18", "10", "21", "20", "11"], "num1": [2, 9, 7, 2, 8, 9, 4, 4], "num2": [8, 1, 2, 4, 4, 3, 4, 7], "num3": [3, 1, 9, 4, 9, 8, 3, 2], "type": "DISTRACTOR", "conditions": [18, 1200, "v", 18000], "trial": 1, "trial_type": "math-distractor", "trial_index": 43, "time_elapsed": 355222, "internal_node_id": "0.0-34.0"}}, {"uniqueid": "MTK0868:3X1FV8S5JYYHK9XDQXCW2GXB34KVG8", "current_trial": 44, "dateTime": 1512854107252, "trialdata": {"rt": -1, "stimulus": "<p id=\"stim\">10</p>", "key_press": -1, "trial_type": "single-stim", "trial_index": 44, "time_elapsed": 358227, "internal_node_id": "0.0-35.0-0.0"}}, {"uniqueid": "MTK0868:3X1FV8S5JYYHK9XDQXCW2GXB34KVG8", "current_trial": 45, "dateTime": 1512854108254, "trialdata": {"rt": -1, "stimulus": "<p id=\"stim\">9</p>", "key_press": -1, "trial_type": "single-stim", "trial_index": 45, "time_elapsed": 359229, "internal_node_id": "0.0-35.0-1.0"}}, {"uniqueid": "MTK0868:3X1FV8S5JYYHK9XDQXCW2GXB34KVG8", "current_trial": 46, "dateTime": 1512854109256, "trialdata": {"rt": -1, "stimulus": "<p id=\"stim\">8</p>", "key_press": -1, "trial_type": "single-stim", "trial_index": 46, "time_elapsed": 360231, "internal_node_id": "0.0-35.0-2.0"}}, {"uniqueid": "MTK0868:3X1FV8S5JYYHK9XDQXCW2GXB34KVG8", "current_trial": 47, "dateTime": 1512854110259, "trialdata": {"rt": -1, "stimulus": "<p id=\"stim\">7</p>", "key_press": -1, "trial_type": "single-stim", "trial_index": 47, "time_elapsed": 361233, "internal_node_id": "0.0-35.0-3.0"}}, {"uniqueid": "MTK0868:3X1FV8S5JYYHK9XDQXCW2GXB34KVG8", "current_trial": 48, "dateTime": 1512854111262, "trialdata": {"rt": -1, "stimulus": "<p id=\"stim\">6</p>", "key_press": -1, "trial_type": "single-stim", "trial_index": 48, "time_elapsed": 362236, "internal_node_id": "0.0-35.0-4.0"}}, {"uniqueid": "MTK0868:3X1FV8S5JYYHK9XDQXCW2GXB34KVG8", "current_trial": 49, "dateTime": 1512854112264, "trialdata": {"rt": -1, "stimulus": "<p id=\"stim\">5</p>", "key_press": -1, "trial_type": "single-stim", "trial_index": 49, "time_elapsed": 363238, "internal_node_id": "0.0-35.0-5.0"}}, {"uniqueid": "MTK0868:3X1FV8S5JYYHK9XDQXCW2GXB34KVG8", "current_trial": 50, "dateTime": 1512854113266, "trialdata": {"rt": -1, "stimulus": "<p id=\"stim\">4</p>", "key_press": -1, "trial_type": "single-stim", "trial_index": 50, "time_elapsed": 364241, "internal_node_id": "0.0-35.0-6.0"}}, {"uniqueid": "MTK0868:3X1FV8S5JYYHK9XDQXCW2GXB34KVG8", "current_trial": 51, "dateTime": 1512854114268, "trialdata": {"rt": -1, "stimulus": "<p id=\"stim\">3</p>", "key_press": -1, "trial_type": "single-stim", "trial_index": 51, "time_elapsed": 365243, "internal_node_id": "0.0-35.0-7.0"}}, {"uniqueid": "MTK0868:3X1FV8S5JYYHK9XDQXCW2GXB34KVG8", "current_trial": 52, "dateTime": 1512854115271, "trialdata": {"rt": -1, "stimulus": "<p id=\"stim\">2</p>", "key_press": -1, "trial_type": "single-stim", "trial_index": 52, "time_elapsed": 366246, "internal_node_id": "0.0-35.0-8.0"}}, {"uniqueid": "MTK0868:3X1FV8S5JYYHK9XDQXCW2GXB34KVG8", "current_trial": 53, "dateTime": 1512854116274, "trialdata": {"rt": -1, "stimulus": "<p id=\"stim\">1</p>", "key_press": -1, "trial_type": "single-stim", "trial_index": 53, "time_elapsed": 367249, "internal_node_id": "0.0-35.0-9.0"}}, {"uniqueid": "MTK0868:3X1FV8S5JYYHK9XDQXCW2GXB34KVG8", "current_trial": 54, "dateTime": 1512854117776, "trialdata": {"rt": -1, "stimulus": "<p id=\"stim\">+</p>", "key_press": -1, "type": "FIXATION", "trial_type": "single-stim", "trial_index": 54, "time_elapsed": 368751, "internal_node_id": "0.0-36.0-0.0"}}, {"uniqueid": "MTK0868:3X1FV8S5JYYHK9XDQXCW2GXB34KVG8", "current_trial": 55, "dateTime": 1512854118979, "trialdata": {"rt": -1, "stimulus": "<p id=\"stim\">ARM</p>", "key_press": -1, "type": "PRES_VIS", "word": "arm", "wordID": 37, "conditions": [18, 1200, "v", 18000], "trial": 1, "serialpos": 0, "trial_type": "single-stim", "trial_index": 55, "time_elapsed": 369954, "internal_node_id": "0.0-37.0"}}, {"uniqueid": "MTK0868:3X1FV8S5JYYHK9XDQXCW2GXB34KVG8", "current_trial": 56, "dateTime": 1512854121244, "trialdata": {"rt": -1, "stimulus": "<p id=\"stim\">DINER</p>", "key_press": -1, "type": "PRES_VIS", "word": "diner", "wordID": 466, "conditions": [18, 1200, "v", 18000], "trial": 1, "serialpos": 1, "trial_type": "single-stim", "trial_index": 56, "time_elapsed": 372219, "internal_node_id": "0.0-38.0"}}, {"uniqueid": "MTK0868:3X1FV8S5JYYHK9XDQXCW2GXB34KVG8", "current_trial": 57, "dateTime": 1512854123539, "trialdata": {"rt": -1, "stimulus": "<p id=\"stim\">SNAIL</p>", "key_press": -1, "type": "PRES_VIS", "word": "snail", "wordID": 1331, "conditions": [18, 1200, "v", 18000], "trial": 1, "serialpos": 2, "trial_type": "single-stim", "trial_index": 57, "time_elapsed": 374514, "internal_node_id": "0.0-39.0"}}, {"uniqueid": "MTK0868:3X1FV8S5JYYHK9XDQXCW2GXB34KVG8", "current_trial": 58, "dateTime": 1512854125900, "trialdata": {"rt": -1, "stimulus": "<p id=\"stim\">SODA</p>", "key_press": -1, "type": "PRES_VIS", "word": "soda", "wordID": 1340, "conditions": [18, 1200, "v", 18000], "trial": 1, "serialpos": 3, "trial_type": "single-stim", "trial_index": 58, "time_elapsed": 376875, "internal_node_id": "0.0-40.0"}}, {"uniqueid": "MTK0868:3X1FV8S5JYYHK9XDQXCW2GXB34KVG8", "current_trial": 59, "dateTime": 1512854127926, "trialdata": {"rt": -1, "stimulus": "<p id=\"stim\">GRAVE</p>", "key_press": -1, "type": "PRES_VIS", "word": "grave", "wordID": 657, "conditions": [18, 1200, "v", 18000], "trial": 1, "serialpos": 4, "trial_type": "single-stim", "trial_index": 59, "time_elapsed": 378901, "internal_node_id": "0.0-41.0"}}, {"uniqueid": "MTK0868:3X1FV8S5JYYHK9XDQXCW2GXB34KVG8", "current_trial": 60, "dateTime": 1512854130126, "trialdata": {"rt": -1, "stimulus": "<p id=\"stim\">SOFTBALL</p>", "key_press": -1, "type": "PRES_VIS", "word": "softball", "wordID": 1342, "conditions": [18, 1200, "v", 18000], "trial": 1, "serialpos": 5, "trial_type": "single-stim", "trial_index": 60, "time_elapsed": 381100, "internal_node_id": "0.0-42.0"}}, {"uniqueid": "MTK0868:3X1FV8S5JYYHK9XDQXCW2GXB34KVG8", "current_trial": 61, "dateTime": 1512854132171, "trialdata": {"rt": -1, "stimulus": "<p id=\"stim\">LAVA</p>", "key_press": -1, "type": "PRES_VIS", "word": "lava", "wordID": 803, "conditions": [18, 1200, "v", 18000], "trial": 1, "serialpos": 6, "trial_type": "single-stim", "trial_index": 61, "time_elapsed": 383146, "internal_node_id": "0.0-43.0"}}, {"uniqueid": "MTK0868:3X1FV8S5JYYHK9XDQXCW2GXB34KVG8", "current_trial": 62, "dateTime": 1512854134436, "trialdata": {"rt": -1, "stimulus": "<p id=\"stim\">CASHIER</p>", "key_press": -1, "type": "PRES_VIS", "word": "cashier", "wordID": 253, "conditions": [18, 1200, "v", 18000], "trial": 1, "serialpos": 7, "trial_type": "single-stim", "trial_index": 62, "time_elapsed": 385411, "internal_node_id": "0.0-44.0"}}, {"uniqueid": "MTK0868:3X1FV8S5JYYHK9XDQXCW2GXB34KVG8", "current_trial": 63, "dateTime": 1512854136671, "trialdata": {"rt": -1, "stimulus": "<p id=\"stim\">PICNIC</p>", "key_press": -1, "type": "PRES_VIS", "word": "picnic", "wordID": 1059, "conditions": [18, 1200, "v", 18000], "trial": 1, "serialpos": 8, "trial_type": "single-stim", "trial_index": 63, "time_elapsed": 387646, "internal_node_id": "0.0-45.0"}}, {"uniqueid": "MTK0868:3X1FV8S5JYYHK9XDQXCW2GXB34KVG8", "current_trial": 64, "dateTime": 1512854138804, "trialdata": {"rt": -1, "stimulus": "<p id=\"stim\">ACTRESS</p>", "key_press": -1, "type": "PRES_VIS", "word": "actress", "wordID": 5, "conditions": [18, 1200, "v", 18000], "trial": 1, "serialpos": 9, "trial_type": "single-stim", "trial_index": 64, "time_elapsed": 389779, "internal_node_id": "0.0-46.0"}}, {"uniqueid": "MTK0868:3X1FV8S5JYYHK9XDQXCW2GXB34KVG8", "current_trial": 65, "dateTime": 1512854141044, "trialdata": {"rt": -1, "stimulus": "<p id=\"stim\">SUMMIT</p>", "key_press": -1, "type": "PRES_VIS", "word": "summit", "wordID": 1404, "conditions": [18, 1200, "v", 18000], "trial": 1, "serialpos": 10, "trial_type": "single-stim", "trial_index": 65, "time_elapsed": 392019, "internal_node_id": "0.0-47.0"}}, {"uniqueid": "MTK0868:3X1FV8S5JYYHK9XDQXCW2GXB34KVG8", "current_trial": 66, "dateTime": 1512854143150, "trialdata": {"rt": -1, "stimulus": "<p id=\"stim\">TWEEZERS</p>", "key_press": -1, "type": "PRES_VIS", "word": "tweezers", "wordID": 1525, "conditions": [18, 1200, "v", 18000], "trial": 1, "serialpos": 11, "trial_type": "single-stim", "trial_index": 66, "time_elapsed": 394125, "internal_node_id": "0.0-48.0"}}, {"uniqueid": "MTK0868:3X1FV8S5JYYHK9XDQXCW2GXB34KVG8", "current_trial": 67, "dateTime": 1512854145547, "trialdata": {"rt": -1, "stimulus": "<p id=\"stim\">PENGUIN</p>", "key_press": -1, "type": "PRES_VIS", "word": "penguin", "wordID": 1043, "conditions": [18, 1200, "v", 18000], "trial": 1, "serialpos": 12, "trial_type": "single-stim", "trial_index": 67, "time_elapsed": 396522, "internal_node_id": "0.0-49.0"}}, {"uniqueid": "MTK0868:3X1FV8S5JYYHK9XDQXCW2GXB34KVG8", "current_trial": 68, "dateTime": 1512854147554, "trialdata": {"rt": -1, "stimulus": "<p id=\"stim\">EYELASH</p>", "key_press": -1, "type": "PRES_VIS", "word": "eyelash", "wordID": 545, "conditions": [18, 1200, "v", 18000], "trial": 1, "serialpos": 13, "trial_type": "single-stim", "trial_index": 68, "time_elapsed": 398524, "internal_node_id": "0.0-50.0"}}, {"uniqueid": "MTK0868:3X1FV8S5JYYHK9XDQXCW2GXB34KVG8", "current_trial": 69, "dateTime": 1512854149924, "trialdata": {"rt": -1, "stimulus": "<p id=\"stim\">SWAMP</p>", "key_press": -1, "type": "PRES_VIS", "word": "swamp", "wordID": 1415, "conditions": [18, 1200, "v", 18000], "trial": 1, "serialpos": 14, "trial_type": "single-stim", "trial_index": 69, "time_elapsed": 400899, "internal_node_id": "0.0-51.0"}}, {"uniqueid": "MTK0868:3X1FV8S5JYYHK9XDQXCW2GXB34KVG8", "current_trial": 70, "dateTime": 1512854152141, "trialdata": {"rt": -1, "stimulus": "<p id=\"stim\">STAMP</p>", "key_press": -1, "type": "PRES_VIS", "word": "stamp", "wordID": 1369, "conditions": [18, 1200, "v", 18000], "trial": 1, "serialpos": 15, "trial_type": "single-stim", "trial_index": 70, "time_elapsed": 403115, "internal_node_id": "0.0-52.0"}}, {"uniqueid": "MTK0868:3X1FV8S5JYYHK9XDQXCW2GXB34KVG8", "current_trial": 71, "dateTime": 1512854154180, "trialdata": {"rt": -1, "stimulus": "<p id=\"stim\">SPACE</p>", "key_press": -1, "type": "PRES_VIS", "word": "space", "wordID": 1344, "conditions": [18, 1200, "v", 18000], "trial": 1, "serialpos": 16, "trial_type": "single-stim", "trial_index": 71, "time_elapsed": 405154, "internal_node_id": "0.0-53.0"}}, {"uniqueid": "MTK0868:3X1FV8S5JYYHK9XDQXCW2GXB34KVG8", "current_trial": 72, "dateTime": 1512854156318, "trialdata": {"rt": -1, "stimulus": "<p id=\"stim\">LADY</p>", "key_press": -1, "type": "PRES_VIS", "word": "lady", "wordID": 793, "conditions": [18, 1200, "v", 18000], "trial": 1, "serialpos": 17, "trial_type": "single-stim", "trial_index": 72, "time_elapsed": 407293, "internal_node_id": "0.0-54.0"}}, {"uniqueid": "MTK0868:3X1FV8S5JYYHK9XDQXCW2GXB34KVG8", "current_trial": 73, "dateTime": 1512854158628, "trialdata": {"rt": -1, "stimulus": "", "key_press": -1, "type": "PRE_RECALL_DELAY", "trial_type": "single-stim", "trial_index": 73, "time_elapsed": 409602, "internal_node_id": "0.0-55.0-0.0"}}, {"uniqueid": "MTK0868:3X1FV8S5JYYHK9XDQXCW2GXB34KVG8", "current_trial": 74, "dateTime": 1512854159130, "trialdata": {"rt": -1000, "stimulus": "/static/audio/400Hz.wav", "key_press": -1, "type": "PRE_RECALL_ALERT", "trial_type": "single-audio", "trial_index": 74, "time_elapsed": 410105, "internal_node_id": "0.0-56.0"}}, {"uniqueid": "MTK0868:3X1FV8S5JYYHK9XDQXCW2GXB34KVG8", "current_trial": 75, "dateTime": 1512854219139, "trialdata": {"rt": [2989, 4293, 10741, 25710, 38861, 42965, 54341], "recwords": ["eyelash", "lady", "drain", "sizzle", "grave", "arm", "softball"], "type": "FREE_RECALL", "conditions": [18, 1200, "v", 18000], "trial": 1, "trial_type": "free-recall", "trial_index": 75, "time_elapsed": 470108, "internal_node_id": "0.0-57.0-0.0"}}, {"uniqueid": "MTK0868:3X1FV8S5JYYHK9XDQXCW2GXB34KVG8", "current_trial": 76, "dateTime": 1512854223291, "trialdata": {"rt": 2147, "key_press": 13, "type": "INSTRUCTIONS", "trial_type": "text", "trial_index": 76, "time_elapsed": 474263, "internal_node_id": "0.0-58.0"}}, {"uniqueid": "MTK0868:3X1FV8S5JYYHK9XDQXCW2GXB34KVG8", "current_trial": 77, "dateTime": 1512854236300, "trialdata": {"rt": [4360, 7502, 9502, 11142], "responses": ["21", "25", "10", "10"], "num1": [8, 8, 2, 6, 5], "num2": [5, 8, 7, 3, 6], "num3": [8, 9, 1, 1, 3], "type": "DISTRACTOR", "conditions": [24, 800, "a", 12000], "trial": 2, "trial_type": "math-distractor", "trial_index": 77, "time_elapsed": 487275, "internal_node_id": "0.0-59.0"}}, {"uniqueid": "MTK0868:3X1FV8S5JYYHK9XDQXCW2GXB34KVG8", "current_trial": 78, "dateTime": 1512854239303, "trialdata": {"rt": -1, "stimulus": "<p id=\"stim\">10</p>", "key_press": -1, "trial_type": "single-stim", "trial_index": 78, "time_elapsed": 490278, "internal_node_id": "0.0-60.0-0.0"}}, {"uniqueid": "MTK0868:3X1FV8S5JYYHK9XDQXCW2GXB34KVG8", "current_trial": 79, "dateTime": 1512854240306, "trialdata": {"rt": -1, "stimulus": "<p id=\"stim\">9</p>", "key_press": -1, "trial_type": "single-stim", "trial_index": 79, "time_elapsed": 491281, "internal_node_id": "0.0-60.0-1.0"}}, {"uniqueid": "MTK0868:3X1FV8S5JYYHK9XDQXCW2GXB34KVG8", "current_trial": 80, "dateTime": 1512854241308, "trialdata": {"rt": -1, "stimulus": "<p id=\"stim\">8</p>", "key_press": -1, "trial_type": "single-stim", "trial_index": 80, "time_elapsed": 492283, "internal_node_id": "0.0-60.0-2.0"}}, {"uniqueid": "MTK0868:3X1FV8S5JYYHK9XDQXCW2GXB34KVG8", "current_trial": 81, "dateTime": 1512854242311, "trialdata": {"rt": -1, "stimulus": "<p id=\"stim\">7</p>", "key_press": -1, "trial_type": "single-stim", "trial_index": 81, "time_elapsed": 493286, "internal_node_id": "0.0-60.0-3.0"}}, {"uniqueid": "MTK0868:3X1FV8S5JYYHK9XDQXCW2GXB34KVG8", "current_trial": 82, "dateTime": 1512854243314, "trialdata": {"rt": -1, "stimulus": "<p id=\"stim\">6</p>", "key_press": -1, "trial_type": "single-stim", "trial_index": 82, "time_elapsed": 494289, "internal_node_id": "0.0-60.0-4.0"}}, {"uniqueid": "MTK0868:3X1FV8S5JYYHK9XDQXCW2GXB34KVG8", "current_trial": 83, "dateTime": 1512854244317, "trialdata": {"rt": -1, "stimulus": "<p id=\"stim\">5</p>", "key_press": -1, "trial_type": "single-stim", "trial_index": 83, "time_elapsed": 495291, "internal_node_id": "0.0-60.0-5.0"}}, {"uniqueid": "MTK0868:3X1FV8S5JYYHK9XDQXCW2GXB34KVG8", "current_trial": 84, "dateTime": 1512854245319, "trialdata": {"rt": -1, "stimulus": "<p id=\"stim\">4</p>", "key_press": -1, "trial_type": "single-stim", "trial_index": 84, "time_elapsed": 496294, "internal_node_id": "0.0-60.0-6.0"}}, {"uniqueid": "MTK0868:3X1FV8S5JYYHK9XDQXCW2GXB34KVG8", "current_trial": 85, "dateTime": 1512854246321, "trialdata": {"rt": -1, "stimulus": "<p id=\"stim\">3</p>", "key_press": -1, "trial_type": "single-stim", "trial_index": 85, "time_elapsed": 497296, "internal_node_id": "0.0-60.0-7.0"}}, {"uniqueid": "MTK0868:3X1FV8S5JYYHK9XDQXCW2GXB34KVG8", "current_trial": 86, "dateTime": 1512854247324, "trialdata": {"rt": -1, "stimulus": "<p id=\"stim\">2</p>", "key_press": -1, "trial_type": "single-stim", "trial_index": 86, "time_elapsed": 498299, "internal_node_id": "0.0-60.0-8.0"}}, {"uniqueid": "MTK0868:3X1FV8S5JYYHK9XDQXCW2GXB34KVG8", "current_trial": 87, "dateTime": 1512854248326, "trialdata": {"rt": -1, "stimulus": "<p id=\"stim\">1</p>", "key_press": -1, "trial_type": "single-stim", "trial_index": 87, "time_elapsed": 499301, "internal_node_id": "0.0-60.0-9.0"}}, {"uniqueid": "MTK0868:3X1FV8S5JYYHK9XDQXCW2GXB34KVG8", "current_trial": 88, "dateTime": 1512854249829, "trialdata": {"rt": -1, "stimulus": "<p id=\"stim\">+</p>", "key_press": -1, "type": "FIXATION", "trial_type": "single-stim", "trial_index": 88, "time_elapsed": 500803, "internal_node_id": "0.0-61.0-0.0"}}, {"uniqueid": "MTK0868:3X1FV8S5JYYHK9XDQXCW2GXB34KVG8", "current_trial": 89, "dateTime": 1512854251684, "trialdata": {"rt": -1000, "stimulus": "/static/audio/wordpool/SALAD.wav", "key_press": -1, "type": "PRES_AUD", "word": "salad", "wordID": 1223, "conditions": [24, 800, "a", 12000], "trial": 2, "serialpos": 0, "trial_type": "single-audio", "trial_index": 89, "time_elapsed": 502655, "internal_node_id": "0.0-62.0"}}, {"uniqueid": "MTK0868:3X1FV8S5JYYHK9XDQXCW2GXB34KVG8", "current_trial": 90, "dateTime": 1512854253415, "trialdata": {"rt": -1000, "stimulus": "/static/audio/wordpool/SANDWICH.wav", "key_press": -1, "type": "PRES_AUD", "word": "sandwich", "wordID": 1231, "conditions": [24, 800, "a", 12000], "trial": 2, "serialpos": 1, "trial_type": "single-audio", "trial_index": 90, "time_elapsed": 504390, "internal_node_id": "0.0-63.0"}}, {"uniqueid": "MTK0868:3X1FV8S5JYYHK9XDQXCW2GXB34KVG8", "current_trial": 91, "dateTime": 1512854255125, "trialdata": {"rt": -1000, "stimulus": "/static/audio/wordpool/TOASTER.wav", "key_press": -1, "type": "PRES_AUD", "word": "toaster", "wordID": 1471, "conditions": [24, 800, "a", 12000], "trial": 2, "serialpos": 2, "trial_type": "single-audio", "trial_index": 91, "time_elapsed": 506100, "internal_node_id": "0.0-64.0"}}, {"uniqueid": "MTK0868:3X1FV8S5JYYHK9XDQXCW2GXB34KVG8", "current_trial": 92, "dateTime": 1512854256989, "trialdata": {"rt": -1000, "stimulus": "/static/audio/wordpool/SNAKE.wav", "key_press": -1, "type": "PRES_AUD", "word": "snake", "wordID": 1332, "conditions": [24, 800, "a", 12000], "trial": 2, "serialpos": 3, "trial_type": "single-audio", "trial_index": 92, "time_elapsed": 507964, "internal_node_id": "0.0-65.0"}}, {"uniqueid": "MTK0868:3X1FV8S5JYYHK9XDQXCW2GXB34KVG8", "current_trial": 93, "dateTime": 1512854258797, "trialdata": {"rt": -1000, "stimulus": "/static/audio/wordpool/COBRA.wav", "key_press": -1, "type": "PRES_AUD", "word": "cobra", "wordID": 335, "conditions": [24, 800, "a", 12000], "trial": 2, "serialpos": 4, "trial_type": "single-audio", "trial_index": 93, "time_elapsed": 509772, "internal_node_id": "0.0-66.0"}}, {"uniqueid": "MTK0868:3X1FV8S5JYYHK9XDQXCW2GXB34KVG8", "current_trial": 94, "dateTime": 1512854260513, "trialdata": {"rt": -1000, "stimulus": "/static/audio/wordpool/WOMAN.wav", "key_press": -1, "type": "PRES_AUD", "word": "woman", "wordID": 1619, "conditions": [24, 800, "a", 12000], "trial": 2, "serialpos": 5, "trial_type": "single-audio", "trial_index": 94, "time_elapsed": 511488, "internal_node_id": "0.0-67.0"}}, {"uniqueid": "MTK0868:3X1FV8S5JYYHK9XDQXCW2GXB34KVG8", "current_trial": 95, "dateTime": 1512854262294, "trialdata": {"rt": -1000, "stimulus": "/static/audio/wordpool/TWISTER.wav", "key_press": -1, "type": "PRES_AUD", "word": "twister", "wordID": 1529, "conditions": [24, 800, "a", 12000], "trial": 2, "serialpos": 6, "trial_type": "single-audio", "trial_index": 95, "time_elapsed": 513269, "internal_node_id": "0.0-68.0"}}, {"uniqueid": "MTK0868:3X1FV8S5JYYHK9XDQXCW2GXB34KVG8", "current_trial": 96, "dateTime": 1512854263895, "trialdata": {"rt": -1000, "stimulus": "/static/audio/wordpool/GARDEN.wav", "key_press": -1, "type": "PRES_AUD", "word": "garden", "wordID": 622, "conditions": [24, 800, "a", 12000], "trial": 2, "serialpos": 7, "trial_type": "single-audio", "trial_index": 96, "time_elapsed": 514870, "internal_node_id": "0.0-69.0"}}, {"uniqueid": "MTK0868:3X1FV8S5JYYHK9XDQXCW2GXB34KVG8", "current_trial": 97, "dateTime": 1512854265779, "trialdata": {"rt": -1000, "stimulus": "/static/audio/wordpool/MAILBOX.wav", "key_press": -1, "type": "PRES_AUD", "word": "mailbox", "wordID": 856, "conditions": [24, 800, "a", 12000], "trial": 2, "serialpos": 8, "trial_type": "single-audio", "trial_index": 97, "time_elapsed": 516754, "internal_node_id": "0.0-70.0"}}, {"uniqueid": "MTK0868:3X1FV8S5JYYHK9XDQXCW2GXB34KVG8", "current_trial": 98, "dateTime": 1512854267516, "trialdata": {"rt": -1000, "stimulus": "/static/audio/wordpool/DANDRUFF.wav", "key_press": -1, "type": "PRES_AUD", "word": "dandruff", "wordID": 438, "conditions": [24, 800, "a", 12000], "trial": 2, "serialpos": 9, "trial_type": "single-audio", "trial_index": 98, "time_elapsed": 518491, "internal_node_id": "0.0-71.0"}}, {"uniqueid": "MTK0868:3X1FV8S5JYYHK9XDQXCW2GXB34KVG8", "current_trial": 99, "dateTime": 1512854269185, "trialdata": {"rt": -1000, "stimulus": "/static/audio/wordpool/VICTIM.wav", "key_press": -1, "type": "PRES_AUD", "word": "victim", "wordID": 1561, "conditions": [24, 800, "a", 12000], "trial": 2, "serialpos": 10, "trial_type": "single-audio", "trial_index": 99, "time_elapsed": 520160, "internal_node_id": "0.0-72.0"}}, {"uniqueid": "MTK0868:3X1FV8S5JYYHK9XDQXCW2GXB34KVG8", "current_trial": 100, "dateTime": 1512854270942, "trialdata": {"rt": -1000, "stimulus": "/static/audio/wordpool/LETTUCE.wav", "key_press": -1, "type": "PRES_AUD", "word": "lettuce", "wordID": 813, "conditions": [24, 800, "a", 12000], "trial": 2, "serialpos": 11, "trial_type": "single-audio", "trial_index": 100, "time_elapsed": 521916, "internal_node_id": "0.0-73.0"}}, {"uniqueid": "MTK0868:3X1FV8S5JYYHK9XDQXCW2GXB34KVG8", "current_trial": 101, "dateTime": 1512854272818, "trialdata": {"rt": -1000, "stimulus": "/static/audio/wordpool/GOBLIN.wav", "key_press": -1, "type": "PRES_AUD", "word": "goblin", "wordID": 644, "conditions": [24, 800, "a", 12000], "trial": 2, "serialpos": 12, "trial_type": "single-audio", "trial_index": 101, "time_elapsed": 523793, "internal_node_id": "0.0-74.0"}}, {"uniqueid": "MTK0868:3X1FV8S5JYYHK9XDQXCW2GXB34KVG8", "current_trial": 102, "dateTime": 1512854274744, "trialdata": {"rt": -1000, "stimulus": "/static/audio/wordpool/BISON.wav", "key_press": -1, "type": "PRES_AUD", "word": "bison", "wordID": 130, "conditions": [24, 800, "a", 12000], "trial": 2, "serialpos": 13, "trial_type": "single-audio", "trial_index": 102, "time_elapsed": 525719, "internal_node_id": "0.0-75.0"}}, {"uniqueid": "MTK0868:3X1FV8S5JYYHK9XDQXCW2GXB34KVG8", "current_trial": 103, "dateTime": 1512854276615, "trialdata": {"rt": -1000, "stimulus": "/static/audio/wordpool/FREEZER.wav", "key_press": -1, "type": "PRES_AUD", "word": "freezer", "wordID": 603, "conditions": [24, 800, "a", 12000], "trial": 2, "serialpos": 14, "trial_type": "single-audio", "trial_index": 103, "time_elapsed": 527590, "internal_node_id": "0.0-76.0"}}, {"uniqueid": "MTK0868:3X1FV8S5JYYHK9XDQXCW2GXB34KVG8", "current_trial": 104, "dateTime": 1512854278256, "trialdata": {"rt": -1000, "stimulus": "/static/audio/wordpool/PUDDING.wav", "key_press": -1, "type": "PRES_AUD", "word": "pudding", "wordID": 1138, "conditions": [24, 800, "a", 12000], "trial": 2, "serialpos": 15, "trial_type": "single-audio", "trial_index": 104, "time_elapsed": 529231, "internal_node_id": "0.0-77.0"}}, {"uniqueid": "MTK0868:3X1FV8S5JYYHK9XDQXCW2GXB34KVG8", "current_trial": 105, "dateTime": 1512854280065, "trialdata": {"rt": -1000, "stimulus": "/static/audio/wordpool/HONEY.wav", "key_press": -1, "type": "PRES_AUD", "word": "honey", "wordID": 712, "conditions": [24, 800, "a", 12000], "trial": 2, "serialpos": 16, "trial_type": "single-audio", "trial_index": 105, "time_elapsed": 531039, "internal_node_id": "0.0-78.0"}}, {"uniqueid": "MTK0868:3X1FV8S5JYYHK9XDQXCW2GXB34KVG8", "current_trial": 106, "dateTime": 1512854282032, "trialdata": {"rt": -1000, "stimulus": "/static/audio/wordpool/CATTLE.wav", "key_press": -1, "type": "PRES_AUD", "word": "cattle", "wordID": 260, "conditions": [24, 800, "a", 12000], "trial": 2, "serialpos": 17, "trial_type": "single-audio", "trial_index": 106, "time_elapsed": 533007, "internal_node_id": "0.0-79.0"}}, {"uniqueid": "MTK0868:3X1FV8S5JYYHK9XDQXCW2GXB34KVG8", "current_trial": 107, "dateTime": 1512854283780, "trialdata": {"rt": -1000, "stimulus": "/static/audio/wordpool/COUCH.wav", "key_press": -1, "type": "PRES_AUD", "word": "couch", "wordID": 385, "conditions": [24, 800, "a", 12000], "trial": 2, "serialpos": 18, "trial_type": "single-audio", "trial_index": 107, "time_elapsed": 534755, "internal_node_id": "0.0-80.0"}}, {"uniqueid": "MTK0868:3X1FV8S5JYYHK9XDQXCW2GXB34KVG8", "current_trial": 108, "dateTime": 1512854285423, "trialdata": {"rt": -1000, "stimulus": "/static/audio/wordpool/SEAFOOD.wav", "key_press": -1, "type": "PRES_AUD", "word": "seafood", "wordID": 1259, "conditions": [24, 800, "a", 12000], "trial": 2, "serialpos": 19, "trial_type": "single-audio", "trial_index": 108, "time_elapsed": 536398, "internal_node_id": "0.0-81.0"}}, {"uniqueid": "MTK0868:3X1FV8S5JYYHK9XDQXCW2GXB34KVG8", "current_trial": 109, "dateTime": 1512854287357, "trialdata": {"rt": -1000, "stimulus": "/static/audio/wordpool/FIREPLACE.wav", "key_press": -1, "type": "PRES_AUD", "word": "fireplace", "wordID": 569, "conditions": [24, 800, "a", 12000], "trial": 2, "serialpos": 20, "trial_type": "single-audio", "trial_index": 109, "time_elapsed": 538332, "internal_node_id": "0.0-82.0"}}, {"uniqueid": "MTK0868:3X1FV8S5JYYHK9XDQXCW2GXB34KVG8", "current_trial": 110, "dateTime": 1512854288973, "trialdata": {"rt": -1000, "stimulus": "/static/audio/wordpool/STOVE.wav", "key_press": -1, "type": "PRES_AUD", "word": "stove", "wordID": 1387, "conditions": [24, 800, "a", 12000], "trial": 2, "serialpos": 21, "trial_type": "single-audio", "trial_index": 110, "time_elapsed": 539948, "internal_node_id": "0.0-83.0"}}, {"uniqueid": "MTK0868:3X1FV8S5JYYHK9XDQXCW2GXB34KVG8", "current_trial": 111, "dateTime": 1512854290797, "trialdata": {"rt": -1000, "stimulus": "/static/audio/wordpool/REPORT.wav", "key_press": -1, "type": "PRES_AUD", "word": "report", "wordID": 1183, "conditions": [24, 800, "a", 12000], "trial": 2, "serialpos": 22, "trial_type": "single-audio", "trial_index": 111, "time_elapsed": 541772, "internal_node_id": "0.0-84.0"}}, {"uniqueid": "MTK0868:3X1FV8S5JYYHK9XDQXCW2GXB34KVG8", "current_trial": 112, "dateTime": 1512854292711, "trialdata": {"rt": -1000, "stimulus": "/static/audio/wordpool/SKILLET.wav", "key_press": -1, "type": "PRES_AUD", "word": "skillet", "wordID": 1316, "conditions": [24, 800, "a", 12000], "trial": 2, "serialpos": 23, "trial_type": "single-audio", "trial_index": 112, "time_elapsed": 543686, "internal_node_id": "0.0-85.0"}}, {"uniqueid": "MTK0868:3X1FV8S5JYYHK9XDQXCW2GXB34KVG8", "current_trial": 113, "dateTime": 1512854293965, "trialdata": {"rt": -1, "stimulus": "", "key_press": -1, "type": "PRE_RECALL_DELAY", "trial_type": "single-stim", "trial_index": 113, "time_elapsed": 544937, "internal_node_id": "0.0-86.0-0.0"}}, {"uniqueid": "MTK0868:3X1FV8S5JYYHK9XDQXCW2GXB34KVG8", "current_trial": 114, "dateTime": 1512854294467, "trialdata": {"rt": -1000, "stimulus": "/static/audio/400Hz.wav", "key_press": -1, "type": "PRE_RECALL_ALERT", "trial_type": "single-audio", "trial_index": 114, "time_elapsed": 545442, "internal_node_id": "0.0-87.0"}}, {"uniqueid": "MTK0868:3X1FV8S5JYYHK9XDQXCW2GXB34KVG8", "current_trial": 115, "dateTime": 1512854354478, "trialdata": {"rt": [2489, 5145, 7577, 9953, 11281, 20545, 21914, 23185, 25105, 27129, 48305], "recwords": ["salad", "sandwich", "toaster", "skillet", "woman", "snake", "cobra", "bison", "couch", "cattle", "lettuce"], "type": "FREE_RECALL", "conditions": [24, 800, "a", 12000], "trial": 2, "trial_type": "free-recall", "trial_index": 115, "time_elapsed": 605448, "internal_node_id": "0.0-88.0-0.0"}}, {"uniqueid": "MTK0868:3X1FV8S5JYYHK9XDQXCW2GXB34KVG8", "current_trial": 116, "dateTime": 1512854357704, "trialdata": {"rt": 1224, "key_press": 13, "type": "INSTRUCTIONS", "trial_type": "text", "trial_index": 116, "time_elapsed": 608679, "internal_node_id": "0.0-89.0"}}, {"uniqueid": "MTK0868:3X1FV8S5JYYHK9XDQXCW2GXB34KVG8", "current_trial": 117, "dateTime": 1512854383710, "trialdata": {"rt": [1843, 4898, 12858, 15690, 18058, 22850], "responses": ["15", "18", "21", "15", "18", "14"], "num1": [7, 7, 6, 2, 3, 2, 3], "num2": [3, 4, 7, 7, 7, 6, 9], "num3": [5, 7, 8, 6, 8, 6, 5], "type": "DISTRACTOR", "conditions": [12, 1600, "v", 24000], "trial": 3, "trial_type": "math-distractor", "trial_index": 117, "time_elapsed": 634685, "internal_node_id": "0.0-90.0"}}, {"uniqueid": "MTK0868:3X1FV8S5JYYHK9XDQXCW2GXB34KVG8", "current_trial": 118, "dateTime": 1512854386713, "trialdata": {"rt": -1, "stimulus": "<p id=\"stim\">10</p>", "key_press": -1, "trial_type": "single-stim", "trial_index": 118, "time_elapsed": 637688, "internal_node_id": "0.0-91.0-0.0"}}, {"uniqueid": "MTK0868:3X1FV8S5JYYHK9XDQXCW2GXB34KVG8", "current_trial": 119, "dateTime": 1512854387715, "trialdata": {"rt": -1, "stimulus": "<p id=\"stim\">9</p>", "key_press": -1, "trial_type": "single-stim", "trial_index": 119, "time_elapsed": 638690, "internal_node_id": "0.0-91.0-1.0"}}, {"uniqueid": "MTK0868:3X1FV8S5JYYHK9XDQXCW2GXB34KVG8", "current_trial": 120, "dateTime": 1512854388717, "trialdata": {"rt": -1, "stimulus": "<p id=\"stim\">8</p>", "key_press": -1, "trial_type": "single-stim", "trial_index": 120, "time_elapsed": 639692, "internal_node_id": "0.0-91.0-2.0"}}, {"uniqueid": "MTK0868:3X1FV8S5JYYHK9XDQXCW2GXB34KVG8", "current_trial": 121, "dateTime": 1512854389720, "trialdata": {"rt": -1, "stimulus": "<p id=\"stim\">7</p>", "key_press": -1, "trial_type": "single-stim", "trial_index": 121, "time_elapsed": 640695, "internal_node_id": "0.0-91.0-3.0"}}, {"uniqueid": "MTK0868:3X1FV8S5JYYHK9XDQXCW2GXB34KVG8", "current_trial": 122, "dateTime": 1512854390721, "trialdata": {"rt": -1, "stimulus": "<p id=\"stim\">6</p>", "key_press": -1, "trial_type": "single-stim", "trial_index": 122, "time_elapsed": 641696, "internal_node_id": "0.0-91.0-4.0"}}, {"uniqueid": "MTK0868:3X1FV8S5JYYHK9XDQXCW2GXB34KVG8", "current_trial": 123, "dateTime": 1512854391723, "trialdata": {"rt": -1, "stimulus": "<p id=\"stim\">5</p>", "key_press": -1, "trial_type": "single-stim", "trial_index": 123, "time_elapsed": 642698, "internal_node_id": "0.0-91.0-5.0"}}, {"uniqueid": "MTK0868:3X1FV8S5JYYHK9XDQXCW2GXB34KVG8", "current_trial": 124, "dateTime": 1512854392725, "trialdata": {"rt": -1, "stimulus": "<p id=\"stim\">4</p>", "key_press": -1, "trial_type": "single-stim", "trial_index": 124, "time_elapsed": 643700, "internal_node_id": "0.0-91.0-6.0"}}, {"uniqueid": "MTK0868:3X1FV8S5JYYHK9XDQXCW2GXB34KVG8", "current_trial": 125, "dateTime": 1512854393727, "trialdata": {"rt": -1, "stimulus": "<p id=\"stim\">3</p>", "key_press": -1, "trial_type": "single-stim", "trial_index": 125, "time_elapsed": 644701, "internal_node_id": "0.0-91.0-7.0"}}, {"uniqueid": "MTK0868:3X1FV8S5JYYHK9XDQXCW2GXB34KVG8", "current_trial": 126, "dateTime": 1512854394729, "trialdata": {"rt": -1, "stimulus": "<p id=\"stim\">2</p>", "key_press": -1, "trial_type": "single-stim", "trial_index": 126, "time_elapsed": 645704, "internal_node_id": "0.0-91.0-8.0"}}, {"uniqueid": "MTK0868:3X1FV8S5JYYHK9XDQXCW2GXB34KVG8", "current_trial": 127, "dateTime": 1512854395731, "trialdata": {"rt": -1, "stimulus": "<p id=\"stim\">1</p>", "key_press": -1, "trial_type": "single-stim", "trial_index": 127, "time_elapsed": 646706, "internal_node_id": "0.0-91.0-9.0"}}, {"uniqueid": "MTK0868:3X1FV8S5JYYHK9XDQXCW2GXB34KVG8", "current_trial": 128, "dateTime": 1512854397234, "trialdata": {"rt": -1, "stimulus": "<p id=\"stim\">+</p>", "key_press": -1, "type": "FIXATION", "trial_type": "single-stim", "trial_index": 128, "time_elapsed": 648208, "internal_node_id": "0.0-92.0-0.0"}}, {"uniqueid": "MTK0868:3X1FV8S5JYYHK9XDQXCW2GXB34KVG8", "current_trial": 129, "dateTime": 1512854398836, "trialdata": {"rt": -1, "stimulus": "<p id=\"stim\">DRESS</p>", "key_press": -1, "type": "PRES_VIS", "word": "dress", "wordID": 494, "conditions": [12, 1600, "v", 24000], "trial": 3, "serialpos": 0, "trial_type": "single-stim", "trial_index": 129, "time_elapsed": 649811, "internal_node_id": "0.0-93.0"}}, {"uniqueid": "MTK0868:3X1FV8S5JYYHK9XDQXCW2GXB34KVG8", "current_trial": 130, "dateTime": 1512854401368, "trialdata": {"rt": -1, "stimulus": "<p id=\"stim\">CHEMIST</p>", "key_press": -1, "type": "PRES_VIS", "word": "chemist", "wordID": 291, "conditions": [12, 1600, "v", 24000], "trial": 3, "serialpos": 1, "trial_type": "single-stim", "trial_index": 130, "time_elapsed": 652343, "internal_node_id": "0.0-94.0"}}, {"uniqueid": "MTK0868:3X1FV8S5JYYHK9XDQXCW2GXB34KVG8", "current_trial": 131, "dateTime": 1512854404059, "trialdata": {"rt": -1, "stimulus": "<p id=\"stim\">CABBAGE</p>", "key_press": -1, "type": "PRES_VIS", "word": "cabbage", "wordID": 209, "conditions": [12, 1600, "v", 24000], "trial": 3, "serialpos": 2, "trial_type": "single-stim", "trial_index": 131, "time_elapsed": 655034, "internal_node_id": "0.0-95.0"}}, {"uniqueid": "MTK0868:3X1FV8S5JYYHK9XDQXCW2GXB34KVG8", "current_trial": 132, "dateTime": 1512854406669, "trialdata": {"rt": -1, "stimulus": "<p id=\"stim\">PARSLEY</p>", "key_press": -1, "type": "PRES_VIS", "word": "parsley", "wordID": 1015, "conditions": [12, 1600, "v", 24000], "trial": 3, "serialpos": 3, "trial_type": "single-stim", "trial_index": 132, "time_elapsed": 657644, "internal_node_id": "0.0-96.0"}}, {"uniqueid": "MTK0868:3X1FV8S5JYYHK9XDQXCW2GXB34KVG8", "current_trial": 133, "dateTime": 1512854409133, "trialdata": {"rt": -1, "stimulus": "<p id=\"stim\">LIPSTICK</p>", "key_press": -1, "type": "PRES_VIS", "word": "lipstick", "wordID": 828, "conditions": [12, 1600, "v", 24000], "trial": 3, "serialpos": 4, "trial_type": "single-stim", "trial_index": 133, "time_elapsed": 660108, "internal_node_id": "0.0-97.0"}}, {"uniqueid": "MTK0868:3X1FV8S5JYYHK9XDQXCW2GXB34KVG8", "current_trial": 134, "dateTime": 1512854411795, "trialdata": {"rt": -1, "stimulus": "<p id=\"stim\">SCALPEL</p>", "key_press": -1, "type": "PRES_VIS", "word": "scalpel", "wordID": 1242, "conditions": [12, 1600, "v", 24000], "trial": 3, "serialpos": 5, "trial_type": "single-stim", "trial_index": 134, "time_elapsed": 662770, "internal_node_id": "0.0-98.0"}}, {"uniqueid": "MTK0868:3X1FV8S5JYYHK9XDQXCW2GXB34KVG8", "current_trial": 135, "dateTime": 1512854414329, "trialdata": {"rt": -1, "stimulus": "<p id=\"stim\">EAGLE</p>", "key_press": -1, "type": "PRES_VIS", "word": "eagle", "wordID": 511, "conditions": [12, 1600, "v", 24000], "trial": 3, "serialpos": 6, "trial_type": "single-stim", "trial_index": 135, "time_elapsed": 665304, "internal_node_id": "0.0-99.0"}}, {"uniqueid": "MTK0868:3X1FV8S5JYYHK9XDQXCW2GXB34KVG8", "current_trial": 136, "dateTime": 1512854416913, "trialdata": {"rt": -1, "stimulus": "<p id=\"stim\">HUSBAND</p>", "key_press": -1, "type": "PRES_VIS", "word": "husband", "wordID": 727, "conditions": [12, 1600, "v", 24000], "trial": 3, "serialpos": 7, "trial_type": "single-stim", "trial_index": 136, "time_elapsed": 667888, "internal_node_id": "0.0-100.0"}}, {"uniqueid": "MTK0868:3X1FV8S5JYYHK9XDQXCW2GXB34KVG8", "current_trial": 137, "dateTime": 1512854419392, "trialdata": {"rt": -1, "stimulus": "<p id=\"stim\">STALLION</p>", "key_press": -1, "type": "PRES_VIS", "word": "stallion", "wordID": 1368, "conditions": [12, 1600, "v", 24000], "trial": 3, "serialpos": 8, "trial_type": "single-stim", "trial_index": 137, "time_elapsed": 670366, "internal_node_id": "0.0-101.0"}}, {"uniqueid": "MTK0868:3X1FV8S5JYYHK9XDQXCW2GXB34KVG8", "current_trial": 138, "dateTime": 1512854421961, "trialdata": {"rt": -1, "stimulus": "<p id=\"stim\">MARROW</p>", "key_press": -1, "type": "PRES_VIS", "word": "marrow", "wordID": 871, "conditions": [12, 1600, "v", 24000], "trial": 3, "serialpos": 9, "trial_type": "single-stim", "trial_index": 138, "time_elapsed": 672936, "internal_node_id": "0.0-102.0"}}, {"uniqueid": "MTK0868:3X1FV8S5JYYHK9XDQXCW2GXB34KVG8", "current_trial": 139, "dateTime": 1512854424630, "trialdata": {"rt": -1, "stimulus": "<p id=\"stim\">SISTER</p>", "key_press": -1, "type": "PRES_VIS", "word": "sister", "wordID": 1311, "conditions": [12, 1600, "v", 24000], "trial": 3, "serialpos": 10, "trial_type": "single-stim", "trial_index": 139, "time_elapsed": 675605, "internal_node_id": "0.0-103.0"}}, {"uniqueid": "MTK0868:3X1FV8S5JYYHK9XDQXCW2GXB34KVG8", "current_trial": 140, "dateTime": 1512854427248, "trialdata": {"rt": -1, "stimulus": "<p id=\"stim\">BANQUET</p>", "key_press": -1, "type": "PRES_VIS", "word": "banquet", "wordID": 85, "conditions": [12, 1600, "v", 24000], "trial": 3, "serialpos": 11, "trial_type": "single-stim", "trial_index": 140, "time_elapsed": 678222, "internal_node_id": "0.0-104.0"}}, {"uniqueid": "MTK0868:3X1FV8S5JYYHK9XDQXCW2GXB34KVG8", "current_trial": 141, "dateTime": 1512854429616, "trialdata": {"rt": -1, "stimulus": "", "key_press": -1, "type": "PRE_RECALL_DELAY", "trial_type": "single-stim", "trial_index": 141, "time_elapsed": 680591, "internal_node_id": "0.0-105.0-0.0"}}, {"uniqueid": "MTK0868:3X1FV8S5JYYHK9XDQXCW2GXB34KVG8", "current_trial": 142, "dateTime": 1512854430119, "trialdata": {"rt": -1000, "stimulus": "/static/audio/400Hz.wav", "key_press": -1, "type": "PRE_RECALL_ALERT", "trial_type": "single-audio", "trial_index": 142, "time_elapsed": 681093, "internal_node_id": "0.0-106.0"}}, {"uniqueid": "MTK0868:3X1FV8S5JYYHK9XDQXCW2GXB34KVG8", "current_trial": 143, "dateTime": 1512854490128, "trialdata": {"rt": [2429, 4621, 7141, 8821, 9933, 11821, 26973], "recwords": ["chemist", "scalpel", "husband", "sister", "dress", "lipstick", "marrow"], "type": "FREE_RECALL", "conditions": [12, 1600, "v", 24000], "trial": 3, "trial_type": "free-recall", "trial_index": 143, "time_elapsed": 741097, "internal_node_id": "0.0-107.0-0.0"}}, {"uniqueid": "MTK0868:3X1FV8S5JYYHK9XDQXCW2GXB34KVG8", "current_trial": 144, "dateTime": 1512854493478, "trialdata": {"rt": 1348, "key_press": 13, "type": "INSTRUCTIONS", "trial_type": "text", "trial_index": 144, "time_elapsed": 744453, "internal_node_id": "0.0-108.0"}}, {"uniqueid": "MTK0868:3X1FV8S5JYYHK9XDQXCW2GXB34KVG8", "current_trial": 145, "dateTime": 1512854519486, "trialdata": {"rt": [2794, 6539, 8530, 11579, 13266, 15394, 22450], "responses": ["12", "21", "11", "17", "14", "7", "24"], "num1": [6, 3, 3, 4, 4, 1, 9, 2], "num2": [4, 9, 5, 7, 6, 4, 8, 8], "num3": [2, 9, 3, 6, 4, 2, 7, 8], "type": "DISTRACTOR", "conditions": [24, 800, "v", 24000], "trial": 4, "trial_type": "math-distractor", "trial_index": 145, "time_elapsed": 770461, "internal_node_id": "0.0-109.0"}}, {"uniqueid": "MTK0868:3X1FV8S5JYYHK9XDQXCW2GXB34KVG8", "current_trial": 146, "dateTime": 1512854522490, "trialdata": {"rt": -1, "stimulus": "<p id=\"stim\">10</p>", "key_press": -1, "trial_type": "single-stim", "trial_index": 146, "time_elapsed": 773465, "internal_node_id": "0.0-110.0-0.0"}}, {"uniqueid": "MTK0868:3X1FV8S5JYYHK9XDQXCW2GXB34KVG8", "current_trial": 147, "dateTime": 1512854523492, "trialdata": {"rt": -1, "stimulus": "<p id=\"stim\">9</p>", "key_press": -1, "trial_type": "single-stim", "trial_index": 147, "time_elapsed": 774466, "internal_node_id": "0.0-110.0-1.0"}}, {"uniqueid": "MTK0868:3X1FV8S5JYYHK9XDQXCW2GXB34KVG8", "current_trial": 148, "dateTime": 1512854524495, "trialdata": {"rt": -1, "stimulus": "<p id=\"stim\">8</p>", "key_press": -1, "trial_type": "single-stim", "trial_index": 148, "time_elapsed": 775469, "internal_node_id": "0.0-110.0-2.0"}}, {"uniqueid": "MTK0868:3X1FV8S5JYYHK9XDQXCW2GXB34KVG8", "current_trial": 149, "dateTime": 1512854525497, "trialdata": {"rt": -1, "stimulus": "<p id=\"stim\">7</p>", "key_press": -1, "trial_type": "single-stim", "trial_index": 149, "time_elapsed": 776472, "internal_node_id": "0.0-110.0-3.0"}}, {"uniqueid": "MTK0868:3X1FV8S5JYYHK9XDQXCW2GXB34KVG8", "current_trial": 150, "dateTime": 1512854526499, "trialdata": {"rt": -1, "stimulus": "<p id=\"stim\">6</p>", "key_press": -1, "trial_type": "single-stim", "trial_index": 150, "time_elapsed": 777474, "internal_node_id": "0.0-110.0-4.0"}}, {"uniqueid": "MTK0868:3X1FV8S5JYYHK9XDQXCW2GXB34KVG8", "current_trial": 151, "dateTime": 1512854527502, "trialdata": {"rt": -1, "stimulus": "<p id=\"stim\">5</p>", "key_press": -1, "trial_type": "single-stim", "trial_index": 151, "time_elapsed": 778477, "internal_node_id": "0.0-110.0-5.0"}}, {"uniqueid": "MTK0868:3X1FV8S5JYYHK9XDQXCW2GXB34KVG8", "current_trial": 152, "dateTime": 1512854528505, "trialdata": {"rt": -1, "stimulus": "<p id=\"stim\">4</p>", "key_press": -1, "trial_type": "single-stim", "trial_index": 152, "time_elapsed": 779480, "internal_node_id": "0.0-110.0-6.0"}}, {"uniqueid": "MTK0868:3X1FV8S5JYYHK9XDQXCW2GXB34KVG8", "current_trial": 153, "dateTime": 1512854529508, "trialdata": {"rt": -1, "stimulus": "<p id=\"stim\">3</p>", "key_press": -1, "trial_type": "single-stim", "trial_index": 153, "time_elapsed": 780482, "internal_node_id": "0.0-110.0-7.0"}}, {"uniqueid": "MTK0868:3X1FV8S5JYYHK9XDQXCW2GXB34KVG8", "current_trial": 154, "dateTime": 1512854530509, "trialdata": {"rt": -1, "stimulus": "<p id=\"stim\">2</p>", "key_press": -1, "trial_type": "single-stim", "trial_index": 154, "time_elapsed": 781484, "internal_node_id": "0.0-110.0-8.0"}}, {"uniqueid": "MTK0868:3X1FV8S5JYYHK9XDQXCW2GXB34KVG8", "current_trial": 155, "dateTime": 1512854531512, "trialdata": {"rt": -1, "stimulus": "<p id=\"stim\">1</p>", "key_press": -1, "trial_type": "single-stim", "trial_index": 155, "time_elapsed": 782487, "internal_node_id": "0.0-110.0-9.0"}}, {"uniqueid": "MTK0868:3X1FV8S5JYYHK9XDQXCW2GXB34KVG8", "current_trial": 156, "dateTime": 1512854533014, "trialdata": {"rt": -1, "stimulus": "<p id=\"stim\">+</p>", "key_press": -1, "type": "FIXATION", "trial_type": "single-stim", "trial_index": 156, "time_elapsed": 783989, "internal_node_id": "0.0-111.0-0.0"}}, {"uniqueid": "MTK0868:3X1FV8S5JYYHK9XDQXCW2GXB34KVG8", "current_trial": 157, "dateTime": 1512854533815, "trialdata": {"rt": -1, "stimulus": "<p id=\"stim\">LION</p>", "key_press": -1, "type": "PRES_VIS", "word": "lion", "wordID": 826, "conditions": [24, 800, "v", 24000], "trial": 4, "serialpos": 0, "trial_type": "single-stim", "trial_index": 157, "time_elapsed": 784790, "internal_node_id": "0.0-112.0"}}, {"uniqueid": "MTK0868:3X1FV8S5JYYHK9XDQXCW2GXB34KVG8", "current_trial": 158, "dateTime": 1512854535737, "trialdata": {"rt": -1, "stimulus": "<p id=\"stim\">DRAWING</p>", "key_press": -1, "type": "PRES_VIS", "word": "drawing", "wordID": 493, "conditions": [24, 800, "v", 24000], "trial": 4, "serialpos": 1, "trial_type": "single-stim", "trial_index": 158, "time_elapsed": 786712, "internal_node_id": "0.0-113.0"}}, {"uniqueid": "MTK0868:3X1FV8S5JYYHK9XDQXCW2GXB34KVG8", "current_trial": 159, "dateTime": 1512854537391, "trialdata": {"rt": -1, "stimulus": "<p id=\"stim\">JAPAN</p>", "key_press": -1, "type": "PRES_VIS", "word": "japan", "wordID": 748, "conditions": [24, 800, "v", 24000], "trial": 4, "serialpos": 2, "trial_type": "single-stim", "trial_index": 159, "time_elapsed": 788366, "internal_node_id": "0.0-114.0"}}, {"uniqueid": "MTK0868:3X1FV8S5JYYHK9XDQXCW2GXB34KVG8", "current_trial": 160, "dateTime": 1512854539287, "trialdata": {"rt": -1, "stimulus": "<p id=\"stim\">INFANT</p>", "key_press": -1, "type": "PRES_VIS", "word": "infant", "wordID": 736, "conditions": [24, 800, "v", 24000], "trial": 4, "serialpos": 3, "trial_type": "single-stim", "trial_index": 160, "time_elapsed": 790262, "internal_node_id": "0.0-115.0"}}, {"uniqueid": "MTK0868:3X1FV8S5JYYHK9XDQXCW2GXB34KVG8", "current_trial": 161, "dateTime": 1512854540902, "trialdata": {"rt": -1, "stimulus": "<p id=\"stim\">NIGHTGOWN</p>", "key_press": -1, "type": "PRES_VIS", "word": "nightgown", "wordID": 952, "conditions": [24, 800, "v", 24000], "trial": 4, "serialpos": 4, "trial_type": "single-stim", "trial_index": 161, "time_elapsed": 791876, "internal_node_id": "0.0-116.0"}}, {"uniqueid": "MTK0868:3X1FV8S5JYYHK9XDQXCW2GXB34KVG8", "current_trial": 162, "dateTime": 1512854542680, "trialdata": {"rt": -1, "stimulus": "<p id=\"stim\">CLOTHES</p>", "key_press": -1, "type": "PRES_VIS", "word": "clothes", "wordID": 326, "conditions": [24, 800, "v", 24000], "trial": 4, "serialpos": 5, "trial_type": "single-stim", "trial_index": 162, "time_elapsed": 793655, "internal_node_id": "0.0-117.0"}}, {"uniqueid": "MTK0868:3X1FV8S5JYYHK9XDQXCW2GXB34KVG8", "current_trial": 163, "dateTime": 1512854544448, "trialdata": {"rt": -1, "stimulus": "<p id=\"stim\">LOVER</p>", "key_press": -1, "type": "PRES_VIS", "word": "lover", "wordID": 845, "conditions": [24, 800, "v", 24000], "trial": 4, "serialpos": 6, "trial_type": "single-stim", "trial_index": 163, "time_elapsed": 795423, "internal_node_id": "0.0-118.0"}}, {"uniqueid": "MTK0868:3X1FV8S5JYYHK9XDQXCW2GXB34KVG8", "current_trial": 164, "dateTime": 1512854546305, "trialdata": {"rt": -1, "stimulus": "<p id=\"stim\">MASK</p>", "key_press": -1, "type": "PRES_VIS", "word": "mask", "wordID": 875, "conditions": [24, 800, "v", 24000], "trial": 4, "serialpos": 7, "trial_type": "single-stim", "trial_index": 164, "time_elapsed": 797280, "internal_node_id": "0.0-119.0"}}, {"uniqueid": "MTK0868:3X1FV8S5JYYHK9XDQXCW2GXB34KVG8", "current_trial": 165, "dateTime": 1512854547912, "trialdata": {"rt": -1, "stimulus": "<p id=\"stim\">DIVER</p>", "key_press": -1, "type": "PRES_VIS", "word": "diver", "wordID": 475, "conditions": [24, 800, "v", 24000], "trial": 4, "serialpos": 8, "trial_type": "single-stim", "trial_index": 165, "time_elapsed": 798887, "internal_node_id": "0.0-120.0"}}, {"uniqueid": "MTK0868:3X1FV8S5JYYHK9XDQXCW2GXB34KVG8", "current_trial": 166, "dateTime": 1512854549725, "trialdata": {"rt": -1, "stimulus": "<p id=\"stim\">SWIMMER</p>", "key_press": -1, "type": "PRES_VIS", "word": "swimmer", "wordID": 1419, "conditions": [24, 800, "v", 24000], "trial": 4, "serialpos": 9, "trial_type": "single-stim", "trial_index": 166, "time_elapsed": 800700, "internal_node_id": "0.0-121.0"}}, {"uniqueid": "MTK0868:3X1FV8S5JYYHK9XDQXCW2GXB34KVG8", "current_trial": 167, "dateTime": 1512854551445, "trialdata": {"rt": -1, "stimulus": "<p id=\"stim\">HOSTESS</p>", "key_press": -1, "type": "PRES_VIS", "word": "hostess", "wordID": 722, "conditions": [24, 800, "v", 24000], "trial": 4, "serialpos": 10, "trial_type": "single-stim", "trial_index": 167, "time_elapsed": 802420, "internal_node_id": "0.0-122.0"}}, {"uniqueid": "MTK0868:3X1FV8S5JYYHK9XDQXCW2GXB34KVG8", "current_trial": 168, "dateTime": 1512854553143, "trialdata": {"rt": -1, "stimulus": "<p id=\"stim\">BOYFRIEND</p>", "key_press": -1, "type": "PRES_VIS", "word": "boyfriend", "wordID": 161, "conditions": [24, 800, "v", 24000], "trial": 4, "serialpos": 11, "trial_type": "single-stim", "trial_index": 168, "time_elapsed": 804118, "internal_node_id": "0.0-123.0"}}, {"uniqueid": "MTK0868:3X1FV8S5JYYHK9XDQXCW2GXB34KVG8", "current_trial": 169, "dateTime": 1512854554809, "trialdata": {"rt": -1, "stimulus": "<p id=\"stim\">SURVEY</p>", "key_press": -1, "type": "PRES_VIS", "word": "survey", "wordID": 1413, "conditions": [24, 800, "v", 24000], "trial": 4, "serialpos": 12, "trial_type": "single-stim", "trial_index": 169, "time_elapsed": 805784, "internal_node_id": "0.0-124.0"}}, {"uniqueid": "MTK0868:3X1FV8S5JYYHK9XDQXCW2GXB34KVG8", "current_trial": 170, "dateTime": 1512854556730, "trialdata": {"rt": -1, "stimulus": "<p id=\"stim\">PACKAGE</p>", "key_press": -1, "type": "PRES_VIS", "word": "package", "wordID": 996, "conditions": [24, 800, "v", 24000], "trial": 4, "serialpos": 13, "trial_type": "single-stim", "trial_index": 170, "time_elapsed": 807705, "internal_node_id": "0.0-125.0"}}, {"uniqueid": "MTK0868:3X1FV8S5JYYHK9XDQXCW2GXB34KVG8", "current_trial": 171, "dateTime": 1512854558509, "trialdata": {"rt": -1, "stimulus": "<p id=\"stim\">FARMER</p>", "key_press": -1, "type": "PRES_VIS", "word": "farmer", "wordID": 552, "conditions": [24, 800, "v", 24000], "trial": 4, "serialpos": 14, "trial_type": "single-stim", "trial_index": 171, "time_elapsed": 809484, "internal_node_id": "0.0-126.0"}}, {"uniqueid": "MTK0868:3X1FV8S5JYYHK9XDQXCW2GXB34KVG8", "current_trial": 172, "dateTime": 1512854560196, "trialdata": {"rt": -1, "stimulus": "<p id=\"stim\">FOOTBALL</p>", "key_press": -1, "type": "PRES_VIS", "word": "football", "wordID": 590, "conditions": [24, 800, "v", 24000], "trial": 4, "serialpos": 15, "trial_type": "single-stim", "trial_index": 172, "time_elapsed": 811171, "internal_node_id": "0.0-127.0"}}, {"uniqueid": "MTK0868:3X1FV8S5JYYHK9XDQXCW2GXB34KVG8", "current_trial": 173, "dateTime": 1512854561860, "trialdata": {"rt": -1, "stimulus": "<p id=\"stim\">CANAL</p>", "key_press": -1, "type": "PRES_VIS", "word": "canal", "wordID": 225, "conditions": [24, 800, "v", 24000], "trial": 4, "serialpos": 16, "trial_type": "single-stim", "trial_index": 173, "time_elapsed": 812835, "internal_node_id": "0.0-128.0"}}, {"uniqueid": "MTK0868:3X1FV8S5JYYHK9XDQXCW2GXB34KVG8", "current_trial": 174, "dateTime": 1512854563475, "trialdata": {"rt": -1, "stimulus": "<p id=\"stim\">SUBWAY</p>", "key_press": -1, "type": "PRES_VIS", "word": "subway", "wordID": 1399, "conditions": [24, 800, "v", 24000], "trial": 4, "serialpos": 17, "trial_type": "single-stim", "trial_index": 174, "time_elapsed": 814450, "internal_node_id": "0.0-129.0"}}, {"uniqueid": "MTK0868:3X1FV8S5JYYHK9XDQXCW2GXB34KVG8", "current_trial": 175, "dateTime": 1512854565414, "trialdata": {"rt": -1, "stimulus": "<p id=\"stim\">MAILMAN</p>", "key_press": -1, "type": "PRES_VIS", "word": "mailman", "wordID": 857, "conditions": [24, 800, "v", 24000], "trial": 4, "serialpos": 18, "trial_type": "single-stim", "trial_index": 175, "time_elapsed": 816388, "internal_node_id": "0.0-130.0"}}, {"uniqueid": "MTK0868:3X1FV8S5JYYHK9XDQXCW2GXB34KVG8", "current_trial": 176, "dateTime": 1512854567209, "trialdata": {"rt": -1, "stimulus": "<p id=\"stim\">PASTA</p>", "key_press": -1, "type": "PRES_VIS", "word": "pasta", "wordID": 1020, "conditions": [24, 800, "v", 24000], "trial": 4, "serialpos": 19, "trial_type": "single-stim", "trial_index": 176, "time_elapsed": 818184, "internal_node_id": "0.0-131.0"}}, {"uniqueid": "MTK0868:3X1FV8S5JYYHK9XDQXCW2GXB34KVG8", "current_trial": 177, "dateTime": 1512854569114, "trialdata": {"rt": -1, "stimulus": "<p id=\"stim\">PASTRY</p>", "key_press": -1, "type": "PRES_VIS", "word": "pastry", "wordID": 1021, "conditions": [24, 800, "v", 24000], "trial": 4, "serialpos": 20, "trial_type": "single-stim", "trial_index": 177, "time_elapsed": 820088, "internal_node_id": "0.0-132.0"}}, {"uniqueid": "MTK0868:3X1FV8S5JYYHK9XDQXCW2GXB34KVG8", "current_trial": 178, "dateTime": 1512854570969, "trialdata": {"rt": -1, "stimulus": "<p id=\"stim\">SHELF</p>", "key_press": -1, "type": "PRES_VIS", "word": "shelf", "wordID": 1279, "conditions": [24, 800, "v", 24000], "trial": 4, "serialpos": 21, "trial_type": "single-stim", "trial_index": 178, "time_elapsed": 821943, "internal_node_id": "0.0-133.0"}}, {"uniqueid": "MTK0868:3X1FV8S5JYYHK9XDQXCW2GXB34KVG8", "current_trial": 179, "dateTime": 1512854572828, "trialdata": {"rt": -1, "stimulus": "<p id=\"stim\">RIVER</p>", "key_press": -1, "type": "PRES_VIS", "word": "river", "wordID": 1193, "conditions": [24, 800, "v", 24000], "trial": 4, "serialpos": 22, "trial_type": "single-stim", "trial_index": 179, "time_elapsed": 823803, "internal_node_id": "0.0-134.0"}}, {"uniqueid": "MTK0868:3X1FV8S5JYYHK9XDQXCW2GXB34KVG8", "current_trial": 180, "dateTime": 1512854574455, "trialdata": {"rt": -1, "stimulus": "<p id=\"stim\">JOURNAL</p>", "key_press": -1, "type": "PRES_VIS", "word": "journal", "wordID": 759, "conditions": [24, 800, "v", 24000], "trial": 4, "serialpos": 23, "trial_type": "single-stim", "trial_index": 180, "time_elapsed": 825430, "internal_node_id": "0.0-135.0"}}, {"uniqueid": "MTK0868:3X1FV8S5JYYHK9XDQXCW2GXB34KVG8", "current_trial": 181, "dateTime": 1512854576813, "trialdata": {"rt": -1, "stimulus": "", "key_press": -1, "type": "PRE_RECALL_DELAY", "trial_type": "single-stim", "trial_index": 181, "time_elapsed": 827787, "internal_node_id": "0.0-136.0-0.0"}}, {"uniqueid": "MTK0868:3X1FV8S5JYYHK9XDQXCW2GXB34KVG8", "current_trial": 182, "dateTime": 1512854577315, "trialdata": {"rt": -1000, "stimulus": "/static/audio/400Hz.wav", "key_press": -1, "type": "PRE_RECALL_ALERT", "trial_type": "single-audio", "trial_index": 182, "time_elapsed": 828290, "internal_node_id": "0.0-137.0"}}, {"uniqueid": "MTK0868:3X1FV8S5JYYHK9XDQXCW2GXB34KVG8", "current_trial": 183, "dateTime": 1512854637328, "trialdata": {"rt": [1470, 3391, 5462, 6830, 9382, 11558, 15086, 16614, 19510, 23670, 24934, 28550, 30949, 32669, 42798, 48870], "recwords": ["lion", "drawing", "japan", "diver", "swimmer", "boyfriend", "survey", "farmer", "package", "shelf", "river", "journal", "pasta", "subway", "infant", "nightdress"], "type": "FREE_RECALL", "conditions": [24, 800, "v", 24000], "trial": 4, "trial_type": "free-recall", "trial_index": 183, "time_elapsed": 888296, "internal_node_id": "0.0-138.0-0.0"}}, {"uniqueid": "MTK0868:3X1FV8S5JYYHK9XDQXCW2GXB34KVG8", "current_trial": 184, "dateTime": 1512854640588, "trialdata": {"rt": 1260, "key_press": 13, "type": "INSTRUCTIONS", "trial_type": "text", "trial_index": 184, "time_elapsed": 891563, "internal_node_id": "0.0-139.0"}}, {"uniqueid": "MTK0868:3X1FV8S5JYYHK9XDQXCW2GXB34KVG8", "current_trial": 185, "dateTime": 1512854654594, "trialdata": {"rt": [4396, 6540, 8636, 10892], "responses": ["21", "10", "8", "8"], "num1": [5, 3, 1, 5, 1], "num2": [7, 1, 1, 1, 3], "num3": [9, 6, 6, 2, 7], "type": "DISTRACTOR", "conditions": [24, 1600, "a", 12000], "trial": 5, "trial_type": "math-distractor", "trial_index": 185, "time_elapsed": 905569, "internal_node_id": "0.0-140.0"}}, {"uniqueid": "MTK0868:3X1FV8S5JYYHK9XDQXCW2GXB34KVG8", "current_trial": 186, "dateTime": 1512854657597, "trialdata": {"rt": -1, "stimulus": "<p id=\"stim\">10</p>", "key_press": -1, "trial_type": "single-stim", "trial_index": 186, "time_elapsed": 908572, "internal_node_id": "0.0-141.0-0.0"}}, {"uniqueid": "MTK0868:3X1FV8S5JYYHK9XDQXCW2GXB34KVG8", "current_trial": 187, "dateTime": 1512854658599, "trialdata": {"rt": -1, "stimulus": "<p id=\"stim\">9</p>", "key_press": -1, "trial_type": "single-stim", "trial_index": 187, "time_elapsed": 909574, "internal_node_id": "0.0-141.0-1.0"}}, {"uniqueid": "MTK0868:3X1FV8S5JYYHK9XDQXCW2GXB34KVG8", "current_trial": 188, "dateTime": 1512854659603, "trialdata": {"rt": -1, "stimulus": "<p id=\"stim\">8</p>", "key_press": -1, "trial_type": "single-stim", "trial_index": 188, "time_elapsed": 910577, "internal_node_id": "0.0-141.0-2.0"}}, {"uniqueid": "MTK0868:3X1FV8S5JYYHK9XDQXCW2GXB34KVG8", "current_trial": 189, "dateTime": 1512854660605, "trialdata": {"rt": -1, "stimulus": "<p id=\"stim\">7</p>", "key_press": -1, "trial_type": "single-stim", "trial_index": 189, "time_elapsed": 911580, "internal_node_id": "0.0-141.0-3.0"}}, {"uniqueid": "MTK0868:3X1FV8S5JYYHK9XDQXCW2GXB34KVG8", "current_trial": 190, "dateTime": 1512854661609, "trialdata": {"rt": -1, "stimulus": "<p id=\"stim\">6</p>", "key_press": -1, "trial_type": "single-stim", "trial_index": 190, "time_elapsed": 912583, "internal_node_id": "0.0-141.0-4.0"}}, {"uniqueid": "MTK0868:3X1FV8S5JYYHK9XDQXCW2GXB34KVG8", "current_trial": 191, "dateTime": 1512854662611, "trialdata": {"rt": -1, "stimulus": "<p id=\"stim\">5</p>", "key_press": -1, "trial_type": "single-stim", "trial_index": 191, "time_elapsed": 913586, "internal_node_id": "0.0-141.0-5.0"}}, {"uniqueid": "MTK0868:3X1FV8S5JYYHK9XDQXCW2GXB34KVG8", "current_trial": 192, "dateTime": 1512854663613, "trialdata": {"rt": -1, "stimulus": "<p id=\"stim\">4</p>", "key_press": -1, "trial_type": "single-stim", "trial_index": 192, "time_elapsed": 914588, "internal_node_id": "0.0-141.0-6.0"}}, {"uniqueid": "MTK0868:3X1FV8S5JYYHK9XDQXCW2GXB34KVG8", "current_trial": 193, "dateTime": 1512854664616, "trialdata": {"rt": -1, "stimulus": "<p id=\"stim\">3</p>", "key_press": -1, "trial_type": "single-stim", "trial_index": 193, "time_elapsed": 915591, "internal_node_id": "0.0-141.0-7.0"}}, {"uniqueid": "MTK0868:3X1FV8S5JYYHK9XDQXCW2GXB34KVG8", "current_trial": 194, "dateTime": 1512854665618, "trialdata": {"rt": -1, "stimulus": "<p id=\"stim\">2</p>", "key_press": -1, "trial_type": "single-stim", "trial_index": 194, "time_elapsed": 916593, "internal_node_id": "0.0-141.0-8.0"}}, {"uniqueid": "MTK0868:3X1FV8S5JYYHK9XDQXCW2GXB34KVG8", "current_trial": 195, "dateTime": 1512854666619, "trialdata": {"rt": -1, "stimulus": "<p id=\"stim\">1</p>", "key_press": -1, "trial_type": "single-stim", "trial_index": 195, "time_elapsed": 917594, "internal_node_id": "0.0-141.0-9.0"}}, {"uniqueid": "MTK0868:3X1FV8S5JYYHK9XDQXCW2GXB34KVG8", "current_trial": 196, "dateTime": 1512854668121, "trialdata": {"rt": -1, "stimulus": "<p id=\"stim\">+</p>", "key_press": -1, "type": "FIXATION", "trial_type": "single-stim", "trial_index": 196, "time_elapsed": 919096, "internal_node_id": "0.0-142.0-0.0"}}, {"uniqueid": "MTK0868:3X1FV8S5JYYHK9XDQXCW2GXB34KVG8", "current_trial": 197, "dateTime": 1512854670640, "trialdata": {"rt": -1000, "stimulus": "/static/audio/wordpool/FRANCE.wav", "key_press": -1, "type": "PRES_AUD", "word": "france", "wordID": 600, "conditions": [24, 1600, "a", 12000], "trial": 5, "serialpos": 0, "trial_type": "single-audio", "trial_index": 197, "time_elapsed": 921615, "internal_node_id": "0.0-143.0"}}, {"uniqueid": "MTK0868:3X1FV8S5JYYHK9XDQXCW2GXB34KVG8", "current_trial": 198, "dateTime": 1512854673435, "trialdata": {"rt": -1000, "stimulus": "/static/audio/wordpool/SUNSET.wav", "key_press": -1, "type": "PRES_AUD", "word": "sunset", "wordID": 1407, "conditions": [24, 1600, "a", 12000], "trial": 5, "serialpos": 1, "trial_type": "single-audio", "trial_index": 198, "time_elapsed": 924410, "internal_node_id": "0.0-144.0"}}, {"uniqueid": "MTK0868:3X1FV8S5JYYHK9XDQXCW2GXB34KVG8", "current_trial": 199, "dateTime": 1512854676127, "trialdata": {"rt": -1000, "stimulus": "/static/audio/wordpool/CHAPEL.wav", "key_press": -1, "type": "PRES_AUD", "word": "chapel", "wordID": 279, "conditions": [24, 1600, "a", 12000], "trial": 5, "serialpos": 2, "trial_type": "single-audio", "trial_index": 199, "time_elapsed": 927101, "internal_node_id": "0.0-145.0"}}, {"uniqueid": "MTK0868:3X1FV8S5JYYHK9XDQXCW2GXB34KVG8", "current_trial": 200, "dateTime": 1512854678889, "trialdata": {"rt": -1000, "stimulus": "/static/audio/wordpool/EGYPT.wav", "key_press": -1, "type": "PRES_AUD", "word": "egypt", "wordID": 518, "conditions": [24, 1600, "a", 12000], "trial": 5, "serialpos": 3, "trial_type": "single-audio", "trial_index": 200, "time_elapsed": 929864, "internal_node_id": "0.0-146.0"}}, {"uniqueid": "MTK0868:3X1FV8S5JYYHK9XDQXCW2GXB34KVG8", "current_trial": 201, "dateTime": 1512854681419, "trialdata": {"rt": -1000, "stimulus": "/static/audio/wordpool/PLAYGROUND.wav", "key_press": -1, "type": "PRES_AUD", "word": "playground", "wordID": 1086, "conditions": [24, 1600, "a", 12000], "trial": 5, "serialpos": 4, "trial_type": "single-audio", "trial_index": 201, "time_elapsed": 932394, "internal_node_id": "0.0-147.0"}}, {"uniqueid": "MTK0868:3X1FV8S5JYYHK9XDQXCW2GXB34KVG8", "current_trial": 202, "dateTime": 1512854684040, "trialdata": {"rt": -1000, "stimulus": "/static/audio/wordpool/BALLOON.wav", "key_press": -1, "type": "PRES_AUD", "word": "balloon", "wordID": 74, "conditions": [24, 1600, "a", 12000], "trial": 5, "serialpos": 5, "trial_type": "single-audio", "trial_index": 202, "time_elapsed": 935015, "internal_node_id": "0.0-148.0"}}, {"uniqueid": "MTK0868:3X1FV8S5JYYHK9XDQXCW2GXB34KVG8", "current_trial": 203, "dateTime": 1512854686546, "trialdata": {"rt": -1000, "stimulus": "/static/audio/wordpool/COUNTY.wav", "key_press": -1, "type": "PRES_AUD", "word": "county", "wordID": 388, "conditions": [24, 1600, "a", 12000], "trial": 5, "serialpos": 6, "trial_type": "single-audio", "trial_index": 203, "time_elapsed": 937521, "internal_node_id": "0.0-149.0"}}, {"uniqueid": "MTK0868:3X1FV8S5JYYHK9XDQXCW2GXB34KVG8", "current_trial": 204, "dateTime": 1512854689044, "trialdata": {"rt": -1000, "stimulus": "/static/audio/wordpool/FINGER.wav", "key_press": -1, "type": "PRES_AUD", "word": "finger", "wordID": 566, "conditions": [24, 1600, "a", 12000], "trial": 5, "serialpos": 7, "trial_type": "single-audio", "trial_index": 204, "time_elapsed": 940019, "internal_node_id": "0.0-150.0"}}, {"uniqueid": "MTK0868:3X1FV8S5JYYHK9XDQXCW2GXB34KVG8", "current_trial": 205, "dateTime": 1512854691793, "trialdata": {"rt": -1000, "stimulus": "/static/audio/wordpool/SHOVEL.wav", "key_press": -1, "type": "PRES_AUD", "word": "shovel", "wordID": 1294, "conditions": [24, 1600, "a", 12000], "trial": 5, "serialpos": 8, "trial_type": "single-audio", "trial_index": 205, "time_elapsed": 942768, "internal_node_id": "0.0-151.0"}}, {"uniqueid": "MTK0868:3X1FV8S5JYYHK9XDQXCW2GXB34KVG8", "current_trial": 206, "dateTime": 1512854694296, "trialdata": {"rt": -1000, "stimulus": "/static/audio/wordpool/DAISY.wav", "key_press": -1, "type": "PRES_AUD", "word": "daisy", "wordID": 434, "conditions": [24, 1600, "a", 12000], "trial": 5, "serialpos": 9, "trial_type": "single-audio", "trial_index": 206, "time_elapsed": 945271, "internal_node_id": "0.0-152.0"}}, {"uniqueid": "MTK0868:3X1FV8S5JYYHK9XDQXCW2GXB34KVG8", "current_trial": 207, "dateTime": 1512854696882, "trialdata": {"rt": -1000, "stimulus": "/static/audio/wordpool/FLOWER.wav", "key_press": -1, "type": "PRES_AUD", "word": "flower", "wordID": 583, "conditions": [24, 1600, "a", 12000], "trial": 5, "serialpos": 10, "trial_type": "single-audio", "trial_index": 207, "time_elapsed": 947856, "internal_node_id": "0.0-153.0"}}, {"uniqueid": "MTK0868:3X1FV8S5JYYHK9XDQXCW2GXB34KVG8", "current_trial": 208, "dateTime": 1512854699539, "trialdata": {"rt": -1000, "stimulus": "/static/audio/wordpool/SUNRISE.wav", "key_press": -1, "type": "PRES_AUD", "word": "sunrise", "wordID": 1406, "conditions": [24, 1600, "a", 12000], "trial": 5, "serialpos": 11, "trial_type": "single-audio", "trial_index": 208, "time_elapsed": 950513, "internal_node_id": "0.0-154.0"}}, {"uniqueid": "MTK0868:3X1FV8S5JYYHK9XDQXCW2GXB34KVG8", "current_trial": 209, "dateTime": 1512854701978, "trialdata": {"rt": -1000, "stimulus": "/static/audio/wordpool/BRICK.wav", "key_press": -1, "type": "PRES_AUD", "word": "brick", "wordID": 171, "conditions": [24, 1600, "a", 12000], "trial": 5, "serialpos": 12, "trial_type": "single-audio", "trial_index": 209, "time_elapsed": 952953, "internal_node_id": "0.0-155.0"}}, {"uniqueid": "MTK0868:3X1FV8S5JYYHK9XDQXCW2GXB34KVG8", "current_trial": 210, "dateTime": 1512854704525, "trialdata": {"rt": -1000, "stimulus": "/static/audio/wordpool/BUNNY.wav", "key_press": -1, "type": "PRES_AUD", "word": "bunny", "wordID": 197, "conditions": [24, 1600, "a", 12000], "trial": 5, "serialpos": 13, "trial_type": "single-audio", "trial_index": 210, "time_elapsed": 955500, "internal_node_id": "0.0-156.0"}}, {"uniqueid": "MTK0868:3X1FV8S5JYYHK9XDQXCW2GXB34KVG8", "current_trial": 211, "dateTime": 1512854707166, "trialdata": {"rt": -1000, "stimulus": "/static/audio/wordpool/PALACE.wav", "key_press": -1, "type": "PRES_AUD", "word": "palace", "wordID": 1005, "conditions": [24, 1600, "a", 12000], "trial": 5, "serialpos": 14, "trial_type": "single-audio", "trial_index": 211, "time_elapsed": 958141, "internal_node_id": "0.0-157.0"}}, {"uniqueid": "MTK0868:3X1FV8S5JYYHK9XDQXCW2GXB34KVG8", "current_trial": 212, "dateTime": 1512854709821, "trialdata": {"rt": -1000, "stimulus": "/static/audio/wordpool/GROUND.wav", "key_press": -1, "type": "PRES_AUD", "word": "ground", "wordID": 665, "conditions": [24, 1600, "a", 12000], "trial": 5, "serialpos": 15, "trial_type": "single-audio", "trial_index": 212, "time_elapsed": 960796, "internal_node_id": "0.0-158.0"}}, {"uniqueid": "MTK0868:3X1FV8S5JYYHK9XDQXCW2GXB34KVG8", "current_trial": 213, "dateTime": 1512854712247, "trialdata": {"rt": -1000, "stimulus": "/static/audio/wordpool/CREVICE.wav", "key_press": -1, "type": "PRES_AUD", "word": "crevice", "wordID": 404, "conditions": [24, 1600, "a", 12000], "trial": 5, "serialpos": 16, "trial_type": "single-audio", "trial_index": 213, "time_elapsed": 963222, "internal_node_id": "0.0-159.0"}}, {"uniqueid": "MTK0868:3X1FV8S5JYYHK9XDQXCW2GXB34KVG8", "current_trial": 214, "dateTime": 1512854714677, "trialdata": {"rt": -1000, "stimulus": "/static/audio/wordpool/CRIB.wav", "key_press": -1, "type": "PRES_AUD", "word": "crib", "wordID": 406, "conditions": [24, 1600, "a", 12000], "trial": 5, "serialpos": 17, "trial_type": "single-audio", "trial_index": 214, "time_elapsed": 965652, "internal_node_id": "0.0-160.0"}}, {"uniqueid": "MTK0868:3X1FV8S5JYYHK9XDQXCW2GXB34KVG8", "current_trial": 215, "dateTime": 1512854717268, "trialdata": {"rt": -1000, "stimulus": "/static/audio/wordpool/SPIDER.wav", "key_press": -1, "type": "PRES_AUD", "word": "spider", "wordID": 1350, "conditions": [24, 1600, "a", 12000], "trial": 5, "serialpos": 18, "trial_type": "single-audio", "trial_index": 215, "time_elapsed": 968243, "internal_node_id": "0.0-161.0"}}, {"uniqueid": "MTK0868:3X1FV8S5JYYHK9XDQXCW2GXB34KVG8", "current_trial": 216, "dateTime": 1512854720025, "trialdata": {"rt": -1000, "stimulus": "/static/audio/wordpool/ATLAS.wav", "key_press": -1, "type": "PRES_AUD", "word": "atlas", "wordID": 52, "conditions": [24, 1600, "a", 12000], "trial": 5, "serialpos": 19, "trial_type": "single-audio", "trial_index": 216, "time_elapsed": 971000, "internal_node_id": "0.0-162.0"}}, {"uniqueid": "MTK0868:3X1FV8S5JYYHK9XDQXCW2GXB34KVG8", "current_trial": 217, "dateTime": 1512854722585, "trialdata": {"rt": -1000, "stimulus": "/static/audio/wordpool/WAITER.wav", "key_press": -1, "type": "PRES_AUD", "word": "waiter", "wordID": 1579, "conditions": [24, 1600, "a", 12000], "trial": 5, "serialpos": 20, "trial_type": "single-audio", "trial_index": 217, "time_elapsed": 973560, "internal_node_id": "0.0-163.0"}}, {"uniqueid": "MTK0868:3X1FV8S5JYYHK9XDQXCW2GXB34KVG8", "current_trial": 218, "dateTime": 1512854725013, "trialdata": {"rt": -1000, "stimulus": "/static/audio/wordpool/WAITRESS.wav", "key_press": -1, "type": "PRES_AUD", "word": "waitress", "wordID": 1580, "conditions": [24, 1600, "a", 12000], "trial": 5, "serialpos": 21, "trial_type": "single-audio", "trial_index": 218, "time_elapsed": 975988, "internal_node_id": "0.0-164.0"}}, {"uniqueid": "MTK0868:3X1FV8S5JYYHK9XDQXCW2GXB34KVG8", "current_trial": 219, "dateTime": 1512854727472, "trialdata": {"rt": -1000, "stimulus": "/static/audio/wordpool/MATTRESS.wav", "key_press": -1, "type": "PRES_AUD", "word": "mattress", "wordID": 878, "conditions": [24, 1600, "a", 12000], "trial": 5, "serialpos": 22, "trial_type": "single-audio", "trial_index": 219, "time_elapsed": 978446, "internal_node_id": "0.0-165.0"}}, {"uniqueid": "MTK0868:3X1FV8S5JYYHK9XDQXCW2GXB34KVG8", "current_trial": 220, "dateTime": 1512854730237, "trialdata": {"rt": -1000, "stimulus": "/static/audio/wordpool/OMELET.wav", "key_press": -1, "type": "PRES_AUD", "word": "omelet", "wordID": 975, "conditions": [24, 1600, "a", 12000], "trial": 5, "serialpos": 23, "trial_type": "single-audio", "trial_index": 220, "time_elapsed": 981212, "internal_node_id": "0.0-166.0"}}, {"uniqueid": "MTK0868:3X1FV8S5JYYHK9XDQXCW2GXB34KVG8", "current_trial": 221, "dateTime": 1512854731612, "trialdata": {"rt": -1, "stimulus": "", "key_press": -1, "type": "PRE_RECALL_DELAY", "trial_type": "single-stim", "trial_index": 221, "time_elapsed": 982587, "internal_node_id": "0.0-167.0-0.0"}}, {"uniqueid": "MTK0868:3X1FV8S5JYYHK9XDQXCW2GXB34KVG8", "current_trial": 222, "dateTime": 1512854732114, "trialdata": {"rt": -1000, "stimulus": "/static/audio/400Hz.wav", "key_press": -1, "type": "PRE_RECALL_ALERT", "trial_type": "single-audio", "trial_index": 222, "time_elapsed": 983089, "internal_node_id": "0.0-168.0"}}, {"uniqueid": "MTK0868:3X1FV8S5JYYHK9XDQXCW2GXB34KVG8", "current_trial": 223, "dateTime": 1512854792127, "trialdata": {"rt": [3159, 4823, 6272, 7935, 10279, 12087, 17503, 19615, 22599, 25775, 28975, 34382, 39526, 43182, 44798, 50671, 56111, 57351, 58958], "recwords": ["crypt", "france", "sunset", "sunrise", "playground", "balloon", "palace", "waiter", "waitress", "omelet", "mattress", "crevisse", "egypt", "ground", "atlas", "spider", "shovel", "brick", "daisy"], "type": "FREE_RECALL", "conditions": [24, 1600, "a", 12000], "trial": 5, "trial_type": "free-recall", "trial_index": 223, "time_elapsed": 1043094, "internal_node_id": "0.0-169.0-0.0"}}, {"uniqueid": "MTK0868:3X1FV8S5JYYHK9XDQXCW2GXB34KVG8", "current_trial": 224, "dateTime": 1512854795460, "trialdata": {"rt": 1330, "key_press": 13, "type": "INSTRUCTIONS", "trial_type": "text", "trial_index": 224, "time_elapsed": 1046434, "internal_node_id": "0.0-170.0"}}, {"uniqueid": "MTK0868:3X1FV8S5JYYHK9XDQXCW2GXB34KVG8", "current_trial": 225, "dateTime": 1512854809463, "trialdata": {"rt": [4829, 7213, 10501], "responses": ["12", "16", "16"], "num1": [1, 9, 6, 8], "num2": [4, 6, 1, 8], "num3": [7, 1, 9, 5], "type": "DISTRACTOR", "conditions": [12, 800, "v", 12000], "trial": 6, "trial_type": "math-distractor", "trial_index": 225, "time_elapsed": 1060438, "internal_node_id": "0.0-171.0"}}, {"uniqueid": "MTK0868:3X1FV8S5JYYHK9XDQXCW2GXB34KVG8", "current_trial": 226, "dateTime": 1512854812466, "trialdata": {"rt": -1, "stimulus": "<p id=\"stim\">10</p>", "key_press": -1, "trial_type": "single-stim", "trial_index": 226, "time_elapsed": 1063441, "internal_node_id": "0.0-172.0-0.0"}}, {"uniqueid": "MTK0868:3X1FV8S5JYYHK9XDQXCW2GXB34KVG8", "current_trial": 227, "dateTime": 1512854813470, "trialdata": {"rt": -1, "stimulus": "<p id=\"stim\">9</p>", "key_press": -1, "trial_type": "single-stim", "trial_index": 227, "time_elapsed": 1064445, "internal_node_id": "0.0-172.0-1.0"}}, {"uniqueid": "MTK0868:3X1FV8S5JYYHK9XDQXCW2GXB34KVG8", "current_trial": 228, "dateTime": 1512854814472, "trialdata": {"rt": -1, "stimulus": "<p id=\"stim\">8</p>", "key_press": -1, "trial_type": "single-stim", "trial_index": 228, "time_elapsed": 1065447, "internal_node_id": "0.0-172.0-2.0"}}, {"uniqueid": "MTK0868:3X1FV8S5JYYHK9XDQXCW2GXB34KVG8", "current_trial": 229, "dateTime": 1512854815474, "trialdata": {"rt": -1, "stimulus": "<p id=\"stim\">7</p>", "key_press": -1, "trial_type": "single-stim", "trial_index": 229, "time_elapsed": 1066449, "internal_node_id": "0.0-172.0-3.0"}}, {"uniqueid": "MTK0868:3X1FV8S5JYYHK9XDQXCW2GXB34KVG8", "current_trial": 230, "dateTime": 1512854816476, "trialdata": {"rt": -1, "stimulus": "<p id=\"stim\">6</p>", "key_press": -1, "trial_type": "single-stim", "trial_index": 230, "time_elapsed": 1067451, "internal_node_id": "0.0-172.0-4.0"}}, {"uniqueid": "MTK0868:3X1FV8S5JYYHK9XDQXCW2GXB34KVG8", "current_trial": 231, "dateTime": 1512854817479, "trialdata": {"rt": -1, "stimulus": "<p id=\"stim\">5</p>", "key_press": -1, "trial_type": "single-stim", "trial_index": 231, "time_elapsed": 1068454, "internal_node_id": "0.0-172.0-5.0"}}, {"uniqueid": "MTK0868:3X1FV8S5JYYHK9XDQXCW2GXB34KVG8", "current_trial": 232, "dateTime": 1512854818481, "trialdata": {"rt": -1, "stimulus": "<p id=\"stim\">4</p>", "key_press": -1, "trial_type": "single-stim", "trial_index": 232, "time_elapsed": 1069455, "internal_node_id": "0.0-172.0-6.0"}}, {"uniqueid": "MTK0868:3X1FV8S5JYYHK9XDQXCW2GXB34KVG8", "current_trial": 233, "dateTime": 1512854819483, "trialdata": {"rt": -1, "stimulus": "<p id=\"stim\">3</p>", "key_press": -1, "trial_type": "single-stim", "trial_index": 233, "time_elapsed": 1070458, "internal_node_id": "0.0-172.0-7.0"}}, {"uniqueid": "MTK0868:3X1FV8S5JYYHK9XDQXCW2GXB34KVG8", "current_trial": 234, "dateTime": 1512854820486, "trialdata": {"rt": -1, "stimulus": "<p id=\"stim\">2</p>", "key_press": -1, "trial_type": "single-stim", "trial_index": 234, "time_elapsed": 1071461, "internal_node_id": "0.0-172.0-8.0"}}, {"uniqueid": "MTK0868:3X1FV8S5JYYHK9XDQXCW2GXB34KVG8", "current_trial": 235, "dateTime": 1512854821488, "trialdata": {"rt": -1, "stimulus": "<p id=\"stim\">1</p>", "key_press": -1, "trial_type": "single-stim", "trial_index": 235, "time_elapsed": 1072462, "internal_node_id": "0.0-172.0-9.0"}}, {"uniqueid": "MTK0868:3X1FV8S5JYYHK9XDQXCW2GXB34KVG8", "current_trial": 236, "dateTime": 1512854822990, "trialdata": {"rt": -1, "stimulus": "<p id=\"stim\">+</p>", "key_press": -1, "type": "FIXATION", "trial_type": "single-stim", "trial_index": 236, "time_elapsed": 1073964, "internal_node_id": "0.0-173.0-0.0"}}, {"uniqueid": "MTK0868:3X1FV8S5JYYHK9XDQXCW2GXB34KVG8", "current_trial": 237, "dateTime": 1512854823793, "trialdata": {"rt": -1, "stimulus": "<p id=\"stim\">POET</p>", "key_press": -1, "type": "PRES_VIS", "word": "poet", "wordID": 1094, "conditions": [12, 800, "v", 12000], "trial": 6, "serialpos": 0, "trial_type": "single-stim", "trial_index": 237, "time_elapsed": 1074768, "internal_node_id": "0.0-174.0"}}, {"uniqueid": "MTK0868:3X1FV8S5JYYHK9XDQXCW2GXB34KVG8", "current_trial": 238, "dateTime": 1512854825481, "trialdata": {"rt": -1, "stimulus": "<p id=\"stim\">TEACHER</p>", "key_press": -1, "type": "PRES_VIS", "word": "teacher", "wordID": 1439, "conditions": [12, 800, "v", 12000], "trial": 6, "serialpos": 1, "trial_type": "single-stim", "trial_index": 238, "time_elapsed": 1076456, "internal_node_id": "0.0-175.0"}}, {"uniqueid": "MTK0868:3X1FV8S5JYYHK9XDQXCW2GXB34KVG8", "current_trial": 239, "dateTime": 1512854827153, "trialdata": {"rt": -1, "stimulus": "<p id=\"stim\">BRIEFCASE</p>", "key_press": -1, "type": "PRES_VIS", "word": "briefcase", "wordID": 174, "conditions": [12, 800, "v", 12000], "trial": 6, "serialpos": 2, "trial_type": "single-stim", "trial_index": 239, "time_elapsed": 1078128, "internal_node_id": "0.0-176.0"}}, {"uniqueid": "MTK0868:3X1FV8S5JYYHK9XDQXCW2GXB34KVG8", "current_trial": 240, "dateTime": 1512854829004, "trialdata": {"rt": -1, "stimulus": "<p id=\"stim\">OYSTER</p>", "key_press": -1, "type": "PRES_VIS", "word": "oyster", "wordID": 994, "conditions": [12, 800, "v", 12000], "trial": 6, "serialpos": 3, "trial_type": "single-stim", "trial_index": 240, "time_elapsed": 1079979, "internal_node_id": "0.0-177.0"}}, {"uniqueid": "MTK0868:3X1FV8S5JYYHK9XDQXCW2GXB34KVG8", "current_trial": 241, "dateTime": 1512854830894, "trialdata": {"rt": -1, "stimulus": "<p id=\"stim\">CLAM</p>", "key_press": -1, "type": "PRES_VIS", "word": "clam", "wordID": 314, "conditions": [12, 800, "v", 12000], "trial": 6, "serialpos": 4, "trial_type": "single-stim", "trial_index": 241, "time_elapsed": 1081869, "internal_node_id": "0.0-178.0"}}, {"uniqueid": "MTK0868:3X1FV8S5JYYHK9XDQXCW2GXB34KVG8", "current_trial": 242, "dateTime": 1512854832573, "trialdata": {"rt": -1, "stimulus": "<p id=\"stim\">COUSIN</p>", "key_press": -1, "type": "PRES_VIS", "word": "cousin", "wordID": 391, "conditions": [12, 800, "v", 12000], "trial": 6, "serialpos": 5, "trial_type": "single-stim", "trial_index": 242, "time_elapsed": 1083548, "internal_node_id": "0.0-179.0"}}, {"uniqueid": "MTK0868:3X1FV8S5JYYHK9XDQXCW2GXB34KVG8", "current_trial": 243, "dateTime": 1512854834252, "trialdata": {"rt": -1, "stimulus": "<p id=\"stim\">POISON</p>", "key_press": -1, "type": "PRES_VIS", "word": "poison", "wordID": 1095, "conditions": [12, 800, "v", 12000], "trial": 6, "serialpos": 6, "trial_type": "single-stim", "trial_index": 243, "time_elapsed": 1085227, "internal_node_id": "0.0-180.0"}}, {"uniqueid": "MTK0868:3X1FV8S5JYYHK9XDQXCW2GXB34KVG8", "current_trial": 244, "dateTime": 1512854836120, "trialdata": {"rt": -1, "stimulus": "<p id=\"stim\">STAPLE</p>", "key_press": -1, "type": "PRES_VIS", "word": "staple", "wordID": 1370, "conditions": [12, 800, "v", 12000], "trial": 6, "serialpos": 7, "trial_type": "single-stim", "trial_index": 244, "time_elapsed": 1087095, "internal_node_id": "0.0-181.0"}}, {"uniqueid": "MTK0868:3X1FV8S5JYYHK9XDQXCW2GXB34KVG8", "current_trial": 245, "dateTime": 1512854838090, "trialdata": {"rt": -1, "stimulus": "<p id=\"stim\">SIBLING</p>", "key_press": -1, "type": "PRES_VIS", "word": "sibling", "wordID": 1300, "conditions": [12, 800, "v", 12000], "trial": 6, "serialpos": 8, "trial_type": "single-stim", "trial_index": 245, "time_elapsed": 1089065, "internal_node_id": "0.0-182.0"}}, {"uniqueid": "MTK0868:3X1FV8S5JYYHK9XDQXCW2GXB34KVG8", "current_trial": 246, "dateTime": 1512854839750, "trialdata": {"rt": -1, "stimulus": "<p id=\"stim\">PARTNER</p>", "key_press": -1, "type": "PRES_VIS", "word": "partner", "wordID": 1016, "conditions": [12, 800, "v", 12000], "trial": 6, "serialpos": 9, "trial_type": "single-stim", "trial_index": 246, "time_elapsed": 1090725, "internal_node_id": "0.0-183.0"}}, {"uniqueid": "MTK0868:3X1FV8S5JYYHK9XDQXCW2GXB34KVG8", "current_trial": 247, "dateTime": 1512854841405, "trialdata": {"rt": -1, "stimulus": "<p id=\"stim\">TILE</p>", "key_press": -1, "type": "PRES_VIS", "word": "tile", "wordID": 1467, "conditions": [12, 800, "v", 12000], "trial": 6, "serialpos": 10, "trial_type": "single-stim", "trial_index": 247, "time_elapsed": 1092379, "internal_node_id": "0.0-184.0"}}, {"uniqueid": "MTK0868:3X1FV8S5JYYHK9XDQXCW2GXB34KVG8", "current_trial": 248, "dateTime": 1512854843284, "trialdata": {"rt": -1, "stimulus": "<p id=\"stim\">DRUG</p>", "key_press": -1, "type": "PRES_VIS", "word": "drug", "wordID": 500, "conditions": [12, 800, "v", 12000], "trial": 6, "serialpos": 11, "trial_type": "single-stim", "trial_index": 248, "time_elapsed": 1094259, "internal_node_id": "0.0-185.0"}}, {"uniqueid": "MTK0868:3X1FV8S5JYYHK9XDQXCW2GXB34KVG8", "current_trial": 249, "dateTime": 1512854845405, "trialdata": {"rt": -1, "stimulus": "", "key_press": -1, "type": "PRE_RECALL_DELAY", "trial_type": "single-stim", "trial_index": 249, "time_elapsed": 1096377, "internal_node_id": "0.0-186.0-0.0"}}, {"uniqueid": "MTK0868:3X1FV8S5JYYHK9XDQXCW2GXB34KVG8", "current_trial": 250, "dateTime": 1512854845906, "trialdata": {"rt": -1000, "stimulus": "/static/audio/400Hz.wav", "key_press": -1, "type": "PRE_RECALL_ALERT", "trial_type": "single-audio", "trial_index": 250, "time_elapsed": 1096881, "internal_node_id": "0.0-187.0"}}, {"uniqueid": "MTK0868:3X1FV8S5JYYHK9XDQXCW2GXB34KVG8", "current_trial": 251, "dateTime": 1512854905919, "trialdata": {"rt": [3480, 5640, 8671, 9735, 11031, 14495, 16119, 21832, 26208, 28176, 30400, 32687, 56663], "recwords": ["poet", "teacher", "poison", "drug", "tile", "sister", "partner", "brief", "briefcase", "oyster", "clam", "cousin", "sibling"], "type": "FREE_RECALL", "conditions": [12, 800, "v", 12000], "trial": 6, "trial_type": "free-recall", "trial_index": 251, "time_elapsed": 1156886, "internal_node_id": "0.0-188.0-0.0"}}, {"uniqueid": "MTK0868:3X1FV8S5JYYHK9XDQXCW2GXB34KVG8", "current_trial": 252, "dateTime": 1512854909052, "trialdata": {"rt": 1130, "key_press": 13, "type": "INSTRUCTIONS", "trial_type": "text", "trial_index": 252, "time_elapsed": 1160027, "internal_node_id": "0.0-189.0"}}, {"uniqueid": "MTK0868:3X1FV8S5JYYHK9XDQXCW2GXB34KVG8", "current_trial": 253, "dateTime": 1512854935057, "trialdata": {"rt": [2477, 5268, 9756, 12109, 15900, 19756, 21995], "responses": ["17", "13", "21", "13", "12", "14", "9"], "num1": [7, 2, 7, 5, 4, 6, 1, 1], "num2": [3, 5, 9, 6, 4, 3, 6, 3], "num3": [7, 6, 5, 2, 4, 5, 2, 9], "type": "DISTRACTOR", "conditions": [12, 1600, "a", 24000], "trial": 7, "trial_type": "math-distractor", "trial_index": 253, "time_elapsed": 1186032, "internal_node_id": "0.0-190.0"}}, {"uniqueid": "MTK0868:3X1FV8S5JYYHK9XDQXCW2GXB34KVG8", "current_trial": 254, "dateTime": 1512854938061, "trialdata": {"rt": -1, "stimulus": "<p id=\"stim\">10</p>", "key_press": -1, "trial_type": "single-stim", "trial_index": 254, "time_elapsed": 1189036, "internal_node_id": "0.0-191.0-0.0"}}, {"uniqueid": "MTK0868:3X1FV8S5JYYHK9XDQXCW2GXB34KVG8", "current_trial": 255, "dateTime": 1512854939063, "trialdata": {"rt": -1, "stimulus": "<p id=\"stim\">9</p>", "key_press": -1, "trial_type": "single-stim", "trial_index": 255, "time_elapsed": 1190038, "internal_node_id": "0.0-191.0-1.0"}}, {"uniqueid": "MTK0868:3X1FV8S5JYYHK9XDQXCW2GXB34KVG8", "current_trial": 256, "dateTime": 1512854940066, "trialdata": {"rt": -1, "stimulus": "<p id=\"stim\">8</p>", "key_press": -1, "trial_type": "single-stim", "trial_index": 256, "time_elapsed": 1191041, "internal_node_id": "0.0-191.0-2.0"}}, {"uniqueid": "MTK0868:3X1FV8S5JYYHK9XDQXCW2GXB34KVG8", "current_trial": 257, "dateTime": 1512854941069, "trialdata": {"rt": -1, "stimulus": "<p id=\"stim\">7</p>", "key_press": -1, "trial_type": "single-stim", "trial_index": 257, "time_elapsed": 1192044, "internal_node_id": "0.0-191.0-3.0"}}, {"uniqueid": "MTK0868:3X1FV8S5JYYHK9XDQXCW2GXB34KVG8", "current_trial": 258, "dateTime": 1512854942071, "trialdata": {"rt": -1, "stimulus": "<p id=\"stim\">6</p>", "key_press": -1, "trial_type": "single-stim", "trial_index": 258, "time_elapsed": 1193046, "internal_node_id": "0.0-191.0-4.0"}}, {"uniqueid": "MTK0868:3X1FV8S5JYYHK9XDQXCW2GXB34KVG8", "current_trial": 259, "dateTime": 1512854943073, "trialdata": {"rt": -1, "stimulus": "<p id=\"stim\">5</p>", "key_press": -1, "trial_type": "single-stim", "trial_index": 259, "time_elapsed": 1194048, "internal_node_id": "0.0-191.0-5.0"}}, {"uniqueid": "MTK0868:3X1FV8S5JYYHK9XDQXCW2GXB34KVG8", "current_trial": 260, "dateTime": 1512854944076, "trialdata": {"rt": -1, "stimulus": "<p id=\"stim\">4</p>", "key_press": -1, "trial_type": "single-stim", "trial_index": 260, "time_elapsed": 1195051, "internal_node_id": "0.0-191.0-6.0"}}, {"uniqueid": "MTK0868:3X1FV8S5JYYHK9XDQXCW2GXB34KVG8", "current_trial": 261, "dateTime": 1512854945078, "trialdata": {"rt": -1, "stimulus": "<p id=\"stim\">3</p>", "key_press": -1, "trial_type": "single-stim", "trial_index": 261, "time_elapsed": 1196053, "internal_node_id": "0.0-191.0-7.0"}}, {"uniqueid": "MTK0868:3X1FV8S5JYYHK9XDQXCW2GXB34KVG8", "current_trial": 262, "dateTime": 1512854946080, "trialdata": {"rt": -1, "stimulus": "<p id=\"stim\">2</p>", "key_press": -1, "trial_type": "single-stim", "trial_index": 262, "time_elapsed": 1197055, "internal_node_id": "0.0-191.0-8.0"}}, {"uniqueid": "MTK0868:3X1FV8S5JYYHK9XDQXCW2GXB34KVG8", "current_trial": 263, "dateTime": 1512854947083, "trialdata": {"rt": -1, "stimulus": "<p id=\"stim\">1</p>", "key_press": -1, "trial_type": "single-stim", "trial_index": 263, "time_elapsed": 1198058, "internal_node_id": "0.0-191.0-9.0"}}, {"uniqueid": "MTK0868:3X1FV8S5JYYHK9XDQXCW2GXB34KVG8", "current_trial": 264, "dateTime": 1512854948586, "trialdata": {"rt": -1, "stimulus": "<p id=\"stim\">+</p>", "key_press": -1, "type": "FIXATION", "trial_type": "single-stim", "trial_index": 264, "time_elapsed": 1199561, "internal_node_id": "0.0-192.0-0.0"}}, {"uniqueid": "MTK0868:3X1FV8S5JYYHK9XDQXCW2GXB34KVG8", "current_trial": 265, "dateTime": 1512854951011, "trialdata": {"rt": -1000, "stimulus": "/static/audio/wordpool/TRACTOR.wav", "key_press": -1, "type": "PRES_AUD", "word": "tractor", "wordID": 1492, "conditions": [12, 1600, "a", 24000], "trial": 7, "serialpos": 0, "trial_type": "single-audio", "trial_index": 265, "time_elapsed": 1201986, "internal_node_id": "0.0-193.0"}}, {"uniqueid": "MTK0868:3X1FV8S5JYYHK9XDQXCW2GXB34KVG8", "current_trial": 266, "dateTime": 1512854953791, "trialdata": {"rt": -1000, "stimulus": "/static/audio/wordpool/TRUCK.wav", "key_press": -1, "type": "PRES_AUD", "word": "truck", "wordID": 1511, "conditions": [12, 1600, "a", 24000], "trial": 7, "serialpos": 1, "trial_type": "single-audio", "trial_index": 266, "time_elapsed": 1204765, "internal_node_id": "0.0-194.0"}}, {"uniqueid": "MTK0868:3X1FV8S5JYYHK9XDQXCW2GXB34KVG8", "current_trial": 267, "dateTime": 1512854956211, "trialdata": {"rt": -1000, "stimulus": "/static/audio/wordpool/DANCER.wav", "key_press": -1, "type": "PRES_AUD", "word": "dancer", "wordID": 436, "conditions": [12, 1600, "a", 24000], "trial": 7, "serialpos": 2, "trial_type": "single-audio", "trial_index": 267, "time_elapsed": 1207185, "internal_node_id": "0.0-195.0"}}, {"uniqueid": "MTK0868:3X1FV8S5JYYHK9XDQXCW2GXB34KVG8", "current_trial": 268, "dateTime": 1512854958684, "trialdata": {"rt": -1000, "stimulus": "/static/audio/wordpool/JELLY.wav", "key_press": -1, "type": "PRES_AUD", "word": "jelly", "wordID": 754, "conditions": [12, 1600, "a", 24000], "trial": 7, "serialpos": 3, "trial_type": "single-audio", "trial_index": 268, "time_elapsed": 1209659, "internal_node_id": "0.0-196.0"}}, {"uniqueid": "MTK0868:3X1FV8S5JYYHK9XDQXCW2GXB34KVG8", "current_trial": 269, "dateTime": 1512854961109, "trialdata": {"rt": -1000, "stimulus": "/static/audio/wordpool/SERVER.wav", "key_press": -1, "type": "PRES_AUD", "word": "server", "wordID": 1271, "conditions": [12, 1600, "a", 24000], "trial": 7, "serialpos": 4, "trial_type": "single-audio", "trial_index": 269, "time_elapsed": 1212084, "internal_node_id": "0.0-197.0"}}, {"uniqueid": "MTK0868:3X1FV8S5JYYHK9XDQXCW2GXB34KVG8", "current_trial": 270, "dateTime": 1512854963860, "trialdata": {"rt": -1000, "stimulus": "/static/audio/wordpool/LACE.wav", "key_press": -1, "type": "PRES_AUD", "word": "lace", "wordID": 791, "conditions": [12, 1600, "a", 24000], "trial": 7, "serialpos": 5, "trial_type": "single-audio", "trial_index": 270, "time_elapsed": 1214835, "