{"condition": 0, "counterbalance": 230, "assignmentId": "3YOH7BII0AEMMVTWGOXB08P46U7KVK", "workerId": "MTK0116", "hitId": "3FSEU3P2NR7ET8RG7MWWB3QV3XIRRV", "currenttrial": 625, "bonus": 0, "data": [{"uniqueid": "MTK0116:3YOH7BII0AEMMVTWGOXB08P46U7KVK", "current_trial": 0, "dateTime": 1509162471684, "trialdata": {"rt": 2974, "key_press": 72, "type": "INSTRUCTIONS", "trial_type": "text", "trial_index": 0, "time_elapsed": 2976, "internal_node_id": "0.0-0.0"}}, {"uniqueid": "MTK0116:3YOH7BII0AEMMVTWGOXB08P46U7KVK", "current_trial": 1, "dateTime": 1509162474996, "trialdata": {"rt": 3311, "key_press": 175, "type": "INSTRUCTIONS", "trial_type": "text", "trial_index": 1, "time_elapsed": 6289, "internal_node_id": "0.0-1.0"}}, {"uniqueid": "MTK0116:3YOH7BII0AEMMVTWGOXB08P46U7KVK", "current_trial": 2, "dateTime": 1509162490723, "trialdata": {"rt": [15719], "responses": ["ocean"], "type": "AUDIO_TEST", "trial_type": "audio-test", "trial_index": 2, "time_elapsed": 22016, "internal_node_id": "0.0-2.0"}}, {"uniqueid": "MTK0116:3YOH7BII0AEMMVTWGOXB08P46U7KVK", "current_trial": 3, "dateTime": 1509162501132, "trialdata": {"rt": [10405], "responses": ["crystal"], "type": "AUDIO_TEST", "trial_type": "audio-test", "trial_index": 3, "time_elapsed": 32425, "internal_node_id": "0.0-3.0"}}, {"uniqueid": "MTK0116:3YOH7BII0AEMMVTWGOXB08P46U7KVK", "current_trial": 4, "dateTime": 1509162507595, "trialdata": {"rt": [6459], "responses": ["spice"], "type": "AUDIO_TEST", "trial_type": "audio-test", "trial_index": 4, "time_elapsed": 38888, "internal_node_id": "0.0-4.0"}}, {"uniqueid": "MTK0116:3YOH7BII0AEMMVTWGOXB08P46U7KVK", "current_trial": 5, "dateTime": 1509162515042, "trialdata": {"rt": 6695, "key_press": 71, "type": "INSTRUCTIONS", "trial_type": "text", "trial_index": 5, "time_elapsed": 46335, "internal_node_id": "0.0-5.0"}}, {"uniqueid": "MTK0116:3YOH7BII0AEMMVTWGOXB08P46U7KVK", "current_trial": 6, "dateTime": 1509162609690, "trialdata": {"rt": 94648, "key_press": 32, "type": "INSTRUCTIONS", "trial_type": "text", "trial_index": 6, "time_elapsed": 140983, "internal_node_id": "0.0-6.0"}}, {"uniqueid": "MTK0116:3YOH7BII0AEMMVTWGOXB08P46U7KVK", "current_trial": 7, "dateTime": 1509162637354, "trialdata": {"rt": 27662, "key_press": 32, "type": "INSTRUCTIONS", "trial_type": "text", "trial_index": 7, "time_elapsed": 168647, "internal_node_id": "0.0-7.0"}}, {"uniqueid": "MTK0116:3YOH7BII0AEMMVTWGOXB08P46U7KVK", "current_trial": 8, "dateTime": 1509162651362, "trialdata": {"rt": 14008, "key_press": 32, "type": "INSTRUCTIONS", "trial_type": "text", "trial_index": 8, "time_elapsed": 182655, "internal_node_id": "0.0-8.0"}}, {"uniqueid": "MTK0116:3YOH7BII0AEMMVTWGOXB08P46U7KVK", "current_trial": 9, "dateTime": 1509162670368, "trialdata": {"rt": [5227, 8564, 10828, 12996, 15596], "responses": ["20", "12", "12", "14", "21"], "num1": [6, 7, 6, 9, 5, 8], "num2": [9, 2, 4, 3, 9, 2], "num3": [5, 3, 2, 2, 7, 5], "type": "DISTRACTOR", "conditions": [18, 1200, "v", 18000], "trial": 0, "trial_type": "math-distractor", "trial_index": 9, "time_elapsed": 201661, "internal_node_id": "0.0-9.0"}}, {"uniqueid": "MTK0116:3YOH7BII0AEMMVTWGOXB08P46U7KVK", "current_trial": 10, "dateTime": 1509162673370, "trialdata": {"rt": -1, "stimulus": "<p id=\"stim\">10</p>", "key_press": -1, "trial_type": "single-stim", "trial_index": 10, "time_elapsed": 204663, "internal_node_id": "0.0-10.0-0.0"}}, {"uniqueid": "MTK0116:3YOH7BII0AEMMVTWGOXB08P46U7KVK", "current_trial": 11, "dateTime": 1509162674372, "trialdata": {"rt": -1, "stimulus": "<p id=\"stim\">9</p>", "key_press": -1, "trial_type": "single-stim", "trial_index": 11, "time_elapsed": 205665, "internal_node_id": "0.0-10.0-1.0"}}, {"uniqueid": "MTK0116:3YOH7BII0AEMMVTWGOXB08P46U7KVK", "current_trial": 12, "dateTime": 1509162675374, "trialdata": {"rt": -1, "stimulus": "<p id=\"stim\">8</p>", "key_press": -1, "trial_type": "single-stim", "trial_index": 12, "time_elapsed": 206667, "internal_node_id": "0.0-10.0-2.0"}}, {"uniqueid": "MTK0116:3YOH7BII0AEMMVTWGOXB08P46U7KVK", "current_trial": 13, "dateTime": 1509162676376, "trialdata": {"rt": -1, "stimulus": "<p id=\"stim\">7</p>", "key_press": -1, "trial_type": "single-stim", "trial_index": 13, "time_elapsed": 207669, "internal_node_id": "0.0-10.0-3.0"}}, {"uniqueid": "MTK0116:3YOH7BII0AEMMVTWGOXB08P46U7KVK", "current_trial": 14, "dateTime": 1509162677377, "trialdata": {"rt": -1, "stimulus": "<p id=\"stim\">6</p>", "key_press": -1, "trial_type": "single-stim", "trial_index": 14, "time_elapsed": 208670, "internal_node_id": "0.0-10.0-4.0"}}, {"uniqueid": "MTK0116:3YOH7BII0AEMMVTWGOXB08P46U7KVK", "current_trial": 15, "dateTime": 1509162678378, "trialdata": {"rt": -1, "stimulus": "<p id=\"stim\">5</p>", "key_press": -1, "trial_type": "single-stim", "trial_index": 15, "time_elapsed": 209671, "internal_node_id": "0.0-10.0-5.0"}}, {"uniqueid": "MTK0116:3YOH7BII0AEMMVTWGOXB08P46U7KVK", "current_trial": 16, "dateTime": 1509162679380, "trialdata": {"rt": -1, "stimulus": "<p id=\"stim\">4</p>", "key_press": -1, "trial_type": "single-stim", "trial_index": 16, "time_elapsed": 210673, "internal_node_id": "0.0-10.0-6.0"}}, {"uniqueid": "MTK0116:3YOH7BII0AEMMVTWGOXB08P46U7KVK", "current_trial": 17, "dateTime": 1509162680381, "trialdata": {"rt": -1, "stimulus": "<p id=\"stim\">3</p>", "key_press": -1, "trial_type": "single-stim", "trial_index": 17, "time_elapsed": 211674, "internal_node_id": "0.0-10.0-7.0"}}, {"uniqueid": "MTK0116:3YOH7BII0AEMMVTWGOXB08P46U7KVK", "current_trial": 18, "dateTime": 1509162681382, "trialdata": {"rt": -1, "stimulus": "<p id=\"stim\">2</p>", "key_press": -1, "trial_type": "single-stim", "trial_index": 18, "time_elapsed": 212675, "internal_node_id": "0.0-10.0-8.0"}}, {"uniqueid": "MTK0116:3YOH7BII0AEMMVTWGOXB08P46U7KVK", "current_trial": 19, "dateTime": 1509162682383, "trialdata": {"rt": -1, "stimulus": "<p id=\"stim\">1</p>", "key_press": -1, "trial_type": "single-stim", "trial_index": 19, "time_elapsed": 213676, "internal_node_id": "0.0-10.0-9.0"}}, {"uniqueid": "MTK0116:3YOH7BII0AEMMVTWGOXB08P46U7KVK", "current_trial": 20, "dateTime": 1509162683884, "trialdata": {"rt": -1, "stimulus": "<p id=\"stim\">+</p>", "key_press": -1, "type": "FIXATION", "trial_type": "single-stim", "trial_index": 20, "time_elapsed": 215177, "internal_node_id": "0.0-11.0-0.0"}}, {"uniqueid": "MTK0116:3YOH7BII0AEMMVTWGOXB08P46U7KVK", "current_trial": 21, "dateTime": 1509162685086, "trialdata": {"rt": -1, "stimulus": "<p id=\"stim\">LUNCH</p>", "key_press": -1, "type": "PRES_VIS", "word": "lunch", "wordID": 848, "conditions": [18, 1200, "v", 18000], "trial": 0, "serialpos": 0, "trial_type": "single-stim", "trial_index": 21, "time_elapsed": 216379, "internal_node_id": "0.0-12.0"}}, {"uniqueid": "MTK0116:3YOH7BII0AEMMVTWGOXB08P46U7KVK", "current_trial": 22, "dateTime": 1509162687229, "trialdata": {"rt": -1, "stimulus": "<p id=\"stim\">BRANDY</p>", "key_press": -1, "type": "PRES_VIS", "word": "brandy", "wordID": 168, "conditions": [18, 1200, "v", 18000], "trial": 0, "serialpos": 1, "trial_type": "single-stim", "trial_index": 22, "time_elapsed": 218522, "internal_node_id": "0.0-13.0"}}, {"uniqueid": "MTK0116:3YOH7BII0AEMMVTWGOXB08P46U7KVK", "current_trial": 23, "dateTime": 1509162689468, "trialdata": {"rt": -1, "stimulus": "<p id=\"stim\">HOSTESS</p>", "key_press": -1, "type": "PRES_VIS", "word": "hostess", "wordID": 722, "conditions": [18, 1200, "v", 18000], "trial": 0, "serialpos": 2, "trial_type": "single-stim", "trial_index": 23, "time_elapsed": 220761, "internal_node_id": "0.0-14.0"}}, {"uniqueid": "MTK0116:3YOH7BII0AEMMVTWGOXB08P46U7KVK", "current_trial": 24, "dateTime": 1509162691473, "trialdata": {"rt": -1, "stimulus": "<p id=\"stim\">GHETTO</p>", "key_press": -1, "type": "PRES_VIS", "word": "ghetto", "wordID": 632, "conditions": [18, 1200, "v", 18000], "trial": 0, "serialpos": 3, "trial_type": "single-stim", "trial_index": 24, "time_elapsed": 222766, "internal_node_id": "0.0-15.0"}}, {"uniqueid": "MTK0116:3YOH7BII0AEMMVTWGOXB08P46U7KVK", "current_trial": 25, "dateTime": 1509162693584, "trialdata": {"rt": -1, "stimulus": "<p id=\"stim\">MARKER</p>", "key_press": -1, "type": "PRES_VIS", "word": "marker", "wordID": 869, "conditions": [18, 1200, "v", 18000], "trial": 0, "serialpos": 4, "trial_type": "single-stim", "trial_index": 25, "time_elapsed": 224877, "internal_node_id": "0.0-16.0"}}, {"uniqueid": "MTK0116:3YOH7BII0AEMMVTWGOXB08P46U7KVK", "current_trial": 26, "dateTime": 1509162695661, "trialdata": {"rt": -1, "stimulus": "<p id=\"stim\">SKILLET</p>", "key_press": -1, "type": "PRES_VIS", "word": "skillet", "wordID": 1316, "conditions": [18, 1200, "v", 18000], "trial": 0, "serialpos": 5, "trial_type": "single-stim", "trial_index": 26, "time_elapsed": 226954, "internal_node_id": "0.0-17.0"}}, {"uniqueid": "MTK0116:3YOH7BII0AEMMVTWGOXB08P46U7KVK", "current_trial": 27, "dateTime": 1509162697816, "trialdata": {"rt": -1, "stimulus": "<p id=\"stim\">PIGMENT</p>", "key_press": -1, "type": "PRES_VIS", "word": "pigment", "wordID": 1065, "conditions": [18, 1200, "v", 18000], "trial": 0, "serialpos": 6, "trial_type": "single-stim", "trial_index": 27, "time_elapsed": 229109, "internal_node_id": "0.0-18.0"}}, {"uniqueid": "MTK0116:3YOH7BII0AEMMVTWGOXB08P46U7KVK", "current_trial": 28, "dateTime": 1509162700092, "trialdata": {"rt": -1, "stimulus": "<p id=\"stim\">BALLOON</p>", "key_press": -1, "type": "PRES_VIS", "word": "balloon", "wordID": 74, "conditions": [18, 1200, "v", 18000], "trial": 0, "serialpos": 7, "trial_type": "single-stim", "trial_index": 28, "time_elapsed": 231385, "internal_node_id": "0.0-19.0"}}, {"uniqueid": "MTK0116:3YOH7BII0AEMMVTWGOXB08P46U7KVK", "current_trial": 29, "dateTime": 1509162702488, "trialdata": {"rt": -1, "stimulus": "<p id=\"stim\">COUCH</p>", "key_press": -1, "type": "PRES_VIS", "word": "couch", "wordID": 385, "conditions": [18, 1200, "v", 18000], "trial": 0, "serialpos": 8, "trial_type": "single-stim", "trial_index": 29, "time_elapsed": 233781, "internal_node_id": "0.0-20.0"}}, {"uniqueid": "MTK0116:3YOH7BII0AEMMVTWGOXB08P46U7KVK", "current_trial": 30, "dateTime": 1509162704734, "trialdata": {"rt": -1, "stimulus": "<p id=\"stim\">ACTOR</p>", "key_press": -1, "type": "PRES_VIS", "word": "actor", "wordID": 4, "conditions": [18, 1200, "v", 18000], "trial": 0, "serialpos": 9, "trial_type": "single-stim", "trial_index": 30, "time_elapsed": 236027, "internal_node_id": "0.0-21.0"}}, {"uniqueid": "MTK0116:3YOH7BII0AEMMVTWGOXB08P46U7KVK", "current_trial": 31, "dateTime": 1509162706877, "trialdata": {"rt": -1, "stimulus": "<p id=\"stim\">ROBBER</p>", "key_press": -1, "type": "PRES_VIS", "word": "robber", "wordID": 1196, "conditions": [18, 1200, "v", 18000], "trial": 0, "serialpos": 10, "trial_type": "single-stim", "trial_index": 31, "time_elapsed": 238170, "internal_node_id": "0.0-22.0"}}, {"uniqueid": "MTK0116:3YOH7BII0AEMMVTWGOXB08P46U7KVK", "current_trial": 32, "dateTime": 1509162708891, "trialdata": {"rt": -1, "stimulus": "<p id=\"stim\">FOX</p>", "key_press": -1, "type": "PRES_VIS", "word": "fox", "wordID": 597, "conditions": [18, 1200, "v", 18000], "trial": 0, "serialpos": 11, "trial_type": "single-stim", "trial_index": 32, "time_elapsed": 240184, "internal_node_id": "0.0-23.0"}}, {"uniqueid": "MTK0116:3YOH7BII0AEMMVTWGOXB08P46U7KVK", "current_trial": 33, "dateTime": 1509162711114, "trialdata": {"rt": -1, "stimulus": "<p id=\"stim\">STUDENT</p>", "key_press": -1, "type": "PRES_VIS", "word": "student", "wordID": 1394, "conditions": [18, 1200, "v", 18000], "trial": 0, "serialpos": 12, "trial_type": "single-stim", "trial_index": 33, "time_elapsed": 242407, "internal_node_id": "0.0-24.0"}}, {"uniqueid": "MTK0116:3YOH7BII0AEMMVTWGOXB08P46U7KVK", "current_trial": 34, "dateTime": 1509162713339, "trialdata": {"rt": -1, "stimulus": "<p id=\"stim\">XEROX</p>", "key_press": -1, "type": "PRES_VIS", "word": "xerox", "wordID": 1627, "conditions": [18, 1200, "v", 18000], "trial": 0, "serialpos": 13, "trial_type": "single-stim", "trial_index": 34, "time_elapsed": 244632, "internal_node_id": "0.0-25.0"}}, {"uniqueid": "MTK0116:3YOH7BII0AEMMVTWGOXB08P46U7KVK", "current_trial": 35, "dateTime": 1509162715583, "trialdata": {"rt": -1, "stimulus": "<p id=\"stim\">ONION</p>", "key_press": -1, "type": "PRES_VIS", "word": "onion", "wordID": 976, "conditions": [18, 1200, "v", 18000], "trial": 0, "serialpos": 14, "trial_type": "single-stim", "trial_index": 35, "time_elapsed": 246876, "internal_node_id": "0.0-26.0"}}, {"uniqueid": "MTK0116:3YOH7BII0AEMMVTWGOXB08P46U7KVK", "current_trial": 36, "dateTime": 1509162717686, "trialdata": {"rt": -1, "stimulus": "<p id=\"stim\">HOOD</p>", "key_press": -1, "type": "PRES_VIS", "word": "hood", "wordID": 713, "conditions": [18, 1200, "v", 18000], "trial": 0, "serialpos": 15, "trial_type": "single-stim", "trial_index": 36, "time_elapsed": 248979, "internal_node_id": "0.0-27.0"}}, {"uniqueid": "MTK0116:3YOH7BII0AEMMVTWGOXB08P46U7KVK", "current_trial": 37, "dateTime": 1509162719696, "trialdata": {"rt": -1, "stimulus": "<p id=\"stim\">WAITRESS</p>", "key_press": -1, "type": "PRES_VIS", "word": "waitress", "wordID": 1580, "conditions": [18, 1200, "v", 18000], "trial": 0, "serialpos": 16, "trial_type": "single-stim", "trial_index": 37, "time_elapsed": 250989, "internal_node_id": "0.0-28.0"}}, {"uniqueid": "MTK0116:3YOH7BII0AEMMVTWGOXB08P46U7KVK", "current_trial": 38, "dateTime": 1509162721936, "trialdata": {"rt": -1, "stimulus": "<p id=\"stim\">LUMBER</p>", "key_press": -1, "type": "PRES_VIS", "word": "lumber", "wordID": 847, "conditions": [18, 1200, "v", 18000], "trial": 0, "serialpos": 17, "trial_type": "single-stim", "trial_index": 38, "time_elapsed": 253229, "internal_node_id": "0.0-29.0"}}, {"uniqueid": "MTK0116:3YOH7BII0AEMMVTWGOXB08P46U7KVK", "current_trial": 39, "dateTime": 1509162724392, "trialdata": {"rt": -1, "stimulus": "", "key_press": -1, "type": "PRE_RECALL_DELAY", "trial_type": "single-stim", "trial_index": 39, "time_elapsed": 255685, "internal_node_id": "0.0-30.0-0.0"}}, {"uniqueid": "MTK0116:3YOH7BII0AEMMVTWGOXB08P46U7KVK", "current_trial": 40, "dateTime": 1509162724905, "trialdata": {"rt": -1000, "stimulus": "/static/audio/400Hz.wav", "key_press": -1, "type": "PRE_RECALL_ALERT", "trial_type": "single-audio", "trial_index": 40, "time_elapsed": 256198, "internal_node_id": "0.0-31.0"}}, {"uniqueid": "MTK0116:3YOH7BII0AEMMVTWGOXB08P46U7KVK", "current_trial": 41, "dateTime": 1509162784908, "trialdata": {"rt": [4128, 6208, 7472, 8776, 9824, 11248, 13032, 15624, 19376, 23216, 28096], "recwords": ["waittress", "lumber", "hood", "ghetto", "actor", "robber", "skillet", "onion", "lunch", "student", "xerox"], "type": "FREE_RECALL", "conditions": [18, 1200, "v", 18000], "trial": 0, "trial_type": "free-recall", "trial_index": 41, "time_elapsed": 316199, "internal_node_id": "0.0-32.0-0.0"}}, {"uniqueid": "MTK0116:3YOH7BII0AEMMVTWGOXB08P46U7KVK", "current_trial": 42, "dateTime": 1509162788474, "trialdata": {"rt": 1564, "key_press": 32, "type": "INSTRUCTIONS", "trial_type": "text", "trial_index": 42, "time_elapsed": 319766, "internal_node_id": "0.0-33.0"}}, {"uniqueid": "MTK0116:3YOH7BII0AEMMVTWGOXB08P46U7KVK", "current_trial": 43, "dateTime": 1509162808476, "trialdata": {"rt": [3040, 4776, 7576, 9496, 11352, 13831, 15519, 17639], "responses": ["17", "11", "21", "14", "14", "17", "15", "19"], "num1": [8, 2, 8, 5, 9, 4, 9, 2, 8], "num2": [3, 3, 9, 4, 1, 9, 1, 8, 4], "num3": [6, 6, 4, 5, 4, 4, 5, 9, 6], "type": "DISTRACTOR", "conditions": [18, 1200, "a", 18000], "trial": 1, "trial_type": "math-distractor", "trial_index": 43, "time_elapsed": 339769, "internal_node_id": "0.0-34.0"}}, {"uniqueid": "MTK0116:3YOH7BII0AEMMVTWGOXB08P46U7KVK", "current_trial": 44, "dateTime": 1509162811479, "trialdata": {"rt": -1, "stimulus": "<p id=\"stim\">10</p>", "key_press": -1, "trial_type": "single-stim", "trial_index": 44, "time_elapsed": 342772, "internal_node_id": "0.0-35.0-0.0"}}, {"uniqueid": "MTK0116:3YOH7BII0AEMMVTWGOXB08P46U7KVK", "current_trial": 45, "dateTime": 1509162812481, "trialdata": {"rt": -1, "stimulus": "<p id=\"stim\">9</p>", "key_press": -1, "trial_type": "single-stim", "trial_index": 45, "time_elapsed": 343774, "internal_node_id": "0.0-35.0-1.0"}}, {"uniqueid": "MTK0116:3YOH7BII0AEMMVTWGOXB08P46U7KVK", "current_trial": 46, "dateTime": 1509162813483, "trialdata": {"rt": -1, "stimulus": "<p id=\"stim\">8</p>", "key_press": -1, "trial_type": "single-stim", "trial_index": 46, "time_elapsed": 344776, "internal_node_id": "0.0-35.0-2.0"}}, {"uniqueid": "MTK0116:3YOH7BII0AEMMVTWGOXB08P46U7KVK", "current_trial": 47, "dateTime": 1509162814484, "trialdata": {"rt": -1, "stimulus": "<p id=\"stim\">7</p>", "key_press": -1, "trial_type": "single-stim", "trial_index": 47, "time_elapsed": 345777, "internal_node_id": "0.0-35.0-3.0"}}, {"uniqueid": "MTK0116:3YOH7BII0AEMMVTWGOXB08P46U7KVK", "current_trial": 48, "dateTime": 1509162815485, "trialdata": {"rt": -1, "stimulus": "<p id=\"stim\">6</p>", "key_press": -1, "trial_type": "single-stim", "trial_index": 48, "time_elapsed": 346778, "internal_node_id": "0.0-35.0-4.0"}}, {"uniqueid": "MTK0116:3YOH7BII0AEMMVTWGOXB08P46U7KVK", "current_trial": 49, "dateTime": 1509162816486, "trialdata": {"rt": -1, "stimulus": "<p id=\"stim\">5</p>", "key_press": -1, "trial_type": "single-stim", "trial_index": 49, "time_elapsed": 347779, "internal_node_id": "0.0-35.0-5.0"}}, {"uniqueid": "MTK0116:3YOH7BII0AEMMVTWGOXB08P46U7KVK", "current_trial": 50, "dateTime": 1509162817488, "trialdata": {"rt": -1, "stimulus": "<p id=\"stim\">4</p>", "key_press": -1, "trial_type": "single-stim", "trial_index": 50, "time_elapsed": 348781, "internal_node_id": "0.0-35.0-6.0"}}, {"uniqueid": "MTK0116:3YOH7BII0AEMMVTWGOXB08P46U7KVK", "current_trial": 51, "dateTime": 1509162818489, "trialdata": {"rt": -1, "stimulus": "<p id=\"stim\">3</p>", "key_press": -1, "trial_type": "single-stim", "trial_index": 51, "time_elapsed": 349782, "internal_node_id": "0.0-35.0-7.0"}}, {"uniqueid": "MTK0116:3YOH7BII0AEMMVTWGOXB08P46U7KVK", "current_trial": 52, "dateTime": 1509162819490, "trialdata": {"rt": -1, "stimulus": "<p id=\"stim\">2</p>", "key_press": -1, "trial_type": "single-stim", "trial_index": 52, "time_elapsed": 350783, "internal_node_id": "0.0-35.0-8.0"}}, {"uniqueid": "MTK0116:3YOH7BII0AEMMVTWGOXB08P46U7KVK", "current_trial": 53, "dateTime": 1509162820492, "trialdata": {"rt": -1, "stimulus": "<p id=\"stim\">1</p>", "key_press": -1, "trial_type": "single-stim", "trial_index": 53, "time_elapsed": 351785, "internal_node_id": "0.0-35.0-9.0"}}, {"uniqueid": "MTK0116:3YOH7BII0AEMMVTWGOXB08P46U7KVK", "current_trial": 54, "dateTime": 1509162821993, "trialdata": {"rt": -1, "stimulus": "<p id=\"stim\">+</p>", "key_press": -1, "type": "FIXATION", "trial_type": "single-stim", "trial_index": 54, "time_elapsed": 353286, "internal_node_id": "0.0-36.0-0.0"}}, {"uniqueid": "MTK0116:3YOH7BII0AEMMVTWGOXB08P46U7KVK", "current_trial": 55, "dateTime": 1509162824305, "trialdata": {"rt": -1000, "stimulus": "/static/audio/wordpool/COUSIN.wav", "key_press": -1, "type": "PRES_AUD", "word": "cousin", "wordID": 391, "conditions": [18, 1200, "a", 18000], "trial": 1, "serialpos": 0, "trial_type": "single-audio", "trial_index": 55, "time_elapsed": 355598, "internal_node_id": "0.0-37.0"}}, {"uniqueid": "MTK0116:3YOH7BII0AEMMVTWGOXB08P46U7KVK", "current_trial": 56, "dateTime": 1509162826371, "trialdata": {"rt": -1000, "stimulus": "/static/audio/wordpool/CAMEL.wav", "key_press": -1, "type": "PRES_AUD", "word": "camel", "wordID": 222, "conditions": [18, 1200, "a", 18000], "trial": 1, "serialpos": 1, "trial_type": "single-audio", "trial_index": 56, "time_elapsed": 357664, "internal_node_id": "0.0-38.0"}}, {"uniqueid": "MTK0116:3YOH7BII0AEMMVTWGOXB08P46U7KVK", "current_trial": 57, "dateTime": 1509162828590, "trialdata": {"rt": -1000, "stimulus": "/static/audio/wordpool/WHISTLE.wav", "key_press": -1, "type": "PRES_AUD", "word": "whistle", "wordID": 1605, "conditions": [18, 1200, "a", 18000], "trial": 1, "serialpos": 2, "trial_type": "single-audio", "trial_index": 57, "time_elapsed": 359883, "internal_node_id": "0.0-39.0"}}, {"uniqueid": "MTK0116:3YOH7BII0AEMMVTWGOXB08P46U7KVK", "current_trial": 58, "dateTime": 1509162830895, "trialdata": {"rt": -1000, "stimulus": "/static/audio/wordpool/DRIVER.wav", "key_press": -1, "type": "PRES_AUD", "word": "driver", "wordID": 498, "conditions": [18, 1200, "a", 18000], "trial": 1, "serialpos": 3, "trial_type": "single-audio", "trial_index": 58, "time_elapsed": 362188, "internal_node_id": "0.0-40.0"}}, {"uniqueid": "MTK0116:3YOH7BII0AEMMVTWGOXB08P46U7KVK", "current_trial": 59, "dateTime": 1509162833223, "trialdata": {"rt": -1000, "stimulus": "/static/audio/wordpool/PLAYGROUND.wav", "key_press": -1, "type": "PRES_AUD", "word": "playground", "wordID": 1086, "conditions": [18, 1200, "a", 18000], "trial": 1, "serialpos": 4, "trial_type": "single-audio", "trial_index": 59, "time_elapsed": 364516, "internal_node_id": "0.0-41.0"}}, {"uniqueid": "MTK0116:3YOH7BII0AEMMVTWGOXB08P46U7KVK", "current_trial": 60, "dateTime": 1509162835318, "trialdata": {"rt": -1000, "stimulus": "/static/audio/wordpool/LAMP.wav", "key_press": -1, "type": "PRES_AUD", "word": "lamp", "wordID": 797, "conditions": [18, 1200, "a", 18000], "trial": 1, "serialpos": 5, "trial_type": "single-audio", "trial_index": 60, "time_elapsed": 366611, "internal_node_id": "0.0-42.0"}}, {"uniqueid": "MTK0116:3YOH7BII0AEMMVTWGOXB08P46U7KVK", "current_trial": 61, "dateTime": 1509162837413, "trialdata": {"rt": -1000, "stimulus": "/static/audio/wordpool/PROTON.wav", "key_press": -1, "type": "PRES_AUD", "word": "proton", "wordID": 1131, "conditions": [18, 1200, "a", 18000], "trial": 1, "serialpos": 6, "trial_type": "single-audio", "trial_index": 61, "time_elapsed": 368706, "internal_node_id": "0.0-43.0"}}, {"uniqueid": "MTK0116:3YOH7BII0AEMMVTWGOXB08P46U7KVK", "current_trial": 62, "dateTime": 1509162839635, "trialdata": {"rt": -1000, "stimulus": "/static/audio/wordpool/COFFEE.wav", "key_press": -1, "type": "PRES_AUD", "word": "coffee", "wordID": 340, "conditions": [18, 1200, "a", 18000], "trial": 1, "serialpos": 7, "trial_type": "single-audio", "trial_index": 62, "time_elapsed": 370928, "internal_node_id": "0.0-44.0"}}, {"uniqueid": "MTK0116:3YOH7BII0AEMMVTWGOXB08P46U7KVK", "current_trial": 63, "dateTime": 1509162841977, "trialdata": {"rt": -1000, "stimulus": "/static/audio/wordpool/AIRPORT.wav", "key_press": -1, "type": "PRES_AUD", "word": "airport", "wordID": 12, "conditions": [18, 1200, "a", 18000], "trial": 1, "serialpos": 8, "trial_type": "single-audio", "trial_index": 63, "time_elapsed": 373270, "internal_node_id": "0.0-45.0"}}, {"uniqueid": "MTK0116:3YOH7BII0AEMMVTWGOXB08P46U7KVK", "current_trial": 64, "dateTime": 1509162844125, "trialdata": {"rt": -1000, "stimulus": "/static/audio/wordpool/JUNGLE.wav", "key_press": -1, "type": "PRES_AUD", "word": "jungle", "wordID": 763, "conditions": [18, 1200, "a", 18000], "trial": 1, "serialpos": 9, "trial_type": "single-audio", "trial_index": 64, "time_elapsed": 375418, "internal_node_id": "0.0-46.0"}}, {"uniqueid": "MTK0116:3YOH7BII0AEMMVTWGOXB08P46U7KVK", "current_trial": 65, "dateTime": 1509162846443, "trialdata": {"rt": -1000, "stimulus": "/static/audio/wordpool/CLAMP.wav", "key_press": -1, "type": "PRES_AUD", "word": "clamp", "wordID": 315, "conditions": [18, 1200, "a", 18000], "trial": 1, "serialpos": 10, "trial_type": "single-audio", "trial_index": 65, "time_elapsed": 377736, "internal_node_id": "0.0-47.0"}}, {"uniqueid": "MTK0116:3YOH7BII0AEMMVTWGOXB08P46U7KVK", "current_trial": 66, "dateTime": 1509162848460, "trialdata": {"rt": -1000, "stimulus": "/static/audio/wordpool/LEADER.wav", "key_press": -1, "type": "PRES_AUD", "word": "leader", "wordID": 806, "conditions": [18, 1200, "a", 18000], "trial": 1, "serialpos": 11, "trial_type": "single-audio", "trial_index": 66, "time_elapsed": 379753, "internal_node_id": "0.0-48.0"}}, {"uniqueid": "MTK0116:3YOH7BII0AEMMVTWGOXB08P46U7KVK", "current_trial": 67, "dateTime": 1509162850788, "trialdata": {"rt": -1000, "stimulus": "/static/audio/wordpool/DONKEY.wav", "key_press": -1, "type": "PRES_AUD", "word": "donkey", "wordID": 483, "conditions": [18, 1200, "a", 18000], "trial": 1, "serialpos": 12, "trial_type": "single-audio", "trial_index": 67, "time_elapsed": 382081, "internal_node_id": "0.0-49.0"}}, {"uniqueid": "MTK0116:3YOH7BII0AEMMVTWGOXB08P46U7KVK", "current_trial": 68, "dateTime": 1509162852955, "trialdata": {"rt": -1000, "stimulus": "/static/audio/wordpool/ROOSTER.wav", "key_press": -1, "type": "PRES_AUD", "word": "rooster", "wordID": 1208, "conditions": [18, 1200, "a", 18000], "trial": 1, "serialpos": 13, "trial_type": "single-audio", "trial_index": 68, "time_elapsed": 384247, "internal_node_id": "0.0-50.0"}}, {"uniqueid": "MTK0116:3YOH7BII0AEMMVTWGOXB08P46U7KVK", "current_trial": 69, "dateTime": 1509162854987, "trialdata": {"rt": -1000, "stimulus": "/static/audio/wordpool/SPOON.wav", "key_press": -1, "type": "PRES_AUD", "word": "spoon", "wordID": 1356, "conditions": [18, 1200, "a", 18000], "trial": 1, "serialpos": 14, "trial_type": "single-audio", "trial_index": 69, "time_elapsed": 386280, "internal_node_id": "0.0-51.0"}}, {"uniqueid": "MTK0116:3YOH7BII0AEMMVTWGOXB08P46U7KVK", "current_trial": 70, "dateTime": 1509162857361, "trialdata": {"rt": -1000, "stimulus": "/static/audio/wordpool/BUCKET.wav", "key_press": -1, "type": "PRES_AUD", "word": "bucket", "wordID": 183, "conditions": [18, 1200, "a", 18000], "trial": 1, "serialpos": 15, "trial_type": "single-audio", "trial_index": 70, "time_elapsed": 388654, "internal_node_id": "0.0-52.0"}}, {"uniqueid": "MTK0116:3YOH7BII0AEMMVTWGOXB08P46U7KVK", "current_trial": 71, "dateTime": 1509162859642, "trialdata": {"rt": -1000, "stimulus": "/static/audio/wordpool/ORCHID.wav", "key_press": -1, "type": "PRES_AUD", "word": "orchid", "wordID": 981, "conditions": [18, 1200, "a", 18000], "trial": 1, "serialpos": 16, "trial_type": "single-audio", "trial_index": 71, "time_elapsed": 390935, "internal_node_id": "0.0-53.0"}}, {"uniqueid": "MTK0116:3YOH7BII0AEMMVTWGOXB08P46U7KVK", "current_trial": 72, "dateTime": 1509162861691, "trialdata": {"rt": -1000, "stimulus": "/static/audio/wordpool/DRESSER.wav", "key_press": -1, "type": "PRES_AUD", "word": "dresser", "wordID": 495, "conditions": [18, 1200, "a", 18000], "trial": 1, "serialpos": 17, "trial_type": "single-audio", "trial_index": 72, "time_elapsed": 392984, "internal_node_id": "0.0-54.0"}}, {"uniqueid": "MTK0116:3YOH7BII0AEMMVTWGOXB08P46U7KVK", "current_trial": 73, "dateTime": 1509162862965, "trialdata": {"rt": -1, "stimulus": "", "key_press": -1, "type": "PRE_RECALL_DELAY", "trial_type": "single-stim", "trial_index": 73, "time_elapsed": 394258, "internal_node_id": "0.0-55.0-0.0"}}, {"uniqueid": "MTK0116:3YOH7BII0AEMMVTWGOXB08P46U7KVK", "current_trial": 74, "dateTime": 1509162863468, "trialdata": {"rt": -1000, "stimulus": "/static/audio/400Hz.wav", "key_press": -1, "type": "PRE_RECALL_ALERT", "trial_type": "single-audio", "trial_index": 74, "time_elapsed": 394761, "internal_node_id": "0.0-56.0"}}, {"uniqueid": "MTK0116:3YOH7BII0AEMMVTWGOXB08P46U7KVK", "current_trial": 75, "dateTime": 1509162923471, "trialdata": {"rt": [3262, 5702, 7550, 11350, 16670, 23310, 25718, 37141], "recwords": ["dresser", "clamp", "spoon", "orchid", "airport", "donkey", "rooster", "cousin"], "type": "FREE_RECALL", "conditions": [18, 1200, "a", 18000], "trial": 1, "trial_type": "free-recall", "trial_index": 75, "time_elapsed": 454762, "internal_node_id": "0.0-57.0-0.0"}}, {"uniqueid": "MTK0116:3YOH7BII0AEMMVTWGOXB08P46U7KVK", "current_trial": 76, "dateTime": 1509162936218, "trialdata": {"rt": 10744, "key_press": 32, "type": "INSTRUCTIONS", "trial_type": "text", "trial_index": 76, "time_elapsed": 467511, "internal_node_id": "0.0-58.0"}}, {"uniqueid": "MTK0116:3YOH7BII0AEMMVTWGOXB08P46U7KVK", "current_trial": 77, "dateTime": 1509162949221, "trialdata": {"rt": [2399, 5143, 7247, 9663], "responses": ["14", "13", "11", "17"], "num1": [8, 5, 4, 8, 7], "num2": [2, 4, 1, 1, 4], "num3": [4, 4, 6, 8, 9], "type": "DISTRACTOR", "conditions": [12, 1600, "a", 12000], "trial": 2, "trial_type": "math-distractor", "trial_index": 77, "time_elapsed": 480514, "internal_node_id": "0.0-59.0"}}, {"uniqueid": "MTK0116:3YOH7BII0AEMMVTWGOXB08P46U7KVK", "current_trial": 78, "dateTime": 1509162952223, "trialdata": {"rt": -1, "stimulus": "<p id=\"stim\">10</p>", "key_press": -1, "trial_type": "single-stim", "trial_index": 78, "time_elapsed": 483516, "internal_node_id": "0.0-60.0-0.0"}}, {"uniqueid": "MTK0116:3YOH7BII0AEMMVTWGOXB08P46U7KVK", "current_trial": 79, "dateTime": 1509162953225, "trialdata": {"rt": -1, "stimulus": "<p id=\"stim\">9</p>", "key_press": -1, "trial_type": "single-stim", "trial_index": 79, "time_elapsed": 484518, "internal_node_id": "0.0-60.0-1.0"}}, {"uniqueid": "MTK0116:3YOH7BII0AEMMVTWGOXB08P46U7KVK", "current_trial": 80, "dateTime": 1509162954226, "trialdata": {"rt": -1, "stimulus": "<p id=\"stim\">8</p>", "key_press": -1, "trial_type": "single-stim", "trial_index": 80, "time_elapsed": 485519, "internal_node_id": "0.0-60.0-2.0"}}, {"uniqueid": "MTK0116:3YOH7BII0AEMMVTWGOXB08P46U7KVK", "current_trial": 81, "dateTime": 1509162955227, "trialdata": {"rt": -1, "stimulus": "<p id=\"stim\">7</p>", "key_press": -1, "trial_type": "single-stim", "trial_index": 81, "time_elapsed": 486520, "internal_node_id": "0.0-60.0-3.0"}}, {"uniqueid": "MTK0116:3YOH7BII0AEMMVTWGOXB08P46U7KVK", "current_trial": 82, "dateTime": 1509162956229, "trialdata": {"rt": -1, "stimulus": "<p id=\"stim\">6</p>", "key_press": -1, "trial_type": "single-stim", "trial_index": 82, "time_elapsed": 487522, "internal_node_id": "0.0-60.0-4.0"}}, {"uniqueid": "MTK0116:3YOH7BII0AEMMVTWGOXB08P46U7KVK", "current_trial": 83, "dateTime": 1509162957231, "trialdata": {"rt": -1, "stimulus": "<p id=\"stim\">5</p>", "key_press": -1, "trial_type": "single-stim", "trial_index": 83, "time_elapsed": 488524, "internal_node_id": "0.0-60.0-5.0"}}, {"uniqueid": "MTK0116:3YOH7BII0AEMMVTWGOXB08P46U7KVK", "current_trial": 84, "dateTime": 1509162958233, "trialdata": {"rt": -1, "stimulus": "<p id=\"stim\">4</p>", "key_press": -1, "trial_type": "single-stim", "trial_index": 84, "time_elapsed": 489526, "internal_node_id": "0.0-60.0-6.0"}}, {"uniqueid": "MTK0116:3YOH7BII0AEMMVTWGOXB08P46U7KVK", "current_trial": 85, "dateTime": 1509162959234, "trialdata": {"rt": -1, "stimulus": "<p id=\"stim\">3</p>", "key_press": -1, "trial_type": "single-stim", "trial_index": 85, "time_elapsed": 490527, "internal_node_id": "0.0-60.0-7.0"}}, {"uniqueid": "MTK0116:3YOH7BII0AEMMVTWGOXB08P46U7KVK", "current_trial": 86, "dateTime": 1509162960235, "trialdata": {"rt": -1, "stimulus": "<p id=\"stim\">2</p>", "key_press": -1, "trial_type": "single-stim", "trial_index": 86, "time_elapsed": 491528, "internal_node_id": "0.0-60.0-8.0"}}, {"uniqueid": "MTK0116:3YOH7BII0AEMMVTWGOXB08P46U7KVK", "current_trial": 87, "dateTime": 1509162961236, "trialdata": {"rt": -1, "stimulus": "<p id=\"stim\">1</p>", "key_press": -1, "trial_type": "single-stim", "trial_index": 87, "time_elapsed": 492529, "internal_node_id": "0.0-60.0-9.0"}}, {"uniqueid": "MTK0116:3YOH7BII0AEMMVTWGOXB08P46U7KVK", "current_trial": 88, "dateTime": 1509162962737, "trialdata": {"rt": -1, "stimulus": "<p id=\"stim\">+</p>", "key_press": -1, "type": "FIXATION", "trial_type": "single-stim", "trial_index": 88, "time_elapsed": 494030, "internal_node_id": "0.0-61.0-0.0"}}, {"uniqueid": "MTK0116:3YOH7BII0AEMMVTWGOXB08P46U7KVK", "current_trial": 89, "dateTime": 1509162965237, "trialdata": {"rt": -1000, "stimulus": "/static/audio/wordpool/FLUTE.wav", "key_press": -1, "type": "PRES_AUD", "word": "flute", "wordID": 584, "conditions": [12, 1600, "a", 12000], "trial": 2, "serialpos": 0, "trial_type": "single-audio", "trial_index": 89, "time_elapsed": 496530, "internal_node_id": "0.0-62.0"}}, {"uniqueid": "MTK0116:3YOH7BII0AEMMVTWGOXB08P46U7KVK", "current_trial": 90, "dateTime": 1509162967816, "trialdata": {"rt": -1000, "stimulus": "/static/audio/wordpool/CARROT.wav", "key_press": -1, "type": "PRES_AUD", "word": "carrot", "wordID": 248, "conditions": [12, 1600, "a", 12000], "trial": 2, "serialpos": 1, "trial_type": "single-audio", "trial_index": 90, "time_elapsed": 499109, "internal_node_id": "0.0-63.0"}}, {"uniqueid": "MTK0116:3YOH7BII0AEMMVTWGOXB08P46U7KVK", "current_trial": 91, "dateTime": 1509162970432, "trialdata": {"rt": -1000, "stimulus": "/static/audio/wordpool/SEAGULL.wav", "key_press": -1, "type": "PRES_AUD", "word": "seagull", "wordID": 1260, "conditions": [12, 1600, "a", 12000], "trial": 2, "serialpos": 2, "trial_type": "single-audio", "trial_index": 91, "time_elapsed": 501725, "internal_node_id": "0.0-64.0"}}, {"uniqueid": "MTK0116:3YOH7BII0AEMMVTWGOXB08P46U7KVK", "current_trial": 92, "dateTime": 1509162972868, "trialdata": {"rt": -1000, "stimulus": "/static/audio/wordpool/SOFTBALL.wav", "key_press": -1, "type": "PRES_AUD", "word": "softball", "wordID": 1342, "conditions": [12, 1600, "a", 12000], "trial": 2, "serialpos": 3, "trial_type": "single-audio", "trial_index": 92, "time_elapsed": 504161, "internal_node_id": "0.0-65.0"}}, {"uniqueid": "MTK0116:3YOH7BII0AEMMVTWGOXB08P46U7KVK", "current_trial": 93, "dateTime": 1509162975623, "trialdata": {"rt": -1000, "stimulus": "/static/audio/wordpool/PERMIT.wav", "key_press": -1, "type": "PRES_AUD", "word": "permit", "wordID": 1050, "conditions": [12, 1600, "a", 12000], "trial": 2, "serialpos": 4, "trial_type": "single-audio", "trial_index": 93, "time_elapsed": 506916, "internal_node_id": "0.0-66.0"}}, {"uniqueid": "MTK0116:3YOH7BII0AEMMVTWGOXB08P46U7KVK", "current_trial": 94, "dateTime": 1509162978134, "trialdata": {"rt": -1000, "stimulus": "/static/audio/wordpool/ARM.wav", "key_press": -1, "type": "PRES_AUD", "word": "arm", "wordID": 37, "conditions": [12, 1600, "a", 12000], "trial": 2, "serialpos": 5, "trial_type": "single-audio", "trial_index": 94, "time_elapsed": 509427, "internal_node_id": "0.0-67.0"}}, {"uniqueid": "MTK0116:3YOH7BII0AEMMVTWGOXB08P46U7KVK", "current_trial": 95, "dateTime": 1509162980891, "trialdata": {"rt": -1000, "stimulus": "/static/audio/wordpool/HEADBAND.wav", "key_press": -1, "type": "PRES_AUD", "word": "headband", "wordID": 695, "conditions": [12, 1600, "a", 12000], "trial": 2, "serialpos": 6, "trial_type": "single-audio", "trial_index": 95, "time_elapsed": 512184, "internal_node_id": "0.0-68.0"}}, {"uniqueid": "MTK0116:3YOH7BII0AEMMVTWGOXB08P46U7KVK", "current_trial": 96, "dateTime": 1509162983554, "trialdata": {"rt": -1000, "stimulus": "/static/audio/wordpool/RECEIPT.wav", "key_press": -1, "type": "PRES_AUD", "word": "receipt", "wordID": 1172, "conditions": [12, 1600, "a", 12000], "trial": 2, "serialpos": 7, "trial_type": "single-audio", "trial_index": 96, "time_elapsed": 514847, "internal_node_id": "0.0-69.0"}}, {"uniqueid": "MTK0116:3YOH7BII0AEMMVTWGOXB08P46U7KVK", "current_trial": 97, "dateTime": 1509162986114, "trialdata": {"rt": -1000, "stimulus": "/static/audio/wordpool/FRAME.wav", "key_press": -1, "type": "PRES_AUD", "word": "frame", "wordID": 599, "conditions": [12, 1600, "a", 12000], "trial": 2, "serialpos": 8, "trial_type": "single-audio", "trial_index": 97, "time_elapsed": 517407, "internal_node_id": "0.0-70.0"}}, {"uniqueid": "MTK0116:3YOH7BII0AEMMVTWGOXB08P46U7KVK", "current_trial": 98, "dateTime": 1509162988543, "trialdata": {"rt": -1000, "stimulus": "/static/audio/wordpool/GRAPE.wav", "key_press": -1, "type": "PRES_AUD", "word": "grape", "wordID": 653, "conditions": [12, 1600, "a", 12000], "trial": 2, "serialpos": 9, "trial_type": "single-audio", "trial_index": 98, "time_elapsed": 519836, "internal_node_id": "0.0-71.0"}}, {"uniqueid": "MTK0116:3YOH7BII0AEMMVTWGOXB08P46U7KVK", "current_trial": 99, "dateTime": 1509162991252, "trialdata": {"rt": -1000, "stimulus": "/static/audio/wordpool/APPLE.wav", "key_press": -1, "type": "PRES_AUD", "word": "apple", "wordID": 32, "conditions": [12, 1600, "a", 12000], "trial": 2, "serialpos": 10, "trial_type": "single-audio", "trial_index": 99, "time_elapsed": 522545, "internal_node_id": "0.0-72.0"}}, {"uniqueid": "MTK0116:3YOH7BII0AEMMVTWGOXB08P46U7KVK", "current_trial": 100, "dateTime": 1509162993921, "trialdata": {"rt": -1000, "stimulus": "/static/audio/wordpool/SHIRT.wav", "key_press": -1, "type": "PRES_AUD", "word": "shirt", "wordID": 1286, "conditions": [12, 1600, "a", 12000], "trial": 2, "serialpos": 11, "trial_type": "single-audio", "trial_index": 100, "time_elapsed": 525214, "internal_node_id": "0.0-73.0"}}, {"uniqueid": "MTK0116:3YOH7BII0AEMMVTWGOXB08P46U7KVK", "current_trial": 101, "dateTime": 1509162995258, "trialdata": {"rt": -1, "stimulus": "", "key_press": -1, "type": "PRE_RECALL_DELAY", "trial_type": "single-stim", "trial_index": 101, "time_elapsed": 526551, "internal_node_id": "0.0-74.0-0.0"}}, {"uniqueid": "MTK0116:3YOH7BII0AEMMVTWGOXB08P46U7KVK", "current_trial": 102, "dateTime": 1509162995768, "trialdata": {"rt": -1000, "stimulus": "/static/audio/400Hz.wav", "key_press": -1, "type": "PRE_RECALL_ALERT", "trial_type": "single-audio", "trial_index": 102, "time_elapsed": 527061, "internal_node_id": "0.0-75.0"}}, {"uniqueid": "MTK0116:3YOH7BII0AEMMVTWGOXB08P46U7KVK", "current_trial": 103, "dateTime": 1509163055772, "trialdata": {"rt": [3129, 4377, 6073, 9377, 11137, 15353, 56961], "recwords": ["shirt", "grape", "apple", "carrot", "flute", "headband", "seagull"], "type": "FREE_RECALL", "conditions": [12, 1600, "a", 12000], "trial": 2, "trial_type": "free-recall", "trial_index": 103, "time_elapsed": 587063, "internal_node_id": "0.0-76.0-0.0"}}, {"uniqueid": "MTK0116:3YOH7BII0AEMMVTWGOXB08P46U7KVK", "current_trial": 104, "dateTime": 1509163059850, "trialdata": {"rt": 2076, "key_press": 32, "type": "INSTRUCTIONS", "trial_type": "text", "trial_index": 104, "time_elapsed": 591143, "internal_node_id": "0.0-77.0"}}, {"uniqueid": "MTK0116:3YOH7BII0AEMMVTWGOXB08P46U7KVK", "current_trial": 105, "dateTime": 1509163073853, "trialdata": {"rt": [2942, 5094, 7263, 9175, 11487], "responses": ["13", "15", "18", "14", "21"], "num1": [3, 6, 7, 1, 5, 1], "num2": [3, 8, 8, 5, 9, 8], "num3": [7, 1, 3, 8, 7, 4], "type": "DISTRACTOR", "conditions": [12, 800, "v", 12000], "trial": 3, "trial_type": "math-distractor", "trial_index": 105, "time_elapsed": 605146, "internal_node_id": "0.0-78.0"}}, {"uniqueid": "MTK0116:3YOH7BII0AEMMVTWGOXB08P46U7KVK", "current_trial": 106, "dateTime": 1509163076857, "trialdata": {"rt": -1, "stimulus": "<p id=\"stim\">10</p>", "key_press": -1, "trial_type": "single-stim", "trial_index": 106, "time_elapsed": 608150, "internal_node_id": "0.0-79.0-0.0"}}, {"uniqueid": "MTK0116:3YOH7BII0AEMMVTWGOXB08P46U7KVK", "current_trial": 107, "dateTime": 1509163077859, "trialdata": {"rt": -1, "stimulus": "<p id=\"stim\">9</p>", "key_press": -1, "trial_type": "single-stim", "trial_index": 107, "time_elapsed": 609152, "internal_node_id": "0.0-79.0-1.0"}}, {"uniqueid": "MTK0116:3YOH7BII0AEMMVTWGOXB08P46U7KVK", "current_trial": 108, "dateTime": 1509163078860, "trialdata": {"rt": -1, "stimulus": "<p id=\"stim\">8</p>", "key_press": -1, "trial_type": "single-stim", "trial_index": 108, "time_elapsed": 610153, "internal_node_id": "0.0-79.0-2.0"}}, {"uniqueid": "MTK0116:3YOH7BII0AEMMVTWGOXB08P46U7KVK", "current_trial": 109, "dateTime": 1509163079861, "trialdata": {"rt": -1, "stimulus": "<p id=\"stim\">7</p>", "key_press": -1, "trial_type": "single-stim", "trial_index": 109, "time_elapsed": 611154, "internal_node_id": "0.0-79.0-3.0"}}, {"uniqueid": "MTK0116:3YOH7BII0AEMMVTWGOXB08P46U7KVK", "current_trial": 110, "dateTime": 1509163080863, "trialdata": {"rt": -1, "stimulus": "<p id=\"stim\">6</p>", "key_press": -1, "trial_type": "single-stim", "trial_index": 110, "time_elapsed": 612156, "internal_node_id": "0.0-79.0-4.0"}}, {"uniqueid": "MTK0116:3YOH7BII0AEMMVTWGOXB08P46U7KVK", "current_trial": 111, "dateTime": 1509163081865, "trialdata": {"rt": -1, "stimulus": "<p id=\"stim\">5</p>", "key_press": -1, "trial_type": "single-stim", "trial_index": 111, "time_elapsed": 613158, "internal_node_id": "0.0-79.0-5.0"}}, {"uniqueid": "MTK0116:3YOH7BII0AEMMVTWGOXB08P46U7KVK", "current_trial": 112, "dateTime": 1509163082867, "trialdata": {"rt": -1, "stimulus": "<p id=\"stim\">4</p>", "key_press": -1, "trial_type": "single-stim", "trial_index": 112, "time_elapsed": 614160, "internal_node_id": "0.0-79.0-6.0"}}, {"uniqueid": "MTK0116:3YOH7BII0AEMMVTWGOXB08P46U7KVK", "current_trial": 113, "dateTime": 1509163083868, "trialdata": {"rt": -1, "stimulus": "<p id=\"stim\">3</p>", "key_press": -1, "trial_type": "single-stim", "trial_index": 113, "time_elapsed": 615161, "internal_node_id": "0.0-79.0-7.0"}}, {"uniqueid": "MTK0116:3YOH7BII0AEMMVTWGOXB08P46U7KVK", "current_trial": 114, "dateTime": 1509163084869, "trialdata": {"rt": -1, "stimulus": "<p id=\"stim\">2</p>", "key_press": -1, "trial_type": "single-stim", "trial_index": 114, "time_elapsed": 616162, "internal_node_id": "0.0-79.0-8.0"}}, {"uniqueid": "MTK0116:3YOH7BII0AEMMVTWGOXB08P46U7KVK", "current_trial": 115, "dateTime": 1509163085871, "trialdata": {"rt": -1, "stimulus": "<p id=\"stim\">1</p>", "key_press": -1, "trial_type": "single-stim", "trial_index": 115, "time_elapsed": 617164, "internal_node_id": "0.0-79.0-9.0"}}, {"uniqueid": "MTK0116:3YOH7BII0AEMMVTWGOXB08P46U7KVK", "current_trial": 116, "dateTime": 1509163087372, "trialdata": {"rt": -1, "stimulus": "<p id=\"stim\">+</p>", "key_press": -1, "type": "FIXATION", "trial_type": "single-stim", "trial_index": 116, "time_elapsed": 618665, "internal_node_id": "0.0-80.0-0.0"}}, {"uniqueid": "MTK0116:3YOH7BII0AEMMVTWGOXB08P46U7KVK", "current_trial": 117, "dateTime": 1509163088173, "trialdata": {"rt": -1, "stimulus": "<p id=\"stim\">EUROPE</p>", "key_press": -1, "type": "PRES_VIS", "word": "europe", "wordID": 540, "conditions": [12, 800, "v", 12000], "trial": 3, "serialpos": 0, "trial_type": "single-stim", "trial_index": 117, "time_elapsed": 619466, "internal_node_id": "0.0-81.0"}}, {"uniqueid": "MTK0116:3YOH7BII0AEMMVTWGOXB08P46U7KVK", "current_trial": 118, "dateTime": 1509163089988, "trialdata": {"rt": -1, "stimulus": "<p id=\"stim\">EGYPT</p>", "key_press": -1, "type": "PRES_VIS", "word": "egypt", "wordID": 518, "conditions": [12, 800, "v", 12000], "trial": 3, "serialpos": 1, "trial_type": "single-stim", "trial_index": 118, "time_elapsed": 621281, "internal_node_id": "0.0-82.0"}}, {"uniqueid": "MTK0116:3YOH7BII0AEMMVTWGOXB08P46U7KVK", "current_trial": 119, "dateTime": 1509163091687, "trialdata": {"rt": -1, "stimulus": "<p id=\"stim\">LAKE</p>", "key_press": -1, "type": "PRES_VIS", "word": "lake", "wordID": 795, "conditions": [12, 800, "v", 12000], "trial": 3, "serialpos": 2, "trial_type": "single-stim", "trial_index": 119, "time_elapsed": 622980, "internal_node_id": "0.0-83.0"}}, {"uniqueid": "MTK0116:3YOH7BII0AEMMVTWGOXB08P46U7KVK", "current_trial": 120, "dateTime": 1509163093327, "trialdata": {"rt": -1, "stimulus": "<p id=\"stim\">SUNRISE</p>", "key_press": -1, "type": "PRES_VIS", "word": "sunrise", "wordID": 1406, "conditions": [12, 800, "v", 12000], "trial": 3, "serialpos": 3, "trial_type": "single-stim", "trial_index": 120, "time_elapsed": 624620, "internal_node_id": "0.0-84.0"}}, {"uniqueid": "MTK0116:3YOH7BII0AEMMVTWGOXB08P46U7KVK", "current_trial": 121, "dateTime": 1509163095039, "trialdata": {"rt": -1, "stimulus": "<p id=\"stim\">JUDGE</p>", "key_press": -1, "type": "PRES_VIS", "word": "judge", "wordID": 760, "conditions": [12, 800, "v", 12000], "trial": 3, "serialpos": 4, "trial_type": "single-stim", "trial_index": 121, "time_elapsed": 626332, "internal_node_id": "0.0-85.0"}}, {"uniqueid": "MTK0116:3YOH7BII0AEMMVTWGOXB08P46U7KVK", "current_trial": 122, "dateTime": 1509163097004, "trialdata": {"rt": -1, "stimulus": "<p id=\"stim\">WOMAN</p>", "key_press": -1, "type": "PRES_VIS", "word": "woman", "wordID": 1619, "conditions": [12, 800, "v", 12000], "trial": 3, "serialpos": 5, "trial_type": "single-stim", "trial_index": 122, "time_elapsed": 628297, "internal_node_id": "0.0-86.0"}}, {"uniqueid": "MTK0116:3YOH7BII0AEMMVTWGOXB08P46U7KVK", "current_trial": 123, "dateTime": 1509163098650, "trialdata": {"rt": -1, "stimulus": "<p id=\"stim\">CITRUS</p>", "key_press": -1, "type": "PRES_VIS", "word": "citrus", "wordID": 312, "conditions": [12, 800, "v", 12000], "trial": 3, "serialpos": 6, "trial_type": "single-stim", "trial_index": 123, "time_elapsed": 629943, "internal_node_id": "0.0-87.0"}}, {"uniqueid": "MTK0116:3YOH7BII0AEMMVTWGOXB08P46U7KVK", "current_trial": 124, "dateTime": 1509163100569, "trialdata": {"rt": -1, "stimulus": "<p id=\"stim\">PATIENT</p>", "key_press": -1, "type": "PRES_VIS", "word": "patient", "wordID": 1023, "conditions": [12, 800, "v", 12000], "trial": 3, "serialpos": 7, "trial_type": "single-stim", "trial_index": 124, "time_elapsed": 631862, "internal_node_id": "0.0-88.0"}}, {"uniqueid": "MTK0116:3YOH7BII0AEMMVTWGOXB08P46U7KVK", "current_trial": 125, "dateTime": 1509163102381, "trialdata": {"rt": -1, "stimulus": "<p id=\"stim\">DONOR</p>", "key_press": -1, "type": "PRES_VIS", "word": "donor", "wordID": 484, "conditions": [12, 800, "v", 12000], "trial": 3, "serialpos": 8, "trial_type": "single-stim", "trial_index": 125, "time_elapsed": 633674, "internal_node_id": "0.0-89.0"}}, {"uniqueid": "MTK0116:3YOH7BII0AEMMVTWGOXB08P46U7KVK", "current_trial": 126, "dateTime": 1509163104319, "trialdata": {"rt": -1, "stimulus": "<p id=\"stim\">ROBOT</p>", "key_press": -1, "type": "PRES_VIS", "word": "robot", "wordID": 1199, "conditions": [12, 800, "v", 12000], "trial": 3, "serialpos": 9, "trial_type": "single-stim", "trial_index": 126, "time_elapsed": 635612, "internal_node_id": "0.0-90.0"}}, {"uniqueid": "MTK0116:3YOH7BII0AEMMVTWGOXB08P46U7KVK", "current_trial": 127, "dateTime": 1509163106013, "trialdata": {"rt": -1, "stimulus": "<p id=\"stim\">BEEF</p>", "key_press": -1, "type": "PRES_VIS", "word": "beef", "wordID": 112, "conditions": [12, 800, "v", 12000], "trial": 3, "serialpos": 10, "trial_type": "single-stim", "trial_index": 127, "time_elapsed": 637306, "internal_node_id": "0.0-91.0"}}, {"uniqueid": "MTK0116:3YOH7BII0AEMMVTWGOXB08P46U7KVK", "current_trial": 128, "dateTime": 1509163107862, "trialdata": {"rt": -1, "stimulus": "<p id=\"stim\">SUNSET</p>", "key_press": -1, "type": "PRES_VIS", "word": "sunset", "wordID": 1407, "conditions": [12, 800, "v", 12000], "trial": 3, "serialpos": 11, "trial_type": "single-stim", "trial_index": 128, "time_elapsed": 639155, "internal_node_id": "0.0-92.0"}}, {"uniqueid": "MTK0116:3YOH7BII0AEMMVTWGOXB08P46U7KVK", "current_trial": 129, "dateTime": 1509163110321, "trialdata": {"rt": -1, "stimulus": "", "key_press": -1, "type": "PRE_RECALL_DELAY", "trial_type": "single-stim", "trial_index": 129, "time_elapsed": 641614, "internal_node_id": "0.0-93.0-0.0"}}, {"uniqueid": "MTK0116:3YOH7BII0AEMMVTWGOXB08P46U7KVK", "current_trial": 130, "dateTime": 1509163110829, "trialdata": {"rt": -1000, "stimulus": "/static/audio/400Hz.wav", "key_press": -1, "type": "PRE_RECALL_ALERT", "trial_type": "single-audio", "trial_index": 130, "time_elapsed": 642122, "internal_node_id": "0.0-94.0"}}, {"uniqueid": "MTK0116:3YOH7BII0AEMMVTWGOXB08P46U7KVK", "current_trial": 131, "dateTime": 1509163170833, "trialdata": {"rt": [2172, 3892, 6836, 8268, 9524, 13604, 17236], "recwords": ["sunset", "lake", "judge", "woman", "robot", "europe", "egypt"], "type": "FREE_RECALL", "conditions": [12, 800, "v", 12000], "trial": 3, "trial_type": "free-recall", "trial_index": 131, "time_elapsed": 702124, "internal_node_id": "0.0-95.0-0.0"}}, {"uniqueid": "MTK0116:3YOH7BII0AEMMVTWGOXB08P46U7KVK", "current_trial": 132, "dateTime": 1509163175027, "trialdata": {"rt": 2191, "key_press": 32, "type": "INSTRUCTIONS", "trial_type": "text", "trial_index": 132, "time_elapsed": 706320, "internal_node_id": "0.0-96.0"}}, {"uniqueid": "MTK0116:3YOH7BII0AEMMVTWGOXB08P46U7KVK", "current_trial": 133, "dateTime": 1509163201030, "trialdata": {"rt": [1974, 4134, 5910, 7405, 9221, 10989, 12837, 15013, 16910, 19334, 21110], "responses": ["18", "19", "11", "17", "15", "10", "18", "14", "18", "21", "13"], "num1": [9, 8, 2, 8, 9, 2, 2, 3, 3, 6, 2, 4], "num2": [3, 9, 6, 8, 5, 3, 8, 4, 9, 6, 3, 5], "num3": [6, 2, 3, 1, 1, 5, 8, 7, 6, 9, 8, 5], "type": "DISTRACTOR", "conditions": [24, 1600, "v", 24000], "trial": 4, "trial_type": "math-distractor", "trial_index": 133, "time_elapsed": 732323, "internal_node_id": "0.0-97.0"}}, {"uniqueid": "MTK0116:3YOH7BII0AEMMVTWGOXB08P46U7KVK", "current_trial": 134, "dateTime": 1509163204034, "trialdata": {"rt": -1, "stimulus": "<p id=\"stim\">10</p>", "key_press": -1, "trial_type": "single-stim", "trial_index": 134, "time_elapsed": 735327, "internal_node_id": "0.0-98.0-0.0"}}, {"uniqueid": "MTK0116:3YOH7BII0AEMMVTWGOXB08P46U7KVK", "current_trial": 135, "dateTime": 1509163205035, "trialdata": {"rt": -1, "stimulus": "<p id=\"stim\">9</p>", "key_press": -1, "trial_type": "single-stim", "trial_index": 135, "time_elapsed": 736328, "internal_node_id": "0.0-98.0-1.0"}}, {"uniqueid": "MTK0116:3YOH7BII0AEMMVTWGOXB08P46U7KVK", "current_trial": 136, "dateTime": 1509163206036, "trialdata": {"rt": -1, "stimulus": "<p id=\"stim\">8</p>", "key_press": -1, "trial_type": "single-stim", "trial_index": 136, "time_elapsed": 737329, "internal_node_id": "0.0-98.0-2.0"}}, {"uniqueid": "MTK0116:3YOH7BII0AEMMVTWGOXB08P46U7KVK", "current_trial": 137, "dateTime": 1509163207037, "trialdata": {"rt": -1, "stimulus": "<p id=\"stim\">7</p>", "key_press": -1, "trial_type": "single-stim", "trial_index": 137, "time_elapsed": 738330, "internal_node_id": "0.0-98.0-3.0"}}, {"uniqueid": "MTK0116:3YOH7BII0AEMMVTWGOXB08P46U7KVK", "current_trial": 138, "dateTime": 1509163208039, "trialdata": {"rt": -1, "stimulus": "<p id=\"stim\">6</p>", "key_press": -1, "trial_type": "single-stim", "trial_index": 138, "time_elapsed": 739332, "internal_node_id": "0.0-98.0-4.0"}}, {"uniqueid": "MTK0116:3YOH7BII0AEMMVTWGOXB08P46U7KVK", "current_trial": 139, "dateTime": 1509163209041, "trialdata": {"rt": -1, "stimulus": "<p id=\"stim\">5</p>", "key_press": -1, "trial_type": "single-stim", "trial_index": 139, "time_elapsed": 740334, "internal_node_id": "0.0-98.0-5.0"}}, {"uniqueid": "MTK0116:3YOH7BII0AEMMVTWGOXB08P46U7KVK", "current_trial": 140, "dateTime": 1509163210042, "trialdata": {"rt": -1, "stimulus": "<p id=\"stim\">4</p>", "key_press": -1, "trial_type": "single-stim", "trial_index": 140, "time_elapsed": 741335, "internal_node_id": "0.0-98.0-6.0"}}, {"uniqueid": "MTK0116:3YOH7BII0AEMMVTWGOXB08P46U7KVK", "current_trial": 141, "dateTime": 1509163211043, "trialdata": {"rt": -1, "stimulus": "<p id=\"stim\">3</p>", "key_press": -1, "trial_type": "single-stim", "trial_index": 141, "time_elapsed": 742336, "internal_node_id": "0.0-98.0-7.0"}}, {"uniqueid": "MTK0116:3YOH7BII0AEMMVTWGOXB08P46U7KVK", "current_trial": 142, "dateTime": 1509163212045, "trialdata": {"rt": -1, "stimulus": "<p id=\"stim\">2</p>", "key_press": -1, "trial_type": "single-stim", "trial_index": 142, "time_elapsed": 743338, "internal_node_id": "0.0-98.0-8.0"}}, {"uniqueid": "MTK0116:3YOH7BII0AEMMVTWGOXB08P46U7KVK", "current_trial": 143, "dateTime": 1509163213046, "trialdata": {"rt": -1, "stimulus": "<p id=\"stim\">1</p>", "key_press": -1, "trial_type": "single-stim", "trial_index": 143, "time_elapsed": 744339, "internal_node_id": "0.0-98.0-9.0"}}, {"uniqueid": "MTK0116:3YOH7BII0AEMMVTWGOXB08P46U7KVK", "current_trial": 144, "dateTime": 1509163214548, "trialdata": {"rt": -1, "stimulus": "<p id=\"stim\">+</p>", "key_press": -1, "type": "FIXATION", "trial_type": "single-stim", "trial_index": 144, "time_elapsed": 745840, "internal_node_id": "0.0-99.0-0.0"}}, {"uniqueid": "MTK0116:3YOH7BII0AEMMVTWGOXB08P46U7KVK", "current_trial": 145, "dateTime": 1509163216149, "trialdata": {"rt": -1, "stimulus": "<p id=\"stim\">CROWN</p>", "key_press": -1, "type": "PRES_VIS", "word": "crown", "wordID": 414, "conditions": [24, 1600, "v", 24000], "trial": 4, "serialpos": 0, "trial_type": "single-stim", "trial_index": 145, "time_elapsed": 747442, "internal_node_id": "0.0-100.0"}}, {"uniqueid": "MTK0116:3YOH7BII0AEMMVTWGOXB08P46U7KVK", "current_trial": 146, "dateTime": 1509163218620, "trialdata": {"rt": -1, "stimulus": "<p id=\"stim\">LIZARD</p>", "key_press": -1, "type": "PRES_VIS", "word": "lizard", "wordID": 833, "conditions": [24, 1600, "v", 24000], "trial": 4, "serialpos": 1, "trial_type": "single-stim", "trial_index": 146, "time_elapsed": 749913, "internal_node_id": "0.0-101.0"}}, {"uniqueid": "MTK0116:3YOH7BII0AEMMVTWGOXB08P46U7KVK", "current_trial": 147, "dateTime": 1509163221104, "trialdata": {"rt": -1, "stimulus": "<p id=\"stim\">PAPER</p>", "key_press": -1, "type": "PRES_VIS", "word": "paper", "wordID": 1010, "conditions": [24, 1600, "v", 24000], "trial": 4, "serialpos": 2, "trial_type": "single-stim", "trial_index": 147, "time_elapsed": 752397, "internal_node_id": "0.0-102.0"}}, {"uniqueid": "MTK0116:3YOH7BII0AEMMVTWGOXB08P46U7KVK", "current_trial": 148, "dateTime": 1509163223592, "trialdata": {"rt": -1, "stimulus": "<p id=\"stim\">POWDER</p>", "key_press": -1, "type": "PRES_VIS", "word": "powder", "wordID": 1116, "conditions": [24, 1600, "v", 24000], "trial": 4, "serialpos": 3, "trial_type": "single-stim", "trial_index": 148, "time_elapsed": 754885, "internal_node_id": "0.0-103.0"}}, {"uniqueid": "MTK0116:3YOH7BII0AEMMVTWGOXB08P46U7KVK", "current_trial": 149, "dateTime": 1509163225994, "trialdata": {"rt": -1, "stimulus": "<p id=\"stim\">POSSUM</p>", "key_press": -1, "type": "PRES_VIS", "word": "possum", "wordID": 1111, "conditions": [24, 1600, "v", 24000], "trial": 4, "serialpos": 4, "trial_type": "single-stim", "trial_index": 149, "time_elapsed": 757287, "internal_node_id": "0.0-104.0"}}, {"uniqueid": "MTK0116:3YOH7BII0AEMMVTWGOXB08P46U7KVK", "current_trial": 150, "dateTime": 1509163228625, "trialdata": {"rt": -1, "stimulus": "<p id=\"stim\">FLOWER</p>", "key_press": -1, "type": "PRES_VIS", "word": "flower", "wordID": 583, "conditions": [24, 1600, "v", 24000], "trial": 4, "serialpos": 5, "trial_type": "single-stim", "trial_index": 150, "time_elapsed": 759918, "internal_node_id": "0.0-105.0"}}, {"uniqueid": "MTK0116:3YOH7BII0AEMMVTWGOXB08P46U7KVK", "current_trial": 151, "dateTime": 1509163231176, "trialdata": {"rt": -1, "stimulus": "<p id=\"stim\">RATTLE</p>", "key_press": -1, "type": "PRES_VIS", "word": "rattle", "wordID": 1169, "conditions": [24, 1600, "v", 24000], "trial": 4, "serialpos": 6, "trial_type": "single-stim", "trial_index": 151, "time_elapsed": 762469, "internal_node_id": "0.0-106.0"}}, {"uniqueid": "MTK0116:3YOH7BII0AEMMVTWGOXB08P46U7KVK", "current_trial": 152, "dateTime": 1509163233757, "trialdata": {"rt": -1, "stimulus": "<p id=\"stim\">HAND</p>", "key_press": -1, "type": "PRES_VIS", "word": "hand", "wordID": 682, "conditions": [24, 1600, "v", 24000], "trial": 4, "serialpos": 7, "trial_type": "single-stim", "trial_index": 152, "time_elapsed": 765050, "internal_node_id": "0.0-107.0"}}, {"uniqueid": "MTK0116:3YOH7BII0AEMMVTWGOXB08P46U7KVK", "current_trial": 153, "dateTime": 1509163236548, "trialdata": {"rt": -1, "stimulus": "<p id=\"stim\">KIDNEY</p>", "key_press": -1, "type": "PRES_VIS", "word": "kidney", "wordID": 775, "conditions": [24, 1600, "v", 24000], "trial": 4, "serialpos": 8, "trial_type": "single-stim", "trial_index": 153, "time_elapsed": 767841, "internal_node_id": "0.0-108.0"}}, {"uniqueid": "MTK0116:3YOH7BII0AEMMVTWGOXB08P46U7KVK", "current_trial": 154, "dateTime": 1509163238987, "trialdata": {"rt": -1, "stimulus": "<p id=\"stim\">MARROW</p>", "key_press": -1, "type": "PRES_VIS", "word": "marrow", "wordID": 871, "conditions": [24, 1600, "v", 24000], "trial": 4, "serialpos": 9, "trial_type": "single-stim", "trial_index": 154, "time_elapsed": 770280, "internal_node_id": "0.0-109.0"}}, {"uniqueid": "MTK0116:3YOH7BII0AEMMVTWGOXB08P46U7KVK", "current_trial": 155, "dateTime": 1509163241717, "trialdata": {"rt": -1, "stimulus": "<p id=\"stim\">TEMPLE</p>", "key_press": -1, "type": "PRES_VIS", "word": "temple", "wordID": 1447, "conditions": [24, 1600, "v", 24000], "trial": 4, "serialpos": 10, "trial_type": "single-stim", "trial_index": 155, "time_elapsed": 773010, "internal_node_id": "0.0-110.0"}}, {"uniqueid": "MTK0116:3YOH7BII0AEMMVTWGOXB08P46U7KVK", "current_trial": 156, "dateTime": 1509163244425, "trialdata": {"rt": -1, "stimulus": "<p id=\"stim\">COIN</p>", "key_press": -1, "type": "PRES_VIS", "word": "coin", "wordID": 342, "conditions": [24, 1600, "v", 24000], "trial": 4, "serialpos": 11, "trial_type": "single-stim", "trial_index": 156, "time_elapsed": 775718, "internal_node_id": "0.0-111.0"}}, {"uniqueid": "MTK0116:3YOH7BII0AEMMVTWGOXB08P46U7KVK", "current_trial": 157, "dateTime": 1509163247128, "trialdata": {"rt": -1, "stimulus": "<p id=\"stim\">INFANT</p>", "key_press": -1, "type": "PRES_VIS", "word": "infant", "wordID": 736, "conditions": [24, 1600, "v", 24000], "trial": 4, "serialpos": 12, "trial_type": "single-stim", "trial_index": 157, "time_elapsed": 778421, "internal_node_id": "0.0-112.0"}}, {"uniqueid": "MTK0116:3YOH7BII0AEMMVTWGOXB08P46U7KVK", "current_trial": 158, "dateTime": 1509163249776, "trialdata": {"rt": -1, "stimulus": "<p id=\"stim\">FRUIT</p>", "key_press": -1, "type": "PRES_VIS", "word": "fruit", "wordID": 609, "conditions": [24, 1600, "v", 24000], "trial": 4, "serialpos": 13, "trial_type": "single-stim", "trial_index": 158, "time_elapsed": 781069, "internal_node_id": "0.0-113.0"}}, {"uniqueid": "MTK0116:3YOH7BII0AEMMVTWGOXB08P46U7KVK", "current_trial": 159, "dateTime": 1509163252479, "trialdata": {"rt": -1, "stimulus": "<p id=\"stim\">SODA</p>", "key_press": -1, "type": "PRES_VIS", "word": "soda", "wordID": 1340, "conditions": [24, 1600, "v", 24000], "trial": 4, "serialpos": 14, "trial_type": "single-stim", "trial_index": 159, "time_elapsed": 783772, "internal_node_id": "0.0-114.0"}}, {"uniqueid": "MTK0116:3YOH7BII0AEMMVTWGOXB08P46U7KVK", "current_trial": 160, "dateTime": 1509163254969, "trialdata": {"rt": -1, "stimulus": "<p id=\"stim\">CANDY</p>", "key_press": -1, "type": "PRES_VIS", "word": "candy", "wordID": 229, "conditions": [24, 1600, "v", 24000], "trial": 4, "serialpos": 15, "trial_type": "single-stim", "trial_index": 160, "time_elapsed": 786262, "internal_node_id": "0.0-115.0"}}, {"uniqueid": "MTK0116:3YOH7BII0AEMMVTWGOXB08P46U7KVK", "current_trial": 161, "dateTime": 1509163257573, "trialdata": {"rt": -1, "stimulus": "<p id=\"stim\">PICTURE</p>", "key_press": -1, "type": "PRES_VIS", "word": "picture", "wordID": 1060, "conditions": [24, 1600, "v", 24000], "trial": 4, "serialpos": 16, "trial_type": "single-stim", "trial_index": 161, "time_elapsed": 788866, "internal_node_id": "0.0-116.0"}}, {"uniqueid": "MTK0116:3YOH7BII0AEMMVTWGOXB08P46U7KVK", "current_trial": 162, "dateTime": 1509163260236, "trialdata": {"rt": -1, "stimulus": "<p id=\"stim\">MARSH</p>", "key_press": -1, "type": "PRES_VIS", "word": "marsh", "wordID": 873, "conditions": [24, 1600, "v", 24000], "trial": 4, "serialpos": 17, "trial_type": "single-stim", "trial_index": 162, "time_elapsed": 791529, "internal_node_id": "0.0-117.0"}}, {"uniqueid": "MTK0116:3YOH7BII0AEMMVTWGOXB08P46U7KVK", "current_trial": 163, "dateTime": 1509163262919, "trialdata": {"rt": -1, "stimulus": "<p id=\"stim\">RABBIT</p>", "key_press": -1, "type": "PRES_VIS", "word": "rabbit", "wordID": 1151, "conditions": [24, 1600, "v", 24000], "trial": 4, "serialpos": 18, "trial_type": "single-stim", "trial_index": 163, "time_elapsed": 794212, "internal_node_id": "0.0-118.0"}}, {"uniqueid": "MTK0116:3YOH7BII0AEMMVTWGOXB08P46U7KVK", "current_trial": 164, "dateTime": 1509163265583, "trialdata": {"rt": -1, "stimulus": "<p id=\"stim\">OINTMENT</p>", "key_press": -1, "type": "PRES_VIS", "word": "ointment", "wordID": 973, "conditions": [24, 1600, "v", 24000], "trial": 4, "serialpos": 19, "trial_type": "single-stim", "trial_index": 164, "time_elapsed": 796876, "internal_node_id": "0.0-119.0"}}, {"uniqueid": "MTK0116:3YOH7BII0AEMMVTWGOXB08P46U7KVK", "current_trial": 165, "dateTime": 1509163268250, "trialdata": {"rt": -1, "stimulus": "<p id=\"stim\">LIPSTICK</p>", "key_press": -1, "type": "PRES_VIS", "word": "lipstick", "wordID": 828, "conditions": [24, 1600, "v", 24000], "trial": 4, "serialpos": 20, "trial_type": "single-stim", "trial_index": 165, "time_elapsed": 799543, "internal_node_id": "0.0-120.0"}}, {"uniqueid": "MTK0116:3YOH7BII0AEMMVTWGOXB08P46U7KVK", "current_trial": 166, "dateTime": 1509163270857, "trialdata": {"rt": -1, "stimulus": "<p id=\"stim\">BABY</p>", "key_press": -1, "type": "PRES_VIS", "word": "baby", "wordID": 63, "conditions": [24, 1600, "v", 24000], "trial": 4, "serialpos": 21, "trial_type": "single-stim", "trial_index": 166, "time_elapsed": 802150, "internal_node_id": "0.0-121.0"}}, {"uniqueid": "MTK0116:3YOH7BII0AEMMVTWGOXB08P46U7KVK", "current_trial": 167, "dateTime": 1509163273556, "trialdata": {"rt": -1, "stimulus": "<p id=\"stim\">JUGGLER</p>", "key_press": -1, "type": "PRES_VIS", "word": "juggler", "wordID": 762, "conditions": [24, 1600, "v", 24000], "trial": 4, "serialpos": 22, "trial_type": "single-stim", "trial_index": 167, "time_elapsed": 804849, "internal_node_id": "0.0-122.0"}}, {"uniqueid": "MTK0116:3YOH7BII0AEMMVTWGOXB08P46U7KVK", "current_trial": 168, "dateTime": 1509163276260, "trialdata": {"rt": -1, "stimulus": "<p id=\"stim\">SERVANT</p>", "key_press": -1, "type": "PRES_VIS", "word": "servant", "wordID": 1270, "conditions": [24, 1600, "v", 24000], "trial": 4, "serialpos": 23, "trial_type": "single-stim", "trial_index": 168, "time_elapsed": 807553, "internal_node_id": "0.0-123.0"}}, {"uniqueid": "MTK0116:3YOH7BII0AEMMVTWGOXB08P46U7KVK", "current_trial": 169, "dateTime": 1509163278564, "trialdata": {"rt": -1, "stimulus": "", "key_press": -1, "type": "PRE_RECALL_DELAY", "trial_type": "single-stim", "trial_index": 169, "time_elapsed": 809857, "internal_node_id": "0.0-124.0-0.0"}}, {"uniqueid": "MTK0116:3YOH7BII0AEMMVTWGOXB08P46U7KVK", "current_trial": 170, "dateTime": 1509163279069, "trialdata": {"rt": -1000, "stimulus": "/static/audio/400Hz.wav", "key_press": -1, "type": "PRE_RECALL_ALERT", "trial_type": "single-audio", "trial_index": 170, "time_elapsed": 810362, "internal_node_id": "0.0-125.0"}}, {"uniqueid": "MTK0116:3YOH7BII0AEMMVTWGOXB08P46U7KVK", "current_trial": 171, "dateTime": 1509163339073, "trialdata": {"rt": [2229, 3741, 5805, 8181, 10517, 14621, 17181, 21917, 29685, 32445, 34373], "recwords": ["servant", "juggler", "baby", "ointment", "coin", "lipstick", "crown", "lizard", "rabbit", "marsh", "candy"], "type": "FREE_RECALL", "conditions": [24, 1600, "v", 24000], "trial": 4, "trial_type": "free-recall", "trial_index": 171, "time_elapsed": 870363, "internal_node_id": "0.0-126.0-0.0"}}, {"uniqueid": "MTK0116:3YOH7BII0AEMMVTWGOXB08P46U7KVK", "current_trial": 172, "dateTime": 1509163342386, "trialdata": {"rt": 1310, "key_press": 32, "type": "INSTRUCTIONS", "trial_type": "text", "trial_index": 172, "time_elapsed": 873679, "internal_node_id": "0.0-127.0"}}, {"uniqueid": "MTK0116:3YOH7BII0AEMMVTWGOXB08P46U7KVK", "current_trial": 173, "dateTime": 1509163368388, "trialdata": {"rt": [1999, 3767, 5710, 7606, 9198, 11558, 13599, 15295, 16743, 18895, 21503, 23638], "responses": ["15", "12", "11", "6", "18", "16", "20", "18", "9", "12", "19", "17"], "num1": [6, 7, 7, 3, 5, 6, 7, 8, 1, 3, 3, 9, 2], "num2": [8, 4, 2, 2, 9, 5, 5, 3, 5, 6, 9, 5, 1], "num3": [1, 1, 2, 1, 4, 5, 8, 7, 3, 3, 7, 3, 8], "type": "DISTRACTOR", "conditions": [12, 1600, "a", 24000], "trial": 5, "trial_type": "math-distractor", "trial_index": 173, "time_elapsed": 899681, "internal_node_id": "0.0-128.0"}}, {"uniqueid": "MTK0116:3YOH7BII0AEMMVTWGOXB08P46U7KVK", "current_trial": 174, "dateTime": 1509163371390, "trialdata": {"rt": -1, "stimulus": "<p id=\"stim\">10</p>", "key_press": -1, "trial_type": "single-stim", "trial_index": 174, "time_elapsed": 902683, "internal_node_id": "0.0-129.0-0.0"}}, {"uniqueid": "MTK0116:3YOH7BII0AEMMVTWGOXB08P46U7KVK", "current_trial": 175, "dateTime": 1509163372391, "trialdata": {"rt": -1, "stimulus": "<p id=\"stim\">9</p>", "key_press": -1, "trial_type": "single-stim", "trial_index": 175, "time_elapsed": 903684, "internal_node_id": "0.0-129.0-1.0"}}, {"uniqueid": "MTK0116:3YOH7BII0AEMMVTWGOXB08P46U7KVK", "current_trial": 176, "dateTime": 1509163373393, "trialdata": {"rt": -1, "stimulus": "<p id=\"stim\">8</p>", "key_press": -1, "trial_type": "single-stim", "trial_index": 176, "time_elapsed": 904686, "internal_node_id": "0.0-129.0-2.0"}}, {"uniqueid": "MTK0116:3YOH7BII0AEMMVTWGOXB08P46U7KVK", "current_trial": 177, "dateTime": 1509163374394, "trialdata": {"rt": -1, "stimulus": "<p id=\"stim\">7</p>", "key_press": -1, "trial_type": "single-stim", "trial_index": 177, "time_elapsed": 905687, "internal_node_id": "0.0-129.0-3.0"}}, {"uniqueid": "MTK0116:3YOH7BII0AEMMVTWGOXB08P46U7KVK", "current_trial": 178, "dateTime": 1509163375396, "trialdata": {"rt": -1, "stimulus": "<p id=\"stim\">6</p>", "key_press": -1, "trial_type": "single-stim", "trial_index": 178, "time_elapsed": 906689, "internal_node_id": "0.0-129.0-4.0"}}, {"uniqueid": "MTK0116:3YOH7BII0AEMMVTWGOXB08P46U7KVK", "current_trial": 179, "dateTime": 1509163376397, "trialdata": {"rt": -1, "stimulus": "<p id=\"stim\">5</p>", "key_press": -1, "trial_type": "single-stim", "trial_index": 179, "time_elapsed": 907690, "internal_node_id": "0.0-129.0-5.0"}}, {"uniqueid": "MTK0116:3YOH7BII0AEMMVTWGOXB08P46U7KVK", "current_trial": 180, "dateTime": 1509163377399, "trialdata": {"rt": -1, "stimulus": "<p id=\"stim\">4</p>", "key_press": -1, "trial_type": "single-stim", "trial_index": 180, "time_elapsed": 908692, "internal_node_id": "0.0-129.0-6.0"}}, {"uniqueid": "MTK0116:3YOH7BII0AEMMVTWGOXB08P46U7KVK", "current_trial": 181, "dateTime": 1509163378400, "trialdata": {"rt": -1, "stimulus": "<p id=\"stim\">3</p>", "key_press": -1, "trial_type": "single-stim", "trial_index": 181, "time_elapsed": 909693, "internal_node_id": "0.0-129.0-7.0"}}, {"uniqueid": "MTK0116:3YOH7BII0AEMMVTWGOXB08P46U7KVK", "current_trial": 182, "dateTime": 1509163379401, "trialdata": {"rt": -1, "stimulus": "<p id=\"stim\">2</p>", "key_press": -1, "trial_type": "single-stim", "trial_index": 182, "time_elapsed": 910694, "internal_node_id": "0.0-129.0-8.0"}}, {"uniqueid": "MTK0116:3YOH7BII0AEMMVTWGOXB08P46U7KVK", "current_trial": 183, "dateTime": 1509163380402, "trialdata": {"rt": -1, "stimulus": "<p id=\"stim\">1</p>", "key_press": -1, "trial_type": "single-stim", "trial_index": 183, "time_elapsed": 911695, "internal_node_id": "0.0-129.0-9.0"}}, {"uniqueid": "MTK0116:3YOH7BII0AEMMVTWGOXB08P46U7KVK", "current_trial": 184, "dateTime": 1509163381903, "trialdata": {"rt": -1, "stimulus": "<p id=\"stim\">+</p>", "key_press": -1, "type": "FIXATION", "trial_type": "single-stim", "trial_index": 184, "time_elapsed": 913196, "internal_node_id": "0.0-130.0-0.0"}}, {"uniqueid": "MTK0116:3YOH7BII0AEMMVTWGOXB08P46U7KVK", "current_trial": 185, "dateTime": 1509163384503, "trialdata": {"rt": -1000, "stimulus": "/static/audio/wordpool/ATLAS.wav", "key_press": -1, "type": "PRES_AUD", "word": "atlas", "wordID": 52, "conditions": [12, 1600, "a", 24000], "trial": 5, "serialpos": 0, "trial_type": "single-audio", "trial_index": 185, "time_elapsed": 915796, "internal_node_id": "0.0-131.0"}}, {"uniqueid": "MTK0116:3YOH7BII0AEMMVTWGOXB08P46U7KVK", "current_trial": 186, "dateTime": 1509163387290, "trialdata": {"rt": -1000, "stimulus": "/static/audio/wordpool/SURVEY.wav", "key_press": -1, "type": "PRES_AUD", "word": "survey", "wordID": 1413, "conditions": [12, 1600, "a", 24000], "trial": 5, "serialpos": 1, "trial_type": "single-audio", "trial_index": 186, "time_elapsed": 918583, "internal_node_id": "0.0-132.0"}}, {"uniqueid": "MTK0116:3YOH7BII0AEMMVTWGOXB08P46U7KVK", "current_trial": 187, "dateTime": 1509163390005, "trialdata": {"rt": -1000, "stimulus": "/static/audio/wordpool/BARLEY.wav", "key_press": -1, "type": "PRES_AUD", "word": "barley", "wordID": 87, "conditions": [12, 1600, "a", 24000], "trial": 5, "serialpos": 2, "trial_type": "single-audio", "trial_index": 187, "time_elapsed": 921298, "internal_node_id": "0.0-133.0"}}, {"uniqueid": "MTK0116:3YOH7BII0AEMMVTWGOXB08P46U7KVK", "current_trial": 188, "dateTime": 1509163392512, "trialdata": {"rt": -1000, "stimulus": "/static/audio/wordpool/JAPAN.wav", "key_press": -1, "type": "PRES_AUD", "word": "japan", "wordID": 748, "conditions": [12, 1600, "a", 24000], "trial": 5, "serialpos": 3, "trial_type": "single-audio", "trial_index": 188, "time_elapsed": 923805, "internal_node_id": "0.0-134.0"}}, {"uniqueid": "MTK0116:3YOH7BII0AEMMVTWGOXB08P46U7KVK", "current_trial": 189, "dateTime": 1509163394948, "trialdata": {"rt": -1000, "stimulus": "/static/audio/wordpool/TRANSPLANT.wav", "key_press": -1, "type": "PRES_AUD", "word": "transplant", "wordID": 1495, "conditions": [12, 1600, "a", 24000], "trial": 5, "serialpos": 4, "trial_type": "single-audio", "trial_index": 189, "time_elapsed": 926241, "internal_node_id": "0.0-135.0"}}, {"uniqueid": "MTK0116:3YOH7BII0AEMMVTWGOXB08P46U7KVK", "current_trial": 190, "dateTime": 1509163397720, "trialdata": {"rt": -1000, "stimulus": "/static/audio/wordpool/JELLO.wav", "key_press": -1, "type": "PRES_AUD", "word": "jello", "wordID": 753, "conditions": [12, 1600, "a", 24000], "trial": 5, "serialpos": 5, "trial_type": "single-audio", "trial_index": 190, "time_elapsed": 929013, "internal_node_id": "0.0-136.0"}}, {"uniqueid": "MTK0116:3YOH7BII0AEMMVTWGOXB08P46U7KVK", "current_trial": 191, "dateTime": 1509163400141, "trialdata": {"rt": -1000, "stimulus": "/static/audio/wordpool/JELLY.wav", "key_press": -1, "type": "PRES_AUD", "word": "jelly", "wordID": 754, "conditions": [12, 1600, "a", 24000], "trial": 5, "serialpos": 6, "trial_type": "single-audio", "trial_index": 191, "time_elapsed": 931434, "internal_node_id": "0.0-137.0"}}, {"uniqueid": "MTK0116:3YOH7BII0AEMMVTWGOXB08P46U7KVK", "current_trial": 192, "dateTime": 1509163402726, "trialdata": {"rt": -1000, "stimulus": "/static/audio/wordpool/SHERIFF.wav", "key_press": -1, "type": "PRES_AUD", "word": "sheriff", "wordID": 1283, "conditions": [12, 1600, "a", 24000], "trial": 5, "serialpos": 7, "trial_type": "single-audio", "trial_index": 192, "time_elapsed": 934019, "internal_node_id": "0.0-138.0"}}, {"uniqueid": "MTK0116:3YOH7BII0AEMMVTWGOXB08P46U7KVK", "current_trial": 193, "dateTime": 1509163405184, "trialdata": {"rt": -1000, "stimulus": "/static/audio/wordpool/CHEMIST.wav", "key_press": -1, "type": "PRES_AUD", "word": "chemist", "wordID": 291, "conditions": [12, 1600, "a", 24000], "trial": 5, "serialpos": 8, "trial_type": "single-audio", "trial_index": 193, "time_elapsed": 936477, "internal_node_id": "0.0-139.0"}}, {"uniqueid": "MTK0116:3YOH7BII0AEMMVTWGOXB08P46U7KVK", "current_trial": 194, "dateTime": 1509163407658, "trialdata": {"rt": -1000, "stimulus": "/static/audio/wordpool/POPCORN.wav", "key_press": -1, "type": "PRES_AUD", "word": "popcorn", "wordID": 1103, "conditions": [12, 1600, "a", 24000], "trial": 5, "serialpos": 9, "trial_type": "single-audio", "trial_index": 194, "time_elapsed": 938951, "internal_node_id": "0.0-140.0"}}, {"uniqueid": "MTK0116:3YOH7BII0AEMMVTWGOXB08P46U7KVK", "current_trial": 195, "dateTime": 1509163410197, "trialdata": {"rt": -1000, "stimulus": "/static/audio/wordpool/COUNTY.wav", "key_press": -1, "type": "PRES_AUD", "word": "county", "wordID": 388, "conditions": [12, 1600, "a", 24000], "trial": 5, "serialpos": 10, "trial_type": "single-audio", "trial_index": 195, "time_elapsed": 941490, "internal_node_id": "0.0-141.0"}}, {"uniqueid": "MTK0116:3YOH7BII0AEMMVTWGOXB08P46U7KVK", "current_trial": 196, "dateTime": 1509163412631, "trialdata": {"rt": -1000, "stimulus": "/static/audio/wordpool/THREAD.wav", "key_press": -1, "type": "PRES_AUD", "word": "thread", "wordID": 1459, "conditions": [12, 1600, "a", 24000], "trial": 5, "serialpos": 11, "trial_type": "single-audio", "trial_index": 196, "time_elapsed": 943924, "internal_node_id": "0.0-142.0"}}, {"uniqueid": "MTK0116:3YOH7BII0AEMMVTWGOXB08P46U7KVK", "current_trial": 197, "dateTime": 1509163413870, "trialdata": {"rt": -1, "stimulus": "", "key_press": -1, "type": "PRE_RECALL_DELAY", "trial_type": "single-stim", "trial_index": 197, "time_elapsed": 945163, "internal_node_id": "0.0-143.0-0.0"}}, {"uniqueid": "MTK0116:3YOH7BII0AEMMVTWGOXB08P46U7KVK", "current_trial": 198, "dateTime": 1509163414372, "trialdata": {"rt": -1000, "stimulus": "/static/audio/400Hz.wav", "key_press": -1, "type": "PRE_RECALL_ALERT", "trial_type": "single-audio", "trial_index": 198, "time_elapsed": 945665, "internal_node_id": "0.0-144.0"}}, {"uniqueid": "MTK0116:3YOH7BII0AEMMVTWGOXB08P46U7KVK", "current_trial": 199, "dateTime": 1509163474378, "trialdata": {"rt": [3452, 4932, 8324, 10572, 12196, 16228], "recwords": ["county", "thread", "sheriff", "atlas", "popcorn", "japan"], "type": "FREE_RECALL", "conditions": [12, 1600, "a", 24000], "trial": 5, "trial_type": "free-recall", "trial_index": 199, "time_elapsed": 1005669, "internal_node_id": "0.0-145.0-0.0"}}, {"uniqueid": "MTK0116:3YOH7BII0AEMMVTWGOXB08P46U7KVK", "current_trial": 200, "dateTime": 1509163477946, "trialdata": {"rt": 1567, "key_press": 32, "type": "INSTRUCTIONS", "trial_type": "text", "trial_index": 200, "time_elapsed": 1009239, "internal_node_id": "0.0-146.0"}}, {"uniqueid": "MTK0116:3YOH7BII0AEMMVTWGOXB08P46U7KVK", "current_trial": 201, "dateTime": 1509163503950, "trialdata": {"rt": [2549, 5693, 7654, 9614, 11414, 13374, 15029, 17029, 18773, 20669, 22477], "responses": ["15", "16", "14", "17", "10", "6", "7", "17", "15", "15", "17"], "num1": [4, 8, 3, 4, 1, 1, 3, 5, 8, 2, 7, 2], "num2": [2, 1, 3, 8, 3, 1, 2, 8, 5, 4, 5, 1], "num3": [9, 7, 8, 5, 6, 4, 2, 4, 2, 9, 5, 2], "type": "DISTRACTOR", "conditions": [24, 800, "a", 24000], "trial": 6, "trial_type": "math-distractor", "trial_index": 201, "time_elapsed": 1035243, "internal_node_id": "0.0-147.0"}}, {"uniqueid": "MTK0116:3YOH7BII0AEMMVTWGOXB08P46U7KVK", "current_trial": 202, "dateTime": 1509163506953, "trialdata": {"rt": -1, "stimulus": "<p id=\"stim\">10</p>", "key_press": -1, "trial_type": "single-stim", "trial_index": 202, "time_elapsed": 1038246, "internal_node_id": "0.0-148.0-0.0"}}, {"uniqueid": "MTK0116:3YOH7BII0AEMMVTWGOXB08P46U7KVK", "current_trial": 203, "dateTime": 1509163507954, "trialdata": {"rt": -1, "stimulus": "<p id=\"stim\">9</p>", "key_press": -1, "trial_type": "single-stim", "trial_index": 203, "time_elapsed": 1039247, "internal_node_id": "0.0-148.0-1.0"}}, {"uniqueid": "MTK0116:3YOH7BII0AEMMVTWGOXB08P46U7KVK", "current_trial": 204, "dateTime": 1509163508955, "trialdata": {"rt": -1, "stimulus": "<p id=\"stim\">8</p>", "key_press": -1, "trial_type": "single-stim", "trial_index": 204, "time_elapsed": 1040248, "internal_node_id": "0.0-148.0-2.0"}}, {"uniqueid": "MTK0116:3YOH7BII0AEMMVTWGOXB08P46U7KVK", "current_trial": 205, "dateTime": 1509163509956, "trialdata": {"rt": -1, "stimulus": "<p id=\"stim\">7</p>", "key_press": -1, "trial_type": "single-stim", "trial_index": 205, "time_elapsed": 1041249, "internal_node_id": "0.0-148.0-3.0"}}, {"uniqueid": "MTK0116:3YOH7BII0AEMMVTWGOXB08P46U7KVK", "current_trial": 206, "dateTime": 1509163510957, "trialdata": {"rt": -1, "stimulus": "<p id=\"stim\">6</p>", "key_press": -1, "trial_type": "single-stim", "trial_index": 206, "time_elapsed": 1042250, "internal_node_id": "0.0-148.0-4.0"}}, {"uniqueid": "MTK0116:3YOH7BII0AEMMVTWGOXB08P46U7KVK", "current_trial": 207, "dateTime": 1509163511959, "trialdata": {"rt": -1, "stimulus": "<p id=\"stim\">5</p>", "key_press": -1, "trial_type": "single-stim", "trial_index": 207, "time_elapsed": 1043252, "internal_node_id": "0.0-148.0-5.0"}}, {"uniqueid": "MTK0116:3YOH7BII0AEMMVTWGOXB08P46U7KVK", "current_trial": 208, "dateTime": 1509163512960, "trialdata": {"rt": -1, "stimulus": "<p id=\"stim\">4</p>", "key_press": -1, "trial_type": "single-stim", "trial_index": 208, "time_elapsed": 1044253, "internal_node_id": "0.0-148.0-6.0"}}, {"uniqueid": "MTK0116:3YOH7BII0AEMMVTWGOXB08P46U7KVK", "current_trial": 209, "dateTime": 1509163513962, "trialdata": {"rt": -1, "stimulus": "<p id=\"stim\">3</p>", "key_press": -1, "trial_type": "single-stim", "trial_index": 209, "time_elapsed": 1045255, "internal_node_id": "0.0-148.0-7.0"}}, {"uniqueid": "MTK0116:3YOH7BII0AEMMVTWGOXB08P46U7KVK", "current_trial": 210, "dateTime": 1509163514963, "trialdata": {"rt": -1, "stimulus": "<p id=\"stim\">2</p>", "key_press": -1, "trial_type": "single-stim", "trial_index": 210, "time_elapsed": 1046256, "internal_node_id": "0.0-148.0-8.0"}}, {"uniqueid": "MTK0116:3YOH7BII0AEMMVTWGOXB08P46U7KVK", "current_trial": 211, "dateTime": 1509163515964, "trialdata": {"rt": -1, "stimulus": "<p id=\"stim\">1</p>", "key_press": -1, "trial_type": "single-stim", "trial_index": 211, "time_elapsed": 1047257, "internal_node_id": "0.0-148.0-9.0"}}, {"uniqueid": "MTK0116:3YOH7BII0AEMMVTWGOXB08P46U7KVK", "current_trial": 212, "dateTime": 1509163517465, "trialdata": {"rt": -1, "stimulus": "<p id=\"stim\">+</p>", "key_press": -1, "type": "FIXATION", "trial_type": "single-stim", "trial_index": 212, "time_elapsed": 1048758, "internal_node_id": "0.0-149.0-0.0"}}, {"uniqueid": "MTK0116:3YOH7BII0AEMMVTWGOXB08P46U7KVK", "current_trial": 213, "dateTime": 1509163519415, "trialdata": {"rt": -1000, "stimulus": "/static/audio/wordpool/TUTU.wav", "key_press": -1, "type": "PRES_AUD", "word": "tutu", "wordID": 1523, "conditions": [24, 800, "a", 24000], "trial": 6, "serialpos": 0, "trial_type": "single-audio", "trial_index": 213, "time_elapsed": 1050708, "internal_node_id": "0.0-150.0"}}, {"uniqueid": "MTK0116:3YOH7BII0AEMMVTWGOXB08P46U7KVK", "current_trial": 214, "dateTime": 1509163521129, "trialdata": {"rt": -1000, "stimulus": "/static/audio/wordpool/HUSBAND.wav", "key_press": -1, "type": "PRES_AUD", "word": "husband", "wordID": 727, "conditions": [24, 800, "a", 24000], "trial": 6, "serialpos": 1, "trial_type": "single-audio", "trial_index": 214, "time_elapsed": 1052422, "internal_node_id": "0.0-151.0"}}, {"uniqueid": "MTK0116:3YOH7BII0AEMMVTWGOXB08P46U7KVK", "current_trial": 215, "dateTime": 1509163523103, "trialdata": {"rt": -1000, "stimulus": "/static/audio/wordpool/BANKER.wav", "key_press": -1, "type": "PRES_AUD", "word": "banker", "wordID": 83, "conditions": [24, 800, "a", 24000], "trial": 6, "serialpos": 2, "trial_type": "single-audio", "trial_index": 215, "time_elapsed": 1054396, "internal_node_id": "0.0-152.0"}}, {"uniqueid": "MTK0116:3YOH7BII0AEMMVTWGOXB08P46U7KVK", "current_trial": 216, "dateTime": 1509163524997, "trialdata": {"rt": -1000, "stimulus": "/static/audio/wordpool/COSTUME.wav", "key_press": -1, "type": "PRES_AUD", "word": "costume", "wordID": 382, "conditions": [24, 800, "a", 24000], "trial": 6, "serialpos": 3, "trial_type": "single-audio", "trial_index": 216, "time_elapsed": 1056290, "internal_node_id": "0.0-153.0"}}, {"uniqueid": "MTK0116:3YOH7BII0AEMMVTWGOXB08P46U7KVK", "current_trial": 217, "dateTime": 1509163526620, "trialdata": {"rt": -1000, "stimulus": "/static/audio/wordpool/LILY.wav", "key_press": -1, "type": "PRES_AUD", "word": "lily", "wordID": 820, "conditions": [24, 800, "a", 24000], "trial": 6, "serialpos": 4, "trial_type": "single-audio", "trial_index": 217, "time_elapsed": 1057913, "internal_node_id": "0.0-154.0"}}, {"uniqueid": "MTK0116:3YOH7BII0AEMMVTWGOXB08P46U7KVK", "current_trial": 218, "dateTime": 1509163528404, "trialdata": {"rt": -1000, "stimulus": "/static/audio/wordpool/PEANUT.wav", "key_press": -1, "type": "PRES_AUD", "word": "peanut", "wordID": 1031, "conditions": [24, 800, "a", 24000], "trial": 6, "serialpos": 5, "trial_type": "single-audio", "trial_index": 218, "time_elapsed": 1059697, "internal_node_id": "0.0-155.0"}}, {"uniqueid": "MTK0116:3YOH7BII0AEMMVTWGOXB08P46U7KVK", "current_trial": 219, "dateTime": 1509163530314, "trialdata": {"rt": -1000, "stimulus": "/static/audio/wordpool/FLIPPER.wav", "key_press": -1, "type": "PRES_AUD", "word": "flipper", "wordID": 579, "conditions": [24, 800, "a", 24000], "trial": 6, "serialpos": 6, "trial_type": "single-audio", "trial_index": 219, "time_elapsed": 1061607, "internal_node_id": "0.0-156.0"}}, {"uniqueid": "MTK0116:3YOH7BII0AEMMVTWGOXB08P46U7KVK", "current_trial": 220, "dateTime": 1509163532256, "trialdata": {"rt": -1000, "stimulus": "/static/audio/wordpool/SHRUB.wav", "key_press": -1, "type": "PRES_AUD", "word": "shrub", "wordID": 1298, "conditions": [24, 800, "a", 24000], "trial": 6, "serialpos": 7, "trial_type": "single-audio", "trial_index": 220, "time_elapsed": 1063548, "internal_node_id": "0.0-157.0"}}, {"uniqueid": "MTK0116:3YOH7BII0AEMMVTWGOXB08P46U7KVK", "current_trial": 221, "dateTime": 1509163533900, "trialdata": {"rt": -1000, "stimulus": "/static/audio/wordpool/PASTA.wav", "key_press": -1, "type": "PRES_AUD", "word": "pasta", "wordID": 1020, "conditions": [24, 800, "a", 24000], "trial": 6, "serialpos": 8, "trial_type": "single-audio", "trial_index": 221, "time_elapsed": 1065193, "internal_node_id": "0.0-158.0"}}, {"uniqueid": "MTK0116:3YOH7BII0AEMMVTWGOXB08P46U7KVK", "current_trial": 222, "dateTime": 1509163535630, "trialdata": {"rt": -1000, "stimulus": "/static/audio/wordpool/UNCLE.wav", "key_press": -1, "type": "PRES_AUD", "word": "uncle", "wordID": 1535, "conditions": [24, 800, "a", 24000], "trial": 6, "serialpos": 9, "trial_type": "single-audio", "trial_index": 222, "time_elapsed": 1066923, "internal_node_id": "0.0-159.0"}}, {"uniqueid": "MTK0116:3YOH7BII0AEMMVTWGOXB08P46U7KVK", "current_trial": 223, "dateTime": 1509163537556, "trialdata": {"rt": -1000, "stimulus": "/static/audio/wordpool/SISTER.wav", "key_press": -1, "type": "PRES_AUD", "word": "sister", "wordID": 1311, "conditions": [24, 800, "a", 24000], "trial": 6, "serialpos": 10, "trial_type": "single-audio", "trial_index": 223, "time_elapsed": 1068849, "internal_node_id": "0.0-160.0"}}, {"uniqueid": "MTK0116:3YOH7BII0AEMMVTWGOXB08P46U7KVK", "current_trial": 224, "dateTime": 1509163539387, "trialdata": {"rt": -1000, "stimulus": "/static/audio/wordpool/LOVER.wav", "key_press": -1, "type": "PRES_AUD", "word": "lover", "wordID": 845, "conditions": [24, 800, "a", 24000], "trial": 6, "serialpos": 11, "trial_type": "single-audio", "trial_index": 224, "time_elapsed": 1070680, "internal_node_id": "0.0-161.0"}}, {"uniqueid": "MTK0116:3YOH7BII0AEMMVTWGOXB08P46U7KVK", "current_trial": 225, "dateTime": 1509163541048, "trialdata": {"rt": -1000, "stimulus": "/static/audio/wordpool/BLACKBOARD.wav", "key_press": -1, "type": "PRES_AUD", "word": "blackboard", "wordID": 132, "conditions": [24, 800, "a", 24000], "trial": 6, "serialpos": 12, "trial_type": "single-audio", "trial_index": 225, "time_elapsed": 1072341, "internal_node_id": "0.0-162.0"}}, {"uniqueid": "MTK0116:3YOH7BII0AEMMVTWGOXB08P46U7KVK", "current_trial": 226, "dateTime": 1509163542670, "trialdata": {"rt": -1000, "stimulus": "/static/audio/wordpool/SCRIBBLE.wav", "key_press": -1, "type": "PRES_AUD", "word": "scribble", "wordID": 1255, "conditions": [24, 800, "a", 24000], "trial": 6, "serialpos": 13, "trial_type": "single-audio", "trial_index": 226, "time_elapsed": 1073963, "internal_node_id": "0.0-163.0"}}, {"uniqueid": "MTK0116:3YOH7BII0AEMMVTWGOXB08P46U7KVK", "current_trial": 227, "dateTime": 1509163544477, "trialdata": {"rt": -1000, "stimulus": "/static/audio/wordpool/TYPIST.wav", "key_press": -1, "type": "PRES_AUD", "word": "typist", "wordID": 1531, "conditions": [24, 800, "a", 24000], "trial": 6, "serialpos": 14, "trial_type": "single-audio", "trial_index": 227, "time_elapsed": 1075770, "internal_node_id": "0.0-164.0"}}, {"uniqueid": "MTK0116:3YOH7BII0AEMMVTWGOXB08P46U7KVK", "current_trial": 228, "dateTime": 1509163546380, "trialdata": {"rt": -1000, "stimulus": "/static/audio/wordpool/FIDDLE.wav", "key_press": -1, "type": "PRES_AUD", "word": "fiddle", "wordID": 560, "conditions": [24, 800, "a", 24000], "trial": 6, "serialpos": 15, "trial_type": "single-audio", "trial_index": 228, "time_elapsed": 1077673, "internal_node_id": "0.0-165.0"}}, {"uniqueid": "MTK0116:3YOH7BII0AEMMVTWGOXB08P46U7KVK", "current_trial": 229, "dateTime": 1509163548367, "trialdata": {"rt": -1000, "stimulus": "/static/audio/wordpool/AGENT.wav", "key_press": -1, "type": "PRES_AUD", "word": "agent", "wordID": 9, "conditions": [24, 800, "a", 24000], "trial": 6, "serialpos": 16, "trial_type": "single-audio", "trial_index": 229, "time_elapsed": 1079660, "internal_node_id": "0.0-166.0"}}, {"uniqueid": "MTK0116:3YOH7BII0AEMMVTWGOXB08P46U7KVK", "current_trial": 230, "dateTime": 1509163550059, "trialdata": {"rt": -1000, "stimulus": "/static/audio/wordpool/WRIST.wav", "key_press": -1, "type": "PRES_AUD", "word": "wrist", "wordID": 1625, "conditions": [24, 800, "a", 24000], "trial": 6, "serialpos": 17, "trial_type": "single-audio", "trial_index": 230, "time_elapsed": 1081352, "internal_node_id": "0.0-167.0"}}, {"uniqueid": "MTK0116:3YOH7BII0AEMMVTWGOXB08P46U7KVK", "current_trial": 231, "dateTime": 1509163551782, "trialdata": {"rt": -1000, "stimulus": "/static/audio/wordpool/BADGE.wav", "key_press": -1, "type": "PRES_AUD", "word": "badge", "wordID": 67, "conditions": [24, 800, "a", 24000], "trial": 6, "serialpos": 18, "trial_type": "single-audio", "trial_index": 231, "time_elapsed": 1083075, "internal_node_id": "0.0-168.0"}}, {"uniqueid": "MTK0116:3YOH7BII0AEMMVTWGOXB08P46U7KVK", "current_trial": 232, "dateTime": 1509163553404, "trialdata": {"rt": -1000, "stimulus": "/static/audio/wordpool/GUITAR.wav", "key_press": -1, "type": "PRES_AUD", "word": "guitar", "wordID": 669, "conditions": [24, 800, "a", 24000], "trial": 6, "serialpos": 19, "trial_type": "single-audio", "trial_index": 232, "time_elapsed": 1084697, "internal_node_id": "0.0-169.0"}}, {"uniqueid": "MTK0116:3YOH7BII0AEMMVTWGOXB08P46U7KVK", "current_trial": 233, "dateTime": 1509163555128, "trialdata": {"rt": -1000, "stimulus": "/static/audio/wordpool/HARP.wav", "key_press": -1, "type": "PRES_AUD", "word": "harp", "wordID": 688, "conditions": [24, 800, "a", 24000], "trial": 6, "serialpos": 20, "trial_type": "single-audio", "trial_index": 233, "time_elapsed": 1086421, "internal_node_id": "0.0-170.0"}}, {"uniqueid": "MTK0116:3YOH7BII0AEMMVTWGOXB08P46U7KVK", "current_trial": 234, "dateTime": 1509163556805, "trialdata": {"rt": -1000, "stimulus": "/static/audio/wordpool/TROMBONE.wav", "key_press": -1, "type": "PRES_AUD", "word": "trombone", "wordID": 1507, "conditions": [24, 800, "a", 24000], "trial": 6, "serialpos": 21, "trial_type": "single-audio", "trial_index": 234, "time_elapsed": 1088098, "internal_node_id": "0.0-171.0"}}, {"uniqueid": "MTK0116:3YOH7BII0AEMMVTWGOXB08P46U7KVK", "current_trial": 235, "dateTime": 1509163558535, "trialdata": {"rt": -1000, "stimulus": "/static/audio/wordpool/CRAYON.wav", "key_press": -1, "type": "PRES_AUD", "word": "crayon", "wordID": 400, "conditions": [24, 800, "a", 24000], "trial": 6, "serialpos": 22, "trial_type": "single-audio", "trial_index": 235, "time_elapsed": 1089828, "internal_node_id": "0.0-172.0"}}, {"uniqueid": "MTK0116:3YOH7BII0AEMMVTWGOXB08P46U7KVK", "current_trial": 236, "dateTime": 1509163560288, "trialdata": {"rt": -1000, "stimulus": "/static/audio/wordpool/BASEMENT.wav", "key_press": -1, "type": "PRES_AUD", "word": "basement", "wordID": 93, "conditions": [24, 800, "a", 24000], "trial": 6, "serialpos": 23, "trial_type": "single-audio", "trial_index": 236, "time_elapsed": 1091581, "internal_node_id": "0.0-173.0"}}, {"uniqueid": "MTK0116:3YOH7BII0AEMMVTWGOXB08P46U7KVK", "current_trial": 237, "dateTime": 1509163561508, "trialdata": {"rt": -1, "stimulus": "", "key_press": -1, "type": "PRE_RECALL_DELAY", "trial_type": "single-stim", "trial_index": 237, "time_elapsed": 1092801, "internal_node_id": "0.0-174.0-0.0"}}, {"uniqueid": "MTK0116:3YOH7BII0AEMMVTWGOXB08P46U7KVK", "current_trial": 238, "dateTime": 1509163562013, "trialdata": {"rt": -1000, "stimulus": "/static/audio/400Hz.wav", "key_press": -1, "type": "PRE_RECALL_ALERT", "trial_type": "single-audio", "trial_index": 238, "time_elapsed": 1093306, "internal_node_id": "0.0-175.0"}}, {"uniqueid": "MTK0116:3YOH7BII0AEMMVTWGOXB08P46U7KVK", "current_trial": 239, "dateTime": 1509163622018, "trialdata": {"rt": [2572, 5332, 6540, 10188, 11620, 14988, 18028, 27460, 52971], "recwords": ["basement", "trombone", "uncle", "wrist", "harp", "tutu", "husband", "pasta", "ankle"], "type": "FREE_RECALL", "conditions": [24, 800, "a", 24000], "trial": 6, "trial_type": "free-recall", "trial_index": 239, "time_elapsed": 1153308, "internal_node_id": "0.0-176.0-0.0"}}, {"uniqueid": "MTK0116:3YOH7BII0AEMMVTWGOXB08P46U7KVK", "current_trial": 240, "dateTime": 1509163634034, "trialdata": {"rt": 10013, "key_press": 32, "type": "INSTRUCTIONS", "trial_type": "text", "trial_index": 240, "time_elapsed": 1165327, "internal_node_id": "0.0-177.0"}}, {"uniqueid": "MTK0116:3YOH7BII0AEMMVTWGOXB08P46U7KVK", "current_trial": 241, "dateTime": 1509163648037, "trialdata": {"rt": [2110, 3695, 5895, 8087, 10279], "responses": ["11", "4", "16", "17", "21"], "num1": [1, 1, 9, 7, 8, 8], "num2": [2, 1, 5, 7, 4, 8], "num3": [8, 2, 2, 3, 9, 6], "type": "DISTRACTOR", "conditions": [24, 1600, "v", 12000], "trial": 7, "trial_type": "math-distractor", "trial_index": 241, "time_elapsed": 1179330, "internal_node_id": "0.0-178.0"}}, {"uniqueid": "MTK0116:3YOH7BII0AEMMVTWGOXB08P46U7KVK", "current_trial": 242, "dateTime": 1509163651040, "trialdata": {"rt": -1, "stimulus": "<p id=\"stim\">10</p>", "key_press": -1, "trial_type": "single-stim", "trial_index": 242, "time_elapsed": 1182333, "internal_node_id": "0.0-179.0-0.0"}}, {"uniqueid": "MTK0116:3YOH7BII0AEMMVTWGOXB08P46U7KVK", "current_trial": 243, "dateTime": 1509163652041, "trialdata": {"rt": -1, "stimulus": "<p id=\"stim\">9</p>", "key_press": -1, "trial_type": "single-stim", "trial_index": 243, "time_elapsed": 1183334, "internal_node_id": "0.0-179.0-1.0"}}, {"uniqueid": "MTK0116:3YOH7BII0AEMMVTWGOXB08P46U7KVK", "current_trial": 244, "dateTime": 1509163653042, "trialdata": {"rt": -1, "stimulus": "<p id=\"stim\">8</p>", "key_press": -1, "trial_type": "single-stim", "trial_index": 244, "time_elapsed": 1184335, "internal_node_id": "0.0-179.0-2.0"}}, {"uniqueid": "MTK0116:3YOH7BII0AEMMVTWGOXB08P46U7KVK", "current_trial": 245, "dateTime": 1509163654043, "trialdata": {"rt": -1, "stimulus": "<p id=\"stim\">7</p>", "key_press": -1, "trial_type": "single-stim", "trial_index": 245, "time_elapsed": 1185336, "internal_node_id": "0.0-179.0-3.0"}}, {"uniqueid": "MTK0116:3YOH7BII0AEMMVTWGOXB08P46U7KVK", "current_trial": 246, "dateTime": 1509163655044, "trialdata": {"rt": -1, "stimulus": "<p id=\"stim\">6</p>", "key_press": -1, "trial_type": "single-stim", "trial_index": 246, "time_elapsed": 1186337, "internal_node_id": "0.0-179.0-4.0"}}, {"uniqueid": "MTK0116:3YOH7BII0AEMMVTWGOXB08P46U7KVK", "current_trial": 247, "dateTime": 1509163656047, "trialdata": {"rt": -1, "stimulus": "<p id=\"stim\">5</p>", "key_press": -1, "trial_type": "single-stim", "trial_index": 247, "time_elapsed": 1187340, "internal_node_id": "0.0-179.0-5.0"}}, {"uniqueid": "MTK0116:3YOH7BII0AEMMVTWGOXB08P46U7KVK", "current_trial": 248, "dateTime": 1509163657049, "trialdata": {"rt": -1, "stimulus": "<p id=\"stim\">4</p>", "key_press": -1, "trial_type": "single-stim", "trial_index": 248, "time_elapsed": 1188342, "internal_node_id": "0.0-179.0-6.0"}}, {"uniqueid": "MTK0116:3YOH7BII0AEMMVTWGOXB08P46U7KVK", "current_trial": 249, "dateTime": 1509163658051, "trialdata": {"rt": -1, "stimulus": "<p id=\"stim\">3</p>", "key_press": -1, "trial_type": "single-stim", "trial_index": 249, "time_elapsed": 1189344, "internal_node_id": "0.0-179.0-7.0"}}, {"uniqueid": "MTK0116:3YOH7BII0AEMMVTWGOXB08P46U7KVK", "current_trial": 250, "dateTime": 1509163659052, "trialdata": {"rt": -1, "stimulus": "<p id=\"stim\">2</p>", "key_press": -1, "trial_type": "single-stim", "trial_index": 250, "time_elapsed": 1190345, "internal_node_id": "0.0-179.0-8.0"}}, {"uniqueid": "MTK0116:3YOH7BII0AEMMVTWGOXB08P46U7KVK", "current_trial": 251, "dateTime": 1509163660054, "trialdata": {"rt": -1, "stimulus": "<p id=\"stim\">1</p>", "key_press": -1, "trial_type": "single-stim", "trial_index": 251, "time_elapsed": 1191347, "internal_node_id": "0.0-179.0-9.0"}}, {"uniqueid": "MTK0116:3YOH7BII0AEMMVTWGOXB08P46U7KVK", "current_trial": 252, "dateTime": 1509163661555, "trialdata": {"rt": -1, "stimulus": "<p id=\"stim\">+</p>", "key_press": -1, "type": "FIXATION", "trial_type": "single-stim", "trial_index": 252, "time_elapsed": 1192848, "internal_node_id": "0.0-180.0-0.0"}}, {"uniqueid": "MTK0116:3YOH7BII0AEMMVTWGOXB08P46U7KVK", "current_trial": 253, "dateTime": 1509163663156, "trialdata": {"rt": -1, "stimulus": "<p id=\"stim\">MOTEL</p>", "key_press": -1, "type": "PRES_VIS", "word": "motel", "wordID": 918, "conditions": [24, 1600, "v", 12000], "trial": 7, "serialpos": 0, "trial_type": "single-stim", "trial_index": 253, "time_elapsed": 1194449, "internal_node_id": "0.0-181.0"}}, {"uniqueid": "MTK0116:3YOH7BII0AEMMVTWGOXB08P46U7KVK", "current_trial": 254, "dateTime": 1509163665621, "trialdata": {"rt": -1, "stimulus": "<p id=\"stim\">PORTRAIT</p>", "key_press": -1, "type": "PRES_VIS", "word": "portrait", "wordID": 1110, "conditions": [24, 1600, "v", 12000], "trial": 7, "serialpos": 1, "trial_type": "single-stim", "trial_index": 254, "time_elapsed": 1196914, "internal_node_id": "0.0-182.0"}}, {"uniqueid": "MTK0116:3YOH7BII0AEMMVTWGOXB08P46U7KVK", "current_trial": 255, "dateTime": 1509163668393, "trialdata": {"rt": -1, "stimulus": "<p id=\"stim\">GAZELLE</p>", "key_press": -1, "type": "PRES_VIS", "word": "gazelle", "wordID": 627, "conditions": [24, 1600, "v", 12000], "trial": 7, "serialpos": 2, "trial_type": "single-stim", "trial_index": 255, "time_elapsed": 1199686, "internal_node_id": "0.0-183.0"}}, {"uniqueid": "MTK0116:3YOH7BII0AEMMVTWGOXB08P46U7KVK", "current_trial": 256, "dateTime": 1509163670808, "trialdata": {"rt": -1, "stimulus": "<p id=\"stim\">CUSTARD</p>", "key_press": -1, "type": "PRES_VIS", "word": "custard", "wordID": 428, "conditions": [24, 1600, "v", 12000], "trial": 7, "serialpos": 3, "trial_type": "single-stim", "trial_index": 256, "time_elapsed": 1202101, "internal_node_id": "0.0-184.0"}}, {"uniqueid": "MTK0116:3YOH7BII0AEMMVTWGOXB08P46U7KVK", "current_trial": 257, "dateTime": 1509163673466, "trialdata": {"rt": -1, "stimulus": "<p id=\"stim\">MUMMY</p>", "key_press": -1, "type": "PRES_VIS", "word": "mummy", "wordID": 931, "conditions": [24, 1600, "v", 12000], "trial": 7, "serialpos": 4, "trial_type": "single-stim", "trial_index": 257, "time_elapsed": 1204759, "internal_node_id": "0.0-185.0"}}, {"uniqueid": "MTK0116:3YOH7BII0AEMMVTWGOXB08P46U7KVK", "current_trial": 258, "dateTime": 1509163676165, "trialdata": {"rt": -1, "stimulus": "<p id=\"stim\">BEAST</p>", "key_press": -1, "type": "PRES_VIS", "word": "beast", "wordID": 107, "conditions": [24, 1600, "v", 12000], "trial": 7, "serialpos": 5, "trial_type": "single-stim", "trial_index": 258, "time_elapsed": 1207458, "internal_node_id": "0.0-186.0"}}, {"uniqueid": "MTK0116:3YOH7BII0AEMMVTWGOXB08P46U7KVK", "current_trial": 259, "dateTime": 1509163678743, "trialdata": {"rt": -1, "stimulus": "<p id=\"stim\">KNIFE</p>", "key_press": -1, "type": "PRES_VIS", "word": "knife", "wordID": 784, "conditions": [24, 1600, "v", 12000], "trial": 7, "serialpos": 6, "trial_type": "single-stim", "trial_index": 259, "time_elapsed": 1210036, "internal_node_id": "0.0-187.0"}}, {"uniqueid": "MTK0116:3YOH7BII0AEMMVTWGOXB08P46U7KVK", "current_trial": 260, "dateTime": 1509163681490, "trialdata": {"rt": -1, "stimulus": "<p id=\"stim\">TILE</p>", "key_press": -1, "type": "PRES_VIS", "word": "tile", "wordID": 1467, "conditions": [24, 1600, "v", 12000], "trial": 7, "serialpos": 7, "trial_type": "single-stim", "trial_index": 260, "time_elapsed": 1212783, "internal_node_id": "0.0-188.0"}}, {"uniqueid": "MTK0116:3YOH7BII0AEMMVTWGOXB08P46U7KVK", "current_trial": 261, "dateTime": 1509163684148, "trialdata": {"rt": -1, "stimulus": "<p id=\"stim\">BRICK</p>", "key_press": -1, "type": "PRES_VIS", "word": "brick", "wordID": 171, "conditions": [24, 1600, "v", 12000], "trial": 7, "serialpos": 8, "trial_type": "single-stim", "trial_index": 261, "time_elapsed": 1215441, "internal_node_id": "0.0-189.0"}}, {"uniqueid": "MTK0116:3YOH7BII0AEMMVTWGOXB08P46U7KVK", "current_trial": 262, "dateTime": 1509163686856, "trialdata": {"rt": -1, "stimulus": "<p id=\"stim\">PALACE</p>", "key_press": -1, "type": "PRES_VIS", "word": "palace", "wordID": 1005, "conditions": [24, 1600, "v", 12000], "trial": 7, "serialpos": 9, "trial_type": "single-stim", "trial_index": 262, "time_elapsed": 1218149, "internal_node_id": "0.0-190.0"}}, {"uniqueid": "MTK0116:3YOH7BII0AEMMVTWGOXB08P46U7KVK", "current_trial": 263, "dateTime": 1509163689608, "trialdata": {"rt": -1, "stimulus": "<p id=\"stim\">RAZOR</p>", "key_press": -1, "type": "PRES_VIS", "word": "razor", "wordID": 1170, "conditions": [24, 1600, "v", 12000], "trial": 7, "serialpos": 10, "trial_type": "single-stim", "trial_index": 263, "time_elapsed": 1220901, "internal_node_id": "0.0-191.0"}}, {"uniqueid": "MTK0116:3YOH7BII0AEMMVTWGOXB08P46U7KVK", "current_trial": 264, "dateTime": 1509163692143, "trialdata": {"rt": -1, "stimulus": "<p id=\"stim\">CRIB</p>", "key_press": -1, "type": "PRES_VIS", "word": "crib", "wordID": 406, "conditions": [24, 1600, "v", 12000], "trial": 7, "serialpos": 11, "trial_type": "single-stim", "trial_index": 264, "time_elapsed": 1223436, "internal_node_id": "0.0-192.0"}}, {"uniqueid": "MTK0116:3YOH7BII0AEMMVTWGOXB08P46U7KVK", "current_trial": 265, "dateTime": 1509163694733, "trialdata": {"rt": -1, "stimulus": "<p id=\"stim\">BLOUSE</p>", "key_press": -1, "type": "PRES_VIS", "word": "blouse", "wordID": 138, "conditions": [24, 1600, "v", 12000], "trial": 7, "serialpos": 12, "trial_type": "single-stim", "trial_index": 265, "time_elapsed": 1226026, "internal_node_id": "0.0-193.0"}}, {"uniqueid": "MTK0116:3YOH7BII0AEMMVTWGOXB08P46U7KVK", "current_trial": 266, "dateTime": 1509163697477, "trialdata": {"rt": -1, "stimulus": "<p id=\"stim\">SEAFOOD</p>", "key_press": -1, "type": "PRES_VIS", "word": "seafood", "wordID": 1259, "conditions": [24, 1600, "v", 12000], "trial": 7, "serialpos": 13, "trial_type": "single-stim", "trial_index": 266, "time_elapsed": 1228770, "internal_node_id": "0.0-194.0"}}, {"uniqueid": "MTK0116:3YOH7BII0AEMMVTWGOXB08P46U7KVK", "current_trial": 267, "dateTime": 1509163700055, "trialdata": {"rt": -1, "stimulus": "<p id=\"stim\">SALMON</p>", "key_press": -1, "type": "PRES_VIS", "word": "salmon", "wordID": 1226, "conditions": [24, 1600, "v", 12000], "trial": 7, "serialpos": 14, "trial_type": "single-stim", "trial_index": 267, "time_elapsed": 1231348, "internal_node_id": "0.0-195.0"}}, {"uniqueid": "MTK0116:3YOH7BII0AEMMVTWGOXB08P46U7KVK", "current_trial": 268, "dateTime": 1509163702513, "trialdata": {"rt": -1, "stimulus": "<p id=\"stim\">FOREHEAD</p>", "key_press": -1, "type": "PRES_VIS", "word": "forehead", "wordID": 591, "conditions": [24, 1600, "v", 12000], "trial": 7, "serialpos": 15, "trial_type": "single-stim", "trial_index": 268, "time_elapsed": 1233806, "internal_node_id": "0.0-196.0"}}, {"uniqueid": "MTK0116:3YOH7BII0AEMMVTWGOXB08P46U7KVK", "current_trial": 269, "dateTime": 1509163705007, "trialdata": {"rt": -1, "stimulus": "<p id=\"stim\">DAUGHTER</p>", "key_press": -1, "type": "PRES_VIS", "word": "daughter", "wordID": 441, "conditions": [24, 1600, "v", 12000], "trial": 7, "serialpos": 16, "trial_type": "single-stim", "trial_index": 269, "time_elapsed": 1236300, "internal_node_id": "0.0-197.0"}}, {"uniqueid": "MTK0116:3YOH7BII0AEMMVTWGOXB08P46U7KVK", "current_trial": 270, "dateTime": 1509163707542, "trialdata": {"rt": -1, "stimulus": "<p id=\"stim\">ITEM</p>", "key_press": -1, "type": "PRES_VIS", "word": "item", "wordID": 745, "conditions": [24, 1600, "v", 12000], "trial": 7, "serialpos": 17, "trial_type": "single-stim", "trial_index": 270, "time_elapsed": 1238834, "internal_node_id": "0.0-198.0"}}, {"uniqueid": "MTK0116:3YOH7BII0AEMMVTWGOXB08P46U7KVK", "current_trial": 271, "dateTime": 1509163710290, "trialdata": 