{"condition": 0, "counterbalance": 574, "assignmentId": "3HVVDCPGTFZ2T8EOF8YN8YGU9N3TYB", "workerId": "MTK0471", "hitId": "3HEA4ZVWVDT0JYVKD86Q51G3KJI554", "currenttrial": 626, "bonus": 0, "data": [{"uniqueid": "MTK0471:3HVVDCPGTFZ2T8EOF8YN8YGU9N3TYB", "current_trial": 0, "dateTime": 1510941313498, "trialdata": {"rt": 1513, "key_press": 72, "type": "INSTRUCTIONS", "trial_type": "text", "trial_index": 0, "time_elapsed": 1521, "internal_node_id": "0.0-0.0"}}, {"uniqueid": "MTK0471:3HVVDCPGTFZ2T8EOF8YN8YGU9N3TYB", "current_trial": 1, "dateTime": 1510941319037, "trialdata": {"rt": 5533, "key_press": 72, "type": "INSTRUCTIONS", "trial_type": "text", "trial_index": 1, "time_elapsed": 7062, "internal_node_id": "0.0-1.0"}}, {"uniqueid": "MTK0471:3HVVDCPGTFZ2T8EOF8YN8YGU9N3TYB", "current_trial": 2, "dateTime": 1510941331737, "trialdata": {"rt": [12632], "responses": ["ocean"], "type": "AUDIO_TEST", "trial_type": "audio-test", "trial_index": 2, "time_elapsed": 19763, "internal_node_id": "0.0-2.0"}}, {"uniqueid": "MTK0471:3HVVDCPGTFZ2T8EOF8YN8YGU9N3TYB", "current_trial": 3, "dateTime": 1510941337703, "trialdata": {"rt": [5948], "responses": ["crystal"], "type": "AUDIO_TEST", "trial_type": "audio-test", "trial_index": 3, "time_elapsed": 25729, "internal_node_id": "0.0-3.0"}}, {"uniqueid": "MTK0471:3HVVDCPGTFZ2T8EOF8YN8YGU9N3TYB", "current_trial": 4, "dateTime": 1510941342308, "trialdata": {"rt": [4587], "responses": ["spice"], "type": "AUDIO_TEST", "trial_type": "audio-test", "trial_index": 4, "time_elapsed": 30334, "internal_node_id": "0.0-4.0"}}, {"uniqueid": "MTK0471:3HVVDCPGTFZ2T8EOF8YN8YGU9N3TYB", "current_trial": 5, "dateTime": 1510941357831, "trialdata": {"rt": 14758, "responses": "{\"Q0\":\"10\",\"Q1\":\"622\",\"Q2\":\"5\"}", "type": "SLEEP_SURVEY", "trial_type": "survey-text", "trial_index": 5, "time_elapsed": 45857, "internal_node_id": "0.0-5.0"}}, {"uniqueid": "MTK0471:3HVVDCPGTFZ2T8EOF8YN8YGU9N3TYB", "current_trial": 6, "dateTime": 1510941384855, "trialdata": {"rt": 26020, "key_press": 78, "type": "INSTRUCTIONS", "trial_type": "text", "trial_index": 6, "time_elapsed": 72880, "internal_node_id": "0.0-6.0"}}, {"uniqueid": "MTK0471:3HVVDCPGTFZ2T8EOF8YN8YGU9N3TYB", "current_trial": 7, "dateTime": 1510941397472, "trialdata": {"rt": 12109, "key_press": 78, "type": "INSTRUCTIONS", "trial_type": "text", "trial_index": 7, "time_elapsed": 85498, "internal_node_id": "0.0-7.0"}}, {"uniqueid": "MTK0471:3HVVDCPGTFZ2T8EOF8YN8YGU9N3TYB", "current_trial": 8, "dateTime": 1510941401302, "trialdata": {"rt": 3326, "key_press": 74, "type": "INSTRUCTIONS", "trial_type": "text", "trial_index": 8, "time_elapsed": 89327, "internal_node_id": "0.0-8.0"}}, {"uniqueid": "MTK0471:3HVVDCPGTFZ2T8EOF8YN8YGU9N3TYB", "current_trial": 9, "dateTime": 1510941420355, "trialdata": {"rt": [3028, 5939, 7945, 11015, 12552, 15150], "responses": ["11", "17", "9", "16", "9", "11"], "num1": [4, 5, 2, 7, 1, 3, 7], "num2": [1, 3, 6, 6, 2, 5, 8], "num3": [6, 9, 1, 3, 6, 3, 1], "type": "DISTRACTOR", "conditions": [18, 1200, "v", 18000], "trial": 0, "trial_type": "math-distractor", "trial_index": 9, "time_elapsed": 108381, "internal_node_id": "0.0-9.0"}}, {"uniqueid": "MTK0471:3HVVDCPGTFZ2T8EOF8YN8YGU9N3TYB", "current_trial": 10, "dateTime": 1510941423373, "trialdata": {"rt": -1, "stimulus": "<p id=\"stim\">10</p>", "key_press": -1, "trial_type": "single-stim", "trial_index": 10, "time_elapsed": 111399, "internal_node_id": "0.0-10.0-0.0"}}, {"uniqueid": "MTK0471:3HVVDCPGTFZ2T8EOF8YN8YGU9N3TYB", "current_trial": 11, "dateTime": 1510941424386, "trialdata": {"rt": -1, "stimulus": "<p id=\"stim\">9</p>", "key_press": -1, "trial_type": "single-stim", "trial_index": 11, "time_elapsed": 112411, "internal_node_id": "0.0-10.0-1.0"}}, {"uniqueid": "MTK0471:3HVVDCPGTFZ2T8EOF8YN8YGU9N3TYB", "current_trial": 12, "dateTime": 1510941425406, "trialdata": {"rt": -1, "stimulus": "<p id=\"stim\">8</p>", "key_press": -1, "trial_type": "single-stim", "trial_index": 12, "time_elapsed": 113429, "internal_node_id": "0.0-10.0-2.0"}}, {"uniqueid": "MTK0471:3HVVDCPGTFZ2T8EOF8YN8YGU9N3TYB", "current_trial": 13, "dateTime": 1510941426423, "trialdata": {"rt": -1, "stimulus": "<p id=\"stim\">7</p>", "key_press": -1, "trial_type": "single-stim", "trial_index": 13, "time_elapsed": 114448, "internal_node_id": "0.0-10.0-3.0"}}, {"uniqueid": "MTK0471:3HVVDCPGTFZ2T8EOF8YN8YGU9N3TYB", "current_trial": 14, "dateTime": 1510941427445, "trialdata": {"rt": -1, "stimulus": "<p id=\"stim\">6</p>", "key_press": -1, "trial_type": "single-stim", "trial_index": 14, "time_elapsed": 115469, "internal_node_id": "0.0-10.0-4.0"}}, {"uniqueid": "MTK0471:3HVVDCPGTFZ2T8EOF8YN8YGU9N3TYB", "current_trial": 15, "dateTime": 1510941428459, "trialdata": {"rt": -1, "stimulus": "<p id=\"stim\">5</p>", "key_press": -1, "trial_type": "single-stim", "trial_index": 15, "time_elapsed": 116484, "internal_node_id": "0.0-10.0-5.0"}}, {"uniqueid": "MTK0471:3HVVDCPGTFZ2T8EOF8YN8YGU9N3TYB", "current_trial": 16, "dateTime": 1510941429478, "trialdata": {"rt": -1, "stimulus": "<p id=\"stim\">4</p>", "key_press": -1, "trial_type": "single-stim", "trial_index": 16, "time_elapsed": 117504, "internal_node_id": "0.0-10.0-6.0"}}, {"uniqueid": "MTK0471:3HVVDCPGTFZ2T8EOF8YN8YGU9N3TYB", "current_trial": 17, "dateTime": 1510941430516, "trialdata": {"rt": -1, "stimulus": "<p id=\"stim\">3</p>", "key_press": -1, "trial_type": "single-stim", "trial_index": 17, "time_elapsed": 118539, "internal_node_id": "0.0-10.0-7.0"}}, {"uniqueid": "MTK0471:3HVVDCPGTFZ2T8EOF8YN8YGU9N3TYB", "current_trial": 18, "dateTime": 1510941431533, "trialdata": {"rt": -1, "stimulus": "<p id=\"stim\">2</p>", "key_press": -1, "trial_type": "single-stim", "trial_index": 18, "time_elapsed": 119557, "internal_node_id": "0.0-10.0-8.0"}}, {"uniqueid": "MTK0471:3HVVDCPGTFZ2T8EOF8YN8YGU9N3TYB", "current_trial": 19, "dateTime": 1510941432542, "trialdata": {"rt": -1, "stimulus": "<p id=\"stim\">1</p>", "key_press": -1, "trial_type": "single-stim", "trial_index": 19, "time_elapsed": 120567, "internal_node_id": "0.0-10.0-9.0"}}, {"uniqueid": "MTK0471:3HVVDCPGTFZ2T8EOF8YN8YGU9N3TYB", "current_trial": 20, "dateTime": 1510941434064, "trialdata": {"rt": -1, "stimulus": "<p id=\"stim\">+</p>", "key_press": -1, "type": "FIXATION", "trial_type": "single-stim", "trial_index": 20, "time_elapsed": 122088, "internal_node_id": "0.0-11.0-0.0"}}, {"uniqueid": "MTK0471:3HVVDCPGTFZ2T8EOF8YN8YGU9N3TYB", "current_trial": 21, "dateTime": 1510941435277, "trialdata": {"rt": -1, "stimulus": "<p id=\"stim\">CRAB</p>", "key_press": -1, "type": "PRES_VIS", "word": "crab", "wordID": 396, "conditions": [18, 1200, "v", 18000], "trial": 0, "serialpos": 0, "trial_type": "single-stim", "trial_index": 21, "time_elapsed": 123301, "internal_node_id": "0.0-12.0"}}, {"uniqueid": "MTK0471:3HVVDCPGTFZ2T8EOF8YN8YGU9N3TYB", "current_trial": 22, "dateTime": 1510941437383, "trialdata": {"rt": -1, "stimulus": "<p id=\"stim\">BACKBONE</p>", "key_press": -1, "type": "PRES_VIS", "word": "backbone", "wordID": 65, "conditions": [18, 1200, "v", 18000], "trial": 0, "serialpos": 1, "trial_type": "single-stim", "trial_index": 22, "time_elapsed": 125408, "internal_node_id": "0.0-13.0"}}, {"uniqueid": "MTK0471:3HVVDCPGTFZ2T8EOF8YN8YGU9N3TYB", "current_trial": 23, "dateTime": 1510941439577, "trialdata": {"rt": -1, "stimulus": "<p id=\"stim\">FRUIT</p>", "key_press": -1, "type": "PRES_VIS", "word": "fruit", "wordID": 609, "conditions": [18, 1200, "v", 18000], "trial": 0, "serialpos": 2, "trial_type": "single-stim", "trial_index": 23, "time_elapsed": 127602, "internal_node_id": "0.0-14.0"}}, {"uniqueid": "MTK0471:3HVVDCPGTFZ2T8EOF8YN8YGU9N3TYB", "current_trial": 24, "dateTime": 1510941441659, "trialdata": {"rt": -1, "stimulus": "<p id=\"stim\">STAMP</p>", "key_press": -1, "type": "PRES_VIS", "word": "stamp", "wordID": 1369, "conditions": [18, 1200, "v", 18000], "trial": 0, "serialpos": 3, "trial_type": "single-stim", "trial_index": 24, "time_elapsed": 129683, "internal_node_id": "0.0-15.0"}}, {"uniqueid": "MTK0471:3HVVDCPGTFZ2T8EOF8YN8YGU9N3TYB", "current_trial": 25, "dateTime": 1510941444031, "trialdata": {"rt": -1, "stimulus": "<p id=\"stim\">CAFE</p>", "key_press": -1, "type": "PRES_VIS", "word": "cafe", "wordID": 215, "conditions": [18, 1200, "v", 18000], "trial": 0, "serialpos": 4, "trial_type": "single-stim", "trial_index": 25, "time_elapsed": 132055, "internal_node_id": "0.0-16.0"}}, {"uniqueid": "MTK0471:3HVVDCPGTFZ2T8EOF8YN8YGU9N3TYB", "current_trial": 26, "dateTime": 1510941446156, "trialdata": {"rt": -1, "stimulus": "<p id=\"stim\">SHARK</p>", "key_press": -1, "type": "PRES_VIS", "word": "shark", "wordID": 1274, "conditions": [18, 1200, "v", 18000], "trial": 0, "serialpos": 5, "trial_type": "single-stim", "trial_index": 26, "time_elapsed": 134182, "internal_node_id": "0.0-17.0"}}, {"uniqueid": "MTK0471:3HVVDCPGTFZ2T8EOF8YN8YGU9N3TYB", "current_trial": 27, "dateTime": 1510941448281, "trialdata": {"rt": -1, "stimulus": "<p id=\"stim\">NEUTRON</p>", "key_press": -1, "type": "PRES_VIS", "word": "neutron", "wordID": 946, "conditions": [18, 1200, "v", 18000], "trial": 0, "serialpos": 6, "trial_type": "single-stim", "trial_index": 27, "time_elapsed": 136307, "internal_node_id": "0.0-18.0"}}, {"uniqueid": "MTK0471:3HVVDCPGTFZ2T8EOF8YN8YGU9N3TYB", "current_trial": 28, "dateTime": 1510941450407, "trialdata": {"rt": -1, "stimulus": "<p id=\"stim\">PEACH</p>", "key_press": -1, "type": "PRES_VIS", "word": "peach", "wordID": 1030, "conditions": [18, 1200, "v", 18000], "trial": 0, "serialpos": 7, "trial_type": "single-stim", "trial_index": 28, "time_elapsed": 138431, "internal_node_id": "0.0-19.0"}}, {"uniqueid": "MTK0471:3HVVDCPGTFZ2T8EOF8YN8YGU9N3TYB", "current_trial": 29, "dateTime": 1510941452467, "trialdata": {"rt": -1, "stimulus": "<p id=\"stim\">LIPSTICK</p>", "key_press": -1, "type": "PRES_VIS", "word": "lipstick", "wordID": 828, "conditions": [18, 1200, "v", 18000], "trial": 0, "serialpos": 8, "trial_type": "single-stim", "trial_index": 29, "time_elapsed": 140493, "internal_node_id": "0.0-20.0"}}, {"uniqueid": "MTK0471:3HVVDCPGTFZ2T8EOF8YN8YGU9N3TYB", "current_trial": 30, "dateTime": 1510941454502, "trialdata": {"rt": -1, "stimulus": "<p id=\"stim\">CITRUS</p>", "key_press": -1, "type": "PRES_VIS", "word": "citrus", "wordID": 312, "conditions": [18, 1200, "v", 18000], "trial": 0, "serialpos": 9, "trial_type": "single-stim", "trial_index": 30, "time_elapsed": 142526, "internal_node_id": "0.0-21.0"}}, {"uniqueid": "MTK0471:3HVVDCPGTFZ2T8EOF8YN8YGU9N3TYB", "current_trial": 31, "dateTime": 1510941456640, "trialdata": {"rt": -1, "stimulus": "<p id=\"stim\">MATCH</p>", "key_press": -1, "type": "PRES_VIS", "word": "match", "wordID": 877, "conditions": [18, 1200, "v", 18000], "trial": 0, "serialpos": 10, "trial_type": "single-stim", "trial_index": 31, "time_elapsed": 144664, "internal_node_id": "0.0-22.0"}}, {"uniqueid": "MTK0471:3HVVDCPGTFZ2T8EOF8YN8YGU9N3TYB", "current_trial": 32, "dateTime": 1510941458886, "trialdata": {"rt": -1, "stimulus": "<p id=\"stim\">LABEL</p>", "key_press": -1, "type": "PRES_VIS", "word": "label", "wordID": 789, "conditions": [18, 1200, "v", 18000], "trial": 0, "serialpos": 11, "trial_type": "single-stim", "trial_index": 32, "time_elapsed": 146910, "internal_node_id": "0.0-23.0"}}, {"uniqueid": "MTK0471:3HVVDCPGTFZ2T8EOF8YN8YGU9N3TYB", "current_trial": 33, "dateTime": 1510941460994, "trialdata": {"rt": -1, "stimulus": "<p id=\"stim\">BABY</p>", "key_press": -1, "type": "PRES_VIS", "word": "baby", "wordID": 63, "conditions": [18, 1200, "v", 18000], "trial": 0, "serialpos": 12, "trial_type": "single-stim", "trial_index": 33, "time_elapsed": 149019, "internal_node_id": "0.0-24.0"}}, {"uniqueid": "MTK0471:3HVVDCPGTFZ2T8EOF8YN8YGU9N3TYB", "current_trial": 34, "dateTime": 1510941463165, "trialdata": {"rt": -1, "stimulus": "<p id=\"stim\">TART</p>", "key_press": -1, "type": "PRES_VIS", "word": "tart", "wordID": 1435, "conditions": [18, 1200, "v", 18000], "trial": 0, "serialpos": 13, "trial_type": "single-stim", "trial_index": 34, "time_elapsed": 151190, "internal_node_id": "0.0-25.0"}}, {"uniqueid": "MTK0471:3HVVDCPGTFZ2T8EOF8YN8YGU9N3TYB", "current_trial": 35, "dateTime": 1510941465179, "trialdata": {"rt": -1, "stimulus": "<p id=\"stim\">INMATE</p>", "key_press": -1, "type": "PRES_VIS", "word": "inmate", "wordID": 737, "conditions": [18, 1200, "v", 18000], "trial": 0, "serialpos": 14, "trial_type": "single-stim", "trial_index": 35, "time_elapsed": 153204, "internal_node_id": "0.0-26.0"}}, {"uniqueid": "MTK0471:3HVVDCPGTFZ2T8EOF8YN8YGU9N3TYB", "current_trial": 36, "dateTime": 1510941467325, "trialdata": {"rt": -1, "stimulus": "<p id=\"stim\">COOK</p>", "key_press": -1, "type": "PRES_VIS", "word": "cook", "wordID": 371, "conditions": [18, 1200, "v", 18000], "trial": 0, "serialpos": 15, "trial_type": "single-stim", "trial_index": 36, "time_elapsed": 155349, "internal_node_id": "0.0-27.0"}}, {"uniqueid": "MTK0471:3HVVDCPGTFZ2T8EOF8YN8YGU9N3TYB", "current_trial": 37, "dateTime": 1510941469434, "trialdata": {"rt": -1, "stimulus": "<p id=\"stim\">ROBIN</p>", "key_press": -1, "type": "PRES_VIS", "word": "robin", "wordID": 1198, "conditions": [18, 1200, "v", 18000], "trial": 0, "serialpos": 16, "trial_type": "single-stim", "trial_index": 37, "time_elapsed": 157460, "internal_node_id": "0.0-28.0"}}, {"uniqueid": "MTK0471:3HVVDCPGTFZ2T8EOF8YN8YGU9N3TYB", "current_trial": 38, "dateTime": 1510941471822, "trialdata": {"rt": -1, "stimulus": "<p id=\"stim\">CASKET</p>", "key_press": -1, "type": "PRES_VIS", "word": "casket", "wordID": 254, "conditions": [18, 1200, "v", 18000], "trial": 0, "serialpos": 17, "trial_type": "single-stim", "trial_index": 38, "time_elapsed": 159848, "internal_node_id": "0.0-29.0"}}, {"uniqueid": "MTK0471:3HVVDCPGTFZ2T8EOF8YN8YGU9N3TYB", "current_trial": 39, "dateTime": 1510941474211, "trialdata": {"rt": -1, "stimulus": "", "key_press": -1, "type": "PRE_RECALL_DELAY", "trial_type": "single-stim", "trial_index": 39, "time_elapsed": 162237, "internal_node_id": "0.0-30.0-0.0"}}, {"uniqueid": "MTK0471:3HVVDCPGTFZ2T8EOF8YN8YGU9N3TYB", "current_trial": 40, "dateTime": 1510941474716, "trialdata": {"rt": -1000, "stimulus": "/static/audio/400Hz.wav", "key_press": -1, "type": "PRE_RECALL_ALERT", "trial_type": "single-audio", "trial_index": 40, "time_elapsed": 162742, "internal_node_id": "0.0-31.0"}}, {"uniqueid": "MTK0471:3HVVDCPGTFZ2T8EOF8YN8YGU9N3TYB", "current_trial": 41, "dateTime": 1510941534733, "trialdata": {"rt": [3756, 8495, 8732, 14461, 17018, 20106, 21675, 23700, 30090, 34765, 42175, 45466, 45835], "recwords": ["tart", "label", "", "lipstick", "match", "fruit", "stamp", "robin", "inmate", "cook", "crab", "citrus", ""], "type": "FREE_RECALL", "conditions": [18, 1200, "v", 18000], "trial": 0, "trial_type": "free-recall", "trial_index": 41, "time_elapsed": 222751, "internal_node_id": "0.0-32.0-0.0"}}, {"uniqueid": "MTK0471:3HVVDCPGTFZ2T8EOF8YN8YGU9N3TYB", "current_trial": 42, "dateTime": 1510941538560, "trialdata": {"rt": 1821, "key_press": 74, "type": "INSTRUCTIONS", "trial_type": "text", "trial_index": 42, "time_elapsed": 226586, "internal_node_id": "0.0-33.0"}}, {"uniqueid": "MTK0471:3HVVDCPGTFZ2T8EOF8YN8YGU9N3TYB", "current_trial": 43, "dateTime": 1510941558585, "trialdata": {"rt": [2389, 4484, 6273, 7746, 9456, 11719, 13761, 15369, 16957], "responses": ["16", "15", "14", "6", "11", "18", "17", "10", "10"], "num1": [5, 6, 9, 3, 6, 4, 3, 3, 2, 8], "num2": [4, 3, 2, 2, 1, 5, 7, 1, 1, 6], "num3": [6, 6, 3, 1, 4, 9, 7, 6, 7, 9], "type": "DISTRACTOR", "conditions": [18, 1200, "a", 18000], "trial": 1, "trial_type": "math-distractor", "trial_index": 43, "time_elapsed": 246611, "internal_node_id": "0.0-34.0"}}, {"uniqueid": "MTK0471:3HVVDCPGTFZ2T8EOF8YN8YGU9N3TYB", "current_trial": 44, "dateTime": 1510941561604, "trialdata": {"rt": -1, "stimulus": "<p id=\"stim\">10</p>", "key_press": -1, "trial_type": "single-stim", "trial_index": 44, "time_elapsed": 249624, "internal_node_id": "0.0-35.0-0.0"}}, {"uniqueid": "MTK0471:3HVVDCPGTFZ2T8EOF8YN8YGU9N3TYB", "current_trial": 45, "dateTime": 1510941562618, "trialdata": {"rt": -1, "stimulus": "<p id=\"stim\">9</p>", "key_press": -1, "trial_type": "single-stim", "trial_index": 45, "time_elapsed": 250641, "internal_node_id": "0.0-35.0-1.0"}}, {"uniqueid": "MTK0471:3HVVDCPGTFZ2T8EOF8YN8YGU9N3TYB", "current_trial": 46, "dateTime": 1510941563624, "trialdata": {"rt": -1, "stimulus": "<p id=\"stim\">8</p>", "key_press": -1, "trial_type": "single-stim", "trial_index": 46, "time_elapsed": 251649, "internal_node_id": "0.0-35.0-2.0"}}, {"uniqueid": "MTK0471:3HVVDCPGTFZ2T8EOF8YN8YGU9N3TYB", "current_trial": 47, "dateTime": 1510941564635, "trialdata": {"rt": -1, "stimulus": "<p id=\"stim\">7</p>", "key_press": -1, "trial_type": "single-stim", "trial_index": 47, "time_elapsed": 252659, "internal_node_id": "0.0-35.0-3.0"}}, {"uniqueid": "MTK0471:3HVVDCPGTFZ2T8EOF8YN8YGU9N3TYB", "current_trial": 48, "dateTime": 1510941565650, "trialdata": {"rt": -1, "stimulus": "<p id=\"stim\">6</p>", "key_press": -1, "trial_type": "single-stim", "trial_index": 48, "time_elapsed": 253673, "internal_node_id": "0.0-35.0-4.0"}}, {"uniqueid": "MTK0471:3HVVDCPGTFZ2T8EOF8YN8YGU9N3TYB", "current_trial": 49, "dateTime": 1510941566663, "trialdata": {"rt": -1, "stimulus": "<p id=\"stim\">5</p>", "key_press": -1, "trial_type": "single-stim", "trial_index": 49, "time_elapsed": 254686, "internal_node_id": "0.0-35.0-5.0"}}, {"uniqueid": "MTK0471:3HVVDCPGTFZ2T8EOF8YN8YGU9N3TYB", "current_trial": 50, "dateTime": 1510941567675, "trialdata": {"rt": -1, "stimulus": "<p id=\"stim\">4</p>", "key_press": -1, "trial_type": "single-stim", "trial_index": 50, "time_elapsed": 255699, "internal_node_id": "0.0-35.0-6.0"}}, {"uniqueid": "MTK0471:3HVVDCPGTFZ2T8EOF8YN8YGU9N3TYB", "current_trial": 51, "dateTime": 1510941568683, "trialdata": {"rt": -1, "stimulus": "<p id=\"stim\">3</p>", "key_press": -1, "trial_type": "single-stim", "trial_index": 51, "time_elapsed": 256708, "internal_node_id": "0.0-35.0-7.0"}}, {"uniqueid": "MTK0471:3HVVDCPGTFZ2T8EOF8YN8YGU9N3TYB", "current_trial": 52, "dateTime": 1510941569697, "trialdata": {"rt": -1, "stimulus": "<p id=\"stim\">2</p>", "key_press": -1, "trial_type": "single-stim", "trial_index": 52, "time_elapsed": 257723, "internal_node_id": "0.0-35.0-8.0"}}, {"uniqueid": "MTK0471:3HVVDCPGTFZ2T8EOF8YN8YGU9N3TYB", "current_trial": 53, "dateTime": 1510941570711, "trialdata": {"rt": -1, "stimulus": "<p id=\"stim\">1</p>", "key_press": -1, "trial_type": "single-stim", "trial_index": 53, "time_elapsed": 258732, "internal_node_id": "0.0-35.0-9.0"}}, {"uniqueid": "MTK0471:3HVVDCPGTFZ2T8EOF8YN8YGU9N3TYB", "current_trial": 54, "dateTime": 1510941572219, "trialdata": {"rt": -1, "stimulus": "<p id=\"stim\">+</p>", "key_press": -1, "type": "FIXATION", "trial_type": "single-stim", "trial_index": 54, "time_elapsed": 260244, "internal_node_id": "0.0-36.0-0.0"}}, {"uniqueid": "MTK0471:3HVVDCPGTFZ2T8EOF8YN8YGU9N3TYB", "current_trial": 55, "dateTime": 1510941574274, "trialdata": {"rt": -1000, "stimulus": "/static/audio/wordpool/AIRPORT.wav", "key_press": -1, "type": "PRES_AUD", "word": "airport", "wordID": 12, "conditions": [18, 1200, "a", 18000], "trial": 1, "serialpos": 0, "trial_type": "single-audio", "trial_index": 55, "time_elapsed": 262299, "internal_node_id": "0.0-37.0"}}, {"uniqueid": "MTK0471:3HVVDCPGTFZ2T8EOF8YN8YGU9N3TYB", "current_trial": 56, "dateTime": 1510941576488, "trialdata": {"rt": -1000, "stimulus": "/static/audio/wordpool/TYPIST.wav", "key_press": -1, "type": "PRES_AUD", "word": "typist", "wordID": 1531, "conditions": [18, 1200, "a", 18000], "trial": 1, "serialpos": 1, "trial_type": "single-audio", "trial_index": 56, "time_elapsed": 264512, "internal_node_id": "0.0-38.0"}}, {"uniqueid": "MTK0471:3HVVDCPGTFZ2T8EOF8YN8YGU9N3TYB", "current_trial": 57, "dateTime": 1510941578627, "trialdata": {"rt": -1000, "stimulus": "/static/audio/wordpool/VAGRANT.wav", "key_press": -1, "type": "PRES_AUD", "word": "vagrant", "wordID": 1543, "conditions": [18, 1200, "a", 18000], "trial": 1, "serialpos": 2, "trial_type": "single-audio", "trial_index": 57, "time_elapsed": 266653, "internal_node_id": "0.0-39.0"}}, {"uniqueid": "MTK0471:3HVVDCPGTFZ2T8EOF8YN8YGU9N3TYB", "current_trial": 58, "dateTime": 1510941580680, "trialdata": {"rt": -1000, "stimulus": "/static/audio/wordpool/PASTA.wav", "key_press": -1, "type": "PRES_AUD", "word": "pasta", "wordID": 1020, "conditions": [18, 1200, "a", 18000], "trial": 1, "serialpos": 3, "trial_type": "single-audio", "trial_index": 58, "time_elapsed": 268706, "internal_node_id": "0.0-40.0"}}, {"uniqueid": "MTK0471:3HVVDCPGTFZ2T8EOF8YN8YGU9N3TYB", "current_trial": 59, "dateTime": 1510941583050, "trialdata": {"rt": -1000, "stimulus": "/static/audio/wordpool/SALMON.wav", "key_press": -1, "type": "PRES_AUD", "word": "salmon", "wordID": 1226, "conditions": [18, 1200, "a", 18000], "trial": 1, "serialpos": 4, "trial_type": "single-audio", "trial_index": 59, "time_elapsed": 271073, "internal_node_id": "0.0-41.0"}}, {"uniqueid": "MTK0471:3HVVDCPGTFZ2T8EOF8YN8YGU9N3TYB", "current_trial": 60, "dateTime": 1510941585419, "trialdata": {"rt": -1000, "stimulus": "/static/audio/wordpool/LIVER.wav", "key_press": -1, "type": "PRES_AUD", "word": "liver", "wordID": 832, "conditions": [18, 1200, "a", 18000], "trial": 1, "serialpos": 5, "trial_type": "single-audio", "trial_index": 60, "time_elapsed": 273443, "internal_node_id": "0.0-42.0"}}, {"uniqueid": "MTK0471:3HVVDCPGTFZ2T8EOF8YN8YGU9N3TYB", "current_trial": 61, "dateTime": 1510941587424, "trialdata": {"rt": -1000, "stimulus": "/static/audio/wordpool/BULLET.wav", "key_press": -1, "type": "PRES_AUD", "word": "bullet", "wordID": 193, "conditions": [18, 1200, "a", 18000], "trial": 1, "serialpos": 6, "trial_type": "single-audio", "trial_index": 61, "time_elapsed": 275450, "internal_node_id": "0.0-43.0"}}, {"uniqueid": "MTK0471:3HVVDCPGTFZ2T8EOF8YN8YGU9N3TYB", "current_trial": 62, "dateTime": 1510941589627, "trialdata": {"rt": -1000, "stimulus": "/static/audio/wordpool/PALACE.wav", "key_press": -1, "type": "PRES_AUD", "word": "palace", "wordID": 1005, "conditions": [18, 1200, "a", 18000], "trial": 1, "serialpos": 7, "trial_type": "single-audio", "trial_index": 62, "time_elapsed": 277652, "internal_node_id": "0.0-44.0"}}, {"uniqueid": "MTK0471:3HVVDCPGTFZ2T8EOF8YN8YGU9N3TYB", "current_trial": 63, "dateTime": 1510941591722, "trialdata": {"rt": -1000, "stimulus": "/static/audio/wordpool/ARM.wav", "key_press": -1, "type": "PRES_AUD", "word": "arm", "wordID": 37, "conditions": [18, 1200, "a", 18000], "trial": 1, "serialpos": 8, "trial_type": "single-audio", "trial_index": 63, "time_elapsed": 279746, "internal_node_id": "0.0-45.0"}}, {"uniqueid": "MTK0471:3HVVDCPGTFZ2T8EOF8YN8YGU9N3TYB", "current_trial": 64, "dateTime": 1510941593838, "trialdata": {"rt": -1000, "stimulus": "/static/audio/wordpool/SHELTER.wav", "key_press": -1, "type": "PRES_AUD", "word": "shelter", "wordID": 1281, "conditions": [18, 1200, "a", 18000], "trial": 1, "serialpos": 9, "trial_type": "single-audio", "trial_index": 64, "time_elapsed": 281864, "internal_node_id": "0.0-46.0"}}, {"uniqueid": "MTK0471:3HVVDCPGTFZ2T8EOF8YN8YGU9N3TYB", "current_trial": 65, "dateTime": 1510941596012, "trialdata": {"rt": -1000, "stimulus": "/static/audio/wordpool/DASHBOARD.wav", "key_press": -1, "type": "PRES_AUD", "word": "dashboard", "wordID": 440, "conditions": [18, 1200, "a", 18000], "trial": 1, "serialpos": 10, "trial_type": "single-audio", "trial_index": 65, "time_elapsed": 284034, "internal_node_id": "0.0-47.0"}}, {"uniqueid": "MTK0471:3HVVDCPGTFZ2T8EOF8YN8YGU9N3TYB", "current_trial": 66, "dateTime": 1510941598137, "trialdata": {"rt": -1000, "stimulus": "/static/audio/wordpool/SUNSET.wav", "key_press": -1, "type": "PRES_AUD", "word": "sunset", "wordID": 1407, "conditions": [18, 1200, "a", 18000], "trial": 1, "serialpos": 11, "trial_type": "single-audio", "trial_index": 66, "time_elapsed": 286160, "internal_node_id": "0.0-48.0"}}, {"uniqueid": "MTK0471:3HVVDCPGTFZ2T8EOF8YN8YGU9N3TYB", "current_trial": 67, "dateTime": 1510941600361, "trialdata": {"rt": -1000, "stimulus": "/static/audio/wordpool/ITEM.wav", "key_press": -1, "type": "PRES_AUD", "word": "item", "wordID": 745, "conditions": [18, 1200, "a", 18000], "trial": 1, "serialpos": 12, "trial_type": "single-audio", "trial_index": 67, "time_elapsed": 288384, "internal_node_id": "0.0-49.0"}}, {"uniqueid": "MTK0471:3HVVDCPGTFZ2T8EOF8YN8YGU9N3TYB", "current_trial": 68, "dateTime": 1510941602690, "trialdata": {"rt": -1000, "stimulus": "/static/audio/wordpool/BUREAU.wav", "key_press": -1, "type": "PRES_AUD", "word": "bureau", "wordID": 198, "conditions": [18, 1200, "a", 18000], "trial": 1, "serialpos": 13, "trial_type": "single-audio", "trial_index": 68, "time_elapsed": 290708, "internal_node_id": "0.0-50.0"}}, {"uniqueid": "MTK0471:3HVVDCPGTFZ2T8EOF8YN8YGU9N3TYB", "current_trial": 69, "dateTime": 1510941604744, "trialdata": {"rt": -1000, "stimulus": "/static/audio/wordpool/SHIRT.wav", "key_press": -1, "type": "PRES_AUD", "word": "shirt", "wordID": 1286, "conditions": [18, 1200, "a", 18000], "trial": 1, "serialpos": 14, "trial_type": "single-audio", "trial_index": 69, "time_elapsed": 292770, "internal_node_id": "0.0-51.0"}}, {"uniqueid": "MTK0471:3HVVDCPGTFZ2T8EOF8YN8YGU9N3TYB", "current_trial": 70, "dateTime": 1510941607027, "trialdata": {"rt": -1000, "stimulus": "/static/audio/wordpool/GYMNAST.wav", "key_press": -1, "type": "PRES_AUD", "word": "gymnast", "wordID": 674, "conditions": [18, 1200, "a", 18000], "trial": 1, "serialpos": 15, "trial_type": "single-audio", "trial_index": 70, "time_elapsed": 295051, "internal_node_id": "0.0-52.0"}}, {"uniqueid": "MTK0471:3HVVDCPGTFZ2T8EOF8YN8YGU9N3TYB", "current_trial": 71, "dateTime": 1510941609285, "trialdata": {"rt": -1000, "stimulus": "/static/audio/wordpool/ULCER.wav", "key_press": -1, "type": "PRES_AUD", "word": "ulcer", "wordID": 1532, "conditions": [18, 1200, "a", 18000], "trial": 1, "serialpos": 16, "trial_type": "single-audio", "trial_index": 71, "time_elapsed": 297310, "internal_node_id": "0.0-53.0"}}, {"uniqueid": "MTK0471:3HVVDCPGTFZ2T8EOF8YN8YGU9N3TYB", "current_trial": 72, "dateTime": 1510941611536, "trialdata": {"rt": -1000, "stimulus": "/static/audio/wordpool/MILK.wav", "key_press": -1, "type": "PRES_AUD", "word": "milk", "wordID": 894, "conditions": [18, 1200, "a", 18000], "trial": 1, "serialpos": 17, "trial_type": "single-audio", "trial_index": 72, "time_elapsed": 299561, "internal_node_id": "0.0-54.0"}}, {"uniqueid": "MTK0471:3HVVDCPGTFZ2T8EOF8YN8YGU9N3TYB", "current_trial": 73, "dateTime": 1510941612858, "trialdata": {"rt": -1, "stimulus": "", "key_press": -1, "type": "PRE_RECALL_DELAY", "trial_type": "single-stim", "trial_index": 73, "time_elapsed": 300882, "internal_node_id": "0.0-55.0-0.0"}}, {"uniqueid": "MTK0471:3HVVDCPGTFZ2T8EOF8YN8YGU9N3TYB", "current_trial": 74, "dateTime": 1510941613368, "trialdata": {"rt": -1000, "stimulus": "/static/audio/400Hz.wav", "key_press": -1, "type": "PRE_RECALL_ALERT", "trial_type": "single-audio", "trial_index": 74, "time_elapsed": 301393, "internal_node_id": "0.0-56.0"}}, {"uniqueid": "MTK0471:3HVVDCPGTFZ2T8EOF8YN8YGU9N3TYB", "current_trial": 75, "dateTime": 1510941673392, "trialdata": {"rt": [4200, 8394, 14613, 19179, 22503, 25713, 29213, 34811, 38440], "recwords": ["shelter", "liver", "sunset", "shirt", "item", "salmon", "pasta", "milk", "palace"], "type": "FREE_RECALL", "conditions": [18, 1200, "a", 18000], "trial": 1, "trial_type": "free-recall", "trial_index": 75, "time_elapsed": 361412, "internal_node_id": "0.0-57.0-0.0"}}, {"uniqueid": "MTK0471:3HVVDCPGTFZ2T8EOF8YN8YGU9N3TYB", "current_trial": 76, "dateTime": 1510941697547, "trialdata": {"rt": 22127, "key_press": 66, "type": "INSTRUCTIONS", "trial_type": "text", "trial_index": 76, "time_elapsed": 385551, "internal_node_id": "0.0-58.0"}}, {"uniqueid": "MTK0471:3HVVDCPGTFZ2T8EOF8YN8YGU9N3TYB", "current_trial": 77, "dateTime": 1510941710557, "trialdata": {"rt": [2480, 4168, 6414, 9565, 11303], "responses": ["15", "8", "9", "15", "13"], "num1": [5, 1, 1, 3, 3, 5], "num2": [1, 4, 4, 9, 7, 2], "num3": [9, 3, 4, 3, 3, 7], "type": "DISTRACTOR", "conditions": [24, 800, "a", 12000], "trial": 2, "trial_type": "math-distractor", "trial_index": 77, "time_elapsed": 398583, "internal_node_id": "0.0-59.0"}}, {"uniqueid": "MTK0471:3HVVDCPGTFZ2T8EOF8YN8YGU9N3TYB", "current_trial": 78, "dateTime": 1510941713565, "trialdata": {"rt": -1, "stimulus": "<p id=\"stim\">10</p>", "key_press": -1, "trial_type": "single-stim", "trial_index": 78, "time_elapsed": 401591, "internal_node_id": "0.0-60.0-0.0"}}, {"uniqueid": "MTK0471:3HVVDCPGTFZ2T8EOF8YN8YGU9N3TYB", "current_trial": 79, "dateTime": 1510941714585, "trialdata": {"rt": -1, "stimulus": "<p id=\"stim\">9</p>", "key_press": -1, "trial_type": "single-stim", "trial_index": 79, "time_elapsed": 402605, "internal_node_id": "0.0-60.0-1.0"}}, {"uniqueid": "MTK0471:3HVVDCPGTFZ2T8EOF8YN8YGU9N3TYB", "current_trial": 80, "dateTime": 1510941715592, "trialdata": {"rt": -1, "stimulus": "<p id=\"stim\">8</p>", "key_press": -1, "trial_type": "single-stim", "trial_index": 80, "time_elapsed": 403617, "internal_node_id": "0.0-60.0-2.0"}}, {"uniqueid": "MTK0471:3HVVDCPGTFZ2T8EOF8YN8YGU9N3TYB", "current_trial": 81, "dateTime": 1510941716606, "trialdata": {"rt": -1, "stimulus": "<p id=\"stim\">7</p>", "key_press": -1, "trial_type": "single-stim", "trial_index": 81, "time_elapsed": 404631, "internal_node_id": "0.0-60.0-3.0"}}, {"uniqueid": "MTK0471:3HVVDCPGTFZ2T8EOF8YN8YGU9N3TYB", "current_trial": 82, "dateTime": 1510941717622, "trialdata": {"rt": -1, "stimulus": "<p id=\"stim\">6</p>", "key_press": -1, "trial_type": "single-stim", "trial_index": 82, "time_elapsed": 405646, "internal_node_id": "0.0-60.0-4.0"}}, {"uniqueid": "MTK0471:3HVVDCPGTFZ2T8EOF8YN8YGU9N3TYB", "current_trial": 83, "dateTime": 1510941718636, "trialdata": {"rt": -1, "stimulus": "<p id=\"stim\">5</p>", "key_press": -1, "trial_type": "single-stim", "trial_index": 83, "time_elapsed": 406660, "internal_node_id": "0.0-60.0-5.0"}}, {"uniqueid": "MTK0471:3HVVDCPGTFZ2T8EOF8YN8YGU9N3TYB", "current_trial": 84, "dateTime": 1510941719660, "trialdata": {"rt": -1, "stimulus": "<p id=\"stim\">4</p>", "key_press": -1, "trial_type": "single-stim", "trial_index": 84, "time_elapsed": 407685, "internal_node_id": "0.0-60.0-6.0"}}, {"uniqueid": "MTK0471:3HVVDCPGTFZ2T8EOF8YN8YGU9N3TYB", "current_trial": 85, "dateTime": 1510941720679, "trialdata": {"rt": -1, "stimulus": "<p id=\"stim\">3</p>", "key_press": -1, "trial_type": "single-stim", "trial_index": 85, "time_elapsed": 408704, "internal_node_id": "0.0-60.0-7.0"}}, {"uniqueid": "MTK0471:3HVVDCPGTFZ2T8EOF8YN8YGU9N3TYB", "current_trial": 86, "dateTime": 1510941721697, "trialdata": {"rt": -1, "stimulus": "<p id=\"stim\">2</p>", "key_press": -1, "trial_type": "single-stim", "trial_index": 86, "time_elapsed": 409721, "internal_node_id": "0.0-60.0-8.0"}}, {"uniqueid": "MTK0471:3HVVDCPGTFZ2T8EOF8YN8YGU9N3TYB", "current_trial": 87, "dateTime": 1510941722714, "trialdata": {"rt": -1, "stimulus": "<p id=\"stim\">1</p>", "key_press": -1, "trial_type": "single-stim", "trial_index": 87, "time_elapsed": 410737, "internal_node_id": "0.0-60.0-9.0"}}, {"uniqueid": "MTK0471:3HVVDCPGTFZ2T8EOF8YN8YGU9N3TYB", "current_trial": 88, "dateTime": 1510941724227, "trialdata": {"rt": -1, "stimulus": "<p id=\"stim\">+</p>", "key_press": -1, "type": "FIXATION", "trial_type": "single-stim", "trial_index": 88, "time_elapsed": 412251, "internal_node_id": "0.0-61.0-0.0"}}, {"uniqueid": "MTK0471:3HVVDCPGTFZ2T8EOF8YN8YGU9N3TYB", "current_trial": 89, "dateTime": 1510941726043, "trialdata": {"rt": -1000, "stimulus": "/static/audio/wordpool/LEOPARD.wav", "key_press": -1, "type": "PRES_AUD", "word": "leopard", "wordID": 811, "conditions": [24, 800, "a", 12000], "trial": 2, "serialpos": 0, "trial_type": "single-audio", "trial_index": 89, "time_elapsed": 414065, "internal_node_id": "0.0-62.0"}}, {"uniqueid": "MTK0471:3HVVDCPGTFZ2T8EOF8YN8YGU9N3TYB", "current_trial": 90, "dateTime": 1510941727734, "trialdata": {"rt": -1000, "stimulus": "/static/audio/wordpool/RECEIPT.wav", "key_press": -1, "type": "PRES_AUD", "word": "receipt", "wordID": 1172, "conditions": [24, 800, "a", 12000], "trial": 2, "serialpos": 1, "trial_type": "single-audio", "trial_index": 90, "time_elapsed": 415758, "internal_node_id": "0.0-63.0"}}, {"uniqueid": "MTK0471:3HVVDCPGTFZ2T8EOF8YN8YGU9N3TYB", "current_trial": 91, "dateTime": 1510941729586, "trialdata": {"rt": -1000, "stimulus": "/static/audio/wordpool/REPORT.wav", "key_press": -1, "type": "PRES_AUD", "word": "report", "wordID": 1183, "conditions": [24, 800, "a", 12000], "trial": 2, "serialpos": 2, "trial_type": "single-audio", "trial_index": 91, "time_elapsed": 417610, "internal_node_id": "0.0-64.0"}}, {"uniqueid": "MTK0471:3HVVDCPGTFZ2T8EOF8YN8YGU9N3TYB", "current_trial": 92, "dateTime": 1510941731221, "trialdata": {"rt": -1000, "stimulus": "/static/audio/wordpool/ROBBER.wav", "key_press": -1, "type": "PRES_AUD", "word": "robber", "wordID": 1196, "conditions": [24, 800, "a", 12000], "trial": 2, "serialpos": 3, "trial_type": "single-audio", "trial_index": 92, "time_elapsed": 419245, "internal_node_id": "0.0-65.0"}}, {"uniqueid": "MTK0471:3HVVDCPGTFZ2T8EOF8YN8YGU9N3TYB", "current_trial": 93, "dateTime": 1510941733020, "trialdata": {"rt": -1000, "stimulus": "/static/audio/wordpool/FOX.wav", "key_press": -1, "type": "PRES_AUD", "word": "fox", "wordID": 597, "conditions": [24, 800, "a", 12000], "trial": 2, "serialpos": 4, "trial_type": "single-audio", "trial_index": 93, "time_elapsed": 421045, "internal_node_id": "0.0-66.0"}}, {"uniqueid": "MTK0471:3HVVDCPGTFZ2T8EOF8YN8YGU9N3TYB", "current_trial": 94, "dateTime": 1510941734739, "trialdata": {"rt": -1000, "stimulus": "/static/audio/wordpool/POWDER.wav", "key_press": -1, "type": "PRES_AUD", "word": "powder", "wordID": 1116, "conditions": [24, 800, "a", 12000], "trial": 2, "serialpos": 5, "trial_type": "single-audio", "trial_index": 94, "time_elapsed": 422763, "internal_node_id": "0.0-67.0"}}, {"uniqueid": "MTK0471:3HVVDCPGTFZ2T8EOF8YN8YGU9N3TYB", "current_trial": 95, "dateTime": 1510941736395, "trialdata": {"rt": -1000, "stimulus": "/static/audio/wordpool/PADDLE.wav", "key_press": -1, "type": "PRES_AUD", "word": "paddle", "wordID": 999, "conditions": [24, 800, "a", 12000], "trial": 2, "serialpos": 6, "trial_type": "single-audio", "trial_index": 95, "time_elapsed": 424420, "internal_node_id": "0.0-68.0"}}, {"uniqueid": "MTK0471:3HVVDCPGTFZ2T8EOF8YN8YGU9N3TYB", "current_trial": 96, "dateTime": 1510941738304, "trialdata": {"rt": -1000, "stimulus": "/static/audio/wordpool/WAITRESS.wav", "key_press": -1, "type": "PRES_AUD", "word": "waitress", "wordID": 1580, "conditions": [24, 800, "a", 12000], "trial": 2, "serialpos": 7, "trial_type": "single-audio", "trial_index": 96, "time_elapsed": 426328, "internal_node_id": "0.0-69.0"}}, {"uniqueid": "MTK0471:3HVVDCPGTFZ2T8EOF8YN8YGU9N3TYB", "current_trial": 97, "dateTime": 1510941740011, "trialdata": {"rt": -1000, "stimulus": "/static/audio/wordpool/CASHIER.wav", "key_press": -1, "type": "PRES_AUD", "word": "cashier", "wordID": 253, "conditions": [24, 800, "a", 12000], "trial": 2, "serialpos": 8, "trial_type": "single-audio", "trial_index": 97, "time_elapsed": 428035, "internal_node_id": "0.0-70.0"}}, {"uniqueid": "MTK0471:3HVVDCPGTFZ2T8EOF8YN8YGU9N3TYB", "current_trial": 98, "dateTime": 1510941741849, "trialdata": {"rt": -1000, "stimulus": "/static/audio/wordpool/PISTON.wav", "key_press": -1, "type": "PRES_AUD", "word": "piston", "wordID": 1075, "conditions": [24, 800, "a", 12000], "trial": 2, "serialpos": 9, "trial_type": "single-audio", "trial_index": 98, "time_elapsed": 429874, "internal_node_id": "0.0-71.0"}}, {"uniqueid": "MTK0471:3HVVDCPGTFZ2T8EOF8YN8YGU9N3TYB", "current_trial": 99, "dateTime": 1510941743486, "trialdata": {"rt": -1000, "stimulus": "/static/audio/wordpool/THIEF.wav", "key_press": -1, "type": "PRES_AUD", "word": "thief", "wordID": 1455, "conditions": [24, 800, "a", 12000], "trial": 2, "serialpos": 10, "trial_type": "single-audio", "trial_index": 99, "time_elapsed": 431510, "internal_node_id": "0.0-72.0"}}, {"uniqueid": "MTK0471:3HVVDCPGTFZ2T8EOF8YN8YGU9N3TYB", "current_trial": 100, "dateTime": 1510941745192, "trialdata": {"rt": -1000, "stimulus": "/static/audio/wordpool/CLAM.wav", "key_press": -1, "type": "PRES_AUD", "word": "clam", "wordID": 314, "conditions": [24, 800, "a", 12000], "trial": 2, "serialpos": 11, "trial_type": "single-audio", "trial_index": 100, "time_elapsed": 433217, "internal_node_id": "0.0-73.0"}}, {"uniqueid": "MTK0471:3HVVDCPGTFZ2T8EOF8YN8YGU9N3TYB", "current_trial": 101, "dateTime": 1510941747007, "trialdata": {"rt": -1000, "stimulus": "/static/audio/wordpool/SEAGULL.wav", "key_press": -1, "type": "PRES_AUD", "word": "seagull", "wordID": 1260, "conditions": [24, 800, "a", 12000], "trial": 2, "serialpos": 12, "trial_type": "single-audio", "trial_index": 101, "time_elapsed": 435031, "internal_node_id": "0.0-74.0"}}, {"uniqueid": "MTK0471:3HVVDCPGTFZ2T8EOF8YN8YGU9N3TYB", "current_trial": 102, "dateTime": 1510941748846, "trialdata": {"rt": -1000, "stimulus": "/static/audio/wordpool/FRIEND.wav", "key_press": -1, "type": "PRES_AUD", "word": "friend", "wordID": 605, "conditions": [24, 800, "a", 12000], "trial": 2, "serialpos": 13, "trial_type": "single-audio", "trial_index": 102, "time_elapsed": 436869, "internal_node_id": "0.0-75.0"}}, {"uniqueid": "MTK0471:3HVVDCPGTFZ2T8EOF8YN8YGU9N3TYB", "current_trial": 103, "dateTime": 1510941750570, "trialdata": {"rt": -1000, "stimulus": "/static/audio/wordpool/DINER.wav", "key_press": -1, "type": "PRES_AUD", "word": "diner", "wordID": 466, "conditions": [24, 800, "a", 12000], "trial": 2, "serialpos": 14, "trial_type": "single-audio", "trial_index": 103, "time_elapsed": 438595, "internal_node_id": "0.0-76.0"}}, {"uniqueid": "MTK0471:3HVVDCPGTFZ2T8EOF8YN8YGU9N3TYB", "current_trial": 104, "dateTime": 1510941752347, "trialdata": {"rt": -1000, "stimulus": "/static/audio/wordpool/DORM.wav", "key_press": -1, "type": "PRES_AUD", "word": "dorm", "wordID": 487, "conditions": [24, 800, "a", 12000], "trial": 2, "serialpos": 15, "trial_type": "single-audio", "trial_index": 104, "time_elapsed": 440371, "internal_node_id": "0.0-77.0"}}, {"uniqueid": "MTK0471:3HVVDCPGTFZ2T8EOF8YN8YGU9N3TYB", "current_trial": 105, "dateTime": 1510941754167, "trialdata": {"rt": -1000, "stimulus": "/static/audio/wordpool/WIFE.wav", "key_press": -1, "type": "PRES_AUD", "word": "wife", "wordID": 1608, "conditions": [24, 800, "a", 12000], "trial": 2, "serialpos": 16, "trial_type": "single-audio", "trial_index": 105, "time_elapsed": 442191, "internal_node_id": "0.0-78.0"}}, {"uniqueid": "MTK0471:3HVVDCPGTFZ2T8EOF8YN8YGU9N3TYB", "current_trial": 106, "dateTime": 1510941755825, "trialdata": {"rt": -1000, "stimulus": "/static/audio/wordpool/XEROX.wav", "key_press": -1, "type": "PRES_AUD", "word": "xerox", "wordID": 1627, "conditions": [24, 800, "a", 12000], "trial": 2, "serialpos": 17, "trial_type": "single-audio", "trial_index": 106, "time_elapsed": 443850, "internal_node_id": "0.0-79.0"}}, {"uniqueid": "MTK0471:3HVVDCPGTFZ2T8EOF8YN8YGU9N3TYB", "current_trial": 107, "dateTime": 1510941757531, "trialdata": {"rt": -1000, "stimulus": "/static/audio/wordpool/FLAG.wav", "key_press": -1, "type": "PRES_AUD", "word": "flag", "wordID": 572, "conditions": [24, 800, "a", 12000], "trial": 2, "serialpos": 18, "trial_type": "single-audio", "trial_index": 107, "time_elapsed": 445556, "internal_node_id": "0.0-80.0"}}, {"uniqueid": "MTK0471:3HVVDCPGTFZ2T8EOF8YN8YGU9N3TYB", "current_trial": 108, "dateTime": 1510941759234, "trialdata": {"rt": -1000, "stimulus": "/static/audio/wordpool/PLATE.wav", "key_press": -1, "type": "PRES_AUD", "word": "plate", "wordID": 1085, "conditions": [24, 800, "a", 12000], "trial": 2, "serialpos": 19, "trial_type": "single-audio", "trial_index": 108, "time_elapsed": 447260, "internal_node_id": "0.0-81.0"}}, {"uniqueid": "MTK0471:3HVVDCPGTFZ2T8EOF8YN8YGU9N3TYB", "current_trial": 109, "dateTime": 1510941760994, "trialdata": {"rt": -1000, "stimulus": "/static/audio/wordpool/COCOON.wav", "key_press": -1, "type": "PRES_AUD", "word": "cocoon", "wordID": 338, "conditions": [24, 800, "a", 12000], "trial": 2, "serialpos": 20, "trial_type": "single-audio", "trial_index": 109, "time_elapsed": 449018, "internal_node_id": "0.0-82.0"}}, {"uniqueid": "MTK0471:3HVVDCPGTFZ2T8EOF8YN8YGU9N3TYB", "current_trial": 110, "dateTime": 1510941762855, "trialdata": {"rt": -1000, "stimulus": "/static/audio/wordpool/VALVE.wav", "key_press": -1, "type": "PRES_AUD", "word": "valve", "wordID": 1545, "conditions": [24, 800, "a", 12000], "trial": 2, "serialpos": 21, "trial_type": "single-audio", "trial_index": 110, "time_elapsed": 450879, "internal_node_id": "0.0-83.0"}}, {"uniqueid": "MTK0471:3HVVDCPGTFZ2T8EOF8YN8YGU9N3TYB", "current_trial": 111, "dateTime": 1510941764650, "trialdata": {"rt": -1000, "stimulus": "/static/audio/wordpool/ACTOR.wav", "key_press": -1, "type": "PRES_AUD", "word": "actor", "wordID": 4, "conditions": [24, 800, "a", 12000], "trial": 2, "serialpos": 22, "trial_type": "single-audio", "trial_index": 111, "time_elapsed": 452675, "internal_node_id": "0.0-84.0"}}, {"uniqueid": "MTK0471:3HVVDCPGTFZ2T8EOF8YN8YGU9N3TYB", "current_trial": 112, "dateTime": 1510941766536, "trialdata": {"rt": -1000, "stimulus": "/static/audio/wordpool/FILM.wav", "key_press": -1, "type": "PRES_AUD", "word": "film", "wordID": 564, "conditions": [24, 800, "a", 12000], "trial": 2, "serialpos": 23, "trial_type": "single-audio", "trial_index": 112, "time_elapsed": 454562, "internal_node_id": "0.0-85.0"}}, {"uniqueid": "MTK0471:3HVVDCPGTFZ2T8EOF8YN8YGU9N3TYB", "current_trial": 113, "dateTime": 1510941767816, "trialdata": {"rt": -1, "stimulus": "", "key_press": -1, "type": "PRE_RECALL_DELAY", "trial_type": "single-stim", "trial_index": 113, "time_elapsed": 455841, "internal_node_id": "0.0-86.0-0.0"}}, {"uniqueid": "MTK0471:3HVVDCPGTFZ2T8EOF8YN8YGU9N3TYB", "current_trial": 114, "dateTime": 1510941768328, "trialdata": {"rt": -1000, "stimulus": "/static/audio/400Hz.wav", "key_press": -1, "type": "PRE_RECALL_ALERT", "trial_type": "single-audio", "trial_index": 114, "time_elapsed": 456354, "internal_node_id": "0.0-87.0"}}, {"uniqueid": "MTK0471:3HVVDCPGTFZ2T8EOF8YN8YGU9N3TYB", "current_trial": 115, "dateTime": 1510941828355, "trialdata": {"rt": [3627, 8251, 11327, 15387, 20412, 28610, 34288, 37756, 42913, 46004, 50939, 54732], "recwords": ["wife", "flag", "clam", "plate", "waitress", "friend", "diner", "actor", "leopard", "fox", "cacoon", "report"], "type": "FREE_RECALL", "conditions": [24, 800, "a", 12000], "trial": 2, "trial_type": "free-recall", "trial_index": 115, "time_elapsed": 516374, "internal_node_id": "0.0-88.0-0.0"}}, {"uniqueid": "MTK0471:3HVVDCPGTFZ2T8EOF8YN8YGU9N3TYB", "current_trial": 116, "dateTime": 1510941831792, "trialdata": {"rt": 1432, "key_press": 78, "type": "INSTRUCTIONS", "trial_type": "text", "trial_index": 116, "time_elapsed": 519818, "internal_node_id": "0.0-89.0"}}, {"uniqueid": "MTK0471:3HVVDCPGTFZ2T8EOF8YN8YGU9N3TYB", "current_trial": 117, "dateTime": 1510941857820, "trialdata": {"rt": [2332, 4454, 7291, 9091, 10979, 12456, 14422, 16164, 18276, 20411, 21876, 23434], "responses": ["15", "16", "12", "9", "18", "6", "13", "10", "13", "18", "12", "14"], "num1": [4, 6, 8, 2, 8, 2, 2, 4, 7, 7, 2, 8, 1], "num2": [3, 2, 4, 4, 3, 2, 4, 1, 2, 6, 1, 1, 7], "num3": [8, 8, 1, 3, 7, 2, 7, 5, 4, 5, 9, 5, 9], "type": "DISTRACTOR", "conditions": [24, 1600, "v", 24000], "trial": 3, "trial_type": "math-distractor", "trial_index": 117, "time_elapsed": 545845, "internal_node_id": "0.0-90.0"}}, {"uniqueid": "MTK0471:3HVVDCPGTFZ2T8EOF8YN8YGU9N3TYB", "current_trial": 118, "dateTime": 1510941860837, "trialdata": {"rt": -1, "stimulus": "<p id=\"stim\">10</p>", "key_press": -1, "trial_type": "single-stim", "trial_index": 118, "time_elapsed": 548861, "internal_node_id": "0.0-91.0-0.0"}}, {"uniqueid": "MTK0471:3HVVDCPGTFZ2T8EOF8YN8YGU9N3TYB", "current_trial": 119, "dateTime": 1510941861852, "trialdata": {"rt": -1, "stimulus": "<p id=\"stim\">9</p>", "key_press": -1, "trial_type": "single-stim", "trial_index": 119, "time_elapsed": 549875, "internal_node_id": "0.0-91.0-1.0"}}, {"uniqueid": "MTK0471:3HVVDCPGTFZ2T8EOF8YN8YGU9N3TYB", "current_trial": 120, "dateTime": 1510941862869, "trialdata": {"rt": -1, "stimulus": "<p id=\"stim\">8</p>", "key_press": -1, "trial_type": "single-stim", "trial_index": 120, "time_elapsed": 550893, "internal_node_id": "0.0-91.0-2.0"}}, {"uniqueid": "MTK0471:3HVVDCPGTFZ2T8EOF8YN8YGU9N3TYB", "current_trial": 121, "dateTime": 1510941863888, "trialdata": {"rt": -1, "stimulus": "<p id=\"stim\">7</p>", "key_press": -1, "trial_type": "single-stim", "trial_index": 121, "time_elapsed": 551913, "internal_node_id": "0.0-91.0-3.0"}}, {"uniqueid": "MTK0471:3HVVDCPGTFZ2T8EOF8YN8YGU9N3TYB", "current_trial": 122, "dateTime": 1510941864902, "trialdata": {"rt": -1, "stimulus": "<p id=\"stim\">6</p>", "key_press": -1, "trial_type": "single-stim", "trial_index": 122, "time_elapsed": 552927, "internal_node_id": "0.0-91.0-4.0"}}, {"uniqueid": "MTK0471:3HVVDCPGTFZ2T8EOF8YN8YGU9N3TYB", "current_trial": 123, "dateTime": 1510941865914, "trialdata": {"rt": -1, "stimulus": "<p id=\"stim\">5</p>", "key_press": -1, "trial_type": "single-stim", "trial_index": 123, "time_elapsed": 553938, "internal_node_id": "0.0-91.0-5.0"}}, {"uniqueid": "MTK0471:3HVVDCPGTFZ2T8EOF8YN8YGU9N3TYB", "current_trial": 124, "dateTime": 1510941866931, "trialdata": {"rt": -1, "stimulus": "<p id=\"stim\">4</p>", "key_press": -1, "trial_type": "single-stim", "trial_index": 124, "time_elapsed": 554956, "internal_node_id": "0.0-91.0-6.0"}}, {"uniqueid": "MTK0471:3HVVDCPGTFZ2T8EOF8YN8YGU9N3TYB", "current_trial": 125, "dateTime": 1510941867945, "trialdata": {"rt": -1, "stimulus": "<p id=\"stim\">3</p>", "key_press": -1, "trial_type": "single-stim", "trial_index": 125, "time_elapsed": 555969, "internal_node_id": "0.0-91.0-7.0"}}, {"uniqueid": "MTK0471:3HVVDCPGTFZ2T8EOF8YN8YGU9N3TYB", "current_trial": 126, "dateTime": 1510941868959, "trialdata": {"rt": -1, "stimulus": "<p id=\"stim\">2</p>", "key_press": -1, "trial_type": "single-stim", "trial_index": 126, "time_elapsed": 556984, "internal_node_id": "0.0-91.0-8.0"}}, {"uniqueid": "MTK0471:3HVVDCPGTFZ2T8EOF8YN8YGU9N3TYB", "current_trial": 127, "dateTime": 1510941869977, "trialdata": {"rt": -1, "stimulus": "<p id=\"stim\">1</p>", "key_press": -1, "trial_type": "single-stim", "trial_index": 127, "time_elapsed": 557999, "internal_node_id": "0.0-91.0-9.0"}}, {"uniqueid": "MTK0471:3HVVDCPGTFZ2T8EOF8YN8YGU9N3TYB", "current_trial": 128, "dateTime": 1510941871490, "trialdata": {"rt": -1, "stimulus": "<p id=\"stim\">+</p>", "key_press": -1, "type": "FIXATION", "trial_type": "single-stim", "trial_index": 128, "time_elapsed": 559513, "internal_node_id": "0.0-92.0-0.0"}}, {"uniqueid": "MTK0471:3HVVDCPGTFZ2T8EOF8YN8YGU9N3TYB", "current_trial": 129, "dateTime": 1510941873102, "trialdata": {"rt": -1, "stimulus": "<p id=\"stim\">LAVA</p>", "key_press": -1, "type": "PRES_VIS", "word": "lava", "wordID": 803, "conditions": [24, 1600, "v", 24000], "trial": 3, "serialpos": 0, "trial_type": "single-stim", "trial_index": 129, "time_elapsed": 561127, "internal_node_id": "0.0-93.0"}}, {"uniqueid": "MTK0471:3HVVDCPGTFZ2T8EOF8YN8YGU9N3TYB", "current_trial": 130, "dateTime": 1510941875855, "trialdata": {"rt": -1, "stimulus": "<p id=\"stim\">CRATER</p>", "key_press": -1, "type": "PRES_VIS", "word": "crater", "wordID": 399, "conditions": [24, 1600, "v", 24000], "trial": 3, "serialpos": 1, "trial_type": "single-stim", "trial_index": 130, "time_elapsed": 563879, "internal_node_id": "0.0-94.0"}}, {"uniqueid": "MTK0471:3HVVDCPGTFZ2T8EOF8YN8YGU9N3TYB", "current_trial": 131, "dateTime": 1510941878385, "trialdata": {"rt": -1, "stimulus": "<p id=\"stim\">LUGGAGE</p>", "key_press": -1, "type": "PRES_VIS", "word": "luggage", "wordID": 846, "conditions": [24, 1600, "v", 24000], "trial": 3, "serialpos": 2, "trial_type": "single-stim", "trial_index": 131, "time_elapsed": 566409, "internal_node_id": "0.0-95.0"}}, {"uniqueid": "MTK0471:3HVVDCPGTFZ2T8EOF8YN8YGU9N3TYB", "current_trial": 132, "dateTime": 1510941880903, "trialdata": {"rt": -1, "stimulus": "<p id=\"stim\">NURSE</p>", "key_press": -1, "type": "PRES_VIS", "word": "nurse", "wordID": 962, "conditions": [24, 1600, "v", 24000], "trial": 3, "serialpos": 3, "trial_type": "single-stim", "trial_index": 132, "time_elapsed": 568928, "internal_node_id": "0.0-96.0"}}, {"uniqueid": "MTK0471:3HVVDCPGTFZ2T8EOF8YN8YGU9N3TYB", "current_trial": 133, "dateTime": 1510941883443, "trialdata": {"rt": -1, "stimulus": "<p id=\"stim\">BACON</p>", "key_press": -1, "type": "PRES_VIS", "word": "bacon", "wordID": 66, "conditions": [24, 1600, "v", 24000], "trial": 3, "serialpos": 4, "trial_type": "single-stim", "trial_index": 133, "time_elapsed": 571467, "internal_node_id": "0.0-97.0"}}, {"uniqueid": "MTK0471:3HVVDCPGTFZ2T8EOF8YN8YGU9N3TYB", "current_trial": 134, "dateTime": 1510941885936, "trialdata": {"rt": -1, "stimulus": "<p id=\"stim\">SUPPER</p>", "key_press": -1, "type": "PRES_VIS", "word": "supper", "wordID": 1410, "conditions": [24, 1600, "v", 24000], "trial": 3, "serialpos": 5, "trial_type": "single-stim", "trial_index": 134, "time_elapsed": 573961, "internal_node_id": "0.0-98.0"}}, {"uniqueid": "MTK0471:3HVVDCPGTFZ2T8EOF8YN8YGU9N3TYB", "current_trial": 135, "dateTime": 1510941888553, "trialdata": {"rt": -1, "stimulus": "<p id=\"stim\">SKILLET</p>", "key_press": -1, "type": "PRES_VIS", "word": "skillet", "wordID": 1316, "conditions": [24, 1600, "v", 24000], "trial": 3, "serialpos": 6, "trial_type": "single-stim", "trial_index": 135, "time_elapsed": 576577, "internal_node_id": "0.0-99.0"}}, {"uniqueid": "MTK0471:3HVVDCPGTFZ2T8EOF8YN8YGU9N3TYB", "current_trial": 136, "dateTime": 1510941891278, "trialdata": {"rt": -1, "stimulus": "<p id=\"stim\">JUNGLE</p>", "key_press": -1, "type": "PRES_VIS", "word": "jungle", "wordID": 763, "conditions": [24, 1600, "v", 24000], "trial": 3, "serialpos": 7, "trial_type": "single-stim", "trial_index": 136, "time_elapsed": 579302, "internal_node_id": "0.0-100.0"}}, {"uniqueid": "MTK0471:3HVVDCPGTFZ2T8EOF8YN8YGU9N3TYB", "current_trial": 137, "dateTime": 1510941893785, "trialdata": {"rt": -1, "stimulus": "<p id=\"stim\">TAXI</p>", "key_press": -1, "type": "PRES_VIS", "word": "taxi", "wordID": 1437, "conditions": [24, 1600, "v", 24000], "trial": 3, "serialpos": 8, "trial_type": "single-stim", "trial_index": 137, "time_elapsed": 581810, "internal_node_id": "0.0-101.0"}}, {"uniqueid": "MTK0471:3HVVDCPGTFZ2T8EOF8YN8YGU9N3TYB", "current_trial": 138, "dateTime": 1510941896391, "trialdata": {"rt": -1, "stimulus": "<p id=\"stim\">SPOON</p>", "key_press": -1, "type": "PRES_VIS", "word": "spoon", "wordID": 1356, "conditions": [24, 1600, "v", 24000], "trial": 3, "serialpos": 9, "trial_type": "single-stim", "trial_index": 138, "time_elapsed": 584416, "internal_node_id": "0.0-102.0"}}, {"uniqueid": "MTK0471:3HVVDCPGTFZ2T8EOF8YN8YGU9N3TYB", "current_trial": 139, "dateTime": 1510941898981, "trialdata": {"rt": -1, "stimulus": "<p id=\"stim\">WITNESS</p>", "key_press": -1, "type": "PRES_VIS", "word": "witness", "wordID": 1617, "conditions": [24, 1600, "v", 24000], "trial": 3, "serialpos": 10, "trial_type": "single-stim", "trial_index": 139, "time_elapsed": 587005, "internal_node_id": "0.0-103.0"}}, {"uniqueid": "MTK0471:3HVVDCPGTFZ2T8EOF8YN8YGU9N3TYB", "current_trial": 140, "dateTime": 1510941901725, "trialdata": {"rt": -1, "stimulus": "<p id=\"stim\">MARKER</p>", "key_press": -1, "type": "PRES_VIS", "word": "marker", "wordID": 869, "conditions": [24, 1600, "v", 24000], "trial": 3, "serialpos": 11, "trial_type": "single-stim", "trial_index": 140, "time_elapsed": 589751, "internal_node_id": "0.0-104.0"}}, {"uniqueid": "MTK0471:3HVVDCPGTFZ2T8EOF8YN8YGU9N3TYB", "current_trial": 141, "dateTime": 1510941904241, "trialdata": {"rt": -1, "stimulus": "<p id=\"stim\">CONCERT</p>", "key_press": -1, "type": "PRES_VIS", "word": "concert", "wordID": 359, "conditions": [24, 1600, "v", 24000], "trial": 3, "serialpos": 12, "trial_type": "single-stim", "trial_index": 141, "time_elapsed": 592265, "internal_node_id": "0.0-105.0"}}, {"uniqueid": "MTK0471:3HVVDCPGTFZ2T8EOF8YN8YGU9N3TYB", "current_trial": 142, "dateTime": 1510941906991, "trialdata": {"rt": -1, "stimulus": "<p id=\"stim\">TOASTER</p>", "key_press": -1, "type": "PRES_VIS", "word": "toaster", "wordID": 1471, "conditions": [24, 1600, "v", 24000], "trial": 3, "serialpos": 13, "trial_type": "single-stim", "trial_index": 142, "time_elapsed": 595015, "internal_node_id": "0.0-106.0"}}, {"uniqueid": "MTK0471:3HVVDCPGTFZ2T8EOF8YN8YGU9N3TYB", "current_trial": 143, "dateTime": 1510941909622, "trialdata": {"rt": -1, "stimulus": "<p id=\"stim\">HIKER</p>", "key_press": -1, "type": "PRES_VIS", "word": "hiker", "wordID": 707, "conditions": [24, 1600, "v", 24000], "trial": 3, "serialpos": 14, "trial_type": "single-stim", "trial_index": 143, "time_elapsed": 597646, "internal_node_id": "0.0-107.0"}}, {"uniqueid": "MTK0471:3HVVDCPGTFZ2T8EOF8YN8YGU9N3TYB", "current_trial": 144, "dateTime": 1510941912228, "trialdata": {"rt": -1, "stimulus": "<p id=\"stim\">CLIMBER</p>", "key_press": -1, "type": "PRES_VIS", "word": "climber", "wordID": 322, "conditions": [24, 1600, "v", 24000], "trial": 3, "serialpos": 15, "trial_type": "single-stim", "trial_index": 144, "time_elapsed": 600253, "internal_node_id": "0.0-108.0"}}, {"uniqueid": "MTK0471:3HVVDCPGTFZ2T8EOF8YN8YGU9N3TYB", "current_trial": 145, "dateTime": 1510941914657, "trialdata": {"rt": -1, "stimulus": "<p id=\"stim\">GIFT</p>", "key_press": -1, "type": "PRES_VIS", "word": "gift", "wordID": 634, "conditions": [24, 1600, "v", 24000], "trial": 3, "serialpos": 16, "trial_type": "single-stim", "trial_index": 145, "time_elapsed": 602677, "internal_node_id": "0.0-109.0"}}, {"uniqueid": "MTK0471:3HVVDCPGTFZ2T8EOF8YN8YGU9N3TYB", "current_trial": 146, "dateTime": 1510941917162, "trialdata": {"rt": -1, "stimulus": "<p id=\"stim\">BASEMENT</p>", "key_press": -1, "type": "PRES_VIS", "word": "basement", "wordID": 93, "conditions": [24, 1600, "v", 24000], "trial": 3, "serialpos": 17, "trial_type": "single-stim", "trial_index": 146, "time_elapsed": 605186, "internal_node_id": "0.0-110.0"}}, {"uniqueid": "MTK0471:3HVVDCPGTFZ2T8EOF8YN8YGU9N3TYB", "current_trial": 147, "dateTime": 1510941919610, "trialdata": {"rt": -1, "stimulus": "<p id=\"stim\">LOFT</p>", "key_press": -1, "type": "PRES_VIS", "word": "loft", "wordID": 839, "conditions": [24, 1600, "v", 24000], "trial": 3, "serialpos": 18, "trial_type": "single-stim", "trial_index": 147, "time_elapsed": 607636, "internal_node_id": "0.0-111.0"}}, {"uniqueid": "MTK0471:3HVVDCPGTFZ2T8EOF8YN8YGU9N3TYB", "current_trial": 148, "dateTime": 1510941922111, "trialdata": {"rt": -1, "stimulus": "<p id=\"stim\">WINDOW</p>", "key_press": -1, "type": "PRES_VIS", "word": "window", "wordID": 1610, "conditions": [24, 1600, "v", 24000], "trial": 3, "serialpos": 19, "trial_type": "single-stim", "trial_index": 148, "time_elapsed": 610136, "internal_node_id": "0.0-112.0"}}, {"uniqueid": "MTK0471:3HVVDCPGTFZ2T8EOF8YN8YGU9N3TYB", "current_trial": 149, "dateTime": 1510941924660, "trialdata": {"rt": -1, "stimulus": "<p id=\"stim\">CARRIAGE</p>", "key_press": -1, "type": "PRES_VIS", "word": "carriage", "wordID": 247, "conditions": [24, 1600, "v", 24000], "trial": 3, "serialpos": 20, "trial_type": "single-stim", "trial_index": 149, "time_elapsed": 612684, "internal_node_id": "0.0-113.0"}}, {"uniqueid": "MTK0471:3HVVDCPGTFZ2T8EOF8YN8YGU9N3TYB", "current_trial": 150, "dateTime": 1510941927321, "trialdata": {"rt": -1, "stimulus": "<p id=\"stim\">STOVE</p>", "key_press": -1, "type": "PRES_VIS", "word": "stove", "wordID": 1387, "conditions": [24, 1600, "v", 24000], "trial": 3, "serialpos": 21, "trial_type": "single-stim", "trial_index": 150, "time_elapsed": 615345, "internal_node_id": "0.0-114.0"}}, {"uniqueid": "MTK0471:3HVVDCPGTFZ2T8EOF8YN8YGU9N3TYB", "current_trial": 151, "dateTime": 1510941930056, "trialdata": {"rt": -1, "stimulus": "<p id=\"stim\">SHERIFF</p>", "key_press": -1, "type": "PRES_VIS", "word": "sheriff", "wordID": 1283, "conditions": [24, 1600, "v", 24000], "trial": 3, "serialpos": 22, "trial_type": "single-stim", "trial_index": 151, "time_elapsed": 618081, "internal_node_id": "0.0-115.0"}}, {"uniqueid": "MTK0471:3HVVDCPGTFZ2T8EOF8YN8YGU9N3TYB", "current_trial": 152, "dateTime": 1510941932755, "trialdata": {"rt": -1, "stimulus": "<p id=\"stim\">COCKTAIL</p>", "key_press": -1, "type": "PRES_VIS", "word": "cocktail", "wordID": 337, "conditions": [24, 1600, "v", 24000], "trial": 3, "serialpos": 23, "trial_type": "single-stim", "trial_index": 152, "time_elapsed": 620778, "internal_node_id": "0.0-116.0"}}, {"uniqueid": "MTK0471:3HVVDCPGTFZ2T8EOF8YN8YGU9N3TYB", "current_trial": 153, "dateTime": 1510941934821, "trialdata": {"rt": -1, "stimulus": "", "key_press": -1, "type": "PRE_RECALL_DELAY", "trial_type": "single-stim", "trial_index": 153, "time_elapsed": 622847, "internal_node_id": "0.0-117.0-0.0"}}, {"uniqueid": "MTK0471:3HVVDCPGTFZ2T8EOF8YN8YGU9N3TYB", "current_trial": 154, "dateTime": 1510941935333, "trialdata": {"rt": -1000, "stimulus": "/static/audio/400Hz.wav", "key_press": -1, "type": "PRE_RECALL_ALERT", "trial_type": "single-audio", "trial_index": 154, "time_elapsed": 623358, "internal_node_id": "0.0-118.0"}}, {"uniqueid": "MTK0471:3HVVDCPGTFZ2T8EOF8YN8YGU9N3TYB", "current_trial": 155, "dateTime": 1510941995373, "trialdata": {"rt": [4429, 8874, 12976, 16666, 22522, 30782, 35029, 38605, 44208, 50306, 55961, 58294], "recwords": ["spoon", "bacon", "toaster", "stove", "skillet", "supper", "gift", "concert", "witness", "nurse", "luggage", "taxi"], "type": "FREE_RECALL", "conditions": [24, 1600, "v", 24000], "trial": 3, "trial_type": "free-recall", "trial_index": 155, "time_elapsed": 683385, "internal_node_id": "0.0-119.0-0.0"}}, {"uniqueid": "MTK0471:3HVVDCPGTFZ2T8EOF8YN8YGU9N3TYB", "current_trial": 156, "dateTime": 1510941998491, "trialdata": {"rt": 1111, "key_press": 70, "type": "INSTRUCTIONS", "trial_type": "text", "trial_index": 156, "time_elapsed": 686517, "internal_node_id": "0.0-120.0"}}, {"uniqueid": "MTK0471:3HVVDCPGTFZ2T8EOF8YN8YGU9N3TYB", "current_trial": 157, "dateTime": 1510942024520, "trialdata": {"rt": [2814, 5537, 8095, 12838, 14308, 15985, 17596, 19679, 22479], "responses": ["17", "14", "10", "21", "11", "11", "12", "19", "11"], "num1": [7, 2, 2, 7, 2, 3, 7, 8, 2, 7], "num2": [1, 5, 6, 6, 4, 7, 3, 8, 7, 3], "num3": [9, 7, 2, 8, 5, 1, 2, 3, 2, 4], "type": "DISTRACTOR", "conditions": [24, 1600, "a", 24000], "trial": 4, "trial_type": "math-distractor", "trial_index": 157, "time_elapsed": 712544, "internal_node_id": "0.0-121.0"}}, {"uniqueid": "MTK0471:3HVVDCPGTFZ2T8EOF8YN8YGU9N3TYB", "current_trial": 158, "dateTime": 1510942027537, "trialdata": {"rt": -1, "stimulus": "<p id=\"stim\">10</p>", "key_press": -1, "trial_type": "single-stim", "trial_index": 158, "time_elapsed": 715560, "internal_node_id": "0.0-122.0-0.0"}}, {"uniqueid": "MTK0471:3HVVDCPGTFZ2T8EOF8YN8YGU9N3TYB", "current_trial": 159, "dateTime": 1510942028541, "trialdata": {"rt": -1, "stimulus": "<p id=\"stim\">9</p>", "key_press": -1, "trial_type": "single-stim", "trial_index": 159, "time_elapsed": 716567, "internal_node_id": "0.0-122.0-1.0"}}, {"uniqueid": "MTK0471:3HVVDCPGTFZ2T8EOF8YN8YGU9N3TYB", "current_trial": 160, "dateTime": 1510942029553, "trialdata": {"rt": -1, "stimulus": "<p id=\"stim\">8</p>", "key_press": -1, "trial_type": "single-stim", "trial_index": 160, "time_elapsed": 717577, "internal_node_id": "0.0-122.0-2.0"}}, {"uniqueid": "MTK0471:3HVVDCPGTFZ2T8EOF8YN8YGU9N3TYB", "current_trial": 161, "dateTime": 1510942030561, "trialdata": {"rt": -1, "stimulus": "<p id=\"stim\">7</p>", "key_press": -1, "trial_type": "single-stim", "trial_index": 161, "time_elapsed": 718586, "internal_node_id": "0.0-122.0-3.0"}}, {"uniqueid": "MTK0471:3HVVDCPGTFZ2T8EOF8YN8YGU9N3TYB", "current_trial": 162, "dateTime": 1510942031572, "trialdata": {"rt": -1, "stimulus": "<p id=\"stim\">6</p>", "key_press": -1, "trial_type": "single-stim", "trial_index": 162, "time_elapsed": 719596, "internal_node_id": "0.0-122.0-4.0"}}, {"uniqueid": "MTK0471:3HVVDCPGTFZ2T8EOF8YN8YGU9N3TYB", "current_trial": 163, "dateTime": 1510942032584, "trialdata": {"rt": -1, "stimulus": "<p id=\"stim\">5</p>", "key_press": -1, "trial_type": "single-stim", "trial_index": 163, "time_elapsed": 720608, "internal_node_id": "0.0-122.0-5.0"}}, {"uniqueid": "MTK0471:3HVVDCPGTFZ2T8EOF8YN8YGU9N3TYB", "current_trial": 164, "dateTime": 1510942033607, "trialdata": {"rt": -1, "stimulus": "<p id=\"stim\">4</p>", "key_press": -1, "trial_type": "single-stim", "trial_index": 164, "time_elapsed": 721631, "internal_node_id": "0.0-122.0-6.0"}}, {"uniqueid": "MTK0471:3HVVDCPGTFZ2T8EOF8YN8YGU9N3TYB", "current_trial": 165, "dateTime": 1510942034615, "trialdata": {"rt": -1, "stimulus": "<p id=\"stim\">3</p>", "key_press": -1, "trial_type": "single-stim", "trial_index": 165, "time_elapsed": 722640, "internal_node_id": "0.0-122.0-7.0"}}, {"uniqueid": "MTK0471:3HVVDCPGTFZ2T8EOF8YN8YGU9N3TYB", "current_trial": 166, "dateTime": 1510942035634, "trialdata": {"rt": -1, "stimulus": "<p id=\"stim\">2</p>", "key_press": -1, "trial_type": "single-stim", "trial_index": 166, "time_elapsed": 723658, "internal_node_id": "0.0-122.0-8.0"}}, {"uniqueid": "MTK0471:3HVVDCPGTFZ2T8EOF8YN8YGU9N3TYB", "current_trial": 167, "dateTime": 1510942036641, "trialdata": {"rt": -1, "stimulus": "<p id=\"stim\">1</p>", "key_press": -1, "trial_type": "single-stim", "trial_index": 167, "time_elapsed": 724666, "internal_node_id": "0.0-122.0-9.0"}}, {"uniqueid": "MTK0471:3HVVDCPGTFZ2T8EOF8YN8YGU9N3TYB", "current_trial": 168, "dateTime": 1510942038146, "trialdata": {"rt": -1, "stimulus": "<p id=\"stim\">+</p>", "key_press": -1, "type": "FIXATION", "trial_type": "single-stim", "trial_index": 168, "time_elapsed": 726171, "internal_node_id": "0.0-123.0-0.0"}}, {"uniqueid": "MTK0471:3HVVDCPGTFZ2T8EOF8YN8YGU9N3TYB", "current_trial": 169, "dateTime": 1510942040939, "trialdata": {"rt": -1000, "stimulus": "/static/audio/wordpool/FOREST.wav", "key_press": -1, "type": "PRES_AUD", "word": "forest", "wordID": 592, "conditions": [24, 1600, "a", 24000], "trial": 4, "serialpos": 0, "trial_type": "single-audio", "trial_index": 169, "time_elapsed": 728963, "internal_node_id": "0.0-124.0"}}, {"uniqueid": "MTK0471:3HVVDCPGTFZ2T8EOF8YN8YGU9N3TYB", "current_trial": 170, "dateTime": 1510942043487, "trialdata": {"rt": -1000, "stimulus": "/static/audio/wordpool/TABLET.wav", "key_press": -1, "type": "PRES_AUD", "word": "tablet", "wordID": 1426, "conditions": [24, 1600, "a", 24000], "trial": 4, "serialpos": 1, "trial_type": "single-audio", "trial_index": 170, "time_elapsed": 731511, "internal_node_id": "0.0-125.0"}}, {"uniqueid": "MTK0471:3HVVDCPGTFZ2T8EOF8YN8YGU9N3TYB", "current_trial": 171, "dateTime": 1510942046092, "trialdata": {"rt": -1000, "stimulus": "/static/audio/wordpool/POET.wav", "key_press": -1, "type": "PRES_AUD", "word": "poet", "wordID": 1094, "conditions": [24, 1600, "a", 24000], "trial": 4, "serialpos": 2, "trial_type": "single-audio", "trial_index": 171, "time_elapsed": 734116, "internal_node_id": "0.0-126.0"}}, {"uniqueid": "MTK0471:3HVVDCPGTFZ2T8EOF8YN8YGU9N3TYB", "current_trial": 172, "dateTime": 1510942048612, "trialdata": {"rt": -1000, "stimulus": "/static/audio/wordpool/WOMAN.wav", "key_press": -1, "type": "PRES_AUD", "word": "woman", "wordID": 1619, "conditions": [24, 1600, "a", 24000], "trial": 4, "serialpos": 3, "trial_type": "single-audio", "trial_index": 172, "time_elapsed": 736637, "internal_node_id": "0.0-127.0"}}, {"uniqueid": "MTK0471:3HVVDCPGTFZ2T8EOF8YN8YGU9N3TYB", "current_trial": 173, "dateTime": 1510942051199, "trialdata": {"rt": -1000, "stimulus": "/static/audio/wordpool/SUITCASE.wav", "key_press": -1, "type": "PRES_AUD", "word": "suitcase", "wordID": 1402, "conditions": [24, 1600, "a", 24000], "trial": 4, "serialpos": 4, "trial_type": "single-audio", "trial_index": 173, "time_elapsed": 739225, "internal_node_id": "0.0-128.0"}}, {"uniqueid": "MTK0471:3HVVDCPGTFZ2T8EOF8YN8YGU9N3TYB", "current_trial": 174, "dateTime": 1510942053864, "trialdata": {"rt": -1000, "stimulus": "/static/audio/wordpool/FLOWER.wav", "key_press": -1, "type": "PRES_AUD", "word": "flower", "wordID": 583, "conditions": [24, 1600, "a", 24000], "trial": 4, "serialpos": 5, "trial_type": "single-audio", "trial_index": 174, "time_elapsed": 741887, "internal_node_id": "0.0-129.0"}}, {"uniqueid": "MTK0471:3HVVDCPGTFZ2T8EOF8YN8YGU9N3TYB", "current_trial": 175, "dateTime": 1510942056473, "trialdata": {"rt": -1000, "stimulus": "/static/audio/wordpool/HAWK.wav", "key_press": -1, "type": "PRES_AUD", "word": "hawk", "wordID": 691, "conditions": [24, 1600, "a", 24000], "trial": 4, "serialpos": 6, "trial_type": "single-audio", "trial_index": 175, "time_elapsed": 744497, "internal_node_id": "0.0-130.0"}}, {"uniqueid": "MTK0471:3HVVDCPGTFZ2T8EOF8YN8YGU9N3TYB", "current_trial": 176, "dateTime": 1510942059034, "trialdata": {"rt": -1000, "stimulus": "/static/audio/wordpool/BARREL.wav", "key_press": -1, "type": "PRES_AUD", "word": "barrel", "wordID": 90, "conditions": [24, 1600, "a", 24000], "trial": 4, "serialpos": 7, "trial_type": "single-audio", "trial_index": 176, "time_elapsed": 747058, "internal_node_id": "0.0-131.0"}}, {"uniqueid": "MTK0471:3HVVDCPGTFZ2T8EOF8YN8YGU9N3TYB", "current_trial": 177, "dateTime": 1510942061770, "trialdata": {"rt": -1000, "stimulus": "/static/audio/wordpool/GALLON.wav", "key_press": -1, "type": "PRES_AUD", "word": "gallon", "wordID": 617, "conditions": [24, 1600, "a", 24000], "trial": 4, "serialpos": 8, "trial_type": "single-audio", "trial_index": 177, "time_elapsed": 749792, "internal_node_id": "0.0-132.0"}}, {"uniqueid": "MTK0471:3HVVDCPGTFZ2T8EOF8YN8YGU9N3TYB", "current_trial": 178, "dateTime": 1510942064512, "trialdata": {"rt": -1000, "stimulus": "/static/audio/wordpool/BEAVER.wav", "key_press": -1, "type": "PRES_AUD", "word": "beaver", "wordID": 108, "conditions": [24, 1600, "a", 24000], "trial": 4, "serialpos": 9, "trial_type": "single-audio", "trial_index": 178, "time_elapsed": 752537, "internal_node_id": "0.0-133.0"}}, {"uniqueid": "MTK0471:3HVVDCPGTFZ2T8EOF8YN8YGU9N3TYB", "current_trial": 179, "dateTime": 1510942067092, "trialdata": {"rt": -1000, "stimulus": "/static/audio/wordpool/HERO.wav", "key_press": -1, "type": "PRES_AUD", "word": "hero", "wordID": 705, "conditions": [24, 1600, "a", 24000], "trial": 4, "serialpos": 10, "trial_type": "single-audio", "trial_index": 179, "time_elapsed": 755116, "internal_node_id": "0.0-134.0"}}, {"uniqueid": "MTK0471:3HVVDCPGTFZ2T8EOF8YN8YGU9N3TYB", "current_trial": 180, "dateTime": 1510942069538, "trialdata": {"rt": -1000, "stimulus": "/static/audio/wordpool/KNAPSACK.wav", "key_press": -1, "type": "PRES_AUD", "word": "knapsack", "wordID": 782, "conditions": [24, 1600, "a", 24000], "trial": 4, "serialpos": 11, "trial_type": "single-audio", "trial_index": 180, "time_elapsed": 757563, "internal_node_id": "0.0-135.0"}}, {"uniqueid": "MTK0471:3HVVDCPGTFZ2T8EOF8YN8YGU9N3TYB", "current_trial": 181, "dateTime": 1510942072171, "trialdata": {"rt": -1000, "stimulus": "/static/audio/wordpool/KITCHEN.wav", "key_press": -1, "type": "PRES_AUD", "word": "kitchen", "wordID": 777, "conditions": [24, 1600, "a", 24000], "trial": 4, "serialpos": 12, "trial_type": "single-audio", "trial_index": 181, "time_elapsed": 760195, "internal_node_id": "0.0-136.0"}}, {"uniqueid": "MTK0471:3HVVDCPGTFZ2T8EOF8YN8YGU9N3TYB", "current_trial": 182, "dateTime": 1510942074968, "trialdata": {"rt": -1000, "stimulus": "/static/audio/wordpool/FIREPLACE.wav", "key_press": -1, "type": "PRES_AUD", "word": "fireplace", "wordID": 569, "conditions": [24, 1600, "a", 24000], "trial": 4, "serialpos": 13, "trial_type": "single-audio", "trial_index": 182, "time_elapsed": 762993, "internal_node_id": "0.0-137.0"}}, {"uniqueid": "MTK0471:3HVVDCPGTFZ2T8EOF8YN8YGU9N3TYB", "current_trial": 183, "dateTime": 1510942077386, "trialdata": {"rt": -1000, "stimulus": "/static/audio/wordpool/SUBWAY.wav", "key_press": -1, "type": "PRES_AUD", "word": "subway", "wordID": 1399, "conditions": [24, 1600, "a", 24000], "trial": 4, "serialpos": 14, "trial_type": "single-audio", "trial_index": 183, "time_elapsed": 765412, "internal_node_id": "0.0-138.0"}}, {"uniqueid": "MTK0471:3HVVDCPGTFZ2T8EOF8YN8YGU9N3TYB", "current_trial": 184, "dateTime": 1510942079873, "trialdata": {"rt": -1000, "stimulus": "/static/audio/wordpool/SNAKE.wav", "key_press": -1, "type": "PRES_AUD", "word": "snake", "wordID": 1332, "conditions": [24, 1600, "a", 24000], "trial": 4, "serialpos": 15, "trial_type": "single-audio", "trial_index": 184, "time_elapsed": 767897, "internal_node_id": "0.0-139.0"}}, {"uniqueid": "MTK0471:3HVVDCPGTFZ2T8EOF8YN8YGU9N3TYB", "current_trial": 185, "dateTime": 1510942082442, "trialdata": {"rt": -1000, "stimulus": "/static/audio/wordpool/CYCLONE.wav", "key_press": -1, "type": "PRES_AUD", "word": "cyclone", "wordID": 430, "conditions": [24, 1600, "a", 24000], "trial": 4, "serialpos": 16, "trial_type": "single-audio", "trial_index": 185, "time_elapsed": 770467, "internal_node_id": "0.0-140.0"}}, {"uniqueid": "MTK0471:3HVVDCPGTFZ2T8EOF8YN8YGU9N3TYB", "current_trial": 186, "dateTime": 1510942084912, "trialdata": {"rt": -1000, "stimulus": "/static/audio/wordpool/DOLPHIN.wav", "key_press": -1, "type": "PRES_AUD", "word": "dolphin", "wordID": 482, "conditions": [24, 1600, "a", 24000], "trial": 4, "serialpos": 17, "trial_type": "single-audio", "trial_index": 186, "time_elapsed": 772937, "internal_node_id": "0.0-141.0"}}, {"uniqueid": "MTK0471:3HVVDCPGTFZ2T8EOF8YN8YGU9N3TYB", "current_trial": 187, "dateTime": 1510942087698, "trialdata": {"rt": -1000, "stimulus": "/static/audio/wordpool/PADDING.wav", "key_press": -1, "type": "PRES_AUD", "word": "padding", "wordID": 998, "conditions": [24, 1600, "a", 24000], "trial": 4, "serialpos": 18, "trial_type": "single-audio", "trial_index": 187, "time_elapsed": 775720, "internal_node_id": "0.0-142.0"}}, {"uniqueid": "MTK0471:3HVVDCPGTFZ2T8EOF8YN8YGU9N3TYB", "current_trial": 188, "dateTime": 1510942090295, "trialdata": {"rt": -1000, "stimulus": "/static/audio/wordpool/DRAWING.wav", "key_press": -1, "type": "PRES_AUD", "word": "drawing", "wordID": 493, "conditions": [24, 1600, "a", 24000], "trial": 4, "serialpos": 19, "trial_type": "single-audio", "trial_index": 188, "time_elapsed": 778319, "internal_node_id": "0.0-143.0"}}, {"uniqueid": "MTK0471:3HVVDCPGTFZ2T8EOF8YN8YGU9N3TYB", "current_trial": 189, "dateTime": 1510942093051, "trialdata": {"rt": -1000, "stimulus": "/static/audio/wordpool/RABBIT.wav", "key_press": -1, "type": "PRES_AUD", "word": "rabbit", "wordID": 1151, "conditions": [24, 1600, "a", 24000], "trial": 4, "serialpos": 20, "trial_type": "single-audio", "trial_index": 189, "time_elapsed": 781077, "internal_node_id": "0.0-144.0"}}, {"uniqueid": "MTK0471:3HVVDCPGTFZ2T8EOF8YN8YGU9N3TYB", "current_trial": 190, "dateTime": 1510942095650, "trialdata": {"rt": -1000, "stimulus": "/static/audio/wordpool/POSTAGE.wav", "key_press": -1, "type": "PRES_AUD", "word": "postage", "wordID": 1112, "conditions": [24, 1600, "a", 24000], "trial": 4, "serialpos": 21, "trial_type": "single-audio", "trial_index": 190, "time_elapsed": 783676, "internal_node_id": "0.0-145.0"}}, {"uniqueid": "MTK0471:3HVVDCPGTFZ2T8EOF8YN8YGU9N3TYB", "current_trial": 191, "dateTime": 1510942098418, "trialdata": {"rt": -1000, "stimulus": "/static/audio/wordpool/SPIDER.wav", "key_press": -1, "type": "PRES_AUD", "word": "spider", "wordID": 1350, "conditions": [24, 1600, "a", 24000], "trial": 4, "serialpos": 22, "trial_type": "single-audio", "trial_index": 191, "time_elapsed": 786443, "internal_node_id": "0.0-146.0"}}, {"uniqueid": "MTK0471:3HVVDCPGTFZ2T8EOF8YN8YGU9N3TYB", "current_trial": 192, "dateTime": 1510942101017, "trialdata": {"rt": -1000, "stimulus": "/static/audio/wordpool/CREATURE.wav", "key_press": -1, "type": "PRES_AUD", "word": "creature", "wordID": 402, "conditions": [24, 1600, "a", 24000], "trial": 4, "serialpos": 23, "trial_type": "single-audio", "trial_index": 192, "time_elapsed": 789040, "internal_node_id": "0.0-147.0"}}, {"uniqueid": "MTK0471:3HVVDCPGTFZ2T8EOF8YN8YGU9N3TYB", "current_trial": 193, "dateTime": 1510942102363, "trialdata": {"rt": -1, "stimulus": "", "key_press": -1, "type": "PRE_RECALL_DELAY", "trial_type": "single-stim", "trial_index": 193, "time_elapsed": 790388, "internal_node_id": "0.0-148.0-0.0"}}, {"uniqueid": "MTK0471:3HVVDCPGTFZ2T8EOF8YN8YGU9N3TYB", "current_trial": 194, "dateTime": 1510942102870, "trialdata": {"rt": -1000, "stimulus": "/static/audio/400Hz.wav", "key_press": -1, "type": "PRE_RECALL_ALERT", "trial_type": "single-audio", "trial_index": 194, "time_elapsed": 790894, "internal_node_id": "0.0-149.0"}}, {"uniqueid": "MTK0471:3HVVDCPGTFZ2T8EOF8YN8YGU9N3TYB", "current_trial": 195, "dateTime": 1510942162906, "trialdata": {"rt": [3011, 8423, 14146, 18089, 20947, 24300, 27821, 32571, 35728, 38764, 42452, 46152], "recwords": ["fever", "flower", "dolphin", "subway", "hero", "poet", "fireplace", "kitchen", "cyclone", "forest", "woman", "suitcase"], "type": "FREE_RECALL", "conditions": [24, 1600, "a", 24000], "trial": 4, "trial_type": "free-recall", "trial_index": 195, "time_elapsed": 850923, "internal_node_id": "0.0-150.0-0.0"}}, {"uniqueid": "MTK0471:3HVVDCPGTFZ2T8EOF8YN8YGU9N3TYB", "current_trial": 196, "dateTime": 1510942167052, "trialdata": {"rt": 2137, "key_press": 72, "type": "INSTRUCTIONS", "trial_type": "text", "trial_index": 196, "time_elapsed": 855078, "internal_node_id": "0.0-151.0"}}, {"uniqueid": "MTK0471:3HVVDCPGTFZ2T8EOF8YN8YGU9N3TYB", "current_trial": 197, "dateTime": 1510942181084, "trialdata": {"rt": [1923, 4049, 6864, 9084, 10633], "responses": ["11", "19", "15", "14", "11"], "num1": [3, 7, 5, 3, 8, 7], "num2": [6, 8, 4, 4, 1, 6], "num3": [2, 3, 6, 7, 2, 6], "type": "DISTRACTOR", "conditions": [24, 800, "v", 12000], "trial": 5, "trial_type": "math-distractor", "trial_index": 197, "time_elapsed": 869107, "internal_node_id": "0.0-152.0"}}, {"uniqueid": "MTK0471:3HVVDCPGTFZ2T8EOF8YN8YGU9N3TYB", "current_trial": 198, "dateTime": 1510942184103, "trialdata": {"rt": -1, "stimulus": "<p id=\"stim\">10</p>", "key_press": -1, "trial_type": "single-stim", "trial_index": 198, "time_elapsed": 872127, "internal_node_id": "0.0-153.0-0.0"}}, {"uniqueid": "MTK0471:3HVVDCPGTFZ2T8EOF8YN8YGU9N3TYB", "current_trial": 199, "dateTime": 1510942185119, "trialdata": {"rt": -1, "stimulus": "<p id=\"stim\">9</p>", "key_press": -1, "trial_type": "single-stim", "trial_index": 199, "time_elapsed": 873143, "internal_node_id": "0.0-153.0-1.0"}}, {"uniqueid": "MTK0471:3HVVDCPGTFZ2T8EOF8YN8YGU9N3TYB", "current_trial": 200, "dateTime": 1510942186137, "trialdata": {"rt": -1, "stimulus": "<p id=\"stim\">8</p>", "key_press": -1, "trial_type": "single-stim", "trial_index": 200, "time_elapsed": 874163, "internal_node_id": "0.0-153.0-2.0"}}, {"uniqueid": "MTK0471:3HVVDCPGTFZ2T8EOF8YN8YGU9N3TYB", "current_trial": 201, "dateTime": 1510942187150, "trialdata": {"rt": -1, "stimulus": "<p id=\"stim\">7</p>", "key_press": -1, "trial_type": "single-stim", "trial_index": 201, "time_elapsed": 875174, "internal_node_id": "0.0-153.0-3.0"}}, {"uniqueid": "MTK0471:3HVVDCPGTFZ2T8EOF8YN8YGU9N3TYB", "current_trial": 202, "dateTime": 1510942188164, "trialdata": {"rt": -1, "stimulus": "<p id=\"stim\">6</p>", "key_press": -1, "trial_type": "single-stim", "trial_index": 202, "time_elapsed": 876188, "internal_node_id": "0.0-153.0-4.0"}}, {"uniqueid": "MTK0471:3HVVDCPGTFZ2T8EOF8YN8YGU9N3TYB", "current_trial": 203, "dateTime": 1510942189182, "trialdata": {"rt": -1, "stimulus": "<p id=\"stim\">5</p>", "key_press": -1, "trial_type": "single-stim", "trial_index": 203, "time_elapsed": 877206, "internal_node_id": "0.0-153.0-5.0"}}, {"uniqueid": "MTK0471:3HVVDCPGTFZ2T8EOF8YN8YGU9N3TYB", "current_trial": 204, "dateTime": 1510942190194, "trialdata": {"rt": -1, "stimulus": "<p id=\"stim\">4</p>", "key_press": -1, "trial_type": "single-stim", "trial_index": 204, "time_elapsed": 878218, "internal_node_id": "0.0-153.0-6.0"}}, {"uniqueid": "MTK0471:3HVVDCPGTFZ2T8EOF8YN8YGU9N3TYB", "current_trial": 205, "dateTime": 1510942191207, "trialdata": {"rt": -1, "stimulus": "<p id=\"stim\">3</p>", "key_press": -1, "trial_type": "single-stim", "trial_index": 205, "time_elapsed": 879230, "internal_node_id": "0.0-153.0-7.0"}}, {"uniqueid": "MTK0471:3HVVDCPGTFZ2T8EOF8YN8YGU9N3TYB", "current_trial": 206, "dateTime": 1510942192227, "trialdata": {"rt": -1, "stimulus": "<p id=\"stim\">2</p>", "key_press": -1, "trial_type": "single-stim", "trial_index": 206, "time_elapsed": 880252, "internal_node_id": "0.0-153.0-8.0"}}, {"uniqueid": "MTK0471:3HVVDCPGTFZ2T8EOF8YN8YGU9N3TYB", "current_trial": 207, "dateTime": 1510942193238, "trialdata": {"rt": -1, "stimulus": "<p id=\"stim\">1</p>", "key_press": -1, "trial_type": "single-stim", "trial_index": 207, "time_elapsed": 881262, "internal_node_id": "0.0-153.0-9.0"}}, {"uniqueid": "MTK0471:3HVVDCPGTFZ2T8EOF8YN8YGU9N3TYB", "current_trial": 208, "dateTime": 1510942194747, "trialdata": {"rt": -1, "stimulus": "<p id=\"stim\">+</p>", "key_press": -1, "type": "FIXATION", "trial_type": "single-stim", "trial_index": 208, "time_elapsed": 882772, "internal_node_id": "0.0-154.0-0.0"}}, {"uniqueid": "MTK0471:3HVVDCPGTFZ2T8EOF8YN8YGU9N3TYB", "current_trial": 209, "dateTime": 1510942195560, "trialdata": {"rt": -1, "stimulus": "<p id=\"stim\">NAPKIN</p>", "key_press": -1, "type": "PRES_VIS", "word": "napkin", "wordID": 936, "conditions": [24, 800, "v", 12000], "trial": 5, "serialpos": 0, "trial_type": "single-stim", "trial_index": 209, "time_elapsed": 883584, "internal_node_id": "0.0-155.0"}}, {"uniqueid": "MTK0471:3HVVDCPGTFZ2T8EOF8YN8YGU9N3TYB", "current_trial": 210, "dateTime": 1510942197351, "trialdata": {"rt": -1, "stimulus": "<p id=\"stim\">LILY</p>", "key_press": -1, "type": "PRES_VIS", "word": "lily", "wordID": 820, "conditions": [24, 800, "v", 12000], "trial": 5, "serialpos": 1, "trial_type": "single-stim", "trial_index": 210, "time_elapsed": 885374, "internal_node_id": "0.0-156.0"}}, {"uniqueid": "MTK0471:3HVVDCPGTFZ2T8EOF8YN8YGU9N3TYB", "current_trial": 211, "dateTime": 1510942199010, "trialdata": {"rt": -1, "stimulus": "<p id=\"stim\">RUG</p>", "key_press": -1, "type": "PRES_VIS", "word": "rug", "wordID": 1214, "conditions": [24, 800, "v", 12000], "trial": 5, "serialpos": 2, "trial_type": "single-stim", "trial_index": 211, "time_elapsed": 887035, "internal_node_id": "0.0-157.0"}}, {"uniqueid": "MTK0471:3HVVDCPGTFZ2T8EOF8YN8YGU9N3TYB", "current_trial": 212, "dateTime": 1510942200684, "trialdata": {"rt": -1, "stimulus": "<p id=\"stim\">KLEENEX</p>", "key_press": -1, "type": "PRES_VIS", "word": "kleenex", "wordID": 781, "conditions": [24, 800, "v", 12000], "trial": 5, "serialpos": 3, "trial_type": "single-stim", "trial_index": 212, "time_elapsed": 888710, "internal_node_id": "0.0-158.0"}}, {"uniqueid": "MTK0471:3HVVDCPGTFZ2T8EOF8YN8YGU9N3TYB", "current_trial": 213, "dateTime": 1510942202524, "trialdata": {"rt": -1, "stimulus": "<p id=\"stim\">ICING</p>", "key_press": -1, "type": "PRES_VIS", "word": "icing", "wordID": 731, "conditions": [24, 800, "v", 12000], "trial": 5, "serialpos": 4, "trial_type": "single-stim", "trial_index": 213, "time_elapsed": 890550, "internal_node_id": "0.0-159.0"}}, {"uniqueid": "MTK0471:3HVVDCPGTFZ2T8EOF8YN8YGU9N3TYB", "current_trial": 214, "dateTime": 1510942204365, "trialdata": {"rt": -1, "stimulus": "<p id=\"stim\">RELISH</p>", "key_press": -1, "type": "PRES_VIS", "word": "relish", "wordID": 1182, "conditions": [24, 800, "v", 12000], "trial": 5, "serialpos": 5, "trial_type": "single-stim", "trial_index": 214, "time_elapsed": 892385, "internal_node_id": "0.0-160.0"}}, {"uniqueid": "MTK0471:3HVVDCPGTFZ2T8EOF8YN8YGU9N3TYB", "current_trial": 215, "dateTime": 1510942206068, "trialdata": {"rt": -1, "stimulus": "<p id=\"stim\">TURTLE</p>", "key_press": -1, "type": "PRES_VIS", "word": "turtle", "wordID": 1521, "conditions": [24, 800, "v", 12000], "trial": 5, "serialpos": 6, "trial_type": "single-stim", "trial_index": 215, "time_elapsed": 894092, "internal_node_id": "0.0-161.0"}}, {"uniqueid": "MTK0471:3HVVDCPGTFZ2T8EOF8YN8YGU9N3TYB", "current_trial": 216, "dateTime": 1510942207893, "trialdata": {"rt": -1, "stimulus": "<p id=\"stim\">SCOTCH</p>", "key_press": -1, "type": "PRES_VIS", "word": "scotch", "wordID": 1250, "conditions": [24, 800, "v", 12000], "trial": 5, "serialpos": 7, "trial_type": "single-stim", "trial_index": 216, "time_elapsed": 895917, "internal_node_id": "0.0-162.0"}}, {"uniqueid": "MTK0471:3HVVDCPGTFZ2T8EOF8YN8YGU9N3TYB", "current_trial": 217, "dateTime": 1510942209897, "trialdata": {"rt": -1, "stimulus": "<p id=\"stim\">CUSTARD</p>", "key_press": -1, "type": "PRES_VIS", "word": "custard", "wordID": 428, "conditions": [24, 800, "v", 12000], "trial": 5, "serialpos": 8, "trial_type": "single-stim", "trial_index": 217, "time_elapsed": 897921, "internal_node_id": "0.0-163.0"}}, {"uniqueid": "MTK0471:3HVVDCPGTFZ2T8EOF8YN8YGU9N3TYB", "current_trial": 218, "dateTime": 1510942211678, "trialdata": {"rt": -1, "stimulus": "<p id=\"stim\">SHORTCAKE</p>", "key_press": -1, "type": "PRES_VIS", "word": "shortcake", "wordID": 1291, "conditions": [24, 800, "v", 12000], "trial": 5, "serialpos": 9, "trial_type": "single-stim", "trial_index": 218, "time_elapsed": 899702, "internal_node_id": "0.0-164.0"}}, {"uniqueid": "MTK0471:3HVVDCPGTFZ2T8EOF8YN8YGU9N3TYB", "current_trial": 219, "dateTime": 1510942213608, "trialdata": {"rt": -1, "stimulus": "<p id=\"stim\">PENGUIN</p>", "key_press": -1, "type": "PRES_VIS", "word": "penguin", "wordID": 1043, "conditions": [24, 800, "v", 12000], "trial": 5, "serialpos": 10, "trial_type": "single-stim", "trial_index": 219, "time_elapsed": 901632, "internal_node_id": "0.0-165.0"}}, {"uniqueid": "MTK0471:3HVVDCPGTFZ2T8EOF8YN8YGU9N3TYB", "current_trial": 220, "dateTime": 1510942215379, "trialdata": {"rt": -1, "stimulus": "<p id=\"stim\">WARDROBE</p>", "key_press": -1, "type": "PRES_VIS", "word": "wardrobe", "wordID": 1586, "conditions": [24, 800, "v", 12000], "trial": 5, "serialpos": 11, "trial_type": "single-stim", "trial_index": 220, "time_elapsed": 903404, "internal_node_id": "0.0-166.0"}}, {"uniqueid": "MTK0471:3HVVDCPGTFZ2T8EOF8YN8YGU9N3TYB", "current_trial": 221, "dateTime": 1510942217119, "trialdata": {"rt": -1, "stimulus": "<p id=\"stim\">PICTURE</p>", "key_press": -1, "type": "PRES_VIS", "word": "picture", "wordID": 1060, "conditions": [24, 800, "v", 12000], "trial": 5, "serialpos": 12, "trial_type": "single-stim", "trial_index": 221, "time_elapsed": 905145, "internal_node_id": "0.0-167.0"}}, {"uniqueid": "MTK0471:3HVVDCPGTFZ2T8EOF8YN8YGU9N3TYB", "current_trial": 222, "dateTime": 1510942218869, "trialdata": {"rt": -1, "stimulus": "<p id=\"stim\">PASTRY</p>", "key_press": -1, "type": "PRES_VIS", "word": "pastry", "wordID": 1021, "conditions": [24, 800, "v", 12000], "trial": 5, "serialpos": 13, "trial_type": "single-stim", "trial_index": 222, "time_elapsed": 906895, "internal_node_id": "0.0-168.0"}}, {"uniqueid": "MTK0471:3HVVDCPGTFZ2T8EOF8YN8YGU9N3TYB", "current_trial": 223, "dateTime": 1510942220625, "trialdata": {"rt": -1, "stimulus": "<p id=\"stim\">PIMPLE</p>", "key_press": -1, "type": "PRES_VIS", "word": "pimple", "wordID": 1070, "conditions": [24, 800, "v", 12000], "trial": 5, "serialpos": 14, "trial_type": "single-stim", "trial_index": 223, "time_elapsed": 908649, "internal_node_id": "0.0-169.0"}}, {"uniqueid": "MTK0471:3HVVDCPGTFZ2T8EOF8YN8YGU9N3TYB", "current_trial": 224, "dateTime": 1510942222388, "trialdata": {"rt": -1, "stimulus": "<p id=\"stim\">STREAM</p>", "key_press": -1, "type": "PRES_VIS", "word": "stream", "wordID": 1391, "conditions": [24, 800, "v", 12000], "trial": 5, "serialpos": 15, "trial_type": "single-stim", "trial_index": 224, "time_elapsed": 910411, "internal_node_id": "0.0-170.0"}}, {"uniqueid": "MTK0471:3HVVDCPGTFZ2T8EOF8YN8YGU9N3TYB", "current_trial": 225, "dateTime": 1510942224392, "trialdata": {"rt": -1, "stimulus": "<p id=\"stim\">EUROPE</p>", "key_press": -1, "type": "PRES_VIS", "word": "europe", "wordID": 540, "conditions": [24, 800, "v", 12000], "trial": 5, "serialpos": 16, "trial_type": "single-stim", "trial_index": 225, "time_elapsed": 912418, "internal_node_id": "0.0-171.0"}}, {"uniqueid": "MTK0471:3HVVDCPGTFZ2T8EOF8YN8YGU9N3TYB", "current_trial": 226, "dateTime": 1510942226209, "trialdata": {"rt": -1, "stimulus": "<p id=\"stim\">CANDY</p>", "key_press": -1, "type": "PRES_VIS", "word": "candy", "wordID": 229, "conditions": [24, 800, "v", 12000], "trial": 5, "serialpos": 17, "trial_type": "single-stim", "trial_index": 226, "time_elapsed": 914233, "internal_node_id": "0.0-172.0"}}, {"uniqueid": "MTK0471:3HVVDCPGTFZ2T8EOF8YN8YGU9N3TYB", "current_trial": 227, "dateTime": 1510942227878, "trialdata": {"rt": -1, "stimulus": "<p id=\"stim\">CHEMIST</p>", "key_press": -1, "type": "PRES_VIS", "word": "chemist", "wordID": 291, "conditions": [24, 800, "v", 12000], "trial": 5, "serialpos": 18, "trial_type": "single-stim", "trial_index": 227, "time_elapsed": 915903, "internal_node_id": "0.0-173.0"}}, {"uniqueid": "MTK0471:3HVVDCPGTFZ2T8EOF8YN8YGU9N3TYB", "current_trial": 228, "dateTime": 1510942229630, "trialdata": {"rt": -1, "stimulus": "<p id=\"stim\">PLAID</p>", "key_press": -1, "type": "PRES_VIS", "word": "plaid", "wordID": 1079, "conditions": [24, 800, "v", 12000], "trial": 5, "serialpos": 19, "trial_type": "single-stim", "trial_index": 228, "time_elapsed": 917654, "internal_node_id": "0.0-174.0"}}, {"uniqueid": "MTK0471:3HVVDCPGTFZ2T8EOF8YN8YGU9N3TYB", "current_trial": 229, "dateTime": 1510942231653, "trialdata": {"rt": -1, "stimulus": "<p id=\"stim\">DENIM</p>", "key_press": -1, "type": "PRES_VIS", "word": "denim", "wordID": 445, "conditions": [24, 800, "v", 12000], "trial": 5, "serialpos": 20, "trial_type": "single-stim", "trial_index": 229, "time_elapsed": 919677, "internal_node_id": "0.0-175.0"}}, {"uniqueid": "MTK0471:3HVVDCPGTFZ2T8EOF8YN8YGU9N3TYB", "current_trial": 230, "dateTime": 1510942233292, "trialdata": {"rt": -1, "stimulus": "<p id=\"stim\">SLUG</p>", "key_press": -1, "type": "PRES_VIS", "word": "slug", "wordID": 1328, "conditions": [24, 800, "v", 12000], "trial": 5, "serialpos": 21, "trial_type": "single-stim", "trial_index": 230, "time_elapsed": 921316, "internal_node_id": "0.0-176.0"}}, {"uniqueid": "MTK0471:3HVVDCPGTFZ2T8EOF8YN8YGU9N3TYB", "current_trial": 231, "dateTime": 1510942234959, "trialdata": {"rt": -1, "stimulus": "<p id=\"stim\">TURNIP</p>", "key_press": -1, "type": "PRES_VIS", "word": "turnip", "wordID": 1520, "conditions": [24, 800, "v", 12000], "trial": 5, "serialpos": 22, "trial_type": "single-stim", "trial_index": 231, "time_elapsed": 922984, "internal_node_id": "0.0-177.0"}}, {"uniqueid": "MTK0471:3HVVDCPGTFZ2T8EOF8YN8YGU9N3TYB", "current_trial": 232, "dateTime": 1510942236668, "trialdata": {"rt": -1, "stimulus": "<p id=\"stim\">FRECKLE</p>", "key_press": -1, "type": "PRES_VIS", "word": "freckle", "wordID": 601, "conditions": [24, 800, "v", 12000], "trial": 5, "serialpos": 23, "trial_type": "single-stim", "trial_index": 232, "time_elapsed": 924693, "internal_node_id": "0.0-178.0"}}, {"uniqueid": "MTK0471:3HVVDCPGTFZ2T8EOF8YN8YGU9N3TYB", "current_trial": 233, "dateTime": 1510942238817, "trialdata": {"rt": -1, "stimulus": "", "key_press": -1, "type": "PRE_RECALL_DELAY", "trial_type": "single-stim", "trial_index": 233, "time_elapsed": 926841, "internal_node_id": "0.0-179.0-0.0"}}, {"uniqueid": "MTK0471:3HVVDCPGTFZ2T8EOF8YN8YGU9N3TYB", "current_trial": 234, "dateTime": 1510942239330, "trialdata": {"rt": -1000, "stimulus": "/static/audio/400Hz.wav", "key_press": -1, "type": "PRE_RECALL_ALERT", "trial_type": "single-audio", "trial_index": 234, "time_elapsed": 927354, "internal_node_id": "0.0-180.0"}}, {"uniqueid": "MTK0471:3HVVDCPGTFZ2T8EOF8YN8YGU9N3TYB", "current_trial": 235, "dateTime": 1510942299391, "trialdata": {"rt": [7162, 11685, 17254, 20934, 26427, 31912, 39754, 44396, 49165, 52677, 57097], "recwords": ["shortcake", "icing", "napkin", "candy", "pastry", "custard", "kleenex", "pimple", "picture", "rug", "relish"], "type": "FREE_RECALL", "conditions": [24, 800, "v", 12000], "trial": 5, "trial_type": "free-recall", "trial_index": 235, "time_elapsed": 987395, "internal_node_id": "0.0-181.0-0.0"}}, {"uniqueid": "MTK0471:3HVVDCPGTFZ2T8EOF8YN8YGU9N3TYB", "current_trial": 236, "dateTime": 1510942302148, "trialdata": {"rt": 751, "key_press": 66, "type": "INSTRUCTIONS", "trial_type": "text", "trial_index": 236, "time_elapsed": 990174, "internal_node_id": "0.0-182.0"}}, {"uniqueid": "MTK0471:3HVVDCPGTFZ2T8EOF8YN8YGU9N3TYB", "current_trial": 237, "dateTime": 1510942328158, "trialdata": {"rt": [2688, 4231, 5683, 7367, 11175, 13705, 15492, 17253, 18698, 20365, 21789, 23963], "responses": ["20", "17", "12", "11", "21", "9", "15", "13", "12", "7", "5", "10"], "num1": [4, 9, 8, 8, 8, 3, 7, 6, 2, 1, 1, 8, 5], "num2": [7, 1, 3, 1, 6, 2, 4, 2, 9, 3, 1, 1, 6], "num3": [9, 7, 1, 2, 5, 4, 4, 5, 1, 3, 3, 1, 7], "type": "DISTRACTOR", "conditions": [24, 800, "a", 24000], "trial": 6, "trial_type": "math-distractor", "trial_index": 237, "time_elapsed": 1016183, "internal_node_id": "0.0-183.0"}}, {"uniqueid": "MTK0471:3HVVDCPGTFZ2T8EOF8YN8YGU9N3TYB", "current_trial": 238, "dateTime": 1510942331162, "trialdata": {"rt": -1, "stimulus": "<p id=\"stim\">10</p>", "key_press": -1, "trial_type": "single-stim", "trial_index": 238, "time_elapsed": 1019187, "internal_node_id": "0.0-184.0-0.0"}}, {"uniqueid": "MTK0471:3HVVDCPGTFZ2T8EOF8YN8YGU9N3TYB", "current_trial": 239, "dateTime": 1510942332166, "trialdata": {"rt": -1, "stimulus": "<p id=\"stim\">9</p>", "key_press": -1, "trial_type": "single-stim", "trial_index": 239, "time_elapsed": 1020192, "internal_node_id": "0.0-184.0-1.0"}}, {"uniqueid": "MTK0471:3HVVDCPGTFZ2T8EOF8YN8YGU9N3TYB", "current_trial": 240, "dateTime": 1510942333169, "trialdata": {"rt": -1, "stimulus": "<p id=\"stim\">8</p>", "key_press": -1, "trial_type": "single-stim", "trial_index": 240, "time_elapsed": 1021195, "internal_node_id": "0.0-184.0-2.0"}}, {"uniqueid": "MTK0471:3HVVDCPGTFZ2T8EOF8YN8YGU9N3TYB", "current_trial": 241, "dateTime": 1510942334173, "trialdata": {"rt": -1, "stimulus": "<p id=\"stim\">7</p>", "key_press": -1, "trial_type": "single-stim", "trial_index": 241, "time_elapsed": 1022199, "internal_node_id": "0.0-184.0-3.0"}}, {"uniqueid": "MTK0471:3HVVDCPGTFZ2T8EOF8YN8YGU9N3TYB", "current_trial": 242, "dateTime": 1510942335177, "trialdata": {"rt": -1, "stimulus": "<p id=\"stim\">6</p>", "key_press": -1, "trial_type": "single-stim", "trial_index": 242, "time_elapsed": 1023203, "internal_node_id": "0.0-184.0-4.0"}}, {"uniqueid": "MTK0471:3HVVDCPGTFZ2T8EOF8YN8YGU9N3TYB", "current_trial": 243, "dateTime": 1510942336182, "trialdata": {"rt": -1, "stimulus": "<p id=\"stim\">5</p>", "key_press": -1, "trial_type": "single-stim", "trial_index": 243, "time_elapsed": 1024208, "internal_node_id": "0.0-184.0-5.0"}}, {"uniqueid": "MTK0471:3HVVDCPGTFZ2T8EOF8YN8YGU9N3TYB", "current_trial": 244, "dateTime": 1510942337194, "trialdata": {"rt": -1, "stimulus": "<p id=\"stim\">4</p>", "key_press": -1, "trial_type": "single-stim", "trial_index": 244, "time_elapsed": 1025219, "internal_node_id": "0.0-184.0-6.0"}}, {"uniqueid": "MTK0471:3HVVDCPGTFZ2T8EOF8YN8YGU9N3TYB", "current_trial": 245, "dateTime": 1510942338198, "trialdata": {"rt": -1, "stimulus": "<p id=\"stim\">3</p>", "key_press": -1, "trial_type": "single-stim", "trial_index": 245, "time_elapsed": 1026224, "internal_node_id": "0.0-184.0-7.0"}}, {"uniqueid": "MTK0471:3HVVDCPGTFZ2T8EOF8YN8YGU9N3TYB", "current_trial": 246, "dateTime": 1510942339201, "trialdata": {"rt": -1, "stimulus": "<p id=\"stim\">2</p>", "key_press": -1, "trial_type": "single-stim", "trial_index": 246, "time_elapsed": 1027226, "internal_node_id": "0.0-184.0-8.0"}}, {"uniqueid": "MTK0471:3HVVDCPGTFZ2T8EOF8YN8YGU9N3TYB", "current_trial": 247, "dateTime": 1510942340202, "trialdata": {"rt": -1, "stimulus": "<p id=\"stim\">1</p>", "key_press": -1, "trial_type": "single-stim", "trial_index": 247, "time_elapsed": 1028228, "internal_node_id": "0.0-184.0-9.0"}}, {"uniqueid": "MTK0471:3HVVDCPGTFZ2T8EOF8YN8YGU9N3TYB", "current_trial": 248, "dateTime": 1510942341704, "trialdata": {"rt": -1, "stimulus": "<p id=\"stim\">+</p>", "key_press": -1, "type": "FIXATION", "trial_type": "single-stim", "trial_index": 248, "time_elapsed": 1029730, "internal_node_id": "0.0-185.0-0.0"}}, {"uniqueid": "MTK0471:3HVVDCPGTFZ2T8EOF8YN8YGU9N3TYB", "current_trial": 249, "dateTime": 1510942343471, "trialdata": {"rt": -1000, "stimulus": "/static/audio/wordpool/RIVER.wav", "key_press": -1, "type": "PRES_AUD", "word": "river", "wordID": 1193, "conditions": [24, 800, "a", 24000], "trial": 6, "serialpos": 0, "trial_type": "single-audio", "trial_index": 249, "time_elapsed": 1031496, "internal_node_id": "0.0-186.0"}}, {"uniqueid": "MTK0471:3HVVDCPGTFZ2T8EOF8YN8YGU9N3TYB", "current_trial": 250, "dateTime": 1510942345139, "trialdata": {"rt": -1000, "stimulus": "/static/audio/wordpool/FLASK.wav", "key_press": -1, "type": "PRES_AUD", "word": "flask", "wordID": 575, "conditions": [24, 800, "a", 24000], "trial": 6, "serialpos": 1, "trial_type": "single-audio", "trial_index": 250, "time_elapsed": 1033163, "internal_node_id": "0.0-187.0"}}, {"uniqueid": "MTK0471:3HVVDCPGTFZ2T8EOF8YN8YGU9N3TYB", "current_trial": 251, "dateTime": 1510942347150, "trialdata": {"rt": -1000, "stimulus": "/static/audio/wordpool/BROTHER.wav", "key_press": -1, "type": "PRES_AUD", "word": "brother", "wordID": 178, "conditions": [24, 800, "a", 24000], "trial": 6, "serialpos": 2, "trial_type": "single-audio", "trial_index": 251, "time_elapsed": 1035174, "internal_node_id": "0.0-188.0"}}, {"uniqueid": "MTK0471:3HVVDCPGTFZ2T8EOF8YN8YGU9N3TYB", "current_trial": 252, "dateTime": 1510942348928, "trialdata": {"rt": -1000, "stimulus": "/static/audio/wordpool/COUSIN.wav", "key_press": -1, "type": "PRES_AUD", "word": "cousin", "wordID": 391, "conditions": [24, 800, "a", 24000], "trial": 6, "serialpos": 3, "trial_type": "single-audio", "trial_index": 252, "time_elapsed": 1036951, "internal_node_id": "0.0-189.0"}}, {"uniqueid": "MTK0471:3HVVDCPGTFZ2T8EOF8YN8YGU9N3TYB", "current_trial": 253, "dateTime": 1510942350725, "trialdata": {"rt": -1000, "stimulus": "/static/audio/wordpool/TRUCK.wav", "key_press": -1, "type": "PRES_AUD", "word": "truck", "wordID": 1511, "conditions": [24, 800, "a", 24000], "trial": 6, "serialpos": 4, "trial_type": "single-audio", "trial_index": 253, "time_elapsed": 1038749, "internal_node_id": "0.0-190.0"}}, {"uniqueid": "MTK0471:3HVVDCPGTFZ2T8EOF8YN8YGU9N3TYB", "current_trial": 254, "dateTime": 1510942352705, "trialdata": {"rt": -1000, "stimulus": "/static/audio/wordpool/MARSH.wav", "key_press": -1, "type": "PRES_AUD", "word": "marsh", "wordID": 873, "conditions": [24, 800, "a", 24000], "trial": 6, "serialpos": 5, "trial_type": "single-audio", "trial_index": 254, "time_elapsed": 1040731, "internal_node_id": "0.0-191.0"}}, {"uniqueid": "MTK0471:3HVVDCPGTFZ2T8EOF8YN8YGU9N3TYB", "current_trial": 255, "dateTime": 1510942354648, "trialdata": {"rt": -1000, "stimulus": "/static/audio/wordpool/OUTFIT.wav", "key_press": -1, "type": "PRES_AUD", "word": "outfit", "wordID": 987, "conditions": [24, 800, "a", 24000], "trial": 6, "serialpos": 6, "trial_type": "single-audio", "trial_index": 255, "time_elapsed": 1042670, "internal_node_id": "0.0-192.0"}}, {"uniqueid": "MTK0471:3HVVDCPGTFZ2T8EOF8YN8YGU9N3TYB", "current_trial": 256, "dateTime": 1510942356311, "trialdata": {"rt": -1000, "stimulus": "/static/audio/wordpool/CANAL.wav", "key_press": -1, "type": "PRES_AUD", "word": "canal", "wordID": 225, "conditions": [24, 800, "a", 24000], "trial": 6, "serialpos": 7, "trial_type": "single-audio", "trial_index": 256, "time_elapsed": 1044336, "internal_node_id": "0.0-193.0"}}, {"uniqueid": "MTK0471:3HVVDCPGTFZ2T8EOF8YN8YGU9N3TYB", "current_trial": 257, "dateTime": 1510942358075, "trialdata": {"rt": -1000, "stimulus": "/static/audio/wordpool/BUGGY.wav", "key_press": -1, "type": "PRES_AUD", "word": "buggy", "wordID": 187, "conditions": [24, 800, "a", 24000], "trial": 6, "serialpos": 8, "trial_type": "single-audio", "trial_index": 257, "time_elapsed": 1046099, "internal_node_id": "0.0-194.0"}}, {"uniqueid": "MTK0471:3HVVDCPGTFZ2T8EOF8YN8YGU9N3TYB", "current_trial": 258, "dateTime": 1510942359914, "trialdata": {"rt": -1000, "stimulus": "/static/audio/wordpool/ORANGE.wav", "key_press": -1, "type": "PRES_AUD", "word": "orange", "wordID": 979, "conditions": [24, 800, "a", 24000], "trial": 6, "serialpos": 9, "trial_type": "single-audio", "trial_index": 258, "time_elapsed": 1047938, "internal_node_id": "0.0-195.0"}}, {"uniqueid": "MTK0471:3HVVDCPGTFZ2T8EOF8YN8YGU9N3TYB", "current_trial": 259, "dateTime": 1510942361760, "trialdata": {"rt": -1000, "stimulus": "/static/audio/wordpool/JUDGE.wav", "key_press": -1, "type": "PRES_AUD", "word": "judge", "wordID": 760, "conditions": [24, 800, "a", 24000], "trial": 6, "serialpos": 10, "trial_type": "single-audio", "trial_index": 259, "time_elapsed": 1049784, "internal_node_id": "0.0-196.0"}}, {"uniqueid": "MTK0471:3HVVDCPGTFZ2T8EOF8YN8YGU9N3TYB", "current_trial": 260, "dateTime": 1510942363374, "trialdata": {"rt": -1000, "stimulus": "/static/audio/wordpool/COMET.wav", "key_press": -1, "type": "PRES_AUD", "word": "comet", "wordID": 352, "conditions": [24, 800, "a", 24000], "trial": 6, "serialpos": 11, "trial_type": "single-audio", "trial_index": 260, "time_elapsed": 1051399, "internal_node_id": "0.0-197.0"}}, {"uniqueid": "MTK0471:3HVVDCPGTFZ2T8EOF8YN8YGU9N3TYB", "current_trial": 261, "dateTime": 1510942365305, "trialdata": {"rt": -1000, "stimulus": "/static/audio/wordpool/QUARTER.wav", "key_press": -1, "type": "PRES_AUD", "word": "quarter", "wordID": 1147, "conditions": [24, 800, "a", 24000], "trial": 6, "serialpos": 12, "trial_type": "single-audio", "trial_index": 261, "time_elapsed": 1053330, "internal_node_id": "0.0-198.0"}}, {"uniqueid": "MTK0471:3HVVDCPGTFZ2T8EOF8YN8YGU9N3TYB", "current_trial": 262, "dateTime": 1510942367209, "trialdata": {"rt": -1000, "stimulus": "/static/audio/wordpool/MAILMAN.wav", "key_press": -1, "type": "PRES_AUD", "word": "mailman", "wordID": 857, "conditions": [24, 800, "a", 24000], "trial": 6, "serialpos": 13, "trial_type": "single-audio", "trial_index": 262, "time_elapsed": 1055233, "internal_node_id": "0.0-199.0"}}, {"uniqueid": "MTK0471:3HVVDCPGTFZ2T8EOF8YN8YGU9N3TYB", "current_trial": 263, "dateTime": 1510942369197, "trialdata": {"rt": -1000, "stimulus": "/static/audio/wordpool/DAISY.wav", "key_press": -1, "type": "PRES_AUD", "word": "daisy", "wordID": 434, "conditions": [24, 800, "a", 24000], "trial": 6, "serialpos": 14, "trial_type": "single-audio", "trial_index": 263, "time_elapsed": 1057221, "internal_node_id": "0.0-200.0"}}, {"uniqueid": "MTK0471:3HVVDCPGTFZ2T8EOF8YN8YGU9N3TYB", "current_trial": 264, "dateTime": 1510942370955, "trialdata": {"rt": -1000, "stimulus": "/static/audio/wordpool/OFFICE.wav", "key_press": -1, "type": "PRES_AUD", "word": "office", "wordID": 971, "conditions": [24, 800, "a", 24000], "trial": 6, "serialpos": 15, "trial_type": "single-audio", "trial_index": 264, "time_elapsed": 1058979, "internal_node_id": "0.0-201.0"}}, {"uniqueid": "MTK0471:3HVVDCPGTFZ2T8EOF8YN8YGU9N3TYB", "current_trial": 265, "dateTime": 1510942372723, "trialdata": {"rt": -1000, "stimulus": "/static/audio/wordpool/MATTRESS.wav", "key_press": -1, "type": "PRES_AUD", "word": "mattress", "wordID": 878, "conditions": [24, 800, "a", 24000], "trial": 6, "serialpos": 16, "trial_type": "single-audio", "trial_index": 265, "time_elapsed": 1060747, "internal_node_id": "0.0-202.0"}}, {"uniqueid": "MTK0471:3HVVDCPGTFZ2T8EOF8YN8YGU9N3TYB", "current_trial": 266, "dateTime": 1510942374382, "trialdat