{"condition": 0, "counterbalance": 1081, "assignmentId": "3R6BYFZZP8J3AY6DFS7W8GUKI0WXFI", "workerId": "MTK0892", "hitId": "3VMHWJRYHVN1NE8JPQ2UJWY02S8XFN", "currenttrial": 626, "bonus": 0, "data": [{"uniqueid": "MTK0892:3R6BYFZZP8J3AY6DFS7W8GUKI0WXFI", "current_trial": 0, "dateTime": 1512864344454, "trialdata": {"rt": 955, "key_press": 32, "type": "INSTRUCTIONS", "trial_type": "text", "trial_index": 0, "time_elapsed": 960, "internal_node_id": "0.0-0.0"}}, {"uniqueid": "MTK0892:3R6BYFZZP8J3AY6DFS7W8GUKI0WXFI", "current_trial": 1, "dateTime": 1512864349472, "trialdata": {"rt": 5013, "key_press": 32, "type": "INSTRUCTIONS", "trial_type": "text", "trial_index": 1, "time_elapsed": 5980, "internal_node_id": "0.0-1.0"}}, {"uniqueid": "MTK0892:3R6BYFZZP8J3AY6DFS7W8GUKI0WXFI", "current_trial": 2, "dateTime": 1512864366421, "trialdata": {"rt": [16922], "responses": ["ocean"], "type": "AUDIO_TEST", "trial_type": "audio-test", "trial_index": 2, "time_elapsed": 22929, "internal_node_id": "0.0-2.0"}}, {"uniqueid": "MTK0892:3R6BYFZZP8J3AY6DFS7W8GUKI0WXFI", "current_trial": 3, "dateTime": 1512864371999, "trialdata": {"rt": [5574], "responses": ["crystal"], "type": "AUDIO_TEST", "trial_type": "audio-test", "trial_index": 3, "time_elapsed": 28507, "internal_node_id": "0.0-3.0"}}, {"uniqueid": "MTK0892:3R6BYFZZP8J3AY6DFS7W8GUKI0WXFI", "current_trial": 4, "dateTime": 1512864379196, "trialdata": {"rt": [7193], "responses": ["spice"], "type": "AUDIO_TEST", "trial_type": "audio-test", "trial_index": 4, "time_elapsed": 35704, "internal_node_id": "0.0-4.0"}}, {"uniqueid": "MTK0892:3R6BYFZZP8J3AY6DFS7W8GUKI0WXFI", "current_trial": 5, "dateTime": 1512864449172, "trialdata": {"rt": 69221, "responses": "{\"Q0\":\"2:00\",\"Q1\":\"12:00\",\"Q2\":\"4\"}", "type": "SLEEP_SURVEY", "trial_type": "survey-text", "trial_index": 5, "time_elapsed": 105680, "internal_node_id": "0.0-5.0"}}, {"uniqueid": "MTK0892:3R6BYFZZP8J3AY6DFS7W8GUKI0WXFI", "current_trial": 6, "dateTime": 1512864479304, "trialdata": {"rt": 29131, "key_press": 13, "type": "INSTRUCTIONS", "trial_type": "text", "trial_index": 6, "time_elapsed": 135812, "internal_node_id": "0.0-6.0"}}, {"uniqueid": "MTK0892:3R6BYFZZP8J3AY6DFS7W8GUKI0WXFI", "current_trial": 7, "dateTime": 1512864488037, "trialdata": {"rt": 8231, "key_press": 32, "type": "INSTRUCTIONS", "trial_type": "text", "trial_index": 7, "time_elapsed": 144545, "internal_node_id": "0.0-7.0"}}, {"uniqueid": "MTK0892:3R6BYFZZP8J3AY6DFS7W8GUKI0WXFI", "current_trial": 8, "dateTime": 1512864492242, "trialdata": {"rt": 3703, "key_press": 32, "type": "INSTRUCTIONS", "trial_type": "text", "trial_index": 8, "time_elapsed": 148750, "internal_node_id": "0.0-8.0"}}, {"uniqueid": "MTK0892:3R6BYFZZP8J3AY6DFS7W8GUKI0WXFI", "current_trial": 9, "dateTime": 1512864511253, "trialdata": {"rt": [2066, 3430, 4855, 6368, 7886, 10499, 13776, 17270], "responses": ["14", "13", "15", "9", "9", "7 ", "20", "9"], "num1": [6, 6, 6, 1, 5, 2, 6, 2, 5], "num2": [4, 6, 4, 7, 1, 1, 6, 3, 9], "num3": [4, 1, 5, 1, 3, 4, 8, 4, 4], "type": "DISTRACTOR", "conditions": [18, 1200, "v", 18000], "trial": 0, "trial_type": "math-distractor", "trial_index": 9, "time_elapsed": 167761, "internal_node_id": "0.0-9.0"}}, {"uniqueid": "MTK0892:3R6BYFZZP8J3AY6DFS7W8GUKI0WXFI", "current_trial": 10, "dateTime": 1512864514258, "trialdata": {"rt": -1, "stimulus": "<p id=\"stim\">10</p>", "key_press": -1, "trial_type": "single-stim", "trial_index": 10, "time_elapsed": 170765, "internal_node_id": "0.0-10.0-0.0"}}, {"uniqueid": "MTK0892:3R6BYFZZP8J3AY6DFS7W8GUKI0WXFI", "current_trial": 11, "dateTime": 1512864515259, "trialdata": {"rt": -1, "stimulus": "<p id=\"stim\">9</p>", "key_press": -1, "trial_type": "single-stim", "trial_index": 11, "time_elapsed": 171767, "internal_node_id": "0.0-10.0-1.0"}}, {"uniqueid": "MTK0892:3R6BYFZZP8J3AY6DFS7W8GUKI0WXFI", "current_trial": 12, "dateTime": 1512864516261, "trialdata": {"rt": -1, "stimulus": "<p id=\"stim\">8</p>", "key_press": -1, "trial_type": "single-stim", "trial_index": 12, "time_elapsed": 172769, "internal_node_id": "0.0-10.0-2.0"}}, {"uniqueid": "MTK0892:3R6BYFZZP8J3AY6DFS7W8GUKI0WXFI", "current_trial": 13, "dateTime": 1512864517264, "trialdata": {"rt": -1, "stimulus": "<p id=\"stim\">7</p>", "key_press": -1, "trial_type": "single-stim", "trial_index": 13, "time_elapsed": 173772, "internal_node_id": "0.0-10.0-3.0"}}, {"uniqueid": "MTK0892:3R6BYFZZP8J3AY6DFS7W8GUKI0WXFI", "current_trial": 14, "dateTime": 1512864518268, "trialdata": {"rt": -1, "stimulus": "<p id=\"stim\">6</p>", "key_press": -1, "trial_type": "single-stim", "trial_index": 14, "time_elapsed": 174776, "internal_node_id": "0.0-10.0-4.0"}}, {"uniqueid": "MTK0892:3R6BYFZZP8J3AY6DFS7W8GUKI0WXFI", "current_trial": 15, "dateTime": 1512864519270, "trialdata": {"rt": -1, "stimulus": "<p id=\"stim\">5</p>", "key_press": -1, "trial_type": "single-stim", "trial_index": 15, "time_elapsed": 175778, "internal_node_id": "0.0-10.0-5.0"}}, {"uniqueid": "MTK0892:3R6BYFZZP8J3AY6DFS7W8GUKI0WXFI", "current_trial": 16, "dateTime": 1512864520272, "trialdata": {"rt": -1, "stimulus": "<p id=\"stim\">4</p>", "key_press": -1, "trial_type": "single-stim", "trial_index": 16, "time_elapsed": 176780, "internal_node_id": "0.0-10.0-6.0"}}, {"uniqueid": "MTK0892:3R6BYFZZP8J3AY6DFS7W8GUKI0WXFI", "current_trial": 17, "dateTime": 1512864521276, "trialdata": {"rt": -1, "stimulus": "<p id=\"stim\">3</p>", "key_press": -1, "trial_type": "single-stim", "trial_index": 17, "time_elapsed": 177784, "internal_node_id": "0.0-10.0-7.0"}}, {"uniqueid": "MTK0892:3R6BYFZZP8J3AY6DFS7W8GUKI0WXFI", "current_trial": 18, "dateTime": 1512864522278, "trialdata": {"rt": -1, "stimulus": "<p id=\"stim\">2</p>", "key_press": -1, "trial_type": "single-stim", "trial_index": 18, "time_elapsed": 178785, "internal_node_id": "0.0-10.0-8.0"}}, {"uniqueid": "MTK0892:3R6BYFZZP8J3AY6DFS7W8GUKI0WXFI", "current_trial": 19, "dateTime": 1512864523280, "trialdata": {"rt": -1, "stimulus": "<p id=\"stim\">1</p>", "key_press": -1, "trial_type": "single-stim", "trial_index": 19, "time_elapsed": 179788, "internal_node_id": "0.0-10.0-9.0"}}, {"uniqueid": "MTK0892:3R6BYFZZP8J3AY6DFS7W8GUKI0WXFI", "current_trial": 20, "dateTime": 1512864524783, "trialdata": {"rt": -1, "stimulus": "<p id=\"stim\">+</p>", "key_press": -1, "type": "FIXATION", "trial_type": "single-stim", "trial_index": 20, "time_elapsed": 181291, "internal_node_id": "0.0-11.0-0.0"}}, {"uniqueid": "MTK0892:3R6BYFZZP8J3AY6DFS7W8GUKI0WXFI", "current_trial": 21, "dateTime": 1512864525986, "trialdata": {"rt": -1, "stimulus": "<p id=\"stim\">PRINCESS</p>", "key_press": -1, "type": "PRES_VIS", "word": "princess", "wordID": 1124, "conditions": [18, 1200, "v", 18000], "trial": 0, "serialpos": 0, "trial_type": "single-stim", "trial_index": 21, "time_elapsed": 182494, "internal_node_id": "0.0-12.0"}}, {"uniqueid": "MTK0892:3R6BYFZZP8J3AY6DFS7W8GUKI0WXFI", "current_trial": 22, "dateTime": 1512864528198, "trialdata": {"rt": -1, "stimulus": "<p id=\"stim\">DRAGON</p>", "key_press": -1, "type": "PRES_VIS", "word": "dragon", "wordID": 491, "conditions": [18, 1200, "v", 18000], "trial": 0, "serialpos": 1, "trial_type": "single-stim", "trial_index": 22, "time_elapsed": 184706, "internal_node_id": "0.0-13.0"}}, {"uniqueid": "MTK0892:3R6BYFZZP8J3AY6DFS7W8GUKI0WXFI", "current_trial": 23, "dateTime": 1512864530265, "trialdata": {"rt": -1, "stimulus": "<p id=\"stim\">MATTRESS</p>", "key_press": -1, "type": "PRES_VIS", "word": "mattress", "wordID": 878, "conditions": [18, 1200, "v", 18000], "trial": 0, "serialpos": 2, "trial_type": "single-stim", "trial_index": 23, "time_elapsed": 186773, "internal_node_id": "0.0-14.0"}}, {"uniqueid": "MTK0892:3R6BYFZZP8J3AY6DFS7W8GUKI0WXFI", "current_trial": 24, "dateTime": 1512864532448, "trialdata": {"rt": -1, "stimulus": "<p id=\"stim\">HONEY</p>", "key_press": -1, "type": "PRES_VIS", "word": "honey", "wordID": 712, "conditions": [18, 1200, "v", 18000], "trial": 0, "serialpos": 3, "trial_type": "single-stim", "trial_index": 24, "time_elapsed": 188956, "internal_node_id": "0.0-15.0"}}, {"uniqueid": "MTK0892:3R6BYFZZP8J3AY6DFS7W8GUKI0WXFI", "current_trial": 25, "dateTime": 1512864534734, "trialdata": {"rt": -1, "stimulus": "<p id=\"stim\">DONOR</p>", "key_press": -1, "type": "PRES_VIS", "word": "donor", "wordID": 484, "conditions": [18, 1200, "v", 18000], "trial": 0, "serialpos": 4, "trial_type": "single-stim", "trial_index": 25, "time_elapsed": 191242, "internal_node_id": "0.0-16.0"}}, {"uniqueid": "MTK0892:3R6BYFZZP8J3AY6DFS7W8GUKI0WXFI", "current_trial": 26, "dateTime": 1512864537118, "trialdata": {"rt": -1, "stimulus": "<p id=\"stim\">PIGMENT</p>", "key_press": -1, "type": "PRES_VIS", "word": "pigment", "wordID": 1065, "conditions": [18, 1200, "v", 18000], "trial": 0, "serialpos": 5, "trial_type": "single-stim", "trial_index": 26, "time_elapsed": 193626, "internal_node_id": "0.0-17.0"}}, {"uniqueid": "MTK0892:3R6BYFZZP8J3AY6DFS7W8GUKI0WXFI", "current_trial": 27, "dateTime": 1512864539195, "trialdata": {"rt": -1, "stimulus": "<p id=\"stim\">GRILL</p>", "key_press": -1, "type": "PRES_VIS", "word": "grill", "wordID": 660, "conditions": [18, 1200, "v", 18000], "trial": 0, "serialpos": 6, "trial_type": "single-stim", "trial_index": 27, "time_elapsed": 195703, "internal_node_id": "0.0-18.0"}}, {"uniqueid": "MTK0892:3R6BYFZZP8J3AY6DFS7W8GUKI0WXFI", "current_trial": 28, "dateTime": 1512864541459, "trialdata": {"rt": -1, "stimulus": "<p id=\"stim\">BALLOON</p>", "key_press": -1, "type": "PRES_VIS", "word": "balloon", "wordID": 74, "conditions": [18, 1200, "v", 18000], "trial": 0, "serialpos": 7, "trial_type": "single-stim", "trial_index": 28, "time_elapsed": 197967, "internal_node_id": "0.0-19.0"}}, {"uniqueid": "MTK0892:3R6BYFZZP8J3AY6DFS7W8GUKI0WXFI", "current_trial": 29, "dateTime": 1512864543527, "trialdata": {"rt": -1, "stimulus": "<p id=\"stim\">SLOPE</p>", "key_press": -1, "type": "PRES_VIS", "word": "slope", "wordID": 1327, "conditions": [18, 1200, "v", 18000], "trial": 0, "serialpos": 8, "trial_type": "single-stim", "trial_index": 29, "time_elapsed": 200035, "internal_node_id": "0.0-20.0"}}, {"uniqueid": "MTK0892:3R6BYFZZP8J3AY6DFS7W8GUKI0WXFI", "current_trial": 30, "dateTime": 1512864545881, "trialdata": {"rt": -1, "stimulus": "<p id=\"stim\">TWISTER</p>", "key_press": -1, "type": "PRES_VIS", "word": "twister", "wordID": 1529, "conditions": [18, 1200, "v", 18000], "trial": 0, "serialpos": 9, "trial_type": "single-stim", "trial_index": 30, "time_elapsed": 202389, "internal_node_id": "0.0-21.0"}}, {"uniqueid": "MTK0892:3R6BYFZZP8J3AY6DFS7W8GUKI0WXFI", "current_trial": 31, "dateTime": 1512864548205, "trialdata": {"rt": -1, "stimulus": "<p id=\"stim\">APRON</p>", "key_press": -1, "type": "PRES_VIS", "word": "apron", "wordID": 34, "conditions": [18, 1200, "v", 18000], "trial": 0, "serialpos": 10, "trial_type": "single-stim", "trial_index": 31, "time_elapsed": 204713, "internal_node_id": "0.0-22.0"}}, {"uniqueid": "MTK0892:3R6BYFZZP8J3AY6DFS7W8GUKI0WXFI", "current_trial": 32, "dateTime": 1512864550300, "trialdata": {"rt": -1, "stimulus": "<p id=\"stim\">WAITER</p>", "key_press": -1, "type": "PRES_VIS", "word": "waiter", "wordID": 1579, "conditions": [18, 1200, "v", 18000], "trial": 0, "serialpos": 11, "trial_type": "single-stim", "trial_index": 32, "time_elapsed": 206808, "internal_node_id": "0.0-23.0"}}, {"uniqueid": "MTK0892:3R6BYFZZP8J3AY6DFS7W8GUKI0WXFI", "current_trial": 33, "dateTime": 1512864552695, "trialdata": {"rt": -1, "stimulus": "<p id=\"stim\">ATLAS</p>", "key_press": -1, "type": "PRES_VIS", "word": "atlas", "wordID": 52, "conditions": [18, 1200, "v", 18000], "trial": 0, "serialpos": 12, "trial_type": "single-stim", "trial_index": 33, "time_elapsed": 209202, "internal_node_id": "0.0-24.0"}}, {"uniqueid": "MTK0892:3R6BYFZZP8J3AY6DFS7W8GUKI0WXFI", "current_trial": 34, "dateTime": 1512864555037, "trialdata": {"rt": -1, "stimulus": "<p id=\"stim\">SHARK</p>", "key_press": -1, "type": "PRES_VIS", "word": "shark", "wordID": 1274, "conditions": [18, 1200, "v", 18000], "trial": 0, "serialpos": 13, "trial_type": "single-stim", "trial_index": 34, "time_elapsed": 211545, "internal_node_id": "0.0-25.0"}}, {"uniqueid": "MTK0892:3R6BYFZZP8J3AY6DFS7W8GUKI0WXFI", "current_trial": 35, "dateTime": 1512864557364, "trialdata": {"rt": -1, "stimulus": "<p id=\"stim\">HEART</p>", "key_press": -1, "type": "PRES_VIS", "word": "heart", "wordID": 696, "conditions": [18, 1200, "v", 18000], "trial": 0, "serialpos": 14, "trial_type": "single-stim", "trial_index": 35, "time_elapsed": 213872, "internal_node_id": "0.0-26.0"}}, {"uniqueid": "MTK0892:3R6BYFZZP8J3AY6DFS7W8GUKI0WXFI", "current_trial": 36, "dateTime": 1512864559416, "trialdata": {"rt": -1, "stimulus": "<p id=\"stim\">BANJO</p>", "key_press": -1, "type": "PRES_VIS", "word": "banjo", "wordID": 81, "conditions": [18, 1200, "v", 18000], "trial": 0, "serialpos": 15, "trial_type": "single-stim", "trial_index": 36, "time_elapsed": 215924, "internal_node_id": "0.0-27.0"}}, {"uniqueid": "MTK0892:3R6BYFZZP8J3AY6DFS7W8GUKI0WXFI", "current_trial": 37, "dateTime": 1512864561808, "trialdata": {"rt": -1, "stimulus": "<p id=\"stim\">WITNESS</p>", "key_press": -1, "type": "PRES_VIS", "word": "witness", "wordID": 1617, "conditions": [18, 1200, "v", 18000], "trial": 0, "serialpos": 16, "trial_type": "single-stim", "trial_index": 37, "time_elapsed": 218316, "internal_node_id": "0.0-28.0"}}, {"uniqueid": "MTK0892:3R6BYFZZP8J3AY6DFS7W8GUKI0WXFI", "current_trial": 38, "dateTime": 1512864564194, "trialdata": {"rt": -1, "stimulus": "<p id=\"stim\">AIRPLANE</p>", "key_press": -1, "type": "PRES_VIS", "word": "airplane", "wordID": 11, "conditions": [18, 1200, "v", 18000], "trial": 0, "serialpos": 17, "trial_type": "single-stim", "trial_index": 38, "time_elapsed": 220702, "internal_node_id": "0.0-29.0"}}, {"uniqueid": "MTK0892:3R6BYFZZP8J3AY6DFS7W8GUKI0WXFI", "current_trial": 39, "dateTime": 1512864566401, "trialdata": {"rt": -1, "stimulus": "", "key_press": -1, "type": "PRE_RECALL_DELAY", "trial_type": "single-stim", "trial_index": 39, "time_elapsed": 222909, "internal_node_id": "0.0-30.0-0.0"}}, {"uniqueid": "MTK0892:3R6BYFZZP8J3AY6DFS7W8GUKI0WXFI", "current_trial": 40, "dateTime": 1512864566910, "trialdata": {"rt": -1000, "stimulus": "/static/audio/400Hz.wav", "key_press": -1, "type": "PRE_RECALL_ALERT", "trial_type": "single-audio", "trial_index": 40, "time_elapsed": 223417, "internal_node_id": "0.0-31.0"}}, {"uniqueid": "MTK0892:3R6BYFZZP8J3AY6DFS7W8GUKI0WXFI", "current_trial": 41, "dateTime": 1512864626922, "trialdata": {"rt": [2056, 3413, 5787, 9816, 22671, 49243], "recwords": ["dragon", "airplane", "pigment", "shadow", "airplane", "honey"], "type": "FREE_RECALL", "conditions": [18, 1200, "v", 18000], "trial": 0, "trial_type": "free-recall", "trial_index": 41, "time_elapsed": 283425, "internal_node_id": "0.0-32.0-0.0"}}, {"uniqueid": "MTK0892:3R6BYFZZP8J3AY6DFS7W8GUKI0WXFI", "current_trial": 42, "dateTime": 1512864630555, "trialdata": {"rt": 1632, "key_press": 32, "type": "INSTRUCTIONS", "trial_type": "text", "trial_index": 42, "time_elapsed": 287063, "internal_node_id": "0.0-33.0"}}, {"uniqueid": "MTK0892:3R6BYFZZP8J3AY6DFS7W8GUKI0WXFI", "current_trial": 43, "dateTime": 1512864650560, "trialdata": {"rt": [2436, 4104, 6229, 7890, 10608, 12315, 14396, 16476], "responses": ["18", "17", "20", "16", "16", "10", "19", "21"], "num1": [4, 9, 5, 5, 5, 1, 8, 8, 5], "num2": [7, 1, 9, 6, 7, 4, 6, 7, 7], "num3": [7, 7, 6, 5, 4, 5, 5, 6, 6], "type": "DISTRACTOR", "conditions": [18, 1200, "a", 18000], "trial": 1, "trial_type": "math-distractor", "trial_index": 43, "time_elapsed": 307068, "internal_node_id": "0.0-34.0"}}, {"uniqueid": "MTK0892:3R6BYFZZP8J3AY6DFS7W8GUKI0WXFI", "current_trial": 44, "dateTime": 1512864653564, "trialdata": {"rt": -1, "stimulus": "<p id=\"stim\">10</p>", "key_press": -1, "trial_type": "single-stim", "trial_index": 44, "time_elapsed": 310072, "internal_node_id": "0.0-35.0-0.0"}}, {"uniqueid": "MTK0892:3R6BYFZZP8J3AY6DFS7W8GUKI0WXFI", "current_trial": 45, "dateTime": 1512864654567, "trialdata": {"rt": -1, "stimulus": "<p id=\"stim\">9</p>", "key_press": -1, "trial_type": "single-stim", "trial_index": 45, "time_elapsed": 311075, "internal_node_id": "0.0-35.0-1.0"}}, {"uniqueid": "MTK0892:3R6BYFZZP8J3AY6DFS7W8GUKI0WXFI", "current_trial": 46, "dateTime": 1512864655569, "trialdata": {"rt": -1, "stimulus": "<p id=\"stim\">8</p>", "key_press": -1, "trial_type": "single-stim", "trial_index": 46, "time_elapsed": 312077, "internal_node_id": "0.0-35.0-2.0"}}, {"uniqueid": "MTK0892:3R6BYFZZP8J3AY6DFS7W8GUKI0WXFI", "current_trial": 47, "dateTime": 1512864656571, "trialdata": {"rt": -1, "stimulus": "<p id=\"stim\">7</p>", "key_press": -1, "trial_type": "single-stim", "trial_index": 47, "time_elapsed": 313079, "internal_node_id": "0.0-35.0-3.0"}}, {"uniqueid": "MTK0892:3R6BYFZZP8J3AY6DFS7W8GUKI0WXFI", "current_trial": 48, "dateTime": 1512864657577, "trialdata": {"rt": -1, "stimulus": "<p id=\"stim\">6</p>", "key_press": -1, "trial_type": "single-stim", "trial_index": 48, "time_elapsed": 314083, "internal_node_id": "0.0-35.0-4.0"}}, {"uniqueid": "MTK0892:3R6BYFZZP8J3AY6DFS7W8GUKI0WXFI", "current_trial": 49, "dateTime": 1512864658580, "trialdata": {"rt": -1, "stimulus": "<p id=\"stim\">5</p>", "key_press": -1, "trial_type": "single-stim", "trial_index": 49, "time_elapsed": 315088, "internal_node_id": "0.0-35.0-5.0"}}, {"uniqueid": "MTK0892:3R6BYFZZP8J3AY6DFS7W8GUKI0WXFI", "current_trial": 50, "dateTime": 1512864659582, "trialdata": {"rt": -1, "stimulus": "<p id=\"stim\">4</p>", "key_press": -1, "trial_type": "single-stim", "trial_index": 50, "time_elapsed": 316090, "internal_node_id": "0.0-35.0-6.0"}}, {"uniqueid": "MTK0892:3R6BYFZZP8J3AY6DFS7W8GUKI0WXFI", "current_trial": 51, "dateTime": 1512864660584, "trialdata": {"rt": -1, "stimulus": "<p id=\"stim\">3</p>", "key_press": -1, "trial_type": "single-stim", "trial_index": 51, "time_elapsed": 317092, "internal_node_id": "0.0-35.0-7.0"}}, {"uniqueid": "MTK0892:3R6BYFZZP8J3AY6DFS7W8GUKI0WXFI", "current_trial": 52, "dateTime": 1512864661587, "trialdata": {"rt": -1, "stimulus": "<p id=\"stim\">2</p>", "key_press": -1, "trial_type": "single-stim", "trial_index": 52, "time_elapsed": 318094, "internal_node_id": "0.0-35.0-8.0"}}, {"uniqueid": "MTK0892:3R6BYFZZP8J3AY6DFS7W8GUKI0WXFI", "current_trial": 53, "dateTime": 1512864662589, "trialdata": {"rt": -1, "stimulus": "<p id=\"stim\">1</p>", "key_press": -1, "trial_type": "single-stim", "trial_index": 53, "time_elapsed": 319097, "internal_node_id": "0.0-35.0-9.0"}}, {"uniqueid": "MTK0892:3R6BYFZZP8J3AY6DFS7W8GUKI0WXFI", "current_trial": 54, "dateTime": 1512864664091, "trialdata": {"rt": -1, "stimulus": "<p id=\"stim\">+</p>", "key_press": -1, "type": "FIXATION", "trial_type": "single-stim", "trial_index": 54, "time_elapsed": 320599, "internal_node_id": "0.0-36.0-0.0"}}, {"uniqueid": "MTK0892:3R6BYFZZP8J3AY6DFS7W8GUKI0WXFI", "current_trial": 55, "dateTime": 1512864666427, "trialdata": {"rt": -1000, "stimulus": "/static/audio/wordpool/REBEL.wav", "key_press": -1, "type": "PRES_AUD", "word": "rebel", "wordID": 1171, "conditions": [18, 1200, "a", 18000], "trial": 1, "serialpos": 0, "trial_type": "single-audio", "trial_index": 55, "time_elapsed": 322935, "internal_node_id": "0.0-37.0"}}, {"uniqueid": "MTK0892:3R6BYFZZP8J3AY6DFS7W8GUKI0WXFI", "current_trial": 56, "dateTime": 1512864668484, "trialdata": {"rt": -1000, "stimulus": "/static/audio/wordpool/FLOWER.wav", "key_press": -1, "type": "PRES_AUD", "word": "flower", "wordID": 583, "conditions": [18, 1200, "a", 18000], "trial": 1, "serialpos": 1, "trial_type": "single-audio", "trial_index": 56, "time_elapsed": 324992, "internal_node_id": "0.0-38.0"}}, {"uniqueid": "MTK0892:3R6BYFZZP8J3AY6DFS7W8GUKI0WXFI", "current_trial": 57, "dateTime": 1512864670534, "trialdata": {"rt": -1000, "stimulus": "/static/audio/wordpool/BUBBLE.wav", "key_press": -1, "type": "PRES_AUD", "word": "bubble", "wordID": 182, "conditions": [18, 1200, "a", 18000], "trial": 1, "serialpos": 2, "trial_type": "single-audio", "trial_index": 57, "time_elapsed": 327042, "internal_node_id": "0.0-39.0"}}, {"uniqueid": "MTK0892:3R6BYFZZP8J3AY6DFS7W8GUKI0WXFI", "current_trial": 58, "dateTime": 1512864672808, "trialdata": {"rt": -1000, "stimulus": "/static/audio/wordpool/FREEZER.wav", "key_press": -1, "type": "PRES_AUD", "word": "freezer", "wordID": 603, "conditions": [18, 1200, "a", 18000], "trial": 1, "serialpos": 3, "trial_type": "single-audio", "trial_index": 58, "time_elapsed": 329316, "internal_node_id": "0.0-40.0"}}, {"uniqueid": "MTK0892:3R6BYFZZP8J3AY6DFS7W8GUKI0WXFI", "current_trial": 59, "dateTime": 1512864674858, "trialdata": {"rt": -1000, "stimulus": "/static/audio/wordpool/FIREPLACE.wav", "key_press": -1, "type": "PRES_AUD", "word": "fireplace", "wordID": 569, "conditions": [18, 1200, "a", 18000], "trial": 1, "serialpos": 4, "trial_type": "single-audio", "trial_index": 59, "time_elapsed": 331366, "internal_node_id": "0.0-41.0"}}, {"uniqueid": "MTK0892:3R6BYFZZP8J3AY6DFS7W8GUKI0WXFI", "current_trial": 60, "dateTime": 1512864676898, "trialdata": {"rt": -1000, "stimulus": "/static/audio/wordpool/FOOT.wav", "key_press": -1, "type": "PRES_AUD", "word": "foot", "wordID": 589, "conditions": [18, 1200, "a", 18000], "trial": 1, "serialpos": 5, "trial_type": "single-audio", "trial_index": 60, "time_elapsed": 333406, "internal_node_id": "0.0-42.0"}}, {"uniqueid": "MTK0892:3R6BYFZZP8J3AY6DFS7W8GUKI0WXFI", "current_trial": 61, "dateTime": 1512864679155, "trialdata": {"rt": -1000, "stimulus": "/static/audio/wordpool/TURKEY.wav", "key_press": -1, "type": "PRES_AUD", "word": "turkey", "wordID": 1519, "conditions": [18, 1200, "a", 18000], "trial": 1, "serialpos": 6, "trial_type": "single-audio", "trial_index": 61, "time_elapsed": 335662, "internal_node_id": "0.0-43.0"}}, {"uniqueid": "MTK0892:3R6BYFZZP8J3AY6DFS7W8GUKI0WXFI", "current_trial": 62, "dateTime": 1512864681357, "trialdata": {"rt": -1000, "stimulus": "/static/audio/wordpool/CONVICT.wav", "key_press": -1, "type": "PRES_AUD", "word": "convict", "wordID": 370, "conditions": [18, 1200, "a", 18000], "trial": 1, "serialpos": 7, "trial_type": "single-audio", "trial_index": 62, "time_elapsed": 337864, "internal_node_id": "0.0-44.0"}}, {"uniqueid": "MTK0892:3R6BYFZZP8J3AY6DFS7W8GUKI0WXFI", "current_trial": 63, "dateTime": 1512864683602, "trialdata": {"rt": -1000, "stimulus": "/static/audio/wordpool/ROCKET.wav", "key_press": -1, "type": "PRES_AUD", "word": "rocket", "wordID": 1201, "conditions": [18, 1200, "a", 18000], "trial": 1, "serialpos": 8, "trial_type": "single-audio", "trial_index": 63, "time_elapsed": 340109, "internal_node_id": "0.0-45.0"}}, {"uniqueid": "MTK0892:3R6BYFZZP8J3AY6DFS7W8GUKI0WXFI", "current_trial": 64, "dateTime": 1512864685881, "trialdata": {"rt": -1000, "stimulus": "/static/audio/wordpool/DRAWING.wav", "key_press": -1, "type": "PRES_AUD", "word": "drawing", "wordID": 493, "conditions": [18, 1200, "a", 18000], "trial": 1, "serialpos": 9, "trial_type": "single-audio", "trial_index": 64, "time_elapsed": 342388, "internal_node_id": "0.0-46.0"}}, {"uniqueid": "MTK0892:3R6BYFZZP8J3AY6DFS7W8GUKI0WXFI", "current_trial": 65, "dateTime": 1512864688027, "trialdata": {"rt": -1000, "stimulus": "/static/audio/wordpool/QUARTER.wav", "key_press": -1, "type": "PRES_AUD", "word": "quarter", "wordID": 1147, "conditions": [18, 1200, "a", 18000], "trial": 1, "serialpos": 10, "trial_type": "single-audio", "trial_index": 65, "time_elapsed": 344535, "internal_node_id": "0.0-47.0"}}, {"uniqueid": "MTK0892:3R6BYFZZP8J3AY6DFS7W8GUKI0WXFI", "current_trial": 66, "dateTime": 1512864690289, "trialdata": {"rt": -1000, "stimulus": "/static/audio/wordpool/HARP.wav", "key_press": -1, "type": "PRES_AUD", "word": "harp", "wordID": 688, "conditions": [18, 1200, "a", 18000], "trial": 1, "serialpos": 11, "trial_type": "single-audio", "trial_index": 66, "time_elapsed": 346797, "internal_node_id": "0.0-48.0"}}, {"uniqueid": "MTK0892:3R6BYFZZP8J3AY6DFS7W8GUKI0WXFI", "current_trial": 67, "dateTime": 1512864692366, "trialdata": {"rt": -1000, "stimulus": "/static/audio/wordpool/PICTURE.wav", "key_press": -1, "type": "PRES_AUD", "word": "picture", "wordID": 1060, "conditions": [18, 1200, "a", 18000], "trial": 1, "serialpos": 12, "trial_type": "single-audio", "trial_index": 67, "time_elapsed": 348874, "internal_node_id": "0.0-49.0"}}, {"uniqueid": "MTK0892:3R6BYFZZP8J3AY6DFS7W8GUKI0WXFI", "current_trial": 68, "dateTime": 1512864694465, "trialdata": {"rt": -1000, "stimulus": "/static/audio/wordpool/SIBLING.wav", "key_press": -1, "type": "PRES_AUD", "word": "sibling", "wordID": 1300, "conditions": [18, 1200, "a", 18000], "trial": 1, "serialpos": 13, "trial_type": "single-audio", "trial_index": 68, "time_elapsed": 350966, "internal_node_id": "0.0-50.0"}}, {"uniqueid": "MTK0892:3R6BYFZZP8J3AY6DFS7W8GUKI0WXFI", "current_trial": 69, "dateTime": 1512864696845, "trialdata": {"rt": -1000, "stimulus": "/static/audio/wordpool/TUTU.wav", "key_press": -1, "type": "PRES_AUD", "word": "tutu", "wordID": 1523, "conditions": [18, 1200, "a", 18000], "trial": 1, "serialpos": 14, "trial_type": "single-audio", "trial_index": 69, "time_elapsed": 353353, "internal_node_id": "0.0-51.0"}}, {"uniqueid": "MTK0892:3R6BYFZZP8J3AY6DFS7W8GUKI0WXFI", "current_trial": 70, "dateTime": 1512864699253, "trialdata": {"rt": -1000, "stimulus": "/static/audio/wordpool/COBRA.wav", "key_press": -1, "type": "PRES_AUD", "word": "cobra", "wordID": 335, "conditions": [18, 1200, "a", 18000], "trial": 1, "serialpos": 15, "trial_type": "single-audio", "trial_index": 70, "time_elapsed": 355761, "internal_node_id": "0.0-52.0"}}, {"uniqueid": "MTK0892:3R6BYFZZP8J3AY6DFS7W8GUKI0WXFI", "current_trial": 71, "dateTime": 1512864701591, "trialdata": {"rt": -1000, "stimulus": "/static/audio/wordpool/POCKET.wav", "key_press": -1, "type": "PRES_AUD", "word": "pocket", "wordID": 1092, "conditions": [18, 1200, "a", 18000], "trial": 1, "serialpos": 16, "trial_type": "single-audio", "trial_index": 71, "time_elapsed": 358099, "internal_node_id": "0.0-53.0"}}, {"uniqueid": "MTK0892:3R6BYFZZP8J3AY6DFS7W8GUKI0WXFI", "current_trial": 72, "dateTime": 1512864703824, "trialdata": {"rt": -1000, "stimulus": "/static/audio/wordpool/CRAYON.wav", "key_press": -1, "type": "PRES_AUD", "word": "crayon", "wordID": 400, "conditions": [18, 1200, "a", 18000], "trial": 1, "serialpos": 17, "trial_type": "single-audio", "trial_index": 72, "time_elapsed": 360332, "internal_node_id": "0.0-54.0"}}, {"uniqueid": "MTK0892:3R6BYFZZP8J3AY6DFS7W8GUKI0WXFI", "current_trial": 73, "dateTime": 1512864705128, "trialdata": {"rt": -1, "stimulus": "", "key_press": -1, "type": "PRE_RECALL_DELAY", "trial_type": "single-stim", "trial_index": 73, "time_elapsed": 361636, "internal_node_id": "0.0-55.0-0.0"}}, {"uniqueid": "MTK0892:3R6BYFZZP8J3AY6DFS7W8GUKI0WXFI", "current_trial": 74, "dateTime": 1512864705633, "trialdata": {"rt": -1000, "stimulus": "/static/audio/400Hz.wav", "key_press": -1, "type": "PRE_RECALL_ALERT", "trial_type": "single-audio", "trial_index": 74, "time_elapsed": 362141, "internal_node_id": "0.0-56.0"}}, {"uniqueid": "MTK0892:3R6BYFZZP8J3AY6DFS7W8GUKI0WXFI", "current_trial": 75, "dateTime": 1512864765646, "trialdata": {"rt": [1538, 5470, 7676, 10508, 12625, 13539, 21952], "recwords": ["crayon", "sibling", "freezer", "pocket", "drawing", "tutu", "crayon"], "type": "FREE_RECALL", "conditions": [18, 1200, "a", 18000], "trial": 1, "trial_type": "free-recall", "trial_index": 75, "time_elapsed": 422149, "internal_node_id": "0.0-57.0-0.0"}}, {"uniqueid": "MTK0892:3R6BYFZZP8J3AY6DFS7W8GUKI0WXFI", "current_trial": 76, "dateTime": 1512864774014, "trialdata": {"rt": 6358, "key_press": 32, "type": "INSTRUCTIONS", "trial_type": "text", "trial_index": 76, "time_elapsed": 430514, "internal_node_id": "0.0-58.0"}}, {"uniqueid": "MTK0892:3R6BYFZZP8J3AY6DFS7W8GUKI0WXFI", "current_trial": 77, "dateTime": 1512864799019, "trialdata": {"rt": [2113, 3511, 4764, 6911, 8215, 9562, 11924, 14662, 16077, 17664, 19241, 21609, 22936], "responses": ["13", "11", "9", "17", "13", "12", "20", "11", "13", "17", "9", "14", "13"], "num1": [3, 6, 2, 2, 6, 4, 9, 6, 4, 8, 2, 8, 7, 9], "num2": [8, 3, 2, 9, 5, 6, 2, 3, 7, 1, 5, 3, 3, 4], "num3": [2, 2, 5, 6, 2, 2, 9, 2, 2, 8, 1, 3, 3, 4], "type": "DISTRACTOR", "conditions": [12, 1600, "v", 24000], "trial": 2, "trial_type": "math-distractor", "trial_index": 77, "time_elapsed": 455527, "internal_node_id": "0.0-59.0"}}, {"uniqueid": "MTK0892:3R6BYFZZP8J3AY6DFS7W8GUKI0WXFI", "current_trial": 78, "dateTime": 1512864802023, "trialdata": {"rt": -1, "stimulus": "<p id=\"stim\">10</p>", "key_press": -1, "trial_type": "single-stim", "trial_index": 78, "time_elapsed": 458531, "internal_node_id": "0.0-60.0-0.0"}}, {"uniqueid": "MTK0892:3R6BYFZZP8J3AY6DFS7W8GUKI0WXFI", "current_trial": 79, "dateTime": 1512864803025, "trialdata": {"rt": -1, "stimulus": "<p id=\"stim\">9</p>", "key_press": -1, "trial_type": "single-stim", "trial_index": 79, "time_elapsed": 459532, "internal_node_id": "0.0-60.0-1.0"}}, {"uniqueid": "MTK0892:3R6BYFZZP8J3AY6DFS7W8GUKI0WXFI", "current_trial": 80, "dateTime": 1512864804030, "trialdata": {"rt": -1, "stimulus": "<p id=\"stim\">8</p>", "key_press": -1, "trial_type": "single-stim", "trial_index": 80, "time_elapsed": 460534, "internal_node_id": "0.0-60.0-2.0"}}, {"uniqueid": "MTK0892:3R6BYFZZP8J3AY6DFS7W8GUKI0WXFI", "current_trial": 81, "dateTime": 1512864805033, "trialdata": {"rt": -1, "stimulus": "<p id=\"stim\">7</p>", "key_press": -1, "trial_type": "single-stim", "trial_index": 81, "time_elapsed": 461541, "internal_node_id": "0.0-60.0-3.0"}}, {"uniqueid": "MTK0892:3R6BYFZZP8J3AY6DFS7W8GUKI0WXFI", "current_trial": 82, "dateTime": 1512864806035, "trialdata": {"rt": -1, "stimulus": "<p id=\"stim\">6</p>", "key_press": -1, "trial_type": "single-stim", "trial_index": 82, "time_elapsed": 462543, "internal_node_id": "0.0-60.0-4.0"}}, {"uniqueid": "MTK0892:3R6BYFZZP8J3AY6DFS7W8GUKI0WXFI", "current_trial": 83, "dateTime": 1512864807036, "trialdata": {"rt": -1, "stimulus": "<p id=\"stim\">5</p>", "key_press": -1, "trial_type": "single-stim", "trial_index": 83, "time_elapsed": 463544, "internal_node_id": "0.0-60.0-5.0"}}, {"uniqueid": "MTK0892:3R6BYFZZP8J3AY6DFS7W8GUKI0WXFI", "current_trial": 84, "dateTime": 1512864808038, "trialdata": {"rt": -1, "stimulus": "<p id=\"stim\">4</p>", "key_press": -1, "trial_type": "single-stim", "trial_index": 84, "time_elapsed": 464546, "internal_node_id": "0.0-60.0-6.0"}}, {"uniqueid": "MTK0892:3R6BYFZZP8J3AY6DFS7W8GUKI0WXFI", "current_trial": 85, "dateTime": 1512864809041, "trialdata": {"rt": -1, "stimulus": "<p id=\"stim\">3</p>", "key_press": -1, "trial_type": "single-stim", "trial_index": 85, "time_elapsed": 465549, "internal_node_id": "0.0-60.0-7.0"}}, {"uniqueid": "MTK0892:3R6BYFZZP8J3AY6DFS7W8GUKI0WXFI", "current_trial": 86, "dateTime": 1512864810042, "trialdata": {"rt": -1, "stimulus": "<p id=\"stim\">2</p>", "key_press": -1, "trial_type": "single-stim", "trial_index": 86, "time_elapsed": 466550, "internal_node_id": "0.0-60.0-8.0"}}, {"uniqueid": "MTK0892:3R6BYFZZP8J3AY6DFS7W8GUKI0WXFI", "current_trial": 87, "dateTime": 1512864811045, "trialdata": {"rt": -1, "stimulus": "<p id=\"stim\">1</p>", "key_press": -1, "trial_type": "single-stim", "trial_index": 87, "time_elapsed": 467553, "internal_node_id": "0.0-60.0-9.0"}}, {"uniqueid": "MTK0892:3R6BYFZZP8J3AY6DFS7W8GUKI0WXFI", "current_trial": 88, "dateTime": 1512864812547, "trialdata": {"rt": -1, "stimulus": "<p id=\"stim\">+</p>", "key_press": -1, "type": "FIXATION", "trial_type": "single-stim", "trial_index": 88, "time_elapsed": 469055, "internal_node_id": "0.0-61.0-0.0"}}, {"uniqueid": "MTK0892:3R6BYFZZP8J3AY6DFS7W8GUKI0WXFI", "current_trial": 89, "dateTime": 1512864814149, "trialdata": {"rt": -1, "stimulus": "<p id=\"stim\">CAMEL</p>", "key_press": -1, "type": "PRES_VIS", "word": "camel", "wordID": 222, "conditions": [12, 1600, "v", 24000], "trial": 2, "serialpos": 0, "trial_type": "single-stim", "trial_index": 89, "time_elapsed": 470657, "internal_node_id": "0.0-62.0"}}, {"uniqueid": "MTK0892:3R6BYFZZP8J3AY6DFS7W8GUKI0WXFI", "current_trial": 90, "dateTime": 1512864816941, "trialdata": {"rt": -1, "stimulus": "<p id=\"stim\">DONKEY</p>", "key_press": -1, "type": "PRES_VIS", "word": "donkey", "wordID": 483, "conditions": [12, 1600, "v", 24000], "trial": 2, "serialpos": 1, "trial_type": "single-stim", "trial_index": 90, "time_elapsed": 473449, "internal_node_id": "0.0-63.0"}}, {"uniqueid": "MTK0892:3R6BYFZZP8J3AY6DFS7W8GUKI0WXFI", "current_trial": 91, "dateTime": 1512864819593, "trialdata": {"rt": -1, "stimulus": "<p id=\"stim\">DORM</p>", "key_press": -1, "type": "PRES_VIS", "word": "dorm", "wordID": 487, "conditions": [12, 1600, "v", 24000], "trial": 2, "serialpos": 2, "trial_type": "single-stim", "trial_index": 91, "time_elapsed": 476101, "internal_node_id": "0.0-64.0"}}, {"uniqueid": "MTK0892:3R6BYFZZP8J3AY6DFS7W8GUKI0WXFI", "current_trial": 92, "dateTime": 1512864822369, "trialdata": {"rt": -1, "stimulus": "<p id=\"stim\">STICKER</p>", "key_press": -1, "type": "PRES_VIS", "word": "sticker", "wordID": 1381, "conditions": [12, 1600, "v", 24000], "trial": 2, "serialpos": 3, "trial_type": "single-stim", "trial_index": 92, "time_elapsed": 478876, "internal_node_id": "0.0-65.0"}}, {"uniqueid": "MTK0892:3R6BYFZZP8J3AY6DFS7W8GUKI0WXFI", "current_trial": 93, "dateTime": 1512864824867, "trialdata": {"rt": -1, "stimulus": "<p id=\"stim\">LEG</p>", "key_press": -1, "type": "PRES_VIS", "word": "leg", "wordID": 808, "conditions": [12, 1600, "v", 24000], "trial": 2, "serialpos": 4, "trial_type": "single-stim", "trial_index": 93, "time_elapsed": 481375, "internal_node_id": "0.0-66.0"}}, {"uniqueid": "MTK0892:3R6BYFZZP8J3AY6DFS7W8GUKI0WXFI", "current_trial": 94, "dateTime": 1512864827598, "trialdata": {"rt": -1, "stimulus": "<p id=\"stim\">CUPBOARD</p>", "key_press": -1, "type": "PRES_VIS", "word": "cupboard", "wordID": 424, "conditions": [12, 1600, "v", 24000], "trial": 2, "serialpos": 5, "trial_type": "single-stim", "trial_index": 94, "time_elapsed": 484105, "internal_node_id": "0.0-67.0"}}, {"uniqueid": "MTK0892:3R6BYFZZP8J3AY6DFS7W8GUKI0WXFI", "current_trial": 95, "dateTime": 1512864830319, "trialdata": {"rt": -1, "stimulus": "<p id=\"stim\">OFFICE</p>", "key_press": -1, "type": "PRES_VIS", "word": "office", "wordID": 971, "conditions": [12, 1600, "v", 24000], "trial": 2, "serialpos": 6, "trial_type": "single-stim", "trial_index": 95, "time_elapsed": 486827, "internal_node_id": "0.0-68.0"}}, {"uniqueid": "MTK0892:3R6BYFZZP8J3AY6DFS7W8GUKI0WXFI", "current_trial": 96, "dateTime": 1512864832905, "trialdata": {"rt": -1, "stimulus": "<p id=\"stim\">STUDENT</p>", "key_press": -1, "type": "PRES_VIS", "word": "student", "wordID": 1394, "conditions": [12, 1600, "v", 24000], "trial": 2, "serialpos": 7, "trial_type": "single-stim", "trial_index": 96, "time_elapsed": 489413, "internal_node_id": "0.0-69.0"}}, {"uniqueid": "MTK0892:3R6BYFZZP8J3AY6DFS7W8GUKI0WXFI", "current_trial": 97, "dateTime": 1512864835337, "trialdata": {"rt": -1, "stimulus": "<p id=\"stim\">ROD</p>", "key_press": -1, "type": "PRES_VIS", "word": "rod", "wordID": 1202, "conditions": [12, 1600, "v", 24000], "trial": 2, "serialpos": 8, "trial_type": "single-stim", "trial_index": 97, "time_elapsed": 491845, "internal_node_id": "0.0-70.0"}}, {"uniqueid": "MTK0892:3R6BYFZZP8J3AY6DFS7W8GUKI0WXFI", "current_trial": 98, "dateTime": 1512864837892, "trialdata": {"rt": -1, "stimulus": "<p id=\"stim\">PLIERS</p>", "key_press": -1, "type": "PRES_VIS", "word": "pliers", "wordID": 1088, "conditions": [12, 1600, "v", 24000], "trial": 2, "serialpos": 9, "trial_type": "single-stim", "trial_index": 98, "time_elapsed": 494400, "internal_node_id": "0.0-71.0"}}, {"uniqueid": "MTK0892:3R6BYFZZP8J3AY6DFS7W8GUKI0WXFI", "current_trial": 99, "dateTime": 1512864840602, "trialdata": {"rt": -1, "stimulus": "<p id=\"stim\">TWEEZERS</p>", "key_press": -1, "type": "PRES_VIS", "word": "tweezers", "wordID": 1525, "conditions": [12, 1600, "v", 24000], "trial": 2, "serialpos": 10, "trial_type": "single-stim", "trial_index": 99, "time_elapsed": 497109, "internal_node_id": "0.0-72.0"}}, {"uniqueid": "MTK0892:3R6BYFZZP8J3AY6DFS7W8GUKI0WXFI", "current_trial": 100, "dateTime": 1512864843052, "trialdata": {"rt": -1, "stimulus": "<p id=\"stim\">NOTEBOOK</p>", "key_press": -1, "type": "PRES_VIS", "word": "notebook", "wordID": 958, "conditions": [12, 1600, "v", 24000], "trial": 2, "serialpos": 11, "trial_type": "single-stim", "trial_index": 100, "time_elapsed": 499560, "internal_node_id": "0.0-73.0"}}, {"uniqueid": "MTK0892:3R6BYFZZP8J3AY6DFS7W8GUKI0WXFI", "current_trial": 101, "dateTime": 1512864845613, "trialdata": {"rt": -1, "stimulus": "", "key_press": -1, "type": "PRE_RECALL_DELAY", "trial_type": "single-stim", "trial_index": 101, "time_elapsed": 502121, "internal_node_id": "0.0-74.0-0.0"}}, {"uniqueid": "MTK0892:3R6BYFZZP8J3AY6DFS7W8GUKI0WXFI", "current_trial": 102, "dateTime": 1512864846124, "trialdata": {"rt": -1000, "stimulus": "/static/audio/400Hz.wav", "key_press": -1, "type": "PRE_RECALL_ALERT", "trial_type": "single-audio", "trial_index": 102, "time_elapsed": 502632, "internal_node_id": "0.0-75.0"}}, {"uniqueid": "MTK0892:3R6BYFZZP8J3AY6DFS7W8GUKI0WXFI", "current_trial": 103, "dateTime": 1512864906134, "trialdata": {"rt": [1858, 2950, 8032, 11367, 17966, 57952], "recwords": ["notebook", "camel", "student", "tweezer", "fireplace", "donkey"], "type": "FREE_RECALL", "conditions": [12, 1600, "v", 24000], "trial": 2, "trial_type": "free-recall", "trial_index": 103, "time_elapsed": 562637, "internal_node_id": "0.0-76.0-0.0"}}, {"uniqueid": "MTK0892:3R6BYFZZP8J3AY6DFS7W8GUKI0WXFI", "current_trial": 104, "dateTime": 1512864909290, "trialdata": {"rt": 1153, "key_press": 32, "type": "INSTRUCTIONS", "trial_type": "text", "trial_index": 104, "time_elapsed": 565797, "internal_node_id": "0.0-77.0"}}, {"uniqueid": "MTK0892:3R6BYFZZP8J3AY6DFS7W8GUKI0WXFI", "current_trial": 105, "dateTime": 1512864923294, "trialdata": {"rt": [4124, 8659, 9820], "responses": ["18", "15", "15"], "num1": [5, 4, 2, 9], "num2": [7, 2, 4, 4], "num3": [6, 9, 9, 8], "type": "DISTRACTOR", "conditions": [12, 1600, "a", 12000], "trial": 3, "trial_type": "math-distractor", "trial_index": 105, "time_elapsed": 579802, "internal_node_id": "0.0-78.0"}}, {"uniqueid": "MTK0892:3R6BYFZZP8J3AY6DFS7W8GUKI0WXFI", "current_trial": 106, "dateTime": 1512864926298, "trialdata": {"rt": -1, "stimulus": "<p id=\"stim\">10</p>", "key_press": -1, "trial_type": "single-stim", "trial_index": 106, "time_elapsed": 582806, "internal_node_id": "0.0-79.0-0.0"}}, {"uniqueid": "MTK0892:3R6BYFZZP8J3AY6DFS7W8GUKI0WXFI", "current_trial": 107, "dateTime": 1512864927300, "trialdata": {"rt": -1, "stimulus": "<p id=\"stim\">9</p>", "key_press": -1, "trial_type": "single-stim", "trial_index": 107, "time_elapsed": 583808, "internal_node_id": "0.0-79.0-1.0"}}, {"uniqueid": "MTK0892:3R6BYFZZP8J3AY6DFS7W8GUKI0WXFI", "current_trial": 108, "dateTime": 1512864928302, "trialdata": {"rt": -1, "stimulus": "<p id=\"stim\">8</p>", "key_press": -1, "trial_type": "single-stim", "trial_index": 108, "time_elapsed": 584810, "internal_node_id": "0.0-79.0-2.0"}}, {"uniqueid": "MTK0892:3R6BYFZZP8J3AY6DFS7W8GUKI0WXFI", "current_trial": 109, "dateTime": 1512864929305, "trialdata": {"rt": -1, "stimulus": "<p id=\"stim\">7</p>", "key_press": -1, "trial_type": "single-stim", "trial_index": 109, "time_elapsed": 585813, "internal_node_id": "0.0-79.0-3.0"}}, {"uniqueid": "MTK0892:3R6BYFZZP8J3AY6DFS7W8GUKI0WXFI", "current_trial": 110, "dateTime": 1512864930307, "trialdata": {"rt": -1, "stimulus": "<p id=\"stim\">6</p>", "key_press": -1, "trial_type": "single-stim", "trial_index": 110, "time_elapsed": 586814, "internal_node_id": "0.0-79.0-4.0"}}, {"uniqueid": "MTK0892:3R6BYFZZP8J3AY6DFS7W8GUKI0WXFI", "current_trial": 111, "dateTime": 1512864931309, "trialdata": {"rt": -1, "stimulus": "<p id=\"stim\">5</p>", "key_press": -1, "trial_type": "single-stim", "trial_index": 111, "time_elapsed": 587817, "internal_node_id": "0.0-79.0-5.0"}}, {"uniqueid": "MTK0892:3R6BYFZZP8J3AY6DFS7W8GUKI0WXFI", "current_trial": 112, "dateTime": 1512864932311, "trialdata": {"rt": -1, "stimulus": "<p id=\"stim\">4</p>", "key_press": -1, "trial_type": "single-stim", "trial_index": 112, "time_elapsed": 588819, "internal_node_id": "0.0-79.0-6.0"}}, {"uniqueid": "MTK0892:3R6BYFZZP8J3AY6DFS7W8GUKI0WXFI", "current_trial": 113, "dateTime": 1512864933315, "trialdata": {"rt": -1, "stimulus": "<p id=\"stim\">3</p>", "key_press": -1, "trial_type": "single-stim", "trial_index": 113, "time_elapsed": 589822, "internal_node_id": "0.0-79.0-7.0"}}, {"uniqueid": "MTK0892:3R6BYFZZP8J3AY6DFS7W8GUKI0WXFI", "current_trial": 114, "dateTime": 1512864934318, "trialdata": {"rt": -1, "stimulus": "<p id=\"stim\">2</p>", "key_press": -1, "trial_type": "single-stim", "trial_index": 114, "time_elapsed": 590825, "internal_node_id": "0.0-79.0-8.0"}}, {"uniqueid": "MTK0892:3R6BYFZZP8J3AY6DFS7W8GUKI0WXFI", "current_trial": 115, "dateTime": 1512864935321, "trialdata": {"rt": -1, "stimulus": "<p id=\"stim\">1</p>", "key_press": -1, "trial_type": "single-stim", "trial_index": 115, "time_elapsed": 591829, "internal_node_id": "0.0-79.0-9.0"}}, {"uniqueid": "MTK0892:3R6BYFZZP8J3AY6DFS7W8GUKI0WXFI", "current_trial": 116, "dateTime": 1512864936823, "trialdata": {"rt": -1, "stimulus": "<p id=\"stim\">+</p>", "key_press": -1, "type": "FIXATION", "trial_type": "single-stim", "trial_index": 116, "time_elapsed": 593331, "internal_node_id": "0.0-80.0-0.0"}}, {"uniqueid": "MTK0892:3R6BYFZZP8J3AY6DFS7W8GUKI0WXFI", "current_trial": 117, "dateTime": 1512864939306, "trialdata": {"rt": -1000, "stimulus": "/static/audio/wordpool/MONEY.wav", "key_press": -1, "type": "PRES_AUD", "word": "money", "wordID": 907, "conditions": [12, 1600, "a", 12000], "trial": 3, "serialpos": 0, "trial_type": "single-audio", "trial_index": 117, "time_elapsed": 595814, "internal_node_id": "0.0-81.0"}}, {"uniqueid": "MTK0892:3R6BYFZZP8J3AY6DFS7W8GUKI0WXFI", "current_trial": 118, "dateTime": 1512864942100, "trialdata": {"rt": -1000, "stimulus": "/static/audio/wordpool/CATTLE.wav", "key_press": -1, "type": "PRES_AUD", "word": "cattle", "wordID": 260, "conditions": [12, 1600, "a", 12000], "trial": 3, "serialpos": 1, "trial_type": "single-audio", "trial_index": 118, "time_elapsed": 598608, "internal_node_id": "0.0-82.0"}}, {"uniqueid": "MTK0892:3R6BYFZZP8J3AY6DFS7W8GUKI0WXFI", "current_trial": 119, "dateTime": 1512864944568, "trialdata": {"rt": -1000, "stimulus": "/static/audio/wordpool/CREATURE.wav", "key_press": -1, "type": "PRES_AUD", "word": "creature", "wordID": 402, "conditions": [12, 1600, "a", 12000], "trial": 3, "serialpos": 2, "trial_type": "single-audio", "trial_index": 119, "time_elapsed": 601076, "internal_node_id": "0.0-83.0"}}, {"uniqueid": "MTK0892:3R6BYFZZP8J3AY6DFS7W8GUKI0WXFI", "current_trial": 120, "dateTime": 1512864947145, "trialdata": {"rt": -1000, "stimulus": "/static/audio/wordpool/WRIST.wav", "key_press": -1, "type": "PRES_AUD", "word": "wrist", "wordID": 1625, "conditions": [12, 1600, "a", 12000], "trial": 3, "serialpos": 3, "trial_type": "single-audio", "trial_index": 120, "time_elapsed": 603653, "internal_node_id": "0.0-84.0"}}, {"uniqueid": "MTK0892:3R6BYFZZP8J3AY6DFS7W8GUKI0WXFI", "current_trial": 121, "dateTime": 1512864949561, "trialdata": {"rt": -1000, "stimulus": "/static/audio/wordpool/ASIA.wav", "key_press": -1, "type": "PRES_AUD", "word": "asia", "wordID": 45, "conditions": [12, 1600, "a", 12000], "trial": 3, "serialpos": 4, "trial_type": "single-audio", "trial_index": 121, "time_elapsed": 606069, "internal_node_id": "0.0-85.0"}}, {"uniqueid": "MTK0892:3R6BYFZZP8J3AY6DFS7W8GUKI0WXFI", "current_trial": 122, "dateTime": 1512864952353, "trialdata": {"rt": -1000, "stimulus": "/static/audio/wordpool/EUROPE.wav", "key_press": -1, "type": "PRES_AUD", "word": "europe", "wordID": 540, "conditions": [12, 1600, "a", 12000], "trial": 3, "serialpos": 5, "trial_type": "single-audio", "trial_index": 122, "time_elapsed": 608861, "internal_node_id": "0.0-86.0"}}, {"uniqueid": "MTK0892:3R6BYFZZP8J3AY6DFS7W8GUKI0WXFI", "current_trial": 123, "dateTime": 1512864954955, "trialdata": {"rt": -1000, "stimulus": "/static/audio/wordpool/KLEENEX.wav", "key_press": -1, "type": "PRES_AUD", "word": "kleenex", "wordID": 781, "conditions": [12, 1600, "a", 12000], "trial": 3, "serialpos": 6, "trial_type": "single-audio", "trial_index": 123, "time_elapsed": 611463, "internal_node_id": "0.0-87.0"}}, {"uniqueid": "MTK0892:3R6BYFZZP8J3AY6DFS7W8GUKI0WXFI", "current_trial": 124, "dateTime": 1512864957402, "trialdata": {"rt": -1000, "stimulus": "/static/audio/wordpool/DIVER.wav", "key_press": -1, "type": "PRES_AUD", "word": "diver", "wordID": 475, "conditions": [12, 1600, "a", 12000], "trial": 3, "serialpos": 7, "trial_type": "single-audio", "trial_index": 124, "time_elapsed": 613910, "internal_node_id": "0.0-88.0"}}, {"uniqueid": "MTK0892:3R6BYFZZP8J3AY6DFS7W8GUKI0WXFI", "current_trial": 125, "dateTime": 1512864960156, "trialdata": {"rt": -1000, "stimulus": "/static/audio/wordpool/NOMAD.wav", "key_press": -1, "type": "PRES_AUD", "word": "nomad", "wordID": 954, "conditions": [12, 1600, "a", 12000], "trial": 3, "serialpos": 8, "trial_type": "single-audio", "trial_index": 125, "time_elapsed": 616663, "internal_node_id": "0.0-89.0"}}, {"uniqueid": "MTK0892:3R6BYFZZP8J3AY6DFS7W8GUKI0WXFI", "current_trial": 126, "dateTime": 1512864962664, "trialdata": {"rt": -1000, "stimulus": "/static/audio/wordpool/FLUTE.wav", "key_press": -1, "type": "PRES_AUD", "word": "flute", "wordID": 584, "conditions": [12, 1600, "a", 12000], "trial": 3, "serialpos": 9, "trial_type": "single-audio", "trial_index": 126, "time_elapsed": 619172, "internal_node_id": "0.0-90.0"}}, {"uniqueid": "MTK0892:3R6BYFZZP8J3AY6DFS7W8GUKI0WXFI", "current_trial": 127, "dateTime": 1512864965293, "trialdata": {"rt": -1000, "stimulus": "/static/audio/wordpool/HOUND.wav", "key_press": -1, "type": "PRES_AUD", "word": "hound", "wordID": 723, "conditions": [12, 1600, "a", 12000], "trial": 3, "serialpos": 10, "trial_type": "single-audio", "trial_index": 127, "time_elapsed": 621801, "internal_node_id": "0.0-91.0"}}, {"uniqueid": "MTK0892:3R6BYFZZP8J3AY6DFS7W8GUKI0WXFI", "current_trial": 128, "dateTime": 1512864968000, "trialdata": {"rt": -1000, "stimulus": "/static/audio/wordpool/BISON.wav", "key_press": -1, "type": "PRES_AUD", "word": "bison", "wordID": 130, "conditions": [12, 1600, "a", 12000], "trial": 3, "serialpos": 11, "trial_type": "single-audio", "trial_index": 128, "time_elapsed": 624508, "internal_node_id": "0.0-92.0"}}, {"uniqueid": "MTK0892:3R6BYFZZP8J3AY6DFS7W8GUKI0WXFI", "current_trial": 129, "dateTime": 1512864969336, "trialdata": {"rt": -1, "stimulus": "", "key_press": -1, "type": "PRE_RECALL_DELAY", "trial_type": "single-stim", "trial_index": 129, "time_elapsed": 625844, "internal_node_id": "0.0-93.0-0.0"}}, {"uniqueid": "MTK0892:3R6BYFZZP8J3AY6DFS7W8GUKI0WXFI", "current_trial": 130, "dateTime": 1512864969839, "trialdata": {"rt": -1000, "stimulus": "/static/audio/400Hz.wav", "key_press": -1, "type": "PRE_RECALL_ALERT", "trial_type": "single-audio", "trial_index": 130, "time_elapsed": 626346, "internal_node_id": "0.0-94.0"}}, {"uniqueid": "MTK0892:3R6BYFZZP8J3AY6DFS7W8GUKI0WXFI", "current_trial": 131, "dateTime": 1512865029847, "trialdata": {"rt": [1041, 3080, 4116, 5822, 7387, 8838, 10427, 22298], "recwords": ["houd", "hound", "bison", "nomad", "asia", "europe", "wrist", "flute"], "type": "FREE_RECALL", "conditions": [12, 1600, "a", 12000], "trial": 3, "trial_type": "free-recall", "trial_index": 131, "time_elapsed": 686352, "internal_node_id": "0.0-95.0-0.0"}}, {"uniqueid": "MTK0892:3R6BYFZZP8J3AY6DFS7W8GUKI0WXFI", "current_trial": 132, "dateTime": 1512865043947, "trialdata": {"rt": 12098, "key_press": 32, "type": "INSTRUCTIONS", "trial_type": "text", "trial_index": 132, "time_elapsed": 700455, "internal_node_id": "0.0-96.0"}}, {"uniqueid": "MTK0892:3R6BYFZZP8J3AY6DFS7W8GUKI0WXFI", "current_trial": 133, "dateTime": 1512865069953, "trialdata": {"rt": [2360, 6204, 8273, 10581, 13120, 14614, 17455, 19226, 23018], "responses": ["16", "25", "12", "16", "16", "10", "11", "12", "26"], "num1": [9, 9, 3, 4, 9, 1, 2, 4, 9, 8], "num2": [6, 9, 5, 9, 2, 5, 4, 5, 9, 3], "num3": [4, 7, 4, 3, 5, 4, 5, 3, 8, 7], "type": "DISTRACTOR", "conditions": [24, 1600, "v", 24000], "trial": 4, "trial_type": "math-distractor", "trial_index": 133, "time_elapsed": 726461, "internal_node_id": "0.0-97.0"}}, {"uniqueid": "MTK0892:3R6BYFZZP8J3AY6DFS7W8GUKI0WXFI", "current_trial": 134, "dateTime": 1512865072956, "trialdata": {"rt": -1, "stimulus": "<p id=\"stim\">10</p>", "key_press": -1, "trial_type": "single-stim", "trial_index": 134, "time_elapsed": 729464, "internal_node_id": "0.0-98.0-0.0"}}, {"uniqueid": "MTK0892:3R6BYFZZP8J3AY6DFS7W8GUKI0WXFI", "current_trial": 135, "dateTime": 1512865073959, "trialdata": {"rt": -1, "stimulus": "<p id=\"stim\">9</p>", "key_press": -1, "trial_type": "single-stim", "trial_index": 135, "time_elapsed": 730466, "internal_node_id": "0.0-98.0-1.0"}}, {"uniqueid": "MTK0892:3R6BYFZZP8J3AY6DFS7W8GUKI0WXFI", "current_trial": 136, "dateTime": 1512865074959, "trialdata": {"rt": -1, "stimulus": "<p id=\"stim\">8</p>", "key_press": -1, "trial_type": "single-stim", "trial_index": 136, "time_elapsed": 731467, "internal_node_id": "0.0-98.0-2.0"}}, {"uniqueid": "MTK0892:3R6BYFZZP8J3AY6DFS7W8GUKI0WXFI", "current_trial": 137, "dateTime": 1512865075962, "trialdata": {"rt": -1, "stimulus": "<p id=\"stim\">7</p>", "key_press": -1, "trial_type": "single-stim", "trial_index": 137, "time_elapsed": 732470, "internal_node_id": "0.0-98.0-3.0"}}, {"uniqueid": "MTK0892:3R6BYFZZP8J3AY6DFS7W8GUKI0WXFI", "current_trial": 138, "dateTime": 1512865076966, "trialdata": {"rt": -1, "stimulus": "<p id=\"stim\">6</p>", "key_press": -1, "trial_type": "single-stim", "trial_index": 138, "time_elapsed": 733474, "internal_node_id": "0.0-98.0-4.0"}}, {"uniqueid": "MTK0892:3R6BYFZZP8J3AY6DFS7W8GUKI0WXFI", "current_trial": 139, "dateTime": 1512865077968, "trialdata": {"rt": -1, "stimulus": "<p id=\"stim\">5</p>", "key_press": -1, "trial_type": "single-stim", "trial_index": 139, "time_elapsed": 734475, "internal_node_id": "0.0-98.0-5.0"}}, {"uniqueid": "MTK0892:3R6BYFZZP8J3AY6DFS7W8GUKI0WXFI", "current_trial": 140, "dateTime": 1512865078970, "trialdata": {"rt": -1, "stimulus": "<p id=\"stim\">4</p>", "key_press": -1, "trial_type": "single-stim", "trial_index": 140, "time_elapsed": 735478, "internal_node_id": "0.0-98.0-6.0"}}, {"uniqueid": "MTK0892:3R6BYFZZP8J3AY6DFS7W8GUKI0WXFI", "current_trial": 141, "dateTime": 1512865079973, "trialdata": {"rt": -1, "stimulus": "<p id=\"stim\">3</p>", "key_press": -1, "trial_type": "single-stim", "trial_index": 141, "time_elapsed": 736480, "internal_node_id": "0.0-98.0-7.0"}}, {"uniqueid": "MTK0892:3R6BYFZZP8J3AY6DFS7W8GUKI0WXFI", "current_trial": 142, "dateTime": 1512865080975, "trialdata": {"rt": -1, "stimulus": "<p id=\"stim\">2</p>", "key_press": -1, "trial_type": "single-stim", "trial_index": 142, "time_elapsed": 737482, "internal_node_id": "0.0-98.0-8.0"}}, {"uniqueid": "MTK0892:3R6BYFZZP8J3AY6DFS7W8GUKI0WXFI", "current_trial": 143, "dateTime": 1512865081977, "trialdata": {"rt": -1, "stimulus": "<p id=\"stim\">1</p>", "key_press": -1, "trial_type": "single-stim", "trial_index": 143, "time_elapsed": 738484, "internal_node_id": "0.0-98.0-9.0"}}, {"uniqueid": "MTK0892:3R6BYFZZP8J3AY6DFS7W8GUKI0WXFI", "current_trial": 144, "dateTime": 1512865083478, "trialdata": {"rt": -1, "stimulus": "<p id=\"stim\">+</p>", "key_press": -1, "type": "FIXATION", "trial_type": "single-stim", "trial_index": 144, "time_elapsed": 739986, "internal_node_id": "0.0-99.0-0.0"}}, {"uniqueid": "MTK0892:3R6BYFZZP8J3AY6DFS7W8GUKI0WXFI", "current_trial": 145, "dateTime": 1512865085081, "trialdata": {"rt": -1, "stimulus": "<p id=\"stim\">BANK</p>", "key_press": -1, "type": "PRES_VIS", "word": "bank", "wordID": 82, "conditions": [24, 1600, "v", 24000], "trial": 4, "serialpos": 0, "trial_type": "single-stim", "trial_index": 145, "time_elapsed": 741589, "internal_node_id": "0.0-100.0"}}, {"uniqueid": "MTK0892:3R6BYFZZP8J3AY6DFS7W8GUKI0WXFI", "current_trial": 146, "dateTime": 1512865087485, "trialdata": {"rt": -1, "stimulus": "<p id=\"stim\">BANKER</p>", "key_press": -1, "type": "PRES_VIS", "word": "banker", "wordID": 83, "conditions": [24, 1600, "v", 24000], "trial": 4, "serialpos": 1, "trial_type": "single-stim", "trial_index": 146, "time_elapsed": 743993, "internal_node_id": "0.0-101.0"}}, {"uniqueid": "MTK0892:3R6BYFZZP8J3AY6DFS7W8GUKI0WXFI", "current_trial": 147, "dateTime": 1512865090183, "trialdata": {"rt": -1, "stimulus": "<p id=\"stim\">MARS</p>", "key_press": -1, "type": "PRES_VIS", "word": "mars", "wordID": 872, "conditions": [24, 1600, "v", 24000], "trial": 4, "serialpos": 2, "trial_type": "single-stim", "trial_index": 147, "time_elapsed": 746691, "internal_node_id": "0.0-102.0"}}, {"uniqueid": "MTK0892:3R6BYFZZP8J3AY6DFS7W8GUKI0WXFI", "current_trial": 148, "dateTime": 1512865092880, "trialdata": {"rt": -1, "stimulus": "<p id=\"stim\">PENGUIN</p>", "key_press": -1, "type": "PRES_VIS", "word": "penguin", "wordID": 1043, "conditions": [24, 1600, "v", 24000], "trial": 4, "serialpos": 3, "trial_type": "single-stim", "trial_index": 148, "time_elapsed": 749387, "internal_node_id": "0.0-103.0"}}, {"uniqueid": "MTK0892:3R6BYFZZP8J3AY6DFS7W8GUKI0WXFI", "current_trial": 149, "dateTime": 1512865095466, "trialdata": {"rt": -1, "stimulus": "<p id=\"stim\">ICEBERG</p>", "key_press": -1, "type": "PRES_VIS", "word": "iceberg", "wordID": 730, "conditions": [24, 1600, "v", 24000], "trial": 4, "serialpos": 4, "trial_type": "single-stim", "trial_index": 149, "time_elapsed": 751973, "internal_node_id": "0.0-104.0"}}, {"uniqueid": "MTK0892:3R6BYFZZP8J3AY6DFS7W8GUKI0WXFI", "current_trial": 150, "dateTime": 1512865098135, "trialdata": {"rt": -1, "stimulus": "<p id=\"stim\">DAUGHTER</p>", "key_press": -1, "type": "PRES_VIS", "word": "daughter", "wordID": 441, "conditions": [24, 1600, "v", 24000], "trial": 4, "serialpos": 5, "trial_type": "single-stim", "trial_index": 150, "time_elapsed": 754643, "internal_node_id": "0.0-105.0"}}, {"uniqueid": "MTK0892:3R6BYFZZP8J3AY6DFS7W8GUKI0WXFI", "current_trial": 151, "dateTime": 1512865100592, "trialdata": {"rt": -1, "stimulus": "<p id=\"stim\">BUGGY</p>", "key_press": -1, "type": "PRES_VIS", "word": "buggy", "wordID": 187, "conditions": [24, 1600, "v", 24000], "trial": 4, "serialpos": 6, "trial_type": "single-stim", "trial_index": 151, "time_elapsed": 757099, "internal_node_id": "0.0-106.0"}}, {"uniqueid": "MTK0892:3R6BYFZZP8J3AY6DFS7W8GUKI0WXFI", "current_trial": 152, "dateTime": 1512865103373, "trialdata": {"rt": -1, "stimulus": "<p id=\"stim\">SIDEWALK</p>", "key_press": -1, "type": "PRES_VIS", "word": "sidewalk", "wordID": 1302, "conditions": [24, 1600, "v", 24000], "trial": 4, "serialpos": 7, "trial_type": "single-stim", "trial_index": 152, "time_elapsed": 759881, "internal_node_id": "0.0-107.0"}}, {"uniqueid": "MTK0892:3R6BYFZZP8J3AY6DFS7W8GUKI0WXFI", "current_trial": 153, "dateTime": 1512865106097, "trialdata": {"rt": -1, "stimulus": "<p id=\"stim\">SLIDE</p>", "key_press": -1, "type": "PRES_VIS", "word": "slide", "wordID": 1325, "conditions": [24, 1600, "v", 24000], "trial": 4, "serialpos": 8, "trial_type": "single-stim", "trial_index": 153, "time_elapsed": 762604, "internal_node_id": "0.0-108.0"}}, {"uniqueid": "MTK0892:3R6BYFZZP8J3AY6DFS7W8GUKI0WXFI", "current_trial": 154, "dateTime": 1512865108675, "trialdata": {"rt": -1, "stimulus": "<p id=\"stim\">WIDOW</p>", "key_press": -1, "type": "PRES_VIS", "word": "widow", "wordID": 1607, "conditions": [24, 1600, "v", 24000], "trial": 4, "serialpos": 9, "trial_type": "single-stim", "trial_index": 154, "time_elapsed": 765182, "internal_node_id": "0.0-109.0"}}, {"uniqueid": "MTK0892:3R6BYFZZP8J3AY6DFS7W8GUKI0WXFI", "current_trial": 155, "dateTime": 1512865111395, "trialdata": {"rt": -1, "stimulus": "<p id=\"stim\">LAMP</p>", "key_press": -1, "type": "PRES_VIS", "word": "lamp", "wordID": 797, "conditions": [24, 1600, "v", 24000], "trial": 4, "serialpos": 10, "trial_type": "single-stim", "trial_index": 155, "time_elapsed": 767902, "internal_node_id": "0.0-110.0"}}, {"uniqueid": "MTK0892:3R6BYFZZP8J3AY6DFS7W8GUKI0WXFI", "current_trial": 156, "dateTime": 1512865114072, "trialdata": {"rt": -1, "stimulus": "<p id=\"stim\">RECORD</p>", "key_press": -1, "type": "PRES_VIS", "word": "record", "wordID": 1175, "conditions": [24, 1600, "v", 24000], "trial": 4, "serialpos": 11, "trial_type": "single-stim", "trial_index": 156, "time_elapsed": 770580, "internal_node_id": "0.0-111.0"}}, {"uniqueid": "MTK0892:3R6BYFZZP8J3AY6DFS7W8GUKI0WXFI", "current_trial": 157, "dateTime": 1512865116658, "trialdata": {"rt": -1, "stimulus": "<p id=\"stim\">RABBIT</p>", "key_press": -1, "type": "PRES_VIS", "word": "rabbit", "wordID": 1151, "conditions": [24, 1600, "v", 24000], "trial": 4, "serialpos": 12, "trial_type": "single-stim", "trial_index": 157, "time_elapsed": 773165, "internal_node_id": "0.0-112.0"}}, {"uniqueid": "MTK0892:3R6BYFZZP8J3AY6DFS7W8GUKI0WXFI", "current_trial": 158, "dateTime": 1512865119371, "trialdata": {"rt": -1, "stimulus": "<p id=\"stim\">PISTON</p>", "key_press": -1, "type": "PRES_VIS", "word": "piston", "wordID": 1075, "conditions": [24, 1600, "v", 24000], "trial": 4, "serialpos": 13, "trial_type": "single-stim", "trial_index": 158, "time_elapsed": 775879, "internal_node_id": "0.0-113.0"}}, {"uniqueid": "MTK0892:3R6BYFZZP8J3AY6DFS7W8GUKI0WXFI", "current_trial": 159, "dateTime": 1512865122124, "trialdata": {"rt": -1, "stimulus": "<p id=\"stim\">PISTOL</p>", "key_press": -1, "type": "PRES_VIS", "word": "pistol", "wordID": 1074, "conditions": [24, 1600, "v", 24000], "trial": 4, "serialpos": 14, "trial_type": "single-stim", "trial_index": 159, "time_elapsed": 778631, "internal_node_id": "0.0-114.0"}}, {"uniqueid": "MTK0892:3R6BYFZZP8J3AY6DFS7W8GUKI0WXFI", "current_trial": 160, "dateTime": 1512865124867, "trialdata": {"rt": -1, "stimulus": "<p id=\"stim\">WINDOW</p>", "key_press": -1, "type": "PRES_VIS", "word": "window", "wordID": 1610, "conditions": [24, 1600, "v", 24000], "trial": 4, "serialpos": 15, "trial_type": "single-stim", "trial_index": 160, "time_elapsed": 781375, "internal_node_id": "0.0-115.0"}}, {"uniqueid": "MTK0892:3R6BYFZZP8J3AY6DFS7W8GUKI0WXFI", "current_trial": 161, "dateTime": 1512865127531, "trialdata": {"rt": -1, "stimulus": "<p id=\"stim\">JUGGLER</p>", "key_press": -1, "type": "PRES_VIS", "word": "juggler", "wordID": 762, "conditions": [24, 1600, "v", 24000], "trial": 4, "serialpos": 16, "trial_type": "single-stim", "trial_index": 161, "time_elapsed": 784039, "internal_node_id": "0.0-116.0"}}, {"uniqueid": "MTK0892:3R6BYFZZP8J3AY6DFS7W8GUKI0WXFI", "current_trial": 162, "dateTime": 1512865130128, "trialdata": {"rt": -1, "stimulus": "<p id=\"stim\">CLAMP</p>", "key_press": -1, "type": "PRES_VIS", "word": "clamp", "wordID": 315, "conditions": [24, 1600, "v", 24000], "trial": 4, "serialpos": 17, "trial_type": "single-stim", "trial_index": 162, "time_elapsed": 786635, "internal_node_id": "0.0-117.0"}}, {"uniqueid": "MTK0892:3R6BYFZZP8J3AY6DFS7W8GUKI0WXFI", "current_trial": 163, "dateTime": 1512865132755, "trialdata": {"rt": -1, "stimulus": "<p id=\"stim\">LILY</p>", "key_press": -1, "type": "PRES_VIS", "word": "lily", "wordID": 820, "conditions": [24, 1600, "v", 24000], "trial": 4, "serialpos": 18, "trial_type": "single-stim", "trial_index": 163, "time_elapsed": 789262, "internal_node_id": "0.0-118.0"}}, {"uniqueid": "MTK0892:3R6BYFZZP8J3AY6DFS7W8GUKI0WXFI", "current_trial": 164, "dateTime": 1512865135491, "trialdata": {"rt": -1, "stimulus": "<p id=\"stim\">TURTLE</p>", "key_press": -1, "type": "PRES_VIS", "word": "turtle", "wordID": 1521, "conditions": [24, 1600, "v", 24000], "trial": 4, "serialpos": 19, "trial_type": "single-stim", "trial_index": 164, "time_elapsed": 791998, "internal_node_id": "0.0-119.0"}}, {"uniqueid": "MTK0892:3R6BYFZZP8J3AY6DFS7W8GUKI0WXFI", "current_trial": 165, "dateTime": 1512865138268, "trialdata": {"rt": -1, "stimulus": "<p id=\"stim\">LACE</p>", "key_press": -1, "type": "PRES_VIS", "word": "lace", "wordID": 791, "conditions": [24, 1600, "v", 24000], "trial": 4, "serialpos": 20, "trial_type": "single-stim", "trial_index": 165, "time_elapsed": 794776, "internal_node_id": "0.0-120.0"}}, {"uniqueid": "MTK0892:3R6BYFZZP8J3AY6DFS7W8GUKI0WXFI", "current_trial": 166, "dateTime": 1512865140841, "trialdata": {"rt": -1, "stimulus": "<p id=\"stim\">PLAID</p>", "key_press": -1, "type": "PRES_VIS", "word": "plaid", "wordID": 1079, "conditions": [24, 1600, "v", 24000], "trial": 4, "serialpos": 21, "trial_type": "single-stim", "trial_index": 166, "time_elapsed": 797348, "internal_node_id": "0.0-121.0"}}, {"uniqueid": "MTK0892:3R6BYFZZP8J3AY6DFS7W8GUKI0WXFI", "current_trial": 167, "dateTime": 1512865143258, "trialdata": {"rt": -1, "stimulus": "<p id=\"stim\">VALVE</p>", "key_press": -1, "type": "PRES_VIS", "word": "valve", "wordID": 1545, "conditions": [24, 1600, "v", 24000], "trial": 4, "serialpos": 22, "trial_type": "single-stim", "trial_index": 167, "time_elapsed": 799765, "internal_node_id": "0.0-122.0"}}, {"uniqueid": "MTK0892:3R6BYFZZP8J3AY6DFS7W8GUKI0WXFI", "current_trial": 168, "dateTime": 1512865145704, "trialdata": {"rt": -1, "stimulus": "<p id=\"stim\">GIRL</p>", "key_press": -1, "type": "PRES_VIS", "word": "girl", "wordID": 636, "conditions": [24, 1600, "v", 24000], "trial": 4, "serialpos": 23, "trial_type": "single-stim", "trial_index": 168, "time_elapsed": 802211, "internal_node_id": "0.0-123.0"}}, {"uniqueid": "MTK0892:3R6BYFZZP8J3AY6DFS7W8GUKI0WXFI", "current_trial": 169, "dateTime": 1512865147900, "trialdata": {"rt": -1, "stimulus": "", "key_press": -1, "type": "PRE_RECALL_DELAY", "trial_type": "single-stim", "trial_index": 169, "time_elapsed": 804408, "internal_node_id": "0.0-124.0-0.0"}}, {"uniqueid": "MTK0892:3R6BYFZZP8J3AY6DFS7W8GUKI0WXFI", "current_trial": 170, "dateTime": 1512865148407, "trialdata": {"rt": -1000, "stimulus": "/static/audio/400Hz.wav", "key_press": -1, "type": "PRE_RECALL_ALERT", "trial_type": "single-audio", "trial_index": 170, "time_elapsed": 804914, "internal_node_id": "0.0-125.0"}}, {"uniqueid": "MTK0892:3R6BYFZZP8J3AY6DFS7W8GUKI0WXFI", "current_trial": 171, "dateTime": 1512865208416, "trialdata": {"rt": [1973, 2848, 4779, 6343, 7648, 11506, 21051, 32993], "recwords": ["valve", "girl", "pistol", "piston", "slide", "window", "girl", "bicycle"], "type": "FREE_RECALL", "conditions": [24, 1600, "v", 24000], "trial": 4, "trial_type": "free-recall", "trial_index": 171, "time_elapsed": 864919, "internal_node_id": "0.0-126.0-0.0"}}, {"uniqueid": "MTK0892:3R6BYFZZP8J3AY6DFS7W8GUKI0WXFI", "current_trial": 172, "dateTime": 1512865228967, "trialdata": {"rt": 18548, "key_press": 32, "type": "INSTRUCTIONS", "trial_type": "text", "trial_index": 172, "time_elapsed": 885475, "internal_node_id": "0.0-127.0"}}, {"uniqueid": "MTK0892:3R6BYFZZP8J3AY6DFS7W8GUKI0WXFI", "current_trial": 173, "dateTime": 1512865254972, "trialdata": {"rt": [1718, 3177, 9030, 10346, 11800, 13238, 14850, 17256, 21826, 23715], "responses": ["8", "12", "21", "11", "11", "5", "13", "12", "24", "19"], "num1": [1, 8, 5, 8, 7, 2, 3, 3, 6, 5, 4], "num2": [3, 3, 7, 1, 1, 1, 1, 3, 9, 7, 3], "num3": [4, 1, 9, 2, 3, 2, 9, 6, 9, 7, 7], "type": "DISTRACTOR", "conditions": [24, 800, "v", 24000], "trial": 5, "trial_type": "math-distractor", "trial_index": 173, "time_elapsed": 911480, "internal_node_id": "0.0-128.0"}}, {"uniqueid": "MTK0892:3R6BYFZZP8J3AY6DFS7W8GUKI0WXFI", "current_trial": 174, "dateTime": 1512865257976, "trialdata": {"rt": -1, "stimulus": "<p id=\"stim\">10</p>", "key_press": -1, "trial_type": "single-stim", "trial_index": 174, "time_elapsed": 914483, "internal_node_id": "0.0-129.0-0.0"}}, {"uniqueid": "MTK0892:3R6BYFZZP8J3AY6DFS7W8GUKI0WXFI", "current_trial": 175, "dateTime": 1512865258981, "trialdata": {"rt": -1, "stimulus": "<p id=\"stim\">9</p>", "key_press": -1, "trial_type": "single-stim", "trial_index": 175, "time_elapsed": 915485, "internal_node_id": "0.0-129.0-1.0"}}, {"uniqueid": "MTK0892:3R6BYFZZP8J3AY6DFS7W8GUKI0WXFI", "current_trial": 176, "dateTime": 1512865259984, "trialdata": {"rt": -1, "stimulus": "<p id=\"stim\">8</p>", "key_press": -1, "trial_type": "single-stim", "trial_index": 176, "time_elapsed": 916492, "internal_node_id": "0.0-129.0-2.0"}}, {"uniqueid": "MTK0892:3R6BYFZZP8J3AY6DFS7W8GUKI0WXFI", "current_trial": 177, "dateTime": 1512865260988, "trialdata": {"rt": -1, "stimulus": "<p id=\"stim\">7</p>", "key_press": -1, "trial_type": "single-stim", "trial_index": 177, "time_elapsed": 917495, "internal_node_id": "0.0-129.0-3.0"}}, {"uniqueid": "MTK0892:3R6BYFZZP8J3AY6DFS7W8GUKI0WXFI", "current_trial": 178, "dateTime": 1512865261991, "trialdata": {"rt": -1, "stimulus": "<p id=\"stim\">6</p>", "key_press": -1, "trial_type": "single-stim", "trial_index": 178, "time_elapsed": 918498, "internal_node_id": "0.0-129.0-4.0"}}, {"uniqueid": "MTK0892:3R6BYFZZP8J3AY6DFS7W8GUKI0WXFI", "current_trial": 179, "dateTime": 1512865262992, "trialdata": {"rt": -1, "stimulus": "<p id=\"stim\">5</p>", "key_press": -1, "trial_type": "single-stim", "trial_index": 179, "time_elapsed": 919500, "internal_node_id": "0.0-129.0-5.0"}}, {"uniqueid": "MTK0892:3R6BYFZZP8J3AY6DFS7W8GUKI0WXFI", "current_trial": 180, "dateTime": 1512865263994, "trialdata": {"rt": -1, "stimulus": "<p id=\"stim\">4</p>", "key_press": -1, "trial_type": "single-stim", "trial_index": 180, "time_elapsed": 920502, "internal_node_id": "0.0-129.0-6.0"}}, {"uniqueid": "MTK0892:3R6BYFZZP8J3AY6DFS7W8GUKI0WXFI", "current_trial": 181, "dateTime": 1512865264996, "trialdata": {"rt": -1, "stimulus": "<p id=\"stim\">3</p>", "key_press": -1, "trial_type": "single-stim", "trial_index": 181, "time_elapsed": 921504, "internal_node_id": "0.0-129.0-7.0"}}, {"uniqueid": "MTK0892:3R6BYFZZP8J3AY6DFS7W8GUKI0WXFI", "current_trial": 182, "dateTime": 1512865266000, "trialdata": {"rt": -1, "stimulus": "<p id=\"stim\">2</p>", "key_press": -1, "trial_type": "single-stim", "trial_index": 182, "time_elapsed": 922507, "internal_node_id": "0.0-129.0-8.0"}}, {"uniqueid": "MTK0892:3R6BYFZZP8J3AY6DFS7W8GUKI0WXFI", "current_trial": 183, "dateTime": 1512865267002, "trialdata": {"rt": -1, "stimulus": "<p id=\"stim\">1</p>", "key_press": -1, "trial_type": "single-stim", "trial_index": 183, "time_elapsed": 923509, "internal_node_id": "0.0-129.0-9.0"}}, {"uniqueid": "MTK0892:3R6BYFZZP8J3AY6DFS7W8GUKI0WXFI", "current_trial": 184, "dateTime": 1512865268504, "trialdata": {"rt": -1, "stimulus": "<p id=\"stim\">+</p>", "key_press": -1, "type": "FIXATION", "trial_type": "single-stim", "trial_index": 184, "time_elapsed": 925011, "internal_node_id": "0.0-130.0-0.0"}}, {"uniqueid": "MTK0892:3R6BYFZZP8J3AY6DFS7W8GUKI0WXFI", "current_trial": 185, "dateTime": 1512865269306, "trialdata": {"rt": -1, "stimulus": "<p id=\"stim\">ORANGE</p>", "key_press": -1, "type": "PRES_VIS", "word": "orange", "wordID": 979, "conditions": [24, 800, "v", 24000], "trial": 5, "serialpos": 0, "trial_type": "single-stim", "trial_index": 185, "time_elapsed": 925814, "internal_node_id": "0.0-131.0"}}, {"uniqueid": "MTK0892:3R6BYFZZP8J3AY6DFS7W8GUKI0WXFI", "current_trial": 186, "dateTime": 1512865271137, "trialdata": {"rt": -1, "stimulus": "<p id=\"stim\">CHEST</p>", "key_press": -1, "type": "PRES_VIS", "word": "chest", "wordID": 294, "conditions": [24, 800, "v", 24000], "trial": 5, "serialpos": 1, "trial_type": "single-stim", "trial_index": 186, "time_elapsed": 927644, "internal_node_id": "0.0-132.0"}}, {"uniqueid": "MTK0892:3R6BYFZZP8J3AY6DFS7W8GUKI0WXFI", "current_trial": 187, "dateTime": 1512865272972, "trialdata": {"rt": -1, "stimulus": "<p id=\"stim\">STOMACH</p>", "key_press": -1, "type": "PRES_VIS", "word": "stomach", "wordID": 1383, "conditions": [24, 800, "v", 24000], "trial": 5, "serialpos": 2, "trial_type": "single-stim", "trial_index": 187, "time_elapsed": 929479, "internal_node_id": "0.0-133.0"}}, {"uniqueid": "MTK0892:3R6BYFZZP8J3AY6DFS7W8GUKI0WXFI", "current_trial": 188, "dateTime": 1512865274962, "trialdata": {"rt": -1, "stimulus": "<p id=\"stim\">SUNRISE</p>", "key_press": -1, "type": "PRES_VIS", "word": "sunrise", "wordID": 1406, "conditions": [24, 800, "v", 24000], "trial": 5, "serialpos": 3, "trial_type": "single-stim", "trial_index": 188, "time_elapsed": 931469, "internal_node_id": "0.0-134.0"}}, {"uniqueid": "MTK0892:3R6BYFZZP8J3AY6DFS7W8GUKI0WXFI", "current_trial": 189, "dateTime": 1512865276903, "trialdata": {"rt": -1, "stimulus": "<p id=\"stim\">PUPPY</p>", "key_press": -1, "type": "PRES_VIS", "word": "puppy", "wordID": 1143, "conditions": [24, 800, "v", 24000], "trial": 5, "serialpos": 4, "trial_type": "single-stim", "trial_index": 189, "time_elapsed": 933411, "internal_node_id": "0.0-135.0"}}, {"uniqueid": "MTK0892:3R6BYFZZP8J3AY6DFS7W8GUKI0WXFI", "current_trial": 190, "dateTime": 1512865278543, "trialdata": {"rt": -1, "stimulus": "<p id=\"stim\">FOREHEAD</p>", "key_press": -1, "type": "PRES_VIS", "word": "forehead", "wordID": 591, "conditions": [24, 800, "v", 24000], "trial": 5, "serialpos": 5, "trial_type": "single-stim", "trial_index": 190, "time_elapsed": 935050, "internal_node_id": "0.0-136.0"}}, {"uniqueid": "MTK0892:3R6BYFZZP8J3AY6DFS7W8GUKI0WXFI", "current_trial": 191, "dateTime": 1512865280228, "trialdata": {"rt": -1, "stimulus": "<p id=\"stim\">GRAVE</p>", "key_press": -1, "type": "PRES_VIS", "word": "grave", "wordID": 657, "conditions": [24, 800, "v", 24000], "trial": 5, "serialpos": 6, "trial_type": "single-stim", "trial_index": 191, "time_elapsed": 936736, "internal_node_id": "0.0-137.0"}}, {"uniqueid": "MTK0892:3R6BYFZZP8J3AY6DFS7W8GUKI0WXFI", "current_trial": 192, "dateTime": 1512865282072, "trialdata": {"rt": -1, "stimulus": "<p id=\"stim\">BASEMENT</p>", "key_press": -1, "type": "PRES_VIS", "word": "basement", "wordID": 93, "conditions": [24, 800, "v", 24000], "trial": 5, "serialpos": 7, "trial_type": "single-stim", "trial_index": 192, "time_elapsed": 938579, "internal_node_id": "0.0-138.0"}}, {"uniqueid": "MTK0892:3R6BYFZZP8J3AY6DFS7W8GUKI0WXFI", "current_trial": 193, "dateTime": 1512865283756, "trialdata": {"rt": -1, "stimulus": "<p id=\"stim\">WAITRESS</p>", "key_press": -1, "type": "PRES_VIS", "word": "waitress", "wordID": 1580, "conditions": [24, 800, "v", 24000], "trial": 5, "serialpos": 8, "trial_type": "single-stim", "trial_index": 193, "time_elapsed": 940263, "internal_node_id": "0.0-139.0"}}, {"uniqueid": "MTK0892:3R6BYFZZP8J3AY6DFS7W8GUKI0WXFI", "current_trial": 194, "dateTime": 1512865285573, "trialdata": {"rt": -1, "stimulus": "<p id=\"stim\">SALT</p>", "key_press": -1, "type": "PRES_VIS", "word": "salt", "wordID": 1228, "conditions": [24, 800, "v", 24000], "trial": 5, "serialpos": 9, "trial_type": "single-stim", "trial_index": 194, "time_elapsed": 942080, "internal_node_id": "0.0-140.0"}}, {"uniqueid": "MTK0892:3R6BYFZZP8J3AY6DFS7W8GUKI0WXFI", "current_trial": 195, "dateTime": 1512865287226, "trialdata": {"rt": -1, "stimulus": "<p id=\"stim\">CELLAR</p>", "key_press": -1, "type": "PRES_VIS", "word": "cellar", "wordID": 266, "conditions": [24, 800, "v", 24000], "trial": 5, "serialpos": 10, "trial_type": "single-stim", "trial_index": 195, "time_elapsed": 943733, "internal_node_id": "0.0-141.0"}}, {"uniqueid": "MTK0892:3R6BYFZZP8J3AY6DFS7W8GUKI0WXFI", "current_trial": 196, "dateTime": 1512865288865, "trialdata": {"rt": -1, "stimulus": "<p id=\"stim\">SCOTCH</p>", "key_press": -1, "type": "PRES_VIS", "word": "scotch", "wordID": 1250, "conditions": [24, 800, "v", 24000], "trial": 5, "serialpos": 11, "trial_type": "single-stim", "trial_index": 196, "time_elapsed": 945373, "internal_node_id": "0.0-142.0"}}, {"uniqueid": "MTK0892:3R6BYFZZP8J3AY6DFS7W8GUKI0WXFI", "current_trial": 197, "dateTime": 1512865290698, "trialdata": {"rt": -1, "stimulus": "<p id=\"stim\">DRIVER</p>", "key_press": -1, "type": "PRES_VIS", "word": "driver", "wordID": 498, "conditions": [24, 800, "v", 24000], "trial": 5, "serialpos": 12, "trial_type": "single-stim", "trial_index": 197, "time_elapsed": 947205, "internal_node_id": "0.0-143.0"}}, {"uniqueid": "MTK0892:3R6BYFZZP8J3AY6DFS7W8GUKI0WXFI", "current_trial": 198, "dateTime": 1512865292561, "trialdata": {"rt": -1, "stimulus": "<p id=\"stim\">LIPSTICK</p>", "key_press": -1, "type": "PRES_VIS", "word": "lipstick", "wordID": 828, "conditions": [24, 800, "v", 24000], "trial": 5, "serialpos": 13, "trial_type": "single-stim", "trial_index": 198, "time_elapsed": 949069, "internal_node_id": "0.0-144.0"}}, {"uniqueid": "MTK0892:3R6BYFZZP8J3AY6DFS7W8GUKI0WXFI", "current_trial": 199, "dateTime": 1512865294213, "trialdata": {"rt": -1, "stimulus": "<p id=\"stim\">BABY</p>", "key_press": -1, "type": "PRES_VIS", "word": "baby", "wordID": 63, "conditions": [24, 800, "v", 24000], "trial": 5, "serialpos": 14, "trial_type": "single-stim", "trial_index": 199, "time_elapsed": 950720, "internal_node_id": "0.0-145.0"}}, {"uniqueid": "MTK0892:3R6BYFZZP8J3AY6DFS7W8GUKI0WXFI", "current_trial": 200, "dateTime": 1512865296137, "trialdata": {"rt": -1, "stimulus": "<p id=\"stim\">SNAKE</p>", "key_press": -1, "type": "PRES_VIS", "word": "snake", "wordID": 1332, "conditions": [24, 800, "v", 24000], "trial": 5, "serialpos": 15, "trial_type": "single-stim", "trial_index": 200, "time_elapsed": 952645, "internal_node_id": "0.0-146.0"}}, {"uniqueid": "MTK0892:3R6BYFZZP8J3AY6DFS7W8GUKI0WXFI", "current_trial": 201, "dateTime": 1512865297926, "trialdata": {"rt": -1, "stimulus": "<p id=\"stim\">POSSUM</p>", "key_press": -1, "type": "PRES_VIS", "word": "possum", "wordID": 1111, "conditions": [24, 800, "v", 24000], "trial": 5, "serialpos": 16, "trial_type": "single-stim", "trial_index": 201, "time_elapsed": 954434, "internal_node_id": "0.0-147.0"}}, {"uniqueid": "MTK0892:3R6BYFZZP8J3AY6DFS7W8GUKI0WXFI", "current_trial": 202, "dateTime": 1512865299896, "trialdata": {"rt": -1, "stimulus": "<p id=\"stim\">SWORD</p>", "key_press": -1, "type": "PRES_VIS", "word": "sword", "wordID": 1422, "conditions": [24, 800, "v", 24000], "trial": 5, "serialpos": 17, "trial_type": "single-stim", "trial_index": 202, "time_elapsed": 956403, "internal_node_id": "0.0-148.0"}}, {"uniqueid": "MTK0892:3R6BYFZZP8J3AY6DFS7W8GUKI0WXFI", "current_trial": 203, "dateTime": 1512865301539, "trialdata": {"rt": -1, "stimulus": "<p id=\"stim\">WOMAN</p>", "key_press": -1, "type": "PRES_VIS", "word": "woman", "wordID": 1619, "conditions": [24, 800, "v", 24000], "trial": 5, "serialpos": 18, "trial_type": "single-stim", "trial_index": 203, "time_elapsed": 958047, "internal_node_id": "0.0-149.0"}}, {"uniqueid": "MTK0892:3R6BYFZZP8J3AY6DFS7W8GUKI0WXFI", "current_trial": 204, "dateTime": 1512865303221, "trialdata": {"rt": -1, "stimulus": "<p id=\"stim\">GLASS</p>", "key_press": -1, "type": "PRES_VIS", "word": "glass", "wordID": 638, "conditions": [24, 800, "v", 24000], "trial": 5, "serialpos": 19, "trial_type": "single-stim", "trial_index": 204, "time_elapsed": 959728, "internal_node_id": "0.0-150.0"}}, {"uniqueid": "MTK0892:3R6BYFZZP8J3AY6DFS7W8GUKI0WXFI", "current_trial": 205, "dateTime": 1512865304898, "trialdata": {"rt": -1, "stimulus": "<p id=\"stim\">PILOT</p>", "key_press": -1, "type": "PRES_VIS", "word": "pilot", "wordID": 1069, "conditions": [24, 800, "v", 24000], "trial": 5, "serialpos": 20, "trial_type": "single-stim", "trial_index": 205, "time_elapsed": 961405, "internal_node_id": "0.0-151.0"}}, {"uniqueid": "MTK0892:3R6BYFZZP8J3AY6DFS7W8GUKI0WXFI", "current_trial": 206, "dateTime": 1512865306762, "trialdata": {"rt": -1, "stimulus": "<p id=\"stim\">PACKAGE</p>", "key_press": -1, "type": "PRES_VIS", "word": "package", "wordID": 996, "conditions": [24, 800, "v", 24000], "trial": 5, "serialpos": 21, "trial_type": "single-stim", "trial_index": 206, "time_elapsed": 963270, "internal_node_id": "0.0-152.0"}}, {"uniqueid": "MTK0892:3R6BYFZZP8J3AY6DFS7W8GUKI0WXFI", "current_trial": 207, "dateTime": 1512865308442, "trialdata": {"rt": -1, "stimulus": "<p id=\"stim\">PANTHER</p>", "key_press": -1, "type": "PRES_VIS", "word": "panther", "wordID": 1008, "conditions": [24, 800, "v", 24000], "trial": 5, "serialpos": 22, "trial_type": "single-stim", "trial_index": 207, "time_elapsed": 964949, "internal_node_id": "0.0-153.0"}}, {"uniqueid": "MTK0892:3R6BYFZZP8J3AY6DFS7W8GUKI0WXFI", "current_trial": 208, "dateTime": 1512865310190, "trialdata": {"rt": -1, "stimulus": "<p id=\"stim\">LADY</p>", "key_press": -1, "type": "PRES_VIS", "word": "lady", "wordID": 793, "conditions": [24, 800, "v", 24000], "trial": 5, "serialpos": 23, "trial_type": "single-stim", "trial_index": 208, "time_elapsed": 966697, "internal_node_id": "0.0-154.0"}}, {"uniqueid": "MTK0892:3R6BYFZZP8J3AY6DFS7W8GUKI0WXFI", "current_trial": 209, "dateTime": 1512865312478, "trialdata": {"rt": -1, "stimulus": "", "key_press": -1, "type": "PRE_RECALL_DELAY", "trial_type": "single-stim", "trial_index": 209, "time_elapsed": 968985, "internal_node_id": "0.0-155.0-0.0"}}, {"uniqueid": "MTK0892:3R6BYFZZP8J3AY6DFS7W8GUKI0WXFI", "current_trial": 210, "dateTime": 1512865312981, "trialdata": {"rt": -1000, "stimulus": "/static/audio/400Hz.wav", "key_press": -1, "type": "PRE_RECALL_ALERT", "trial_type": "single-audio", "trial_index": 210, "time_elapsed": 969488, "internal_node_id": "0.0-156.0"}}, {"uniqueid": "MTK0892:3R6BYFZZP8J3AY6DFS7W8GUKI0WXFI", "current_trial": 211, "dateTime": 1512865372995, "trialdata": {"rt": [2272, 4495, 6059, 13364], "recwords": ["panther", "lipstick", "puppy", "drawing"], "type": "FREE_RECALL", "conditions": [24, 800, "v", 24000], "trial": 5, "trial_type": "free-recall", "trial_index": 211, "time_elapsed": 1029494, "internal_node_id": "0.0-157.0-0.0"}}, {"uniqueid": "MTK0892:3R6BYFZZP8J3AY6DFS7W8GUKI0WXFI", "current_trial": 212, "dateTime": 1512865376511, "trialdata": {"rt": 1514, "key_press": 84, "type": "INSTRUCTIONS", "trial_type": "text", "trial_index": 212, "time_elapsed": 1033019, "internal_node_id": "0.0-158.0"}}, {"uniqueid": "MTK0892:3R6BYFZZP8J3AY6DFS7W8GUKI0WXFI", "current_trial": 213, "dateTime": 1512865402521, "trialdata": {"rt": [3187, 5635, 7685, 9424, 11486, 13372, 15395, 17209, 20419, 21697, 23673], "responses": ["16", "14", "11", "14", "21", "11", "8", "12", "20", "11", "10"], "num1": [5, 9, 3, 2, 5, 4, 4, 7, 5, 5, 3, 6], "num2": [7, 3, 6, 8, 9, 2, 1, 3, 8, 5, 4, 2], "num3": [4, 2, 2, 4, 7, 5, 3, 2, 7, 1, 3, 8], "type": "DISTRACTOR", "conditions": [24, 1600, "a", 24000], "trial": 6, "trial_type": "math-distractor", "trial_index": 213, "time_elapsed": 1059028, "internal_node_id": "0.0-159.0"}}, {"uniqueid": "MTK0892:3R6BYFZZP8J3AY6DFS7W8GUKI0WXFI", "current_trial": 214, "dateTime": 1512865405524, "trialdata": {"rt": -1, "stimulus": "<p id=\"stim\">10</p>", "key_press": -1, "trial_type": "single-stim", "trial_index": 214, "time_elapsed": 1062032, "internal_node_id": "0.0-160.0-0.0"}}, {"uniqueid": "MTK0892:3R6BYFZZP8J3AY6DFS7W8GUKI0WXFI", "current_trial": 215, "dateTime": 1512865406526, "trialdata": {"rt": -1, "stimulus": "<p id=\"stim\">9</p>", "key_press": -1, "trial_type": "single-stim", "trial_index": 215, "time_elapsed": 1063034, "internal_node_id": "0.0-160.0-1.0"}}, {"uniqueid": "MTK0892:3R6BYFZZP8J3AY6DFS7W8GUKI0WXFI", "current_trial": 216, "dateTime": 1512865407527, "trialdata": {"rt": -1, "stimulus": "<p id=\"stim\">8</p>", "key_press": -1, "trial_type": "single-stim", "trial_index": 216, "time_elapsed": 1064035, "internal_node_id": "0.0-160.0-2.0"}}, {"uniqueid": "MTK0892:3R6BYFZZP8J3AY6DFS7W8GUKI0WXFI", "current_trial": 217, "dateTime": 1512865408529, "trialdata": {"rt": -1, "stimulus": "<p id=\"stim\">7</p>", "key_press": -1, "trial_type": "single-stim", "trial_index": 217, "time_elapsed": 1065037, "internal_node_id": "0.0-160.0-3.0"}}, {"uniqueid": "MTK0892:3R6BYFZZP8J3AY6DFS7W8GUKI0WXFI", "current_trial": 218, "dateTime": 1512865409530, "trialdata": {"rt": -1, "stimulus": "<p id=\"stim\">6</p>", "key_press": -1, "trial_type": "single-stim", "trial_index": 218, "time_elapsed": 1066038, "internal_node_id": "0.0-160.0-4.0"}}, {"uniqueid": "MTK0892:3R6BYFZZP8J3AY6DFS7W8GUKI0WXFI", "current_trial": 219, "dateTime": 1512865410532, "trialdata": {"rt": -1, "stimulus": "<p id=\"stim\">5</p>", "key_press": -1, "trial_type": "single-stim", "trial_index": 219, "time_elapsed": 1067039, "internal_node_id": "0.0-160.0-5.0"}}, {"uniqueid": "MTK0892:3R6BYFZZP8J3AY6DFS7W8GUKI0WXFI", "current_trial": 220, "dateTime": 1512865411536, "trialdata": {"rt": -1, "stimulus": "<p id=\"stim\">4</p>", "key_press": -1, "trial_type": "single-stim", "trial_index": 220, "time_elapsed": 1068043, "internal_node_id": "0.0-160.0-6.0"}}, {"uniqueid": "MTK0892:3R6BYFZZP8J3AY6DFS7W8GUKI0WXFI", "current_trial": 221, "dateTime": 1512865412538, "trialdata": {"rt": -1, "stimulus": "<p id=\"stim\">3</p>", "key_press": -1, "trial_type": "single-stim", "trial_index": 221, "time_elapsed": 1069046, "internal_node_id": "0.0-160.0-7.0"}}, {"uniqueid": "MTK0892:3R6BYFZZP8J3AY6DFS7W8GUKI0WXFI", "current_trial": 222, "dateTime": 1512865413540, "trialdata": {"rt": -1, "stimulus": "<p id=\"stim\">2</p>", "key_press": -1, "trial_type": "single-stim", "trial_index": 222, "time_elapsed": 1070047, "internal_node_id": "0.0-160.0-8.0"}}, {"uniqueid": "MTK0892:3R6BYFZZP8J3AY6DFS7W8GUKI0WXFI", "current_trial": 223, "dateTime": 1512865414542, "trialdata": {"rt": -1, "stimulus": "<p id=\"stim\">1</p>", "key_press": -1, "trial_type": "single-stim", "trial_index": 223, "time_elapsed": 1071049, "internal_node_id": "0.0-160.0-9.0"}}, {"uniqueid": "MTK0892:3R6BYFZZP8J3AY6DFS7W8GUKI0WXFI", "current_trial": 224, "dateTime": 1512865416043, "trialdata": {"rt": -1, "stimulus": "<p id=\"stim\">+</p>", "key_press": -1, "type": "FIXATION", "trial_type": "single-stim", "trial_index": 224, "time_elapsed": 1072551, "internal_node_id": "0.0-161.0-0.0"}}, {"uniqueid": "MTK0892:3R6BYFZZP8J3AY6DFS7W8GUKI0WXFI", "current_trial": 225, "dateTime": 1512865418512, "trialdata": {"rt": -1000, "stimulus": "/static/audio/wordpool/TORTOISE.wav", "key_press": -1, "type": "PRES_AUD", "word": "tortoise", "wordID": 1485, "conditions": [24, 1600, "a", 24000], "trial": 6, "serialpos": 0, "trial_type": "single-audio", "trial_index": 225, "time_elapsed": 1075020, "internal_node_id": "0.0-162.0"}}, {"uniqueid": "MTK0892:3R6BYFZZP8J3AY6DFS7W8GUKI0WXFI", "current_trial": 226, "dateTime": 1512865421039, "trialdata": {"rt": -1000, "stimulus": "/static/audio/wordpool/KEEPER.wav", "key_press": -1, "type": "PRES_AUD", "word": "keeper", "wordID": 768, "conditions": [24, 1600, "a", 24000], "trial": 6, "serialpos": 1, "trial_type": "single-audio", "trial_index": 226, "time_elapsed": 1077547, "internal_node_id": "0.0-163.0"}}, {"uniqueid": "MTK0892:3R6BYFZZP8J3AY6DFS7W8GUKI0WXFI", "current_trial": 227, "dateTime": 1512865423490, "trialdata": {"rt": -1000, "stimulus": "/static/audio/wordpool/JURY.wav", "key_press": -1, "type": "PRES_AUD", "word": "jury", "wordID": 765, "conditions": [24, 1600, "a", 24000], "trial": 6, "serialpos": 2, "trial_type": "single-audio", "trial_index": 227, "time_elapsed": 1079998, "internal_node_id": "0.0-164.0"}}, {"uniqueid": "MTK0892:3R6BYFZZP8J3AY6DFS7W8GUKI0WXFI", "current_trial": 228, "dateTime": 1512865425939, "trialdata": {"rt": -1000, "stimulus": "/static/audio/wordpool/FRUIT.wav", "key_press": -1, "type": "PRES_AUD", "word": "fruit", "wordID": 609, "conditions": [24, 1600, "a", 24000], "trial": 6, "serialpos": 3, "trial_type": "single-audio", "trial_index": 228, "time_elapsed": 1082447, "internal_node_id": "0.0-165.0"}}, {"uniqueid": "MTK0892:3R6BYFZZP8J3AY6DFS7W8GUKI0WXFI", "current_trial": 229, "dateTime": 1512865428633, "trialdata": {"rt": -1000, "stimulus": "/static/audio/wordpool/MAMMAL.wav", "key_press": -1, "type": "PRES_AUD", "word": "mammal", "wordID": 860, "conditions": [24, 1600, "a", 24000], "trial": 6, "serialpos": 4, "trial_type": "single-audio", "trial_index": 229, "time_elapsed": 1085141, "internal_node_id": "0.0-166.0"}}, {"uniqueid": "MTK0892:3R6BYFZZP8J3AY6DFS7W8GUKI0WXFI", "current_trial": 230, "dateTime": 1512865431200, "trialdata": {"rt": -1000, "stimulus": "/static/audio/wordpool/POWDER.wav", "key_press": -1, "type": "PRES_AUD", "word": "powder", "wordID": 1116, "conditions": [24, 1600, "a", 24000], "trial": 6, "serialpos": 5, "trial_type": "single-audio", "trial_index": 230, "time_elapsed": 1087708, "internal_node_id": "0.0-167.0"}}, {"uniqueid": "MTK0892:3R6BYFZZP8J3AY6DFS7W8GUKI0WXFI", "current_trial": 231, "dateTime": 1512865433773, "trialdata": {"rt": -1000, "stimulus": "/static/audio/wordpool/GROUND.wav", "key_press": -1, "type": "PRES_AUD", "word": "ground", "wordID": 665, "conditions": [24, 1600, "a", 24000], "trial": 6, "serialpos": 6, "trial_type": "single-audio", "trial_index": 231, "time_elapsed": 1090281, "internal_node_id": "0.0-168.0"}}, {"uniqueid": "MTK0892:3R6BYFZZP8J3AY6DFS7W8GUKI0WXFI", "current_trial": 232, "dateTime": 1512865436445, "trialdata": {"rt": -1000, "stimulus": "/static/audio/wordpool/CANDY.wav", "key_press": -1, "type": "PRES_AUD", "word": "candy", "wordID": 229, "conditions": [24, 1600, "a", 24000], "trial": 6, "serialpos": 7, "trial_type": "single-audio", "trial_index": 232, "time_elapsed": 1092953, "internal_node_id": "0.0-169.0"}}, {"uniqueid": "MTK0892:3R6BYFZZP8J3AY6DFS7W8GUKI0WXFI", "current_trial": 233, "dateTime": 1512865438891, "trialdata": {"rt": -1000, "stimulus": "/static/audio/wordpool/SNACK.wav", "key_press": -1, "type": "PRES_AUD", "word": "snack", "wordID": 1330, "conditions": [24, 1600, "a", 24000], "trial": 6, "serialpos": 8, "trial_type": "single-audio", "trial_index": 233, "time_elapsed": 1095398, "internal_node_id": "0.0-170.0"}}, {"uniqueid": "MTK0892:3R6BYFZZP8J3AY6DFS7W8GUKI0WXFI", "current_trial": 234, "dateTime": 1512865441339, "trialdata": {"rt": -1000, "stimulus": "/static/audio/wordpool/LUNCH.wav", "key_press": -1, "type": "PRES_AUD", "word": "lunch", "wordID": 848, "conditions": [24, 1600, "a", 24000], "trial": 6, "serialpos": 9, "trial_type": "single-audio", "trial_index": 234, "time_elapsed": 1097846, "internal_node_id": "0.0-171.0"}}, {"uniqueid": "MTK0892:3R6BYFZZP8J3AY6DFS7W8GUKI0WXFI", "current_trial": 235, "dateTime": 1512865443887, "trialdata": {"rt": -1000, "stimulus": "/static/audio/wordpool/HAND.wav", "key_press": -1, "type": "PRES_AUD", "word": "hand", "wordID": 682, "conditions": [24, 1600, "a", 24000], "trial": 6, "serialpos": 10, "trial_type": "single-audio", "trial_index": 235, "time_elapsed": 1100395, "internal_node_id": "0.0-172.0"}}, {"uniqueid": "MTK0892:3R6BYFZZP8J3AY6DFS7W8GUKI0WXFI", "current_trial": 236, "dateTime": 1512865446655, "trialdata": {"rt": -1000, "stimulus": "/static/audio/wordpool/LETTUCE.wav", "key_press": -1, "type": "PRES_AUD", "word": "lettuce", "wordID": 813, "conditions": [24, 1600, "a", 24000], "trial": 6, "serialpos": 11, "trial_type": "single-audio", "trial_index": 236, "time_elapsed": 1103163, "internal_node_id": "0.0-173.0"}}, {"uniqueid": "MTK0892:3R6BYFZZP8J3AY6DFS7W8GUKI0WXFI", "current_trial": 237, "dateTime": 1512865449425, "trialdata": {"rt": -1000, "stimulus": "/static/audio/wordpool/PLASTER.wav", "key_press": -1, "type": "PRES_AUD", "word": "plaster", "wordID": 1084, "conditions": [24, 1600, "a", 24000], "trial": 6, "serialpos": 12, "trial_type": "single-audio", "trial_index": 237, "time_elapsed": 1105933, "internal_node_id": "0.0-174.0"}}, {"uniqueid": "MTK0892:3R6BYFZZP8J3AY6DFS7W8GUKI0WXFI", "current_trial": 238, "dateTime": 1512865451997, "trialdata": {"rt": -1000, "stimulus": "/static/audio/wordpool/LODGE.wav", "key_press": -1, "type": "PRES_AUD", "word": "lodge", "wordID": 838, "conditions": [24, 1600, "a", 24000], "trial": 6, "serialpos": 13, "trial_type": "single-audio", "trial_index": 238, "time_elapsed": 1108505, "internal_node_id": "0.0-175.0"}}, {"uniqueid": "MTK0892:3R6BYFZZP8J3AY6DFS7W8GUKI0WXFI", "current_trial": 239, "dateTime": 1512865454596, "trialdata": {"rt": -1000, "stimulus": "/static/audio/wordpool/LAGOON.wav", "key_press": -1, "type": "PRES_AUD", "word": "lagoon", "wordID": 794, "conditions": [24, 1600, "a", 24000], "trial": 6, "serialpos": 14, "trial_type": "single-audio", "trial_index": 239, "time_elapsed": 1111104, "internal_node_id": "0.0-176.0"}}, {"uniqueid": "MTK0892:3R6BYFZZP8J3AY6DFS7W8GUKI0WXFI", "current_trial": 240, "dateTime": 1512865457130, "trialdata": {"rt": -1000, "stimulus": "/static/audio/wordpool/STOVE.wav", "key_press": -1, "type": "PRES_AUD", "word": "stove", "wordID": 1387, "conditions": [24, 1600, "a", 24000], "trial": 6, "serialpos": 15, "trial_type": "single-audio", "trial_index": 240, "time_elapsed": 1113638, "internal_node_id": "0.0-177.0"}}, {"uniqueid": "MTK0892:3R6BYFZZP8J3AY6DFS7W8GUKI0WXFI", "current_trial": 241, "dateTime": 1512865459713, "trialdata": {"rt": -1000, "stimulus": "/static/audio/wordpool/HUSBAND.wav", "key_press": -1, "type": "PRES_AUD", "word": "husband", "wordID": 727, "conditions": [24, 1600, "a", 24000], "trial": 6, "serialpos": 16, "trial_type": "single-audio", "trial_index": 241, "time_elapsed": 1116221, "internal_node_id": "0.0-178.0"}}, {"uniqueid": "MTK0892:3R6BYFZZP8J3AY6DFS7W8GUKI0WXFI", "current_trial": 242, "dateTime": 1512865462389, "trialdata": {"rt": -1000, "stimulus": "/static/audio/wordpool/DUSTPAN.wav", "key_press": -1, "type": "PRES_AUD", "word": "dustpan", "wordID": 508, "conditions": [24, 1600, "a", 24000], "trial": 6, "serialpos": 17, "trial_type": "single-audio", "trial_index": 242, "time_elapsed": 1118897, "internal_node_id": "0.0-179.0"}}, {"uniqueid": "MTK0892:3R6BYFZZP8J3AY6DFS7W8GUKI0WXFI", "current_trial": 243, "dateTime": 1512865464990, "trialdata": {"rt": -1000, "stimulus": "/static/audio/wordpool/VELVET.wav", "key_press": -1, "type": "PRES_AUD", "word": "velvet", "wordID": 1554, "conditions": [24, 1600, "a", 24000], "trial": 6, "serialpos": 18, "trial_type": "single-audio", "trial_index": 243, "time_elapsed": 1121497, "internal_node_id": "0.0-180.0"}}, {"uniqueid": "MTK0892:3R6BYFZZP8J3AY6DFS7W8GUKI0WXFI", "current_trial": 244, "dateTime": 1512865467772, "trialdata": {"rt": -1000, "stimulus": "/static/audio/wordpool/SCALLOP.wav", "key_press": -1, "type": "PRES_AUD", "word": "scallop", "wordID": 1241, "conditions": [24, 1600, "a", 24000], "trial": 6, "serialpos": 19, "trial_type": "single-audio", "trial_index": 244, "time_elapsed": 1124280, "internal_node_id": "0.0-181.0"}}, {"uniqueid": "MTK0892:3R6BYFZZP8J3AY6DFS7W8GUKI0WXFI", "current_trial": 245, "dateTime": 1512865470448, "trialdata": {"rt": -1000, "stimulus": "/static/audio/wordpool/CLAM.wav", "key_press": -1, "type": "PRES_AUD", "word": "clam", "wordID": 314, "conditions": [24, 1600, "a", 24000], "trial": 6, "serialpos": 20, "trial_type": "single-audio", "trial_index": 245, "time_elapsed": 1126956, "internal_node_id": "0.0-182.0"}}, {"uniqueid": "MTK0892:3R6BYFZZP8J3AY6DFS7W8GUKI0WXFI", "current_trial": 246, "dateTime": 1512865473104, "trialdata": {"rt": -1000, "stimulus": "/static/audio/wordpool/HOSTESS.wav", "key_press": -1, "type": "PRES_AUD", "word": "hostess", "wordID": 722, "conditions": [24, 1600, "a", 24000], "trial": 6, "serialpos": 21, "trial_type": "single-audio", "trial_index": 246, "time_elapsed": 1129612, "internal_node_id": "0.0-183.0"}}, {"uniqueid": "MTK0892:3R6BYFZZP8J3AY6DFS7W8GUKI0WXFI", "current_trial": 247, "dateTime": 1512865475889, "trialdata": {"rt": -1000, "stimulus": "/static/audio/wordpool/KITCHEN.wav", "key_press": -1, "type": "PRES_AUD", "word": "kitchen", "wordID": 777, "conditions": [24, 1600, "a", 24000], "trial": 6, "serialpos": 22, "trial_type": "single-audio", "trial_index": 247, "time_elapsed": 1132397, "internal_node_id": "0.0-184.0"}}, {"uniqueid": "MTK0892:3R6BYFZZP8J3AY6DFS7W8GUKI0WXFI", "current_trial": 248, "dateTime": 1512865478653, "trialdata": {"rt": -1000, "stimulus": "/static/audio/wordpool/CLOTHES.wav", "key_press": -1, "type": "PRES_AUD", "word": "clothes", "wordID": 326, "conditions": [24, 1600, "a", 24000], "trial": 6, "serialpos": 23, "trial_type": "single-audio", "trial_index": 248, "time_elapsed": 1135161, "internal_node_id": "0.0-185.0"}}, {"uniqueid": "MTK0892:3R6BYFZZP8J3AY6DFS7W8GUKI0WXFI", "current_trial": 249, "dateTime": 1512865480009, "trialdata": {"rt": -1, "stimulus": "", "key_press": -1, "type": "PRE_RECALL_DELAY", "trial_type": "single-stim", "trial_index": 249, "time_elapsed": 1136517, "internal_node_id": "0.0-186.0-0.0"}}, {"uniqueid": "MTK0892:3R6BYFZZP8J3AY6DFS7W8GUKI0WXFI", "current_trial": 250, "dateTime": 1512865480510, "trialdata": {"rt": -1000, "stimulus": "/static/audio/400Hz.wav", "key_press": -1, "type": "PRE_RECALL_ALERT", "trial_type": "single-audio", "trial_index": 250, "time_elapsed": 1137018, "internal_node_id": "0.0-187.0"}}, {"uniqueid": "MTK0892:3R6BYFZZP8J3AY6DFS7W8GUKI0WXFI", "current_trial": 251, "dateTime": 1512865540522, "trialdata": {"rt": [2265, 4290, 5555, 7952, 18810], "recwords": ["clothes", "kitchen", "lagoon", "tortoise", "dustpan"], "type": "FREE_RECALL", "conditions": [24, 1600, "a", 24000], "trial": 6, "trial_type": "free-recall", "trial_index": 251, "time_elapsed": 1197021, "internal_node_id": "0.0-188.0-0.0"}}, {"uniqueid": "MTK0892:3R6BYFZZP8J3AY6DFS7W8GUKI0WXFI", "current_trial": 252, "dateTime": 1512865544121, "trialdata": {"rt": 1596, "key_press": 70, "type": "INSTRUCTIONS", "trial_type": "text", "trial_index": 252, "time_elapsed": 1200628, "internal_node_id": "0.0-189.0"}}, {"uniqueid": "MTK0892:3R6BYFZZP8J3AY6DFS7W8GUKI0WXFI", "current_trial": 253, "dateTime": 1512865558126, "trialdata": {"rt": [4100, 6093, 8023, 9220, 10806, 11847], "responses": ["19", "19", "15", "13", "18", "10"], "num1": [7, 9, 9, 3, 4, 4, 2], "num2": [4, 6, 3, 5, 7, 5, 6], "num3": [8, 4, 3, 5, 7, 1, 8], "type": "DISTRACTOR", "conditions": [12, 1600, "v", 12000], "trial": 7, "trial_type": "math-distractor", "trial_index": 253, "time_elapsed": 1214634, "internal_node_id": "0.0-190.0"}}, {"uniqueid": "MTK0892:3R6BYFZZP8J3AY6DFS7W8GUKI0WXFI", "current_trial": 254, "dateTime": 1512865561129, "trialdata": {"rt": -1, "stimulus": "<p id=\"stim\">10</p>", "key_press": -1, "trial_type": "single-stim", "trial_index": 254, "time_elapsed": 1217636, "internal_node_id": "0.0-191.0-0.0"}}, {"uniqueid": "MTK0892:3R6BYFZZP8J3AY6DFS7W8GUKI0WXFI", "current_trial": 255, "dateTime": 1512865562132, "trialdata": {"rt": -1, "stimulus": "<p id=\"stim\">9</p>", "key_press": -1, "trial_type": "single-stim", "trial_index": 255, "time_elapsed": 1218639, "internal_node_id": "0.0-191.0-1.0"}}, {"uniqueid": "MTK0892:3R6BYFZZP8J3AY6DFS7W8GUKI0WXFI", "current_trial": 256, "dateTime": 1512865563135, "trialdata": {"rt": -1, "stimulus": "<p id=\"stim\">8</p>", "key_press": -1, "trial_type": "single-stim", "trial_index": 256, "time_elapsed": 1219642, "internal_node_id": "0.0-191.0-2.0"}}, {"uniqueid": "MTK0892:3R6BYFZZP8J3AY6DFS7W8GUKI0WXFI", "current_trial": 257, "dateTime": 1512865564137, "trialdata": {"rt": -1, "stimulus": "<p id=\"stim\">7</p>", "key_press": -1, "trial_type": "single-stim", "trial_index": 257, "time_elapsed": 1220644, "internal_node_id": "0.0-191.0-3.0"}}, {"uniqueid": "MTK0892:3R6BYFZZP8J3AY6DFS7W8GUKI0WXFI", "current_trial": 258, "dateTime": 1512865565139, "trialdata": {"rt": -1, "stimulus": "<p id=\"stim\">6</p>", "key_press": -1, "trial_type": "single-stim", "trial_index": 258, "time_elapsed": 1221646, "internal_node_id": "0.0-191.0-4.0"}}, {"uniqueid": "MTK0892:3R6BYFZZP8J3AY6DFS7W8GUKI0WXFI", "current_trial": 259, "dateTime": 1512865566142, "trialdata": {"rt": -1, "stimulus": "<p id=\"stim\">5</p>", "key_press": -1, "trial_type": "single-stim", "trial_index": 259, "time_elapsed": 1222649, "internal_node_id": "0.0-191.0-5.0"}}, {"uniqueid": "MTK0892:3R6BYFZZP8J3AY6DFS7W8GUKI0WXFI", "current_trial": 260, "dateTime": 1512865567143, "trialdata": {"rt": -1, "stimulus": "<p id=\"stim\">4</p>", "key_press": -1, "trial_type": "single-stim", "trial_index": 260, "time_elapsed": 1223651, "internal_node_id": "0.0-191.0-6.0"}}, {"uniqueid": "MTK0892:3R6BYFZZP8J3AY6DFS7W8GUKI0WXFI", "current_trial": 261, "dateTime": 1512865568146, "trialdata": {"rt": -1, "stimulus": "<p id=\"stim\">3</p>", "key_press": -1, "trial_type": "single-stim", "trial_index": 261, "time_elapsed": 1224654, "internal_node_id": "0.0-191.0-7.0"}}, {"uniqueid": "MTK0892:3R6BYFZZP8J3AY6DFS7W8GUKI0WXFI", "current_trial": 262, "dateTime": 1512865569150, "trialdata": {"rt": -1, "stimulus": "<p id=\"stim\">2</p>", "key_press": -1, "trial_type": "single-stim", "trial_index": 262, "time_elapsed": 1225656, "internal_node_id": "0.0-191.0-8.0"}}, {"uniqueid": "MTK0892:3R6BYFZZP8J3AY6DFS7W8GUKI0WXFI", "current_trial": 263, "dateTime": 1512865570153, "trialdata": {"rt": -1, "stimulus": "<p id=\"stim\">1</p>", "key_press": -1, "trial_type": "single-stim", "trial_index": 263, "time_elapsed": 1226660, "internal_node_id": "0.0-191.0-9.0"}}, {"uniqueid": "MTK0892:3R6BYFZZP8J3AY6DFS7W8GUKI0WXFI", "current_trial": 264, "dateTime": 1512865571655, "trialdata": {"rt": -1, "stimulus": "<p id=\"stim\">+</p>", "key_press": -1, "type": "FIXATION", "trial_type": "single-stim", "trial_index": 264, "time_elapsed": 1228162, "internal_node_id": "0.0-192.0-0.0"}}, {"uniqueid": "MTK0892:3R6BYFZZP8J3AY6DFS7W8GUKI0WXFI", "current_trial": 265, "dateTime": 1512865573257, "trialdata": {"rt": -1, "stimulus": "<p id=\"stim\">ZIPPER</p>", "key_press": -1, "type": "PRES_VIS", "word": "zipper", "wordID": 1635, "conditions": [12, 1600, "v", 12000], "trial": 7, "serialpos": 0, "trial_type": "single-stim", "trial_index": 265, "time_elapsed": 1229764, "internal_node_id": "0.0-193.0"}}, {"uniqueid": "MTK0892:3R6BYFZZP8J3AY6DFS7W8GUKI0WXFI", "current_trial": 266, "dateTime": 1512865575778, "trialdata": {"rt": -1, "stimulus": "<p id=\"stim\">SODA</p>", "key_press": -1, "type": "PRES_VIS", "word": "soda", "wordID": 1340, "conditions": [12, 1600, "v", 12000], "trial": 7, "serialpos": 1, "trial_type": "single-stim", "trial_index": 266, "time_elapsed": 1232285, "internal_node_id": "0.0-194.0"}}, {"uniqueid": "MTK0892:3R6BYFZZP8J3AY6DFS7W8GUKI0WXFI", "current_trial": 267, "dateTime": 1512865578375, "trialdata": {"rt": -1, "stimulus": "<p id=\"stim\">COUNTY</p>", "key_press": -1, "type": "PRES_VIS", "word": "county", "wordID": 388, "conditions": [12, 1600, "v", 12000], "trial": 7, "serialpos": 2, "trial_type": "single-stim", "trial_index": 267, "time_elapsed": 1234883, "internal_node_id": "0.0-195.0"}}, {"uniqueid": "MTK0892:3R6BYFZZP8J3AY6DFS7W8GUKI0WXFI", "current_trial": 268, "dateTime": 1512865580858, "trialdata": {"rt": -1, "stimulus": "<p id=\"stim\">GALLON</p>", "key_press": -1, "type": "PRES_VIS", "word": "gallon", "wordID": 617, "conditions": [12, 1600, "v", 12000], "trial": 7, "serialpos": 3, "trial_type": "single-stim", "trial_index": 268, "time_elapsed": 1237366, "internal_node_id": "0.0-196.0"}}, {"uniqueid": "MTK0892:3R6BYFZZP8J3AY6DFS7W8GUKI0WXFI", "current_trial": 269, "dateTime": 1512865583382, "trialdata": {"rt": -1, "stimulus": "<p id=\"stim\">HIGHWAY</p>", "key_press": -1, "type": "PRES_VIS", "word": "highway", "wordID": 706, "conditions": [12, 1600, "v", 12000], "trial": 7, "serialpos": 4, "trial_type": "single-stim", "trial_index": 269, "time_elapsed": 1239890, "internal_node_id": "0.0-197.0"}}, {"uniqueid": "MTK0892:3R6BYFZZP8J3AY6DFS7W8GUKI0WXFI", "current_trial": 270, "dateTime": 1512865585829, "trialdata": {"rt": -1, "stimulus": "<p id=\"stim\">WASHER</p>", "key_press": -1, "type": "PRES_VIS", "word": "washer", "wordID": 1591, "conditions": [12, 1600, "v", 12000], "trial": 7, "serialpos": 5, "trial_type": "single-stim", "trial_index": 270, "time_elapsed": 1242337, "internal_node_id": "0.0-198.0"}}, {"uniqueid": "MTK0892:3R6BYFZZP8J3AY6DFS7W8GUKI0WXFI", "current_trial": 271, "dateTime": 1512865588319, "trialdata": {"rt": -1, "stimulus": "<p id=\"stim\">LUMBER</p>", "key_press": -1, "type": "PRES_VIS", "word": "lumber", "wordID": 847, "conditions": [12, 1600, "v", 12000], "trial": 7, "serialp