{"condition": 0, "counterbalance": 268, "assignmentId": "3KGTPGBS6YSRS006MSH24Q1RDHVU2S", "workerId": "MTK0439", "hitId": "3RSBJ6YZECXET5UROZFY0J77Q7NOFV", "currenttrial": 626, "bonus": 0, "data": [{"uniqueid": "MTK0439:3KGTPGBS6YSRS006MSH24Q1RDHVU2S", "current_trial": 0, "dateTime": 1510873581273, "trialdata": {"rt": 54515, "key_press": 13, "type": "INSTRUCTIONS", "trial_type": "text", "trial_index": 0, "time_elapsed": 54520, "internal_node_id": "0.0-0.0"}}, {"uniqueid": "MTK0439:3KGTPGBS6YSRS006MSH24Q1RDHVU2S", "current_trial": 1, "dateTime": 1510873609214, "trialdata": {"rt": 27938, "key_press": 13, "type": "INSTRUCTIONS", "trial_type": "text", "trial_index": 1, "time_elapsed": 82461, "internal_node_id": "0.0-1.0"}}, {"uniqueid": "MTK0439:3KGTPGBS6YSRS006MSH24Q1RDHVU2S", "current_trial": 2, "dateTime": 1510873622862, "trialdata": {"rt": [13635], "responses": ["ocean"], "type": "AUDIO_TEST", "trial_type": "audio-test", "trial_index": 2, "time_elapsed": 96110, "internal_node_id": "0.0-2.0"}}, {"uniqueid": "MTK0439:3KGTPGBS6YSRS006MSH24Q1RDHVU2S", "current_trial": 3, "dateTime": 1510873633531, "trialdata": {"rt": [10660], "responses": ["crystal"], "type": "AUDIO_TEST", "trial_type": "audio-test", "trial_index": 3, "time_elapsed": 106779, "internal_node_id": "0.0-3.0"}}, {"uniqueid": "MTK0439:3KGTPGBS6YSRS006MSH24Q1RDHVU2S", "current_trial": 4, "dateTime": 1510873639966, "trialdata": {"rt": [6427], "responses": ["spice"], "type": "AUDIO_TEST", "trial_type": "audio-test", "trial_index": 4, "time_elapsed": 113214, "internal_node_id": "0.0-4.0"}}, {"uniqueid": "MTK0439:3KGTPGBS6YSRS006MSH24Q1RDHVU2S", "current_trial": 5, "dateTime": 1510873672378, "trialdata": {"rt": 31658, "responses": "{\"Q0\":\"1:00 am\",\"Q1\":\"5:56\",\"Q2\":\"5\"}", "type": "SLEEP_SURVEY", "trial_type": "survey-text", "trial_index": 5, "time_elapsed": 145626, "internal_node_id": "0.0-5.0"}}, {"uniqueid": "MTK0439:3KGTPGBS6YSRS006MSH24Q1RDHVU2S", "current_trial": 6, "dateTime": 1510873716926, "trialdata": {"rt": 43545, "key_press": 32, "type": "INSTRUCTIONS", "trial_type": "text", "trial_index": 6, "time_elapsed": 190174, "internal_node_id": "0.0-6.0"}}, {"uniqueid": "MTK0439:3KGTPGBS6YSRS006MSH24Q1RDHVU2S", "current_trial": 7, "dateTime": 1510873769302, "trialdata": {"rt": 51874, "key_press": 13, "type": "INSTRUCTIONS", "trial_type": "text", "trial_index": 7, "time_elapsed": 242550, "internal_node_id": "0.0-7.0"}}, {"uniqueid": "MTK0439:3KGTPGBS6YSRS006MSH24Q1RDHVU2S", "current_trial": 8, "dateTime": 1510873783989, "trialdata": {"rt": 14184, "key_press": 13, "type": "INSTRUCTIONS", "trial_type": "text", "trial_index": 8, "time_elapsed": 257237, "internal_node_id": "0.0-8.0"}}, {"uniqueid": "MTK0439:3KGTPGBS6YSRS006MSH24Q1RDHVU2S", "current_trial": 9, "dateTime": 1510873803024, "trialdata": {"rt": [8448, 12358, 15639], "responses": ["16", "11", "12"], "num1": [8, 4, 6, 1], "num2": [4, 5, 5, 5], "num3": [4, 2, 1, 5], "type": "DISTRACTOR", "conditions": [18, 1200, "a", 18000], "trial": 0, "trial_type": "math-distractor", "trial_index": 9, "time_elapsed": 276271, "internal_node_id": "0.0-9.0"}}, {"uniqueid": "MTK0439:3KGTPGBS6YSRS006MSH24Q1RDHVU2S", "current_trial": 10, "dateTime": 1510873806027, "trialdata": {"rt": -1, "stimulus": "<p id=\"stim\">10</p>", "key_press": -1, "trial_type": "single-stim", "trial_index": 10, "time_elapsed": 279275, "internal_node_id": "0.0-10.0-0.0"}}, {"uniqueid": "MTK0439:3KGTPGBS6YSRS006MSH24Q1RDHVU2S", "current_trial": 11, "dateTime": 1510873807029, "trialdata": {"rt": -1, "stimulus": "<p id=\"stim\">9</p>", "key_press": -1, "trial_type": "single-stim", "trial_index": 11, "time_elapsed": 280277, "internal_node_id": "0.0-10.0-1.0"}}, {"uniqueid": "MTK0439:3KGTPGBS6YSRS006MSH24Q1RDHVU2S", "current_trial": 12, "dateTime": 1510873808031, "trialdata": {"rt": -1, "stimulus": "<p id=\"stim\">8</p>", "key_press": -1, "trial_type": "single-stim", "trial_index": 12, "time_elapsed": 281279, "internal_node_id": "0.0-10.0-2.0"}}, {"uniqueid": "MTK0439:3KGTPGBS6YSRS006MSH24Q1RDHVU2S", "current_trial": 13, "dateTime": 1510873809032, "trialdata": {"rt": -1, "stimulus": "<p id=\"stim\">7</p>", "key_press": -1, "trial_type": "single-stim", "trial_index": 13, "time_elapsed": 282280, "internal_node_id": "0.0-10.0-3.0"}}, {"uniqueid": "MTK0439:3KGTPGBS6YSRS006MSH24Q1RDHVU2S", "current_trial": 14, "dateTime": 1510873810034, "trialdata": {"rt": -1, "stimulus": "<p id=\"stim\">6</p>", "key_press": -1, "trial_type": "single-stim", "trial_index": 14, "time_elapsed": 283282, "internal_node_id": "0.0-10.0-4.0"}}, {"uniqueid": "MTK0439:3KGTPGBS6YSRS006MSH24Q1RDHVU2S", "current_trial": 15, "dateTime": 1510873811035, "trialdata": {"rt": -1, "stimulus": "<p id=\"stim\">5</p>", "key_press": -1, "trial_type": "single-stim", "trial_index": 15, "time_elapsed": 284283, "internal_node_id": "0.0-10.0-5.0"}}, {"uniqueid": "MTK0439:3KGTPGBS6YSRS006MSH24Q1RDHVU2S", "current_trial": 16, "dateTime": 1510873812037, "trialdata": {"rt": -1, "stimulus": "<p id=\"stim\">4</p>", "key_press": -1, "trial_type": "single-stim", "trial_index": 16, "time_elapsed": 285285, "internal_node_id": "0.0-10.0-6.0"}}, {"uniqueid": "MTK0439:3KGTPGBS6YSRS006MSH24Q1RDHVU2S", "current_trial": 17, "dateTime": 1510873813039, "trialdata": {"rt": -1, "stimulus": "<p id=\"stim\">3</p>", "key_press": -1, "trial_type": "single-stim", "trial_index": 17, "time_elapsed": 286287, "internal_node_id": "0.0-10.0-7.0"}}, {"uniqueid": "MTK0439:3KGTPGBS6YSRS006MSH24Q1RDHVU2S", "current_trial": 18, "dateTime": 1510873814040, "trialdata": {"rt": -1, "stimulus": "<p id=\"stim\">2</p>", "key_press": -1, "trial_type": "single-stim", "trial_index": 18, "time_elapsed": 287288, "internal_node_id": "0.0-10.0-8.0"}}, {"uniqueid": "MTK0439:3KGTPGBS6YSRS006MSH24Q1RDHVU2S", "current_trial": 19, "dateTime": 1510873815041, "trialdata": {"rt": -1, "stimulus": "<p id=\"stim\">1</p>", "key_press": -1, "trial_type": "single-stim", "trial_index": 19, "time_elapsed": 288289, "internal_node_id": "0.0-10.0-9.0"}}, {"uniqueid": "MTK0439:3KGTPGBS6YSRS006MSH24Q1RDHVU2S", "current_trial": 20, "dateTime": 1510873816542, "trialdata": {"rt": -1, "stimulus": "<p id=\"stim\">+</p>", "key_press": -1, "type": "FIXATION", "trial_type": "single-stim", "trial_index": 20, "time_elapsed": 289790, "internal_node_id": "0.0-11.0-0.0"}}, {"uniqueid": "MTK0439:3KGTPGBS6YSRS006MSH24Q1RDHVU2S", "current_trial": 21, "dateTime": 1510873818765, "trialdata": {"rt": -1000, "stimulus": "/static/audio/wordpool/BISON.wav", "key_press": -1, "type": "PRES_AUD", "word": "bison", "wordID": 130, "conditions": [18, 1200, "a", 18000], "trial": 0, "serialpos": 0, "trial_type": "single-audio", "trial_index": 21, "time_elapsed": 292013, "internal_node_id": "0.0-12.0"}}, {"uniqueid": "MTK0439:3KGTPGBS6YSRS006MSH24Q1RDHVU2S", "current_trial": 22, "dateTime": 1510873820900, "trialdata": {"rt": -1000, "stimulus": "/static/audio/wordpool/PICTURE.wav", "key_press": -1, "type": "PRES_AUD", "word": "picture", "wordID": 1060, "conditions": [18, 1200, "a", 18000], "trial": 0, "serialpos": 1, "trial_type": "single-audio", "trial_index": 22, "time_elapsed": 294148, "internal_node_id": "0.0-13.0"}}, {"uniqueid": "MTK0439:3KGTPGBS6YSRS006MSH24Q1RDHVU2S", "current_trial": 23, "dateTime": 1510873823223, "trialdata": {"rt": -1000, "stimulus": "/static/audio/wordpool/STREAM.wav", "key_press": -1, "type": "PRES_AUD", "word": "stream", "wordID": 1391, "conditions": [18, 1200, "a", 18000], "trial": 0, "serialpos": 2, "trial_type": "single-audio", "trial_index": 23, "time_elapsed": 296471, "internal_node_id": "0.0-14.0"}}, {"uniqueid": "MTK0439:3KGTPGBS6YSRS006MSH24Q1RDHVU2S", "current_trial": 24, "dateTime": 1510873825534, "trialdata": {"rt": -1000, "stimulus": "/static/audio/wordpool/BURGLAR.wav", "key_press": -1, "type": "PRES_AUD", "word": "burglar", "wordID": 199, "conditions": [18, 1200, "a", 18000], "trial": 0, "serialpos": 3, "trial_type": "single-audio", "trial_index": 24, "time_elapsed": 298781, "internal_node_id": "0.0-15.0"}}, {"uniqueid": "MTK0439:3KGTPGBS6YSRS006MSH24Q1RDHVU2S", "current_trial": 25, "dateTime": 1510873827901, "trialdata": {"rt": -1000, "stimulus": "/static/audio/wordpool/TROUT.wav", "key_press": -1, "type": "PRES_AUD", "word": "trout", "wordID": 1510, "conditions": [18, 1200, "a", 18000], "trial": 0, "serialpos": 4, "trial_type": "single-audio", "trial_index": 25, "time_elapsed": 301149, "internal_node_id": "0.0-16.0"}}, {"uniqueid": "MTK0439:3KGTPGBS6YSRS006MSH24Q1RDHVU2S", "current_trial": 26, "dateTime": 1510873829997, "trialdata": {"rt": -1000, "stimulus": "/static/audio/wordpool/BROTHER.wav", "key_press": -1, "type": "PRES_AUD", "word": "brother", "wordID": 178, "conditions": [18, 1200, "a", 18000], "trial": 0, "serialpos": 5, "trial_type": "single-audio", "trial_index": 26, "time_elapsed": 303245, "internal_node_id": "0.0-17.0"}}, {"uniqueid": "MTK0439:3KGTPGBS6YSRS006MSH24Q1RDHVU2S", "current_trial": 27, "dateTime": 1510873832362, "trialdata": {"rt": -1000, "stimulus": "/static/audio/wordpool/ONION.wav", "key_press": -1, "type": "PRES_AUD", "word": "onion", "wordID": 976, "conditions": [18, 1200, "a", 18000], "trial": 0, "serialpos": 6, "trial_type": "single-audio", "trial_index": 27, "time_elapsed": 305610, "internal_node_id": "0.0-18.0"}}, {"uniqueid": "MTK0439:3KGTPGBS6YSRS006MSH24Q1RDHVU2S", "current_trial": 28, "dateTime": 1510873834503, "trialdata": {"rt": -1000, "stimulus": "/static/audio/wordpool/SERVANT.wav", "key_press": -1, "type": "PRES_AUD", "word": "servant", "wordID": 1270, "conditions": [18, 1200, "a", 18000], "trial": 0, "serialpos": 7, "trial_type": "single-audio", "trial_index": 28, "time_elapsed": 307751, "internal_node_id": "0.0-19.0"}}, {"uniqueid": "MTK0439:3KGTPGBS6YSRS006MSH24Q1RDHVU2S", "current_trial": 29, "dateTime": 1510873836894, "trialdata": {"rt": -1000, "stimulus": "/static/audio/wordpool/ROBOT.wav", "key_press": -1, "type": "PRES_AUD", "word": "robot", "wordID": 1199, "conditions": [18, 1200, "a", 18000], "trial": 0, "serialpos": 8, "trial_type": "single-audio", "trial_index": 29, "time_elapsed": 310142, "internal_node_id": "0.0-20.0"}}, {"uniqueid": "MTK0439:3KGTPGBS6YSRS006MSH24Q1RDHVU2S", "current_trial": 30, "dateTime": 1510873839131, "trialdata": {"rt": -1000, "stimulus": "/static/audio/wordpool/LONDON.wav", "key_press": -1, "type": "PRES_AUD", "word": "london", "wordID": 842, "conditions": [18, 1200, "a", 18000], "trial": 0, "serialpos": 9, "trial_type": "single-audio", "trial_index": 30, "time_elapsed": 312379, "internal_node_id": "0.0-21.0"}}, {"uniqueid": "MTK0439:3KGTPGBS6YSRS006MSH24Q1RDHVU2S", "current_trial": 31, "dateTime": 1510873841157, "trialdata": {"rt": -1000, "stimulus": "/static/audio/wordpool/TROMBONE.wav", "key_press": -1, "type": "PRES_AUD", "word": "trombone", "wordID": 1507, "conditions": [18, 1200, "a", 18000], "trial": 0, "serialpos": 10, "trial_type": "single-audio", "trial_index": 31, "time_elapsed": 314404, "internal_node_id": "0.0-22.0"}}, {"uniqueid": "MTK0439:3KGTPGBS6YSRS006MSH24Q1RDHVU2S", "current_trial": 32, "dateTime": 1510873843372, "trialdata": {"rt": -1000, "stimulus": "/static/audio/wordpool/DRILL.wav", "key_press": -1, "type": "PRES_AUD", "word": "drill", "wordID": 496, "conditions": [18, 1200, "a", 18000], "trial": 0, "serialpos": 11, "trial_type": "single-audio", "trial_index": 32, "time_elapsed": 316619, "internal_node_id": "0.0-23.0"}}, {"uniqueid": "MTK0439:3KGTPGBS6YSRS006MSH24Q1RDHVU2S", "current_trial": 33, "dateTime": 1510873845470, "trialdata": {"rt": -1000, "stimulus": "/static/audio/wordpool/SHELF.wav", "key_press": -1, "type": "PRES_AUD", "word": "shelf", "wordID": 1279, "conditions": [18, 1200, "a", 18000], "trial": 0, "serialpos": 12, "trial_type": "single-audio", "trial_index": 33, "time_elapsed": 318717, "internal_node_id": "0.0-24.0"}}, {"uniqueid": "MTK0439:3KGTPGBS6YSRS006MSH24Q1RDHVU2S", "current_trial": 34, "dateTime": 1510873847608, "trialdata": {"rt": -1000, "stimulus": "/static/audio/wordpool/RUST.wav", "key_press": -1, "type": "PRES_AUD", "word": "rust", "wordID": 1218, "conditions": [18, 1200, "a", 18000], "trial": 0, "serialpos": 13, "trial_type": "single-audio", "trial_index": 34, "time_elapsed": 320856, "internal_node_id": "0.0-25.0"}}, {"uniqueid": "MTK0439:3KGTPGBS6YSRS006MSH24Q1RDHVU2S", "current_trial": 35, "dateTime": 1510873850006, "trialdata": {"rt": -1000, "stimulus": "/static/audio/wordpool/CIGAR.wav", "key_press": -1, "type": "PRES_AUD", "word": "cigar", "wordID": 307, "conditions": [18, 1200, "a", 18000], "trial": 0, "serialpos": 14, "trial_type": "single-audio", "trial_index": 35, "time_elapsed": 323254, "internal_node_id": "0.0-26.0"}}, {"uniqueid": "MTK0439:3KGTPGBS6YSRS006MSH24Q1RDHVU2S", "current_trial": 36, "dateTime": 1510873852330, "trialdata": {"rt": -1000, "stimulus": "/static/audio/wordpool/STICKER.wav", "key_press": -1, "type": "PRES_AUD", "word": "sticker", "wordID": 1381, "conditions": [18, 1200, "a", 18000], "trial": 0, "serialpos": 15, "trial_type": "single-audio", "trial_index": 36, "time_elapsed": 325578, "internal_node_id": "0.0-27.0"}}, {"uniqueid": "MTK0439:3KGTPGBS6YSRS006MSH24Q1RDHVU2S", "current_trial": 37, "dateTime": 1510873854519, "trialdata": {"rt": -1000, "stimulus": "/static/audio/wordpool/GROUND.wav", "key_press": -1, "type": "PRES_AUD", "word": "ground", "wordID": 665, "conditions": [18, 1200, "a", 18000], "trial": 0, "serialpos": 16, "trial_type": "single-audio", "trial_index": 37, "time_elapsed": 327767, "internal_node_id": "0.0-28.0"}}, {"uniqueid": "MTK0439:3KGTPGBS6YSRS006MSH24Q1RDHVU2S", "current_trial": 38, "dateTime": 1510873856559, "trialdata": {"rt": -1000, "stimulus": "/static/audio/wordpool/AWARD.wav", "key_press": -1, "type": "PRES_AUD", "word": "award", "wordID": 62, "conditions": [18, 1200, "a", 18000], "trial": 0, "serialpos": 17, "trial_type": "single-audio", "trial_index": 38, "time_elapsed": 329807, "internal_node_id": "0.0-29.0"}}, {"uniqueid": "MTK0439:3KGTPGBS6YSRS006MSH24Q1RDHVU2S", "current_trial": 39, "dateTime": 1510873857934, "trialdata": {"rt": -1, "stimulus": "", "key_press": -1, "type": "PRE_RECALL_DELAY", "trial_type": "single-stim", "trial_index": 39, "time_elapsed": 331181, "internal_node_id": "0.0-30.0-0.0"}}, {"uniqueid": "MTK0439:3KGTPGBS6YSRS006MSH24Q1RDHVU2S", "current_trial": 40, "dateTime": 1510873858437, "trialdata": {"rt": -1000, "stimulus": "/static/audio/400Hz.wav", "key_press": -1, "type": "PRE_RECALL_ALERT", "trial_type": "single-audio", "trial_index": 40, "time_elapsed": 331685, "internal_node_id": "0.0-31.0"}}, {"uniqueid": "MTK0439:3KGTPGBS6YSRS006MSH24Q1RDHVU2S", "current_trial": 41, "dateTime": 1510873918447, "trialdata": {"rt": [4795, 7243, 13027, 30858, 38473], "recwords": ["drill", "shelf", "stream", "servent", "crest"], "type": "FREE_RECALL", "conditions": [18, 1200, "a", 18000], "trial": 0, "trial_type": "free-recall", "trial_index": 41, "time_elapsed": 391691, "internal_node_id": "0.0-32.0-0.0"}}, {"uniqueid": "MTK0439:3KGTPGBS6YSRS006MSH24Q1RDHVU2S", "current_trial": 42, "dateTime": 1510873925061, "trialdata": {"rt": 4613, "key_press": 13, "type": "INSTRUCTIONS", "trial_type": "text", "trial_index": 42, "time_elapsed": 398309, "internal_node_id": "0.0-33.0"}}, {"uniqueid": "MTK0439:3KGTPGBS6YSRS006MSH24Q1RDHVU2S", "current_trial": 43, "dateTime": 1510873945063, "trialdata": {"rt": [5526, 10718, 14742, 17558], "responses": ["21", "23", "23", "13"], "num1": [5, 8, 7, 3, 8], "num2": [7, 9, 8, 6, 3], "num3": [9, 6, 8, 4, 6], "type": "DISTRACTOR", "conditions": [18, 1200, "v", 18000], "trial": 1, "trial_type": "math-distractor", "trial_index": 43, "time_elapsed": 418311, "internal_node_id": "0.0-34.0"}}, {"uniqueid": "MTK0439:3KGTPGBS6YSRS006MSH24Q1RDHVU2S", "current_trial": 44, "dateTime": 1510873948065, "trialdata": {"rt": -1, "stimulus": "<p id=\"stim\">10</p>", "key_press": -1, "trial_type": "single-stim", "trial_index": 44, "time_elapsed": 421313, "internal_node_id": "0.0-35.0-0.0"}}, {"uniqueid": "MTK0439:3KGTPGBS6YSRS006MSH24Q1RDHVU2S", "current_trial": 45, "dateTime": 1510873949066, "trialdata": {"rt": -1, "stimulus": "<p id=\"stim\">9</p>", "key_press": -1, "trial_type": "single-stim", "trial_index": 45, "time_elapsed": 422314, "internal_node_id": "0.0-35.0-1.0"}}, {"uniqueid": "MTK0439:3KGTPGBS6YSRS006MSH24Q1RDHVU2S", "current_trial": 46, "dateTime": 1510873950067, "trialdata": {"rt": -1, "stimulus": "<p id=\"stim\">8</p>", "key_press": -1, "trial_type": "single-stim", "trial_index": 46, "time_elapsed": 423315, "internal_node_id": "0.0-35.0-2.0"}}, {"uniqueid": "MTK0439:3KGTPGBS6YSRS006MSH24Q1RDHVU2S", "current_trial": 47, "dateTime": 1510873951068, "trialdata": {"rt": -1, "stimulus": "<p id=\"stim\">7</p>", "key_press": -1, "trial_type": "single-stim", "trial_index": 47, "time_elapsed": 424316, "internal_node_id": "0.0-35.0-3.0"}}, {"uniqueid": "MTK0439:3KGTPGBS6YSRS006MSH24Q1RDHVU2S", "current_trial": 48, "dateTime": 1510873952070, "trialdata": {"rt": -1, "stimulus": "<p id=\"stim\">6</p>", "key_press": -1, "trial_type": "single-stim", "trial_index": 48, "time_elapsed": 425318, "internal_node_id": "0.0-35.0-4.0"}}, {"uniqueid": "MTK0439:3KGTPGBS6YSRS006MSH24Q1RDHVU2S", "current_trial": 49, "dateTime": 1510873953072, "trialdata": {"rt": -1, "stimulus": "<p id=\"stim\">5</p>", "key_press": -1, "trial_type": "single-stim", "trial_index": 49, "time_elapsed": 426319, "internal_node_id": "0.0-35.0-5.0"}}, {"uniqueid": "MTK0439:3KGTPGBS6YSRS006MSH24Q1RDHVU2S", "current_trial": 50, "dateTime": 1510873954073, "trialdata": {"rt": -1, "stimulus": "<p id=\"stim\">4</p>", "key_press": -1, "trial_type": "single-stim", "trial_index": 50, "time_elapsed": 427320, "internal_node_id": "0.0-35.0-6.0"}}, {"uniqueid": "MTK0439:3KGTPGBS6YSRS006MSH24Q1RDHVU2S", "current_trial": 51, "dateTime": 1510873955075, "trialdata": {"rt": -1, "stimulus": "<p id=\"stim\">3</p>", "key_press": -1, "trial_type": "single-stim", "trial_index": 51, "time_elapsed": 428323, "internal_node_id": "0.0-35.0-7.0"}}, {"uniqueid": "MTK0439:3KGTPGBS6YSRS006MSH24Q1RDHVU2S", "current_trial": 52, "dateTime": 1510873956075, "trialdata": {"rt": -1, "stimulus": "<p id=\"stim\">2</p>", "key_press": -1, "trial_type": "single-stim", "trial_index": 52, "time_elapsed": 429323, "internal_node_id": "0.0-35.0-8.0"}}, {"uniqueid": "MTK0439:3KGTPGBS6YSRS006MSH24Q1RDHVU2S", "current_trial": 53, "dateTime": 1510873957077, "trialdata": {"rt": -1, "stimulus": "<p id=\"stim\">1</p>", "key_press": -1, "trial_type": "single-stim", "trial_index": 53, "time_elapsed": 430325, "internal_node_id": "0.0-35.0-9.0"}}, {"uniqueid": "MTK0439:3KGTPGBS6YSRS006MSH24Q1RDHVU2S", "current_trial": 54, "dateTime": 1510873958581, "trialdata": {"rt": -1, "stimulus": "<p id=\"stim\">+</p>", "key_press": -1, "type": "FIXATION", "trial_type": "single-stim", "trial_index": 54, "time_elapsed": 431829, "internal_node_id": "0.0-36.0-0.0"}}, {"uniqueid": "MTK0439:3KGTPGBS6YSRS006MSH24Q1RDHVU2S", "current_trial": 55, "dateTime": 1510873959784, "trialdata": {"rt": -1, "stimulus": "<p id=\"stim\">LIGHTNING</p>", "key_press": -1, "type": "PRES_VIS", "word": "lightning", "wordID": 819, "conditions": [18, 1200, "v", 18000], "trial": 1, "serialpos": 0, "trial_type": "single-stim", "trial_index": 55, "time_elapsed": 433032, "internal_node_id": "0.0-37.0"}}, {"uniqueid": "MTK0439:3KGTPGBS6YSRS006MSH24Q1RDHVU2S", "current_trial": 56, "dateTime": 1510873962109, "trialdata": {"rt": -1, "stimulus": "<p id=\"stim\">BOX</p>", "key_press": -1, "type": "PRES_VIS", "word": "box", "wordID": 158, "conditions": [18, 1200, "v", 18000], "trial": 1, "serialpos": 1, "trial_type": "single-stim", "trial_index": 56, "time_elapsed": 435356, "internal_node_id": "0.0-38.0"}}, {"uniqueid": "MTK0439:3KGTPGBS6YSRS006MSH24Q1RDHVU2S", "current_trial": 57, "dateTime": 1510873964339, "trialdata": {"rt": -1, "stimulus": "<p id=\"stim\">PECAN</p>", "key_press": -1, "type": "PRES_VIS", "word": "pecan", "wordID": 1035, "conditions": [18, 1200, "v", 18000], "trial": 1, "serialpos": 2, "trial_type": "single-stim", "trial_index": 57, "time_elapsed": 437587, "internal_node_id": "0.0-39.0"}}, {"uniqueid": "MTK0439:3KGTPGBS6YSRS006MSH24Q1RDHVU2S", "current_trial": 58, "dateTime": 1510873966674, "trialdata": {"rt": -1, "stimulus": "<p id=\"stim\">FLAG</p>", "key_press": -1, "type": "PRES_VIS", "word": "flag", "wordID": 572, "conditions": [18, 1200, "v", 18000], "trial": 1, "serialpos": 3, "trial_type": "single-stim", "trial_index": 58, "time_elapsed": 439922, "internal_node_id": "0.0-40.0"}}, {"uniqueid": "MTK0439:3KGTPGBS6YSRS006MSH24Q1RDHVU2S", "current_trial": 59, "dateTime": 1510873969039, "trialdata": {"rt": -1, "stimulus": "<p id=\"stim\">SCISSORS</p>", "key_press": -1, "type": "PRES_VIS", "word": "scissors", "wordID": 1249, "conditions": [18, 1200, "v", 18000], "trial": 1, "serialpos": 4, "trial_type": "single-stim", "trial_index": 59, "time_elapsed": 442287, "internal_node_id": "0.0-41.0"}}, {"uniqueid": "MTK0439:3KGTPGBS6YSRS006MSH24Q1RDHVU2S", "current_trial": 60, "dateTime": 1510873971295, "trialdata": {"rt": -1, "stimulus": "<p id=\"stim\">FLOWER</p>", "key_press": -1, "type": "PRES_VIS", "word": "flower", "wordID": 583, "conditions": [18, 1200, "v", 18000], "trial": 1, "serialpos": 5, "trial_type": "single-stim", "trial_index": 60, "time_elapsed": 444542, "internal_node_id": "0.0-42.0"}}, {"uniqueid": "MTK0439:3KGTPGBS6YSRS006MSH24Q1RDHVU2S", "current_trial": 61, "dateTime": 1510873973494, "trialdata": {"rt": -1, "stimulus": "<p id=\"stim\">PLATE</p>", "key_press": -1, "type": "PRES_VIS", "word": "plate", "wordID": 1085, "conditions": [18, 1200, "v", 18000], "trial": 1, "serialpos": 6, "trial_type": "single-stim", "trial_index": 61, "time_elapsed": 446742, "internal_node_id": "0.0-43.0"}}, {"uniqueid": "MTK0439:3KGTPGBS6YSRS006MSH24Q1RDHVU2S", "current_trial": 62, "dateTime": 1510873975606, "trialdata": {"rt": -1, "stimulus": "<p id=\"stim\">GRAVE</p>", "key_press": -1, "type": "PRES_VIS", "word": "grave", "wordID": 657, "conditions": [18, 1200, "v", 18000], "trial": 1, "serialpos": 7, "trial_type": "single-stim", "trial_index": 62, "time_elapsed": 448853, "internal_node_id": "0.0-44.0"}}, {"uniqueid": "MTK0439:3KGTPGBS6YSRS006MSH24Q1RDHVU2S", "current_trial": 63, "dateTime": 1510873977610, "trialdata": {"rt": -1, "stimulus": "<p id=\"stim\">PADDING</p>", "key_press": -1, "type": "PRES_VIS", "word": "padding", "wordID": 998, "conditions": [18, 1200, "v", 18000], "trial": 1, "serialpos": 8, "trial_type": "single-stim", "trial_index": 63, "time_elapsed": 450858, "internal_node_id": "0.0-45.0"}}, {"uniqueid": "MTK0439:3KGTPGBS6YSRS006MSH24Q1RDHVU2S", "current_trial": 64, "dateTime": 1510873979935, "trialdata": {"rt": -1, "stimulus": "<p id=\"stim\">HOOD</p>", "key_press": -1, "type": "PRES_VIS", "word": "hood", "wordID": 713, "conditions": [18, 1200, "v", 18000], "trial": 1, "serialpos": 9, "trial_type": "single-stim", "trial_index": 64, "time_elapsed": 453183, "internal_node_id": "0.0-46.0"}}, {"uniqueid": "MTK0439:3KGTPGBS6YSRS006MSH24Q1RDHVU2S", "current_trial": 65, "dateTime": 1510873981973, "trialdata": {"rt": -1, "stimulus": "<p id=\"stim\">WIFE</p>", "key_press": -1, "type": "PRES_VIS", "word": "wife", "wordID": 1608, "conditions": [18, 1200, "v", 18000], "trial": 1, "serialpos": 10, "trial_type": "single-stim", "trial_index": 65, "time_elapsed": 455221, "internal_node_id": "0.0-47.0"}}, {"uniqueid": "MTK0439:3KGTPGBS6YSRS006MSH24Q1RDHVU2S", "current_trial": 66, "dateTime": 1510873984152, "trialdata": {"rt": -1, "stimulus": "<p id=\"stim\">TWIG</p>", "key_press": -1, "type": "PRES_VIS", "word": "twig", "wordID": 1526, "conditions": [18, 1200, "v", 18000], "trial": 1, "serialpos": 11, "trial_type": "single-stim", "trial_index": 66, "time_elapsed": 457399, "internal_node_id": "0.0-48.0"}}, {"uniqueid": "MTK0439:3KGTPGBS6YSRS006MSH24Q1RDHVU2S", "current_trial": 67, "dateTime": 1510873986315, "trialdata": {"rt": -1, "stimulus": "<p id=\"stim\">LILY</p>", "key_press": -1, "type": "PRES_VIS", "word": "lily", "wordID": 820, "conditions": [18, 1200, "v", 18000], "trial": 1, "serialpos": 12, "trial_type": "single-stim", "trial_index": 67, "time_elapsed": 459562, "internal_node_id": "0.0-49.0"}}, {"uniqueid": "MTK0439:3KGTPGBS6YSRS006MSH24Q1RDHVU2S", "current_trial": 68, "dateTime": 1510873988561, "trialdata": {"rt": -1, "stimulus": "<p id=\"stim\">DOLPHIN</p>", "key_press": -1, "type": "PRES_VIS", "word": "dolphin", "wordID": 482, "conditions": [18, 1200, "v", 18000], "trial": 1, "serialpos": 13, "trial_type": "single-stim", "trial_index": 68, "time_elapsed": 461806, "internal_node_id": "0.0-50.0"}}, {"uniqueid": "MTK0439:3KGTPGBS6YSRS006MSH24Q1RDHVU2S", "current_trial": 69, "dateTime": 1510873990742, "trialdata": {"rt": -1, "stimulus": "<p id=\"stim\">BRANCH</p>", "key_press": -1, "type": "PRES_VIS", "word": "branch", "wordID": 167, "conditions": [18, 1200, "v", 18000], "trial": 1, "serialpos": 14, "trial_type": "single-stim", "trial_index": 69, "time_elapsed": 463989, "internal_node_id": "0.0-51.0"}}, {"uniqueid": "MTK0439:3KGTPGBS6YSRS006MSH24Q1RDHVU2S", "current_trial": 70, "dateTime": 1510873992815, "trialdata": {"rt": -1, "stimulus": "<p id=\"stim\">FUNGUS</p>", "key_press": -1, "type": "PRES_VIS", "word": "fungus", "wordID": 613, "conditions": [18, 1200, "v", 18000], "trial": 1, "serialpos": 15, "trial_type": "single-stim", "trial_index": 70, "time_elapsed": 466062, "internal_node_id": "0.0-52.0"}}, {"uniqueid": "MTK0439:3KGTPGBS6YSRS006MSH24Q1RDHVU2S", "current_trial": 71, "dateTime": 1510873995117, "trialdata": {"rt": -1, "stimulus": "<p id=\"stim\">GLOVE</p>", "key_press": -1, "type": "PRES_VIS", "word": "glove", "wordID": 641, "conditions": [18, 1200, "v", 18000], "trial": 1, "serialpos": 16, "trial_type": "single-stim", "trial_index": 71, "time_elapsed": 468364, "internal_node_id": "0.0-53.0"}}, {"uniqueid": "MTK0439:3KGTPGBS6YSRS006MSH24Q1RDHVU2S", "current_trial": 72, "dateTime": 1510873997332, "trialdata": {"rt": -1, "stimulus": "<p id=\"stim\">POCKET</p>", "key_press": -1, "type": "PRES_VIS", "word": "pocket", "wordID": 1092, "conditions": [18, 1200, "v", 18000], "trial": 1, "serialpos": 17, "trial_type": "single-stim", "trial_index": 72, "time_elapsed": 470579, "internal_node_id": "0.0-54.0"}}, {"uniqueid": "MTK0439:3KGTPGBS6YSRS006MSH24Q1RDHVU2S", "current_trial": 73, "dateTime": 1510873999502, "trialdata": {"rt": -1, "stimulus": "", "key_press": -1, "type": "PRE_RECALL_DELAY", "trial_type": "single-stim", "trial_index": 73, "time_elapsed": 472749, "internal_node_id": "0.0-55.0-0.0"}}, {"uniqueid": "MTK0439:3KGTPGBS6YSRS006MSH24Q1RDHVU2S", "current_trial": 74, "dateTime": 1510874000004, "trialdata": {"rt": -1000, "stimulus": "/static/audio/400Hz.wav", "key_press": -1, "type": "PRE_RECALL_ALERT", "trial_type": "single-audio", "trial_index": 74, "time_elapsed": 473251, "internal_node_id": "0.0-56.0"}}, {"uniqueid": "MTK0439:3KGTPGBS6YSRS006MSH24Q1RDHVU2S", "current_trial": 75, "dateTime": 1510874060011, "trialdata": {"rt": [4446, 9983, 23598, 26342], "recwords": ["flower", "grave", "ywig", "twig"], "type": "FREE_RECALL", "conditions": [18, 1200, "v", 18000], "trial": 1, "trial_type": "free-recall", "trial_index": 75, "time_elapsed": 533255, "internal_node_id": "0.0-57.0-0.0"}}, {"uniqueid": "MTK0439:3KGTPGBS6YSRS006MSH24Q1RDHVU2S", "current_trial": 76, "dateTime": 1510874071454, "trialdata": {"rt": 9432, "key_press": 13, "type": "INSTRUCTIONS", "trial_type": "text", "trial_index": 76, "time_elapsed": 544693, "internal_node_id": "0.0-58.0"}}, {"uniqueid": "MTK0439:3KGTPGBS6YSRS006MSH24Q1RDHVU2S", "current_trial": 77, "dateTime": 1510874096460, "trialdata": {"rt": [4115, 6899, 11658, 15483, 19754], "responses": ["15", "17", "17", "14", "18"], "num1": [6, 9, 7, 6, 6, 6], "num2": [1, 7, 1, 7, 5, 8], "num3": [8, 1, 9, 3, 7, 8], "type": "DISTRACTOR", "conditions": [24, 800, "v", 24000], "trial": 2, "trial_type": "math-distractor", "trial_index": 77, "time_elapsed": 569708, "internal_node_id": "0.0-59.0"}}, {"uniqueid": "MTK0439:3KGTPGBS6YSRS006MSH24Q1RDHVU2S", "current_trial": 78, "dateTime": 1510874099461, "trialdata": {"rt": -1, "stimulus": "<p id=\"stim\">10</p>", "key_press": -1, "trial_type": "single-stim", "trial_index": 78, "time_elapsed": 572709, "internal_node_id": "0.0-60.0-0.0"}}, {"uniqueid": "MTK0439:3KGTPGBS6YSRS006MSH24Q1RDHVU2S", "current_trial": 79, "dateTime": 1510874100462, "trialdata": {"rt": -1, "stimulus": "<p id=\"stim\">9</p>", "key_press": -1, "trial_type": "single-stim", "trial_index": 79, "time_elapsed": 573710, "internal_node_id": "0.0-60.0-1.0"}}, {"uniqueid": "MTK0439:3KGTPGBS6YSRS006MSH24Q1RDHVU2S", "current_trial": 80, "dateTime": 1510874101463, "trialdata": {"rt": -1, "stimulus": "<p id=\"stim\">8</p>", "key_press": -1, "trial_type": "single-stim", "trial_index": 80, "time_elapsed": 574711, "internal_node_id": "0.0-60.0-2.0"}}, {"uniqueid": "MTK0439:3KGTPGBS6YSRS006MSH24Q1RDHVU2S", "current_trial": 81, "dateTime": 1510874102464, "trialdata": {"rt": -1, "stimulus": "<p id=\"stim\">7</p>", "key_press": -1, "trial_type": "single-stim", "trial_index": 81, "time_elapsed": 575711, "internal_node_id": "0.0-60.0-3.0"}}, {"uniqueid": "MTK0439:3KGTPGBS6YSRS006MSH24Q1RDHVU2S", "current_trial": 82, "dateTime": 1510874103465, "trialdata": {"rt": -1, "stimulus": "<p id=\"stim\">6</p>", "key_press": -1, "trial_type": "single-stim", "trial_index": 82, "time_elapsed": 576713, "internal_node_id": "0.0-60.0-4.0"}}, {"uniqueid": "MTK0439:3KGTPGBS6YSRS006MSH24Q1RDHVU2S", "current_trial": 83, "dateTime": 1510874104467, "trialdata": {"rt": -1, "stimulus": "<p id=\"stim\">5</p>", "key_press": -1, "trial_type": "single-stim", "trial_index": 83, "time_elapsed": 577715, "internal_node_id": "0.0-60.0-5.0"}}, {"uniqueid": "MTK0439:3KGTPGBS6YSRS006MSH24Q1RDHVU2S", "current_trial": 84, "dateTime": 1510874105468, "trialdata": {"rt": -1, "stimulus": "<p id=\"stim\">4</p>", "key_press": -1, "trial_type": "single-stim", "trial_index": 84, "time_elapsed": 578716, "internal_node_id": "0.0-60.0-6.0"}}, {"uniqueid": "MTK0439:3KGTPGBS6YSRS006MSH24Q1RDHVU2S", "current_trial": 85, "dateTime": 1510874106470, "trialdata": {"rt": -1, "stimulus": "<p id=\"stim\">3</p>", "key_press": -1, "trial_type": "single-stim", "trial_index": 85, "time_elapsed": 579718, "internal_node_id": "0.0-60.0-7.0"}}, {"uniqueid": "MTK0439:3KGTPGBS6YSRS006MSH24Q1RDHVU2S", "current_trial": 86, "dateTime": 1510874107472, "trialdata": {"rt": -1, "stimulus": "<p id=\"stim\">2</p>", "key_press": -1, "trial_type": "single-stim", "trial_index": 86, "time_elapsed": 580720, "internal_node_id": "0.0-60.0-8.0"}}, {"uniqueid": "MTK0439:3KGTPGBS6YSRS006MSH24Q1RDHVU2S", "current_trial": 87, "dateTime": 1510874108475, "trialdata": {"rt": -1, "stimulus": "<p id=\"stim\">1</p>", "key_press": -1, "trial_type": "single-stim", "trial_index": 87, "time_elapsed": 581722, "internal_node_id": "0.0-60.0-9.0"}}, {"uniqueid": "MTK0439:3KGTPGBS6YSRS006MSH24Q1RDHVU2S", "current_trial": 88, "dateTime": 1510874109977, "trialdata": {"rt": -1, "stimulus": "<p id=\"stim\">+</p>", "key_press": -1, "type": "FIXATION", "trial_type": "single-stim", "trial_index": 88, "time_elapsed": 583225, "internal_node_id": "0.0-61.0-0.0"}}, {"uniqueid": "MTK0439:3KGTPGBS6YSRS006MSH24Q1RDHVU2S", "current_trial": 89, "dateTime": 1510874110778, "trialdata": {"rt": -1, "stimulus": "<p id=\"stim\">COLLEGE</p>", "key_press": -1, "type": "PRES_VIS", "word": "college", "wordID": 345, "conditions": [24, 800, "v", 24000], "trial": 2, "serialpos": 0, "trial_type": "single-stim", "trial_index": 89, "time_elapsed": 584026, "internal_node_id": "0.0-62.0"}}, {"uniqueid": "MTK0439:3KGTPGBS6YSRS006MSH24Q1RDHVU2S", "current_trial": 90, "dateTime": 1510874112496, "trialdata": {"rt": -1, "stimulus": "<p id=\"stim\">PADDLE</p>", "key_press": -1, "type": "PRES_VIS", "word": "paddle", "wordID": 999, "conditions": [24, 800, "v", 24000], "trial": 2, "serialpos": 1, "trial_type": "single-stim", "trial_index": 90, "time_elapsed": 585744, "internal_node_id": "0.0-63.0"}}, {"uniqueid": "MTK0439:3KGTPGBS6YSRS006MSH24Q1RDHVU2S", "current_trial": 91, "dateTime": 1510874114348, "trialdata": {"rt": -1, "stimulus": "<p id=\"stim\">FRUIT</p>", "key_press": -1, "type": "PRES_VIS", "word": "fruit", "wordID": 609, "conditions": [24, 800, "v", 24000], "trial": 2, "serialpos": 2, "trial_type": "single-stim", "trial_index": 91, "time_elapsed": 587596, "internal_node_id": "0.0-64.0"}}, {"uniqueid": "MTK0439:3KGTPGBS6YSRS006MSH24Q1RDHVU2S", "current_trial": 92, "dateTime": 1510874116107, "trialdata": {"rt": -1, "stimulus": "<p id=\"stim\">SPONGE</p>", "key_press": -1, "type": "PRES_VIS", "word": "sponge", "wordID": 1354, "conditions": [24, 800, "v", 24000], "trial": 2, "serialpos": 3, "trial_type": "single-stim", "trial_index": 92, "time_elapsed": 589355, "internal_node_id": "0.0-65.0"}}, {"uniqueid": "MTK0439:3KGTPGBS6YSRS006MSH24Q1RDHVU2S", "current_trial": 93, "dateTime": 1510874117734, "trialdata": {"rt": -1, "stimulus": "<p id=\"stim\">ZIPPER</p>", "key_press": -1, "type": "PRES_VIS", "word": "zipper", "wordID": 1635, "conditions": [24, 800, "v", 24000], "trial": 2, "serialpos": 4, "trial_type": "single-stim", "trial_index": 93, "time_elapsed": 590982, "internal_node_id": "0.0-66.0"}}, {"uniqueid": "MTK0439:3KGTPGBS6YSRS006MSH24Q1RDHVU2S", "current_trial": 94, "dateTime": 1510874119451, "trialdata": {"rt": -1, "stimulus": "<p id=\"stim\">ANKLE</p>", "key_press": -1, "type": "PRES_VIS", "word": "ankle", "wordID": 23, "conditions": [24, 800, "v", 24000], "trial": 2, "serialpos": 5, "trial_type": "single-stim", "trial_index": 94, "time_elapsed": 592698, "internal_node_id": "0.0-67.0"}}, {"uniqueid": "MTK0439:3KGTPGBS6YSRS006MSH24Q1RDHVU2S", "current_trial": 95, "dateTime": 1510874121306, "trialdata": {"rt": -1, "stimulus": "<p id=\"stim\">NOTEBOOK</p>", "key_press": -1, "type": "PRES_VIS", "word": "notebook", "wordID": 958, "conditions": [24, 800, "v", 24000], "trial": 2, "serialpos": 6, "trial_type": "single-stim", "trial_index": 95, "time_elapsed": 594553, "internal_node_id": "0.0-68.0"}}, {"uniqueid": "MTK0439:3KGTPGBS6YSRS006MSH24Q1RDHVU2S", "current_trial": 96, "dateTime": 1510874122918, "trialdata": {"rt": -1, "stimulus": "<p id=\"stim\">CANYON</p>", "key_press": -1, "type": "PRES_VIS", "word": "canyon", "wordID": 234, "conditions": [24, 800, "v", 24000], "trial": 2, "serialpos": 7, "trial_type": "single-stim", "trial_index": 96, "time_elapsed": 596166, "internal_node_id": "0.0-69.0"}}, {"uniqueid": "MTK0439:3KGTPGBS6YSRS006MSH24Q1RDHVU2S", "current_trial": 97, "dateTime": 1510874124537, "trialdata": {"rt": -1, "stimulus": "<p id=\"stim\">VALLEY</p>", "key_press": -1, "type": "PRES_VIS", "word": "valley", "wordID": 1544, "conditions": [24, 800, "v", 24000], "trial": 2, "serialpos": 8, "trial_type": "single-stim", "trial_index": 97, "time_elapsed": 597784, "internal_node_id": "0.0-70.0"}}, {"uniqueid": "MTK0439:3KGTPGBS6YSRS006MSH24Q1RDHVU2S", "current_trial": 98, "dateTime": 1510874126519, "trialdata": {"rt": -1, "stimulus": "<p id=\"stim\">KLEENEX</p>", "key_press": -1, "type": "PRES_VIS", "word": "kleenex", "wordID": 781, "conditions": [24, 800, "v", 24000], "trial": 2, "serialpos": 9, "trial_type": "single-stim", "trial_index": 98, "time_elapsed": 599766, "internal_node_id": "0.0-71.0"}}, {"uniqueid": "MTK0439:3KGTPGBS6YSRS006MSH24Q1RDHVU2S", "current_trial": 99, "dateTime": 1510874128412, "trialdata": {"rt": -1, "stimulus": "<p id=\"stim\">SUPPER</p>", "key_press": -1, "type": "PRES_VIS", "word": "supper", "wordID": 1410, "conditions": [24, 800, "v", 24000], "trial": 2, "serialpos": 10, "trial_type": "single-stim", "trial_index": 99, "time_elapsed": 601660, "internal_node_id": "0.0-72.0"}}, {"uniqueid": "MTK0439:3KGTPGBS6YSRS006MSH24Q1RDHVU2S", "current_trial": 100, "dateTime": 1510874130398, "trialdata": {"rt": -1, "stimulus": "<p id=\"stim\">CITRUS</p>", "key_press": -1, "type": "PRES_VIS", "word": "citrus", "wordID": 312, "conditions": [24, 800, "v", 24000], "trial": 2, "serialpos": 11, "trial_type": "single-stim", "trial_index": 100, "time_elapsed": 603646, "internal_node_id": "0.0-73.0"}}, {"uniqueid": "MTK0439:3KGTPGBS6YSRS006MSH24Q1RDHVU2S", "current_trial": 101, "dateTime": 1510874132297, "trialdata": {"rt": -1, "stimulus": "<p id=\"stim\">PLIERS</p>", "key_press": -1, "type": "PRES_VIS", "word": "pliers", "wordID": 1088, "conditions": [24, 800, "v", 24000], "trial": 2, "serialpos": 12, "trial_type": "single-stim", "trial_index": 101, "time_elapsed": 605545, "internal_node_id": "0.0-74.0"}}, {"uniqueid": "MTK0439:3KGTPGBS6YSRS006MSH24Q1RDHVU2S", "current_trial": 102, "dateTime": 1510874134270, "trialdata": {"rt": -1, "stimulus": "<p id=\"stim\">DRIVER</p>", "key_press": -1, "type": "PRES_VIS", "word": "driver", "wordID": 498, "conditions": [24, 800, "v", 24000], "trial": 2, "serialpos": 13, "trial_type": "single-stim", "trial_index": 102, "time_elapsed": 607518, "internal_node_id": "0.0-75.0"}}, {"uniqueid": "MTK0439:3KGTPGBS6YSRS006MSH24Q1RDHVU2S", "current_trial": 103, "dateTime": 1510874136155, "trialdata": {"rt": -1, "stimulus": "<p id=\"stim\">MUFFIN</p>", "key_press": -1, "type": "PRES_VIS", "word": "muffin", "wordID": 928, "conditions": [24, 800, "v", 24000], "trial": 2, "serialpos": 14, "trial_type": "single-stim", "trial_index": 103, "time_elapsed": 609403, "internal_node_id": "0.0-76.0"}}, {"uniqueid": "MTK0439:3KGTPGBS6YSRS006MSH24Q1RDHVU2S", "current_trial": 104, "dateTime": 1510874137849, "trialdata": {"rt": -1, "stimulus": "<p id=\"stim\">PASTRY</p>", "key_press": -1, "type": "PRES_VIS", "word": "pastry", "wordID": 1021, "conditions": [24, 800, "v", 24000], "trial": 2, "serialpos": 15, "trial_type": "single-stim", "trial_index": 104, "time_elapsed": 611097, "internal_node_id": "0.0-77.0"}}, {"uniqueid": "MTK0439:3KGTPGBS6YSRS006MSH24Q1RDHVU2S", "current_trial": 105, "dateTime": 1510874139826, "trialdata": {"rt": -1, "stimulus": "<p id=\"stim\">MAILBOX</p>", "key_press": -1, "type": "PRES_VIS", "word": "mailbox", "wordID": 856, "conditions": [24, 800, "v", 24000], "trial": 2, "serialpos": 16, "trial_type": "single-stim", "trial_index": 105, "time_elapsed": 613074, "internal_node_id": "0.0-78.0"}}, {"uniqueid": "MTK0439:3KGTPGBS6YSRS006MSH24Q1RDHVU2S", "current_trial": 106, "dateTime": 1510874141704, "trialdata": {"rt": -1, "stimulus": "<p id=\"stim\">LASER</p>", "key_press": -1, "type": "PRES_VIS", "word": "laser", "wordID": 800, "conditions": [24, 800, "v", 24000], "trial": 2, "serialpos": 17, "trial_type": "single-stim", "trial_index": 106, "time_elapsed": 614952, "internal_node_id": "0.0-79.0"}}, {"uniqueid": "MTK0439:3KGTPGBS6YSRS006MSH24Q1RDHVU2S", "current_trial": 107, "dateTime": 1510874143485, "trialdata": {"rt": -1, "stimulus": "<p id=\"stim\">CABBAGE</p>", "key_press": -1, "type": "PRES_VIS", "word": "cabbage", "wordID": 209, "conditions": [24, 800, "v", 24000], "trial": 2, "serialpos": 18, "trial_type": "single-stim", "trial_index": 107, "time_elapsed": 616733, "internal_node_id": "0.0-80.0"}}, {"uniqueid": "MTK0439:3KGTPGBS6YSRS006MSH24Q1RDHVU2S", "current_trial": 108, "dateTime": 1510874145443, "trialdata": {"rt": -1, "stimulus": "<p id=\"stim\">TWEEZERS</p>", "key_press": -1, "type": "PRES_VIS", "word": "tweezers", "wordID": 1525, "conditions": [24, 800, "v", 24000], "trial": 2, "serialpos": 19, "trial_type": "single-stim", "trial_index": 108, "time_elapsed": 618690, "internal_node_id": "0.0-81.0"}}, {"uniqueid": "MTK0439:3KGTPGBS6YSRS006MSH24Q1RDHVU2S", "current_trial": 109, "dateTime": 1510874147270, "trialdata": {"rt": -1, "stimulus": "<p id=\"stim\">BARREL</p>", "key_press": -1, "type": "PRES_VIS", "word": "barrel", "wordID": 90, "conditions": [24, 800, "v", 24000], "trial": 2, "serialpos": 20, "trial_type": "single-stim", "trial_index": 109, "time_elapsed": 620518, "internal_node_id": "0.0-82.0"}}, {"uniqueid": "MTK0439:3KGTPGBS6YSRS006MSH24Q1RDHVU2S", "current_trial": 110, "dateTime": 1510874148913, "trialdata": {"rt": -1, "stimulus": "<p id=\"stim\">CASHIER</p>", "key_press": -1, "type": "PRES_VIS", "word": "cashier", "wordID": 253, "conditions": [24, 800, "v", 24000], "trial": 2, "serialpos": 21, "trial_type": "single-stim", "trial_index": 110, "time_elapsed": 622161, "internal_node_id": "0.0-83.0"}}, {"uniqueid": "MTK0439:3KGTPGBS6YSRS006MSH24Q1RDHVU2S", "current_trial": 111, "dateTime": 1510874150528, "trialdata": {"rt": -1, "stimulus": "<p id=\"stim\">HOSTESS</p>", "key_press": -1, "type": "PRES_VIS", "word": "hostess", "wordID": 722, "conditions": [24, 800, "v", 24000], "trial": 2, "serialpos": 22, "trial_type": "single-stim", "trial_index": 111, "time_elapsed": 623775, "internal_node_id": "0.0-84.0"}}, {"uniqueid": "MTK0439:3KGTPGBS6YSRS006MSH24Q1RDHVU2S", "current_trial": 112, "dateTime": 1510874152373, "trialdata": {"rt": -1, "stimulus": "<p id=\"stim\">NURSE</p>", "key_press": -1, "type": "PRES_VIS", "word": "nurse", "wordID": 962, "conditions": [24, 800, "v", 24000], "trial": 2, "serialpos": 23, "trial_type": "single-stim", "trial_index": 112, "time_elapsed": 625621, "internal_node_id": "0.0-85.0"}}, {"uniqueid": "MTK0439:3KGTPGBS6YSRS006MSH24Q1RDHVU2S", "current_trial": 113, "dateTime": 1510874154625, "trialdata": {"rt": -1, "stimulus": "", "key_press": -1, "type": "PRE_RECALL_DELAY", "trial_type": "single-stim", "trial_index": 113, "time_elapsed": 627873, "internal_node_id": "0.0-86.0-0.0"}}, {"uniqueid": "MTK0439:3KGTPGBS6YSRS006MSH24Q1RDHVU2S", "current_trial": 114, "dateTime": 1510874155136, "trialdata": {"rt": -1000, "stimulus": "/static/audio/400Hz.wav", "key_press": -1, "type": "PRE_RECALL_ALERT", "trial_type": "single-audio", "trial_index": 114, "time_elapsed": 628383, "internal_node_id": "0.0-87.0"}}, {"uniqueid": "MTK0439:3KGTPGBS6YSRS006MSH24Q1RDHVU2S", "current_trial": 115, "dateTime": 1510874215142, "trialdata": {"rt": [6603, 9219, 14339, 20747], "recwords": ["nurse", "paddi", "padding", "mailbox"], "type": "FREE_RECALL", "conditions": [24, 800, "v", 24000], "trial": 2, "trial_type": "free-recall", "trial_index": 115, "time_elapsed": 688387, "internal_node_id": "0.0-88.0-0.0"}}, {"uniqueid": "MTK0439:3KGTPGBS6YSRS006MSH24Q1RDHVU2S", "current_trial": 116, "dateTime": 1510874220350, "trialdata": {"rt": 3205, "key_press": 13, "type": "INSTRUCTIONS", "trial_type": "text", "trial_index": 116, "time_elapsed": 693598, "internal_node_id": "0.0-89.0"}}, {"uniqueid": "MTK0439:3KGTPGBS6YSRS006MSH24Q1RDHVU2S", "current_trial": 117, "dateTime": 1510874234353, "trialdata": {"rt": [3628, 7692, 10829], "responses": ["13", "14", "13"], "num1": [3, 6, 3, 8], "num2": [7, 9, 1, 8], "num3": [3, 2, 9, 1], "type": "DISTRACTOR", "conditions": [12, 800, "a", 12000], "trial": 3, "trial_type": "math-distractor", "trial_index": 117, "time_elapsed": 707601, "internal_node_id": "0.0-90.0"}}, {"uniqueid": "MTK0439:3KGTPGBS6YSRS006MSH24Q1RDHVU2S", "current_trial": 118, "dateTime": 1510874237354, "trialdata": {"rt": -1, "stimulus": "<p id=\"stim\">10</p>", "key_press": -1, "trial_type": "single-stim", "trial_index": 118, "time_elapsed": 710602, "internal_node_id": "0.0-91.0-0.0"}}, {"uniqueid": "MTK0439:3KGTPGBS6YSRS006MSH24Q1RDHVU2S", "current_trial": 119, "dateTime": 1510874238355, "trialdata": {"rt": -1, "stimulus": "<p id=\"stim\">9</p>", "key_press": -1, "trial_type": "single-stim", "trial_index": 119, "time_elapsed": 711602, "internal_node_id": "0.0-91.0-1.0"}}, {"uniqueid": "MTK0439:3KGTPGBS6YSRS006MSH24Q1RDHVU2S", "current_trial": 120, "dateTime": 1510874239360, "trialdata": {"rt": -1, "stimulus": "<p id=\"stim\">8</p>", "key_press": -1, "trial_type": "single-stim", "trial_index": 120, "time_elapsed": 712605, "internal_node_id": "0.0-91.0-2.0"}}, {"uniqueid": "MTK0439:3KGTPGBS6YSRS006MSH24Q1RDHVU2S", "current_trial": 121, "dateTime": 1510874240362, "trialdata": {"rt": -1, "stimulus": "<p id=\"stim\">7</p>", "key_press": -1, "trial_type": "single-stim", "trial_index": 121, "time_elapsed": 713610, "internal_node_id": "0.0-91.0-3.0"}}, {"uniqueid": "MTK0439:3KGTPGBS6YSRS006MSH24Q1RDHVU2S", "current_trial": 122, "dateTime": 1510874241364, "trialdata": {"rt": -1, "stimulus": "<p id=\"stim\">6</p>", "key_press": -1, "trial_type": "single-stim", "trial_index": 122, "time_elapsed": 714612, "internal_node_id": "0.0-91.0-4.0"}}, {"uniqueid": "MTK0439:3KGTPGBS6YSRS006MSH24Q1RDHVU2S", "current_trial": 123, "dateTime": 1510874242365, "trialdata": {"rt": -1, "stimulus": "<p id=\"stim\">5</p>", "key_press": -1, "trial_type": "single-stim", "trial_index": 123, "time_elapsed": 715613, "internal_node_id": "0.0-91.0-5.0"}}, {"uniqueid": "MTK0439:3KGTPGBS6YSRS006MSH24Q1RDHVU2S", "current_trial": 124, "dateTime": 1510874243366, "trialdata": {"rt": -1, "stimulus": "<p id=\"stim\">4</p>", "key_press": -1, "trial_type": "single-stim", "trial_index": 124, "time_elapsed": 716614, "internal_node_id": "0.0-91.0-6.0"}}, {"uniqueid": "MTK0439:3KGTPGBS6YSRS006MSH24Q1RDHVU2S", "current_trial": 125, "dateTime": 1510874244367, "trialdata": {"rt": -1, "stimulus": "<p id=\"stim\">3</p>", "key_press": -1, "trial_type": "single-stim", "trial_index": 125, "time_elapsed": 717615, "internal_node_id": "0.0-91.0-7.0"}}, {"uniqueid": "MTK0439:3KGTPGBS6YSRS006MSH24Q1RDHVU2S", "current_trial": 126, "dateTime": 1510874245368, "trialdata": {"rt": -1, "stimulus": "<p id=\"stim\">2</p>", "key_press": -1, "trial_type": "single-stim", "trial_index": 126, "time_elapsed": 718616, "internal_node_id": "0.0-91.0-8.0"}}, {"uniqueid": "MTK0439:3KGTPGBS6YSRS006MSH24Q1RDHVU2S", "current_trial": 127, "dateTime": 1510874246369, "trialdata": {"rt": -1, "stimulus": "<p id=\"stim\">1</p>", "key_press": -1, "trial_type": "single-stim", "trial_index": 127, "time_elapsed": 719617, "internal_node_id": "0.0-91.0-9.0"}}, {"uniqueid": "MTK0439:3KGTPGBS6YSRS006MSH24Q1RDHVU2S", "current_trial": 128, "dateTime": 1510874247871, "trialdata": {"rt": -1, "stimulus": "<p id=\"stim\">+</p>", "key_press": -1, "type": "FIXATION", "trial_type": "single-stim", "trial_index": 128, "time_elapsed": 721118, "internal_node_id": "0.0-92.0-0.0"}}, {"uniqueid": "MTK0439:3KGTPGBS6YSRS006MSH24Q1RDHVU2S", "current_trial": 129, "dateTime": 1510874249880, "trialdata": {"rt": -1000, "stimulus": "/static/audio/wordpool/BUG.wav", "key_press": -1, "type": "PRES_AUD", "word": "bug", "wordID": 186, "conditions": [12, 800, "a", 12000], "trial": 3, "serialpos": 0, "trial_type": "single-audio", "trial_index": 129, "time_elapsed": 723128, "internal_node_id": "0.0-93.0"}}, {"uniqueid": "MTK0439:3KGTPGBS6YSRS006MSH24Q1RDHVU2S", "current_trial": 130, "dateTime": 1510874251806, "trialdata": {"rt": -1000, "stimulus": "/static/audio/wordpool/FOREST.wav", "key_press": -1, "type": "PRES_AUD", "word": "forest", "wordID": 592, "conditions": [12, 800, "a", 12000], "trial": 3, "serialpos": 1, "trial_type": "single-audio", "trial_index": 130, "time_elapsed": 725053, "internal_node_id": "0.0-94.0"}}, {"uniqueid": "MTK0439:3KGTPGBS6YSRS006MSH24Q1RDHVU2S", "current_trial": 131, "dateTime": 1510874253505, "trialdata": {"rt": -1000, "stimulus": "/static/audio/wordpool/OUTLAW.wav", "key_press": -1, "type": "PRES_AUD", "word": "outlaw", "wordID": 988, "conditions": [12, 800, "a", 12000], "trial": 3, "serialpos": 2, "trial_type": "single-audio", "trial_index": 131, "time_elapsed": 726753, "internal_node_id": "0.0-95.0"}}, {"uniqueid": "MTK0439:3KGTPGBS6YSRS006MSH24Q1RDHVU2S", "current_trial": 132, "dateTime": 1510874255481, "trialdata": {"rt": -1000, "stimulus": "/static/audio/wordpool/FIREPLACE.wav", "key_press": -1, "type": "PRES_AUD", "word": "fireplace", "wordID": 569, "conditions": [12, 800, "a", 12000], "trial": 3, "serialpos": 3, "trial_type": "single-audio", "trial_index": 132, "time_elapsed": 728729, "internal_node_id": "0.0-96.0"}}, {"uniqueid": "MTK0439:3KGTPGBS6YSRS006MSH24Q1RDHVU2S", "current_trial": 133, "dateTime": 1510874257469, "trialdata": {"rt": -1000, "stimulus": "/static/audio/wordpool/SCARECROW.wav", "key_press": -1, "type": "PRES_AUD", "word": "scarecrow", "wordID": 1244, "conditions": [12, 800, "a", 12000], "trial": 3, "serialpos": 4, "trial_type": "single-audio", "trial_index": 133, "time_elapsed": 730717, "internal_node_id": "0.0-97.0"}}, {"uniqueid": "MTK0439:3KGTPGBS6YSRS006MSH24Q1RDHVU2S", "current_trial": 134, "dateTime": 1510874259193, "trialdata": {"rt": -1000, "stimulus": "/static/audio/wordpool/CARROT.wav", "key_press": -1, "type": "PRES_AUD", "word": "carrot", "wordID": 248, "conditions": [12, 800, "a", 12000], "trial": 3, "serialpos": 5, "trial_type": "single-audio", "trial_index": 134, "time_elapsed": 732441, "internal_node_id": "0.0-98.0"}}, {"uniqueid": "MTK0439:3KGTPGBS6YSRS006MSH24Q1RDHVU2S", "current_trial": 135, "dateTime": 1510874260805, "trialdata": {"rt": -1000, "stimulus": "/static/audio/wordpool/SNAKE.wav", "key_press": -1, "type": "PRES_AUD", "word": "snake", "wordID": 1332, "conditions": [12, 800, "a", 12000], "trial": 3, "serialpos": 6, "trial_type": "single-audio", "trial_index": 135, "time_elapsed": 734053, "internal_node_id": "0.0-99.0"}}, {"uniqueid": "MTK0439:3KGTPGBS6YSRS006MSH24Q1RDHVU2S", "current_trial": 136, "dateTime": 1510874262614, "trialdata": {"rt": -1000, "stimulus": "/static/audio/wordpool/MAPLE.wav", "key_press": -1, "type": "PRES_AUD", "word": "maple", "wordID": 865, "conditions": [12, 800, "a", 12000], "trial": 3, "serialpos": 7, "trial_type": "single-audio", "trial_index": 136, "time_elapsed": 735862, "internal_node_id": "0.0-100.0"}}, {"uniqueid": "MTK0439:3KGTPGBS6YSRS006MSH24Q1RDHVU2S", "current_trial": 137, "dateTime": 1510874264400, "trialdata": {"rt": -1000, "stimulus": "/static/audio/wordpool/KNIFE.wav", "key_press": -1, "type": "PRES_AUD", "word": "knife", "wordID": 784, "conditions": [12, 800, "a", 12000], "trial": 3, "serialpos": 8, "trial_type": "single-audio", "trial_index": 137, "time_elapsed": 737648, "internal_node_id": "0.0-101.0"}}, {"uniqueid": "MTK0439:3KGTPGBS6YSRS006MSH24Q1RDHVU2S", "current_trial": 138, "dateTime": 1510874266300, "trialdata": {"rt": -1000, "stimulus": "/static/audio/wordpool/RAZOR.wav", "key_press": -1, "type": "PRES_AUD", "word": "razor", "wordID": 1170, "conditions": [12, 800, "a", 12000], "trial": 3, "serialpos": 9, "trial_type": "single-audio", "trial_index": 138, "time_elapsed": 739548, "internal_node_id": "0.0-102.0"}}, {"uniqueid": "MTK0439:3KGTPGBS6YSRS006MSH24Q1RDHVU2S", "current_trial": 139, "dateTime": 1510874267938, "trialdata": {"rt": -1000, "stimulus": "/static/audio/wordpool/BUBBLE.wav", "key_press": -1, "type": "PRES_AUD", "word": "bubble", "wordID": 182, "conditions": [12, 800, "a", 12000], "trial": 3, "serialpos": 10, "trial_type": "single-audio", "trial_index": 139, "time_elapsed": 741186, "internal_node_id": "0.0-103.0"}}, {"uniqueid": "MTK0439:3KGTPGBS6YSRS006MSH24Q1RDHVU2S", "current_trial": 140, "dateTime": 1510874269805, "trialdata": {"rt": -1000, "stimulus": "/static/audio/wordpool/FOX.wav", "key_press": -1, "type": "PRES_AUD", "word": "fox", "wordID": 597, "conditions": [12, 800, "a", 12000], "trial": 3, "serialpos": 11, "trial_type": "single-audio", "trial_index": 140, "time_elapsed": 743053, "internal_node_id": "0.0-104.0"}}, {"uniqueid": "MTK0439:3KGTPGBS6YSRS006MSH24Q1RDHVU2S", "current_trial": 141, "dateTime": 1510874271047, "trialdata": {"rt": -1, "stimulus": "", "key_press": -1, "type": "PRE_RECALL_DELAY", "trial_type": "single-stim", "trial_index": 141, "time_elapsed": 744295, "internal_node_id": "0.0-105.0-0.0"}}, {"uniqueid": "MTK0439:3KGTPGBS6YSRS006MSH24Q1RDHVU2S", "current_trial": 142, "dateTime": 1510874271551, "trialdata": {"rt": -1000, "stimulus": "/static/audio/400Hz.wav", "key_press": -1, "type": "PRE_RECALL_ALERT", "trial_type": "single-audio", "trial_index": 142, "time_elapsed": 744799, "internal_node_id": "0.0-106.0"}}, {"uniqueid": "MTK0439:3KGTPGBS6YSRS006MSH24Q1RDHVU2S", "current_trial": 143, "dateTime": 1510874331560, "trialdata": {"rt": [4379, 13387, 16971, 35395], "recwords": ["bubble", "pause", "lake", "pus"], "type": "FREE_RECALL", "conditions": [12, 800, "a", 12000], "trial": 3, "trial_type": "free-recall", "trial_index": 143, "time_elapsed": 804803, "internal_node_id": "0.0-107.0-0.0"}}, {"uniqueid": "MTK0439:3KGTPGBS6YSRS006MSH24Q1RDHVU2S", "current_trial": 144, "dateTime": 1510874667719, "trialdata": {"rt": 334156, "key_press": 13, "type": "INSTRUCTIONS", "trial_type": "text", "trial_index": 144, "time_elapsed": 1140967, "internal_node_id": "0.0-108.0"}}, {"uniqueid": "MTK0439:3KGTPGBS6YSRS006MSH24Q1RDHVU2S", "current_trial": 145, "dateTime": 1510874681724, "trialdata": {"rt": [2546, 5994, 7818], "responses": ["10", "21", "11"], "num1": [4, 8, 4, 7], "num2": [2, 7, 5, 7], "num3": [4, 7, 2, 9], "type": "DISTRACTOR", "conditions": [24, 800, "a", 12000], "trial": 4, "trial_type": "math-distractor", "trial_index": 145, "time_elapsed": 1154972, "internal_node_id": "0.0-109.0"}}, {"uniqueid": "MTK0439:3KGTPGBS6YSRS006MSH24Q1RDHVU2S", "current_trial": 146, "dateTime": 1510874684725, "trialdata": {"rt": -1, "stimulus": "<p id=\"stim\">10</p>", "key_press": -1, "trial_type": "single-stim", "trial_index": 146, "time_elapsed": 1157973, "internal_node_id": "0.0-110.0-0.0"}}, {"uniqueid": "MTK0439:3KGTPGBS6YSRS006MSH24Q1RDHVU2S", "current_trial": 147, "dateTime": 1510874685727, "trialdata": {"rt": -1, "stimulus": "<p id=\"stim\">9</p>", "key_press": -1, "trial_type": "single-stim", "trial_index": 147, "time_elapsed": 1158975, "internal_node_id": "0.0-110.0-1.0"}}, {"uniqueid": "MTK0439:3KGTPGBS6YSRS006MSH24Q1RDHVU2S", "current_trial": 148, "dateTime": 1510874686729, "trialdata": {"rt": -1, "stimulus": "<p id=\"stim\">8</p>", "key_press": -1, "trial_type": "single-stim", "trial_index": 148, "time_elapsed": 1159977, "internal_node_id": "0.0-110.0-2.0"}}, {"uniqueid": "MTK0439:3KGTPGBS6YSRS006MSH24Q1RDHVU2S", "current_trial": 149, "dateTime": 1510874687732, "trialdata": {"rt": -1, "stimulus": "<p id=\"stim\">7</p>", "key_press": -1, "trial_type": "single-stim", "trial_index": 149, "time_elapsed": 1160980, "internal_node_id": "0.0-110.0-3.0"}}, {"uniqueid": "MTK0439:3KGTPGBS6YSRS006MSH24Q1RDHVU2S", "current_trial": 150, "dateTime": 1510874688733, "trialdata": {"rt": -1, "stimulus": "<p id=\"stim\">6</p>", "key_press": -1, "trial_type": "single-stim", "trial_index": 150, "time_elapsed": 1161981, "internal_node_id": "0.0-110.0-4.0"}}, {"uniqueid": "MTK0439:3KGTPGBS6YSRS006MSH24Q1RDHVU2S", "current_trial": 151, "dateTime": 1510874689735, "trialdata": {"rt": -1, "stimulus": "<p id=\"stim\">5</p>", "key_press": -1, "trial_type": "single-stim", "trial_index": 151, "time_elapsed": 1162983, "internal_node_id": "0.0-110.0-5.0"}}, {"uniqueid": "MTK0439:3KGTPGBS6YSRS006MSH24Q1RDHVU2S", "current_trial": 152, "dateTime": 1510874690738, "trialdata": {"rt": -1, "stimulus": "<p id=\"stim\">4</p>", "key_press": -1, "trial_type": "single-stim", "trial_index": 152, "time_elapsed": 1163985, "internal_node_id": "0.0-110.0-6.0"}}, {"uniqueid": "MTK0439:3KGTPGBS6YSRS006MSH24Q1RDHVU2S", "current_trial": 153, "dateTime": 1510874691742, "trialdata": {"rt": -1, "stimulus": "<p id=\"stim\">3</p>", "key_press": -1, "trial_type": "single-stim", "trial_index": 153, "time_elapsed": 1164990, "internal_node_id": "0.0-110.0-7.0"}}, {"uniqueid": "MTK0439:3KGTPGBS6YSRS006MSH24Q1RDHVU2S", "current_trial": 154, "dateTime": 1510874692744, "trialdata": {"rt": -1, "stimulus": "<p id=\"stim\">2</p>", "key_press": -1, "trial_type": "single-stim", "trial_index": 154, "time_elapsed": 1165992, "internal_node_id": "0.0-110.0-8.0"}}, {"uniqueid": "MTK0439:3KGTPGBS6YSRS006MSH24Q1RDHVU2S", "current_trial": 155, "dateTime": 1510874693746, "trialdata": {"rt": -1, "stimulus": "<p id=\"stim\">1</p>", "key_press": -1, "trial_type": "single-stim", "trial_index": 155, "time_elapsed": 1166994, "internal_node_id": "0.0-110.0-9.0"}}, {"uniqueid": "MTK0439:3KGTPGBS6YSRS006MSH24Q1RDHVU2S", "current_trial": 156, "dateTime": 1510874695247, "trialdata": {"rt": -1, "stimulus": "<p id=\"stim\">+</p>", "key_press": -1, "type": "FIXATION", "trial_type": "single-stim", "trial_index": 156, "time_elapsed": 1168495, "internal_node_id": "0.0-111.0-0.0"}}, {"uniqueid": "MTK0439:3KGTPGBS6YSRS006MSH24Q1RDHVU2S", "current_trial": 157, "dateTime": 1510874697102, "trialdata": {"rt": -1000, "stimulus": "/static/audio/wordpool/BRICK.wav", "key_press": -1, "type": "PRES_AUD", "word": "brick", "wordID": 171, "conditions": [24, 800, "a", 12000], "trial": 4, "serialpos": 0, "trial_type": "single-audio", "trial_index": 157, "time_elapsed": 1170349, "internal_node_id": "0.0-112.0"}}, {"uniqueid": "MTK0439:3KGTPGBS6YSRS006MSH24Q1RDHVU2S", "current_trial": 158, "dateTime": 1510874698952, "trialdata": {"rt": -1000, "stimulus": "/static/audio/wordpool/RUG.wav", "key_press": -1, "type": "PRES_AUD", "word": "rug", "wordID": 1214, "conditions": [24, 800, "a", 12000], "trial": 4, "serialpos": 1, "trial_type": "single-audio", "trial_index": 158, "time_elapsed": 1172200, "internal_node_id": "0.0-113.0"}}, {"uniqueid": "MTK0439:3KGTPGBS6YSRS006MSH24Q1RDHVU2S", "current_trial": 159, "dateTime": 1510874700858, "trialdata": {"rt": -1000, "stimulus": "/static/audio/wordpool/GRILL.wav", "key_press": -1, "type": "PRES_AUD", "word": "grill", "wordID": 660, "conditions": [24, 800, "a", 12000], "trial": 4, "serialpos": 2, "trial_type": "single-audio", "trial_index": 159, "time_elapsed": 1174106, "internal_node_id": "0.0-114.0"}}, {"uniqueid": "MTK0439:3KGTPGBS6YSRS006MSH24Q1RDHVU2S", "current_trial": 160, "dateTime": 1510874702492, "trialdata": {"rt": -1000, "stimulus": "/static/audio/wordpool/SKILLET.wav", "key_press": -1, "type": "PRES_AUD", "word": "skillet", "wordID": 1316, "conditions": [24, 800, "a", 12000], "trial": 4, "serialpos": 3, "trial_type": "single-audio", "trial_index": 160, "time_elapsed": 1175739, "internal_node_id": "0.0-115.0"}}, {"uniqueid": "MTK0439:3KGTPGBS6YSRS006MSH24Q1RDHVU2S", "current_trial": 161, "dateTime": 1510874704199, "trialdata": {"rt": -1000, "stimulus": "/static/audio/wordpool/PIZZA.wav", "key_press": -1, "type": "PRES_AUD", "word": "pizza", "wordID": 1078, "conditions": [24, 800, "a", 12000], "trial": 4, "serialpos": 4, "trial_type": "single-audio", "trial_index": 161, "time_elapsed": 1177447, "internal_node_id": "0.0-116.0"}}, {"uniqueid": "MTK0439:3KGTPGBS6YSRS006MSH24Q1RDHVU2S", "current_trial": 162, "dateTime": 1510874706060, "trialdata": {"rt": -1000, "stimulus": "/static/audio/wordpool/STAPLE.wav", "key_press": -1, "type": "PRES_AUD", "word": "staple", "wordID": 1370, "conditions": [24, 800, "a", 12000], "trial": 4, "serialpos": 5, "trial_type": "single-audio", "trial_index": 162, "time_elapsed": 1179308, "internal_node_id": "0.0-117.0"}}, {"uniqueid": "MTK0439:3KGTPGBS6YSRS006MSH24Q1RDHVU2S", "current_trial": 163, "dateTime": 1510874707860, "trialdata": {"rt": -1000, "stimulus": "/static/audio/wordpool/BACON.wav", "key_press": -1, "type": "PRES_AUD", "word": "bacon", "wordID": 66, "conditions": [24, 800, "a", 12000], "trial": 4, "serialpos": 6, "trial_type": "single-audio", "trial_index": 163, "time_elapsed": 1181108, "internal_node_id": "0.0-118.0"}}, {"uniqueid": "MTK0439:3KGTPGBS6YSRS006MSH24Q1RDHVU2S", "current_trial": 164, "dateTime": 1510874709672, "trialdata": {"rt": -1000, "stimulus": "/static/audio/wordpool/ROBBER.wav", "key_press": -1, "type": "PRES_AUD", "word": "robber", "wordID": 1196, "conditions": [24, 800, "a", 12000], "trial": 4, "serialpos": 7, "trial_type": "single-audio", "trial_index": 164, "time_elapsed": 1182920, "internal_node_id": "0.0-119.0"}}, {"uniqueid": "MTK0439:3KGTPGBS6YSRS006MSH24Q1RDHVU2S", "current_trial": 165, "dateTime": 1510874711626, "trialdata": {"rt": -1000, "stimulus": "/static/audio/wordpool/DENTIST.wav", "key_press": -1, "type": "PRES_AUD", "word": "dentist", "wordID": 446, "conditions": [24, 800, "a", 12000], "trial": 4, "serialpos": 8, "trial_type": "single-audio", "trial_index": 165, "time_elapsed": 1184874, "internal_node_id": "0.0-120.0"}}, {"uniqueid": "MTK0439:3KGTPGBS6YSRS006MSH24Q1RDHVU2S", "current_trial": 166, "dateTime": 1510874713335, "trialdata": {"rt": -1000, "stimulus": "/static/audio/wordpool/WAGON.wav", "key_press": -1, "type": "PRES_AUD", "word": "wagon", "wordID": 1577, "conditions": [24, 800, "a", 12000], "trial": 4, "serialpos": 9, "trial_type": "single-audio", "trial_index": 166, "time_elapsed": 1186583, "internal_node_id": "0.0-121.0"}}, {"uniqueid": "MTK0439:3KGTPGBS6YSRS006MSH24Q1RDHVU2S", "current_trial": 167, "dateTime": 1510874714955, "trialdata": {"rt": -1000, "stimulus": "/static/audio/wordpool/BLACKBOARD.wav", "key_press": -1, "type": "PRES_AUD", "word": "blackboard", "wordID": 132, "conditions": [24, 800, "a", 12000], "trial": 4, "serialpos": 10, "trial_type": "single-audio", "trial_index": 167, "time_elapsed": 1188203, "internal_node_id": "0.0-122.0"}}, {"uniqueid": "MTK0439:3KGTPGBS6YSRS006MSH24Q1RDHVU2S", "current_trial": 168, "dateTime": 1510874716647, "trialdata": {"rt": -1000, "stimulus": "/static/audio/wordpool/SAUSAGE.wav", "key_press": -1, "type": "PRES_AUD", "word": "sausage", "wordID": 1237, "conditions": [24, 800, "a", 12000], "trial": 4, "serialpos": 11, "trial_type": "single-audio", "trial_index": 168, "time_elapsed": 1189895, "internal_node_id": "0.0-123.0"}}, {"uniqueid": "MTK0439:3KGTPGBS6YSRS006MSH24Q1RDHVU2S", "current_trial": 169, "dateTime": 1510874718283, "trialdata": {"rt": -1000, "stimulus": "/static/audio/wordpool/OUTFIT.wav", "key_press": -1, "type": "PRES_AUD", "word": "outfit", "wordID": 987, "conditions": [24, 800, "a", 12000], "trial": 4, "serialpos": 12, "trial_type": "single-audio", "trial_index": 169, "time_elapsed": 1191531, "internal_node_id": "0.0-124.0"}}, {"uniqueid": "MTK0439:3KGTPGBS6YSRS006MSH24Q1RDHVU2S", "current_trial": 170, "dateTime": 1510874720020, "trialdata": {"rt": -1000, "stimulus": "/static/audio/wordpool/GRAPE.wav", "key_press": -1, "type": "PRES_AUD", "word": "grape", "wordID": 653, "conditions": [24, 800, "a", 12000], "trial": 4, "serialpos": 13, "trial_type": "single-audio", "trial_index": 170, "time_elapsed": 1193267, "internal_node_id": "0.0-125.0"}}, {"uniqueid": "MTK0439:3KGTPGBS6YSRS006MSH24Q1RDHVU2S", "current_trial": 171, "dateTime": 1510874721668, "trialdata": {"rt": -1000, "stimulus": "/static/audio/wordpool/PERCH.wav", "key_press": -1, "type": "PRES_AUD", "word": "perch", "wordID": 1047, "conditions": [24, 800, "a", 12000], "trial": 4, "serialpos": 14, "trial_type": "single-audio", "trial_index": 171, "time_elapsed": 1194916, "internal_node_id": "0.0-126.0"}}, {"uniqueid": "MTK0439:3KGTPGBS6YSRS006MSH24Q1RDHVU2S", "current_trial": 172, "dateTime": 1510874723401, "trialdata": {"rt": -1000, "stimulus": "/static/audio/wordpool/CHEST.wav", "key_press": -1, "type": "PRES_AUD", "word": "chest", "wordID": 294, "conditions": [24, 800, "a", 12000], "trial": 4, "serialpos": 15, "trial_type": "single-audio", "trial_index": 172, "time_elapsed": 1196649, "internal_node_id": "0.0-127.0"}}, {"uniqueid": "MTK0439:3KGTPGBS6YSRS006MSH24Q1RDHVU2S", "current_trial": 173, "dateTime": 1510874725274, "trialdata": {"rt": -1000, "stimulus": "/static/audio/wordpool/STOMACH.wav", "key_press": -1, "type": "PRES_AUD", "word": "stomach", "wordID": 1383, "conditions": [24, 800, "a", 12000], "trial": 4, "serialpos": 16, "trial_type": "single-audio", "trial_index": 173, "time_elapsed": 1198522, "internal_node_id": "0.0-128.0"}}, {"uniqueid": "MTK0439:3KGTPGBS6YSRS006MSH24Q1RDHVU2S", "current_trial": 174, "dateTime": 1510874727161, "trialdata": {"rt": -1000, "stimulus": "/static/audio/wordpool/DUST.wav", "key_press": -1, "type": "PRES_AUD", "word": "dust", "wordID": 507, "conditions": [24, 800, "a", 12000], "trial": 4, "serialpos": 17, "trial_type": "single-audio", "trial_index": 174, "time_elapsed": 1200409, "internal_node_id": "0.0-129.0"}}, {"uniqueid": "MTK0439:3KGTPGBS6YSRS006MSH24Q1RDHVU2S", "current_trial": 175, "dateTime": 1510874728912, "trialdata": {"rt": -1000, "stimulus": "/static/audio/wordpool/CURTAIN.wav", "key_press": -1, "type": "PRES_AUD", "word": "curtain", "wordID": 426, "conditions": [24, 800, "a", 12000], "trial": 4, "serialpos": 18, "trial_type": "single-audio", "trial_index": 175, "time_elapsed": 1202160, "internal_node_id": "0.0-130.0"}}, {"uniqueid": "MTK0439:3KGTPGBS6YSRS006MSH24Q1RDHVU2S", "current_trial": 176, "dateTime": 1510874730715, "trialdata": {"rt": -1000, "stimulus": "/static/audio/wordpool/PEACH.wav", "key_press": -1, "type": "PRES_AUD", "word": "peach", "wordID": 1030, "conditions": [24, 800, "a", 12000], "trial": 4, "serialpos": 19, "trial_type": "single-audio", "trial_index": 176, "time_elapsed": 1203962, "internal_node_id": "0.0-131.0"}}, {"uniqueid": "MTK0439:3KGTPGBS6YSRS006MSH24Q1RDHVU2S", "current_trial": 177, "dateTime": 1510874732586, "trialdata": {"rt": -1000, "stimulus": "/static/audio/wordpool/EGYPT.wav", "key_press": -1, "type": "PRES_AUD", "word": "egypt", "wordID": 518, "conditions": [24, 800, "a", 12000], "trial": 4, "serialpos": 20, "trial_type": "single-audio", "trial_index": 177, "time_elapsed": 1205834, "internal_node_id": "0.0-132.0"}}, {"uniqueid": "MTK0439:3KGTPGBS6YSRS006MSH24Q1RDHVU2S", "current_trial": 178, "dateTime": 1510874734273, "trialdata": {"rt": -1000, "stimulus": "/static/audio/wordpool/WAITER.wav", "key_press": -1, "type": "PRES_AUD", "word": "waiter", "wordID": 1579, "conditions": [24, 800, "a", 12000], "trial": 4, "serialpos": 21, "trial_type": "single-audio", "trial_index": 178, "time_elapsed": 1207521, "internal_node_id": "0.0-133.0"}}, {"uniqueid": "MTK0439:3KGTPGBS6YSRS006MSH24Q1RDHVU2S", "current_trial": 179, "dateTime": 1510874735913, "trialdata": {"rt": -1000, "stimulus": "/static/audio/wordpool/DASHBOARD.wav", "key_press": -1, "type": "PRES_AUD", "word": "dashboard", "wordID": 440, "conditions": [24, 800, "a", 12000], "trial": 4, "serialpos": 22, "trial_type": "single-audio", "trial_index": 179, "time_elapsed": 1209161, "internal_node_id": "0.0-134.0"}}, {"uniqueid": "MTK0439:3KGTPGBS6YSRS006MSH24Q1RDHVU2S", "current_trial": 180, "dateTime": 1510874737854, "trialdata": {"rt": -1000, "stimulus": "/static/audio/wordpool/BUCKET.wav", "key_press": -1, "type": "PRES_AUD", "word": "bucket", "wordID": 183, "conditions": [24, 800, "a", 12000], "trial": 4, "serialpos": 23, "trial_type": "single-audio", "trial_index": 180, "time_elapsed": 1211102, "internal_node_id": "0.0-135.0"}}, {"uniqueid": "MTK0439:3KGTPGBS6YSRS006MSH24Q1RDHVU2S", "current_trial": 181, "dateTime": 1510874739189, "trialdata": {"rt": -1, "stimulus": "", "key_press": -1, "type": "PRE_RECALL_DELAY", "trial_type": "single-stim", "trial_index": 181, "time_elapsed": 1212437, "internal_node_id": "0.0-136.0-0.0"}}, {"uniqueid": "MTK0439:3KGTPGBS6YSRS006MSH24Q1RDHVU2S", "current_trial": 182, "dateTime": 1510874739690, "trialdata": {"rt": -1000, "stimulus": "/static/audio/400Hz.wav", "key_press": -1, "type": "PRE_RECALL_ALERT", "trial_type": "single-audio", "trial_index": 182, "time_elapsed": 1212938, "internal_node_id": "0.0-137.0"}}, {"uniqueid": "MTK0439:3KGTPGBS6YSRS006MSH24Q1RDHVU2S", "current_trial": 183, "dateTime": 1510874799699, "trialdata": {"rt": [5702, 7022, 9366, 14142, 16718, 21206, 26622, 33814], "recwords": ["bucket", "bacon", "grill", "pizza", "skillet", "eqypt", "ocean", "grape"], "type": "FREE_RECALL", "conditions": [24, 800, "a", 12000], "trial": 4, "trial_type": "free-recall", "trial_index": 183, "time_elapsed": 1272943, "internal_node_id": "0.0-138.0-0.0"}}, {"uniqueid": "MTK0439:3KGTPGBS6YSRS006MSH24Q1RDHVU2S", "current_trial": 184, "dateTime": 1510874804068, "trialdata": {"rt": 2367, "key_press": 13, "type": "INSTRUCTIONS", "trial_type": "text", "trial_index": 184, "time_elapsed": 1277316, "internal_node_id": "0.0-139.0"}}, {"uniqueid": "MTK0439:3KGTPGBS6YSRS006MSH24Q1RDHVU2S", "current_trial": 185, "dateTime": 1510874830070, "trialdata": {"rt": [3462, 7302, 11470, 17054, 19349, 23454], "responses": ["18", "16", "16", "25", "13", "17"], "num1": [5, 5, 7, 8, 3, 3, 6], "num2": [8, 7, 5, 9, 9, 9, 3], "num3": [5, 6, 4, 8, 1, 5, 3], "type": "DISTRACTOR", "conditions": [12, 800, "v", 24000], "trial": 5, "trial_type": "math-distractor", "trial_index": 185, "time_elapsed": 1303318, "internal_node_id": "0.0-140.0"}}, {"uniqueid": "MTK0439:3KGTPGBS6YSRS006MSH24Q1RDHVU2S", "current_trial": 186, "dateTime": 1510874833072, "trialdata": {"rt": -1, "stimulus": "<p id=\"stim\">10</p>", "key_press": -1, "trial_type": "single-stim", "trial_index": 186, "time_elapsed": 1306320, "internal_node_id": "0.0-141.0-0.0"}}, {"uniqueid": "MTK0439:3KGTPGBS6YSRS006MSH24Q1RDHVU2S", "current_trial": 187, "dateTime": 1510874834073, "trialdata": {"rt": -1, "stimulus": "<p id=\"stim\">9</p>", "key_press": -1, "trial_type": "single-stim", "trial_index": 187, "time_elapsed": 1307321, "internal_node_id": "0.0-141.0-1.0"}}, {"uniqueid": "MTK0439:3KGTPGBS6YSRS006MSH24Q1RDHVU2S", "current_trial": 188, "dateTime": 1510874835075, "trialdata": {"rt": -1, "stimulus": "<p id=\"stim\">8</p>", "key_press": -1, "trial_type": "single-stim", "trial_index": 188, "time_elapsed": 1308323, "internal_node_id": "0.0-141.0-2.0"}}, {"uniqueid": "MTK0439:3KGTPGBS6YSRS006MSH24Q1RDHVU2S", "current_trial": 189, "dateTime": 1510874836076, "trialdata": {"rt": -1, "stimulus": "<p id=\"stim\">7</p>", "key_press": -1, "trial_type": "single-stim", "trial_index": 189, "time_elapsed": 1309324, "internal_node_id": "0.0-141.0-3.0"}}, {"uniqueid": "MTK0439:3KGTPGBS6YSRS006MSH24Q1RDHVU2S", "current_trial": 190, "dateTime": 1510874837077, "trialdata": {"rt": -1, "stimulus": "<p id=\"stim\">6</p>", "key_press": -1, "trial_type": "single-stim", "trial_index": 190, "time_elapsed": 1310325, "internal_node_id": "0.0-141.0-4.0"}}, {"uniqueid": "MTK0439:3KGTPGBS6YSRS006MSH24Q1RDHVU2S", "current_trial": 191, "dateTime": 1510874838078, "trialdata": {"rt": -1, "stimulus": "<p id=\"stim\">5</p>", "key_press": -1, "trial_type": "single-stim", "trial_index": 191, "time_elapsed": 1311326, "internal_node_id": "0.0-141.0-5.0"}}, {"uniqueid": "MTK0439:3KGTPGBS6YSRS006MSH24Q1RDHVU2S", "current_trial": 192, "dateTime": 1510874839079, "trialdata": {"rt": -1, "stimulus": "<p id=\"stim\">4</p>", "key_press": -1, "trial_type": "single-stim", "trial_index": 192, "time_elapsed": 1312327, "internal_node_id": "0.0-141.0-6.0"}}, {"uniqueid": "MTK0439:3KGTPGBS6YSRS006MSH24Q1RDHVU2S", "current_trial": 193, "dateTime": 1510874840080, "trialdata": {"rt": -1, "stimulus": "<p id=\"stim\">3</p>", "key_press": -1, "trial_type": "single-stim", "trial_index": 193, "time_elapsed": 1313328, "internal_node_id": "0.0-141.0-7.0"}}, {"uniqueid": "MTK0439:3KGTPGBS6YSRS006MSH24Q1RDHVU2S", "current_trial": 194, "dateTime": 1510874841082, "trialdata": {"rt": -1, "stimulus": "<p id=\"stim\">2</p>", "key_press": -1, "trial_type": "single-stim", "trial_index": 194, "time_elapsed": 1314330, "internal_node_id": "0.0-141.0-8.0"}}, {"uniqueid": "MTK0439:3KGTPGBS6YSRS006MSH24Q1RDHVU2S", "current_trial": 195, "dateTime": 1510874842084, "trialdata": {"rt": -1, "stimulus": "<p id=\"stim\">1</p>", "key_press": -1, "trial_type": "single-stim", "trial_index": 195, "time_elapsed": 1315332, "internal_node_id": "0.0-141.0-9.0"}}, {"uniqueid": "MTK0439:3KGTPGBS6YSRS006MSH24Q1RDHVU2S", "current_trial": 196, "dateTime": 1510874843585, "trialdata": {"rt": -1, "stimulus": "<p id=\"stim\">+</p>", "key_press": -1, "type": "FIXATION", "trial_type": "single-stim", "trial_index": 196, "time_elapsed": 1316833, "internal_node_id": "0.0-142.0-0.0"}}, {"uniqueid": "MTK0439:3KGTPGBS6YSRS006MSH24Q1RDHVU2S", "current_trial": 197, "dateTime": 1510874844386, "trialdata": {"rt": -1, "stimulus": "<p id=\"stim\">WASHER</p>", "key_press": -1, "type": "PRES_VIS", "word": "washer", "wordID": 1591, "conditions": [12, 800, "v", 24000], "trial": 5, "serialpos": 0, "trial_type": "single-stim", "trial_index": 197, "time_elapsed": 1317634, "internal_node_id": "0.0-143.0"}}, {"uniqueid": "MTK0439:3KGTPGBS6YSRS006MSH24Q1RDHVU2S", "current_trial": 198, "dateTime": 1510874846273, "trialdata": {"rt": -1, "stimulus": "<p id=\"stim\">CATTLE</p>", "key_press": -1, "type": "PRES_VIS", "word": "cattle", "wordID": 260, "conditions": [12, 800, "v", 24000], "trial": 5, "serialpos": 1, "trial_type": "single-stim", "trial_index": 198, "time_elapsed": 1319521, "internal_node_id": "0.0-144.0"}}, {"uniqueid": "MTK0439:3KGTPGBS6YSRS006MSH24Q1RDHVU2S", "current_trial": 199, "dateTime": 1510874847911, "trialdata": {"rt": -1, "stimulus": "<p id=\"stim\">BLOUSE</p>", "key_press": -1, "type": "PRES_VIS", "word": "blouse", "wordID": 138, "conditions": [12, 800, "v", 24000], "trial": 5, "serialpos": 2, "trial_type": "single-stim", "trial_index": 199, "time_elapsed": 1321159, "internal_node_id": "0.0-145.0"}}, {"uniqueid": "MTK0439:3KGTPGBS6YSRS006MSH24Q1RDHVU2S", "current_trial": 200, "dateTime": 1510874849529, "trialdata": {"rt": -1, "stimulus": "<p id=\"stim\">SHIRT</p>", "key_press": -1, "type": "PRES_VIS", "word": "shirt", "wordID": 1286, "conditions": [12, 800, "v", 24000], "trial": 5, "serialpos": 3, "trial_type": "single-stim", "trial_index": 200, "time_elapsed": 1322776, "internal_node_id": "0.0-146.0"}}, {"uniqueid": "MTK0439:3KGTPGBS6YSRS006MSH24Q1RDHVU2S", "current_trial": 201, "dateTime": 1510874851471, "trialdata": {"rt": -1, "stimulus": "<p id=\"stim\">EXPERT</p>", "key_press": -1, "type": "PRES_VIS", "word": "expert", "wordID": 542, "conditions": [12, 800, "v", 24000], "trial": 5, "serialpos": 4, "trial_type": "single-stim", "trial_index": 201, "time_elapsed": 1324719, "internal_node_id": "0.0-147.0"}}, {"uniqueid": "MTK0439:3KGTPGBS6YSRS006MSH24Q1RDHVU2S", "current_trial": 202, "dateTime": 1510874853204, "trialdata": {"rt": -1, "stimulus": "<p id=\"stim\">CRITIC</p>", "key_press": -1, "type": "PRES_VIS", "word": "critic", "wordID": 409, "conditions": [12, 800, "v", 24000], "trial": 5, "serialpos": 5, "trial_type": "single-stim", "trial_index": 202, "time_elapsed": 1326452, "internal_node_id": "0.0-148.0"}}, {"uniqueid": "MTK0439:3KGTPGBS6YSRS006MSH24Q1RDHVU2S", "current_trial": 203, "dateTime": 1510874855067, "trialdata": {"rt": -1, "stimulus": "<p id=\"stim\">ARM</p>", "key_press": -1, "type": "PRES_VIS", "word": "arm", "wordID": 37, "conditions": [12, 800, "v", 24000], "trial": 5, "serialpos": 6, "trial_type": "single-stim", "trial_index": 203, "time_elapsed": 1328314, "internal_node_id": "0.0-149.0"}}, {"uniqueid": "MTK0439:3KGTPGBS6YSRS006MSH24Q1RDHVU2S", "current_trial": 204, "dateTime": 1510874856954, "trialdata": {"rt": -1, "stimulus": "<p id=\"stim\">WRENCH</p>", "key_press": -1, "type": "PRES_VIS", "word": "wrench", "wordID": 1624, "conditions": [12, 800, "v", 24000], "trial": 5, "serialpos": 7, "trial_type": "single-stim", "trial_index": 204, "time_elapsed": 1330202, "internal_node_id": "0.0-150.0"}}, {"uniqueid": "MTK0439:3KGTPGBS6YSRS006MSH24Q1RDHVU2S", "current_trial": 205, "dateTime": 1510874858763, "trialdata": {"rt": -1, "stimulus": "<p id=\"stim\">BREAST</p>", "key_press": -1, "type": "PRES_VIS", "word": "breast", "wordID": 170, "conditions": [12, 800, "v", 24000], "trial": 5, "serialpos": 8, "trial_type": "single-stim", "trial_index": 205, "time_elapsed": 1332010, "internal_node_id": "0.0-151.0"}}, {"uniqueid": "MTK0439:3KGTPGBS6YSRS006MSH24Q1RDHVU2S", "current_trial": 206, "dateTime": 1510874860372, "trialdata": {"rt": -1, "stimulus": "<p id=\"stim\">BEEF</p>", "key_press": -1, "type": "PRES_VIS", "word": "beef", "wordID": 112, "conditions": [12, 800, "v", 24000], "trial": 5, "serialpos": 9, "trial_type": "single-stim", "trial_index": 206, "time_elapsed": 1333620, "internal_node_id": "0.0-152.0"}}, {"uniqueid": "MTK0439:3KGTPGBS6YSRS006MSH24Q1RDHVU2S", "current_trial": 207, "dateTime": 1510874862269, "trialdata": {"rt": -1, "stimulus": "<p id=\"stim\">NIGHTGOWN</p>", "key_press": -1, "type": "PRES_VIS", "word": "nightgown", "wordID": 952, "conditions": [12, 800, "v", 24000], "trial": 5, "serialpos": 10, "trial_type": "single-stim", "trial_index": 207, "time_elapsed": 1335517, "internal_node_id": "0.0-153.0"}}, {"uniqueid": "MTK0439:3KGTPGBS6YSRS006MSH24Q1RDHVU2S", "current_trial": 208, "dateTime": 1510874864043, "trialdata": {"rt": -1, "stimulus": "<p id=\"stim\">MONEY</p>", "key_press": -1, "type": "PRES_VIS", "word": "money", "wordID": 907, "conditions": [12, 800, "v", 24000], "trial": 5, "serialpos": 11, "trial_type": "single-stim", "trial_index": 208, "time_elapsed": 1337291, "internal_node_id": "0.0-154.0"}}, {"uniqueid": "MTK0439:3KGTPGBS6YSRS006MSH24Q1RDHVU2S", "current_trial": 209, "dateTime": 1510874866485, "trialdata": {"rt": -1, "stimulus": "", "key_press": -1, "type": "PRE_RECALL_DELAY", "trial_type": "single-stim", "trial_index": 209, "time_elapsed": 1339733, "internal_node_id": "0.0-155.0-0.0"}}, {"uniqueid": "MTK0439:3KGTPGBS6YSRS006MSH24Q1RDHVU2S", "current_trial": 210, "dateTime": 1510874866986, "trialdata": {"rt": -1000, "stimulus": "/static/audio/400Hz.wav", "key_press": -1, "type": "PRE_RECALL_ALERT", "trial_type": "single-audio", "trial_index": 210, "time_elapsed": 1340234, "internal_node_id": "0.0-156.0"}}, {"uniqueid": "MTK0439:3KGTPGBS6YSRS006MSH24Q1RDHVU2S", "current_trial": 211, "dateTime": 1510874926995, "trialdata": {"rt": [2727, 4887, 10863], "recwords": ["money", "breast", "cattle"], "type": "FREE_RECALL", "conditions": [12, 800, "v", 24000], "trial": 5, "trial_type": "free-recall", "trial_index": 211, "time_elapsed": 1400239, "internal_node_id": "0.0-157.0-0.0"}}, {"uniqueid": "MTK0439:3KGTPGBS6YSRS006MSH24Q1RDHVU2S", "current_trial": 212, "dateTime": 1510874957925, "trialdata": {"rt": 28926, "key_press": 13, "type": "INSTRUCTIONS", "trial_type": "text", "trial_index": 212, "time_elapsed": 1431173, "internal_node_id": "0.0-158.0"}}, {"uniqueid": "MTK0439:3KGTPGBS6YSRS006MSH24Q1RDHVU2S", "current_trial": 213, "dateTime": 1510874971929, "trialdata": {"rt": [3957, 9132, 10756], "responses": ["17", "21", "13"], "num1": [9, 5, 6, 7], "num2": [5, 9, 6, 7], "num3": [3, 7, 1, 4], "type": "DISTRACTOR", "conditions": [24, 1600, "v", 12000], "trial": 6, "trial_type": "math-distractor", "trial_index": 213, "time_elapsed": 1445177, "internal_node_id": "0.0-159.0"}}, {"uniqueid": "MTK0439:3KGTPGBS6YSRS006MSH24Q1RDHVU2S", "current_trial": 214, "dateTime": 1510874974931, "trialdata": {"rt": -1, "stimulus": "<p id=\"stim\">10</p>", "key_press": -1, "trial_type": "single-stim", "trial_index": 214, "time_elapsed": 1448179, "internal_node_id": "0.0-160.0-0.0"}}, {"uniqueid": "MTK0439:3KGTPGBS6YSRS006MSH24Q1RDHVU2S", "current_trial": 215, "dateTime": 1510874975932, "trialdata": {"rt": -1, "stimulus": "<p id=\"stim\">9</p>", "key_press": -1, "trial_type": "single-stim", "trial_index": 215, "time_elapsed": 1449179, "internal_node_id": "0.0-160.0-1.0"}}, {"uniqueid": "MTK0439:3KGTPGBS6YSRS006MSH24Q1RDHVU2S", "current_trial": 216, "dateTime": 1510874976934, "trialdata": {"rt": -1, "stimulus": "<p id=\"stim\">8</p>", "key_press": -1, "trial_type": "single-stim", "trial_index": 216, "time_elapsed": 1450182, "internal_node_id": "0.0-160.0-2.0"}}, {"uniqueid": "MTK0439:3KGTPGBS6YSRS006MSH24Q1RDHVU2S", "current_trial": 217, "dateTime": 1510874977935, "trialdata": {"rt": -1, "stimulus": "<p id=\"stim\">7</p>", "key_press": -1, "trial_type": "single-stim", "trial_index": 217, "time_elapsed": 1451183, "internal_node_id": "0.0-160.0-3.0"}}, {"uniqueid": "MTK0439:3KGTPGBS6YSRS006MSH24Q1RDHVU2S", "current_trial": 218, "dateTime": 1510874978936, "trialdata": {"rt": -1, "stimulus": "<p id=\"stim\">6</p>", "key_press": -1, "trial_type": "single-stim", "trial_index": 218, "time_elapsed": 1452184, "internal_node_id": "0.0-160.0-4.0"}}, {"uniqueid": "MTK0439:3KGTPGBS6YSRS006MSH24Q1RDHVU2S", "current_trial": 219, "dateTime": 1510874979937, "trialdata": {"rt": -1, "stimulus": "<p id=\"stim\">5</p>", "key_press": -1, "trial_type": "single-stim", "trial_index": 219, "time_elapsed": 1453185, "internal_node_id": "0.0-160.0-5.0"}}, {"uniqueid": "MTK0439:3KGTPGBS6YSRS006MSH24Q1RDHVU2S", "current_trial": 220, "dateTime": 1510874980938, "trialdata": {"rt": -1, "stimulus": "<p id=\"stim\">4</p>", "key_press": -1, "trial_type": "single-stim", "trial_index": 220, "time_elapsed": 1454186, "internal_node_id": "0.0-160.0-6.0"}}, {"uniqueid": "MTK0439:3KGTPGBS6YSRS006MSH24Q1RDHVU2S", "current_trial": 221, "dateTime": 1510874981942, "trialdata": {"rt": -1, "stimulus": "<p id=\"stim\">3</p>", "key_press": -1, "trial_type": "single-stim", "trial_index": 221, "time_elapsed": 1455190, "internal_node_id": "0.0-160.0-7.0"}}, {"uniqueid": "MTK0439:3KGTPGBS6YSRS006MSH24Q1RDHVU2S", "current_trial": 222, "dateTime": 1510874982944, "trialdata": {"rt": -1, "stimulus": "<p id=\"stim\">2</p>", "key_press": -1, "trial_type": "single-stim", "trial_index": 222, "time_elapsed": 1456192, "internal_node_id": "0.0-160.0-8.0"}}, {"uniqueid": "MTK0439:3KGTPGBS6YSRS006MSH24Q1RDHVU2S", "current_trial": 223, "dateTime": 1510874983945, "trialdata": {"rt": -1, "stimulus": "<p id=\"stim\">1</p>", "key_press": -1, "trial_type": "single-stim", "trial_index": 223, "time_elapsed": 1457193, "internal_node_id": "0.0-160.0-9.0"}}, {"uniqueid": "MTK0439:3KGTPGBS6YSRS006MSH24Q1RDHVU2S", "current_trial": 224, "dateTime": 1510874985446, "trialdata": {"rt": -1, "stimulus": "<p id=\"stim\">+</p>", "key_press": -1, "type": "FIXATION", "trial_type": "single-stim", "trial_index": 224, "time_elapsed": 1458694, "internal_node_id": "0.0-161.0-0.0"}}, {"uniqueid": "MTK0439:3KGTPGBS6YSRS006MSH24Q1RDHVU2S", "current_trial": 225, "dateTime": 1510874987048, "trialdata": {"rt": -1, "stimulus": "<p id=\"stim\">SLIDE</p>", "key_press": -1, "type": "PRES_VIS", "word": "slide", "wordID": 1325, "conditions": [24, 1600, "v", 12000], "trial": 6, "serialpos": 0, "trial_type": "single-stim", "trial_index": 225, "time_elapsed": 1460296, "internal_node_id": "0.0-162.0"}}, {"uniqueid": "MTK0439:3KGTPGBS6YSRS006MSH24Q1RDHVU2S", "current_trial": 226, "dateTime": 1510874989482, "trialdata": {"rt": -1, "stimulus": "<p id=\"stim\">NAPKIN</p>", "key_press": -1, "type": "PRES_VIS", "word": "napkin", "wordID": 936, "conditions": [24, 1600, "v", 12000], "trial": 6, "serialpos": 1, "trial_type": "single-stim", "trial_index": 226, "time_elapsed": 1462730, "internal_node_id": "0.0-163.0"}}, {"uniqueid": "MTK0439:3KGTPGBS6YSRS006MSH24Q1RDHVU2S", "current_trial": 227, "dateTime": 1510874992078, "trialdata": {"rt": -1, "stimulus": "<p id=\"stim\">TEMPLE</p>", "key_press": -1, "type": "PRES_VIS", "word": "temple", "wordID": 1447, "conditions": [24, 1600, "v", 12000], "trial": 6, "serialpos": 2, "trial_type": "single-stim", "trial_index": 227, "time_elapsed": 1465326, "internal_node_id": "0.0-164.0"}}, {"uniqueid": "MTK0439:3KGTPGBS6YSRS006MSH24Q1RDHVU2S", "current_trial": 228, "dateTime": 1510874994778, "trialdata": {"rt": -1, "stimulus": "<p id=\"stim\">FRIEND</p>", "key_press": -1, "type": "PRES_VIS", "word": "friend", "wordID": 605, "conditions": [24, 1600, "v", 12000], "trial": 6, "serialpos": 3, "trial_type": "single-stim", "trial_index": 228, "time_elapsed": 1468026, "internal_node_id": "0.0-165.0"}}, {"uniqueid": "MTK0439:3KGTPGBS6YSRS006MSH24Q1RDHVU2S", "current_trial": 229, "dateTime": 1510874997416, "trialdata": {"rt": -1, "stimulus": "<p id=\"stim\">CHAPEL</p>", "key_press": -1, "type": "PRES_VIS", "word": "chapel", "wordID": 279, "conditions": [24, 1600, "v", 12000], "trial": 6, "serialpos": 4, "trial_type": "single-stim", "trial_index": 229, "time_elapsed": 1470663, "internal_node_id": "0.0-166.0"}}, {"uniqueid": "MTK0439:3KGTPGBS6YSRS006MSH24Q1RDHVU2S", "current_trial": 230, "dateTime": 1510874999851, "trialdata": {"rt": -1, "stimulus": "<p id=\"stim\">CHURCH</p>", "key_press": -1, "type": "PRES_VIS", "word": "church", "wordID": 306, "conditions": [24, 1600, "v", 12000], "trial": 6, "serialpos": 5, "trial_type": "single-stim", "trial_index": 230, "time_elapsed": 1473099, "internal_node_id": "0.0-167.0"}}, {"uniqueid": "MTK0439:3KGTPGBS6YSRS006MSH24Q1RDHVU2S", "current_trial": 231, "dateTime": 1510875002546, "trialdata": {"rt": -1, "stimulus": "<p id=\"stim\">OINTMENT</p>", "key_press": -1, "type": "PRES_VIS", "word": "ointment", "wordID": 973, "conditions": [24, 1600, "v", 12000], "trial": 6, "serialpos": 6, "trial_type": "single-stim", "trial_index": 231, "time_elapsed": 1475794, "internal_node_id": "0.0-168.0"}}, {"uniqueid": "MTK0439:3KGTPGBS6YSRS006MSH24Q1RDHVU2S", "current_trial": 232, "dateTime": 1510875005122, "trialdata": {"rt": -1, "stimulus": "<p id=\"stim\">RAFT</p>", "key_press": -1, "type": "PRES_VIS", "word": "raft", "wordID": 1158, "conditions": [24, 1600, "v", 12000], "trial": 6, "serialpos": 7, "trial_type": "single-stim", "trial_index": 232, "time_elapsed": 1478370, "internal_node_id": "0.0-169.0"}}, {"uniqueid": "MTK0439:3KGTPGBS6YSRS006MSH24Q1RDHVU2S", "current_trial": 233, "dateTime": 1510875007610, "trialdata": {"rt": -1, "stimulus": "<p id=\"stim\">LAGOON</p>", "key_press": -1, "type": "PRES_VIS", "word": "lagoon", "wordID": 794, "conditions": [24, 1600, "v", 12000], "trial": 6, "serialpos": 8, "trial_type": "single-stim", "trial_index": 233, "time_elapsed": 1480858, "internal_node_id": "0.0-170.0"}}, {"uniqueid": "MTK0439:3KGTPGBS6YSRS006MSH24Q1RDHVU2S", "current_trial": 234, "dateTime": 1510875010264, "trialdata": {"rt": -1, "stimulus": "<p id=\"stim\">BEAKER</p>", "key_press": -1, "type": "PRES_VIS", "word": "beaker", "wordID": 103, "conditions": [24, 1600, "v", 12000], "trial": 6, "serialpos": 9, "trial_type": "single-stim", "trial_index": 234, "time_elapsed": 1483512, "internal_node_id": "0.0-171.0"}}, {"uniqueid": "MTK0439:3KGTPGBS6YSRS006MSH24Q1RDHVU2S", "current_trial": 235, "dateTime": 1510875012886, "trialdata": {"rt": -1, "stimulus": "<p id=\"stim\">COUSIN</p>", "key_press": -1, "type": "PRES_VIS", "word": "cousin", "wordID": 391, "conditions": [24, 1600, "v", 12000], "trial": 6, "serialpos": 10, "trial_type": "single-stim", "trial_index": 235, "time_elapsed": 1486134, "internal_node_id": "0.0-172.0"}}, {"uniqueid": "MTK0439:3KGTPGBS6YSRS006MSH24Q1RDHVU2S", "current_trial": 236, "dateTime": 1510875015440, "trialdata": {"rt": -1, "stimulus": "<p id=\"stim\">CLOUD</p>", "key_press": -1, "type": "PRES_VIS", "word": "cloud", "wordID": 327, "conditions": [24, 1600, "v", 12000], "trial": 6, "serialpos": 11, "trial_type": "single-stim", "trial_index": 236, "time_elapsed": 1488688, "internal_node_id": "0.0-173.0"}}, {"uniqueid": "MTK0439:3KGTPGBS6YSRS006MSH24Q1RDHVU2S", "current_trial": 237, "dateTime": 1510875018182, "trialdata": {"rt": -1, "stimulus": "<p id=\"stim\">VENUS</p>", "key_press": -1, "type": "PRES_VIS", "word": "venus", "wordID": 1556, "conditions": [24, 1600, "v", 12000], "trial": 6, "serialpos": 12, "trial_type": "single-stim", "trial_index": 237, "time_elapsed": 1491430, "internal_node_id": "0.0-174.0"}}, {"uniqueid": "MTK0439:3KGTPGBS6YSRS006MSH24Q1RDHVU2S", "current_trial": 238, "dateTime": 1510875020904, "trialdata": {"rt": -1, "stimulus": "<p id=\"stim\">FINGER</p>", "key_press": -1, "type": "PRES_VIS", "word": "finger", "wordID": 566, "conditions": [24, 1600, "v", 12000], "trial": 6, "serialpos": 13, "trial_type": "single-stim", "trial_index": 238, "time_elapsed": 1494152, "internal_node_id": "0.0-175.0"}}, {"uniqueid": "MTK0439:3KGTPGBS6YSRS006MSH24Q1RDHVU2S", "current_trial": 239, "dateTime": 1510875023580, "trialdata": {"rt": -1, "stimulus": "<p id=\"stim\">PATIENT</p>", "key_press": -1, "type": "PRES_VIS", "word": "patient", "wordID": 1023, "conditions": [24, 1600, "v", 12000], "trial": 6, "serialpos": 14, "trial_type": "single-stim", "trial_index": 239, "time_elapsed": 1496828, "internal_node_id": "0.0-176.0"}}, {"uniqueid": "MTK0439:3KGTPGBS6YSRS006MSH24Q1RDHVU2S", "current_trial": 240, "dateTime": 1510875026358, "trialdata": {"rt": -1, "stimulus": "<p id=\"stim\">BANJO</p>", "key_press": -1, "type": "PRES_VIS", "word": "banjo", "wordID": 81, "conditions": [24, 1600, "v", 12000], "trial": 6, "serialpos": 15, "trial_type": "single-stim", "trial_index": 240, "time_elapsed": 1499606, "internal_node_id": "0.0-177.0"}}, {"uniqueid": "MTK0439:3KGTPGBS6YSRS006MSH24Q1RDHVU2S", "current_trial": 241, "dateTime": 1510875028930, "trialdata": {"rt": -1, "stimulus": "<p id=\"stim\">PRINCESS</p>", "key_press": -1, "type": "PRES_VIS", "word": "princess", "wordID": 1124, "conditions": [24, 1600, "v", 12000], "trial": 6, "serialpos": 16, "trial_type": "single-stim", "trial_index": 241, "time_elapsed": 1502178, "internal_node_id": "0.0-178.0"}}, {"uniqueid": "MTK0439:3KGTPGBS6YSRS006MSH24Q1RDHVU2S", "current_trial": 242, "dateTime": 1510875031649, "trialdata": {"rt": -1, "stimulus": "<p id=\"stim\">GIRL</p>", "key_press": -1, "type": "PRES_VIS", "word": "girl", "wordID": 636, "conditions": [24, 1600, "v", 12000], "trial": 6, "serialpos": 17, "trial_type": "single-stim", "trial_index": 242, "time_elapsed": 1504897, "internal_node_id": "0.0-179.0"}}, {"uniqueid": "MTK0439:3KGTPGBS6YSRS006MSH24Q1RDHVU2S", "current_trial": 243, "dateTime": 1510875034433, "trialdata": {"rt": -1, "stimulus": "<p id=\"stim\">SHELTER</p>", "key_press": -1, "type": "PRES_VIS", "word": "shelter", "wordID": 1281, "conditions": [24, 1600, "v", 12000], "trial": 6, "serialpos": 18, "trial_type": "single-stim", "trial_index": 243, "time_elapsed": 1507681, "internal_node_id": "0.0-180.0"}}, {"uniqueid": "MTK0439:3KGTPGBS6YSRS006MSH24Q1RDHVU2S", "current_trial": 244, "dateTime": 1510875036885, "trialdata": {"rt": -1, "stimulus": "<p id=\"stim\">TREAT</p>", "key_press": -1, "type": "PRES_VIS", "word": "treat", "wordID": 1500, "conditions": [24, 1600, "v", 12000], "trial": 6, "serialpos": 19, "trial_type": "single-stim", "trial_index": 244, "time_elapsed": 1510133, "internal_node_id": "0.0-181.0"}}, {"uniqueid": "MTK0439:3KGTPGBS6YSRS006MSH24Q1RDHVU2S", "current_trial": 245, "dateTime": 1510875039575, "trialdata": {"rt": -1, "stimulus": "<p id=\"stim\">BUTCHER</p>", "key_press": -1, "type": "PRES_VIS", "word": "butcher", "wordID": 202, "conditions": [24, 1600, "v", 12000], "trial": 6, "serialpos": 20, "trial_type": "single-stim", "trial_index": 245, "time_elapsed": 1512823, "internal_node_id": "0.0-182.0"}}, {"uniqueid": "MTK0439:3KGTPGBS6YSRS006MSH24Q1RDHVU2S", "current_trial": 246, "dateTime": 1510875042202, "trialdata": {"rt": -1, "stimulus": "<p id=\"stim\">SHOVEL</p>", "key_press": -1, "type": "PRES_VIS", "word": "shovel", "wordID": 1294, "conditions": [24, 1600, "v", 12000], "trial": 6, "serialpos": 21, "trial_type": "single-stim", "trial_index": 246, "time_elapsed": 1515450, "internal_node_id": "0.0-183.0"}}, {"uniqueid": "MTK0439:3KGTPGBS6YSRS006MSH24Q1RDHVU2S", "current_trial": 247, "dateTime": 1510875044607, "trialdata": {"rt": -1, "stimulus": "<p id=\"stim\">FLUTE</p>", "key_press": -1, "type": "PRES_VIS", "word": "flute", "wordID": 584, "conditions": [24, 1600, "v", 12000], "trial": 6, "serialpos": 22, "trial_type": "single-stim", "trial_index": 247, "time_elapsed": 1517855, "internal_node_id": "0.0-184.0"}}, {"uniqueid": "MTK0439:3KGTPGBS6YSRS006MSH24Q1RDHVU2S", "current_trial": 248, "dateTime": 1510875047109, "trialdata": {"rt": -1, "stimulus": "<p id=\"stim\">LEOPARD</p>", "key_press": -1, "type": "PRES_VIS", "word": "leopard", "wordID": 811, "conditions": [24, 1600, "v", 12000], "trial": 6, "serialpos": 23, "trial_type": "single-stim", "trial_index": 248, "time_elapsed": 1520357, "internal_node_id": "0.0-185.0"}}, {"uniqueid": "MTK0439:3KGTPGBS6YSRS006MSH24Q1RDHVU2S", "current_trial": 249, "dateTime": 1510875049413, "trialdata": {"rt": -1, "stimulus": "", "key_press": -1, "type": "PRE_RECALL_DELAY", "trial_type": "single-stim", "trial_index": 249, "time_elapsed": 1522661, "internal_node_id": "0.0-186.0-0.0"}}, {"uniqueid": "MTK0439:3KGTPGBS6YSRS006MSH24Q1RDHVU2S", "current_trial": 250, "dateTime": 1510875049925, "trialdata": {"rt": -1000, "stimulus": "/static/audio/400Hz.wav", "key_press": -1, "type": "PRE_RECALL_ALERT", "trial_type": "single-audio", "trial_index": 250, "time_elapsed": 1523173, "internal_node_id": "0.0-187.0"}}, {"uniqueid": "MTK0439:3KGTPGBS6YSRS006MSH24Q1RDHVU2S", "current_trial": 251, "dateTime": 1510875109936, "trialdata": {"rt": [4501, 6965, 8685, 10493, 12509, 14797, 16141], "recwords": ["flute", "shovel", "nabjo", "church", "chapel", "princess", "girl"], "type": "FREE_RECALL", "conditions": [24, 1600, "v", 12000], "trial": 6, "trial_type": "free-recall", "trial_index": 251, "time_elapsed": 1583176, "internal_node_id": "0.0-188.0-0.0"}}, {"uniqueid": "MTK0439:3KGTPGBS6YSRS006MSH24Q1RDHVU2S", "current_trial": 252, "dateTime": 1510875117901, "trialdata": {"rt": 5964, "key_press": 13, "type": "INSTRUCTIONS", "trial_type": "text", "trial_index": 252, "time_elapsed": 1591149, "internal_node_id": "0.0-189.0"}}, {"uniqueid": "MTK0439:3KGTPGBS6YSRS006MSH24Q1RDHVU2S", "current_trial": 253, "dateTime": 1510875131904, "trialdata": {"rt": [2782, 7174, 10510], "responses": ["15", "21", "11"], "num1": [6, 7, 4, 2], "num2": [6, 7, 1, 5], "num3": [3, 8, 7, 7], "type": "DISTRACTOR", "conditions": [24, 1600, "a", 12000], "trial": 7, "trial_type": "math-distractor", "trial_index": 253, "time_elapsed": 1605152, "internal_node_id": "0.0-190.0"}}, {"uniqueid": "MTK0439:3KGTPGBS6YSRS006MSH24Q1RDHVU2S", "current_trial": 254, "dateTime": 1510875134905, "trialdata": {"rt": -1, "stimulus": "<p id=\"stim\">10</p>", "key_press": -1, "trial_type": "single-stim", "trial_index": 254, "time_elapsed": 1608153, "internal_node_id": "0.0-191.0-0.0"}}, {"uniqueid": "MTK0439:3KGTPGBS6YSRS006MSH24Q1RDHVU2S", "current_trial": 255, "dateTime": 1510875135906, "trialdata": {"rt": -1, "stimulus": "<p id=\"stim\">9</p>", "key_press": -1, "trial_type": "single-stim", "trial_index": 255, "time_elapsed": 1609154, "internal_node_id": "0.0-191.0-1.0"}}, {"uniqueid": "MTK0439:3KGTPGBS6YSRS006MSH24Q1RDHVU2S", "current_trial": 256, "dateTime": 1510875136908, "trialdata": {"rt": -1, "stimulus": "<p id=\"stim\">8</p>", "key_press": -1, "trial_type": "single-stim", "trial_index": 256, "time_elapsed": 1610156, "internal_node_id": "0.0-191.0-2.0"}}, {"uniqueid": "MTK0439:3KGTPGBS6YSRS006MSH24Q1RDHVU2S", "current_trial": 257, "dateTime": 1510875137910, "trialdata": {"rt": -1, "stimulus": "<p id=\"stim\">7</p>", "key_press": -1, "trial_type": "single-stim", "trial_index": 257, "time_elapsed": 1611158, "internal_node_id": "0.0-191.0-3.0"}}, {"uniqueid": "MTK0439:3KGTPGBS6YSRS006MSH24Q1RDHVU2S", "current_trial": 258, "dateTime": 1510875138912, "trialdata": {"rt": -1, "stimulus": "<p id=\"stim\">6</p>", "key_press": -1, "trial_type": "single-stim", "trial_index": 258, "time_elapsed": 1612160, "internal_node_id": "0.0-191.0-4.0"}}, {"uniqueid": "MTK0439:3KGTPGBS6YSRS006MSH24Q1RDHVU2S", "current_trial": 259, "dateTime": 1510875139914, "trialdata": {"rt": -1, "stimulus": "<p id=\"stim\">5</p>", "key_press": -1, "trial_type": "single-stim", "trial_index": 259, "time_elapsed": 1613162, "internal_node_id": "0.0-191.0-5.0"}}, {"uniqueid": "MTK0439:3KGTPGBS6YSRS006MSH24Q1RDHVU2S", "current_trial": 260, "dateTime": 1510875140915, "trialdata": {"rt": -1, "stimulus": "<p id=\"stim\">4</p>", "key_press": -1, "trial_type": "single-stim", "trial_index": 260, "time_elapsed": 1614163, "internal_node_id": "0.0-191.0-6.0"}}, {"uniqueid": "MTK0439:3KGTPGBS6YSRS006MSH24Q1RDHVU2S", "current_trial": 261, "dateTime": 1510875141916, "trialdata": {"rt": -1, "stimulus": "<p id=\"stim\">3</p>", "key_press": -1, "trial_type": "single-stim", "trial_index": 261, "time_elapsed": 1615164, "internal_node_id": "0.0-191.0-7.0"}}, {"uniqueid": "MTK0439:3KGTPGBS6YSRS006MSH24Q1RDHVU2S", "current_trial": 262, "dateTime": 1510875142917, "trialdata": {"rt": -1, "stimulus": "<p id=\"stim\">2</p>", "key_press": -1, "trial_type": "single-stim", "trial_index": 262, "time_elapsed": 1616165, "internal_node_id": "0.0-191.0-8.0"}}, {"uniqueid": "MTK0439:3KGTPGBS6YSRS006MSH24Q1RDHVU2S", "current_trial": 263, "dateTime": 1510875143918, "trialdata": {"rt": -1, "stimulus": "<p id=\"stim\">1</p>", "key_press": -1, "trial_type": "single-stim", "trial_index": 263, "time_elapsed": 1617166, "internal_node_id": "0.0-191.0-9.0"}}, {"uniqueid": "MTK0439:3KGTPGBS6YSRS006MSH24Q1RDHVU2S", "current_trial": 264, "dateTime": 1510875145419, "trialdata": {"rt": -1, "stimulus": "<p id=\"stim\">+</p>", "key_press": -1, "type": "FIXATION", "trial_type": "single-stim", "trial_index": 264, "time_elapsed": 1618667, "internal_node_id": "0.0-192.0-0.0"}}, {"uniqueid": "MTK0439:3KGTPGBS6YSRS006MSH24Q1RDHVU2S", "current_trial": 265, "dateTime": 1510875148124, "trialdata": {"rt": -1000, "stimulus": "/static/audio/wordpool/NOVEL.wav", "key_press": -1, "type": "PRES_AUD", "word": "novel", "wordID": 959, "conditions": [24, 1600, "a", 12000], "trial": 7, "serialpos": 0, "trial_type": "single-audio", "trial_index": 265, "time_elapsed": 1621372, "internal_node_id": "0.0-193.0"}}, {"uniqueid": "MTK0439:3KGTPGBS6YSRS006MSH24Q1RDHVU2S", "current_trial": 266, "dateTime": 1510875150719, "trialdata": {"rt": -1000, "stimulus": "/static/audio/wordpool/ACTOR.wav", "key_press": -1, "type": "PRES_AUD", "word": "actor", "wordID": 4, "conditions": [24, 1600, "a", 12000], "trial": 7, "serialpos": 1, "trial_type": "single-audio", "trial_index": 266, "time_elapsed": 1623967, "internal_node_id": "0.0-194.0"}}, {"uniqueid": "MTK0439:3KGTPGBS6YSRS006MSH24Q1RDHVU2S", "current_trial": 267, "dateTime": 1510875153494, "trialdata": {"rt": -1000, "stimulus": "/static/audio/wordpool/DRUG.wav", "key_press": -1, "type": "PRES_AUD", "word": "drug", "wordID": 500, "conditions": [24, 1600, "a", 12000], "trial": 7, "serialpos": 2, "trial_type": "single-audio", "trial_index": 267, "time_elapsed": 1626742, "internal_node_id": "0.0-195.0"}}, {"uniqueid": "MTK0439:3KGTPGBS6YSRS006MSH24Q1RDHVU2S", "current_trial": 268, "dateTime": 1510875155952, "trialdata": {"rt": -1000, "stimulus": "/static/audio/wordpool/BROOK.wav", "key_press": -1, "type": "PRES_AUD", "word": "brook", "wordID": 176, "conditions": [24, 1600, "a", 12000], "trial": 7, "serialpos": 3, "trial_type": "single-audio", "trial_index": 268, "time_elapsed": 1629200, "internal_node_id": "0.0-196.0"}}, {"uniqueid": "MTK0439:3KGTPGBS6YSRS006MSH24Q1RDHVU2S", "current_trial": 269, "dateTime": 1510875158699, "trialdata": {"rt": -1000, "stimulus": "/static/audio/wordpool/AUTHOR.wav", "key_press": -1, "type": "PRES_AUD", "word": "author", "wordID": 60, "conditions": [24, 1600, "a", 12000], "trial": 7, "serialpos": 4, "trial_type": "single-audio", "trial_index": 269, "time_elapsed": 1631947, "internal_node_id": "0.0-197.0"}}, {"uniqueid": "MTK0439:3KGTPGBS6YSRS006MSH24Q1RDHVU2S", "current_trial": 270, "dateTime": 1510875161300, "trialdata": {"rt": -1000, "stimulus": "/static/audio/wordpool/DANCER.wav", "key_press": -1, "type": "PRES_AUD", "word": "dancer", "wordID": 436, "conditions": [24, 1600, "a", 12000], "trial": 7, "serialpos": 5, "trial_type": "single-audio", "trial_index": 270, "time_elapsed": 1634548, "internal_node_id": "0.0-198.0"}}, {"uniqueid": "MTK0439:3KGTPGBS6YSRS006MSH24Q1RDHVU2S", "current_trial": 271, "dateTime": 1510875164076, "trialdata": {"rt": -1000, "stimulus": "/static/audio/wordpool/STAR.wav", "key_press": -1, "type": "PRES_AUD", "word": "star", "wordID": 1372, "conditions": [24, 1600, "a", 12000], "trial": 7, "serialpos": 6, "trial_type": "single-audio", "trial_index": 271, "time_elapsed": 1637324, "internal_node_id": "0.0-199.0"}}, {"uniqueid": "MTK0439:3KGTPGBS6YSRS006MSH24Q1RDHVU2S", "current_trial": 272, "dateTime": 1510875166493, "trialdata": {"rt": -1000, "stimulus": "/static/audio/wordpool/FILM.wav", "key_press": -1, "type": "PRES_AUD", "word": "film", "wordID": 564, "conditions": [24, 1600, "a", 12000], "trial": 7, "serialpos": 7, "trial_type": "single-audio", "trial_index": 272, "time_elapsed": 1639741, "internal_node_id": "0.0-200.0"}}, {"uniqueid": "MTK0439:3KGTPGBS6YSRS006MSH24Q1RDHVU2S", "current_trial": 273, "dateTime": 1510875169215, "trialdata": {"rt": -1000, "stimulus": "/static/audio/wordpool/TRANSPLANT.wav", "key_press": -1, "type": "PRES_AUD", "word": "transplant", "wordID": 1495, "conditions": [24, 1600, "a", 12000], "trial": 7, "serialpos": 8, "trial_type