{"condition": 0, "counterbalance": 370, "assignmentId": "36WLNQG780H4RH3GFLV811ISLGLBEZ", "workerId": "MTK0548", "hitId": "3R868ACW4SJW694T1SWXY2ENBU5GZB", "currenttrial": 626, "bonus": 0, "data": [{"uniqueid": "MTK0548:36WLNQG780H4RH3GFLV811ISLGLBEZ", "current_trial": 0, "dateTime": 1511210534655, "trialdata": {"rt": 2676, "key_press": 32, "type": "INSTRUCTIONS", "trial_type": "text", "trial_index": 0, "time_elapsed": 2680, "internal_node_id": "0.0-0.0"}}, {"uniqueid": "MTK0548:36WLNQG780H4RH3GFLV811ISLGLBEZ", "current_trial": 1, "dateTime": 1511210544496, "trialdata": {"rt": 9838, "key_press": 175, "type": "INSTRUCTIONS", "trial_type": "text", "trial_index": 1, "time_elapsed": 12523, "internal_node_id": "0.0-1.0"}}, {"uniqueid": "MTK0548:36WLNQG780H4RH3GFLV811ISLGLBEZ", "current_trial": 2, "dateTime": 1511210556575, "trialdata": {"rt": [12070], "responses": ["ocean"], "type": "AUDIO_TEST", "trial_type": "audio-test", "trial_index": 2, "time_elapsed": 24602, "internal_node_id": "0.0-2.0"}}, {"uniqueid": "MTK0548:36WLNQG780H4RH3GFLV811ISLGLBEZ", "current_trial": 3, "dateTime": 1511210568914, "trialdata": {"rt": [12336], "responses": ["crystal"], "type": "AUDIO_TEST", "trial_type": "audio-test", "trial_index": 3, "time_elapsed": 36941, "internal_node_id": "0.0-3.0"}}, {"uniqueid": "MTK0548:36WLNQG780H4RH3GFLV811ISLGLBEZ", "current_trial": 4, "dateTime": 1511210573693, "trialdata": {"rt": [4776], "responses": ["spice"], "type": "AUDIO_TEST", "trial_type": "audio-test", "trial_index": 4, "time_elapsed": 41720, "internal_node_id": "0.0-4.0"}}, {"uniqueid": "MTK0548:36WLNQG780H4RH3GFLV811ISLGLBEZ", "current_trial": 5, "dateTime": 1511210592756, "trialdata": {"rt": 18309, "responses": "{\"Q0\":\"11\",\"Q1\":\"7\",\"Q2\":\"5\"}", "type": "SLEEP_SURVEY", "trial_type": "survey-text", "trial_index": 5, "time_elapsed": 60783, "internal_node_id": "0.0-5.0"}}, {"uniqueid": "MTK0548:36WLNQG780H4RH3GFLV811ISLGLBEZ", "current_trial": 6, "dateTime": 1511210618386, "trialdata": {"rt": 24629, "key_press": 32, "type": "INSTRUCTIONS", "trial_type": "text", "trial_index": 6, "time_elapsed": 86413, "internal_node_id": "0.0-6.0"}}, {"uniqueid": "MTK0548:36WLNQG780H4RH3GFLV811ISLGLBEZ", "current_trial": 7, "dateTime": 1511210635616, "trialdata": {"rt": 16727, "key_press": 32, "type": "INSTRUCTIONS", "trial_type": "text", "trial_index": 7, "time_elapsed": 103643, "internal_node_id": "0.0-7.0"}}, {"uniqueid": "MTK0548:36WLNQG780H4RH3GFLV811ISLGLBEZ", "current_trial": 8, "dateTime": 1511210650905, "trialdata": {"rt": 14788, "key_press": 32, "type": "INSTRUCTIONS", "trial_type": "text", "trial_index": 8, "time_elapsed": 118932, "internal_node_id": "0.0-8.0"}}, {"uniqueid": "MTK0548:36WLNQG780H4RH3GFLV811ISLGLBEZ", "current_trial": 9, "dateTime": 1511210669914, "trialdata": {"rt": [6199, 11674, 16532], "responses": ["25", "16", "15"], "num1": [8, 4, 7, 8], "num2": [9, 5, 4, 3], "num3": [8, 7, 4, 5], "type": "DISTRACTOR", "conditions": [18, 1200, "a", 18000], "trial": 0, "trial_type": "math-distractor", "trial_index": 9, "time_elapsed": 137941, "internal_node_id": "0.0-9.0"}}, {"uniqueid": "MTK0548:36WLNQG780H4RH3GFLV811ISLGLBEZ", "current_trial": 10, "dateTime": 1511210672919, "trialdata": {"rt": -1, "stimulus": "<p id=\"stim\">10</p>", "key_press": -1, "trial_type": "single-stim", "trial_index": 10, "time_elapsed": 140946, "internal_node_id": "0.0-10.0-0.0"}}, {"uniqueid": "MTK0548:36WLNQG780H4RH3GFLV811ISLGLBEZ", "current_trial": 11, "dateTime": 1511210673922, "trialdata": {"rt": -1, "stimulus": "<p id=\"stim\">9</p>", "key_press": -1, "trial_type": "single-stim", "trial_index": 11, "time_elapsed": 141949, "internal_node_id": "0.0-10.0-1.0"}}, {"uniqueid": "MTK0548:36WLNQG780H4RH3GFLV811ISLGLBEZ", "current_trial": 12, "dateTime": 1511210674925, "trialdata": {"rt": -1, "stimulus": "<p id=\"stim\">8</p>", "key_press": -1, "trial_type": "single-stim", "trial_index": 12, "time_elapsed": 142952, "internal_node_id": "0.0-10.0-2.0"}}, {"uniqueid": "MTK0548:36WLNQG780H4RH3GFLV811ISLGLBEZ", "current_trial": 13, "dateTime": 1511210675927, "trialdata": {"rt": -1, "stimulus": "<p id=\"stim\">7</p>", "key_press": -1, "trial_type": "single-stim", "trial_index": 13, "time_elapsed": 143954, "internal_node_id": "0.0-10.0-3.0"}}, {"uniqueid": "MTK0548:36WLNQG780H4RH3GFLV811ISLGLBEZ", "current_trial": 14, "dateTime": 1511210676929, "trialdata": {"rt": -1, "stimulus": "<p id=\"stim\">6</p>", "key_press": -1, "trial_type": "single-stim", "trial_index": 14, "time_elapsed": 144956, "internal_node_id": "0.0-10.0-4.0"}}, {"uniqueid": "MTK0548:36WLNQG780H4RH3GFLV811ISLGLBEZ", "current_trial": 15, "dateTime": 1511210677932, "trialdata": {"rt": -1, "stimulus": "<p id=\"stim\">5</p>", "key_press": -1, "trial_type": "single-stim", "trial_index": 15, "time_elapsed": 145959, "internal_node_id": "0.0-10.0-5.0"}}, {"uniqueid": "MTK0548:36WLNQG780H4RH3GFLV811ISLGLBEZ", "current_trial": 16, "dateTime": 1511210678934, "trialdata": {"rt": -1, "stimulus": "<p id=\"stim\">4</p>", "key_press": -1, "trial_type": "single-stim", "trial_index": 16, "time_elapsed": 146960, "internal_node_id": "0.0-10.0-6.0"}}, {"uniqueid": "MTK0548:36WLNQG780H4RH3GFLV811ISLGLBEZ", "current_trial": 17, "dateTime": 1511210679936, "trialdata": {"rt": -1, "stimulus": "<p id=\"stim\">3</p>", "key_press": -1, "trial_type": "single-stim", "trial_index": 17, "time_elapsed": 147963, "internal_node_id": "0.0-10.0-7.0"}}, {"uniqueid": "MTK0548:36WLNQG780H4RH3GFLV811ISLGLBEZ", "current_trial": 18, "dateTime": 1511210680938, "trialdata": {"rt": -1, "stimulus": "<p id=\"stim\">2</p>", "key_press": -1, "trial_type": "single-stim", "trial_index": 18, "time_elapsed": 148965, "internal_node_id": "0.0-10.0-8.0"}}, {"uniqueid": "MTK0548:36WLNQG780H4RH3GFLV811ISLGLBEZ", "current_trial": 19, "dateTime": 1511210681941, "trialdata": {"rt": -1, "stimulus": "<p id=\"stim\">1</p>", "key_press": -1, "trial_type": "single-stim", "trial_index": 19, "time_elapsed": 149968, "internal_node_id": "0.0-10.0-9.0"}}, {"uniqueid": "MTK0548:36WLNQG780H4RH3GFLV811ISLGLBEZ", "current_trial": 20, "dateTime": 1511210683443, "trialdata": {"rt": -1, "stimulus": "<p id=\"stim\">+</p>", "key_press": -1, "type": "FIXATION", "trial_type": "single-stim", "trial_index": 20, "time_elapsed": 151469, "internal_node_id": "0.0-11.0-0.0"}}, {"uniqueid": "MTK0548:36WLNQG780H4RH3GFLV811ISLGLBEZ", "current_trial": 21, "dateTime": 1511210685707, "trialdata": {"rt": -1000, "stimulus": "/static/audio/wordpool/DRUG.wav", "key_press": -1, "type": "PRES_AUD", "word": "drug", "wordID": 500, "conditions": [18, 1200, "a", 18000], "trial": 0, "serialpos": 0, "trial_type": "single-audio", "trial_index": 21, "time_elapsed": 153734, "internal_node_id": "0.0-12.0"}}, {"uniqueid": "MTK0548:36WLNQG780H4RH3GFLV811ISLGLBEZ", "current_trial": 22, "dateTime": 1511210687855, "trialdata": {"rt": 1819.9999999999932, "stimulus": "/static/audio/wordpool/HAWK.wav", "key_press": 175, "type": "PRES_AUD", "word": "hawk", "wordID": 691, "conditions": [18, 1200, "a", 18000], "trial": 0, "serialpos": 1, "trial_type": "single-audio", "trial_index": 22, "time_elapsed": 155882, "internal_node_id": "0.0-13.0"}}, {"uniqueid": "MTK0548:36WLNQG780H4RH3GFLV811ISLGLBEZ", "current_trial": 23, "dateTime": 1511210690188, "trialdata": {"rt": 190.66666666668652, "stimulus": "/static/audio/wordpool/PIGEON.wav", "key_press": 175, "type": "PRES_AUD", "word": "pigeon", "wordID": 1064, "conditions": [18, 1200, "a", 18000], "trial": 0, "serialpos": 2, "trial_type": "single-audio", "trial_index": 23, "time_elapsed": 158215, "internal_node_id": "0.0-14.0"}}, {"uniqueid": "MTK0548:36WLNQG780H4RH3GFLV811ISLGLBEZ", "current_trial": 24, "dateTime": 1511210692575, "trialdata": {"rt": -1000, "stimulus": "/static/audio/wordpool/ROBOT.wav", "key_press": -1, "type": "PRES_AUD", "word": "robot", "wordID": 1199, "conditions": [18, 1200, "a", 18000], "trial": 0, "serialpos": 3, "trial_type": "single-audio", "trial_index": 24, "time_elapsed": 160602, "internal_node_id": "0.0-15.0"}}, {"uniqueid": "MTK0548:36WLNQG780H4RH3GFLV811ISLGLBEZ", "current_trial": 25, "dateTime": 1511210694849, "trialdata": {"rt": -1000, "stimulus": "/static/audio/wordpool/SHORTS.wav", "key_press": -1, "type": "PRES_AUD", "word": "shorts", "wordID": 1292, "conditions": [18, 1200, "a", 18000], "trial": 0, "serialpos": 4, "trial_type": "single-audio", "trial_index": 25, "time_elapsed": 162876, "internal_node_id": "0.0-16.0"}}, {"uniqueid": "MTK0548:36WLNQG780H4RH3GFLV811ISLGLBEZ", "current_trial": 26, "dateTime": 1511210697195, "trialdata": {"rt": -1000, "stimulus": "/static/audio/wordpool/COMPASS.wav", "key_press": -1, "type": "PRES_AUD", "word": "compass", "wordID": 357, "conditions": [18, 1200, "a", 18000], "trial": 0, "serialpos": 5, "trial_type": "single-audio", "trial_index": 26, "time_elapsed": 165222, "internal_node_id": "0.0-17.0"}}, {"uniqueid": "MTK0548:36WLNQG780H4RH3GFLV811ISLGLBEZ", "current_trial": 27, "dateTime": 1511210699314, "trialdata": {"rt": -1000, "stimulus": "/static/audio/wordpool/RAZOR.wav", "key_press": -1, "type": "PRES_AUD", "word": "razor", "wordID": 1170, "conditions": [18, 1200, "a", 18000], "trial": 0, "serialpos": 6, "trial_type": "single-audio", "trial_index": 27, "time_elapsed": 167340, "internal_node_id": "0.0-18.0"}}, {"uniqueid": "MTK0548:36WLNQG780H4RH3GFLV811ISLGLBEZ", "current_trial": 28, "dateTime": 1511210701525, "trialdata": {"rt": -1000, "stimulus": "/static/audio/wordpool/BADGE.wav", "key_press": -1, "type": "PRES_AUD", "word": "badge", "wordID": 67, "conditions": [18, 1200, "a", 18000], "trial": 0, "serialpos": 7, "trial_type": "single-audio", "trial_index": 28, "time_elapsed": 169552, "internal_node_id": "0.0-19.0"}}, {"uniqueid": "MTK0548:36WLNQG780H4RH3GFLV811ISLGLBEZ", "current_trial": 29, "dateTime": 1511210703679, "trialdata": {"rt": 891.9999999999959, "stimulus": "/static/audio/wordpool/WAGON.wav", "key_press": 175, "type": "PRES_AUD", "word": "wagon", "wordID": 1577, "conditions": [18, 1200, "a", 18000], "trial": 0, "serialpos": 8, "trial_type": "single-audio", "trial_index": 29, "time_elapsed": 171706, "internal_node_id": "0.0-20.0"}}, {"uniqueid": "MTK0548:36WLNQG780H4RH3GFLV811ISLGLBEZ", "current_trial": 30, "dateTime": 1511210706031, "trialdata": {"rt": -81.33333333333326, "stimulus": "/static/audio/wordpool/NIGHTGOWN.wav", "key_press": 175, "type": "PRES_AUD", "word": "nightgown", "wordID": 952, "conditions": [18, 1200, "a", 18000], "trial": 0, "serialpos": 9, "trial_type": "single-audio", "trial_index": 30, "time_elapsed": 174058, "internal_node_id": "0.0-21.0"}}, {"uniqueid": "MTK0548:36WLNQG780H4RH3GFLV811ISLGLBEZ", "current_trial": 31, "dateTime": 1511210708343, "trialdata": {"rt": -1000, "stimulus": "/static/audio/wordpool/CAPTIVE.wav", "key_press": -1, "type": "PRES_AUD", "word": "captive", "wordID": 239, "conditions": [18, 1200, "a", 18000], "trial": 0, "serialpos": 10, "trial_type": "single-audio", "trial_index": 31, "time_elapsed": 176370, "internal_node_id": "0.0-22.0"}}, {"uniqueid": "MTK0548:36WLNQG780H4RH3GFLV811ISLGLBEZ", "current_trial": 32, "dateTime": 1511210710521, "trialdata": {"rt": -1000, "stimulus": "/static/audio/wordpool/BALLOON.wav", "key_press": -1, "type": "PRES_AUD", "word": "balloon", "wordID": 74, "conditions": [18, 1200, "a", 18000], "trial": 0, "serialpos": 11, "trial_type": "single-audio", "trial_index": 32, "time_elapsed": 178548, "internal_node_id": "0.0-23.0"}}, {"uniqueid": "MTK0548:36WLNQG780H4RH3GFLV811ISLGLBEZ", "current_trial": 33, "dateTime": 1511210712529, "trialdata": {"rt": -1000, "stimulus": "/static/audio/wordpool/BANJO.wav", "key_press": -1, "type": "PRES_AUD", "word": "banjo", "wordID": 81, "conditions": [18, 1200, "a", 18000], "trial": 0, "serialpos": 12, "trial_type": "single-audio", "trial_index": 33, "time_elapsed": 180556, "internal_node_id": "0.0-24.0"}}, {"uniqueid": "MTK0548:36WLNQG780H4RH3GFLV811ISLGLBEZ", "current_trial": 34, "dateTime": 1511210714569, "trialdata": {"rt": -1000, "stimulus": "/static/audio/wordpool/STAR.wav", "key_press": -1, "type": "PRES_AUD", "word": "star", "wordID": 1372, "conditions": [18, 1200, "a", 18000], "trial": 0, "serialpos": 13, "trial_type": "single-audio", "trial_index": 34, "time_elapsed": 182596, "internal_node_id": "0.0-25.0"}}, {"uniqueid": "MTK0548:36WLNQG780H4RH3GFLV811ISLGLBEZ", "current_trial": 35, "dateTime": 1511210716673, "trialdata": {"rt": -1000, "stimulus": "/static/audio/wordpool/PERCH.wav", "key_press": -1, "type": "PRES_AUD", "word": "perch", "wordID": 1047, "conditions": [18, 1200, "a", 18000], "trial": 0, "serialpos": 14, "trial_type": "single-audio", "trial_index": 35, "time_elapsed": 184699, "internal_node_id": "0.0-26.0"}}, {"uniqueid": "MTK0548:36WLNQG780H4RH3GFLV811ISLGLBEZ", "current_trial": 36, "dateTime": 1511210718990, "trialdata": {"rt": -1000, "stimulus": "/static/audio/wordpool/RAFT.wav", "key_press": -1, "type": "PRES_AUD", "word": "raft", "wordID": 1158, "conditions": [18, 1200, "a", 18000], "trial": 0, "serialpos": 15, "trial_type": "single-audio", "trial_index": 36, "time_elapsed": 187017, "internal_node_id": "0.0-27.0"}}, {"uniqueid": "MTK0548:36WLNQG780H4RH3GFLV811ISLGLBEZ", "current_trial": 37, "dateTime": 1511210721027, "trialdata": {"rt": -1000, "stimulus": "/static/audio/wordpool/ARM.wav", "key_press": -1, "type": "PRES_AUD", "word": "arm", "wordID": 37, "conditions": [18, 1200, "a", 18000], "trial": 0, "serialpos": 16, "trial_type": "single-audio", "trial_index": 37, "time_elapsed": 189054, "internal_node_id": "0.0-28.0"}}, {"uniqueid": "MTK0548:36WLNQG780H4RH3GFLV811ISLGLBEZ", "current_trial": 38, "dateTime": 1511210723286, "trialdata": {"rt": -1000, "stimulus": "/static/audio/wordpool/MISTER.wav", "key_press": -1, "type": "PRES_AUD", "word": "mister", "wordID": 900, "conditions": [18, 1200, "a", 18000], "trial": 0, "serialpos": 17, "trial_type": "single-audio", "trial_index": 38, "time_elapsed": 191313, "internal_node_id": "0.0-29.0"}}, {"uniqueid": "MTK0548:36WLNQG780H4RH3GFLV811ISLGLBEZ", "current_trial": 39, "dateTime": 1511210724629, "trialdata": {"rt": -1, "stimulus": "", "key_press": -1, "type": "PRE_RECALL_DELAY", "trial_type": "single-stim", "trial_index": 39, "time_elapsed": 192655, "internal_node_id": "0.0-30.0-0.0"}}, {"uniqueid": "MTK0548:36WLNQG780H4RH3GFLV811ISLGLBEZ", "current_trial": 40, "dateTime": 1511210725131, "trialdata": {"rt": -1000, "stimulus": "/static/audio/400Hz.wav", "key_press": -1, "type": "PRE_RECALL_ALERT", "trial_type": "single-audio", "trial_index": 40, "time_elapsed": 193158, "internal_node_id": "0.0-31.0"}}, {"uniqueid": "MTK0548:36WLNQG780H4RH3GFLV811ISLGLBEZ", "current_trial": 41, "dateTime": 1511210785143, "trialdata": {"rt": [2418, 3938, 5329, 7926, 8865, 13845, 15238, 20335, 36600], "recwords": ["mister", "badge", "raft", "balloon", "arm", "perch", "shorts", "pigeon", ""], "type": "FREE_RECALL", "conditions": [18, 1200, "a", 18000], "trial": 0, "trial_type": "free-recall", "trial_index": 41, "time_elapsed": 253165, "internal_node_id": "0.0-32.0-0.0"}}, {"uniqueid": "MTK0548:36WLNQG780H4RH3GFLV811ISLGLBEZ", "current_trial": 42, "dateTime": 1511210806002, "trialdata": {"rt": 18857, "key_press": 32, "type": "INSTRUCTIONS", "trial_type": "text", "trial_index": 42, "time_elapsed": 274029, "internal_node_id": "0.0-33.0"}}, {"uniqueid": "MTK0548:36WLNQG780H4RH3GFLV811ISLGLBEZ", "current_trial": 43, "dateTime": 1511210826007, "trialdata": {"rt": [3439, 5569, 7516, 9873, 13775, 15624, 17634], "responses": ["11", "15", "13", "16", "18", "14", "17"], "num1": [6, 7, 5, 5, 7, 5, 1, 7], "num2": [1, 7, 5, 5, 9, 5, 9, 4], "num3": [4, 1, 3, 6, 2, 4, 7, 2], "type": "DISTRACTOR", "conditions": [18, 1200, "v", 18000], "trial": 1, "trial_type": "math-distractor", "trial_index": 43, "time_elapsed": 294034, "internal_node_id": "0.0-34.0"}}, {"uniqueid": "MTK0548:36WLNQG780H4RH3GFLV811ISLGLBEZ", "current_trial": 44, "dateTime": 1511210829011, "trialdata": {"rt": -1, "stimulus": "<p id=\"stim\">10</p>", "key_press": -1, "trial_type": "single-stim", "trial_index": 44, "time_elapsed": 297038, "internal_node_id": "0.0-35.0-0.0"}}, {"uniqueid": "MTK0548:36WLNQG780H4RH3GFLV811ISLGLBEZ", "current_trial": 45, "dateTime": 1511210830013, "trialdata": {"rt": -1, "stimulus": "<p id=\"stim\">9</p>", "key_press": -1, "trial_type": "single-stim", "trial_index": 45, "time_elapsed": 298040, "internal_node_id": "0.0-35.0-1.0"}}, {"uniqueid": "MTK0548:36WLNQG780H4RH3GFLV811ISLGLBEZ", "current_trial": 46, "dateTime": 1511210831016, "trialdata": {"rt": -1, "stimulus": "<p id=\"stim\">8</p>", "key_press": -1, "trial_type": "single-stim", "trial_index": 46, "time_elapsed": 299043, "internal_node_id": "0.0-35.0-2.0"}}, {"uniqueid": "MTK0548:36WLNQG780H4RH3GFLV811ISLGLBEZ", "current_trial": 47, "dateTime": 1511210832018, "trialdata": {"rt": -1, "stimulus": "<p id=\"stim\">7</p>", "key_press": -1, "trial_type": "single-stim", "trial_index": 47, "time_elapsed": 300045, "internal_node_id": "0.0-35.0-3.0"}}, {"uniqueid": "MTK0548:36WLNQG780H4RH3GFLV811ISLGLBEZ", "current_trial": 48, "dateTime": 1511210833020, "trialdata": {"rt": -1, "stimulus": "<p id=\"stim\">6</p>", "key_press": -1, "trial_type": "single-stim", "trial_index": 48, "time_elapsed": 301047, "internal_node_id": "0.0-35.0-4.0"}}, {"uniqueid": "MTK0548:36WLNQG780H4RH3GFLV811ISLGLBEZ", "current_trial": 49, "dateTime": 1511210834022, "trialdata": {"rt": -1, "stimulus": "<p id=\"stim\">5</p>", "key_press": -1, "trial_type": "single-stim", "trial_index": 49, "time_elapsed": 302049, "internal_node_id": "0.0-35.0-5.0"}}, {"uniqueid": "MTK0548:36WLNQG780H4RH3GFLV811ISLGLBEZ", "current_trial": 50, "dateTime": 1511210835024, "trialdata": {"rt": -1, "stimulus": "<p id=\"stim\">4</p>", "key_press": -1, "trial_type": "single-stim", "trial_index": 50, "time_elapsed": 303051, "internal_node_id": "0.0-35.0-6.0"}}, {"uniqueid": "MTK0548:36WLNQG780H4RH3GFLV811ISLGLBEZ", "current_trial": 51, "dateTime": 1511210836026, "trialdata": {"rt": -1, "stimulus": "<p id=\"stim\">3</p>", "key_press": -1, "trial_type": "single-stim", "trial_index": 51, "time_elapsed": 304053, "internal_node_id": "0.0-35.0-7.0"}}, {"uniqueid": "MTK0548:36WLNQG780H4RH3GFLV811ISLGLBEZ", "current_trial": 52, "dateTime": 1511210837028, "trialdata": {"rt": -1, "stimulus": "<p id=\"stim\">2</p>", "key_press": -1, "trial_type": "single-stim", "trial_index": 52, "time_elapsed": 305055, "internal_node_id": "0.0-35.0-8.0"}}, {"uniqueid": "MTK0548:36WLNQG780H4RH3GFLV811ISLGLBEZ", "current_trial": 53, "dateTime": 1511210838029, "trialdata": {"rt": -1, "stimulus": "<p id=\"stim\">1</p>", "key_press": -1, "trial_type": "single-stim", "trial_index": 53, "time_elapsed": 306056, "internal_node_id": "0.0-35.0-9.0"}}, {"uniqueid": "MTK0548:36WLNQG780H4RH3GFLV811ISLGLBEZ", "current_trial": 54, "dateTime": 1511210839531, "trialdata": {"rt": -1, "stimulus": "<p id=\"stim\">+</p>", "key_press": -1, "type": "FIXATION", "trial_type": "single-stim", "trial_index": 54, "time_elapsed": 307558, "internal_node_id": "0.0-36.0-0.0"}}, {"uniqueid": "MTK0548:36WLNQG780H4RH3GFLV811ISLGLBEZ", "current_trial": 55, "dateTime": 1511210840733, "trialdata": {"rt": -1, "stimulus": "<p id=\"stim\">BULLET</p>", "key_press": -1, "type": "PRES_VIS", "word": "bullet", "wordID": 193, "conditions": [18, 1200, "v", 18000], "trial": 1, "serialpos": 0, "trial_type": "single-stim", "trial_index": 55, "time_elapsed": 308760, "internal_node_id": "0.0-37.0"}}, {"uniqueid": "MTK0548:36WLNQG780H4RH3GFLV811ISLGLBEZ", "current_trial": 56, "dateTime": 1511210842879, "trialdata": {"rt": -1, "stimulus": "<p id=\"stim\">GAVEL</p>", "key_press": -1, "type": "PRES_VIS", "word": "gavel", "wordID": 626, "conditions": [18, 1200, "v", 18000], "trial": 1, "serialpos": 1, "trial_type": "single-stim", "trial_index": 56, "time_elapsed": 310906, "internal_node_id": "0.0-38.0"}}, {"uniqueid": "MTK0548:36WLNQG780H4RH3GFLV811ISLGLBEZ", "current_trial": 57, "dateTime": 1511210845279, "trialdata": {"rt": -1, "stimulus": "<p id=\"stim\">APRON</p>", "key_press": -1, "type": "PRES_VIS", "word": "apron", "wordID": 34, "conditions": [18, 1200, "v", 18000], "trial": 1, "serialpos": 2, "trial_type": "single-stim", "trial_index": 57, "time_elapsed": 313306, "internal_node_id": "0.0-39.0"}}, {"uniqueid": "MTK0548:36WLNQG780H4RH3GFLV811ISLGLBEZ", "current_trial": 58, "dateTime": 1511210847675, "trialdata": {"rt": -1, "stimulus": "<p id=\"stim\">DRILL</p>", "key_press": -1, "type": "PRES_VIS", "word": "drill", "wordID": 496, "conditions": [18, 1200, "v", 18000], "trial": 1, "serialpos": 3, "trial_type": "single-stim", "trial_index": 58, "time_elapsed": 315702, "internal_node_id": "0.0-40.0"}}, {"uniqueid": "MTK0548:36WLNQG780H4RH3GFLV811ISLGLBEZ", "current_trial": 59, "dateTime": 1511210849993, "trialdata": {"rt": -1, "stimulus": "<p id=\"stim\">COUNTY</p>", "key_press": -1, "type": "PRES_VIS", "word": "county", "wordID": 388, "conditions": [18, 1200, "v", 18000], "trial": 1, "serialpos": 4, "trial_type": "single-stim", "trial_index": 59, "time_elapsed": 318020, "internal_node_id": "0.0-41.0"}}, {"uniqueid": "MTK0548:36WLNQG780H4RH3GFLV811ISLGLBEZ", "current_trial": 60, "dateTime": 1511210852231, "trialdata": {"rt": -1, "stimulus": "<p id=\"stim\">STALLION</p>", "key_press": -1, "type": "PRES_VIS", "word": "stallion", "wordID": 1368, "conditions": [18, 1200, "v", 18000], "trial": 1, "serialpos": 5, "trial_type": "single-stim", "trial_index": 60, "time_elapsed": 320258, "internal_node_id": "0.0-42.0"}}, {"uniqueid": "MTK0548:36WLNQG780H4RH3GFLV811ISLGLBEZ", "current_trial": 61, "dateTime": 1511210854595, "trialdata": {"rt": -1, "stimulus": "<p id=\"stim\">ROCKET</p>", "key_press": -1, "type": "PRES_VIS", "word": "rocket", "wordID": 1201, "conditions": [18, 1200, "v", 18000], "trial": 1, "serialpos": 6, "trial_type": "single-stim", "trial_index": 61, "time_elapsed": 322622, "internal_node_id": "0.0-43.0"}}, {"uniqueid": "MTK0548:36WLNQG780H4RH3GFLV811ISLGLBEZ", "current_trial": 62, "dateTime": 1511210856729, "trialdata": {"rt": -1, "stimulus": "<p id=\"stim\">BRANCH</p>", "key_press": -1, "type": "PRES_VIS", "word": "branch", "wordID": 167, "conditions": [18, 1200, "v", 18000], "trial": 1, "serialpos": 7, "trial_type": "single-stim", "trial_index": 62, "time_elapsed": 324756, "internal_node_id": "0.0-44.0"}}, {"uniqueid": "MTK0548:36WLNQG780H4RH3GFLV811ISLGLBEZ", "current_trial": 63, "dateTime": 1511210858919, "trialdata": {"rt": -1, "stimulus": "<p id=\"stim\">CRITIC</p>", "key_press": -1, "type": "PRES_VIS", "word": "critic", "wordID": 409, "conditions": [18, 1200, "v", 18000], "trial": 1, "serialpos": 8, "trial_type": "single-stim", "trial_index": 63, "time_elapsed": 326946, "internal_node_id": "0.0-45.0"}}, {"uniqueid": "MTK0548:36WLNQG780H4RH3GFLV811ISLGLBEZ", "current_trial": 64, "dateTime": 1511210861070, "trialdata": {"rt": -1, "stimulus": "<p id=\"stim\">ORCHID</p>", "key_press": -1, "type": "PRES_VIS", "word": "orchid", "wordID": 981, "conditions": [18, 1200, "v", 18000], "trial": 1, "serialpos": 9, "trial_type": "single-stim", "trial_index": 64, "time_elapsed": 329096, "internal_node_id": "0.0-46.0"}}, {"uniqueid": "MTK0548:36WLNQG780H4RH3GFLV811ISLGLBEZ", "current_trial": 65, "dateTime": 1511210863369, "trialdata": {"rt": -1, "stimulus": "<p id=\"stim\">FRIEND</p>", "key_press": -1, "type": "PRES_VIS", "word": "friend", "wordID": 605, "conditions": [18, 1200, "v", 18000], "trial": 1, "serialpos": 10, "trial_type": "single-stim", "trial_index": 65, "time_elapsed": 331396, "internal_node_id": "0.0-47.0"}}, {"uniqueid": "MTK0548:36WLNQG780H4RH3GFLV811ISLGLBEZ", "current_trial": 66, "dateTime": 1511210865771, "trialdata": {"rt": -1, "stimulus": "<p id=\"stim\">WASHER</p>", "key_press": -1, "type": "PRES_VIS", "word": "washer", "wordID": 1591, "conditions": [18, 1200, "v", 18000], "trial": 1, "serialpos": 11, "trial_type": "single-stim", "trial_index": 66, "time_elapsed": 333798, "internal_node_id": "0.0-48.0"}}, {"uniqueid": "MTK0548:36WLNQG780H4RH3GFLV811ISLGLBEZ", "current_trial": 67, "dateTime": 1511210868018, "trialdata": {"rt": -1, "stimulus": "<p id=\"stim\">BRANDY</p>", "key_press": -1, "type": "PRES_VIS", "word": "brandy", "wordID": 168, "conditions": [18, 1200, "v", 18000], "trial": 1, "serialpos": 12, "trial_type": "single-stim", "trial_index": 67, "time_elapsed": 336043, "internal_node_id": "0.0-49.0"}}, {"uniqueid": "MTK0548:36WLNQG780H4RH3GFLV811ISLGLBEZ", "current_trial": 68, "dateTime": 1511210870383, "trialdata": {"rt": -1, "stimulus": "<p id=\"stim\">NURSE</p>", "key_press": -1, "type": "PRES_VIS", "word": "nurse", "wordID": 962, "conditions": [18, 1200, "v", 18000], "trial": 1, "serialpos": 13, "trial_type": "single-stim", "trial_index": 68, "time_elapsed": 338406, "internal_node_id": "0.0-50.0"}}, {"uniqueid": "MTK0548:36WLNQG780H4RH3GFLV811ISLGLBEZ", "current_trial": 69, "dateTime": 1511210872552, "trialdata": {"rt": -1, "stimulus": "<p id=\"stim\">RUG</p>", "key_press": -1, "type": "PRES_VIS", "word": "rug", "wordID": 1214, "conditions": [18, 1200, "v", 18000], "trial": 1, "serialpos": 14, "trial_type": "single-stim", "trial_index": 69, "time_elapsed": 340579, "internal_node_id": "0.0-51.0"}}, {"uniqueid": "MTK0548:36WLNQG780H4RH3GFLV811ISLGLBEZ", "current_trial": 70, "dateTime": 1511210874740, "trialdata": {"rt": -1, "stimulus": "<p id=\"stim\">PRINCESS</p>", "key_press": -1, "type": "PRES_VIS", "word": "princess", "wordID": 1124, "conditions": [18, 1200, "v", 18000], "trial": 1, "serialpos": 15, "trial_type": "single-stim", "trial_index": 70, "time_elapsed": 342767, "internal_node_id": "0.0-52.0"}}, {"uniqueid": "MTK0548:36WLNQG780H4RH3GFLV811ISLGLBEZ", "current_trial": 71, "dateTime": 1511210876766, "trialdata": {"rt": -1, "stimulus": "<p id=\"stim\">POISON</p>", "key_press": -1, "type": "PRES_VIS", "word": "poison", "wordID": 1095, "conditions": [18, 1200, "v", 18000], "trial": 1, "serialpos": 16, "trial_type": "single-stim", "trial_index": 71, "time_elapsed": 344793, "internal_node_id": "0.0-53.0"}}, {"uniqueid": "MTK0548:36WLNQG780H4RH3GFLV811ISLGLBEZ", "current_trial": 72, "dateTime": 1511210878905, "trialdata": {"rt": -1, "stimulus": "<p id=\"stim\">BROOK</p>", "key_press": -1, "type": "PRES_VIS", "word": "brook", "wordID": 176, "conditions": [18, 1200, "v", 18000], "trial": 1, "serialpos": 17, "trial_type": "single-stim", "trial_index": 72, "time_elapsed": 346932, "internal_node_id": "0.0-54.0"}}, {"uniqueid": "MTK0548:36WLNQG780H4RH3GFLV811ISLGLBEZ", "current_trial": 73, "dateTime": 1511210881192, "trialdata": {"rt": -1, "stimulus": "", "key_press": -1, "type": "PRE_RECALL_DELAY", "trial_type": "single-stim", "trial_index": 73, "time_elapsed": 349219, "internal_node_id": "0.0-55.0-0.0"}}, {"uniqueid": "MTK0548:36WLNQG780H4RH3GFLV811ISLGLBEZ", "current_trial": 74, "dateTime": 1511210881700, "trialdata": {"rt": -1000, "stimulus": "/static/audio/400Hz.wav", "key_press": -1, "type": "PRE_RECALL_ALERT", "trial_type": "single-audio", "trial_index": 74, "time_elapsed": 349727, "internal_node_id": "0.0-56.0"}}, {"uniqueid": "MTK0548:36WLNQG780H4RH3GFLV811ISLGLBEZ", "current_trial": 75, "dateTime": 1511210941708, "trialdata": {"rt": [3307, 4518, 5866, 7950], "recwords": ["brook", "vendor", "drill", "gavel"], "type": "FREE_RECALL", "conditions": [18, 1200, "v", 18000], "trial": 1, "trial_type": "free-recall", "trial_index": 75, "time_elapsed": 409731, "internal_node_id": "0.0-57.0-0.0"}}, {"uniqueid": "MTK0548:36WLNQG780H4RH3GFLV811ISLGLBEZ", "current_trial": 76, "dateTime": 1511210978631, "trialdata": {"rt": 34919, "key_press": 32, "type": "INSTRUCTIONS", "trial_type": "text", "trial_index": 76, "time_elapsed": 446656, "internal_node_id": "0.0-58.0"}}, {"uniqueid": "MTK0548:36WLNQG780H4RH3GFLV811ISLGLBEZ", "current_trial": 77, "dateTime": 1511211003636, "trialdata": {"rt": [2190, 4796, 9668, 14246, 18233, 21307], "responses": ["9", "18", "19", "21", "13", "12"], "num1": [7, 4, 7, 9, 1, 5, 8], "num2": [1, 8, 4, 7, 5, 4, 5], "num3": [1, 6, 8, 5, 7, 3, 7], "type": "DISTRACTOR", "conditions": [12, 800, "a", 24000], "trial": 2, "trial_type": "math-distractor", "trial_index": 77, "time_elapsed": 471663, "internal_node_id": "0.0-59.0"}}, {"uniqueid": "MTK0548:36WLNQG780H4RH3GFLV811ISLGLBEZ", "current_trial": 78, "dateTime": 1511211006638, "trialdata": {"rt": -1, "stimulus": "<p id=\"stim\">10</p>", "key_press": -1, "trial_type": "single-stim", "trial_index": 78, "time_elapsed": 474665, "internal_node_id": "0.0-60.0-0.0"}}, {"uniqueid": "MTK0548:36WLNQG780H4RH3GFLV811ISLGLBEZ", "current_trial": 79, "dateTime": 1511211007639, "trialdata": {"rt": -1, "stimulus": "<p id=\"stim\">9</p>", "key_press": -1, "trial_type": "single-stim", "trial_index": 79, "time_elapsed": 475666, "internal_node_id": "0.0-60.0-1.0"}}, {"uniqueid": "MTK0548:36WLNQG780H4RH3GFLV811ISLGLBEZ", "current_trial": 80, "dateTime": 1511211008642, "trialdata": {"rt": -1, "stimulus": "<p id=\"stim\">8</p>", "key_press": -1, "trial_type": "single-stim", "trial_index": 80, "time_elapsed": 476669, "internal_node_id": "0.0-60.0-2.0"}}, {"uniqueid": "MTK0548:36WLNQG780H4RH3GFLV811ISLGLBEZ", "current_trial": 81, "dateTime": 1511211009643, "trialdata": {"rt": -1, "stimulus": "<p id=\"stim\">7</p>", "key_press": -1, "trial_type": "single-stim", "trial_index": 81, "time_elapsed": 477670, "internal_node_id": "0.0-60.0-3.0"}}, {"uniqueid": "MTK0548:36WLNQG780H4RH3GFLV811ISLGLBEZ", "current_trial": 82, "dateTime": 1511211010644, "trialdata": {"rt": -1, "stimulus": "<p id=\"stim\">6</p>", "key_press": -1, "trial_type": "single-stim", "trial_index": 82, "time_elapsed": 478671, "internal_node_id": "0.0-60.0-4.0"}}, {"uniqueid": "MTK0548:36WLNQG780H4RH3GFLV811ISLGLBEZ", "current_trial": 83, "dateTime": 1511211011645, "trialdata": {"rt": -1, "stimulus": "<p id=\"stim\">5</p>", "key_press": -1, "trial_type": "single-stim", "trial_index": 83, "time_elapsed": 479672, "internal_node_id": "0.0-60.0-5.0"}}, {"uniqueid": "MTK0548:36WLNQG780H4RH3GFLV811ISLGLBEZ", "current_trial": 84, "dateTime": 1511211012647, "trialdata": {"rt": -1, "stimulus": "<p id=\"stim\">4</p>", "key_press": -1, "trial_type": "single-stim", "trial_index": 84, "time_elapsed": 480673, "internal_node_id": "0.0-60.0-6.0"}}, {"uniqueid": "MTK0548:36WLNQG780H4RH3GFLV811ISLGLBEZ", "current_trial": 85, "dateTime": 1511211013650, "trialdata": {"rt": -1, "stimulus": "<p id=\"stim\">3</p>", "key_press": -1, "trial_type": "single-stim", "trial_index": 85, "time_elapsed": 481677, "internal_node_id": "0.0-60.0-7.0"}}, {"uniqueid": "MTK0548:36WLNQG780H4RH3GFLV811ISLGLBEZ", "current_trial": 86, "dateTime": 1511211014651, "trialdata": {"rt": -1, "stimulus": "<p id=\"stim\">2</p>", "key_press": -1, "trial_type": "single-stim", "trial_index": 86, "time_elapsed": 482678, "internal_node_id": "0.0-60.0-8.0"}}, {"uniqueid": "MTK0548:36WLNQG780H4RH3GFLV811ISLGLBEZ", "current_trial": 87, "dateTime": 1511211015654, "trialdata": {"rt": -1, "stimulus": "<p id=\"stim\">1</p>", "key_press": -1, "trial_type": "single-stim", "trial_index": 87, "time_elapsed": 483680, "internal_node_id": "0.0-60.0-9.0"}}, {"uniqueid": "MTK0548:36WLNQG780H4RH3GFLV811ISLGLBEZ", "current_trial": 88, "dateTime": 1511211017155, "trialdata": {"rt": -1, "stimulus": "<p id=\"stim\">+</p>", "key_press": -1, "type": "FIXATION", "trial_type": "single-stim", "trial_index": 88, "time_elapsed": 485182, "internal_node_id": "0.0-61.0-0.0"}}, {"uniqueid": "MTK0548:36WLNQG780H4RH3GFLV811ISLGLBEZ", "current_trial": 89, "dateTime": 1511211018961, "trialdata": {"rt": -1000, "stimulus": "/static/audio/wordpool/WITNESS.wav", "key_press": -1, "type": "PRES_AUD", "word": "witness", "wordID": 1617, "conditions": [12, 800, "a", 24000], "trial": 2, "serialpos": 0, "trial_type": "single-audio", "trial_index": 89, "time_elapsed": 486988, "internal_node_id": "0.0-62.0"}}, {"uniqueid": "MTK0548:36WLNQG780H4RH3GFLV811ISLGLBEZ", "current_trial": 90, "dateTime": 1511211020874, "trialdata": {"rt": -1000, "stimulus": "/static/audio/wordpool/PEBBLE.wav", "key_press": -1, "type": "PRES_AUD", "word": "pebble", "wordID": 1034, "conditions": [12, 800, "a", 24000], "trial": 2, "serialpos": 1, "trial_type": "single-audio", "trial_index": 90, "time_elapsed": 488901, "internal_node_id": "0.0-63.0"}}, {"uniqueid": "MTK0548:36WLNQG780H4RH3GFLV811ISLGLBEZ", "current_trial": 91, "dateTime": 1511211022715, "trialdata": {"rt": -1000, "stimulus": "/static/audio/wordpool/SHIRT.wav", "key_press": -1, "type": "PRES_AUD", "word": "shirt", "wordID": 1286, "conditions": [12, 800, "a", 24000], "trial": 2, "serialpos": 2, "trial_type": "single-audio", "trial_index": 91, "time_elapsed": 490742, "internal_node_id": "0.0-64.0"}}, {"uniqueid": "MTK0548:36WLNQG780H4RH3GFLV811ISLGLBEZ", "current_trial": 92, "dateTime": 1511211024592, "trialdata": {"rt": -1000, "stimulus": "/static/audio/wordpool/BRICK.wav", "key_press": -1, "type": "PRES_AUD", "word": "brick", "wordID": 171, "conditions": [12, 800, "a", 24000], "trial": 2, "serialpos": 3, "trial_type": "single-audio", "trial_index": 92, "time_elapsed": 492619, "internal_node_id": "0.0-65.0"}}, {"uniqueid": "MTK0548:36WLNQG780H4RH3GFLV811ISLGLBEZ", "current_trial": 93, "dateTime": 1511211026271, "trialdata": {"rt": -1000, "stimulus": "/static/audio/wordpool/STOVE.wav", "key_press": -1, "type": "PRES_AUD", "word": "stove", "wordID": 1387, "conditions": [12, 800, "a", 24000], "trial": 2, "serialpos": 4, "trial_type": "single-audio", "trial_index": 93, "time_elapsed": 494298, "internal_node_id": "0.0-66.0"}}, {"uniqueid": "MTK0548:36WLNQG780H4RH3GFLV811ISLGLBEZ", "current_trial": 94, "dateTime": 1511211027929, "trialdata": {"rt": -1000, "stimulus": "/static/audio/wordpool/COCOON.wav", "key_press": -1, "type": "PRES_AUD", "word": "cocoon", "wordID": 338, "conditions": [12, 800, "a", 24000], "trial": 2, "serialpos": 5, "trial_type": "single-audio", "trial_index": 94, "time_elapsed": 495955, "internal_node_id": "0.0-67.0"}}, {"uniqueid": "MTK0548:36WLNQG780H4RH3GFLV811ISLGLBEZ", "current_trial": 95, "dateTime": 1511211029829, "trialdata": {"rt": -1000, "stimulus": "/static/audio/wordpool/CELLAR.wav", "key_press": -1, "type": "PRES_AUD", "word": "cellar", "wordID": 266, "conditions": [12, 800, "a", 24000], "trial": 2, "serialpos": 6, "trial_type": "single-audio", "trial_index": 95, "time_elapsed": 497856, "internal_node_id": "0.0-68.0"}}, {"uniqueid": "MTK0548:36WLNQG780H4RH3GFLV811ISLGLBEZ", "current_trial": 96, "dateTime": 1511211031630, "trialdata": {"rt": -1000, "stimulus": "/static/audio/wordpool/COMET.wav", "key_press": -1, "type": "PRES_AUD", "word": "comet", "wordID": 352, "conditions": [12, 800, "a", 24000], "trial": 2, "serialpos": 7, "trial_type": "single-audio", "trial_index": 96, "time_elapsed": 499657, "internal_node_id": "0.0-69.0"}}, {"uniqueid": "MTK0548:36WLNQG780H4RH3GFLV811ISLGLBEZ", "current_trial": 97, "dateTime": 1511211033409, "trialdata": {"rt": -1000, "stimulus": "/static/audio/wordpool/GLOVE.wav", "key_press": -1, "type": "PRES_AUD", "word": "glove", "wordID": 641, "conditions": [12, 800, "a", 24000], "trial": 2, "serialpos": 8, "trial_type": "single-audio", "trial_index": 97, "time_elapsed": 501436, "internal_node_id": "0.0-70.0"}}, {"uniqueid": "MTK0548:36WLNQG780H4RH3GFLV811ISLGLBEZ", "current_trial": 98, "dateTime": 1511211035084, "trialdata": {"rt": -1000, "stimulus": "/static/audio/wordpool/BASEMENT.wav", "key_press": -1, "type": "PRES_AUD", "word": "basement", "wordID": 93, "conditions": [12, 800, "a", 24000], "trial": 2, "serialpos": 9, "trial_type": "single-audio", "trial_index": 98, "time_elapsed": 503111, "internal_node_id": "0.0-71.0"}}, {"uniqueid": "MTK0548:36WLNQG780H4RH3GFLV811ISLGLBEZ", "current_trial": 99, "dateTime": 1511211036808, "trialdata": {"rt": -1000, "stimulus": "/static/audio/wordpool/SUSPECT.wav", "key_press": -1, "type": "PRES_AUD", "word": "suspect", "wordID": 1414, "conditions": [12, 800, "a", 24000], "trial": 2, "serialpos": 10, "trial_type": "single-audio", "trial_index": 99, "time_elapsed": 504835, "internal_node_id": "0.0-72.0"}}, {"uniqueid": "MTK0548:36WLNQG780H4RH3GFLV811ISLGLBEZ", "current_trial": 100, "dateTime": 1511211038592, "trialdata": {"rt": -1000, "stimulus": "/static/audio/wordpool/ROBBER.wav", "key_press": -1, "type": "PRES_AUD", "word": "robber", "wordID": 1196, "conditions": [12, 800, "a", 24000], "trial": 2, "serialpos": 11, "trial_type": "single-audio", "trial_index": 100, "time_elapsed": 506619, "internal_node_id": "0.0-73.0"}}, {"uniqueid": "MTK0548:36WLNQG780H4RH3GFLV811ISLGLBEZ", "current_trial": 101, "dateTime": 1511211039989, "trialdata": {"rt": -1, "stimulus": "", "key_press": -1, "type": "PRE_RECALL_DELAY", "trial_type": "single-stim", "trial_index": 101, "time_elapsed": 508016, "internal_node_id": "0.0-74.0-0.0"}}, {"uniqueid": "MTK0548:36WLNQG780H4RH3GFLV811ISLGLBEZ", "current_trial": 102, "dateTime": 1511211040492, "trialdata": {"rt": -1000, "stimulus": "/static/audio/400Hz.wav", "key_press": -1, "type": "PRE_RECALL_ALERT", "trial_type": "single-audio", "trial_index": 102, "time_elapsed": 508519, "internal_node_id": "0.0-75.0"}}, {"uniqueid": "MTK0548:36WLNQG780H4RH3GFLV811ISLGLBEZ", "current_trial": 103, "dateTime": 1511211100497, "trialdata": {"rt": [2522, 3772, 5469, 6514, 8044, 10426, 21863, 26910], "recwords": ["suspect", "robber", "basement", "glove", "stellar", "comet", "cocoon", "pebble"], "type": "FREE_RECALL", "conditions": [12, 800, "a", 24000], "trial": 2, "trial_type": "free-recall", "trial_index": 103, "time_elapsed": 568523, "internal_node_id": "0.0-76.0-0.0"}}, {"uniqueid": "MTK0548:36WLNQG780H4RH3GFLV811ISLGLBEZ", "current_trial": 104, "dateTime": 1511211122866, "trialdata": {"rt": 20366, "key_press": 32, "type": "INSTRUCTIONS", "trial_type": "text", "trial_index": 104, "time_elapsed": 590893, "internal_node_id": "0.0-77.0"}}, {"uniqueid": "MTK0548:36WLNQG780H4RH3GFLV811ISLGLBEZ", "current_trial": 105, "dateTime": 1511211148874, "trialdata": {"rt": [5496, 8779, 10919, 12659, 17482, 22181], "responses": ["15", "14", "11", "21", "17", "21"], "num1": [8, 8, 2, 7, 2, 7, 7], "num2": [7, 1, 8, 7, 6, 9, 4], "num3": [1, 5, 1, 7, 9, 5, 1], "type": "DISTRACTOR", "conditions": [24, 800, "v", 24000], "trial": 3, "trial_type": "math-distractor", "trial_index": 105, "time_elapsed": 616898, "internal_node_id": "0.0-78.0"}}, {"uniqueid": "MTK0548:36WLNQG780H4RH3GFLV811ISLGLBEZ", "current_trial": 106, "dateTime": 1511211151875, "trialdata": {"rt": -1, "stimulus": "<p id=\"stim\">10</p>", "key_press": -1, "trial_type": "single-stim", "trial_index": 106, "time_elapsed": 619902, "internal_node_id": "0.0-79.0-0.0"}}, {"uniqueid": "MTK0548:36WLNQG780H4RH3GFLV811ISLGLBEZ", "current_trial": 107, "dateTime": 1511211152877, "trialdata": {"rt": -1, "stimulus": "<p id=\"stim\">9</p>", "key_press": -1, "trial_type": "single-stim", "trial_index": 107, "time_elapsed": 620904, "internal_node_id": "0.0-79.0-1.0"}}, {"uniqueid": "MTK0548:36WLNQG780H4RH3GFLV811ISLGLBEZ", "current_trial": 108, "dateTime": 1511211153879, "trialdata": {"rt": -1, "stimulus": "<p id=\"stim\">8</p>", "key_press": -1, "trial_type": "single-stim", "trial_index": 108, "time_elapsed": 621905, "internal_node_id": "0.0-79.0-2.0"}}, {"uniqueid": "MTK0548:36WLNQG780H4RH3GFLV811ISLGLBEZ", "current_trial": 109, "dateTime": 1511211154882, "trialdata": {"rt": -1, "stimulus": "<p id=\"stim\">7</p>", "key_press": -1, "trial_type": "single-stim", "trial_index": 109, "time_elapsed": 622909, "internal_node_id": "0.0-79.0-3.0"}}, {"uniqueid": "MTK0548:36WLNQG780H4RH3GFLV811ISLGLBEZ", "current_trial": 110, "dateTime": 1511211155883, "trialdata": {"rt": -1, "stimulus": "<p id=\"stim\">6</p>", "key_press": -1, "trial_type": "single-stim", "trial_index": 110, "time_elapsed": 623910, "internal_node_id": "0.0-79.0-4.0"}}, {"uniqueid": "MTK0548:36WLNQG780H4RH3GFLV811ISLGLBEZ", "current_trial": 111, "dateTime": 1511211156884, "trialdata": {"rt": -1, "stimulus": "<p id=\"stim\">5</p>", "key_press": -1, "trial_type": "single-stim", "trial_index": 111, "time_elapsed": 624911, "internal_node_id": "0.0-79.0-5.0"}}, {"uniqueid": "MTK0548:36WLNQG780H4RH3GFLV811ISLGLBEZ", "current_trial": 112, "dateTime": 1511211157886, "trialdata": {"rt": -1, "stimulus": "<p id=\"stim\">4</p>", "key_press": -1, "trial_type": "single-stim", "trial_index": 112, "time_elapsed": 625913, "internal_node_id": "0.0-79.0-6.0"}}, {"uniqueid": "MTK0548:36WLNQG780H4RH3GFLV811ISLGLBEZ", "current_trial": 113, "dateTime": 1511211158888, "trialdata": {"rt": -1, "stimulus": "<p id=\"stim\">3</p>", "key_press": -1, "trial_type": "single-stim", "trial_index": 113, "time_elapsed": 626915, "internal_node_id": "0.0-79.0-7.0"}}, {"uniqueid": "MTK0548:36WLNQG780H4RH3GFLV811ISLGLBEZ", "current_trial": 114, "dateTime": 1511211159890, "trialdata": {"rt": -1, "stimulus": "<p id=\"stim\">2</p>", "key_press": -1, "trial_type": "single-stim", "trial_index": 114, "time_elapsed": 627917, "internal_node_id": "0.0-79.0-8.0"}}, {"uniqueid": "MTK0548:36WLNQG780H4RH3GFLV811ISLGLBEZ", "current_trial": 115, "dateTime": 1511211160892, "trialdata": {"rt": -1, "stimulus": "<p id=\"stim\">1</p>", "key_press": -1, "trial_type": "single-stim", "trial_index": 115, "time_elapsed": 628919, "internal_node_id": "0.0-79.0-9.0"}}, {"uniqueid": "MTK0548:36WLNQG780H4RH3GFLV811ISLGLBEZ", "current_trial": 116, "dateTime": 1511211162394, "trialdata": {"rt": -1, "stimulus": "<p id=\"stim\">+</p>", "key_press": -1, "type": "FIXATION", "trial_type": "single-stim", "trial_index": 116, "time_elapsed": 630421, "internal_node_id": "0.0-80.0-0.0"}}, {"uniqueid": "MTK0548:36WLNQG780H4RH3GFLV811ISLGLBEZ", "current_trial": 117, "dateTime": 1511211163195, "trialdata": {"rt": -1, "stimulus": "<p id=\"stim\">PACKAGE</p>", "key_press": -1, "type": "PRES_VIS", "word": "package", "wordID": 996, "conditions": [24, 800, "v", 24000], "trial": 3, "serialpos": 0, "trial_type": "single-stim", "trial_index": 117, "time_elapsed": 631222, "internal_node_id": "0.0-81.0"}}, {"uniqueid": "MTK0548:36WLNQG780H4RH3GFLV811ISLGLBEZ", "current_trial": 118, "dateTime": 1511211165021, "trialdata": {"rt": -1, "stimulus": "<p id=\"stim\">DANCER</p>", "key_press": -1, "type": "PRES_VIS", "word": "dancer", "wordID": 436, "conditions": [24, 800, "v", 24000], "trial": 3, "serialpos": 1, "trial_type": "single-stim", "trial_index": 118, "time_elapsed": 633048, "internal_node_id": "0.0-82.0"}}, {"uniqueid": "MTK0548:36WLNQG780H4RH3GFLV811ISLGLBEZ", "current_trial": 119, "dateTime": 1511211166822, "trialdata": {"rt": -1, "stimulus": "<p id=\"stim\">CRATER</p>", "key_press": -1, "type": "PRES_VIS", "word": "crater", "wordID": 399, "conditions": [24, 800, "v", 24000], "trial": 3, "serialpos": 2, "trial_type": "single-stim", "trial_index": 119, "time_elapsed": 634849, "internal_node_id": "0.0-83.0"}}, {"uniqueid": "MTK0548:36WLNQG780H4RH3GFLV811ISLGLBEZ", "current_trial": 120, "dateTime": 1511211168466, "trialdata": {"rt": -1, "stimulus": "<p id=\"stim\">LAVA</p>", "key_press": -1, "type": "PRES_VIS", "word": "lava", "wordID": 803, "conditions": [24, 800, "v", 24000], "trial": 3, "serialpos": 3, "trial_type": "single-stim", "trial_index": 120, "time_elapsed": 636492, "internal_node_id": "0.0-84.0"}}, {"uniqueid": "MTK0548:36WLNQG780H4RH3GFLV811ISLGLBEZ", "current_trial": 121, "dateTime": 1511211170260, "trialdata": {"rt": -1, "stimulus": "<p id=\"stim\">DRAWING</p>", "key_press": -1, "type": "PRES_VIS", "word": "drawing", "wordID": 493, "conditions": [24, 800, "v", 24000], "trial": 3, "serialpos": 4, "trial_type": "single-stim", "trial_index": 121, "time_elapsed": 638286, "internal_node_id": "0.0-85.0"}}, {"uniqueid": "MTK0548:36WLNQG780H4RH3GFLV811ISLGLBEZ", "current_trial": 122, "dateTime": 1511211172188, "trialdata": {"rt": -1, "stimulus": "<p id=\"stim\">DENIM</p>", "key_press": -1, "type": "PRES_VIS", "word": "denim", "wordID": 445, "conditions": [24, 800, "v", 24000], "trial": 3, "serialpos": 5, "trial_type": "single-stim", "trial_index": 122, "time_elapsed": 640215, "internal_node_id": "0.0-86.0"}}, {"uniqueid": "MTK0548:36WLNQG780H4RH3GFLV811ISLGLBEZ", "current_trial": 123, "dateTime": 1511211174175, "trialdata": {"rt": -1, "stimulus": "<p id=\"stim\">COCKTAIL</p>", "key_press": -1, "type": "PRES_VIS", "word": "cocktail", "wordID": 337, "conditions": [24, 800, "v", 24000], "trial": 3, "serialpos": 6, "trial_type": "single-stim", "trial_index": 123, "time_elapsed": 642201, "internal_node_id": "0.0-87.0"}}, {"uniqueid": "MTK0548:36WLNQG780H4RH3GFLV811ISLGLBEZ", "current_trial": 124, "dateTime": 1511211175897, "trialdata": {"rt": -1, "stimulus": "<p id=\"stim\">BEEF</p>", "key_press": -1, "type": "PRES_VIS", "word": "beef", "wordID": 112, "conditions": [24, 800, "v", 24000], "trial": 3, "serialpos": 7, "trial_type": "single-stim", "trial_index": 124, "time_elapsed": 643924, "internal_node_id": "0.0-88.0"}}, {"uniqueid": "MTK0548:36WLNQG780H4RH3GFLV811ISLGLBEZ", "current_trial": 125, "dateTime": 1511211177782, "trialdata": {"rt": -1, "stimulus": "<p id=\"stim\">WARDROBE</p>", "key_press": -1, "type": "PRES_VIS", "word": "wardrobe", "wordID": 1586, "conditions": [24, 800, "v", 24000], "trial": 3, "serialpos": 8, "trial_type": "single-stim", "trial_index": 125, "time_elapsed": 645809, "internal_node_id": "0.0-89.0"}}, {"uniqueid": "MTK0548:36WLNQG780H4RH3GFLV811ISLGLBEZ", "current_trial": 126, "dateTime": 1511211179752, "trialdata": {"rt": -1, "stimulus": "<p id=\"stim\">TOMBSTONE</p>", "key_press": -1, "type": "PRES_VIS", "word": "tombstone", "wordID": 1477, "conditions": [24, 800, "v", 24000], "trial": 3, "serialpos": 9, "trial_type": "single-stim", "trial_index": 126, "time_elapsed": 647779, "internal_node_id": "0.0-90.0"}}, {"uniqueid": "MTK0548:36WLNQG780H4RH3GFLV811ISLGLBEZ", "current_trial": 127, "dateTime": 1511211181658, "trialdata": {"rt": -1, "stimulus": "<p id=\"stim\">DENTIST</p>", "key_press": -1, "type": "PRES_VIS", "word": "dentist", "wordID": 446, "conditions": [24, 800, "v", 24000], "trial": 3, "serialpos": 10, "trial_type": "single-stim", "trial_index": 127, "time_elapsed": 649685, "internal_node_id": "0.0-91.0"}}, {"uniqueid": "MTK0548:36WLNQG780H4RH3GFLV811ISLGLBEZ", "current_trial": 128, "dateTime": 1511211183514, "trialdata": {"rt": -1, "stimulus": "<p id=\"stim\">PORK</p>", "key_press": -1, "type": "PRES_VIS", "word": "pork", "wordID": 1107, "conditions": [24, 800, "v", 24000], "trial": 3, "serialpos": 11, "trial_type": "single-stim", "trial_index": 128, "time_elapsed": 651541, "internal_node_id": "0.0-92.0"}}, {"uniqueid": "MTK0548:36WLNQG780H4RH3GFLV811ISLGLBEZ", "current_trial": 129, "dateTime": 1511211185274, "trialdata": {"rt": -1, "stimulus": "<p id=\"stim\">GARDEN</p>", "key_press": -1, "type": "PRES_VIS", "word": "garden", "wordID": 622, "conditions": [24, 800, "v", 24000], "trial": 3, "serialpos": 12, "trial_type": "single-stim", "trial_index": 129, "time_elapsed": 653300, "internal_node_id": "0.0-93.0"}}, {"uniqueid": "MTK0548:36WLNQG780H4RH3GFLV811ISLGLBEZ", "current_trial": 130, "dateTime": 1511211187189, "trialdata": {"rt": -1, "stimulus": "<p id=\"stim\">AIRPLANE</p>", "key_press": -1, "type": "PRES_VIS", "word": "airplane", "wordID": 11, "conditions": [24, 800, "v", 24000], "trial": 3, "serialpos": 13, "trial_type": "single-stim", "trial_index": 130, "time_elapsed": 655216, "internal_node_id": "0.0-94.0"}}, {"uniqueid": "MTK0548:36WLNQG780H4RH3GFLV811ISLGLBEZ", "current_trial": 131, "dateTime": 1511211189088, "trialdata": {"rt": -1, "stimulus": "<p id=\"stim\">CHILD</p>", "key_press": -1, "type": "PRES_VIS", "word": "child", "wordID": 298, "conditions": [24, 800, "v", 24000], "trial": 3, "serialpos": 14, "trial_type": "single-stim", "trial_index": 131, "time_elapsed": 657114, "internal_node_id": "0.0-95.0"}}, {"uniqueid": "MTK0548:36WLNQG780H4RH3GFLV811ISLGLBEZ", "current_trial": 132, "dateTime": 1511211191081, "trialdata": {"rt": -1, "stimulus": "<p id=\"stim\">MILDEW</p>", "key_press": -1, "type": "PRES_VIS", "word": "mildew", "wordID": 892, "conditions": [24, 800, "v", 24000], "trial": 3, "serialpos": 15, "trial_type": "single-stim", "trial_index": 132, "time_elapsed": 659108, "internal_node_id": "0.0-96.0"}}, {"uniqueid": "MTK0548:36WLNQG780H4RH3GFLV811ISLGLBEZ", "current_trial": 133, "dateTime": 1511211193062, "trialdata": {"rt": -1, "stimulus": "<p id=\"stim\">BUBBLE</p>", "key_press": -1, "type": "PRES_VIS", "word": "bubble", "wordID": 182, "conditions": [24, 800, "v", 24000], "trial": 3, "serialpos": 16, "trial_type": "single-stim", "trial_index": 133, "time_elapsed": 661089, "internal_node_id": "0.0-97.0"}}, {"uniqueid": "MTK0548:36WLNQG780H4RH3GFLV811ISLGLBEZ", "current_trial": 134, "dateTime": 1511211195008, "trialdata": {"rt": -1, "stimulus": "<p id=\"stim\">BABY</p>", "key_press": -1, "type": "PRES_VIS", "word": "baby", "wordID": 63, "conditions": [24, 800, "v", 24000], "trial": 3, "serialpos": 17, "trial_type": "single-stim", "trial_index": 134, "time_elapsed": 663035, "internal_node_id": "0.0-98.0"}}, {"uniqueid": "MTK0548:36WLNQG780H4RH3GFLV811ISLGLBEZ", "current_trial": 135, "dateTime": 1511211196746, "trialdata": {"rt": -1, "stimulus": "<p id=\"stim\">TWEEZERS</p>", "key_press": -1, "type": "PRES_VIS", "word": "tweezers", "wordID": 1525, "conditions": [24, 800, "v", 24000], "trial": 3, "serialpos": 18, "trial_type": "single-stim", "trial_index": 135, "time_elapsed": 664773, "internal_node_id": "0.0-99.0"}}, {"uniqueid": "MTK0548:36WLNQG780H4RH3GFLV811ISLGLBEZ", "current_trial": 136, "dateTime": 1511211198626, "trialdata": {"rt": -1, "stimulus": "<p id=\"stim\">LEG</p>", "key_press": -1, "type": "PRES_VIS", "word": "leg", "wordID": 808, "conditions": [24, 800, "v", 24000], "trial": 3, "serialpos": 19, "trial_type": "single-stim", "trial_index": 136, "time_elapsed": 666653, "internal_node_id": "0.0-100.0"}}, {"uniqueid": "MTK0548:36WLNQG780H4RH3GFLV811ISLGLBEZ", "current_trial": 137, "dateTime": 1511211200252, "trialdata": {"rt": -1, "stimulus": "<p id=\"stim\">MOTOR</p>", "key_press": -1, "type": "PRES_VIS", "word": "motor", "wordID": 921, "conditions": [24, 800, "v", 24000], "trial": 3, "serialpos": 20, "trial_type": "single-stim", "trial_index": 137, "time_elapsed": 668278, "internal_node_id": "0.0-101.0"}}, {"uniqueid": "MTK0548:36WLNQG780H4RH3GFLV811ISLGLBEZ", "current_trial": 138, "dateTime": 1511211201883, "trialdata": {"rt": -1, "stimulus": "<p id=\"stim\">ACTOR</p>", "key_press": -1, "type": "PRES_VIS", "word": "actor", "wordID": 4, "conditions": [24, 800, "v", 24000], "trial": 3, "serialpos": 21, "trial_type": "single-stim", "trial_index": 138, "time_elapsed": 669910, "internal_node_id": "0.0-102.0"}}, {"uniqueid": "MTK0548:36WLNQG780H4RH3GFLV811ISLGLBEZ", "current_trial": 139, "dateTime": 1511211203614, "trialdata": {"rt": -1, "stimulus": "<p id=\"stim\">ACTRESS</p>", "key_press": -1, "type": "PRES_VIS", "word": "actress", "wordID": 5, "conditions": [24, 800, "v", 24000], "trial": 3, "serialpos": 22, "trial_type": "single-stim", "trial_index": 139, "time_elapsed": 671641, "internal_node_id": "0.0-103.0"}}, {"uniqueid": "MTK0548:36WLNQG780H4RH3GFLV811ISLGLBEZ", "current_trial": 140, "dateTime": 1511211205415, "trialdata": {"rt": -1, "stimulus": "<p id=\"stim\">POSTAGE</p>", "key_press": -1, "type": "PRES_VIS", "word": "postage", "wordID": 1112, "conditions": [24, 800, "v", 24000], "trial": 3, "serialpos": 23, "trial_type": "single-stim", "trial_index": 140, "time_elapsed": 673441, "internal_node_id": "0.0-104.0"}}, {"uniqueid": "MTK0548:36WLNQG780H4RH3GFLV811ISLGLBEZ", "current_trial": 141, "dateTime": 1511211207760, "trialdata": {"rt": -1, "stimulus": "", "key_press": -1, "type": "PRE_RECALL_DELAY", "trial_type": "single-stim", "trial_index": 141, "time_elapsed": 675787, "internal_node_id": "0.0-105.0-0.0"}}, {"uniqueid": "MTK0548:36WLNQG780H4RH3GFLV811ISLGLBEZ", "current_trial": 142, "dateTime": 1511211208272, "trialdata": {"rt": -1000, "stimulus": "/static/audio/400Hz.wav", "key_press": -1, "type": "PRE_RECALL_ALERT", "trial_type": "single-audio", "trial_index": 142, "time_elapsed": 676299, "internal_node_id": "0.0-106.0"}}, {"uniqueid": "MTK0548:36WLNQG780H4RH3GFLV811ISLGLBEZ", "current_trial": 143, "dateTime": 1511211268279, "trialdata": {"rt": [2222, 3582, 5147, 7458, 10445, 12691, 15568, 28465], "recwords": ["postage", "actor", "actress", "bubble", "denim", "tweezers", "tombstone", "bubble"], "type": "FREE_RECALL", "conditions": [24, 800, "v", 24000], "trial": 3, "trial_type": "free-recall", "trial_index": 143, "time_elapsed": 736302, "internal_node_id": "0.0-107.0-0.0"}}, {"uniqueid": "MTK0548:36WLNQG780H4RH3GFLV811ISLGLBEZ", "current_trial": 144, "dateTime": 1511211271915, "trialdata": {"rt": 1635, "key_press": 32, "type": "INSTRUCTIONS", "trial_type": "text", "trial_index": 144, "time_elapsed": 739942, "internal_node_id": "0.0-108.0"}}, {"uniqueid": "MTK0548:36WLNQG780H4RH3GFLV811ISLGLBEZ", "current_trial": 145, "dateTime": 1511211285921, "trialdata": {"rt": [3396, 6695, 9334, 11566], "responses": ["13", "13", "20", "10"], "num1": [7, 1, 9, 2, 7], "num2": [4, 7, 9, 5, 5], "num3": [2, 5, 2, 3, 8], "type": "DISTRACTOR", "conditions": [24, 800, "v", 12000], "trial": 4, "trial_type": "math-distractor", "trial_index": 145, "time_elapsed": 753948, "internal_node_id": "0.0-109.0"}}, {"uniqueid": "MTK0548:36WLNQG780H4RH3GFLV811ISLGLBEZ", "current_trial": 146, "dateTime": 1511211288925, "trialdata": {"rt": -1, "stimulus": "<p id=\"stim\">10</p>", "key_press": -1, "trial_type": "single-stim", "trial_index": 146, "time_elapsed": 756952, "internal_node_id": "0.0-110.0-0.0"}}, {"uniqueid": "MTK0548:36WLNQG780H4RH3GFLV811ISLGLBEZ", "current_trial": 147, "dateTime": 1511211289927, "trialdata": {"rt": -1, "stimulus": "<p id=\"stim\">9</p>", "key_press": -1, "trial_type": "single-stim", "trial_index": 147, "time_elapsed": 757954, "internal_node_id": "0.0-110.0-1.0"}}, {"uniqueid": "MTK0548:36WLNQG780H4RH3GFLV811ISLGLBEZ", "current_trial": 148, "dateTime": 1511211290929, "trialdata": {"rt": -1, "stimulus": "<p id=\"stim\">8</p>", "key_press": -1, "trial_type": "single-stim", "trial_index": 148, "time_elapsed": 758956, "internal_node_id": "0.0-110.0-2.0"}}, {"uniqueid": "MTK0548:36WLNQG780H4RH3GFLV811ISLGLBEZ", "current_trial": 149, "dateTime": 1511211291933, "trialdata": {"rt": -1, "stimulus": "<p id=\"stim\">7</p>", "key_press": -1, "trial_type": "single-stim", "trial_index": 149, "time_elapsed": 759959, "internal_node_id": "0.0-110.0-3.0"}}, {"uniqueid": "MTK0548:36WLNQG780H4RH3GFLV811ISLGLBEZ", "current_trial": 150, "dateTime": 1511211292933, "trialdata": {"rt": -1, "stimulus": "<p id=\"stim\">6</p>", "key_press": -1, "trial_type": "single-stim", "trial_index": 150, "time_elapsed": 760960, "internal_node_id": "0.0-110.0-4.0"}}, {"uniqueid": "MTK0548:36WLNQG780H4RH3GFLV811ISLGLBEZ", "current_trial": 151, "dateTime": 1511211293935, "trialdata": {"rt": -1, "stimulus": "<p id=\"stim\">5</p>", "key_press": -1, "trial_type": "single-stim", "trial_index": 151, "time_elapsed": 761962, "internal_node_id": "0.0-110.0-5.0"}}, {"uniqueid": "MTK0548:36WLNQG780H4RH3GFLV811ISLGLBEZ", "current_trial": 152, "dateTime": 1511211294938, "trialdata": {"rt": -1, "stimulus": "<p id=\"stim\">4</p>", "key_press": -1, "trial_type": "single-stim", "trial_index": 152, "time_elapsed": 762965, "internal_node_id": "0.0-110.0-6.0"}}, {"uniqueid": "MTK0548:36WLNQG780H4RH3GFLV811ISLGLBEZ", "current_trial": 153, "dateTime": 1511211295939, "trialdata": {"rt": -1, "stimulus": "<p id=\"stim\">3</p>", "key_press": -1, "trial_type": "single-stim", "trial_index": 153, "time_elapsed": 763966, "internal_node_id": "0.0-110.0-7.0"}}, {"uniqueid": "MTK0548:36WLNQG780H4RH3GFLV811ISLGLBEZ", "current_trial": 154, "dateTime": 1511211296941, "trialdata": {"rt": -1, "stimulus": "<p id=\"stim\">2</p>", "key_press": -1, "trial_type": "single-stim", "trial_index": 154, "time_elapsed": 764968, "internal_node_id": "0.0-110.0-8.0"}}, {"uniqueid": "MTK0548:36WLNQG780H4RH3GFLV811ISLGLBEZ", "current_trial": 155, "dateTime": 1511211297944, "trialdata": {"rt": -1, "stimulus": "<p id=\"stim\">1</p>", "key_press": -1, "trial_type": "single-stim", "trial_index": 155, "time_elapsed": 765971, "internal_node_id": "0.0-110.0-9.0"}}, {"uniqueid": "MTK0548:36WLNQG780H4RH3GFLV811ISLGLBEZ", "current_trial": 156, "dateTime": 1511211299446, "trialdata": {"rt": -1, "stimulus": "<p id=\"stim\">+</p>", "key_press": -1, "type": "FIXATION", "trial_type": "single-stim", "trial_index": 156, "time_elapsed": 767473, "internal_node_id": "0.0-111.0-0.0"}}, {"uniqueid": "MTK0548:36WLNQG780H4RH3GFLV811ISLGLBEZ", "current_trial": 157, "dateTime": 1511211300247, "trialdata": {"rt": -1, "stimulus": "<p id=\"stim\">JELLY</p>", "key_press": -1, "type": "PRES_VIS", "word": "jelly", "wordID": 754, "conditions": [24, 800, "v", 12000], "trial": 4, "serialpos": 0, "trial_type": "single-stim", "trial_index": 157, "time_elapsed": 768273, "internal_node_id": "0.0-112.0"}}, {"uniqueid": "MTK0548:36WLNQG780H4RH3GFLV811ISLGLBEZ", "current_trial": 158, "dateTime": 1511211302058, "trialdata": {"rt": -1, "stimulus": "<p id=\"stim\">GALLON</p>", "key_press": -1, "type": "PRES_VIS", "word": "gallon", "wordID": 617, "conditions": [24, 800, "v", 12000], "trial": 4, "serialpos": 1, "trial_type": "single-stim", "trial_index": 158, "time_elapsed": 770085, "internal_node_id": "0.0-113.0"}}, {"uniqueid": "MTK0548:36WLNQG780H4RH3GFLV811ISLGLBEZ", "current_trial": 159, "dateTime": 1511211304019, "trialdata": {"rt": -1, "stimulus": "<p id=\"stim\">HERO</p>", "key_press": -1, "type": "PRES_VIS", "word": "hero", "wordID": 705, "conditions": [24, 800, "v", 12000], "trial": 4, "serialpos": 2, "trial_type": "single-stim", "trial_index": 159, "time_elapsed": 772046, "internal_node_id": "0.0-114.0"}}, {"uniqueid": "MTK0548:36WLNQG780H4RH3GFLV811ISLGLBEZ", "current_trial": 160, "dateTime": 1511211305790, "trialdata": {"rt": -1, "stimulus": "<p id=\"stim\">PENGUIN</p>", "key_press": -1, "type": "PRES_VIS", "word": "penguin", "wordID": 1043, "conditions": [24, 800, "v", 12000], "trial": 4, "serialpos": 3, "trial_type": "single-stim", "trial_index": 160, "time_elapsed": 773817, "internal_node_id": "0.0-115.0"}}, {"uniqueid": "MTK0548:36WLNQG780H4RH3GFLV811ISLGLBEZ", "current_trial": 161, "dateTime": 1511211307734, "trialdata": {"rt": -1, "stimulus": "<p id=\"stim\">LIZARD</p>", "key_press": -1, "type": "PRES_VIS", "word": "lizard", "wordID": 833, "conditions": [24, 800, "v", 12000], "trial": 4, "serialpos": 4, "trial_type": "single-stim", "trial_index": 161, "time_elapsed": 775761, "internal_node_id": "0.0-116.0"}}, {"uniqueid": "MTK0548:36WLNQG780H4RH3GFLV811ISLGLBEZ", "current_trial": 162, "dateTime": 1511211309412, "trialdata": {"rt": -1, "stimulus": "<p id=\"stim\">QUEEN</p>", "key_press": -1, "type": "PRES_VIS", "word": "queen", "wordID": 1148, "conditions": [24, 800, "v", 12000], "trial": 4, "serialpos": 5, "trial_type": "single-stim", "trial_index": 162, "time_elapsed": 777438, "internal_node_id": "0.0-117.0"}}, {"uniqueid": "MTK0548:36WLNQG780H4RH3GFLV811ISLGLBEZ", "current_trial": 163, "dateTime": 1511211311056, "trialdata": {"rt": -1, "stimulus": "<p id=\"stim\">RADISH</p>", "key_press": -1, "type": "PRES_VIS", "word": "radish", "wordID": 1157, "conditions": [24, 800, "v", 12000], "trial": 4, "serialpos": 6, "trial_type": "single-stim", "trial_index": 163, "time_elapsed": 779083, "internal_node_id": "0.0-118.0"}}, {"uniqueid": "MTK0548:36WLNQG780H4RH3GFLV811ISLGLBEZ", "current_trial": 164, "dateTime": 1511211312898, "trialdata": {"rt": -1, "stimulus": "<p id=\"stim\">TWIG</p>", "key_press": -1, "type": "PRES_VIS", "word": "twig", "wordID": 1526, "conditions": [24, 800, "v", 12000], "trial": 4, "serialpos": 7, "trial_type": "single-stim", "trial_index": 164, "time_elapsed": 780925, "internal_node_id": "0.0-119.0"}}, {"uniqueid": "MTK0548:36WLNQG780H4RH3GFLV811ISLGLBEZ", "current_trial": 165, "dateTime": 1511211314893, "trialdata": {"rt": -1, "stimulus": "<p id=\"stim\">MONEY</p>", "key_press": -1, "type": "PRES_VIS", "word": "money", "wordID": 907, "conditions": [24, 800, "v", 12000], "trial": 4, "serialpos": 8, "trial_type": "single-stim", "trial_index": 165, "time_elapsed": 782920, "internal_node_id": "0.0-120.0"}}, {"uniqueid": "MTK0548:36WLNQG780H4RH3GFLV811ISLGLBEZ", "current_trial": 166, "dateTime": 1511211316866, "trialdata": {"rt": -1, "stimulus": "<p id=\"stim\">FLAG</p>", "key_press": -1, "type": "PRES_VIS", "word": "flag", "wordID": 572, "conditions": [24, 800, "v", 12000], "trial": 4, "serialpos": 9, "trial_type": "single-stim", "trial_index": 166, "time_elapsed": 784893, "internal_node_id": "0.0-121.0"}}, {"uniqueid": "MTK0548:36WLNQG780H4RH3GFLV811ISLGLBEZ", "current_trial": 167, "dateTime": 1511211318833, "trialdata": {"rt": -1, "stimulus": "<p id=\"stim\">AIRPORT</p>", "key_press": -1, "type": "PRES_VIS", "word": "airport", "wordID": 12, "conditions": [24, 800, "v", 12000], "trial": 4, "serialpos": 10, "trial_type": "single-stim", "trial_index": 167, "time_elapsed": 786860, "internal_node_id": "0.0-122.0"}}, {"uniqueid": "MTK0548:36WLNQG780H4RH3GFLV811ISLGLBEZ", "current_trial": 168, "dateTime": 1511211320580, "trialdata": {"rt": -1, "stimulus": "<p id=\"stim\">BARREL</p>", "key_press": -1, "type": "PRES_VIS", "word": "barrel", "wordID": 90, "conditions": [24, 800, "v", 12000], "trial": 4, "serialpos": 11, "trial_type": "single-stim", "trial_index": 168, "time_elapsed": 788607, "internal_node_id": "0.0-123.0"}}, {"uniqueid": "MTK0548:36WLNQG780H4RH3GFLV811ISLGLBEZ", "current_trial": 169, "dateTime": 1511211322188, "trialdata": {"rt": -1, "stimulus": "<p id=\"stim\">MARROW</p>", "key_press": -1, "type": "PRES_VIS", "word": "marrow", "wordID": 871, "conditions": [24, 800, "v", 12000], "trial": 4, "serialpos": 12, "trial_type": "single-stim", "trial_index": 169, "time_elapsed": 790215, "internal_node_id": "0.0-124.0"}}, {"uniqueid": "MTK0548:36WLNQG780H4RH3GFLV811ISLGLBEZ", "current_trial": 170, "dateTime": 1511211323880, "trialdata": {"rt": -1, "stimulus": "<p id=\"stim\">SAUSAGE</p>", "key_press": -1, "type": "PRES_VIS", "word": "sausage", "wordID": 1237, "conditions": [24, 800, "v", 12000], "trial": 4, "serialpos": 13, "trial_type": "single-stim", "trial_index": 170, "time_elapsed": 791906, "internal_node_id": "0.0-125.0"}}, {"uniqueid": "MTK0548:36WLNQG780H4RH3GFLV811ISLGLBEZ", "current_trial": 171, "dateTime": 1511211325614, "trialdata": {"rt": -1, "stimulus": "<p id=\"stim\">CHAPEL</p>", "key_press": -1, "type": "PRES_VIS", "word": "chapel", "wordID": 279, "conditions": [24, 800, "v", 12000], "trial": 4, "serialpos": 14, "trial_type": "single-stim", "trial_index": 171, "time_elapsed": 793641, "internal_node_id": "0.0-126.0"}}, {"uniqueid": "MTK0548:36WLNQG780H4RH3GFLV811ISLGLBEZ", "current_trial": 172, "dateTime": 1511211327283, "trialdata": {"rt": -1, "stimulus": "<p id=\"stim\">CHURCH</p>", "key_press": -1, "type": "PRES_VIS", "word": "church", "wordID": 306, "conditions": [24, 800, "v", 12000], "trial": 4, "serialpos": 15, "trial_type": "single-stim", "trial_index": 172, "time_elapsed": 795310, "internal_node_id": "0.0-127.0"}}, {"uniqueid": "MTK0548:36WLNQG780H4RH3GFLV811ISLGLBEZ", "current_trial": 173, "dateTime": 1511211329124, "trialdata": {"rt": -1, "stimulus": "<p id=\"stim\">PRIMATE</p>", "key_press": -1, "type": "PRES_VIS", "word": "primate", "wordID": 1122, "conditions": [24, 800, "v", 12000], "trial": 4, "serialpos": 16, "trial_type": "single-stim", "trial_index": 173, "time_elapsed": 797150, "internal_node_id": "0.0-128.0"}}, {"uniqueid": "MTK0548:36WLNQG780H4RH3GFLV811ISLGLBEZ", "current_trial": 174, "dateTime": 1511211330870, "trialdata": {"rt": -1, "stimulus": "<p id=\"stim\">EAGLE</p>", "key_press": -1, "type": "PRES_VIS", "word": "eagle", "wordID": 511, "conditions": [24, 800, "v", 12000], "trial": 4, "serialpos": 17, "trial_type": "single-stim", "trial_index": 174, "time_elapsed": 798897, "internal_node_id": "0.0-129.0"}}, {"uniqueid": "MTK0548:36WLNQG780H4RH3GFLV811ISLGLBEZ", "current_trial": 175, "dateTime": 1511211332575, "trialdata": {"rt": -1, "stimulus": "<p id=\"stim\">INFANT</p>", "key_press": -1, "type": "PRES_VIS", "word": "infant", "wordID": 736, "conditions": [24, 800, "v", 12000], "trial": 4, "serialpos": 18, "trial_type": "single-stim", "trial_index": 175, "time_elapsed": 800602, "internal_node_id": "0.0-130.0"}}, {"uniqueid": "MTK0548:36WLNQG780H4RH3GFLV811ISLGLBEZ", "current_trial": 176, "dateTime": 1511211334219, "trialdata": {"rt": -1, "stimulus": "<p id=\"stim\">CHIPMUNK</p>", "key_press": -1, "type": "PRES_VIS", "word": "chipmunk", "wordID": 303, "conditions": [24, 800, "v", 12000], "trial": 4, "serialpos": 19, "trial_type": "single-stim", "trial_index": 176, "time_elapsed": 802246, "internal_node_id": "0.0-131.0"}}, {"uniqueid": "MTK0548:36WLNQG780H4RH3GFLV811ISLGLBEZ", "current_trial": 177, "dateTime": 1511211336194, "trialdata": {"rt": -1, "stimulus": "<p id=\"stim\">PLUTO</p>", "key_press": -1, "type": "PRES_VIS", "word": "pluto", "wordID": 1091, "conditions": [24, 800, "v", 12000], "trial": 4, "serialpos": 20, "trial_type": "single-stim", "trial_index": 177, "time_elapsed": 804220, "internal_node_id": "0.0-132.0"}}, {"uniqueid": "MTK0548:36WLNQG780H4RH3GFLV811ISLGLBEZ", "current_trial": 178, "dateTime": 1511211338104, "trialdata": {"rt": -1, "stimulus": "<p id=\"stim\">ORANGE</p>", "key_press": -1, "type": "PRES_VIS", "word": "orange", "wordID": 979, "conditions": [24, 800, "v", 12000], "trial": 4, "serialpos": 21, "trial_type": "single-stim", "trial_index": 178, "time_elapsed": 806131, "internal_node_id": "0.0-133.0"}}, {"uniqueid": "MTK0548:36WLNQG780H4RH3GFLV811ISLGLBEZ", "current_trial": 179, "dateTime": 1511211339748, "trialdata": {"rt": -1, "stimulus": "<p id=\"stim\">MARKET</p>", "key_press": -1, "type": "PRES_VIS", "word": "market", "wordID": 870, "conditions": [24, 800, "v", 12000], "trial": 4, "serialpos": 22, "trial_type": "single-stim", "trial_index": 179, "time_elapsed": 807775, "internal_node_id": "0.0-134.0"}}, {"uniqueid": "MTK0548:36WLNQG780H4RH3GFLV811ISLGLBEZ", "current_trial": 180, "dateTime": 1511211341398, "trialdata": {"rt": -1, "stimulus": "<p id=\"stim\">KIDNEY</p>", "key_press": -1, "type": "PRES_VIS", "word": "kidney", "wordID": 775, "conditions": [24, 800, "v", 12000], "trial": 4, "serialpos": 23, "trial_type": "single-stim", "trial_index": 180, "time_elapsed": 809425, "internal_node_id": "0.0-135.0"}}, {"uniqueid": "MTK0548:36WLNQG780H4RH3GFLV811ISLGLBEZ", "current_trial": 181, "dateTime": 1511211343718, "trialdata": {"rt": -1, "stimulus": "", "key_press": -1, "type": "PRE_RECALL_DELAY", "trial_type": "single-stim", "trial_index": 181, "time_elapsed": 811745, "internal_node_id": "0.0-136.0-0.0"}}, {"uniqueid": "MTK0548:36WLNQG780H4RH3GFLV811ISLGLBEZ", "current_trial": 182, "dateTime": 1511211344221, "trialdata": {"rt": -1000, "stimulus": "/static/audio/400Hz.wav", "key_press": -1, "type": "PRE_RECALL_ALERT", "trial_type": "single-audio", "trial_index": 182, "time_elapsed": 812248, "internal_node_id": "0.0-137.0"}}, {"uniqueid": "MTK0548:36WLNQG780H4RH3GFLV811ISLGLBEZ", "current_trial": 183, "dateTime": 1511211404229, "trialdata": {"rt": [2336, 4104, 9139, 12377], "recwords": ["market", "kidney", "lizard", "bubble"], "type": "FREE_RECALL", "conditions": [24, 800, "v", 12000], "trial": 4, "trial_type": "free-recall", "trial_index": 183, "time_elapsed": 872252, "internal_node_id": "0.0-138.0-0.0"}}, {"uniqueid": "MTK0548:36WLNQG780H4RH3GFLV811ISLGLBEZ", "current_trial": 184, "dateTime": 1511211426812, "trialdata": {"rt": 20582, "key_press": 32, "type": "INSTRUCTIONS", "trial_type": "text", "trial_index": 184, "time_elapsed": 894839, "internal_node_id": "0.0-139.0"}}, {"uniqueid": "MTK0548:36WLNQG780H4RH3GFLV811ISLGLBEZ", "current_trial": 185, "dateTime": 1511211452818, "trialdata": {"rt": [3012, 5314, 9184, 11224, 13526, 15370, 18366, 22017], "responses": ["12", "9", "19", "11", "8", "17", "27", "15"], "num1": [4, 4, 6, 2, 4, 8, 9, 3, 5], "num2": [5, 1, 9, 1, 1, 2, 9, 4, 4], "num3": [3, 4, 4, 8, 3, 7, 8, 7, 2], "type": "DISTRACTOR", "conditions": [12, 1600, "v", 24000], "trial": 5, "trial_type": "math-distractor", "trial_index": 185, "time_elapsed": 920845, "internal_node_id": "0.0-140.0"}}, {"uniqueid": "MTK0548:36WLNQG780H4RH3GFLV811ISLGLBEZ", "current_trial": 186, "dateTime": 1511211455821, "trialdata": {"rt": -1, "stimulus": "<p id=\"stim\">10</p>", "key_press": -1, "trial_type": "single-stim", "trial_index": 186, "time_elapsed": 923848, "internal_node_id": "0.0-141.0-0.0"}}, {"uniqueid": "MTK0548:36WLNQG780H4RH3GFLV811ISLGLBEZ", "current_trial": 187, "dateTime": 1511211456823, "trialdata": {"rt": -1, "stimulus": "<p id=\"stim\">9</p>", "key_press": -1, "trial_type": "single-stim", "trial_index": 187, "time_elapsed": 924849, "internal_node_id": "0.0-141.0-1.0"}}, {"uniqueid": "MTK0548:36WLNQG780H4RH3GFLV811ISLGLBEZ", "current_trial": 188, "dateTime": 1511211457825, "trialdata": {"rt": -1, "stimulus": "<p id=\"stim\">8</p>", "key_press": -1, "trial_type": "single-stim", "trial_index": 188, "time_elapsed": 925851, "internal_node_id": "0.0-141.0-2.0"}}, {"uniqueid": "MTK0548:36WLNQG780H4RH3GFLV811ISLGLBEZ", "current_trial": 189, "dateTime": 1511211458827, "trialdata": {"rt": -1, "stimulus": "<p id=\"stim\">7</p>", "key_press": -1, "trial_type": "single-stim", "trial_index": 189, "time_elapsed": 926854, "internal_node_id": "0.0-141.0-3.0"}}, {"uniqueid": "MTK0548:36WLNQG780H4RH3GFLV811ISLGLBEZ", "current_trial": 190, "dateTime": 1511211459829, "trialdata": {"rt": -1, "stimulus": "<p id=\"stim\">6</p>", "key_press": -1, "trial_type": "single-stim", "trial_index": 190, "time_elapsed": 927856, "internal_node_id": "0.0-141.0-4.0"}}, {"uniqueid": "MTK0548:36WLNQG780H4RH3GFLV811ISLGLBEZ", "current_trial": 191, "dateTime": 1511211460832, "trialdata": {"rt": -1, "stimulus": "<p id=\"stim\">5</p>", "key_press": -1, "trial_type": "single-stim", "trial_index": 191, "time_elapsed": 928859, "internal_node_id": "0.0-141.0-5.0"}}, {"uniqueid": "MTK0548:36WLNQG780H4RH3GFLV811ISLGLBEZ", "current_trial": 192, "dateTime": 1511211461834, "trialdata": {"rt": -1, "stimulus": "<p id=\"stim\">4</p>", "key_press": -1, "trial_type": "single-stim", "trial_index": 192, "time_elapsed": 929861, "internal_node_id": "0.0-141.0-6.0"}}, {"uniqueid": "MTK0548:36WLNQG780H4RH3GFLV811ISLGLBEZ", "current_trial": 193, "dateTime": 1511211462836, "trialdata": {"rt": -1, "stimulus": "<p id=\"stim\">3</p>", "key_press": -1, "trial_type": "single-stim", "trial_index": 193, "time_elapsed": 930863, "internal_node_id": "0.0-141.0-7.0"}}, {"uniqueid": "MTK0548:36WLNQG780H4RH3GFLV811ISLGLBEZ", "current_trial": 194, "dateTime": 1511211463838, "trialdata": {"rt": -1, "stimulus": "<p id=\"stim\">2</p>", "key_press": -1, "trial_type": "single-stim", "trial_index": 194, "time_elapsed": 931865, "internal_node_id": "0.0-141.0-8.0"}}, {"uniqueid": "MTK0548:36WLNQG780H4RH3GFLV811ISLGLBEZ", "current_trial": 195, "dateTime": 1511211464843, "trialdata": {"rt": -1, "stimulus": "<p id=\"stim\">1</p>", "key_press": -1, "trial_type": "single-stim", "trial_index": 195, "time_elapsed": 932867, "internal_node_id": "0.0-141.0-9.0"}}, {"uniqueid": "MTK0548:36WLNQG780H4RH3GFLV811ISLGLBEZ", "current_trial": 196, "dateTime": 1511211466345, "trialdata": {"rt": -1, "stimulus": "<p id=\"stim\">+</p>", "key_press": -1, "type": "FIXATION", "trial_type": "single-stim", "trial_index": 196, "time_elapsed": 934371, "internal_node_id": "0.0-142.0-0.0"}}, {"uniqueid": "MTK0548:36WLNQG780H4RH3GFLV811ISLGLBEZ", "current_trial": 197, "dateTime": 1511211467946, "trialdata": {"rt": -1, "stimulus": "<p id=\"stim\">PORTRAIT</p>", "key_press": -1, "type": "PRES_VIS", "word": "portrait", "wordID": 1110, "conditions": [12, 1600, "v", 24000], "trial": 5, "serialpos": 0, "trial_type": "single-stim", "trial_index": 197, "time_elapsed": 935973, "internal_node_id": "0.0-143.0"}}, {"uniqueid": "MTK0548:36WLNQG780H4RH3GFLV811ISLGLBEZ", "current_trial": 198, "dateTime": 1511211470454, "trialdata": {"rt": -1, "stimulus": "<p id=\"stim\">VELVET</p>", "key_press": -1, "type": "PRES_VIS", "word": "velvet", "wordID": 1554, "conditions": [12, 1600, "v", 24000], "trial": 5, "serialpos": 1, "trial_type": "single-stim", "trial_index": 198, "time_elapsed": 938481, "internal_node_id": "0.0-144.0"}}, {"uniqueid": "MTK0548:36WLNQG780H4RH3GFLV811ISLGLBEZ", "current_trial": 199, "dateTime": 1511211473211, "trialdata": {"rt": -1, "stimulus": "<p id=\"stim\">SPIDER</p>", "key_press": -1, "type": "PRES_VIS", "word": "spider", "wordID": 1350, "conditions": [12, 1600, "v", 24000], "trial": 5, "serialpos": 2, "trial_type": "single-stim", "trial_index": 199, "time_elapsed": 941238, "internal_node_id": "0.0-145.0"}}, {"uniqueid": "MTK0548:36WLNQG780H4RH3GFLV811ISLGLBEZ", "current_trial": 200, "dateTime": 1511211475712, "trialdata": {"rt": -1, "stimulus": "<p id=\"stim\">SALT</p>", "key_press": -1, "type": "PRES_VIS", "word": "salt", "wordID": 1228, "conditions": [12, 1600, "v", 24000], "trial": 5, "serialpos": 3, "trial_type": "single-stim", "trial_index": 200, "time_elapsed": 943739, "internal_node_id": "0.0-146.0"}}, {"uniqueid": "MTK0548:36WLNQG780H4RH3GFLV811ISLGLBEZ", "current_trial": 201, "dateTime": 1511211478207, "trialdata": {"rt": -1, "stimulus": "<p id=\"stim\">TREAT</p>", "key_press": -1, "type": "PRES_VIS", "word": "treat", "wordID": 1500, "conditions": [12, 1600, "v", 24000], "trial": 5, "serialpos": 4, "trial_type": "single-stim", "trial_index": 201, "time_elapsed": 946233, "internal_node_id": "0.0-147.0"}}, {"uniqueid": "MTK0548:36WLNQG780H4RH3GFLV811ISLGLBEZ", "current_trial": 202, "dateTime": 1511211480932, "trialdata": {"rt": -1, "stimulus": "<p id=\"stim\">LACE</p>", "key_press": -1, "type": "PRES_VIS", "word": "lace", "wordID": 791, "conditions": [12, 1600, "v", 24000], "trial": 5, "serialpos": 5, "trial_type": "single-stim", "trial_index": 202, "time_elapsed": 948959, "internal_node_id": "0.0-148.0"}}, {"uniqueid": "MTK0548:36WLNQG780H4RH3GFLV811ISLGLBEZ", "current_trial": 203, "dateTime": 1511211483406, "trialdata": {"rt": -1, "stimulus": "<p id=\"stim\">BLENDER</p>", "key_press": -1, "type": "PRES_VIS", "word": "blender", "wordID": 135, "conditions": [12, 1600, "v", 24000], "trial": 5, "serialpos": 6, "trial_type": "single-stim", "trial_index": 203, "time_elapsed": 951433, "internal_node_id": "0.0-149.0"}}, {"uniqueid": "MTK0548:36WLNQG780H4RH3GFLV811ISLGLBEZ", "current_trial": 204, "dateTime": 1511211486037, "trialdata": {"rt": -1, "stimulus": "<p id=\"stim\">HEDGE</p>", "key_press": -1, "type": "PRES_VIS", "word": "hedge", "wordID": 698, "conditions": [12, 1600, "v", 24000], "trial": 5, "serialpos": 7, "trial_type": "single-stim", "trial_index": 204, "time_elapsed": 954063, "internal_node_id": "0.0-150.0"}}, {"uniqueid": "MTK0548:36WLNQG780H4RH3GFLV811ISLGLBEZ", "current_trial": 205, "dateTime": 1511211488566, "trialdata": {"rt": -1, "stimulus": "<p id=\"stim\">HUSBAND</p>", "key_press": -1, "type": "PRES_VIS", "word": "husband", "wordID": 727, "conditions": [12, 1600, "v", 24000], "trial": 5, "serialpos": 8, "trial_type": "single-stim", "trial_index": 205, "time_elapsed": 956593, "internal_node_id": "0.0-151.0"}}, {"uniqueid": "MTK0548:36WLNQG780H4RH3GFLV811ISLGLBEZ", "current_trial": 206, "dateTime": 1511211491154, "trialdata": {"rt": -1, "stimulus": "<p id=\"stim\">BROTHER</p>", "key_press": -1, "type": "PRES_VIS", "word": "brother", "wordID": 178, "conditions": [12, 1600, "v", 24000], "trial": 5, "serialpos": 9, "trial_type": "single-stim", "trial_index": 206, "time_elapsed": 959181, "internal_node_id": "0.0-152.0"}}, {"uniqueid": "MTK0548:36WLNQG780H4RH3GFLV811ISLGLBEZ", "current_trial": 207, "dateTime": 1511211493789, "trialdata": {"rt": -1, "stimulus": "<p id=\"stim\">VIRUS</p>", "key_press": -1, "type": "PRES_VIS", "word": "virus", "wordID": 1571, "conditions": [12, 1600, "v", 24000], "trial": 5, "serialpos": 10, "trial_type": "single-stim", "trial_index": 207, "time_elapsed": 961816, "internal_node_id": "0.0-153.0"}}, {"uniqueid": "MTK0548:36WLNQG780H4RH3GFLV811ISLGLBEZ", "current_trial": 208, "dateTime": 1511211496238, "trialdata": {"rt": -1, "stimulus": "<p id=\"stim\">COD</p>", "key_press": -1, "type": "PRES_VIS", "word": "cod", "wordID": 339, "conditions": [12, 1600, "v", 24000], "trial": 5, "serialpos": 11, "trial_type": "single-stim", "trial_index": 208, "time_elapsed": 964265, "internal_node_id": "0.0-154.0"}}, {"uniqueid": "MTK0548:36WLNQG780H4RH3GFLV811ISLGLBEZ", "current_trial": 209, "dateTime": 1511211498630, "trialdata": {"rt": -1, "stimulus": "", "key_press": -1, "type": "PRE_RECALL_DELAY", "trial_type": "single-stim", "trial_index": 209, "time_elapsed": 966657, "internal_node_id": "0.0-155.0-0.0"}}, {"uniqueid": "MTK0548:36WLNQG780H4RH3GFLV811ISLGLBEZ", "current_trial": 210, "dateTime": 1511211499137, "trialdata": {"rt": -1000, "stimulus": "/static/audio/400Hz.wav", "key_press": -1, "type": "PRE_RECALL_ALERT", "trial_type": "single-audio", "trial_index": 210, "time_elapsed": 967164, "internal_node_id": "0.0-156.0"}}, {"uniqueid": "MTK0548:36WLNQG780H4RH3GFLV811ISLGLBEZ", "current_trial": 211, "dateTime": 1511211559143, "trialdata": {"rt": [1306, 2818, 4048, 7494, 10727, 12406, 16267], "recwords": ["cod", "husband", "brother", "virus", "denim", "velvet", "picture"], "type": "FREE_RECALL", "conditions": [12, 1600, "v", 24000], "trial": 5, "trial_type": "free-recall", "trial_index": 211, "time_elapsed": 1027167, "internal_node_id": "0.0-157.0-0.0"}}, {"uniqueid": "MTK0548:36WLNQG780H4RH3GFLV811ISLGLBEZ", "current_trial": 212, "dateTime": 1511211739717, "trialdata": {"rt": 178571, "key_press": 32, "type": "INSTRUCTIONS", "trial_type": "text", "trial_index": 212, "time_elapsed": 1207744, "internal_node_id": "0.0-158.0"}}, {"uniqueid": "MTK0548:36WLNQG780H4RH3GFLV811ISLGLBEZ", "current_trial": 213, "dateTime": 1511211753724, "trialdata": {"rt": [2585, 4195, 8492], "responses": ["8", "6", "25"], "num1": [4, 1, 8, 2], "num2": [3, 4, 8, 6], "num3": [1, 1, 9, 9], "type": "DISTRACTOR", "conditions": [24, 800, "a", 12000], "trial": 6, "trial_type": "math-distractor", "trial_index": 213, "time_elapsed": 1221751, "internal_node_id": "0.0-159.0"}}, {"uniqueid": "MTK0548:36WLNQG780H4RH3GFLV811ISLGLBEZ", "current_trial": 214, "dateTime": 1511211756727, "trialdata": {"rt": -1, "stimulus": "<p id=\"stim\">10</p>", "key_press": -1, "trial_type": "single-stim", "trial_index": 214, "time_elapsed": 1224754, "internal_node_id": "0.0-160.0-0.0"}}, {"uniqueid": "MTK0548:36WLNQG780H4RH3GFLV811ISLGLBEZ", "current_trial": 215, "dateTime": 1511211757731, "trialdata": {"rt": -1, "stimulus": "<p id=\"stim\">9</p>", "key_press": -1, "trial_type": "single-stim", "trial_index": 215, "time_elapsed": 1225758, "internal_node_id": "0.0-160.0-1.0"}}, {"uniqueid": "MTK0548:36WLNQG780H4RH3GFLV811ISLGLBEZ", "current_trial": 216, "dateTime": 1511211758732, "trialdata": {"rt": -1, "stimulus": "<p id=\"stim\">8</p>", "key_press": -1, "trial_type": "single-stim", "trial_index": 216, "time_elapsed": 1226758, "internal_node_id": "0.0-160.0-2.0"}}, {"uniqueid": "MTK0548:36WLNQG780H4RH3GFLV811ISLGLBEZ", "current_trial": 217, "dateTime": 1511211759734, "trialdata": {"rt": -1, "stimulus": "<p id=\"stim\">7</p>", "key_press": -1, "trial_type": "single-stim", "trial_index": 217, "time_elapsed": 1227761, "internal_node_id": "0.0-160.0-3.0"}}, {"uniqueid": "MTK0548:36WLNQG780H4RH3GFLV811ISLGLBEZ", "current_trial": 218, "dateTime": 1511211760735, "trialdata": {"rt": -1, "stimulus": "<p id=\"stim\">6</p>", "key_press": -1, "trial_type": "single-stim", "trial_index": 218, "time_elapsed": 1228762, "internal_node_id": "0.0-160.0-4.0"}}, {"uniqueid": "MTK0548:36WLNQG780H4RH3GFLV811ISLGLBEZ", "current_trial": 219, "dateTime": 1511211761744, "trialdata": {"rt": -1, "stimulus": "<p id=\"stim\">5</p>", "key_press": -1, "trial_type": "single-stim", "trial_index": 219, "time_elapsed": 1229771, "internal_node_id": "0.0-160.0-5.0"}}, {"uniqueid": "MTK0548:36WLNQG780H4RH3GFLV811ISLGLBEZ", "current_trial": 220, "dateTime": 1511211762745, "trialdata": {"rt": -1, "stimulus": "<p id=\"stim\">4</p>", "key_press": -1, "trial_type": "single-stim", "trial_index": 220, "time_elapsed": 1230772, "internal_node_id": "0.0-160.0-6.0"}}, {"uniqueid": "MTK0548:36WLNQG780H4RH3GFLV811ISLGLBEZ", "current_trial": 221, "dateTime": 1511211763748, "trialdata": {"rt": -1, "stimulus": "<p id=\"stim\">3</p>", "key_press": -1, "trial_type": "single-stim", "trial_index": 221, "time_elapsed": 1231775, "internal_node_id": "0.0-160.0-7.0"}}, {"uniqueid": "MTK0548:36WLNQG780H4RH3GFLV811ISLGLBEZ", "current_trial": 222, "dateTime": 1511211764750, "trialdata": {"rt": -1, "stimulus": "<p id=\"stim\">2</p>", "key_press": -1, "trial_type": "single-stim", "trial_index": 222, "time_elapsed": 1232777, "internal_node_id": "0.0-160.0-8.0"}}, {"uniqueid": "MTK0548:36WLNQG780H4RH3GFLV811ISLGLBEZ", "current_trial": 223, "dateTime": 1511211765751, "trialdata": {"rt": -1, "stimulus": "<p id=\"stim\">1</p>", "key_press": -1, "trial_type": "single-stim", "trial_index": 223, "time_elapsed": 1233778, "internal_node_id": "0.0-160.0-9.0"}}, {"uniqueid": "MTK0548:36WLNQG780H4RH3GFLV811ISLGLBEZ", "current_trial": 224, "dateTime": 1511211767253, "trialdata": {"rt": -1, "stimulus": "<p id=\"stim\">+</p>", "key_press": -1, "type": "FIXATION", "trial_type": "single-stim", "trial_index": 224, "time_elapsed": 1235280, "internal_node_id": "0.0-161.0-0.0"}}, {"uniqueid": "MTK0548:36WLNQG780H4RH3GFLV811ISLGLBEZ", "current_trial": 225, "dateTime": 1511211769189, "trialdata": {"rt": -1000, "stimulus": "/static/audio/wordpool/OYSTER.wav", "key_press": -1, "type": "PRES_AUD", "word": "oyster", "wordID": 994, "conditions": [24, 800, "a", 12000], "trial": 6, "serialpos": 0, "trial_type": "single-audio", "trial_index": 225, "time_elapsed": 1237216, "internal_node_id": "0.0-162.0"}}, {"uniqueid": "MTK0548:36WLNQG780H4RH3GFLV811ISLGLBEZ", "current_trial": 226, "dateTime": 1511211770982, "trialdata": {"rt": -1000, "stimulus": "/static/audio/wordpool/FIREMAN.wav", "key_press": -1, "type": "PRES_AUD", "word": "fireman", "wordID": 568, "conditions": [24, 800, "a", 12000], "trial": 6, "serialpos": 1, "trial_type": "single-audio", "trial_index": 226, "time_elapsed": 1239009, "internal_node_id": "0.0-163.0"}}, {"uniqueid": "MTK0548:36WLNQG780H4RH3GFLV811ISLGLBEZ", "current_trial": 227, "dateTime": 1511211772931, "trialdata": {"rt": -1000, "stimulus": "/static/audio/wordpool/HATCHET.wav", "key_press": -1, "type": "PRES_AUD", "word": "hatchet", "wordID": 690, "conditions": [24, 800, "a", 12000], "trial": 6, "serialpos": 2, "trial_type": "single-audio", "trial_index": 227, "time_elapsed": 1240958, "internal_node_id": "0.0-164.0"}}, {"uniqueid": "MTK0548:36WLNQG780H4RH3GFLV811ISLGLBEZ", "current_trial": 228, "dateTime": 1511211774560, "trialdata": {"rt": -1000, "stimulus": "/static/audio/wordpool/MARSH.wav", "key_press": -1, "type": "PRES_AUD", "word": "marsh", "wordID": 873, "conditions": [24, 800, "a", 12000], "trial": 6, "serialpos": 3, "trial_type": "single-audio", "trial_index": 228, "time_elapsed": 1242587, "internal_node_id": "0.0-165.0"}}, {"uniqueid": "MTK0548:36WLNQG780H4RH3GFLV811ISLGLBEZ", "current_trial": 229, "dateTime": 1511211776238, "trialdata": {"rt": -1000, "stimulus": "/static/audio/wordpool/EGYPT.wav", "key_press": -1, "type": "PRES_AUD", "word": "egypt", "wordID": 518, "conditions": [24, 800, "a", 12000], "trial": 6, "serialpos": 4, "trial_type": "single-audio", "trial_index": 229, "time_elapsed": 1244265, "internal_node_id": "0.0-166.0"}}, {"uniqueid": "MTK0548:36WLNQG780H4RH3GFLV811ISLGLBEZ", "current_trial": 230, "dateTime": 1511211778216, "trialdata": {"rt": -1000, "stimulus": "/static/audio/wordpool/MONSTER.wav", "key_press": -1, "type": "PRES_AUD", "word": "monster", "wordID": 911, "conditions": [24, 800, "a", 12000], "trial": 6, "serialpos": 5, "trial_type": "single-audio", "trial_index": 230, "time_elapsed": 1246243, "internal_node_id": "0.0-167.0"}}, {"uniqueid": "MTK0548:36WLNQG780H4RH3GFLV811ISLGLBEZ", "current_trial": 231, "dateTime": 1511211780000, "trialdata": {"rt": -1000, "stimulus": "/static/audio/wordpool/DAISY.wav", "key_press": -1, "type": "PRES_AUD", "word": "daisy", "wordID": 434, "conditions": [24, 800, "a", 12000], "trial": 6, "serialpos": 6, "trial_type": "single-audio", "trial_index": 231, "time_elapsed": 1248027, "internal_node_id": "0.0-168.0"}}, {"uniqueid": "MTK0548:36WLNQG780H4RH3GFLV811ISLGLBEZ", "current_trial": 232, "dateTime": 1511211781614, "trialdata": {"rt": -1000, "stimulus": "/static/audio/wordpool/LILY.wav", "key_press": -1, "type": "PRES_AUD", "word": "lily", "wordID": 820, "conditions": [24, 800, "a", 12000], "trial": 6, "serialpos": 7, "trial_type": "single-audio", "trial_index": 232, "time_elapsed": 1249641, "internal_node_id": "0.0-169.0"}}, {"uniqueid": "MTK0548:36WLNQG780H4RH3GFLV811ISLGLBEZ", "current_trial": 233, "dateTime": 1511211783229, "trialdata": {"rt": -1000, "stimulus": "/static/audio/wordpool/UNCLE.wav", "key_press": -1, "type": "PRES_AUD", "word": "uncle", "wordID": 1535, "conditions": [24, 800, "a", 12000], "trial": 6, "serialpos": 8, "trial_type": "single-audio", "trial_index": 233, "time_elapsed": 1251256, "internal_node_id": "0.0-170.0"}}, {"uniqueid": "MTK0548:36WLNQG780H4RH3GFLV811ISLGLBEZ", "current_trial": 234, "dateTime": 1511211785113, "trialdata": {"rt": -1000, "stimulus": "/static/audio/wordpool/OUTDOORS.wav", "key_press": -1, "type": "PRES_AUD", "word": "outdoors", "wordID": 986, "conditions": [24, 800, "a", 12000], "trial": 6, "serialpos": 9, "trial_type": "single-audio", "trial_index": 234, "time_elapsed": 1253139, "internal_node_id": "0.0-171.0"}}, {"uniqueid": "MTK0548:36WLNQG780H4RH3GFLV811ISLGLBEZ", "current_trial": 235, "dateTime": 1511211786792, "trialdata": {"rt": -1000, "stimulus": "/static/audio/wordpool/KITCHEN.wav", "key_press": -1, "type": "PRES_AUD", "word": "kitchen", "wordID": 777, "conditions": [24, 800, "a", 12000], "trial": 6, "serialpos": 10, "trial_type": "single-audio", "trial_index": 235, "time_elapsed": 1254819, "internal_node_id": "0.0-172.0"}}, {"uniqueid": "MTK0548:36WLNQG780H4RH3GFLV811ISLGLBEZ", "current_trial": 236, "dateTime": 1511211788662, "trialdata": {"rt": -1000, "stimulus": "/static/audio/wordpool/SALMON.wav", "key_press": -1, "type": "PRES_AUD", "word": "salmon", "wordID": 1226, "conditions": [24, 800, "a", 12000], "trial": 6, "serialpos": 11, "trial_type": "single-audio", "trial_index": 236, "time_elapsed": 1256688, "internal_node_id": "0.0-173.0"}}, {"uniqueid": "MTK0548:36WLNQG780H4RH3GFLV811ISLGLBEZ", "current_trial": 237, "dateTime": 1511211790399, "trialdata": {"rt": -1000, "stimulus": "/static/audio/wordpool/PISTOL.wav", "key_press": -1, "type": "PRES_AUD", "word": "pistol", "wordID": 1074, "conditions": [24, 800, "a", 12000], "trial": 6, "serialpos": 12, "trial_type": "single-audio", "trial_index": 237, "time_elapsed": 1258426, "internal_node_id": "0.0-174.0"}}, {"uniqueid": "MTK0548:36WLNQG780H4RH3GFLV811ISLGLBEZ", "current_trial": 238, "dateTime": 1511211792300, "trialdata": {"rt": -1000, "stimulus": "/static/audio/wordpool/TOURIST.wav", "key_press": -1, "type": "PRES_AUD", "word": "tourist", "wordID": 1487, "conditions": [24, 800, "a", 12000], "trial": 6, "serialpos": 13, "trial_type": "single-audio", "trial_index": 238, "time_elapsed": 1260326, "internal_node_id": "0.0-175.0"}}, {"uniqueid": "MTK0548:36WLNQG780H4RH3GFLV811ISLGLBEZ", "current_trial": 239, "dateTime": 1511211794216, "trialdata": {"rt": -1000, "stimulus": "/static/audio/wordpool/CYCLONE.wav", "key_press": -1, "type": "PRES_AUD", "word": "cyclone", "wordID": 430, "conditions": [24, 800, "a", 12000], "trial": 6, "serialpos": 14, "trial_type": "single-audio", "trial_index": 239, "time_elapsed": 1262243, "internal_node_id": "0.0-176.0"}}, {"uniqueid": "MTK0548:36WLNQG780H4RH3GFLV811ISLGLBEZ", "current_trial": 240, "dateTime": 1511211796194, "trialdata": {"rt": -1000, "stimulus": "/static/audio/wordpool/ANKLE.wav", "key_press": -1, "type": "PRES_AUD", "word": "ankle", "wordID": 23, "conditions": [24, 800, "a", 12000], "trial": 6, "serialpos": 15, "trial_type": "single-audio", "trial_index": 240, "time_elapsed": 1264220, "internal_node_id": "0.0-177.0"}}, {"uniqueid": "MTK0548:36WLNQG780H4RH3GFLV811ISLGLBEZ", "current_trial": 241, "dateTime": 1511211797999, "trialdata": {"rt": -1000, "stimulus": "/static/audio/wordpool/BUREAU.wav", "key_press": -1, "type": "PRES_AUD", "word": "bureau", "wordID": 198, "conditions": [24, 800, "a", 12000], "trial": 6, "serialpos": 16, "trial_type": "single-audio", "trial_index": 241, "time_elapsed": 1266026, "internal_node_id": "0.0-178.0"}}, {"uniqueid": "MTK0548:36WLNQG780H4RH3GFLV811ISLGLBEZ", "current_trial": 242, "dateTime": 1511211799700, "trialdata": {"rt": -1000, "stimulus": "/static/audio/wordpool/OFFICE.wav", "key_press": -1, "type": "PRES_AUD", "word": "office", "wordID": 971, "conditions": [24, 800, "a", 12000], "trial": 6, "serialpos": 17, "trial_type": "single-audio", "trial_index": 242, "time_elapsed": 1267727, "internal_node_id": "0.0-179.0"}}, {"uniqueid": "MTK0548:36WLNQG780H4RH3GFLV811ISLGLBEZ", "current_trial": 243, "dateTime": 1511211801347, "trialdata": {"rt": -1000, "stimulus": "/static/audio/wordpool/KNIFE.wav", "key_press": -1, "type": "PRES_AUD", "word": "knife", "wordID": 784, "conditions": [24, 800, "a", 12000], "trial": 6, "serialpos": 18, "trial_type": "single-audio", "trial_index": 243, "time_elapsed": 1269374, "internal_node_id": "0.0-180.0"}}, {"uniqueid": "MTK0548:36WLNQG780H4RH3GFLV811ISLGLBEZ", "current_trial": 244, "dateTime": 1511211803023, "trialdata": {"rt": -1000, "stimulus": "/static/audio/wordpool/POWDER.wav", "key_press": -1, "type": "PRES_AUD", "word": "powder", "wordID": 1116, "conditions": [24, 800, "a", 12000], "trial": 6, "serialpos": 19, "trial_type": "single-audio", "trial_index": 244, "time_elapsed": 1271050, "internal_node_id": "0.0-181.0"}}, {"uniqueid": "MTK0548:36WLNQG780H4RH3GFLV811ISLGLBEZ", "current_trial": 245, "dateTime": 1511211805006, "trialdata": {"rt": -1000, "stimulus": "/static/audio/wordpool/NOMAD.wav", "key_press": -1, "type": "PRES_AUD", "word": "nomad", "wordID": 954, "conditions": [24, 800, "a", 12000], "trial": 6, "serialpos": 20, "trial_type": "single-audio", "trial_index": 245, "time_elapsed": 1273033, "internal_node_id": "0.0-182.0"}}, {"uniqueid": "MTK0548:36WLNQG780H4RH3GFLV811ISLGLBEZ", "current_trial": 246, "dateTime": 1511211806648, "trialdata": {"rt": -1000, "stimulus": "/static/audio/wordpool/BUNNY.wav", "key_press": -1, "type": "PRES_AUD", "word": "bunny", "wordID": 197, "conditions": [24, 800, "a", 12000], "trial": 6, "serialpos": 21, "trial_type": "single-audio", "trial_index": 246, "time_elapsed": 1274675, "internal_node_id": "0.0-183.0"}}, {"uniqueid": "MTK0548:36WLNQG780H4RH3GFLV811ISLGLBEZ", "current_trial": 247, "dateTime": 1511211808392, "trialdata": {"rt": -1000, "stimulus": "/static/audio/wordpool/PUPPY.wav", "key_press": -1, "type": "PRES_AUD", "word": "puppy", "wordID": 1143, "conditions": [24, 800, "a", 12000], "trial": 6, "serialpos": 22, "trial_type": "single-audio", "trial_index": 247, "time_elapsed": 1276419, "internal_node_id": "0.0-184.0"}}, {"uniqueid": "MTK0548:36WLNQG780H4RH3GFLV811ISLGLBEZ", "current_trial": 248, "dateTime": 1511211810221, "trialdata": {"rt": -1000, "stimulus": "/static/audio/wordpool/SUITCASE.wav", "key_press": -1, "type": "PRES_AUD", "word": "suitcase", "wordID": 1402, "conditions": [24, 800, "a", 12000], "trial": 6, "serialpos": 23, "trial_type": "single-audio", "trial_index": 248, "time_elapsed": 1278247, "internal_node_id": "0.0-185.0"}}, {"uniqueid": "MTK0548:36WLNQG780H4RH3GFLV811ISLGLBEZ", "current_trial": 249, "dateTime": 1511211811461, "trialdata": {"rt": -1, "stimulus": "", "key_press": -1, "type": "PRE_RECALL_DELAY", "trial_type": "single-stim", "trial_index": 249, "time_elapsed": 1279488, "internal_node_id": "0.0-186.0-0.0"}}, {"uniqueid": "MTK0548:36WLNQG780H4RH3GFLV811ISLGLBEZ", "current_trial": 250, "dateTime": 1511211811964, "trialdata": {"rt": -1000, "stimulus": "/static/audio/400Hz.wav", "key_press": -1, "type": "PRE_RECALL_ALERT", "trial_type": "single-audio", "trial_index": 250, "time_elapsed": 1279991, "internal_node_id": "0.0-187.0"}}, {"uniqueid": "MTK0548:36WLNQG780H4RH3GFLV811ISLGLBEZ", "current_trial": 251, "dateTime": 1511211871972, "trialdata": {"rt": [2154, 3667, 5261, 7640, 11445, 15982, 20694], "recwords": ["bunny", "puppy", "suitcase", "nomad", "bureau", "suitcase", "oyster"], "type": "FREE_RECALL", "conditions": [24, 800, "a", 12000], "trial": 6, "trial_type": "free-recall", "trial_index": 251, "time_elapsed": 1339994, "internal_node_id": "0.0-188.0-0.0"}}, {"uniqueid": "MTK0548:36WLNQG780H4RH3GFLV811ISLGLBEZ", "current_trial": 252, "dateTime": 1511211878562, "trialdata": {"rt": 4587, "key_press": 32, "type": "INSTRUCTIONS", "trial_type": "text", "trial_index": 252, "time_elapsed": 1346588, "internal_node_id": "0.0-189.0"}}, {"uniqueid": "MTK0548:36WLNQG780H4RH3GFLV811ISLGLBEZ", "current_trial": 253, "dateTime": 1511211904564, "trialdata": {"rt": [1839, 3626, 8253, 10633, 12661, 14430, 16300, 17690, 20073], "responses": ["11", "16", "22", "10", "15", "13", "13", "5", "12"], "num1": [1, 5, 6, 4, 7, 8, 3, 1, 1, 3], "num2": [1, 6, 7, 3, 5, 2, 5, 3, 7, 6], "num3": [9, 5, 9, 3, 3, 3, 5, 1, 4, 8], "type": "DISTRACTOR", "conditions": [24, 1600, "a", 24000], "trial": 7, "trial_type": "math-distractor", "trial_index": 253, "time_elapsed": 1372591, "internal_node_id": "0.0-190.0"}}, {"uniqueid": "MTK0548:36WLNQG780H4RH3GFLV811ISLGLBEZ", "current_trial": 254, "dateTime": 1511211907566, "trialdata": {"rt": -1, "stimulus": "<p id=\"stim\">10</p>", "key_press": -1, "trial_type": "single-stim", "trial_index": 254, "time_elapsed": 1375593, "internal_node_id": "0.0-191.0-0.0"}}, {"uniqueid": "MTK0548:36WLNQG780H4RH3GFLV811ISLGLBEZ", "current_trial": 255, "dateTime": 1511211908568, "trialdata": {"rt": -1, "stimulus": "<p id=\"stim\">9</p>", "key_press": -1, "trial_type": "single-stim", "trial_index": 255, "time_elapsed": 1376594, "internal_node_id": "0.0-191.0-1.0"}}, {"uniqueid": "MTK0548:36WLNQG780H4RH3GFLV811ISLGLBEZ", "current_trial": 256, "dateTime": 1511211909570, "trialdata": {"rt": -1, "stimulus": "<p id=\"stim\">8</p>", "key_press": -1, "trial_type": "single-stim", "trial_index": 256, "time_elapsed": 1377597, "internal_node_id": "0.0-191.0-2.0"}}, {"uniqueid": "MTK0548:36WLNQG780H4RH3GFLV811ISLGLBEZ", "current_trial": 257, "dateTime": 1511211910572, "trialdata": {"rt": -1, "stimulus": "<p id=\"stim\">7</p>", "key_press": -1, "trial_type": "single-stim", "trial_index": 257, "time_elapsed": 1378599, "internal_node_id": "0.0-191.0-3.0"}}, {"uniqueid": "MTK0548:36WLNQG780H4RH3GFLV811ISLGLBEZ", "current_trial": 258, "dateTime": 1511211911574, "trialdata": {"rt": -1, "stimulus": "<p id=\"stim\">6</p>", "key_press": -1, "trial_type": "single-stim", "trial_index": 258, "time_elapsed": 1379601, "internal_node_id": "0.0-191.0-4.0"}}, {"uniqueid": "MTK0548:36WLNQG780H4RH3GFLV811ISLGLBEZ", "current_trial": 259, "dateTime": 1511211912575, "trialdata": {"rt": -1, "stimulus": "<p id=\"stim\">5</p>", "key_press": -1, "trial_type": "single-stim", "trial_index": 259, "time_elapsed": 1380602, "internal_node_id": "0.0-191.0-5.0"}}, {"uniqueid": "MTK0548:36WLNQG780H4RH3GFLV811ISLGLBEZ", "current_trial": 260, "dateTime": 1511211913579, "trialdata": {"rt": -1, "stimulus": "<p id=\"stim\">4</p>", "key_press": -1, "trial_type": "single-stim", "trial_index": 260, "time_elapsed": 1381606, "internal_node_id": "0.0-191.0-6.0"}}, {"uniqueid": "MTK0548:36WLNQG780H4RH3GFLV811ISLGLBEZ", "current_trial": 261, "dateTime": 1511211914580, "trialdata": {"rt": -1, "stimulus": "<p id=\"stim\">3</p>", "key_press": -1, "trial_type": "single-stim", "trial_index": 261, "time_elapsed": 1382607, "internal_node_id": "0.0-191.0-7.0"}}, {"uniqueid": "MTK0548:36WLNQG780H4RH3GFLV811ISLGLBEZ", "current_trial": 262, "dateTime": 1511211915582, "trialdata": {"rt": -1, "stimulus": "<p id=\"stim\">2</p>", "key_press": -1, "trial_type": "single-stim", "trial_index": 262, "time_elapsed": 1383609, "internal_node_id": "0.0-191.0-8.0"}}, {"uniqueid": "MTK0548:36WLNQG780H4RH3GFLV811ISLGLBEZ", "current_trial": 263, "dateTime": 1511211916584, "trialdata": {"rt": -1, "stimulus": "<p id=\"stim\">1</p>", "key_press": -1, "trial_type": "single-stim", "trial_index": 263, "time_elapsed": 1384611, "internal_node_id": "0.0-191.0-9.0"}}, {"uniqueid": "MTK0548:36WLNQG780H4RH3GFLV811ISLGLBEZ", "current_trial": 264, "dateTime": 1511211918087, "trialdata": {"rt": -1, "stimulus": "<p id=\"stim\">+</p>", "key_press": -1, "type": "FIXATION", "trial_type": "single-stim", "trial_index": 264, "time_elapsed": 1386113, "internal_node_id": "0.0-192.0-0.0"}}, {"uniqueid": "MTK0548:36WLNQG780H4RH3GFLV811ISLGLBEZ", "current_trial": 265, "dateTime": 1511211920749, "trialdata": {"rt": -1000, "stimulus": "/static/audio/wordpool/FRANCE.wav", "key_press": -1, "type": "PRES_AUD", "word": "france", "wordID": 600, "conditions": [24, 1600, "a", 24000], "trial": 7, "serialpos": 0, "trial_type": "single-audio", "trial_index": 265, "time_elapsed": 1388775, "internal_node_id": "0.0-193.0"}}, {"uniqueid": "MTK0548:36WLNQG780H4RH3GFLV811ISLGLBEZ", "current_trial": 266, "dateTime": 1511211923431, "trialdata": {"rt": -1000, "stimulus": "/static/audio/wordpool/LUMBER.wav", "key_press": -1, "type": "PRES_AUD", "word": "lumber", "wordID": 847, "conditions": [24, 1600, "a", 24000], "trial": 7, "serialpos": 1, "trial_type": "single-audio", "trial_index": 266, "time_elapsed": 1391457, "internal_node_id": "0.0-194.0"}}, {"uniqueid": "MTK0548:36WLNQG780H4RH3GFLV811ISLGLBEZ", "current_trial": 267, "dateTime": 1511211926228, "trialdata": {"rt": -1000, "stimulus": "/static/audio/wordpool/LAMP.wav", "key_press": -1, "type": "PRES_AUD", "word": "lamp", "wordID": 797, "conditions": [24, 1600, "a", 24000], "trial": 7, "serialpos": 2, "trial_type": "single-audio", "trial_index": 267, "time_elapsed": 1394253, "internal_node_id": "0.0-195.0"}}, {"uniqueid": "MTK0548:36WLNQG780H4RH3GFLV811ISLGLBEZ", "current_trial": 268, "dateTime": 1511211928743, "trialdata": {"rt": -1000, "stimulus": "/static/audio/wordpool/FOOTBALL.wav", "key_press": -1, "type": "PRES_AUD", "word": "football", "wordID": 590, "conditions": [24, 1600, "a", 24000], "trial": 7, "serialpos": 3, "trial_type": "single-audio", "trial_index": 268, "time_elapsed": 1396769, "internal_node_id": "0.0-196.0"}}, {"uniqueid": "MTK0548:36WLNQG780H4RH3GFLV811ISLGLBEZ", "current_trial": 269, "dateTime": 1511211931261, "trialdata": {"rt": -1000, "stimulus": "/static/audio/wordpool/POLICE.wav", "key_press": -1, "type": "PRES_AUD", "word": "police", "wordID": 1097, "conditions": [24, 1600, "a", 24000], "trial": 7, "serialpos": 4, "trial_type": "single-audio", "trial_index": 269, "time_elapsed": 1399287, "internal_node_id": "0.0-197.0"}}, {"uniqueid": "MTK0548:36WLNQG780H4RH3GFLV811ISLGLBEZ", "current_trial": 270, "dateTime": 1511211933997, "trialdata": {"rt": -1000, "stimulus": "/static/audio/wordpool/MAILBOX.wav", "key_press": -1, "type": "PRES_AUD", "word": "mailbox", "wordID": 856, "conditions": [24, 1600, "a", 24000], "trial": 7, "serialpos": 5, "trial_type": "single-audio", "trial_index": 270, "time_elapsed": 1402023, "internal_node_id": "0.0-198.0"}}, {"uniqueid": "MTK0548:36WLNQG780H4RH3GFLV811ISLGLBEZ", "current_trial": 271, "dateTime": 1511211936556, "trialdata": {"rt": -1000, "stimulus": "/static/audio/wordpool/CARRIAGE.wav", "key_press": -1, "type": "PRES_AUD", "word": "carriage", "wordID": 247, "conditions": [24, 1600, "a", 24000], "trial": 7, "serialpos": 6, "trial_type": "single-audio", "trial_index": 271, "time_elapsed": 1404583, "internal_node_id": "0.0-199.0"}}, {"uniqueid": "MTK0548:36WLNQG780H4RH3GFLV811ISLGLBEZ", "current_trial": 272, "dateTime": 1511211939159, "trialdata": {"rt": -1000, "stimulus": "/static/audio/wordpool/WIFE.wav", "key_press": -1, "type": "PRES_AUD", "word": "wife", "wordID": 1608, "condi