{"condition": 0, "counterbalance": 751, "assignmentId": "3COPXFW7XCJ9HBW0UCOCUG0MLPHKPD", "workerId": "MTK0316", "hitId": "3W9XHF7WGK25MJRDLRSUA65ZX8ZTKW", "currenttrial": 626, "bonus": 0, "data": [{"uniqueid": "MTK0316:3COPXFW7XCJ9HBW0UCOCUG0MLPHKPD", "current_trial": 0, "dateTime": 1510702935988, "trialdata": {"rt": 1283, "key_press": 74, "type": "INSTRUCTIONS", "trial_type": "text", "trial_index": 0, "time_elapsed": 1287, "internal_node_id": "0.0-0.0"}}, {"uniqueid": "MTK0316:3COPXFW7XCJ9HBW0UCOCUG0MLPHKPD", "current_trial": 1, "dateTime": 1510702950089, "trialdata": {"rt": 14099, "key_press": 70, "type": "INSTRUCTIONS", "trial_type": "text", "trial_index": 1, "time_elapsed": 15388, "internal_node_id": "0.0-1.0"}}, {"uniqueid": "MTK0316:3COPXFW7XCJ9HBW0UCOCUG0MLPHKPD", "current_trial": 2, "dateTime": 1510702955709, "trialdata": {"rt": [5610], "responses": ["ocean"], "type": "AUDIO_TEST", "trial_type": "audio-test", "trial_index": 2, "time_elapsed": 21009, "internal_node_id": "0.0-2.0"}}, {"uniqueid": "MTK0316:3COPXFW7XCJ9HBW0UCOCUG0MLPHKPD", "current_trial": 3, "dateTime": 1510702960080, "trialdata": {"rt": [4365], "responses": ["crystal"], "type": "AUDIO_TEST", "trial_type": "audio-test", "trial_index": 3, "time_elapsed": 25380, "internal_node_id": "0.0-3.0"}}, {"uniqueid": "MTK0316:3COPXFW7XCJ9HBW0UCOCUG0MLPHKPD", "current_trial": 4, "dateTime": 1510702965732, "trialdata": {"rt": [5647], "responses": ["spice"], "type": "AUDIO_TEST", "trial_type": "audio-test", "trial_index": 4, "time_elapsed": 31031, "internal_node_id": "0.0-4.0"}}, {"uniqueid": "MTK0316:3COPXFW7XCJ9HBW0UCOCUG0MLPHKPD", "current_trial": 5, "dateTime": 1510702982571, "trialdata": {"rt": 16087, "responses": "{\"Q0\":\"2am\",\"Q1\":\"9am\",\"Q2\":\"5\"}", "type": "SLEEP_SURVEY", "trial_type": "survey-text", "trial_index": 5, "time_elapsed": 47871, "internal_node_id": "0.0-5.0"}}, {"uniqueid": "MTK0316:3COPXFW7XCJ9HBW0UCOCUG0MLPHKPD", "current_trial": 6, "dateTime": 1510703009872, "trialdata": {"rt": 26300, "key_press": 70, "type": "INSTRUCTIONS", "trial_type": "text", "trial_index": 6, "time_elapsed": 75172, "internal_node_id": "0.0-6.0"}}, {"uniqueid": "MTK0316:3COPXFW7XCJ9HBW0UCOCUG0MLPHKPD", "current_trial": 7, "dateTime": 1510703023559, "trialdata": {"rt": 13186, "key_press": 70, "type": "INSTRUCTIONS", "trial_type": "text", "trial_index": 7, "time_elapsed": 88859, "internal_node_id": "0.0-7.0"}}, {"uniqueid": "MTK0316:3COPXFW7XCJ9HBW0UCOCUG0MLPHKPD", "current_trial": 8, "dateTime": 1510703030735, "trialdata": {"rt": 6675, "key_press": 70, "type": "INSTRUCTIONS", "trial_type": "text", "trial_index": 8, "time_elapsed": 96035, "internal_node_id": "0.0-8.0"}}, {"uniqueid": "MTK0316:3COPXFW7XCJ9HBW0UCOCUG0MLPHKPD", "current_trial": 9, "dateTime": 1510703049740, "trialdata": {"rt": [3561, 6265, 8418, 11204], "responses": ["10", "8", "8", "8"], "num1": [6, 1, 3, 2, 9], "num2": [2, 6, 2, 1, 7], "num3": [2, 1, 3, 5, 6], "type": "DISTRACTOR", "conditions": [18, 1200, "v", 18000], "trial": 0, "trial_type": "math-distractor", "trial_index": 9, "time_elapsed": 115040, "internal_node_id": "0.0-9.0"}}, {"uniqueid": "MTK0316:3COPXFW7XCJ9HBW0UCOCUG0MLPHKPD", "current_trial": 10, "dateTime": 1510703052741, "trialdata": {"rt": -1, "stimulus": "<p id=\"stim\">10</p>", "key_press": -1, "trial_type": "single-stim", "trial_index": 10, "time_elapsed": 118041, "internal_node_id": "0.0-10.0-0.0"}}, {"uniqueid": "MTK0316:3COPXFW7XCJ9HBW0UCOCUG0MLPHKPD", "current_trial": 11, "dateTime": 1510703053742, "trialdata": {"rt": -1, "stimulus": "<p id=\"stim\">9</p>", "key_press": -1, "trial_type": "single-stim", "trial_index": 11, "time_elapsed": 119042, "internal_node_id": "0.0-10.0-1.0"}}, {"uniqueid": "MTK0316:3COPXFW7XCJ9HBW0UCOCUG0MLPHKPD", "current_trial": 12, "dateTime": 1510703054743, "trialdata": {"rt": -1, "stimulus": "<p id=\"stim\">8</p>", "key_press": -1, "trial_type": "single-stim", "trial_index": 12, "time_elapsed": 120043, "internal_node_id": "0.0-10.0-2.0"}}, {"uniqueid": "MTK0316:3COPXFW7XCJ9HBW0UCOCUG0MLPHKPD", "current_trial": 13, "dateTime": 1510703055744, "trialdata": {"rt": -1, "stimulus": "<p id=\"stim\">7</p>", "key_press": -1, "trial_type": "single-stim", "trial_index": 13, "time_elapsed": 121044, "internal_node_id": "0.0-10.0-3.0"}}, {"uniqueid": "MTK0316:3COPXFW7XCJ9HBW0UCOCUG0MLPHKPD", "current_trial": 14, "dateTime": 1510703056744, "trialdata": {"rt": -1, "stimulus": "<p id=\"stim\">6</p>", "key_press": -1, "trial_type": "single-stim", "trial_index": 14, "time_elapsed": 122044, "internal_node_id": "0.0-10.0-4.0"}}, {"uniqueid": "MTK0316:3COPXFW7XCJ9HBW0UCOCUG0MLPHKPD", "current_trial": 15, "dateTime": 1510703057744, "trialdata": {"rt": -1, "stimulus": "<p id=\"stim\">5</p>", "key_press": -1, "trial_type": "single-stim", "trial_index": 15, "time_elapsed": 123044, "internal_node_id": "0.0-10.0-5.0"}}, {"uniqueid": "MTK0316:3COPXFW7XCJ9HBW0UCOCUG0MLPHKPD", "current_trial": 16, "dateTime": 1510703058745, "trialdata": {"rt": -1, "stimulus": "<p id=\"stim\">4</p>", "key_press": -1, "trial_type": "single-stim", "trial_index": 16, "time_elapsed": 124045, "internal_node_id": "0.0-10.0-6.0"}}, {"uniqueid": "MTK0316:3COPXFW7XCJ9HBW0UCOCUG0MLPHKPD", "current_trial": 17, "dateTime": 1510703059748, "trialdata": {"rt": -1, "stimulus": "<p id=\"stim\">3</p>", "key_press": -1, "trial_type": "single-stim", "trial_index": 17, "time_elapsed": 125048, "internal_node_id": "0.0-10.0-7.0"}}, {"uniqueid": "MTK0316:3COPXFW7XCJ9HBW0UCOCUG0MLPHKPD", "current_trial": 18, "dateTime": 1510703060748, "trialdata": {"rt": -1, "stimulus": "<p id=\"stim\">2</p>", "key_press": -1, "trial_type": "single-stim", "trial_index": 18, "time_elapsed": 126048, "internal_node_id": "0.0-10.0-8.0"}}, {"uniqueid": "MTK0316:3COPXFW7XCJ9HBW0UCOCUG0MLPHKPD", "current_trial": 19, "dateTime": 1510703061748, "trialdata": {"rt": -1, "stimulus": "<p id=\"stim\">1</p>", "key_press": -1, "trial_type": "single-stim", "trial_index": 19, "time_elapsed": 127048, "internal_node_id": "0.0-10.0-9.0"}}, {"uniqueid": "MTK0316:3COPXFW7XCJ9HBW0UCOCUG0MLPHKPD", "current_trial": 20, "dateTime": 1510703063249, "trialdata": {"rt": -1, "stimulus": "<p id=\"stim\">+</p>", "key_press": -1, "type": "FIXATION", "trial_type": "single-stim", "trial_index": 20, "time_elapsed": 128549, "internal_node_id": "0.0-11.0-0.0"}}, {"uniqueid": "MTK0316:3COPXFW7XCJ9HBW0UCOCUG0MLPHKPD", "current_trial": 21, "dateTime": 1510703064449, "trialdata": {"rt": -1, "stimulus": "<p id=\"stim\">LEOPARD</p>", "key_press": -1, "type": "PRES_VIS", "word": "leopard", "wordID": 811, "conditions": [18, 1200, "v", 18000], "trial": 0, "serialpos": 0, "trial_type": "single-stim", "trial_index": 21, "time_elapsed": 129749, "internal_node_id": "0.0-12.0"}}, {"uniqueid": "MTK0316:3COPXFW7XCJ9HBW0UCOCUG0MLPHKPD", "current_trial": 22, "dateTime": 1510703066517, "trialdata": {"rt": 310, "stimulus": "<p id=\"stim\">BODY</p>", "key_press": 175, "type": "PRES_VIS", "word": "body", "wordID": 144, "conditions": [18, 1200, "v", 18000], "trial": 0, "serialpos": 1, "trial_type": "single-stim", "trial_index": 22, "time_elapsed": 131817, "internal_node_id": "0.0-13.0"}}, {"uniqueid": "MTK0316:3COPXFW7XCJ9HBW0UCOCUG0MLPHKPD", "current_trial": 23, "dateTime": 1510703068569, "trialdata": {"rt": -1, "stimulus": "<p id=\"stim\">EMPIRE</p>", "key_press": -1, "type": "PRES_VIS", "word": "empire", "wordID": 529, "conditions": [18, 1200, "v", 18000], "trial": 0, "serialpos": 2, "trial_type": "single-stim", "trial_index": 23, "time_elapsed": 133869, "internal_node_id": "0.0-14.0"}}, {"uniqueid": "MTK0316:3COPXFW7XCJ9HBW0UCOCUG0MLPHKPD", "current_trial": 24, "dateTime": 1510703070649, "trialdata": {"rt": -1, "stimulus": "<p id=\"stim\">NOTEBOOK</p>", "key_press": -1, "type": "PRES_VIS", "word": "notebook", "wordID": 958, "conditions": [18, 1200, "v", 18000], "trial": 0, "serialpos": 3, "trial_type": "single-stim", "trial_index": 24, "time_elapsed": 135949, "internal_node_id": "0.0-15.0"}}, {"uniqueid": "MTK0316:3COPXFW7XCJ9HBW0UCOCUG0MLPHKPD", "current_trial": 25, "dateTime": 1510703072697, "trialdata": {"rt": -1, "stimulus": "<p id=\"stim\">THREAD</p>", "key_press": -1, "type": "PRES_VIS", "word": "thread", "wordID": 1459, "conditions": [18, 1200, "v", 18000], "trial": 0, "serialpos": 4, "trial_type": "single-stim", "trial_index": 25, "time_elapsed": 137997, "internal_node_id": "0.0-16.0"}}, {"uniqueid": "MTK0316:3COPXFW7XCJ9HBW0UCOCUG0MLPHKPD", "current_trial": 26, "dateTime": 1510703075081, "trialdata": {"rt": -1, "stimulus": "<p id=\"stim\">SCARF</p>", "key_press": -1, "type": "PRES_VIS", "word": "scarf", "wordID": 1245, "conditions": [18, 1200, "v", 18000], "trial": 0, "serialpos": 5, "trial_type": "single-stim", "trial_index": 26, "time_elapsed": 140381, "internal_node_id": "0.0-17.0"}}, {"uniqueid": "MTK0316:3COPXFW7XCJ9HBW0UCOCUG0MLPHKPD", "current_trial": 27, "dateTime": 1510703077299, "trialdata": {"rt": -1, "stimulus": "<p id=\"stim\">ITEM</p>", "key_press": -1, "type": "PRES_VIS", "word": "item", "wordID": 745, "conditions": [18, 1200, "v", 18000], "trial": 0, "serialpos": 6, "trial_type": "single-stim", "trial_index": 27, "time_elapsed": 142599, "internal_node_id": "0.0-18.0"}}, {"uniqueid": "MTK0316:3COPXFW7XCJ9HBW0UCOCUG0MLPHKPD", "current_trial": 28, "dateTime": 1510703079349, "trialdata": {"rt": -1, "stimulus": "<p id=\"stim\">SIBLING</p>", "key_press": -1, "type": "PRES_VIS", "word": "sibling", "wordID": 1300, "conditions": [18, 1200, "v", 18000], "trial": 0, "serialpos": 7, "trial_type": "single-stim", "trial_index": 28, "time_elapsed": 144649, "internal_node_id": "0.0-19.0"}}, {"uniqueid": "MTK0316:3COPXFW7XCJ9HBW0UCOCUG0MLPHKPD", "current_trial": 29, "dateTime": 1510703081375, "trialdata": {"rt": -1, "stimulus": "<p id=\"stim\">DAISY</p>", "key_press": -1, "type": "PRES_VIS", "word": "daisy", "wordID": 434, "conditions": [18, 1200, "v", 18000], "trial": 0, "serialpos": 8, "trial_type": "single-stim", "trial_index": 29, "time_elapsed": 146675, "internal_node_id": "0.0-20.0"}}, {"uniqueid": "MTK0316:3COPXFW7XCJ9HBW0UCOCUG0MLPHKPD", "current_trial": 30, "dateTime": 1510703083463, "trialdata": {"rt": -1, "stimulus": "<p id=\"stim\">ATLAS</p>", "key_press": -1, "type": "PRES_VIS", "word": "atlas", "wordID": 52, "conditions": [18, 1200, "v", 18000], "trial": 0, "serialpos": 9, "trial_type": "single-stim", "trial_index": 30, "time_elapsed": 148763, "internal_node_id": "0.0-21.0"}}, {"uniqueid": "MTK0316:3COPXFW7XCJ9HBW0UCOCUG0MLPHKPD", "current_trial": 31, "dateTime": 1510703085743, "trialdata": {"rt": -1, "stimulus": "<p id=\"stim\">FLASHLIGHT</p>", "key_press": -1, "type": "PRES_VIS", "word": "flashlight", "wordID": 574, "conditions": [18, 1200, "v", 18000], "trial": 0, "serialpos": 10, "trial_type": "single-stim", "trial_index": 31, "time_elapsed": 151043, "internal_node_id": "0.0-22.0"}}, {"uniqueid": "MTK0316:3COPXFW7XCJ9HBW0UCOCUG0MLPHKPD", "current_trial": 32, "dateTime": 1510703088084, "trialdata": {"rt": -1, "stimulus": "<p id=\"stim\">ONION</p>", "key_press": -1, "type": "PRES_VIS", "word": "onion", "wordID": 976, "conditions": [18, 1200, "v", 18000], "trial": 0, "serialpos": 11, "trial_type": "single-stim", "trial_index": 32, "time_elapsed": 153383, "internal_node_id": "0.0-23.0"}}, {"uniqueid": "MTK0316:3COPXFW7XCJ9HBW0UCOCUG0MLPHKPD", "current_trial": 33, "dateTime": 1510703090428, "trialdata": {"rt": -1, "stimulus": "<p id=\"stim\">BEAKER</p>", "key_press": -1, "type": "PRES_VIS", "word": "beaker", "wordID": 103, "conditions": [18, 1200, "v", 18000], "trial": 0, "serialpos": 12, "trial_type": "single-stim", "trial_index": 33, "time_elapsed": 155728, "internal_node_id": "0.0-24.0"}}, {"uniqueid": "MTK0316:3COPXFW7XCJ9HBW0UCOCUG0MLPHKPD", "current_trial": 34, "dateTime": 1510703092640, "trialdata": {"rt": -1, "stimulus": "<p id=\"stim\">GAZELLE</p>", "key_press": -1, "type": "PRES_VIS", "word": "gazelle", "wordID": 627, "conditions": [18, 1200, "v", 18000], "trial": 0, "serialpos": 13, "trial_type": "single-stim", "trial_index": 34, "time_elapsed": 157940, "internal_node_id": "0.0-25.0"}}, {"uniqueid": "MTK0316:3COPXFW7XCJ9HBW0UCOCUG0MLPHKPD", "current_trial": 35, "dateTime": 1510703094910, "trialdata": {"rt": -1, "stimulus": "<p id=\"stim\">COFFEE</p>", "key_press": -1, "type": "PRES_VIS", "word": "coffee", "wordID": 340, "conditions": [18, 1200, "v", 18000], "trial": 0, "serialpos": 14, "trial_type": "single-stim", "trial_index": 35, "time_elapsed": 160210, "internal_node_id": "0.0-26.0"}}, {"uniqueid": "MTK0316:3COPXFW7XCJ9HBW0UCOCUG0MLPHKPD", "current_trial": 36, "dateTime": 1510703097201, "trialdata": {"rt": -1, "stimulus": "<p id=\"stim\">ORANGE</p>", "key_press": -1, "type": "PRES_VIS", "word": "orange", "wordID": 979, "conditions": [18, 1200, "v", 18000], "trial": 0, "serialpos": 15, "trial_type": "single-stim", "trial_index": 36, "time_elapsed": 162501, "internal_node_id": "0.0-27.0"}}, {"uniqueid": "MTK0316:3COPXFW7XCJ9HBW0UCOCUG0MLPHKPD", "current_trial": 37, "dateTime": 1510703099516, "trialdata": {"rt": -1, "stimulus": "<p id=\"stim\">BANK</p>", "key_press": -1, "type": "PRES_VIS", "word": "bank", "wordID": 82, "conditions": [18, 1200, "v", 18000], "trial": 0, "serialpos": 16, "trial_type": "single-stim", "trial_index": 37, "time_elapsed": 164816, "internal_node_id": "0.0-28.0"}}, {"uniqueid": "MTK0316:3COPXFW7XCJ9HBW0UCOCUG0MLPHKPD", "current_trial": 38, "dateTime": 1510703101884, "trialdata": {"rt": -1, "stimulus": "<p id=\"stim\">OFFICE</p>", "key_press": -1, "type": "PRES_VIS", "word": "office", "wordID": 971, "conditions": [18, 1200, "v", 18000], "trial": 0, "serialpos": 17, "trial_type": "single-stim", "trial_index": 38, "time_elapsed": 167184, "internal_node_id": "0.0-29.0"}}, {"uniqueid": "MTK0316:3COPXFW7XCJ9HBW0UCOCUG0MLPHKPD", "current_trial": 39, "dateTime": 1510703104132, "trialdata": {"rt": -1, "stimulus": "", "key_press": -1, "type": "PRE_RECALL_DELAY", "trial_type": "single-stim", "trial_index": 39, "time_elapsed": 169432, "internal_node_id": "0.0-30.0-0.0"}}, {"uniqueid": "MTK0316:3COPXFW7XCJ9HBW0UCOCUG0MLPHKPD", "current_trial": 40, "dateTime": 1510703104634, "trialdata": {"rt": -1000, "stimulus": "/static/audio/400Hz.wav", "key_press": -1, "type": "PRE_RECALL_ALERT", "trial_type": "single-audio", "trial_index": 40, "time_elapsed": 169934, "internal_node_id": "0.0-31.0"}}, {"uniqueid": "MTK0316:3COPXFW7XCJ9HBW0UCOCUG0MLPHKPD", "current_trial": 41, "dateTime": 1510703164640, "trialdata": {"rt": [5419, 7988, 9337, 10628, 17518, 48961, 49300, 49487, 49656, 49821, 49994, 50145, 50314, 50487, 58863], "recwords": ["leopard", "blank", "empire", "thread", "paper", "", "", "", "", "", "", "", "", "", "empire"], "type": "FREE_RECALL", "conditions": [18, 1200, "v", 18000], "trial": 0, "trial_type": "free-recall", "trial_index": 41, "time_elapsed": 229938, "internal_node_id": "0.0-32.0-0.0"}}, {"uniqueid": "MTK0316:3COPXFW7XCJ9HBW0UCOCUG0MLPHKPD", "current_trial": 42, "dateTime": 1510703168467, "trialdata": {"rt": 1827, "key_press": 68, "type": "INSTRUCTIONS", "trial_type": "text", "trial_index": 42, "time_elapsed": 233767, "internal_node_id": "0.0-33.0"}}, {"uniqueid": "MTK0316:3COPXFW7XCJ9HBW0UCOCUG0MLPHKPD", "current_trial": 43, "dateTime": 1510703188469, "trialdata": {"rt": [2680, 5288, 13020, 15420, 17950], "responses": ["7", "13", "14", "8", "17"], "num1": [1, 1, 1, 2, 9, 4], "num2": [5, 9, 5, 1, 2, 5], "num3": [1, 3, 8, 5, 6, 8], "type": "DISTRACTOR", "conditions": [18, 1200, "a", 18000], "trial": 1, "trial_type": "math-distractor", "trial_index": 43, "time_elapsed": 253768, "internal_node_id": "0.0-34.0"}}, {"uniqueid": "MTK0316:3COPXFW7XCJ9HBW0UCOCUG0MLPHKPD", "current_trial": 44, "dateTime": 1510703191470, "trialdata": {"rt": -1, "stimulus": "<p id=\"stim\">10</p>", "key_press": -1, "trial_type": "single-stim", "trial_index": 44, "time_elapsed": 256770, "internal_node_id": "0.0-35.0-0.0"}}, {"uniqueid": "MTK0316:3COPXFW7XCJ9HBW0UCOCUG0MLPHKPD", "current_trial": 45, "dateTime": 1510703192470, "trialdata": {"rt": -1, "stimulus": "<p id=\"stim\">9</p>", "key_press": -1, "trial_type": "single-stim", "trial_index": 45, "time_elapsed": 257770, "internal_node_id": "0.0-35.0-1.0"}}, {"uniqueid": "MTK0316:3COPXFW7XCJ9HBW0UCOCUG0MLPHKPD", "current_trial": 46, "dateTime": 1510703193471, "trialdata": {"rt": -1, "stimulus": "<p id=\"stim\">8</p>", "key_press": -1, "trial_type": "single-stim", "trial_index": 46, "time_elapsed": 258771, "internal_node_id": "0.0-35.0-2.0"}}, {"uniqueid": "MTK0316:3COPXFW7XCJ9HBW0UCOCUG0MLPHKPD", "current_trial": 47, "dateTime": 1510703194472, "trialdata": {"rt": -1, "stimulus": "<p id=\"stim\">7</p>", "key_press": -1, "trial_type": "single-stim", "trial_index": 47, "time_elapsed": 259772, "internal_node_id": "0.0-35.0-3.0"}}, {"uniqueid": "MTK0316:3COPXFW7XCJ9HBW0UCOCUG0MLPHKPD", "current_trial": 48, "dateTime": 1510703195473, "trialdata": {"rt": -1, "stimulus": "<p id=\"stim\">6</p>", "key_press": -1, "trial_type": "single-stim", "trial_index": 48, "time_elapsed": 260773, "internal_node_id": "0.0-35.0-4.0"}}, {"uniqueid": "MTK0316:3COPXFW7XCJ9HBW0UCOCUG0MLPHKPD", "current_trial": 49, "dateTime": 1510703196474, "trialdata": {"rt": -1, "stimulus": "<p id=\"stim\">5</p>", "key_press": -1, "trial_type": "single-stim", "trial_index": 49, "time_elapsed": 261774, "internal_node_id": "0.0-35.0-5.0"}}, {"uniqueid": "MTK0316:3COPXFW7XCJ9HBW0UCOCUG0MLPHKPD", "current_trial": 50, "dateTime": 1510703197475, "trialdata": {"rt": -1, "stimulus": "<p id=\"stim\">4</p>", "key_press": -1, "trial_type": "single-stim", "trial_index": 50, "time_elapsed": 262775, "internal_node_id": "0.0-35.0-6.0"}}, {"uniqueid": "MTK0316:3COPXFW7XCJ9HBW0UCOCUG0MLPHKPD", "current_trial": 51, "dateTime": 1510703198475, "trialdata": {"rt": -1, "stimulus": "<p id=\"stim\">3</p>", "key_press": -1, "trial_type": "single-stim", "trial_index": 51, "time_elapsed": 263775, "internal_node_id": "0.0-35.0-7.0"}}, {"uniqueid": "MTK0316:3COPXFW7XCJ9HBW0UCOCUG0MLPHKPD", "current_trial": 52, "dateTime": 1510703199475, "trialdata": {"rt": -1, "stimulus": "<p id=\"stim\">2</p>", "key_press": -1, "trial_type": "single-stim", "trial_index": 52, "time_elapsed": 264775, "internal_node_id": "0.0-35.0-8.0"}}, {"uniqueid": "MTK0316:3COPXFW7XCJ9HBW0UCOCUG0MLPHKPD", "current_trial": 53, "dateTime": 1510703200475, "trialdata": {"rt": -1, "stimulus": "<p id=\"stim\">1</p>", "key_press": -1, "trial_type": "single-stim", "trial_index": 53, "time_elapsed": 265775, "internal_node_id": "0.0-35.0-9.0"}}, {"uniqueid": "MTK0316:3COPXFW7XCJ9HBW0UCOCUG0MLPHKPD", "current_trial": 54, "dateTime": 1510703201975, "trialdata": {"rt": -1, "stimulus": "<p id=\"stim\">+</p>", "key_press": -1, "type": "FIXATION", "trial_type": "single-stim", "trial_index": 54, "time_elapsed": 267275, "internal_node_id": "0.0-36.0-0.0"}}, {"uniqueid": "MTK0316:3COPXFW7XCJ9HBW0UCOCUG0MLPHKPD", "current_trial": 55, "dateTime": 1510703204297, "trialdata": {"rt": -1000, "stimulus": "/static/audio/wordpool/FLIPPER.wav", "key_press": -1, "type": "PRES_AUD", "word": "flipper", "wordID": 579, "conditions": [18, 1200, "a", 18000], "trial": 1, "serialpos": 0, "trial_type": "single-audio", "trial_index": 55, "time_elapsed": 269597, "internal_node_id": "0.0-37.0"}}, {"uniqueid": "MTK0316:3COPXFW7XCJ9HBW0UCOCUG0MLPHKPD", "current_trial": 56, "dateTime": 1510703206344, "trialdata": {"rt": -1000, "stimulus": "/static/audio/wordpool/CABIN.wav", "key_press": -1, "type": "PRES_AUD", "word": "cabin", "wordID": 210, "conditions": [18, 1200, "a", 18000], "trial": 1, "serialpos": 1, "trial_type": "single-audio", "trial_index": 56, "time_elapsed": 271644, "internal_node_id": "0.0-38.0"}}, {"uniqueid": "MTK0316:3COPXFW7XCJ9HBW0UCOCUG0MLPHKPD", "current_trial": 57, "dateTime": 1510703208705, "trialdata": {"rt": -1000, "stimulus": "/static/audio/wordpool/DRAGON.wav", "key_press": -1, "type": "PRES_AUD", "word": "dragon", "wordID": 491, "conditions": [18, 1200, "a", 18000], "trial": 1, "serialpos": 2, "trial_type": "single-audio", "trial_index": 57, "time_elapsed": 274004, "internal_node_id": "0.0-39.0"}}, {"uniqueid": "MTK0316:3COPXFW7XCJ9HBW0UCOCUG0MLPHKPD", "current_trial": 58, "dateTime": 1510703210938, "trialdata": {"rt": -1000, "stimulus": "/static/audio/wordpool/FINGER.wav", "key_press": -1, "type": "PRES_AUD", "word": "finger", "wordID": 566, "conditions": [18, 1200, "a", 18000], "trial": 1, "serialpos": 3, "trial_type": "single-audio", "trial_index": 58, "time_elapsed": 276238, "internal_node_id": "0.0-40.0"}}, {"uniqueid": "MTK0316:3COPXFW7XCJ9HBW0UCOCUG0MLPHKPD", "current_trial": 59, "dateTime": 1510703213074, "trialdata": {"rt": -1000, "stimulus": "/static/audio/wordpool/NIGHTGOWN.wav", "key_press": -1, "type": "PRES_AUD", "word": "nightgown", "wordID": 952, "conditions": [18, 1200, "a", 18000], "trial": 1, "serialpos": 4, "trial_type": "single-audio", "trial_index": 59, "time_elapsed": 278374, "internal_node_id": "0.0-41.0"}}, {"uniqueid": "MTK0316:3COPXFW7XCJ9HBW0UCOCUG0MLPHKPD", "current_trial": 60, "dateTime": 1510703215223, "trialdata": {"rt": -1000, "stimulus": "/static/audio/wordpool/TART.wav", "key_press": -1, "type": "PRES_AUD", "word": "tart", "wordID": 1435, "conditions": [18, 1200, "a", 18000], "trial": 1, "serialpos": 5, "trial_type": "single-audio", "trial_index": 60, "time_elapsed": 280522, "internal_node_id": "0.0-42.0"}}, {"uniqueid": "MTK0316:3COPXFW7XCJ9HBW0UCOCUG0MLPHKPD", "current_trial": 61, "dateTime": 1510703217523, "trialdata": {"rt": -1000, "stimulus": "/static/audio/wordpool/KEEPER.wav", "key_press": -1, "type": "PRES_AUD", "word": "keeper", "wordID": 768, "conditions": [18, 1200, "a", 18000], "trial": 1, "serialpos": 6, "trial_type": "single-audio", "trial_index": 61, "time_elapsed": 282823, "internal_node_id": "0.0-43.0"}}, {"uniqueid": "MTK0316:3COPXFW7XCJ9HBW0UCOCUG0MLPHKPD", "current_trial": 62, "dateTime": 1510703219569, "trialdata": {"rt": -1000, "stimulus": "/static/audio/wordpool/CLIMBER.wav", "key_press": -1, "type": "PRES_AUD", "word": "climber", "wordID": 322, "conditions": [18, 1200, "a", 18000], "trial": 1, "serialpos": 7, "trial_type": "single-audio", "trial_index": 62, "time_elapsed": 284869, "internal_node_id": "0.0-44.0"}}, {"uniqueid": "MTK0316:3COPXFW7XCJ9HBW0UCOCUG0MLPHKPD", "current_trial": 63, "dateTime": 1510703221607, "trialdata": {"rt": -1000, "stimulus": "/static/audio/wordpool/SPIDER.wav", "key_press": -1, "type": "PRES_AUD", "word": "spider", "wordID": 1350, "conditions": [18, 1200, "a", 18000], "trial": 1, "serialpos": 8, "trial_type": "single-audio", "trial_index": 63, "time_elapsed": 286907, "internal_node_id": "0.0-45.0"}}, {"uniqueid": "MTK0316:3COPXFW7XCJ9HBW0UCOCUG0MLPHKPD", "current_trial": 64, "dateTime": 1510703223801, "trialdata": {"rt": -1000, "stimulus": "/static/audio/wordpool/CLOTHES.wav", "key_press": -1, "type": "PRES_AUD", "word": "clothes", "wordID": 326, "conditions": [18, 1200, "a", 18000], "trial": 1, "serialpos": 9, "trial_type": "single-audio", "trial_index": 64, "time_elapsed": 289101, "internal_node_id": "0.0-46.0"}}, {"uniqueid": "MTK0316:3COPXFW7XCJ9HBW0UCOCUG0MLPHKPD", "current_trial": 65, "dateTime": 1510703226008, "trialdata": {"rt": -1000, "stimulus": "/static/audio/wordpool/BUBBLE.wav", "key_press": -1, "type": "PRES_AUD", "word": "bubble", "wordID": 182, "conditions": [18, 1200, "a", 18000], "trial": 1, "serialpos": 10, "trial_type": "single-audio", "trial_index": 65, "time_elapsed": 291308, "internal_node_id": "0.0-47.0"}}, {"uniqueid": "MTK0316:3COPXFW7XCJ9HBW0UCOCUG0MLPHKPD", "current_trial": 66, "dateTime": 1510703228123, "trialdata": {"rt": -1000, "stimulus": "/static/audio/wordpool/PASSAGE.wav", "key_press": -1, "type": "PRES_AUD", "word": "passage", "wordID": 1018, "conditions": [18, 1200, "a", 18000], "trial": 1, "serialpos": 11, "trial_type": "single-audio", "trial_index": 66, "time_elapsed": 293423, "internal_node_id": "0.0-48.0"}}, {"uniqueid": "MTK0316:3COPXFW7XCJ9HBW0UCOCUG0MLPHKPD", "current_trial": 67, "dateTime": 1510703230283, "trialdata": {"rt": -1000, "stimulus": "/static/audio/wordpool/OYSTER.wav", "key_press": -1, "type": "PRES_AUD", "word": "oyster", "wordID": 994, "conditions": [18, 1200, "a", 18000], "trial": 1, "serialpos": 12, "trial_type": "single-audio", "trial_index": 67, "time_elapsed": 295583, "internal_node_id": "0.0-49.0"}}, {"uniqueid": "MTK0316:3COPXFW7XCJ9HBW0UCOCUG0MLPHKPD", "current_trial": 68, "dateTime": 1510703232653, "trialdata": {"rt": -1000, "stimulus": "/static/audio/wordpool/TILE.wav", "key_press": -1, "type": "PRES_AUD", "word": "tile", "wordID": 1467, "conditions": [18, 1200, "a", 18000], "trial": 1, "serialpos": 13, "trial_type": "single-audio", "trial_index": 68, "time_elapsed": 297951, "internal_node_id": "0.0-50.0"}}, {"uniqueid": "MTK0316:3COPXFW7XCJ9HBW0UCOCUG0MLPHKPD", "current_trial": 69, "dateTime": 1510703234838, "trialdata": {"rt": -1000, "stimulus": "/static/audio/wordpool/CASKET.wav", "key_press": -1, "type": "PRES_AUD", "word": "casket", "wordID": 254, "conditions": [18, 1200, "a", 18000], "trial": 1, "serialpos": 14, "trial_type": "single-audio", "trial_index": 69, "time_elapsed": 300138, "internal_node_id": "0.0-51.0"}}, {"uniqueid": "MTK0316:3COPXFW7XCJ9HBW0UCOCUG0MLPHKPD", "current_trial": 70, "dateTime": 1510703237014, "trialdata": {"rt": -1000, "stimulus": "/static/audio/wordpool/DRESSER.wav", "key_press": -1, "type": "PRES_AUD", "word": "dresser", "wordID": 495, "conditions": [18, 1200, "a", 18000], "trial": 1, "serialpos": 15, "trial_type": "single-audio", "trial_index": 70, "time_elapsed": 302314, "internal_node_id": "0.0-52.0"}}, {"uniqueid": "MTK0316:3COPXFW7XCJ9HBW0UCOCUG0MLPHKPD", "current_trial": 71, "dateTime": 1510703239270, "trialdata": {"rt": -1000, "stimulus": "/static/audio/wordpool/PARTNER.wav", "key_press": -1, "type": "PRES_AUD", "word": "partner", "wordID": 1016, "conditions": [18, 1200, "a", 18000], "trial": 1, "serialpos": 16, "trial_type": "single-audio", "trial_index": 71, "time_elapsed": 304570, "internal_node_id": "0.0-53.0"}}, {"uniqueid": "MTK0316:3COPXFW7XCJ9HBW0UCOCUG0MLPHKPD", "current_trial": 72, "dateTime": 1510703241452, "trialdata": {"rt": -1000, "stimulus": "/static/audio/wordpool/HANDBAG.wav", "key_press": -1, "type": "PRES_AUD", "word": "handbag", "wordID": 683, "conditions": [18, 1200, "a", 18000], "trial": 1, "serialpos": 17, "trial_type": "single-audio", "trial_index": 72, "time_elapsed": 306752, "internal_node_id": "0.0-54.0"}}, {"uniqueid": "MTK0316:3COPXFW7XCJ9HBW0UCOCUG0MLPHKPD", "current_trial": 73, "dateTime": 1510703242804, "trialdata": {"rt": -1, "stimulus": "", "key_press": -1, "type": "PRE_RECALL_DELAY", "trial_type": "single-stim", "trial_index": 73, "time_elapsed": 308104, "internal_node_id": "0.0-55.0-0.0"}}, {"uniqueid": "MTK0316:3COPXFW7XCJ9HBW0UCOCUG0MLPHKPD", "current_trial": 74, "dateTime": 1510703243304, "trialdata": {"rt": -1000, "stimulus": "/static/audio/400Hz.wav", "key_press": -1, "type": "PRE_RECALL_ALERT", "trial_type": "single-audio", "trial_index": 74, "time_elapsed": 308604, "internal_node_id": "0.0-56.0"}}, {"uniqueid": "MTK0316:3COPXFW7XCJ9HBW0UCOCUG0MLPHKPD", "current_trial": 75, "dateTime": 1510703303308, "trialdata": {"rt": [3460, 6003, 7740, 8844, 15097, 19070, 28965, 36632, 40832, 43242], "recwords": ["dresser", "handbag", "dragon", "finger", "partner", "casket", "tart", "keeper", "spider", "clothes"], "type": "FREE_RECALL", "conditions": [18, 1200, "a", 18000], "trial": 1, "trial_type": "free-recall", "trial_index": 75, "time_elapsed": 368606, "internal_node_id": "0.0-57.0-0.0"}}, {"uniqueid": "MTK0316:3COPXFW7XCJ9HBW0UCOCUG0MLPHKPD", "current_trial": 76, "dateTime": 1510703307708, "trialdata": {"rt": 2394, "key_press": 85, "type": "INSTRUCTIONS", "trial_type": "text", "trial_index": 76, "time_elapsed": 373002, "internal_node_id": "0.0-58.0"}}, {"uniqueid": "MTK0316:3COPXFW7XCJ9HBW0UCOCUG0MLPHKPD", "current_trial": 77, "dateTime": 1510703332711, "trialdata": {"rt": [2801, 8065, 9932, 11898, 18008, 22787], "responses": ["18", "23", "11", "18", "14", "16"], "num1": [7, 7, 5, 1, 1, 4, 8], "num2": [2, 8, 3, 8, 5, 5, 3], "num3": [9, 8, 2, 9, 8, 7, 6], "type": "DISTRACTOR", "conditions": [12, 800, "v", 24000], "trial": 2, "trial_type": "math-distractor", "trial_index": 77, "time_elapsed": 398010, "internal_node_id": "0.0-59.0"}}, {"uniqueid": "MTK0316:3COPXFW7XCJ9HBW0UCOCUG0MLPHKPD", "current_trial": 78, "dateTime": 1510703335712, "trialdata": {"rt": -1, "stimulus": "<p id=\"stim\">10</p>", "key_press": -1, "trial_type": "single-stim", "trial_index": 78, "time_elapsed": 401012, "internal_node_id": "0.0-60.0-0.0"}}, {"uniqueid": "MTK0316:3COPXFW7XCJ9HBW0UCOCUG0MLPHKPD", "current_trial": 79, "dateTime": 1510703336713, "trialdata": {"rt": -1, "stimulus": "<p id=\"stim\">9</p>", "key_press": -1, "trial_type": "single-stim", "trial_index": 79, "time_elapsed": 402013, "internal_node_id": "0.0-60.0-1.0"}}, {"uniqueid": "MTK0316:3COPXFW7XCJ9HBW0UCOCUG0MLPHKPD", "current_trial": 80, "dateTime": 1510703337715, "trialdata": {"rt": -1, "stimulus": "<p id=\"stim\">8</p>", "key_press": -1, "trial_type": "single-stim", "trial_index": 80, "time_elapsed": 403015, "internal_node_id": "0.0-60.0-2.0"}}, {"uniqueid": "MTK0316:3COPXFW7XCJ9HBW0UCOCUG0MLPHKPD", "current_trial": 81, "dateTime": 1510703338716, "trialdata": {"rt": -1, "stimulus": "<p id=\"stim\">7</p>", "key_press": -1, "trial_type": "single-stim", "trial_index": 81, "time_elapsed": 404016, "internal_node_id": "0.0-60.0-3.0"}}, {"uniqueid": "MTK0316:3COPXFW7XCJ9HBW0UCOCUG0MLPHKPD", "current_trial": 82, "dateTime": 1510703339716, "trialdata": {"rt": -1, "stimulus": "<p id=\"stim\">6</p>", "key_press": -1, "trial_type": "single-stim", "trial_index": 82, "time_elapsed": 405016, "internal_node_id": "0.0-60.0-4.0"}}, {"uniqueid": "MTK0316:3COPXFW7XCJ9HBW0UCOCUG0MLPHKPD", "current_trial": 83, "dateTime": 1510703340717, "trialdata": {"rt": -1, "stimulus": "<p id=\"stim\">5</p>", "key_press": -1, "trial_type": "single-stim", "trial_index": 83, "time_elapsed": 406017, "internal_node_id": "0.0-60.0-5.0"}}, {"uniqueid": "MTK0316:3COPXFW7XCJ9HBW0UCOCUG0MLPHKPD", "current_trial": 84, "dateTime": 1510703341718, "trialdata": {"rt": -1, "stimulus": "<p id=\"stim\">4</p>", "key_press": -1, "trial_type": "single-stim", "trial_index": 84, "time_elapsed": 407018, "internal_node_id": "0.0-60.0-6.0"}}, {"uniqueid": "MTK0316:3COPXFW7XCJ9HBW0UCOCUG0MLPHKPD", "current_trial": 85, "dateTime": 1510703342718, "trialdata": {"rt": -1, "stimulus": "<p id=\"stim\">3</p>", "key_press": -1, "trial_type": "single-stim", "trial_index": 85, "time_elapsed": 408018, "internal_node_id": "0.0-60.0-7.0"}}, {"uniqueid": "MTK0316:3COPXFW7XCJ9HBW0UCOCUG0MLPHKPD", "current_trial": 86, "dateTime": 1510703343719, "trialdata": {"rt": -1, "stimulus": "<p id=\"stim\">2</p>", "key_press": -1, "trial_type": "single-stim", "trial_index": 86, "time_elapsed": 409019, "internal_node_id": "0.0-60.0-8.0"}}, {"uniqueid": "MTK0316:3COPXFW7XCJ9HBW0UCOCUG0MLPHKPD", "current_trial": 87, "dateTime": 1510703344720, "trialdata": {"rt": -1, "stimulus": "<p id=\"stim\">1</p>", "key_press": -1, "trial_type": "single-stim", "trial_index": 87, "time_elapsed": 410020, "internal_node_id": "0.0-60.0-9.0"}}, {"uniqueid": "MTK0316:3COPXFW7XCJ9HBW0UCOCUG0MLPHKPD", "current_trial": 88, "dateTime": 1510703346222, "trialdata": {"rt": -1, "stimulus": "<p id=\"stim\">+</p>", "key_press": -1, "type": "FIXATION", "trial_type": "single-stim", "trial_index": 88, "time_elapsed": 411522, "internal_node_id": "0.0-61.0-0.0"}}, {"uniqueid": "MTK0316:3COPXFW7XCJ9HBW0UCOCUG0MLPHKPD", "current_trial": 89, "dateTime": 1510703347022, "trialdata": {"rt": -1, "stimulus": "<p id=\"stim\">BEEF</p>", "key_press": -1, "type": "PRES_VIS", "word": "beef", "wordID": 112, "conditions": [12, 800, "v", 24000], "trial": 2, "serialpos": 0, "trial_type": "single-stim", "trial_index": 89, "time_elapsed": 412322, "internal_node_id": "0.0-62.0"}}, {"uniqueid": "MTK0316:3COPXFW7XCJ9HBW0UCOCUG0MLPHKPD", "current_trial": 90, "dateTime": 1510703348745, "trialdata": {"rt": -1, "stimulus": "<p id=\"stim\">DOUGHNUT</p>", "key_press": -1, "type": "PRES_VIS", "word": "doughnut", "wordID": 489, "conditions": [12, 800, "v", 24000], "trial": 2, "serialpos": 1, "trial_type": "single-stim", "trial_index": 90, "time_elapsed": 414045, "internal_node_id": "0.0-63.0"}}, {"uniqueid": "MTK0316:3COPXFW7XCJ9HBW0UCOCUG0MLPHKPD", "current_trial": 91, "dateTime": 1510703350678, "trialdata": {"rt": -1, "stimulus": "<p id=\"stim\">SNACK</p>", "key_press": -1, "type": "PRES_VIS", "word": "snack", "wordID": 1330, "conditions": [12, 800, "v", 24000], "trial": 2, "serialpos": 2, "trial_type": "single-stim", "trial_index": 91, "time_elapsed": 415978, "internal_node_id": "0.0-64.0"}}, {"uniqueid": "MTK0316:3COPXFW7XCJ9HBW0UCOCUG0MLPHKPD", "current_trial": 92, "dateTime": 1510703352601, "trialdata": {"rt": -1, "stimulus": "<p id=\"stim\">STAPLE</p>", "key_press": -1, "type": "PRES_VIS", "word": "staple", "wordID": 1370, "conditions": [12, 800, "v", 24000], "trial": 2, "serialpos": 3, "trial_type": "single-stim", "trial_index": 92, "time_elapsed": 417901, "internal_node_id": "0.0-65.0"}}, {"uniqueid": "MTK0316:3COPXFW7XCJ9HBW0UCOCUG0MLPHKPD", "current_trial": 93, "dateTime": 1510703354584, "trialdata": {"rt": -1, "stimulus": "<p id=\"stim\">ARM</p>", "key_press": -1, "type": "PRES_VIS", "word": "arm", "wordID": 37, "conditions": [12, 800, "v", 24000], "trial": 2, "serialpos": 4, "trial_type": "single-stim", "trial_index": 93, "time_elapsed": 419884, "internal_node_id": "0.0-66.0"}}, {"uniqueid": "MTK0316:3COPXFW7XCJ9HBW0UCOCUG0MLPHKPD", "current_trial": 94, "dateTime": 1510703356409, "trialdata": {"rt": -1, "stimulus": "<p id=\"stim\">PUDDING</p>", "key_press": -1, "type": "PRES_VIS", "word": "pudding", "wordID": 1138, "conditions": [12, 800, "v", 24000], "trial": 2, "serialpos": 5, "trial_type": "single-stim", "trial_index": 94, "time_elapsed": 421709, "internal_node_id": "0.0-67.0"}}, {"uniqueid": "MTK0316:3COPXFW7XCJ9HBW0UCOCUG0MLPHKPD", "current_trial": 95, "dateTime": 1510703358138, "trialdata": {"rt": -1, "stimulus": "<p id=\"stim\">TROUT</p>", "key_press": -1, "type": "PRES_VIS", "word": "trout", "wordID": 1510, "conditions": [12, 800, "v", 24000], "trial": 2, "serialpos": 6, "trial_type": "single-stim", "trial_index": 95, "time_elapsed": 423438, "internal_node_id": "0.0-68.0"}}, {"uniqueid": "MTK0316:3COPXFW7XCJ9HBW0UCOCUG0MLPHKPD", "current_trial": 96, "dateTime": 1510703359825, "trialdata": {"rt": -1, "stimulus": "<p id=\"stim\">LEG</p>", "key_press": -1, "type": "PRES_VIS", "word": "leg", "wordID": 808, "conditions": [12, 800, "v", 24000], "trial": 2, "serialpos": 7, "trial_type": "single-stim", "trial_index": 96, "time_elapsed": 425125, "internal_node_id": "0.0-69.0"}}, {"uniqueid": "MTK0316:3COPXFW7XCJ9HBW0UCOCUG0MLPHKPD", "current_trial": 97, "dateTime": 1510703361538, "trialdata": {"rt": -1, "stimulus": "<p id=\"stim\">SCOTCH</p>", "key_press": -1, "type": "PRES_VIS", "word": "scotch", "wordID": 1250, "conditions": [12, 800, "v", 24000], "trial": 2, "serialpos": 8, "trial_type": "single-stim", "trial_index": 97, "time_elapsed": 426838, "internal_node_id": "0.0-70.0"}}, {"uniqueid": "MTK0316:3COPXFW7XCJ9HBW0UCOCUG0MLPHKPD", "current_trial": 98, "dateTime": 1510703363237, "trialdata": {"rt": -1, "stimulus": "<p id=\"stim\">PIZZA</p>", "key_press": -1, "type": "PRES_VIS", "word": "pizza", "wordID": 1078, "conditions": [12, 800, "v", 24000], "trial": 2, "serialpos": 9, "trial_type": "single-stim", "trial_index": 98, "time_elapsed": 428537, "internal_node_id": "0.0-71.0"}}, {"uniqueid": "MTK0316:3COPXFW7XCJ9HBW0UCOCUG0MLPHKPD", "current_trial": 99, "dateTime": 1510703365127, "trialdata": {"rt": -1, "stimulus": "<p id=\"stim\">SANDWICH</p>", "key_press": -1, "type": "PRES_VIS", "word": "sandwich", "wordID": 1231, "conditions": [12, 800, "v", 24000], "trial": 2, "serialpos": 10, "trial_type": "single-stim", "trial_index": 99, "time_elapsed": 430427, "internal_node_id": "0.0-72.0"}}, {"uniqueid": "MTK0316:3COPXFW7XCJ9HBW0UCOCUG0MLPHKPD", "current_trial": 100, "dateTime": 1510703366908, "trialdata": {"rt": -1, "stimulus": "<p id=\"stim\">MESSAGE</p>", "key_press": -1, "type": "PRES_VIS", "word": "message", "wordID": 887, "conditions": [12, 800, "v", 24000], "trial": 2, "serialpos": 11, "trial_type": "single-stim", "trial_index": 100, "time_elapsed": 432208, "internal_node_id": "0.0-73.0"}}, {"uniqueid": "MTK0316:3COPXFW7XCJ9HBW0UCOCUG0MLPHKPD", "current_trial": 101, "dateTime": 1510703369307, "trialdata": {"rt": -1, "stimulus": "", "key_press": -1, "type": "PRE_RECALL_DELAY", "trial_type": "single-stim", "trial_index": 101, "time_elapsed": 434607, "internal_node_id": "0.0-74.0-0.0"}}, {"uniqueid": "MTK0316:3COPXFW7XCJ9HBW0UCOCUG0MLPHKPD", "current_trial": 102, "dateTime": 1510703369808, "trialdata": {"rt": -1000, "stimulus": "/static/audio/400Hz.wav", "key_press": -1, "type": "PRE_RECALL_ALERT", "trial_type": "single-audio", "trial_index": 102, "time_elapsed": 435108, "internal_node_id": "0.0-75.0"}}, {"uniqueid": "MTK0316:3COPXFW7XCJ9HBW0UCOCUG0MLPHKPD", "current_trial": 103, "dateTime": 1510703429814, "trialdata": {"rt": [3097, 5538, 7548, 8666, 14667, 18892, 24159, 29854, 36278, 44253], "recwords": ["message", "scotch", "sandwich", "pizza", "beef", "doughnut", "staple", "pudding", "leg", "arm"], "type": "FREE_RECALL", "conditions": [12, 800, "v", 24000], "trial": 2, "trial_type": "free-recall", "trial_index": 103, "time_elapsed": 495111, "internal_node_id": "0.0-76.0-0.0"}}, {"uniqueid": "MTK0316:3COPXFW7XCJ9HBW0UCOCUG0MLPHKPD", "current_trial": 104, "dateTime": 1510703433637, "trialdata": {"rt": 1822, "key_press": 75, "type": "INSTRUCTIONS", "trial_type": "text", "trial_index": 104, "time_elapsed": 498937, "internal_node_id": "0.0-77.0"}}, {"uniqueid": "MTK0316:3COPXFW7XCJ9HBW0UCOCUG0MLPHKPD", "current_trial": 105, "dateTime": 1510703459640, "trialdata": {"rt": [3505, 8228, 12904, 14813, 17774, 19831, 21784], "responses": ["21", "19", "14", "15", "9", "10", "15"], "num1": [9, 6, 4, 6, 1, 7, 7, 3], "num2": [9, 5, 5, 6, 1, 2, 3, 7], "num3": [3, 8, 5, 3, 7, 1, 5, 7], "type": "DISTRACTOR", "conditions": [24, 800, "a", 24000], "trial": 3, "trial_type": "math-distractor", "trial_index": 105, "time_elapsed": 524939, "internal_node_id": "0.0-78.0"}}, {"uniqueid": "MTK0316:3COPXFW7XCJ9HBW0UCOCUG0MLPHKPD", "current_trial": 106, "dateTime": 1510703462640, "trialdata": {"rt": -1, "stimulus": "<p id=\"stim\">10</p>", "key_press": -1, "trial_type": "single-stim", "trial_index": 106, "time_elapsed": 527940, "internal_node_id": "0.0-79.0-0.0"}}, {"uniqueid": "MTK0316:3COPXFW7XCJ9HBW0UCOCUG0MLPHKPD", "current_trial": 107, "dateTime": 1510703463640, "trialdata": {"rt": -1, "stimulus": "<p id=\"stim\">9</p>", "key_press": -1, "trial_type": "single-stim", "trial_index": 107, "time_elapsed": 528940, "internal_node_id": "0.0-79.0-1.0"}}, {"uniqueid": "MTK0316:3COPXFW7XCJ9HBW0UCOCUG0MLPHKPD", "current_trial": 108, "dateTime": 1510703464641, "trialdata": {"rt": -1, "stimulus": "<p id=\"stim\">8</p>", "key_press": -1, "trial_type": "single-stim", "trial_index": 108, "time_elapsed": 529941, "internal_node_id": "0.0-79.0-2.0"}}, {"uniqueid": "MTK0316:3COPXFW7XCJ9HBW0UCOCUG0MLPHKPD", "current_trial": 109, "dateTime": 1510703465642, "trialdata": {"rt": -1, "stimulus": "<p id=\"stim\">7</p>", "key_press": -1, "trial_type": "single-stim", "trial_index": 109, "time_elapsed": 530942, "internal_node_id": "0.0-79.0-3.0"}}, {"uniqueid": "MTK0316:3COPXFW7XCJ9HBW0UCOCUG0MLPHKPD", "current_trial": 110, "dateTime": 1510703466643, "trialdata": {"rt": -1, "stimulus": "<p id=\"stim\">6</p>", "key_press": -1, "trial_type": "single-stim", "trial_index": 110, "time_elapsed": 531943, "internal_node_id": "0.0-79.0-4.0"}}, {"uniqueid": "MTK0316:3COPXFW7XCJ9HBW0UCOCUG0MLPHKPD", "current_trial": 111, "dateTime": 1510703467643, "trialdata": {"rt": -1, "stimulus": "<p id=\"stim\">5</p>", "key_press": -1, "trial_type": "single-stim", "trial_index": 111, "time_elapsed": 532943, "internal_node_id": "0.0-79.0-5.0"}}, {"uniqueid": "MTK0316:3COPXFW7XCJ9HBW0UCOCUG0MLPHKPD", "current_trial": 112, "dateTime": 1510703468644, "trialdata": {"rt": -1, "stimulus": "<p id=\"stim\">4</p>", "key_press": -1, "trial_type": "single-stim", "trial_index": 112, "time_elapsed": 533944, "internal_node_id": "0.0-79.0-6.0"}}, {"uniqueid": "MTK0316:3COPXFW7XCJ9HBW0UCOCUG0MLPHKPD", "current_trial": 113, "dateTime": 1510703469646, "trialdata": {"rt": -1, "stimulus": "<p id=\"stim\">3</p>", "key_press": -1, "trial_type": "single-stim", "trial_index": 113, "time_elapsed": 534946, "internal_node_id": "0.0-79.0-7.0"}}, {"uniqueid": "MTK0316:3COPXFW7XCJ9HBW0UCOCUG0MLPHKPD", "current_trial": 114, "dateTime": 1510703470647, "trialdata": {"rt": -1, "stimulus": "<p id=\"stim\">2</p>", "key_press": -1, "trial_type": "single-stim", "trial_index": 114, "time_elapsed": 535947, "internal_node_id": "0.0-79.0-8.0"}}, {"uniqueid": "MTK0316:3COPXFW7XCJ9HBW0UCOCUG0MLPHKPD", "current_trial": 115, "dateTime": 1510703471648, "trialdata": {"rt": -1, "stimulus": "<p id=\"stim\">1</p>", "key_press": -1, "trial_type": "single-stim", "trial_index": 115, "time_elapsed": 536948, "internal_node_id": "0.0-79.0-9.0"}}, {"uniqueid": "MTK0316:3COPXFW7XCJ9HBW0UCOCUG0MLPHKPD", "current_trial": 116, "dateTime": 1510703473150, "trialdata": {"rt": -1, "stimulus": "<p id=\"stim\">+</p>", "key_press": -1, "type": "FIXATION", "trial_type": "single-stim", "trial_index": 116, "time_elapsed": 538449, "internal_node_id": "0.0-80.0-0.0"}}, {"uniqueid": "MTK0316:3COPXFW7XCJ9HBW0UCOCUG0MLPHKPD", "current_trial": 117, "dateTime": 1510703474935, "trialdata": {"rt": -1000, "stimulus": "/static/audio/wordpool/SHELTER.wav", "key_press": -1, "type": "PRES_AUD", "word": "shelter", "wordID": 1281, "conditions": [24, 800, "a", 24000], "trial": 3, "serialpos": 0, "trial_type": "single-audio", "trial_index": 117, "time_elapsed": 540235, "internal_node_id": "0.0-81.0"}}, {"uniqueid": "MTK0316:3COPXFW7XCJ9HBW0UCOCUG0MLPHKPD", "current_trial": 118, "dateTime": 1510703476601, "trialdata": {"rt": -1000, "stimulus": "/static/audio/wordpool/COUNTY.wav", "key_press": -1, "type": "PRES_AUD", "word": "county", "wordID": 388, "conditions": [24, 800, "a", 24000], "trial": 3, "serialpos": 1, "trial_type": "single-audio", "trial_index": 118, "time_elapsed": 541901, "internal_node_id": "0.0-82.0"}}, {"uniqueid": "MTK0316:3COPXFW7XCJ9HBW0UCOCUG0MLPHKPD", "current_trial": 119, "dateTime": 1510703478534, "trialdata": {"rt": -1000, "stimulus": "/static/audio/wordpool/MAILMAN.wav", "key_press": -1, "type": "PRES_AUD", "word": "mailman", "wordID": 857, "conditions": [24, 800, "a", 24000], "trial": 3, "serialpos": 2, "trial_type": "single-audio", "trial_index": 119, "time_elapsed": 543834, "internal_node_id": "0.0-83.0"}}, {"uniqueid": "MTK0316:3COPXFW7XCJ9HBW0UCOCUG0MLPHKPD", "current_trial": 120, "dateTime": 1510703480426, "trialdata": {"rt": -1000, "stimulus": "/static/audio/wordpool/REPORT.wav", "key_press": -1, "type": "PRES_AUD", "word": "report", "wordID": 1183, "conditions": [24, 800, "a", 24000], "trial": 3, "serialpos": 3, "trial_type": "single-audio", "trial_index": 120, "time_elapsed": 545726, "internal_node_id": "0.0-84.0"}}, {"uniqueid": "MTK0316:3COPXFW7XCJ9HBW0UCOCUG0MLPHKPD", "current_trial": 121, "dateTime": 1510703482299, "trialdata": {"rt": -1000, "stimulus": "/static/audio/wordpool/SURVEY.wav", "key_press": -1, "type": "PRES_AUD", "word": "survey", "wordID": 1413, "conditions": [24, 800, "a", 24000], "trial": 3, "serialpos": 4, "trial_type": "single-audio", "trial_index": 121, "time_elapsed": 547598, "internal_node_id": "0.0-85.0"}}, {"uniqueid": "MTK0316:3COPXFW7XCJ9HBW0UCOCUG0MLPHKPD", "current_trial": 122, "dateTime": 1510703484197, "trialdata": {"rt": -1000, "stimulus": "/static/audio/wordpool/CHEST.wav", "key_press": -1, "type": "PRES_AUD", "word": "chest", "wordID": 294, "conditions": [24, 800, "a", 24000], "trial": 3, "serialpos": 5, "trial_type": "single-audio", "trial_index": 122, "time_elapsed": 549497, "internal_node_id": "0.0-86.0"}}, {"uniqueid": "MTK0316:3COPXFW7XCJ9HBW0UCOCUG0MLPHKPD", "current_trial": 123, "dateTime": 1510703485881, "trialdata": {"rt": -1000, "stimulus": "/static/audio/wordpool/COUSIN.wav", "key_press": -1, "type": "PRES_AUD", "word": "cousin", "wordID": 391, "conditions": [24, 800, "a", 24000], "trial": 3, "serialpos": 6, "trial_type": "single-audio", "trial_index": 123, "time_elapsed": 551181, "internal_node_id": "0.0-87.0"}}, {"uniqueid": "MTK0316:3COPXFW7XCJ9HBW0UCOCUG0MLPHKPD", "current_trial": 124, "dateTime": 1510703487832, "trialdata": {"rt": -1000, "stimulus": "/static/audio/wordpool/MAILBOX.wav", "key_press": -1, "type": "PRES_AUD", "word": "mailbox", "wordID": 856, "conditions": [24, 800, "a", 24000], "trial": 3, "serialpos": 7, "trial_type": "single-audio", "trial_index": 124, "time_elapsed": 553131, "internal_node_id": "0.0-88.0"}}, {"uniqueid": "MTK0316:3COPXFW7XCJ9HBW0UCOCUG0MLPHKPD", "current_trial": 125, "dateTime": 1510703489703, "trialdata": {"rt": -1000, "stimulus": "/static/audio/wordpool/PATROL.wav", "key_press": -1, "type": "PRES_AUD", "word": "patrol", "wordID": 1026, "conditions": [24, 800, "a", 24000], "trial": 3, "serialpos": 8, "trial_type": "single-audio", "trial_index": 125, "time_elapsed": 555003, "internal_node_id": "0.0-89.0"}}, {"uniqueid": "MTK0316:3COPXFW7XCJ9HBW0UCOCUG0MLPHKPD", "current_trial": 126, "dateTime": 1510703491441, "trialdata": {"rt": -1000, "stimulus": "/static/audio/wordpool/PALACE.wav", "key_press": -1, "type": "PRES_AUD", "word": "palace", "wordID": 1005, "conditions": [24, 800, "a", 24000], "trial": 3, "serialpos": 9, "trial_type": "single-audio", "trial_index": 126, "time_elapsed": 556741, "internal_node_id": "0.0-90.0"}}, {"uniqueid": "MTK0316:3COPXFW7XCJ9HBW0UCOCUG0MLPHKPD", "current_trial": 127, "dateTime": 1510703493212, "trialdata": {"rt": -1000, "stimulus": "/static/audio/wordpool/LOFT.wav", "key_press": -1, "type": "PRES_AUD", "word": "loft", "wordID": 839, "conditions": [24, 800, "a", 24000], "trial": 3, "serialpos": 10, "trial_type": "single-audio", "trial_index": 127, "time_elapsed": 558512, "internal_node_id": "0.0-91.0"}}, {"uniqueid": "MTK0316:3COPXFW7XCJ9HBW0UCOCUG0MLPHKPD", "current_trial": 128, "dateTime": 1510703495010, "trialdata": {"rt": -1000, "stimulus": "/static/audio/wordpool/GRAVE.wav", "key_press": -1, "type": "PRES_AUD", "word": "grave", "wordID": 657, "conditions": [24, 800, "a", 24000], "trial": 3, "serialpos": 11, "trial_type": "single-audio", "trial_index": 128, "time_elapsed": 560310, "internal_node_id": "0.0-92.0"}}, {"uniqueid": "MTK0316:3COPXFW7XCJ9HBW0UCOCUG0MLPHKPD", "current_trial": 129, "dateTime": 1510703496724, "trialdata": {"rt": -1000, "stimulus": "/static/audio/wordpool/SKIRT.wav", "key_press": -1, "type": "PRES_AUD", "word": "skirt", "wordID": 1318, "conditions": [24, 800, "a", 24000], "trial": 3, "serialpos": 12, "trial_type": "single-audio", "trial_index": 129, "time_elapsed": 562024, "internal_node_id": "0.0-93.0"}}, {"uniqueid": "MTK0316:3COPXFW7XCJ9HBW0UCOCUG0MLPHKPD", "current_trial": 130, "dateTime": 1510703498718, "trialdata": {"rt": -1000, "stimulus": "/static/audio/wordpool/BLOUSE.wav", "key_press": -1, "type": "PRES_AUD", "word": "blouse", "wordID": 138, "conditions": [24, 800, "a", 24000], "trial": 3, "serialpos": 13, "trial_type": "single-audio", "trial_index": 130, "time_elapsed": 564018, "internal_node_id": "0.0-94.0"}}, {"uniqueid": "MTK0316:3COPXFW7XCJ9HBW0UCOCUG0MLPHKPD", "current_trial": 131, "dateTime": 1510703500595, "trialdata": {"rt": -1000, "stimulus": "/static/audio/wordpool/TAXI.wav", "key_press": -1, "type": "PRES_AUD", "word": "taxi", "wordID": 1437, "conditions": [24, 800, "a", 24000], "trial": 3, "serialpos": 14, "trial_type": "single-audio", "trial_index": 131, "time_elapsed": 565895, "internal_node_id": "0.0-95.0"}}, {"uniqueid": "MTK0316:3COPXFW7XCJ9HBW0UCOCUG0MLPHKPD", "current_trial": 132, "dateTime": 1510703502338, "trialdata": {"rt": -1000, "stimulus": "/static/audio/wordpool/FLEET.wav", "key_press": -1, "type": "PRES_AUD", "word": "fleet", "wordID": 577, "conditions": [24, 800, "a", 24000], "trial": 3, "serialpos": 15, "trial_type": "single-audio", "trial_index": 132, "time_elapsed": 567637, "internal_node_id": "0.0-96.0"}}, {"uniqueid": "MTK0316:3COPXFW7XCJ9HBW0UCOCUG0MLPHKPD", "current_trial": 133, "dateTime": 1510703504094, "trialdata": {"rt": -1000, "stimulus": "/static/audio/wordpool/CASHIER.wav", "key_press": -1, "type": "PRES_AUD", "word": "cashier", "wordID": 253, "conditions": [24, 800, "a", 24000], "trial": 3, "serialpos": 16, "trial_type": "single-audio", "trial_index": 133, "time_elapsed": 569393, "internal_node_id": "0.0-97.0"}}, {"uniqueid": "MTK0316:3COPXFW7XCJ9HBW0UCOCUG0MLPHKPD", "current_trial": 134, "dateTime": 1510703506002, "trialdata": {"rt": -1000, "stimulus": "/static/audio/wordpool/BRIEFCASE.wav", "key_press": -1, "type": "PRES_AUD", "word": "briefcase", "wordID": 174, "conditions": [24, 800, "a", 24000], "trial": 3, "serialpos": 17, "trial_type": "single-audio", "trial_index": 134, "time_elapsed": 571302, "internal_node_id": "0.0-98.0"}}, {"uniqueid": "MTK0316:3COPXFW7XCJ9HBW0UCOCUG0MLPHKPD", "current_trial": 135, "dateTime": 1510703507797, "trialdata": {"rt": -1000, "stimulus": "/static/audio/wordpool/OZONE.wav", "key_press": -1, "type": "PRES_AUD", "word": "ozone", "wordID": 995, "conditions": [24, 800, "a", 24000], "trial": 3, "serialpos": 18, "trial_type": "single-audio", "trial_index": 135, "time_elapsed": 573097, "internal_node_id": "0.0-99.0"}}, {"uniqueid": "MTK0316:3COPXFW7XCJ9HBW0UCOCUG0MLPHKPD", "current_trial": 136, "dateTime": 1510703509428, "trialdata": {"rt": -1000, "stimulus": "/static/audio/wordpool/ICING.wav", "key_press": -1, "type": "PRES_AUD", "word": "icing", "wordID": 731, "conditions": [24, 800, "a", 24000], "trial": 3, "serialpos": 19, "trial_type": "single-audio", "trial_index": 136, "time_elapsed": 574728, "internal_node_id": "0.0-100.0"}}, {"uniqueid": "MTK0316:3COPXFW7XCJ9HBW0UCOCUG0MLPHKPD", "current_trial": 137, "dateTime": 1510703511326, "trialdata": {"rt": -1000, "stimulus": "/static/audio/wordpool/NOMAD.wav", "key_press": -1, "type": "PRES_AUD", "word": "nomad", "wordID": 954, "conditions": [24, 800, "a", 24000], "trial": 3, "serialpos": 20, "trial_type": "single-audio", "trial_index": 137, "time_elapsed": 576626, "internal_node_id": "0.0-101.0"}}, {"uniqueid": "MTK0316:3COPXFW7XCJ9HBW0UCOCUG0MLPHKPD", "current_trial": 138, "dateTime": 1510703513179, "trialdata": {"rt": -1000, "stimulus": "/static/audio/wordpool/CLOCK.wav", "key_press": -1, "type": "PRES_AUD", "word": "clock", "wordID": 324, "conditions": [24, 800, "a", 24000], "trial": 3, "serialpos": 21, "trial_type": "single-audio", "trial_index": 138, "time_elapsed": 578478, "internal_node_id": "0.0-102.0"}}, {"uniqueid": "MTK0316:3COPXFW7XCJ9HBW0UCOCUG0MLPHKPD", "current_trial": 139, "dateTime": 1510703514800, "trialdata": {"rt": -1000, "stimulus": "/static/audio/wordpool/WAITRESS.wav", "key_press": -1, "type": "PRES_AUD", "word": "waitress", "wordID": 1580, "conditions": [24, 800, "a", 24000], "trial": 3, "serialpos": 22, "trial_type": "single-audio", "trial_index": 139, "time_elapsed": 580100, "internal_node_id": "0.0-103.0"}}, {"uniqueid": "MTK0316:3COPXFW7XCJ9HBW0UCOCUG0MLPHKPD", "current_trial": 140, "dateTime": 1510703516552, "trialdata": {"rt": -1000, "stimulus": "/static/audio/wordpool/MUSTARD.wav", "key_press": -1, "type": "PRES_AUD", "word": "mustard", "wordID": 934, "conditions": [24, 800, "a", 24000], "trial": 3, "serialpos": 23, "trial_type": "single-audio", "trial_index": 140, "time_elapsed": 581852, "internal_node_id": "0.0-104.0"}}, {"uniqueid": "MTK0316:3COPXFW7XCJ9HBW0UCOCUG0MLPHKPD", "current_trial": 141, "dateTime": 1510703517842, "trialdata": {"rt": -1, "stimulus": "", "key_press": -1, "type": "PRE_RECALL_DELAY", "trial_type": "single-stim", "trial_index": 141, "time_elapsed": 583142, "internal_node_id": "0.0-105.0-0.0"}}, {"uniqueid": "MTK0316:3COPXFW7XCJ9HBW0UCOCUG0MLPHKPD", "current_trial": 142, "dateTime": 1510703518343, "trialdata": {"rt": -1000, "stimulus": "/static/audio/400Hz.wav", "key_press": -1, "type": "PRE_RECALL_ALERT", "trial_type": "single-audio", "trial_index": 142, "time_elapsed": 583642, "internal_node_id": "0.0-106.0"}}, {"uniqueid": "MTK0316:3COPXFW7XCJ9HBW0UCOCUG0MLPHKPD", "current_trial": 143, "dateTime": 1510703578349, "trialdata": {"rt": [3385, 5120, 10026, 12284, 15305, 16567, 18186, 23805, 30190, 31947, 33215, 38366, 41266, 44278], "recwords": ["mustard", "waitress", "county", "shelter", "survey", "report", "mailman", "icing", "ozone", "blouse", "skirt", "fleet", "taxi", "cashier"], "type": "FREE_RECALL", "conditions": [24, 800, "a", 24000], "trial": 3, "trial_type": "free-recall", "trial_index": 143, "time_elapsed": 643646, "internal_node_id": "0.0-107.0-0.0"}}, {"uniqueid": "MTK0316:3COPXFW7XCJ9HBW0UCOCUG0MLPHKPD", "current_trial": 144, "dateTime": 1510703581526, "trialdata": {"rt": 1176, "key_press": 75, "type": "INSTRUCTIONS", "trial_type": "text", "trial_index": 144, "time_elapsed": 646826, "internal_node_id": "0.0-108.0"}}, {"uniqueid": "MTK0316:3COPXFW7XCJ9HBW0UCOCUG0MLPHKPD", "current_trial": 145, "dateTime": 1510703607529, "trialdata": {"rt": [3981, 5862, 10192, 12364, 14111, 16153, 17503, 21241], "responses": ["18", "10", "20", "8", "8", "13", "13", "12"], "num1": [6, 3, 8, 2, 5, 2, 5, 4, 8], "num2": [8, 3, 9, 3, 1, 8, 5, 3, 4], "num3": [4, 4, 8, 3, 2, 3, 3, 5, 1], "type": "DISTRACTOR", "conditions": [12, 800, "a", 24000], "trial": 4, "trial_type": "math-distractor", "trial_index": 145, "time_elapsed": 672828, "internal_node_id": "0.0-109.0"}}, {"uniqueid": "MTK0316:3COPXFW7XCJ9HBW0UCOCUG0MLPHKPD", "current_trial": 146, "dateTime": 1510703610529, "trialdata": {"rt": -1, "stimulus": "<p id=\"stim\">10</p>", "key_press": -1, "trial_type": "single-stim", "trial_index": 146, "time_elapsed": 675829, "internal_node_id": "0.0-110.0-0.0"}}, {"uniqueid": "MTK0316:3COPXFW7XCJ9HBW0UCOCUG0MLPHKPD", "current_trial": 147, "dateTime": 1510703611530, "trialdata": {"rt": -1, "stimulus": "<p id=\"stim\">9</p>", "key_press": -1, "trial_type": "single-stim", "trial_index": 147, "time_elapsed": 676830, "internal_node_id": "0.0-110.0-1.0"}}, {"uniqueid": "MTK0316:3COPXFW7XCJ9HBW0UCOCUG0MLPHKPD", "current_trial": 148, "dateTime": 1510703612532, "trialdata": {"rt": -1, "stimulus": "<p id=\"stim\">8</p>", "key_press": -1, "trial_type": "single-stim", "trial_index": 148, "time_elapsed": 677832, "internal_node_id": "0.0-110.0-2.0"}}, {"uniqueid": "MTK0316:3COPXFW7XCJ9HBW0UCOCUG0MLPHKPD", "current_trial": 149, "dateTime": 1510703613533, "trialdata": {"rt": -1, "stimulus": "<p id=\"stim\">7</p>", "key_press": -1, "trial_type": "single-stim", "trial_index": 149, "time_elapsed": 678833, "internal_node_id": "0.0-110.0-3.0"}}, {"uniqueid": "MTK0316:3COPXFW7XCJ9HBW0UCOCUG0MLPHKPD", "current_trial": 150, "dateTime": 1510703614534, "trialdata": {"rt": -1, "stimulus": "<p id=\"stim\">6</p>", "key_press": -1, "trial_type": "single-stim", "trial_index": 150, "time_elapsed": 679834, "internal_node_id": "0.0-110.0-4.0"}}, {"uniqueid": "MTK0316:3COPXFW7XCJ9HBW0UCOCUG0MLPHKPD", "current_trial": 151, "dateTime": 1510703615535, "trialdata": {"rt": -1, "stimulus": "<p id=\"stim\">5</p>", "key_press": -1, "trial_type": "single-stim", "trial_index": 151, "time_elapsed": 680835, "internal_node_id": "0.0-110.0-5.0"}}, {"uniqueid": "MTK0316:3COPXFW7XCJ9HBW0UCOCUG0MLPHKPD", "current_trial": 152, "dateTime": 1510703616536, "trialdata": {"rt": -1, "stimulus": "<p id=\"stim\">4</p>", "key_press": -1, "trial_type": "single-stim", "trial_index": 152, "time_elapsed": 681836, "internal_node_id": "0.0-110.0-6.0"}}, {"uniqueid": "MTK0316:3COPXFW7XCJ9HBW0UCOCUG0MLPHKPD", "current_trial": 153, "dateTime": 1510703617538, "trialdata": {"rt": -1, "stimulus": "<p id=\"stim\">3</p>", "key_press": -1, "trial_type": "single-stim", "trial_index": 153, "time_elapsed": 682838, "internal_node_id": "0.0-110.0-7.0"}}, {"uniqueid": "MTK0316:3COPXFW7XCJ9HBW0UCOCUG0MLPHKPD", "current_trial": 154, "dateTime": 1510703618540, "trialdata": {"rt": -1, "stimulus": "<p id=\"stim\">2</p>", "key_press": -1, "trial_type": "single-stim", "trial_index": 154, "time_elapsed": 683840, "internal_node_id": "0.0-110.0-8.0"}}, {"uniqueid": "MTK0316:3COPXFW7XCJ9HBW0UCOCUG0MLPHKPD", "current_trial": 155, "dateTime": 1510703619542, "trialdata": {"rt": -1, "stimulus": "<p id=\"stim\">1</p>", "key_press": -1, "trial_type": "single-stim", "trial_index": 155, "time_elapsed": 684842, "internal_node_id": "0.0-110.0-9.0"}}, {"uniqueid": "MTK0316:3COPXFW7XCJ9HBW0UCOCUG0MLPHKPD", "current_trial": 156, "dateTime": 1510703621043, "trialdata": {"rt": -1, "stimulus": "<p id=\"stim\">+</p>", "key_press": -1, "type": "FIXATION", "trial_type": "single-stim", "trial_index": 156, "time_elapsed": 686343, "internal_node_id": "0.0-111.0-0.0"}}, {"uniqueid": "MTK0316:3COPXFW7XCJ9HBW0UCOCUG0MLPHKPD", "current_trial": 157, "dateTime": 1510703622715, "trialdata": {"rt": -1000, "stimulus": "/static/audio/wordpool/PLASTER.wav", "key_press": -1, "type": "PRES_AUD", "word": "plaster", "wordID": 1084, "conditions": [12, 800, "a", 24000], "trial": 4, "serialpos": 0, "trial_type": "single-audio", "trial_index": 157, "time_elapsed": 688015, "internal_node_id": "0.0-112.0"}}, {"uniqueid": "MTK0316:3COPXFW7XCJ9HBW0UCOCUG0MLPHKPD", "current_trial": 158, "dateTime": 1510703624370, "trialdata": {"rt": -1000, "stimulus": "/static/audio/wordpool/FOX.wav", "key_press": -1, "type": "PRES_AUD", "word": "fox", "wordID": 597, "conditions": [12, 800, "a", 24000], "trial": 4, "serialpos": 1, "trial_type": "single-audio", "trial_index": 158, "time_elapsed": 689670, "internal_node_id": "0.0-113.0"}}, {"uniqueid": "MTK0316:3COPXFW7XCJ9HBW0UCOCUG0MLPHKPD", "current_trial": 159, "dateTime": 1510703625990, "trialdata": {"rt": -1000, "stimulus": "/static/audio/wordpool/POSSUM.wav", "key_press": -1, "type": "PRES_AUD", "word": "possum", "wordID": 1111, "conditions": [12, 800, "a", 24000], "trial": 4, "serialpos": 2, "trial_type": "single-audio", "trial_index": 159, "time_elapsed": 691290, "internal_node_id": "0.0-114.0"}}, {"uniqueid": "MTK0316:3COPXFW7XCJ9HBW0UCOCUG0MLPHKPD", "current_trial": 160, "dateTime": 1510703627966, "trialdata": {"rt": -1000, "stimulus": "/static/audio/wordpool/PARENT.wav", "key_press": -1, "type": "PRES_AUD", "word": "parent", "wordID": 1012, "conditions": [12, 800, "a", 24000], "trial": 4, "serialpos": 3, "trial_type": "single-audio", "trial_index": 160, "time_elapsed": 693266, "internal_node_id": "0.0-115.0"}}, {"uniqueid": "MTK0316:3COPXFW7XCJ9HBW0UCOCUG0MLPHKPD", "current_trial": 161, "dateTime": 1510703629753, "trialdata": {"rt": -1000, "stimulus": "/static/audio/wordpool/PICNIC.wav", "key_press": -1, "type": "PRES_AUD", "word": "picnic", "wordID": 1059, "conditions": [12, 800, "a", 24000], "trial": 4, "serialpos": 4, "trial_type": "single-audio", "trial_index": 161, "time_elapsed": 695053, "internal_node_id": "0.0-116.0"}}, {"uniqueid": "MTK0316:3COPXFW7XCJ9HBW0UCOCUG0MLPHKPD", "current_trial": 162, "dateTime": 1510703631696, "trialdata": {"rt": -1000, "stimulus": "/static/audio/wordpool/PISTOL.wav", "key_press": -1, "type": "PRES_AUD", "word": "pistol", "wordID": 1074, "conditions": [12, 800, "a", 24000], "trial": 4, "serialpos": 5, "trial_type": "single-audio", "trial_index": 162, "time_elapsed": 696996, "internal_node_id": "0.0-117.0"}}, {"uniqueid": "MTK0316:3COPXFW7XCJ9HBW0UCOCUG0MLPHKPD", "current_trial": 163, "dateTime": 1510703633407, "trialdata": {"rt": -1000, "stimulus": "/static/audio/wordpool/BLOCKADE.wav", "key_press": -1, "type": "PRES_AUD", "word": "blockade", "wordID": 136, "conditions": [12, 800, "a", 24000], "trial": 4, "serialpos": 6, "trial_type": "single-audio", "trial_index": 163, "time_elapsed": 698707, "internal_node_id": "0.0-118.0"}}, {"uniqueid": "MTK0316:3COPXFW7XCJ9HBW0UCOCUG0MLPHKPD", "current_trial": 164, "dateTime": 1510703635295, "trialdata": {"rt": -1000, "stimulus": "/static/audio/wordpool/SHORTCAKE.wav", "key_press": -1, "type": "PRES_AUD", "word": "shortcake", "wordID": 1291, "conditions": [12, 800, "a", 24000], "trial": 4, "serialpos": 7, "trial_type": "single-audio", "trial_index": 164, "time_elapsed": 700595, "internal_node_id": "0.0-119.0"}}, {"uniqueid": "MTK0316:3COPXFW7XCJ9HBW0UCOCUG0MLPHKPD", "current_trial": 165, "dateTime": 1510703637202, "trialdata": {"rt": -1000, "stimulus": "/static/audio/wordpool/NECKLACE.wav", "key_press": -1, "type": "PRES_AUD", "word": "necklace", "wordID": 939, "conditions": [12, 800, "a", 24000], "trial": 4, "serialpos": 8, "trial_type": "single-audio", "trial_index": 165, "time_elapsed": 702500, "internal_node_id": "0.0-120.0"}}, {"uniqueid": "MTK0316:3COPXFW7XCJ9HBW0UCOCUG0MLPHKPD", "current_trial": 166, "dateTime": 1510703638985, "trialdata": {"rt": -1000, "stimulus": "/static/audio/wordpool/TRIBE.wav", "key_press": -1, "type": "PRES_AUD", "word": "tribe", "wordID": 1504, "conditions": [12, 800, "a", 24000], "trial": 4, "serialpos": 9, "trial_type": "single-audio", "trial_index": 166, "time_elapsed": 704285, "internal_node_id": "0.0-121.0"}}, {"uniqueid": "MTK0316:3COPXFW7XCJ9HBW0UCOCUG0MLPHKPD", "current_trial": 167, "dateTime": 1510703640723, "trialdata": {"rt": -1000, "stimulus": "/static/audio/wordpool/DRINK.wav", "key_press": -1, "type": "PRES_AUD", "word": "drink", "wordID": 497, "conditions": [12, 800, "a", 24000], "trial": 4, "serialpos": 10, "trial_type": "single-audio", "trial_index": 167, "time_elapsed": 706023, "internal_node_id": "0.0-122.0"}}, {"uniqueid": "MTK0316:3COPXFW7XCJ9HBW0UCOCUG0MLPHKPD", "current_trial": 168, "dateTime": 1510703642653, "trialdata": {"rt": -1000, "stimulus": "/static/audio/wordpool/PASTA.wav", "key_press": -1, "type": "PRES_AUD", "word": "pasta", "wordID": 1020, "conditions": [12, 800, "a", 24000], "trial": 4, "serialpos": 11, "trial_type": "single-audio", "trial_index": 168, "time_elapsed": 707953, "internal_node_id": "0.0-123.0"}}, {"uniqueid": "MTK0316:3COPXFW7XCJ9HBW0UCOCUG0MLPHKPD", "current_trial": 169, "dateTime": 1510703643983, "trialdata": {"rt": -1, "stimulus": "", "key_press": -1, "type": "PRE_RECALL_DELAY", "trial_type": "single-stim", "trial_index": 169, "time_elapsed": 709283, "internal_node_id": "0.0-124.0-0.0"}}, {"uniqueid": "MTK0316:3COPXFW7XCJ9HBW0UCOCUG0MLPHKPD", "current_trial": 170, "dateTime": 1510703644483, "trialdata": {"rt": -1000, "stimulus": "/static/audio/400Hz.wav", "key_press": -1, "type": "PRE_RECALL_ALERT", "trial_type": "single-audio", "trial_index": 170, "time_elapsed": 709783, "internal_node_id": "0.0-125.0"}}, {"uniqueid": "MTK0316:3COPXFW7XCJ9HBW0UCOCUG0MLPHKPD", "current_trial": 171, "dateTime": 1510703704487, "trialdata": {"rt": [2570, 3888, 8408, 9632, 12324, 13692, 16064, 19164, 28021], "recwords": ["pasta", "drink", "shortcake", "fox", "pistol", "parent", "necklace", "plaster", "fox"], "type": "FREE_RECALL", "conditions": [12, 800, "a", 24000], "trial": 4, "trial_type": "free-recall", "trial_index": 171, "time_elapsed": 769785, "internal_node_id": "0.0-126.0-0.0"}}, {"uniqueid": "MTK0316:3COPXFW7XCJ9HBW0UCOCUG0MLPHKPD", "current_trial": 172, "dateTime": 1510703709295, "trialdata": {"rt": 2807, "key_press": 70, "type": "INSTRUCTIONS", "trial_type": "text", "trial_index": 172, "time_elapsed": 774595, "internal_node_id": "0.0-127.0"}}, {"uniqueid": "MTK0316:3COPXFW7XCJ9HBW0UCOCUG0MLPHKPD", "current_trial": 173, "dateTime": 1510703735298, "trialdata": {"rt": [2912, 5967, 14187, 15774, 17909, 23403], "responses": ["20", "12", "24", "14", "8", "13"], "num1": [9, 1, 9, 7, 3, 1, 8], "num2": [8, 3, 8, 3, 1, 4, 5], "num3": [8, 8, 7, 4, 4, 8, 6], "type": "DISTRACTOR", "conditions": [12, 1600, "v", 24000], "trial": 5, "trial_type": "math-distractor", "trial_index": 173, "time_elapsed": 800598, "internal_node_id": "0.0-128.0"}}, {"uniqueid": "MTK0316:3COPXFW7XCJ9HBW0UCOCUG0MLPHKPD", "current_trial": 174, "dateTime": 1510703738299, "trialdata": {"rt": -1, "stimulus": "<p id=\"stim\">10</p>", "key_press": -1, "trial_type": "single-stim", "trial_index": 174, "time_elapsed": 803599, "internal_node_id": "0.0-129.0-0.0"}}, {"uniqueid": "MTK0316:3COPXFW7XCJ9HBW0UCOCUG0MLPHKPD", "current_trial": 175, "dateTime": 1510703739300, "trialdata": {"rt": -1, "stimulus": "<p id=\"stim\">9</p>", "key_press": -1, "trial_type": "single-stim", "trial_index": 175, "time_elapsed": 804600, "internal_node_id": "0.0-129.0-1.0"}}, {"uniqueid": "MTK0316:3COPXFW7XCJ9HBW0UCOCUG0MLPHKPD", "current_trial": 176, "dateTime": 1510703740300, "trialdata": {"rt": -1, "stimulus": "<p id=\"stim\">8</p>", "key_press": -1, "trial_type": "single-stim", "trial_index": 176, "time_elapsed": 805600, "internal_node_id": "0.0-129.0-2.0"}}, {"uniqueid": "MTK0316:3COPXFW7XCJ9HBW0UCOCUG0MLPHKPD", "current_trial": 177, "dateTime": 1510703741302, "trialdata": {"rt": -1, "stimulus": "<p id=\"stim\">7</p>", "key_press": -1, "trial_type": "single-stim", "trial_index": 177, "time_elapsed": 806602, "internal_node_id": "0.0-129.0-3.0"}}, {"uniqueid": "MTK0316:3COPXFW7XCJ9HBW0UCOCUG0MLPHKPD", "current_trial": 178, "dateTime": 1510703742303, "trialdata": {"rt": -1, "stimulus": "<p id=\"stim\">6</p>", "key_press": -1, "trial_type": "single-stim", "trial_index": 178, "time_elapsed": 807603, "internal_node_id": "0.0-129.0-4.0"}}, {"uniqueid": "MTK0316:3COPXFW7XCJ9HBW0UCOCUG0MLPHKPD", "current_trial": 179, "dateTime": 1510703743304, "trialdata": {"rt": -1, "stimulus": "<p id=\"stim\">5</p>", "key_press": -1, "trial_type": "single-stim", "trial_index": 179, "time_elapsed": 808604, "internal_node_id": "0.0-129.0-5.0"}}, {"uniqueid": "MTK0316:3COPXFW7XCJ9HBW0UCOCUG0MLPHKPD", "current_trial": 180, "dateTime": 1510703744305, "trialdata": {"rt": -1, "stimulus": "<p id=\"stim\">4</p>", "key_press": -1, "trial_type": "single-stim", "trial_index": 180, "time_elapsed": 809605, "internal_node_id": "0.0-129.0-6.0"}}, {"uniqueid": "MTK0316:3COPXFW7XCJ9HBW0UCOCUG0MLPHKPD", "current_trial": 181, "dateTime": 1510703745305, "trialdata": {"rt": -1, "stimulus": "<p id=\"stim\">3</p>", "key_press": -1, "trial_type": "single-stim", "trial_index": 181, "time_elapsed": 810605, "internal_node_id": "0.0-129.0-7.0"}}, {"uniqueid": "MTK0316:3COPXFW7XCJ9HBW0UCOCUG0MLPHKPD", "current_trial": 182, "dateTime": 1510703746305, "trialdata": {"rt": -1, "stimulus": "<p id=\"stim\">2</p>", "key_press": -1, "trial_type": "single-stim", "trial_index": 182, "time_elapsed": 811605, "internal_node_id": "0.0-129.0-8.0"}}, {"uniqueid": "MTK0316:3COPXFW7XCJ9HBW0UCOCUG0MLPHKPD", "current_trial": 183, "dateTime": 1510703747306, "trialdata": {"rt": -1, "stimulus": "<p id=\"stim\">1</p>", "key_press": -1, "trial_type": "single-stim", "trial_index": 183, "time_elapsed": 812606, "internal_node_id": "0.0-129.0-9.0"}}, {"uniqueid": "MTK0316:3COPXFW7XCJ9HBW0UCOCUG0MLPHKPD", "current_trial": 184, "dateTime": 1510703748808, "trialdata": {"rt": -1, "stimulus": "<p id=\"stim\">+</p>", "key_press": -1, "type": "FIXATION", "trial_type": "single-stim", "trial_index": 184, "time_elapsed": 814108, "internal_node_id": "0.0-130.0-0.0"}}, {"uniqueid": "MTK0316:3COPXFW7XCJ9HBW0UCOCUG0MLPHKPD", "current_trial": 185, "dateTime": 1510703750410, "trialdata": {"rt": -1, "stimulus": "<p id=\"stim\">FRECKLE</p>", "key_press": -1, "type": "PRES_VIS", "word": "freckle", "wordID": 601, "conditions": [12, 1600, "v", 24000], "trial": 5, "serialpos": 0, "trial_type": "single-stim", "trial_index": 185, "time_elapsed": 815710, "internal_node_id": "0.0-131.0"}}, {"uniqueid": "MTK0316:3COPXFW7XCJ9HBW0UCOCUG0MLPHKPD", "current_trial": 186, "dateTime": 1510703753043, "trialdata": {"rt": -1, "stimulus": "<p id=\"stim\">WORLD</p>", "key_press": -1, "type": "PRES_VIS", "word": "world", "wordID": 1621, "conditions": [12, 1600, "v", 24000], "trial": 5, "serialpos": 1, "trial_type": "single-stim", "trial_index": 186, "time_elapsed": 818341, "internal_node_id": "0.0-132.0"}}, {"uniqueid": "MTK0316:3COPXFW7XCJ9HBW0UCOCUG0MLPHKPD", "current_trial": 187, "dateTime": 1510703755659, "trialdata": {"rt": -1, "stimulus": "<p id=\"stim\">PENGUIN</p>", "key_press": -1, "type": "PRES_VIS", "word": "penguin", "wordID": 1043, "conditions": [12, 1600, "v", 24000], "trial": 5, "serialpos": 2, "trial_type": "single-stim", "trial_index": 187, "time_elapsed": 820959, "internal_node_id": "0.0-133.0"}}, {"uniqueid": "MTK0316:3COPXFW7XCJ9HBW0UCOCUG0MLPHKPD", "current_trial": 188, "dateTime": 1510703758160, "trialdata": {"rt": -1, "stimulus": "<p id=\"stim\">SHARK</p>", "key_press": -1, "type": "PRES_VIS", "word": "shark", "wordID": 1274, "conditions": [12, 1600, "v", 24000], "trial": 5, "serialpos": 3, "trial_type": "single-stim", "trial_index": 188, "time_elapsed": 823460, "internal_node_id": "0.0-134.0"}}, {"uniqueid": "MTK0316:3COPXFW7XCJ9HBW0UCOCUG0MLPHKPD", "current_trial": 189, "dateTime": 1510703760745, "trialdata": {"rt": -1, "stimulus": "<p id=\"stim\">GLOBE</p>", "key_press": -1, "type": "PRES_VIS", "word": "globe", "wordID": 640, "conditions": [12, 1600, "v", 24000], "trial": 5, "serialpos": 4, "trial_type": "single-stim", "trial_index": 189, "time_elapsed": 826045, "internal_node_id": "0.0-135.0"}}, {"uniqueid": "MTK0316:3COPXFW7XCJ9HBW0UCOCUG0MLPHKPD", "current_trial": 190, "dateTime": 1510703763366, "trialdata": {"rt": -1, "stimulus": "<p id=\"stim\">PORK</p>", "key_press": -1, "type": "PRES_VIS", "word": "pork", "wordID": 1107, "conditions": [12, 1600, "v", 24000], "trial": 5, "serialpos": 5, "trial_type": "single-stim", "trial_index": 190, "time_elapsed": 828666, "internal_node_id": "0.0-136.0"}}, {"uniqueid": "MTK0316:3COPXFW7XCJ9HBW0UCOCUG0MLPHKPD", "current_trial": 191, "dateTime": 1510703765777, "trialdata": {"rt": -1, "stimulus": "<p id=\"stim\">VIRUS</p>", "key_press": -1, "type": "PRES_VIS", "word": "virus", "wordID": 1571, "conditions": [12, 1600, "v", 24000], "trial": 5, "serialpos": 6, "trial_type": "single-stim", "trial_index": 191, "time_elapsed": 831077, "internal_node_id": "0.0-137.0"}}, {"uniqueid": "MTK0316:3COPXFW7XCJ9HBW0UCOCUG0MLPHKPD", "current_trial": 192, "dateTime": 1510703768536, "trialdata": {"rt": -1, "stimulus": "<p id=\"stim\">JUDGE</p>", "key_press": -1, "type": "PRES_VIS", "word": "judge", "wordID": 760, "conditions": [12, 1600, "v", 24000], "trial": 5, "serialpos": 7, "trial_type": "single-stim", "trial_index": 192, "time_elapsed": 833836, "internal_node_id": "0.0-138.0"}}, {"uniqueid": "MTK0316:3COPXFW7XCJ9HBW0UCOCUG0MLPHKPD", "current_trial": 193, "dateTime": 1510703771188, "trialdata": {"rt": -1, "stimulus": "<p id=\"stim\">LION</p>", "key_press": -1, "type": "PRES_VIS", "word": "lion", "wordID": 826, "conditions": [12, 1600, "v", 24000], "trial": 5, "serialpos": 8, "trial_type": "single-stim", "trial_index": 193, "time_elapsed": 836488, "internal_node_id": "0.0-139.0"}}, {"uniqueid": "MTK0316:3COPXFW7XCJ9HBW0UCOCUG0MLPHKPD", "current_trial": 194, "dateTime": 1510703773688, "trialdata": {"rt": -1, "stimulus": "<p id=\"stim\">MILDEW</p>", "key_press": -1, "type": "PRES_VIS", "word": "mildew", "wordID": 892, "conditions": [12, 1600, "v", 24000], "trial": 5, "serialpos": 9, "trial_type": "single-stim", "trial_index": 194, "time_elapsed": 838988, "internal_node_id": "0.0-140.0"}}, {"uniqueid": "MTK0316:3COPXFW7XCJ9HBW0UCOCUG0MLPHKPD", "current_trial": 195, "dateTime": 1510703776203, "trialdata": {"rt": -1, "stimulus": "<p id=\"stim\">SALAD</p>", "key_press": -1, "type": "PRES_VIS", "word": "salad", "wordID": 1223, "conditions": [12, 1600, "v", 24000], "trial": 5, "serialpos": 10, "trial_type": "single-stim", "trial_index": 195, "time_elapsed": 841503, "internal_node_id": "0.0-141.0"}}, {"uniqueid": "MTK0316:3COPXFW7XCJ9HBW0UCOCUG0MLPHKPD", "current_trial": 196, "dateTime": 1510703778994, "trialdata": {"rt": -1, "stimulus": "<p id=\"stim\">GARLIC</p>", "key_press": -1, "type": "PRES_VIS", "word": "garlic", "wordID": 623, "conditions": [12, 1600, "v", 24000], "trial": 5, "serialpos": 11, "trial_type": "single-stim", "trial_index": 196, "time_elapsed": 844294, "internal_node_id": "0.0-142.0"}}, {"uniqueid": "MTK0316:3COPXFW7XCJ9HBW0UCOCUG0MLPHKPD", "current_trial": 197, "dateTime": 1510703781308, "trialdata": {"rt": -1, "stimulus": "", "key_press": -1, "type": "PRE_RECALL_DELAY", "trial_type": "single-stim", "trial_index": 197, "time_elapsed": 846608, "internal_node_id": "0.0-143.0-0.0"}}, {"uniqueid": "MTK0316:3COPXFW7XCJ9HBW0UCOCUG0MLPHKPD", "current_trial": 198, "dateTime": 1510703781816, "trialdata": {"rt": -1000, "stimulus": "/static/audio/400Hz.wav", "key_press": -1, "type": "PRE_RECALL_ALERT", "trial_type": "single-audio", "trial_index": 198, "time_elapsed": 847116, "internal_node_id": "0.0-144.0"}}, {"uniqueid": "MTK0316:3COPXFW7XCJ9HBW0UCOCUG0MLPHKPD", "current_trial": 199, "dateTime": 1510703841821, "trialdata": {"rt": [3233, 5013, 6658, 8067, 9779, 12485, 14033, 16304, 19794, 25311], "recwords": ["garlic", "lion", "shark", "pork", "virus", "world", "globe", "salad", "judge", "virus"], "type": "FREE_RECALL", "conditions": [12, 1600, "v", 24000], "trial": 5, "trial_type": "free-recall", "trial_index": 199, "time_elapsed": 907119, "internal_node_id": "0.0-145.0-0.0"}}, {"uniqueid": "MTK0316:3COPXFW7XCJ9HBW0UCOCUG0MLPHKPD", "current_trial": 200, "dateTime": 1510703846186, "trialdata": {"rt": 2363, "key_press": 75, "type": "INSTRUCTIONS", "trial_type": "text", "trial_index": 200, "time_elapsed": 911486, "internal_node_id": "0.0-146.0"}}, {"uniqueid": "MTK0316:3COPXFW7XCJ9HBW0UCOCUG0MLPHKPD", "current_trial": 201, "dateTime": 1510703860188, "trialdata": {"rt": [3729, 5093, 10649], "responses": ["9", "11", "17"], "num1": [3, 6, 2, 4], "num2": [2, 4, 6, 8], "num3": [4, 1, 9, 5], "type": "DISTRACTOR", "conditions": [12, 1600, "a", 12000], "trial": 6, "trial_type": "math-distractor", "trial_index": 201, "time_elapsed": 925487, "internal_node_id": "0.0-147.0"}}, {"uniqueid": "MTK0316:3COPXFW7XCJ9HBW0UCOCUG0MLPHKPD", "current_trial": 202, "dateTime": 1510703863190, "trialdata": {"rt": -1, "stimulus": "<p id=\"stim\">10</p>", "key_press": -1, "trial_type": "single-stim", "trial_index": 202, "time_elapsed": 928489, "internal_node_id": "0.0-148.0-0.0"}}, {"uniqueid": "MTK0316:3COPXFW7XCJ9HBW0UCOCUG0MLPHKPD", "current_trial": 203, "dateTime": 1510703864190, "trialdata": {"rt": -1, "stimulus": "<p id=\"stim\">9</p>", "key_press": -1, "trial_type": "single-stim", "trial_index": 203, "time_elapsed": 929490, "internal_node_id": "0.0-148.0-1.0"}}, {"uniqueid": "MTK0316:3COPXFW7XCJ9HBW0UCOCUG0MLPHKPD", "current_trial": 204, "dateTime": 1510703865191, "trialdata": {"rt": -1, "stimulus": "<p id=\"stim\">8</p>", "key_press": -1, "trial_type": "single-stim", "trial_index": 204, "time_elapsed": 930491, "internal_node_id": "0.0-148.0-2.0"}}, {"uniqueid": "MTK0316:3COPXFW7XCJ9HBW0UCOCUG0MLPHKPD", "current_trial": 205, "dateTime": 1510703866191, "trialdata": {"rt": -1, "stimulus": "<p id=\"stim\">7</p>", "key_press": -1, "trial_type": "single-stim", "trial_index": 205, "time_elapsed": 931491, "internal_node_id": "0.0-148.0-3.0"}}, {"uniqueid": "MTK0316:3COPXFW7XCJ9HBW0UCOCUG0MLPHKPD", "current_trial": 206, "dateTime": 1510703867193, "trialdata": {"rt": -1, "stimulus": "<p id=\"stim\">6</p>", "key_press": -1, "trial_type": "single-stim", "trial_index": 206, "time_elapsed": 932492, "internal_node_id": "0.0-148.0-4.0"}}, {"uniqueid": "MTK0316:3COPXFW7XCJ9HBW0UCOCUG0MLPHKPD", "current_trial": 207, "dateTime": 1510703868194, "trialdata": {"rt": -1, "stimulus": "<p id=\"stim\">5</p>", "key_press": -1, "trial_type": "single-stim", "trial_index": 207, "time_elapsed": 933494, "internal_node_id": "0.0-148.0-5.0"}}, {"uniqueid": "MTK0316:3COPXFW7XCJ9HBW0UCOCUG0MLPHKPD", "current_trial": 208, "dateTime": 1510703869196, "trialdata": {"rt": -1, "stimulus": "<p id=\"stim\">4</p>", "key_press": -1, "trial_type": "single-stim", "trial_index": 208, "time_elapsed": 934496, "internal_node_id": "0.0-148.0-6.0"}}, {"uniqueid": "MTK0316:3COPXFW7XCJ9HBW0UCOCUG0MLPHKPD", "current_trial": 209, "dateTime": 1510703870197, "trialdata": {"rt": -1, "stimulus": "<p id=\"stim\">3</p>", "key_press": -1, "trial_type": "single-stim", "trial_index": 209, "time_elapsed": 935497, "internal_node_id": "0.0-148.0-7.0"}}, {"uniqueid": "MTK0316:3COPXFW7XCJ9HBW0UCOCUG0MLPHKPD", "current_trial": 210, "dateTime": 1510703871197, "trialdata": {"rt": -1, "stimulus": "<p id=\"stim\">2</p>", "key_press": -1, "trial_type": "single-stim", "trial_index": 210, "time_elapsed": 936497, "internal_node_id": "0.0-148.0-8.0"}}, {"uniqueid": "MTK0316:3COPXFW7XCJ9HBW0UCOCUG0MLPHKPD", "current_trial": 211, "dateTime": 1510703872200, "trialdata": {"rt": -1, "stimulus": "<p id=\"stim\">1</p>", "key_press": -1, "trial_type": "single-stim", "trial_index": 211, "time_elapsed": 937499, "internal_node_id": "0.0-148.0-9.0"}}, {"uniqueid": "MTK0316:3COPXFW7XCJ9HBW0UCOCUG0MLPHKPD", "current_trial": 212, "dateTime": 1510703873701, "trialdata": {"rt": -1, "stimulus": "<p id=\"stim\">+</p>", "key_press": -1, "type": "FIXATION", "trial_type": "single-stim", "trial_index": 212, "time_elapsed": 939001, "internal_node_id": "0.0-149.0-0.0"}}, {"uniqueid": "MTK0316:3COPXFW7XCJ9HBW0UCOCUG0MLPHKPD", "current_trial": 213, "dateTime": 1510703876196, "trialdata": {"rt": -1000, "stimulus": "/static/audio/wordpool/CHEMIST.wav", "key_press": -1, "type": "PRES_AUD", "word": "chemist", "wordID": 291, "conditions": [12, 1600, "a", 12000], "trial": 6, "serialpos": 0, "trial_type": "single-audio", "trial_index": 213, "time_elapsed": 941496, "internal_node_id": "0.0-150.0"}}, {"uniqueid": "MTK0316:3COPXFW7XCJ9HBW0UCOCUG0MLPHKPD", "current_trial": 214, "dateTime": 1510703878731, "trialdata": {"rt": -1000, "stimulus": "/static/audio/wordpool/COSTUME.wav", "key_press": -1, "type": "PRES_AUD", "word": "costume", "wordID": 382, "conditions": [12, 1600, "a", 12000], "trial": 6, "serialpos": 1, "trial_type": "single-audio", "trial_index": 214, "time_elapsed": 944030, "internal_node_id": "0.0-151.0"}}, {"uniqueid": "MTK0316:3COPXFW7XCJ9HBW0UCOCUG0MLPHKPD", "current_trial": 215, "dateTime": 1510703881135, "trialdata": {"rt": -1000, "stimulus": "/static/audio/wordpool/LAMP.wav", "key_press": -1, "type": "PRES_AUD", "word": "lamp", "wordID": 797, "conditions": [12, 1600, "a", 12000], "trial": 6, "serialpos": 2, "trial_type": "single-audio", "trial_index": 215, "time_elapsed": 946434, "internal_node_id": "0.0-152.0"}}, {"uniqueid": "MTK0316:3COPXFW7XCJ9HBW0UCOCUG0MLPHKPD", "current_trial": 216, "dateTime": 1510703883861, "trialdata": {"rt": -1000, "stimulus": "/static/audio/wordpool/MOP.wav", "key_press": -1, "type": "PRES_AUD", "word": "mop", "wordID": 915, "conditions": [12, 1600, "a", 12000], "trial": 6, "serialpos": 3, "trial_type": "single-audio", "trial_index": 216, "time_elapsed": 949160, "internal_node_id": "0.0-153.0"}}, {"uniqueid": "MTK0316:3COPXFW7XCJ9HBW0UCOCUG0MLPHKPD", "current_trial": 217, "dateTime": 1510703886346, "trialdata": {"rt": -1000, "stimulus": "/static/audio/wordpool/JAPAN.wav", "key_press": -1, "type": "PRES_AUD", "word": "japan", "wordID": 748, "conditions": [12, 1600, "a", 12000], "trial": 6, "serialpos": 4, "trial_type": "single-audio", "trial_index": 217, "time_elapsed": 951646, "internal_node_id": "0.0-154.0"}}, {"uniqueid": "MTK0316:3COPXFW7XCJ9HBW0UCOCUG0MLPHKPD", "current_trial": 218, "dateTime": 1510703889112, "trialdata": {"rt": -1000, "stimulus": "/static/audio/wordpool/WARDROBE.wav", "key_press": -1, "type": "PRES_AUD", "word": "wardrobe", "wordID": 1586, "conditions": [12, 1600, "a", 12000], "trial": 6, "serialpos": 5, "trial_type": "single-audio", "trial_index": 218, "time_elapsed": 954412, "internal_node_id": "0.0-155.0"}}, {"uniqueid": "MTK0316:3COPXFW7XCJ9HBW0UCOCUG0MLPHKPD", "current_trial": 219, "dateTime": 1510703891613, "trialdata": {"rt": -1000, "stimulus": "/static/audio/wordpool/BARLEY.wav", "key_press": -1, "type": "PRES_AUD", "word": "barley", "wordID": 87, "conditions": [12, 1600, "a", 12000], "trial": 6, "serialpos": 6, "trial_type": "single-audio", "trial_index": 219, "time_elapsed": 956913, "internal_node_id": "0.0-156.0"}}, {"uniqueid": "MTK0316:3COPXFW7XCJ9HBW0UCOCUG0MLPHKPD", "current_trial": 220, "dateTime": 1510703894289, "trialdata": {"rt": -1000, "stimulus": "/static/audio/wordpool/HEDGE.wav", "key_press": -1, "type": "PRES_AUD", "word": "hedge", "wordID": 698, "conditions": [12, 1600, "a", 12000], "trial": 6, "serialpos": 7, "trial_type": "single-audio", "trial_index": 220, "time_elapsed": 959589, "internal_node_id": "0.0-157.0"}}, {"uniqueid": "MTK0316:3COPXFW7XCJ9HBW0UCOCUG0MLPHKPD", "current_trial": 221, "dateTime": 1510703897062, "trialdata": {"rt": -1000, "stimulus": "/static/audio/wordpool/SILK.wav", "key_press": -1, "type": "PRES_AUD", "word": "silk", "wordID": 1306, "conditions": [12, 1600, "a", 12000], "trial": 6, "serialpos": 8, "trial_type": "single-audio", "trial_index": 221, "time_elapsed": 962362, "internal_node_id": "0.0-158.0"}}, {"uniqueid": "MTK0316:3COPXFW7XCJ9HBW0UCOCUG0MLPHKPD", "current_trial": 222, "dateTime": 1510703899698, "trialdata": {"rt": -1000, "stimulus": "/static/audio/wordpool/QUEEN.wav", "key_press": -1, "type": "PRES_AUD", "word": "queen", "wordID": 1148, "conditions": [12, 1600, "a", 12000], "trial": 6, "serialpos": 9, "trial_type": "single-audio", "trial_index": 222, "time_elapsed": 964998, "internal_node_id": "0.0-159.0"}}, {"uniqueid": "MTK0316:3COPXFW7XCJ9HBW0UCOCUG0MLPHKPD", "current_trial": 223, "dateTime": 1510703902371, "trialdata": {"rt": -1000, "stimulus": "/static/audio/wordpool/PRINCESS.wav", "key_press": -1, "type": "PRES_AUD", "word": "princess", "wordID": 1124, "conditions": [12, 1600, "a", 12000], "trial": 6, "serialpos": 10, "trial_type": "single-audio", "trial_index": 223, "time_elapsed": 967671, "internal_node_id": "0.0-160.0"}}, {"uniqueid": "MTK0316:3COPXFW7XCJ9HBW0UCOCUG0MLPHKPD", "current_trial": 224, "dateTime": 1510703904776, "trialdata": {"rt": -1000, "stimulus": "/static/audio/wordpool/COUNTRY.wav", "key_press": -1, "type": "PRES_AUD", "word": "country", "wordID": 387, "conditions": [12, 1600, "a", 12000], "trial": 6, "serialpos": 11, "trial_type": "single-audio", "trial_index": 224, "time_elapsed": 970076, "internal_node_id": "0.0-161.0"}}, {"uniqueid": "MTK0316:3COPXFW7XCJ9HBW0UCOCUG0MLPHKPD", "current_trial": 225, "dateTime": 1510703906129, "trialdata": {"rt": -1, "stimulus": "", "key_press": -1, "type": "PRE_RECALL_DELAY", "trial_type": "single-stim", "trial_index": 225, "time_elapsed": 971429, "internal_node_id": "0.0-162.0-0.0"}}, {"uniqueid": "MTK0316:3COPXFW7XCJ9HBW0UCOCUG0MLPHKPD", "current_trial": 226, "dateTime": 1510703906636, "trialdata": {"rt": -1000, "stimulus": "/static/audio/400Hz.wav", "key_press": -1, "type": "PRE_RECALL_ALERT", "trial_type": "single-audio", "trial_index": 226, "time_elapsed": 971936, "internal_node_id": "0.0-163.0"}}, {"uniqueid": "MTK0316:3COPXFW7XCJ9HBW0UCOCUG0MLPHKPD", "current_trial": 227, "dateTime": 1510703966641, "trialdata": {"rt": [2906, 4962, 5900, 12898, 14580, 18512, 24385, 30980], "recwords": ["country", "japan", "clean", "silk", "mop", "lamp", "costume", "chemist"], "type": "FREE_RECALL", "conditions": [12, 1600, "a", 12000], "trial": 6, "trial_type": "free-recall", "trial_index": 227, "time_elapsed": 1031938, "internal_node_id": "0.0-164.0-0.0"}}, {"uniqueid": "MTK0316:3COPXFW7XCJ9HBW0UCOCUG0MLPHKPD", "current_trial": 228, "dateTime": 1510703971008, "trialdata": {"rt": 2366, "key_press": 70, "type": "INSTRUCTIONS", "trial_type": "text", "trial_index": 228, "time_elapsed": 1036307, "internal_node_id": "0.0-165.0"}}, {"uniqueid": "MTK0316:3COPXFW7XCJ9HBW0UCOCUG0MLPHKPD", "current_trial": 229, "dateTime": 1510703985010, "trialdata": {"rt": [3481, 5314, 7630, 9767], "responses": ["11", "12", "11", "11"], "num1": [4, 2, 8, 1, 5], "num2": [3, 8, 1, 6, 2], "num3": [4, 2, 2, 4, 7], "type": "DISTRACTOR", "conditions": [12, 800, "a", 12000], "trial": 7, "trial_type": "math-distractor", "trial_index": 229, "time_elapsed": 1050309, "internal_node_id": "0.0-166.0"}}, {"uniqueid": "MTK0316:3COPXFW7XCJ9HBW0UCOCUG0MLPHKPD", "current_trial": 230, "dateTime": 1510703988011, "trialdata": {"rt": -1, "stimulus": "<p id=\"stim\">10</p>", "key_press": -1, "trial_type": "single-stim", "trial_index": 230, "time_elapsed": 1053311, "internal_node_id": "0.0-167.0-0.0"}}, {"uniqueid": "MTK0316:3COPXFW7XCJ9HBW0UCOCUG0MLPHKPD", "current_trial": 231, "dateTime": 1510703989011, "trialdata": {"rt": -1, "stimulus": "<p id=\"stim\">9</p>", "key_press": -1, "trial_type": "single-stim", "trial_index": 231, "time_elapsed": 1054311, "internal_node_id": "0.0-167.0-1.0"}}, {"uniqueid": "MTK0316:3COPXFW7XCJ9HBW0UCOCUG0MLPHKPD", "current_trial": 232, "dateTime": 1510703990012, "trialdata": {"rt": -1, "stimulus": "<p id=\"stim\">8</p>", "key_press": -1, "trial_type": "single-stim", "trial_index": 232, "time_elapsed": 1055312, "internal_node_id": "0.0-167.0-2.0"}}, {"uniqueid": "MTK0316:3COPXFW7XCJ9HBW0UCOCUG0MLPHKPD", "current_trial": 233, "dateTime": 1510703991012, "trialdata": {"rt": -1, "stimulus": "<p id=\"stim\">7</p>", "key_press": -1, "trial_type": "single-stim", "trial_index": 233, "time_elapsed": 1056312, "internal_node_id": "0.0-167.0-3.0"}}, {"uniqueid": "MTK0316:3COPXFW7XCJ9HBW0UCOCUG0MLPHKPD", "current_trial": 234, "dateTime": 1510703992014, "trialdata": {"rt": -1, "stimulus": "<p id=\"stim\">6</p>", "key_press": -1, "trial_type": "single-stim", "trial_index": 234, "time_elapsed": 1057314, "internal_node_id": "0.0-167.0-4.0"}}, {"uniqueid": "MTK0316:3COPXFW7XCJ9HBW0UCOCUG0MLPHKPD", "current_trial": 235, "dateTime": 1510703993014, "trialdata": {"rt": -1, "stimulus": "<p id=\"stim\">5</p>", "key_press": -1, "trial_type": "single-stim", "trial_index": 235, "time_elapsed": 1058314, "internal_node_id": "0.0-167.0-5.0"}}, {"uniqueid": "MTK0316:3COPXFW7XCJ9HBW0UCOCUG0MLPHKPD", "current_trial": 236, "dateTime": 1510703994014, "trialdata": {"rt": -1, "stimulus": "<p id=\"stim\">4</p>", "key_press": -1, "trial_type": "single-stim", "trial_index": 236, "time_elapsed": 1059314, "internal_node_id": "0.0-167.0-6.0"}}, {"uniqueid": "MTK0316:3COPXFW7XCJ9HBW0UCOCUG0MLPHKPD", "current_trial": 237, "dateTime": 1510703995015, "trialdata": {"rt": -1, "stimulus": "<p id=\"stim\">3</p>", "key_press": -1, "trial_type": "single-stim", "trial_index": 237, "time_elapsed": 1060315, "internal_node_id": "0.0-167.0-7.0"}}, {"uniqueid": "MTK0316:3COPXFW7XCJ9HBW0UCOCUG0MLPHKPD", "current_trial": 238, "dateTime": 1510703996017, "trialdata": {"rt": -1, "stimulus": "<p id=\"stim\">2</p>", "key_press": -1, "trial_type": "single-stim", "trial_index": 238, "time_elapsed": 1061317, "internal_node_id": "0.0-167.0-8.0"}}, {"uniqueid": "MTK0316:3COPXFW7XCJ9HBW0UCOCUG0MLPHKPD", "current_trial": 239, "dateTime": 1510703997019, "trialdata": {"rt": -1, "stimulus": "<p id=\"stim\">1</p>", "key_press": -1, "trial_type": "single-stim", "trial_index": 239, "time_elapsed": 1062319, "internal_node_id": "0.0-167.0-9.0"}}, {"uniqueid": "MTK0316:3COPXFW7XCJ9HBW0UCOCUG0MLPHKPD", "current_trial": 240, "dateTime": 1510703998520, "trialdata": {"rt": -1, "stimulus": "<p id=\"stim\">+</p>", "key_press": -1, "type": "FIXATION", "trial_type": "single-stim", "trial_index": 240, "time_elapsed": 1063820, "internal_node_id": "0.0-168.0-0.0"}}, {"uniqueid": "MTK0316:3COPXFW7XCJ9HBW0UCOCUG0MLPHKPD", "current_trial": 241, "dateTime": 1510704000356, "trialdata": {"rt": -1000, "stimulus": "/static/audio/wordpool/COLLEGE.wav", "key_press": -1, "type": "PRES_AUD", "word": "college", "wordID": 345, "conditions": [12, 800, "a", 12000], "trial": 7, "serialpos": 0, "trial_type": "single-audio", "trial_index": 241, "time_elapsed": 1065656, "internal_node_id": "0.0-169.0"}}, {"uniqueid": "MTK0316:3COPXFW7XCJ9HBW0UCOCUG0MLPHKPD", "current_trial": 242, "dateTime": 1510704001983, "trialdata": {"rt": -1000, "stimulus": "/static/audio/wordpool/PERFUME.wav", "key_press": -1, "type": "PRES_AUD", "word": "perfume", "wordID": 1048, "conditions": [12, 800, "a", 12000], "trial": 7, "serialpos": 1, "trial_type": "single-audio", "trial_index": 242, "time_elapsed": 1067282, "internal_node_id": "0.0-170.0"}}, {"uniqueid": "MTK0316:3COPXFW7XCJ9HBW0UCOCUG0MLPHKPD", "current_trial": 243, "dateTime": 1510704003752, "trialdata": {"rt": -1000, "stimulus": "/static/audio/wordpool/SWAMP.wav", "key_press": -1, "type": "PRES_AUD", "word": "swamp", "wordID": 1415, "conditions": [12, 800, "a", 12000], "trial": 7, "serialpos": 2, "trial_type": "single-audio", "trial_index": 243, "time_elapsed": 1069052, "internal_node_id": "0.0-171.0"}}, {"uniqueid": "MTK0316:3COPXFW7XCJ9HBW0UCOCUG0MLPHKPD", "current_trial": 244, "dateTime": 1510704005419, "trialdata": {"rt": -1000, "stimulus": "/static/audio/wordpool/STUDENT.wav", "key_press": -1, "type": "PRES_AUD", "word": "student", "wordID": 1394, "conditions": [12, 800, "a", 12000], "trial": 7, "serialpos": 3, "trial_type": "single-audio", "trial_index": 244, "time_elapsed": 1070719, "internal_node_id": "0.0-172.0"}}, {"uniqueid": "MTK0316:3COPXFW7XCJ9HBW0UCOCUG0MLPHKPD", "current_trial": 245, "dateTime": 1510704007023, "trialdata": {"rt": -1000, "stimulus": "/static/audio/wordpool/BATHTUB.wav", "key_press": -1, "type": "PRES_AUD", "word": "bathtub", "wordID": 99, "conditions": [12, 800, "a", 12000], "trial": 7, "serialpos": 4, "trial_type": "single-audio", "trial_index": 245, "time_elapsed": 1072323, "internal_node_id": "0.0-173.0"}}, {"uniqueid": "MTK0316:3COPXFW7XCJ9HBW0UCOCUG0MLPHKPD", "current_trial": 246, "dateTime": 1510704008889, "trialdata": {"rt": -1000, "stimulus": "/static/audio/wordpool/SWIMMER.wav", "key_press": -1, "type": "PRES_AUD", "word": "swimmer", "wordID": 1419, "conditions": [12, 800, "a", 12000], "trial": 7, "serialpos": 5, "trial_type": "single-audio", "trial_index": 246, "time_elapsed": 1074189, "internal_node_id": "0.0-174.0"}}, {"uniqueid": "MTK0316:3COPXFW7XCJ9HBW0UCOCUG0MLPHKPD", "current_trial": 247, "dateTime": 1510704010886, "trialdata": {"rt": -1000, "stimulus": "/static/audio/wordpool/ORCHID.wav", "key_press": -1, "type": "PRES_AUD", "word": "orchid", "wordID": 981, "conditions": [12, 800, "a", 12000], "trial": 7, "serialpos": 6, "trial_type": "single-audio", "trial_index": 247, "time_elapsed": 1076186, "internal_node_id": "0.0-175.0"}}, {"uniqueid": "MTK0316:3COPXFW7XCJ9HBW0UCOCUG0MLPHKPD", "current_trial": 248, "dateTime": 1510704012530, "trialdata": {"rt": -1000, "stimulus": "/static/audio/wordpool/ZEBRA.wav", "key_press": -1, "type": "PRES_AUD", "word": "zebra", "wordID": 1634, "conditions": [12, 800, "a", 12000], "trial": 7, "serialpos": 7, "trial_type": "single-audio", "trial_index": 248, "time_elapsed": 1077829, "internal_node_id": "0.0-176.0"}}, {"uniqueid": "MTK0316:3COPXFW7XCJ9HBW0UCOCUG0MLPHKPD", "current_trial": 249, "dateTime": 1510704014391, "trialdata": {"rt": -1000, "stimulus": "/static/audio/wordpool/BOX.wav", "key_press": -1, "type": "PRES_AUD", "word": "box", "wordID": 158, "conditions": [12, 800, "a", 12000], "trial": 7, "serialpos": 8, "trial_type": "single-audio", "trial_index": 249, "time_elapsed": 1079691, "internal_node_id": "0.0-177.0"}}, {"uniqueid": "MTK0316:3COPXFW7XCJ9HBW0UCOCUG0MLPHKPD", "current_trial": 250, "dateTime": 1510704016015, "trialdata": {"rt": -1000, "stimulus": "/static/audio/wordpool/TRUCK.wav", "key_press": -1, "type": "PRES_AUD", "word": "truck", "wordID": 1511, "conditions": [12, 800, "a", 12000], "trial": 7, "serialpos": 9, "trial_type": "single-audio", "trial_index": 250, "time_elapsed": 1081315, "internal_node_id": "0.0-178.0"}}, {"uniqueid": "MTK0316:3COPXFW7XCJ9HBW0UCOCUG0MLPHKPD", "current_trial": 251, "dateTime": 1510704017861, "trialdata": {"rt": -1000, "stimulus": "/static/audio/wordpool/RIVER.wav", "key_press": -1, "type": "PRES_AUD", "word": "river", "wordID": 1193, "conditions": [12, 800, "a", 12000], "trial": 7, "serialpos": 10, "trial_type": "single-audio", "trial_index": 251, "time_elapsed": 1083161, "internal_node_id": "0.0-179.0"}}, {"uniqueid": "MTK0316:3COPXFW7XCJ9HBW0UCOCUG0MLPHKPD", "current_trial": 252, "dateTime": 1510704019615, "trialdata": {"rt": -1000, "stimulus": "/static/audio/wordpool/BROOK.wav", "key_press": -1, "type": "PRES_AUD", "word": "brook", "wordID": 176, "conditions": [12, 800, "a", 12000], "trial": 7, "serialpos": 11, "trial_type": "single-audio", "trial_index": 252, "time_elapsed": 1084915, "internal_node_id": "0.0-180.0"}}, {"uniqueid": "MTK0316:3COPXFW7XCJ9HBW0UCOCUG0MLPHKPD", "current_trial": 253, "dateTime": 1510704020834, "trialdata": {"rt": -1, "stimulus": "", "key_press": -1, "type": "PRE_RECALL_DELAY", "trial_type": "single-stim", "trial_index": 253, "time_elapsed": 1086134, "internal_node_id": "0.0-181.0-0.0"}}, {"uniqueid": "MTK0316:3COPXFW7XCJ9HBW0UCOCUG0MLPHKPD", "current_trial": 254, "dateTime": 1510704021334, "trialdata": {"rt": -1000, "stimulus": "/static/audio/400Hz.wav", "key_press": -1, "type": "PRE_RECALL_ALERT", "trial_type": "single-audio", "trial_index": 254, "time_elapsed": 1086634, "internal_node_id": "0.0-182.0"}}, {"uniqueid": "MTK0316:3COPXFW7XCJ9HBW0UCOCUG0MLPHKPD", "current_trial": 255, "dateTime": 1510704081341, "trialdata": {"rt": [2385, 4436, 9492, 17828, 20664, 23809, 27219, 36721], "recwords": ["zebra", "box", "swimmer", "student", "bathtub", "river", "college", "perfume"], "type": "FREE_RECALL", "conditions": [12, 800, "a", 12000], "trial": 7, "trial_type": "free-recall", "trial_index": 255, "time_elapsed": 1146636, "internal_node_id": "0.0-183.0-0.0"}}, {"uniqueid": "MTK0316:3COPXFW7XCJ9HBW0UCOCUG0MLPHKPD", "current_trial": 256, "dateTime": 1510704084863, "trialdata": {"rt": 1521, "key_press": 71, "type": "INSTRUCTIONS", "trial_type": "text", "trial_index": 256, "time_elapsed": 1150163, "internal_node_id": "0.0-184.0"}}, {"uniqueid": "MTK0316:3COPXFW7XCJ9HBW0UCOCUG0MLPHKPD", "current_trial": 257, "dateTime": 1510704110866, "trialdata": {"rt": [4720, 7438, 10430, 13999, 20948], "responses": ["19", "15", "16", "19", "20"], "num1": [4, 9, 5, 7, 4, 8], "num2": [7, 3, 8, 9, 9, 7], "num3": [8, 3, 3, 3, 7, 5], "type": "DISTRACTOR", "conditions": [24, 800, "v", 24000], "trial": 8, "trial_type": "math-distractor", "trial_index": 257, "time_elapsed": 1176165, "internal_node_id": "0.0-185.0"}}, {"uniqueid": "MTK0316:3COPXFW7XCJ9HBW0UCOCUG0MLPHKPD", "current_trial": 258, "dateTime": 1510704113868, "trialdata": {"rt": -1, "stimulus": "<p id=\"stim\">10</p>", "key_press": -1, "trial_type": "single-stim", "trial_index": 258, "time_elapsed": 1179167, "internal_node_id": "0.0-186.0-0.0"}}, {"uniqueid": "MTK0316:3COPXFW7XCJ9HBW0UCOCUG0MLPHKPD", "current_trial": 259, "dateTime": 1510704114869, "trialdata": {"rt": -1, "stimulus": "<p id=\"stim\">9</p>", "key_press": -1, "trial_type": "single-stim", "trial_index": 259, "time_elapsed": 1180169, "internal_node_id": "0.0-186.0-1.0"}}, {"uniqueid": "MTK0316:3COPXFW7XCJ9HBW0UCOCUG0MLPHKPD", "current_trial": 260, "dateTime": 1510704115870, "trialdata": {"rt": -1, "stimulus": "<p id=\"stim\">8</p>", "key_press": -1, "trial_type": "single-stim", "trial_index": 260, "time_elapsed": 1181170, "internal_node_id": "0.0-186.0-2.0"}}, {"uniqueid": "MTK0316:3COPXFW7XCJ9HBW0UCOCUG0MLPHKPD", "current_trial": 261, "dateTime": 1510704116870, "trialdata": {"rt": -1, "stimulus": "<p id=\"stim\">7</p>", "key_press": -1, "trial_type": "single-stim", "trial_index": 261, "time_elapsed": 1182170, "internal_node_id": "0.0-186.0-3.0"}}, {"uniqueid": "MTK0316:3COPXFW7XCJ9HBW0UCOCUG0MLPHKPD", "current_trial": 262, "dateTime": 1510704117871, "trialdata": {"rt": -1, "stimulus": "<p id=\"stim\">6</p>", "key_press": -1, "trial_type": "single-stim", "trial_index": 262, "time_elapsed": 1183171, "internal_node_id": "0.0-186.0-4.0"}}, {"uniqueid": "MTK0316:3COPXFW7XCJ9HBW0UCOCUG0MLPHKPD", "current_trial": 263, "dateTime": 1510704118872, "trialdata": {"rt": -1, "stimulus": "<p id=\"stim\">5</p>", "key_press": -1, "trial_type": "single-stim", "trial_index": 263, "time_elapsed": 1184172, "internal_node_id": "0.0-186.0-5.0"}}, {"uniqueid": "MTK0316:3COPXFW7XCJ9HBW0UCOCUG0MLPHKPD", "current_trial": 264, "dateTime": 1510704119873, "trialdata": {"rt": -1, "stimulus": "<p id=\"stim\">4</p>", "key_press": -1, "trial_type": "single-stim", "trial_index": 264, "time_elapsed": 1185173, "internal_node_id": "0.0-186.0-6.0"}}, {"uniqueid": "MTK0316:3COPXFW7XCJ9HBW0UCOCUG0MLPHKPD", "current_trial": 265, "dateTime": 1510704120876, "trialdata": {"rt": -1, "stimulus": "<p id=\"stim\">3</p>", "key_press": -1, "trial_type": "single-stim", "trial_index": 265, "time_elapsed": 1186176, "internal_node_id": "0.0-186.0-7.0"}}, {"uniqueid": "MTK0316:3COPXFW7XCJ9HBW0UCOCUG0MLPHKPD", "current_trial": 266, "dateTime": 1510704121877, "trialdata": {"rt": -1, "stimulus": "<p id=\"stim\">2</p>", "key_press": -1, "trial_type": "single-stim", "trial_index": 266, "time_elapsed": 1187177, "internal_node_id": "0.0-186.0-8.0"}}, {"uniqueid": "MTK0316:3COPXFW7XCJ9HBW0UCOCUG0MLPHKPD", "current_trial": 267, "dateTime": 1510704122878, "trialdata": {"rt": -1, "stimulus": "<p id=\"stim\">1</p>", "key_press": -1, "trial_type": "single-stim", "trial_index": 267, "time_elapsed": 1188178, "internal_node_id": "0.0-186.0-9.0"}}, {"uniqueid": "MTK0316:3COPXFW7XCJ9HBW0UCOCUG0MLPHKPD", "current_trial": 268, "dateTime": 1510704124378, "trialdata": {"rt": -1, "stimulus": "<p id=\"stim\">+</p>", "key_press": -1, "type": "FIXATION", "trial_type": "single-stim", "trial_index": 268, "time_elapsed": 1189678, "internal_node_id": "0.0-187.0-0.0"}}, {"uniqueid": "MTK0316:3COPXFW7XCJ9HBW0UCOCUG0MLPHKPD", "current_trial": 269, "dateTime": 1510704125180, "trialdata": {"rt": -1, "stimulus": "<p id=\"stim\">PASTRY</p>", "key_press": -1, "type": "PRES_VIS", "word": "pastry", "wordID": 1021, "conditions": [24, 800, "v", 24000], "trial": 8, "serialpos": 0, "trial_type": "single-stim", "trial_index": 269, "time_elapsed": 1190480, "internal_node_id": "0.0-188.0"}}, {"uniqueid": "MTK0316:3COPXFW7XCJ9HBW0UCOCUG0MLPHKPD", "current_trial": 270, "dateTime": 1510704126977, "trialdata": {"rt": -1, "stimulus": "<p id=\"stim\">BEAVER</p>", "key_press": -1, "type": "PRES_VIS", "word": "beaver", "wordID": 108, "conditions": [24, 800, "v", 24000], "trial": 8, "serialpos": 1, "trial_type": "single-stim", "trial_index": 270, "time_elapsed": 1192277, "internal_node_id": "0.0-189.0"}}, {"uniqueid": "MTK0316:3COPXFW7XCJ9HBW0UCOCUG0MLPHKPD", "current_trial": 271, "dateTime": 1510704128607, "trialdata": {"rt": -1, "stimulus": "<p id=\"stim\">MUMMY</p>", "key_press": -1, "type": "PRES_VIS", "word": "mummy", "wordID": 931, "conditions": [24, 800, "v", 24000], "trial": 8, "serialpos": 2, "trial_type": "single-stim", "trial_index": 271, "time_elapsed": 1193907, "internal_node_id": "0.0-190.0"}}, {"uniqueid": "MTK0316:3COPXFW7XCJ9HBW0UCOCUG0MLPHKPD", "current_trial": 272, "dateTime": 1510704130560, "trialdata": {"rt": -1, "stimulus": "<p id=\"stim\">SUPPER</p>", "key_press": -1, "type": "PRES_VIS", "word": "supper", "wordID": 1410, "conditions": [24, 800, "v", 24000], "trial": 8, "serialpos": 3, "trial_type": "single-stim", "trial_index": 272, "time_elapsed": 1195860, "internal_node_id": "0.0-191.0"}}, {"uniqueid": "MTK0316:3COPXFW7XCJ9HBW0UCOCUG0MLPHKPD", "current_trial": 273, "dateTime": 1510704132389, "trialdata": {"rt": -1, "stimulus": "<p id=\"stim\">LUNCH</p>", "key_press": -1, "type": "PRES_VIS", "word": "lunch", "wordID": 848, "conditions": [24, 800, "v", 24000], "trial": 8, "serialpos": 4, "trial_type": "single-stim", "trial_index": 273, "time_elapsed": 1197689, "internal_node_id": "0.0-192.0"}}, {"uniqueid": "MTK0316:3COPXFW7XCJ9HBW0UCOCUG0MLPHKPD", "current_trial": 274, "dateTime": 1510704134386, "trialdata": {"rt": -1, "stimulus": "<p id=\"stim\">CUSTARD</p>", "key_press": -1, "type": "PRES_VIS", "word": "custard", "wordID": 428, "conditions": [24, 800, "v", 24000], "trial": 8, "serialpos": 5, "trial_type": "single-stim", "trial_index": 274, "time_elapsed": 1199685, "internal_node_id": "0.0-193.0"}}, {"uniqueid": "MTK0316:3COPXFW7XCJ9H