{"condition": 0, "counterbalance": 887, "assignmentId": "3HVVDCPGTFZ2T8EOF8YN8YGUBDFTY5", "workerId": "MTK0838", "hitId": "3C8QQOM6JP8QXBTKCF5RBZG5BB7ILU", "currenttrial": 626, "bonus": 0, "data": [{"uniqueid": "MTK0838:3HVVDCPGTFZ2T8EOF8YN8YGUBDFTY5", "current_trial": 0, "dateTime": 1512767261477, "trialdata": {"rt": 2201, "key_press": 13, "type": "INSTRUCTIONS", "trial_type": "text", "trial_index": 0, "time_elapsed": 2201, "internal_node_id": "0.0-0.0"}}, {"uniqueid": "MTK0838:3HVVDCPGTFZ2T8EOF8YN8YGUBDFTY5", "current_trial": 1, "dateTime": 1512767284848, "trialdata": {"rt": 23371, "key_press": 13, "type": "INSTRUCTIONS", "trial_type": "text", "trial_index": 1, "time_elapsed": 25572, "internal_node_id": "0.0-1.0"}}, {"uniqueid": "MTK0838:3HVVDCPGTFZ2T8EOF8YN8YGUBDFTY5", "current_trial": 2, "dateTime": 1512767292434, "trialdata": {"rt": [7533], "responses": ["ocean"], "type": "AUDIO_TEST", "trial_type": "audio-test", "trial_index": 2, "time_elapsed": 33158, "internal_node_id": "0.0-2.0"}}, {"uniqueid": "MTK0838:3HVVDCPGTFZ2T8EOF8YN8YGUBDFTY5", "current_trial": 3, "dateTime": 1512767301370, "trialdata": {"rt": [8888], "responses": ["crystal"], "type": "AUDIO_TEST", "trial_type": "audio-test", "trial_index": 3, "time_elapsed": 42094, "internal_node_id": "0.0-3.0"}}, {"uniqueid": "MTK0838:3HVVDCPGTFZ2T8EOF8YN8YGUBDFTY5", "current_trial": 4, "dateTime": 1512767307167, "trialdata": {"rt": [5749], "responses": ["spice"], "type": "AUDIO_TEST", "trial_type": "audio-test", "trial_index": 4, "time_elapsed": 47891, "internal_node_id": "0.0-4.0"}}, {"uniqueid": "MTK0838:3HVVDCPGTFZ2T8EOF8YN8YGUBDFTY5", "current_trial": 5, "dateTime": 1512767333290, "trialdata": {"rt": 25340, "responses": "{\"Q0\":\"1:00 A.M.\",\"Q1\":\"8:00 A.M.\",\"Q2\":\"5\"}", "type": "SLEEP_SURVEY", "trial_type": "survey-text", "trial_index": 5, "time_elapsed": 74012, "internal_node_id": "0.0-5.0"}}, {"uniqueid": "MTK0838:3HVVDCPGTFZ2T8EOF8YN8YGUBDFTY5", "current_trial": 6, "dateTime": 1512767386343, "trialdata": {"rt": 51805, "key_press": 40, "type": "INSTRUCTIONS", "trial_type": "text", "trial_index": 6, "time_elapsed": 127067, "internal_node_id": "0.0-6.0"}}, {"uniqueid": "MTK0838:3HVVDCPGTFZ2T8EOF8YN8YGUBDFTY5", "current_trial": 7, "dateTime": 1512767405409, "trialdata": {"rt": 18539, "key_press": 13, "type": "INSTRUCTIONS", "trial_type": "text", "trial_index": 7, "time_elapsed": 146133, "internal_node_id": "0.0-7.0"}}, {"uniqueid": "MTK0838:3HVVDCPGTFZ2T8EOF8YN8YGUBDFTY5", "current_trial": 8, "dateTime": 1512767417263, "trialdata": {"rt": 11337, "key_press": 13, "type": "INSTRUCTIONS", "trial_type": "text", "trial_index": 8, "time_elapsed": 157987, "internal_node_id": "0.0-8.0"}}, {"uniqueid": "MTK0838:3HVVDCPGTFZ2T8EOF8YN8YGUBDFTY5", "current_trial": 9, "dateTime": 1512767436296, "trialdata": {"rt": [2682, 4862, 6815, 10372, 12148, 14212, 16309], "responses": ["12", "16", "16", "24", "13", "21", "8"], "num1": [5, 8, 6, 9, 6, 9, 2, 8], "num2": [2, 3, 7, 8, 4, 9, 5, 9], "num3": [5, 5, 3, 7, 3, 3, 1, 5], "type": "DISTRACTOR", "conditions": [18, 1200, "v", 18000], "trial": 0, "trial_type": "math-distractor", "trial_index": 9, "time_elapsed": 177020, "internal_node_id": "0.0-9.0"}}, {"uniqueid": "MTK0838:3HVVDCPGTFZ2T8EOF8YN8YGUBDFTY5", "current_trial": 10, "dateTime": 1512767439299, "trialdata": {"rt": -1, "stimulus": "<p id=\"stim\">10</p>", "key_press": -1, "trial_type": "single-stim", "trial_index": 10, "time_elapsed": 180023, "internal_node_id": "0.0-10.0-0.0"}}, {"uniqueid": "MTK0838:3HVVDCPGTFZ2T8EOF8YN8YGUBDFTY5", "current_trial": 11, "dateTime": 1512767440300, "trialdata": {"rt": -1, "stimulus": "<p id=\"stim\">9</p>", "key_press": -1, "trial_type": "single-stim", "trial_index": 11, "time_elapsed": 181024, "internal_node_id": "0.0-10.0-1.0"}}, {"uniqueid": "MTK0838:3HVVDCPGTFZ2T8EOF8YN8YGUBDFTY5", "current_trial": 12, "dateTime": 1512767441314, "trialdata": {"rt": -1, "stimulus": "<p id=\"stim\">8</p>", "key_press": -1, "trial_type": "single-stim", "trial_index": 12, "time_elapsed": 182038, "internal_node_id": "0.0-10.0-2.0"}}, {"uniqueid": "MTK0838:3HVVDCPGTFZ2T8EOF8YN8YGUBDFTY5", "current_trial": 13, "dateTime": 1512767442316, "trialdata": {"rt": -1, "stimulus": "<p id=\"stim\">7</p>", "key_press": -1, "trial_type": "single-stim", "trial_index": 13, "time_elapsed": 183039, "internal_node_id": "0.0-10.0-3.0"}}, {"uniqueid": "MTK0838:3HVVDCPGTFZ2T8EOF8YN8YGUBDFTY5", "current_trial": 14, "dateTime": 1512767443322, "trialdata": {"rt": -1, "stimulus": "<p id=\"stim\">6</p>", "key_press": -1, "trial_type": "single-stim", "trial_index": 14, "time_elapsed": 184046, "internal_node_id": "0.0-10.0-4.0"}}, {"uniqueid": "MTK0838:3HVVDCPGTFZ2T8EOF8YN8YGUBDFTY5", "current_trial": 15, "dateTime": 1512767444325, "trialdata": {"rt": -1, "stimulus": "<p id=\"stim\">5</p>", "key_press": -1, "trial_type": "single-stim", "trial_index": 15, "time_elapsed": 185048, "internal_node_id": "0.0-10.0-5.0"}}, {"uniqueid": "MTK0838:3HVVDCPGTFZ2T8EOF8YN8YGUBDFTY5", "current_trial": 16, "dateTime": 1512767445332, "trialdata": {"rt": -1, "stimulus": "<p id=\"stim\">4</p>", "key_press": -1, "trial_type": "single-stim", "trial_index": 16, "time_elapsed": 186056, "internal_node_id": "0.0-10.0-6.0"}}, {"uniqueid": "MTK0838:3HVVDCPGTFZ2T8EOF8YN8YGUBDFTY5", "current_trial": 17, "dateTime": 1512767446335, "trialdata": {"rt": -1, "stimulus": "<p id=\"stim\">3</p>", "key_press": -1, "trial_type": "single-stim", "trial_index": 17, "time_elapsed": 187058, "internal_node_id": "0.0-10.0-7.0"}}, {"uniqueid": "MTK0838:3HVVDCPGTFZ2T8EOF8YN8YGUBDFTY5", "current_trial": 18, "dateTime": 1512767447343, "trialdata": {"rt": -1, "stimulus": "<p id=\"stim\">2</p>", "key_press": -1, "trial_type": "single-stim", "trial_index": 18, "time_elapsed": 188062, "internal_node_id": "0.0-10.0-8.0"}}, {"uniqueid": "MTK0838:3HVVDCPGTFZ2T8EOF8YN8YGUBDFTY5", "current_trial": 19, "dateTime": 1512767448344, "trialdata": {"rt": -1, "stimulus": "<p id=\"stim\">1</p>", "key_press": -1, "trial_type": "single-stim", "trial_index": 19, "time_elapsed": 189067, "internal_node_id": "0.0-10.0-9.0"}}, {"uniqueid": "MTK0838:3HVVDCPGTFZ2T8EOF8YN8YGUBDFTY5", "current_trial": 20, "dateTime": 1512767449848, "trialdata": {"rt": -1, "stimulus": "<p id=\"stim\">+</p>", "key_press": -1, "type": "FIXATION", "trial_type": "single-stim", "trial_index": 20, "time_elapsed": 190572, "internal_node_id": "0.0-11.0-0.0"}}, {"uniqueid": "MTK0838:3HVVDCPGTFZ2T8EOF8YN8YGUBDFTY5", "current_trial": 21, "dateTime": 1512767451056, "trialdata": {"rt": -1, "stimulus": "<p id=\"stim\">LONDON</p>", "key_press": -1, "type": "PRES_VIS", "word": "london", "wordID": 842, "conditions": [18, 1200, "v", 18000], "trial": 0, "serialpos": 0, "trial_type": "single-stim", "trial_index": 21, "time_elapsed": 191780, "internal_node_id": "0.0-12.0"}}, {"uniqueid": "MTK0838:3HVVDCPGTFZ2T8EOF8YN8YGUBDFTY5", "current_trial": 22, "dateTime": 1512767453152, "trialdata": {"rt": -1, "stimulus": "<p id=\"stim\">LEOPARD</p>", "key_press": -1, "type": "PRES_VIS", "word": "leopard", "wordID": 811, "conditions": [18, 1200, "v", 18000], "trial": 0, "serialpos": 1, "trial_type": "single-stim", "trial_index": 22, "time_elapsed": 193876, "internal_node_id": "0.0-13.0"}}, {"uniqueid": "MTK0838:3HVVDCPGTFZ2T8EOF8YN8YGUBDFTY5", "current_trial": 23, "dateTime": 1512767455448, "trialdata": {"rt": -1, "stimulus": "<p id=\"stim\">PARSLEY</p>", "key_press": -1, "type": "PRES_VIS", "word": "parsley", "wordID": 1015, "conditions": [18, 1200, "v", 18000], "trial": 0, "serialpos": 2, "trial_type": "single-stim", "trial_index": 23, "time_elapsed": 196172, "internal_node_id": "0.0-14.0"}}, {"uniqueid": "MTK0838:3HVVDCPGTFZ2T8EOF8YN8YGUBDFTY5", "current_trial": 24, "dateTime": 1512767457855, "trialdata": {"rt": -1, "stimulus": "<p id=\"stim\">MISSILE</p>", "key_press": -1, "type": "PRES_VIS", "word": "missile", "wordID": 899, "conditions": [18, 1200, "v", 18000], "trial": 0, "serialpos": 3, "trial_type": "single-stim", "trial_index": 24, "time_elapsed": 198579, "internal_node_id": "0.0-15.0"}}, {"uniqueid": "MTK0838:3HVVDCPGTFZ2T8EOF8YN8YGUBDFTY5", "current_trial": 25, "dateTime": 1512767460072, "trialdata": {"rt": -1, "stimulus": "<p id=\"stim\">SALT</p>", "key_press": -1, "type": "PRES_VIS", "word": "salt", "wordID": 1228, "conditions": [18, 1200, "v", 18000], "trial": 0, "serialpos": 4, "trial_type": "single-stim", "trial_index": 25, "time_elapsed": 200796, "internal_node_id": "0.0-16.0"}}, {"uniqueid": "MTK0838:3HVVDCPGTFZ2T8EOF8YN8YGUBDFTY5", "current_trial": 26, "dateTime": 1512767462154, "trialdata": {"rt": -1, "stimulus": "<p id=\"stim\">PADDLE</p>", "key_press": -1, "type": "PRES_VIS", "word": "paddle", "wordID": 999, "conditions": [18, 1200, "v", 18000], "trial": 0, "serialpos": 5, "trial_type": "single-stim", "trial_index": 26, "time_elapsed": 202878, "internal_node_id": "0.0-17.0"}}, {"uniqueid": "MTK0838:3HVVDCPGTFZ2T8EOF8YN8YGUBDFTY5", "current_trial": 27, "dateTime": 1512767464249, "trialdata": {"rt": -1, "stimulus": "<p id=\"stim\">TROMBONE</p>", "key_press": -1, "type": "PRES_VIS", "word": "trombone", "wordID": 1507, "conditions": [18, 1200, "v", 18000], "trial": 0, "serialpos": 6, "trial_type": "single-stim", "trial_index": 27, "time_elapsed": 204973, "internal_node_id": "0.0-18.0"}}, {"uniqueid": "MTK0838:3HVVDCPGTFZ2T8EOF8YN8YGUBDFTY5", "current_trial": 28, "dateTime": 1512767466263, "trialdata": {"rt": -1, "stimulus": "<p id=\"stim\">RECORD</p>", "key_press": -1, "type": "PRES_VIS", "word": "record", "wordID": 1175, "conditions": [18, 1200, "v", 18000], "trial": 0, "serialpos": 7, "trial_type": "single-stim", "trial_index": 28, "time_elapsed": 206987, "internal_node_id": "0.0-19.0"}}, {"uniqueid": "MTK0838:3HVVDCPGTFZ2T8EOF8YN8YGUBDFTY5", "current_trial": 29, "dateTime": 1512767468344, "trialdata": {"rt": -1, "stimulus": "<p id=\"stim\">FOOTBALL</p>", "key_press": -1, "type": "PRES_VIS", "word": "football", "wordID": 590, "conditions": [18, 1200, "v", 18000], "trial": 0, "serialpos": 8, "trial_type": "single-stim", "trial_index": 29, "time_elapsed": 209068, "internal_node_id": "0.0-20.0"}}, {"uniqueid": "MTK0838:3HVVDCPGTFZ2T8EOF8YN8YGUBDFTY5", "current_trial": 30, "dateTime": 1512767470388, "trialdata": {"rt": -1, "stimulus": "<p id=\"stim\">RECEIPT</p>", "key_press": -1, "type": "PRES_VIS", "word": "receipt", "wordID": 1172, "conditions": [18, 1200, "v", 18000], "trial": 0, "serialpos": 9, "trial_type": "single-stim", "trial_index": 30, "time_elapsed": 211112, "internal_node_id": "0.0-21.0"}}, {"uniqueid": "MTK0838:3HVVDCPGTFZ2T8EOF8YN8YGUBDFTY5", "current_trial": 31, "dateTime": 1512767472753, "trialdata": {"rt": -1, "stimulus": "<p id=\"stim\">DRUG</p>", "key_press": -1, "type": "PRES_VIS", "word": "drug", "wordID": 500, "conditions": [18, 1200, "v", 18000], "trial": 0, "serialpos": 10, "trial_type": "single-stim", "trial_index": 31, "time_elapsed": 213477, "internal_node_id": "0.0-22.0"}}, {"uniqueid": "MTK0838:3HVVDCPGTFZ2T8EOF8YN8YGUBDFTY5", "current_trial": 32, "dateTime": 1512767475004, "trialdata": {"rt": -1, "stimulus": "<p id=\"stim\">CLAM</p>", "key_press": -1, "type": "PRES_VIS", "word": "clam", "wordID": 314, "conditions": [18, 1200, "v", 18000], "trial": 0, "serialpos": 11, "trial_type": "single-stim", "trial_index": 32, "time_elapsed": 215728, "internal_node_id": "0.0-23.0"}}, {"uniqueid": "MTK0838:3HVVDCPGTFZ2T8EOF8YN8YGUBDFTY5", "current_trial": 33, "dateTime": 1512767477250, "trialdata": {"rt": -1, "stimulus": "<p id=\"stim\">TWIG</p>", "key_press": -1, "type": "PRES_VIS", "word": "twig", "wordID": 1526, "conditions": [18, 1200, "v", 18000], "trial": 0, "serialpos": 12, "trial_type": "single-stim", "trial_index": 33, "time_elapsed": 217974, "internal_node_id": "0.0-24.0"}}, {"uniqueid": "MTK0838:3HVVDCPGTFZ2T8EOF8YN8YGUBDFTY5", "current_trial": 34, "dateTime": 1512767479674, "trialdata": {"rt": -1, "stimulus": "<p id=\"stim\">JURY</p>", "key_press": -1, "type": "PRES_VIS", "word": "jury", "wordID": 765, "conditions": [18, 1200, "v", 18000], "trial": 0, "serialpos": 13, "trial_type": "single-stim", "trial_index": 34, "time_elapsed": 220398, "internal_node_id": "0.0-25.0"}}, {"uniqueid": "MTK0838:3HVVDCPGTFZ2T8EOF8YN8YGUBDFTY5", "current_trial": 35, "dateTime": 1512767482012, "trialdata": {"rt": -1, "stimulus": "<p id=\"stim\">LOFT</p>", "key_press": -1, "type": "PRES_VIS", "word": "loft", "wordID": 839, "conditions": [18, 1200, "v", 18000], "trial": 0, "serialpos": 14, "trial_type": "single-stim", "trial_index": 35, "time_elapsed": 222736, "internal_node_id": "0.0-26.0"}}, {"uniqueid": "MTK0838:3HVVDCPGTFZ2T8EOF8YN8YGUBDFTY5", "current_trial": 36, "dateTime": 1512767484292, "trialdata": {"rt": -1, "stimulus": "<p id=\"stim\">CROWN</p>", "key_press": -1, "type": "PRES_VIS", "word": "crown", "wordID": 414, "conditions": [18, 1200, "v", 18000], "trial": 0, "serialpos": 15, "trial_type": "single-stim", "trial_index": 36, "time_elapsed": 225016, "internal_node_id": "0.0-27.0"}}, {"uniqueid": "MTK0838:3HVVDCPGTFZ2T8EOF8YN8YGUBDFTY5", "current_trial": 37, "dateTime": 1512767486475, "trialdata": {"rt": -1, "stimulus": "<p id=\"stim\">COD</p>", "key_press": -1, "type": "PRES_VIS", "word": "cod", "wordID": 339, "conditions": [18, 1200, "v", 18000], "trial": 0, "serialpos": 16, "trial_type": "single-stim", "trial_index": 37, "time_elapsed": 227199, "internal_node_id": "0.0-28.0"}}, {"uniqueid": "MTK0838:3HVVDCPGTFZ2T8EOF8YN8YGUBDFTY5", "current_trial": 38, "dateTime": 1512767488705, "trialdata": {"rt": -1, "stimulus": "<p id=\"stim\">LAKE</p>", "key_press": -1, "type": "PRES_VIS", "word": "lake", "wordID": 795, "conditions": [18, 1200, "v", 18000], "trial": 0, "serialpos": 17, "trial_type": "single-stim", "trial_index": 38, "time_elapsed": 229429, "internal_node_id": "0.0-29.0"}}, {"uniqueid": "MTK0838:3HVVDCPGTFZ2T8EOF8YN8YGUBDFTY5", "current_trial": 39, "dateTime": 1512767490996, "trialdata": {"rt": -1, "stimulus": "", "key_press": -1, "type": "PRE_RECALL_DELAY", "trial_type": "single-stim", "trial_index": 39, "time_elapsed": 231720, "internal_node_id": "0.0-30.0-0.0"}}, {"uniqueid": "MTK0838:3HVVDCPGTFZ2T8EOF8YN8YGUBDFTY5", "current_trial": 40, "dateTime": 1512767491498, "trialdata": {"rt": -1000, "stimulus": "/static/audio/400Hz.wav", "key_press": -1, "type": "PRE_RECALL_ALERT", "trial_type": "single-audio", "trial_index": 40, "time_elapsed": 232222, "internal_node_id": "0.0-31.0"}}, {"uniqueid": "MTK0838:3HVVDCPGTFZ2T8EOF8YN8YGUBDFTY5", "current_trial": 41, "dateTime": 1512767551523, "trialdata": {"rt": [4165, 5499, 6469, 7306, 15464, 25937], "recwords": ["football", "london", "lake", "cod", "trumbone", "leapard"], "type": "FREE_RECALL", "conditions": [18, 1200, "v", 18000], "trial": 0, "trial_type": "free-recall", "trial_index": 41, "time_elapsed": 292231, "internal_node_id": "0.0-32.0-0.0"}}, {"uniqueid": "MTK0838:3HVVDCPGTFZ2T8EOF8YN8YGUBDFTY5", "current_trial": 42, "dateTime": 1512767587700, "trialdata": {"rt": 34164, "key_press": 13, "type": "INSTRUCTIONS", "trial_type": "text", "trial_index": 42, "time_elapsed": 328424, "internal_node_id": "0.0-33.0"}}, {"uniqueid": "MTK0838:3HVVDCPGTFZ2T8EOF8YN8YGUBDFTY5", "current_trial": 43, "dateTime": 1512767607724, "trialdata": {"rt": [2389, 4842, 7079, 8824, 11071, 13671, 15436, 17399], "responses": ["12", "10", "14", "16", "20", "17", "12", "23"], "num1": [5, 3, 3, 8, 9, 8, 9, 8, 3], "num2": [2, 6, 2, 5, 2, 6, 1, 9, 9], "num3": [5, 1, 9, 3, 9, 3, 2, 6, 1], "type": "DISTRACTOR", "conditions": [18, 1200, "a", 18000], "trial": 1, "trial_type": "math-distractor", "trial_index": 43, "time_elapsed": 348448, "internal_node_id": "0.0-34.0"}}, {"uniqueid": "MTK0838:3HVVDCPGTFZ2T8EOF8YN8YGUBDFTY5", "current_trial": 44, "dateTime": 1512767610724, "trialdata": {"rt": -1, "stimulus": "<p id=\"stim\">10</p>", "key_press": -1, "trial_type": "single-stim", "trial_index": 44, "time_elapsed": 351448, "internal_node_id": "0.0-35.0-0.0"}}, {"uniqueid": "MTK0838:3HVVDCPGTFZ2T8EOF8YN8YGUBDFTY5", "current_trial": 45, "dateTime": 1512767611740, "trialdata": {"rt": -1, "stimulus": "<p id=\"stim\">9</p>", "key_press": -1, "trial_type": "single-stim", "trial_index": 45, "time_elapsed": 352464, "internal_node_id": "0.0-35.0-1.0"}}, {"uniqueid": "MTK0838:3HVVDCPGTFZ2T8EOF8YN8YGUBDFTY5", "current_trial": 46, "dateTime": 1512767612743, "trialdata": {"rt": -1, "stimulus": "<p id=\"stim\">8</p>", "key_press": -1, "trial_type": "single-stim", "trial_index": 46, "time_elapsed": 353467, "internal_node_id": "0.0-35.0-2.0"}}, {"uniqueid": "MTK0838:3HVVDCPGTFZ2T8EOF8YN8YGUBDFTY5", "current_trial": 47, "dateTime": 1512767613757, "trialdata": {"rt": -1, "stimulus": "<p id=\"stim\">7</p>", "key_press": -1, "trial_type": "single-stim", "trial_index": 47, "time_elapsed": 354481, "internal_node_id": "0.0-35.0-3.0"}}, {"uniqueid": "MTK0838:3HVVDCPGTFZ2T8EOF8YN8YGUBDFTY5", "current_trial": 48, "dateTime": 1512767614772, "trialdata": {"rt": -1, "stimulus": "<p id=\"stim\">6</p>", "key_press": -1, "trial_type": "single-stim", "trial_index": 48, "time_elapsed": 355496, "internal_node_id": "0.0-35.0-4.0"}}, {"uniqueid": "MTK0838:3HVVDCPGTFZ2T8EOF8YN8YGUBDFTY5", "current_trial": 49, "dateTime": 1512767615774, "trialdata": {"rt": -1, "stimulus": "<p id=\"stim\">5</p>", "key_press": -1, "trial_type": "single-stim", "trial_index": 49, "time_elapsed": 356498, "internal_node_id": "0.0-35.0-5.0"}}, {"uniqueid": "MTK0838:3HVVDCPGTFZ2T8EOF8YN8YGUBDFTY5", "current_trial": 50, "dateTime": 1512767616784, "trialdata": {"rt": -1, "stimulus": "<p id=\"stim\">4</p>", "key_press": -1, "trial_type": "single-stim", "trial_index": 50, "time_elapsed": 357508, "internal_node_id": "0.0-35.0-6.0"}}, {"uniqueid": "MTK0838:3HVVDCPGTFZ2T8EOF8YN8YGUBDFTY5", "current_trial": 51, "dateTime": 1512767617789, "trialdata": {"rt": -1, "stimulus": "<p id=\"stim\">3</p>", "key_press": -1, "trial_type": "single-stim", "trial_index": 51, "time_elapsed": 358513, "internal_node_id": "0.0-35.0-7.0"}}, {"uniqueid": "MTK0838:3HVVDCPGTFZ2T8EOF8YN8YGUBDFTY5", "current_trial": 52, "dateTime": 1512767618794, "trialdata": {"rt": -1, "stimulus": "<p id=\"stim\">2</p>", "key_press": -1, "trial_type": "single-stim", "trial_index": 52, "time_elapsed": 359518, "internal_node_id": "0.0-35.0-8.0"}}, {"uniqueid": "MTK0838:3HVVDCPGTFZ2T8EOF8YN8YGUBDFTY5", "current_trial": 53, "dateTime": 1512767619807, "trialdata": {"rt": -1, "stimulus": "<p id=\"stim\">1</p>", "key_press": -1, "trial_type": "single-stim", "trial_index": 53, "time_elapsed": 360531, "internal_node_id": "0.0-35.0-9.0"}}, {"uniqueid": "MTK0838:3HVVDCPGTFZ2T8EOF8YN8YGUBDFTY5", "current_trial": 54, "dateTime": 1512767621321, "trialdata": {"rt": -1, "stimulus": "<p id=\"stim\">+</p>", "key_press": -1, "type": "FIXATION", "trial_type": "single-stim", "trial_index": 54, "time_elapsed": 362045, "internal_node_id": "0.0-36.0-0.0"}}, {"uniqueid": "MTK0838:3HVVDCPGTFZ2T8EOF8YN8YGUBDFTY5", "current_trial": 55, "dateTime": 1512767623558, "trialdata": {"rt": -1000, "stimulus": "/static/audio/wordpool/PANTHER.wav", "key_press": -1, "type": "PRES_AUD", "word": "panther", "wordID": 1008, "conditions": [18, 1200, "a", 18000], "trial": 1, "serialpos": 0, "trial_type": "single-audio", "trial_index": 55, "time_elapsed": 364282, "internal_node_id": "0.0-37.0"}}, {"uniqueid": "MTK0838:3HVVDCPGTFZ2T8EOF8YN8YGUBDFTY5", "current_trial": 56, "dateTime": 1512767625727, "trialdata": {"rt": -1000, "stimulus": "/static/audio/wordpool/POLICE.wav", "key_press": -1, "type": "PRES_AUD", "word": "police", "wordID": 1097, "conditions": [18, 1200, "a", 18000], "trial": 1, "serialpos": 1, "trial_type": "single-audio", "trial_index": 56, "time_elapsed": 366451, "internal_node_id": "0.0-38.0"}}, {"uniqueid": "MTK0838:3HVVDCPGTFZ2T8EOF8YN8YGUBDFTY5", "current_trial": 57, "dateTime": 1512767627908, "trialdata": {"rt": -1000, "stimulus": "/static/audio/wordpool/SHOVEL.wav", "key_press": -1, "type": "PRES_AUD", "word": "shovel", "wordID": 1294, "conditions": [18, 1200, "a", 18000], "trial": 1, "serialpos": 2, "trial_type": "single-audio", "trial_index": 57, "time_elapsed": 368632, "internal_node_id": "0.0-39.0"}}, {"uniqueid": "MTK0838:3HVVDCPGTFZ2T8EOF8YN8YGUBDFTY5", "current_trial": 58, "dateTime": 1512767630216, "trialdata": {"rt": -1000, "stimulus": "/static/audio/wordpool/CHAPEL.wav", "key_press": -1, "type": "PRES_AUD", "word": "chapel", "wordID": 279, "conditions": [18, 1200, "a", 18000], "trial": 1, "serialpos": 3, "trial_type": "single-audio", "trial_index": 58, "time_elapsed": 370940, "internal_node_id": "0.0-40.0"}}, {"uniqueid": "MTK0838:3HVVDCPGTFZ2T8EOF8YN8YGUBDFTY5", "current_trial": 59, "dateTime": 1512767632369, "trialdata": {"rt": -1000, "stimulus": "/static/audio/wordpool/BEAST.wav", "key_press": -1, "type": "PRES_AUD", "word": "beast", "wordID": 107, "conditions": [18, 1200, "a", 18000], "trial": 1, "serialpos": 4, "trial_type": "single-audio", "trial_index": 59, "time_elapsed": 373093, "internal_node_id": "0.0-41.0"}}, {"uniqueid": "MTK0838:3HVVDCPGTFZ2T8EOF8YN8YGUBDFTY5", "current_trial": 60, "dateTime": 1512767634460, "trialdata": {"rt": -1000, "stimulus": "/static/audio/wordpool/BALLOON.wav", "key_press": -1, "type": "PRES_AUD", "word": "balloon", "wordID": 74, "conditions": [18, 1200, "a", 18000], "trial": 1, "serialpos": 5, "trial_type": "single-audio", "trial_index": 60, "time_elapsed": 375184, "internal_node_id": "0.0-42.0"}}, {"uniqueid": "MTK0838:3HVVDCPGTFZ2T8EOF8YN8YGUBDFTY5", "current_trial": 61, "dateTime": 1512767636552, "trialdata": {"rt": -1000, "stimulus": "/static/audio/wordpool/BUGGY.wav", "key_press": -1, "type": "PRES_AUD", "word": "buggy", "wordID": 187, "conditions": [18, 1200, "a", 18000], "trial": 1, "serialpos": 6, "trial_type": "single-audio", "trial_index": 61, "time_elapsed": 377276, "internal_node_id": "0.0-43.0"}}, {"uniqueid": "MTK0838:3HVVDCPGTFZ2T8EOF8YN8YGUBDFTY5", "current_trial": 62, "dateTime": 1512767638623, "trialdata": {"rt": -1000, "stimulus": "/static/audio/wordpool/PUDDLE.wav", "key_press": -1, "type": "PRES_AUD", "word": "puddle", "wordID": 1139, "conditions": [18, 1200, "a", 18000], "trial": 1, "serialpos": 7, "trial_type": "single-audio", "trial_index": 62, "time_elapsed": 379347, "internal_node_id": "0.0-44.0"}}, {"uniqueid": "MTK0838:3HVVDCPGTFZ2T8EOF8YN8YGUBDFTY5", "current_trial": 63, "dateTime": 1512767640772, "trialdata": {"rt": -1000, "stimulus": "/static/audio/wordpool/MAMMAL.wav", "key_press": -1, "type": "PRES_AUD", "word": "mammal", "wordID": 860, "conditions": [18, 1200, "a", 18000], "trial": 1, "serialpos": 8, "trial_type": "single-audio", "trial_index": 63, "time_elapsed": 381496, "internal_node_id": "0.0-45.0"}}, {"uniqueid": "MTK0838:3HVVDCPGTFZ2T8EOF8YN8YGUBDFTY5", "current_trial": 64, "dateTime": 1512767643126, "trialdata": {"rt": -1000, "stimulus": "/static/audio/wordpool/SPACE.wav", "key_press": -1, "type": "PRES_AUD", "word": "space", "wordID": 1344, "conditions": [18, 1200, "a", 18000], "trial": 1, "serialpos": 9, "trial_type": "single-audio", "trial_index": 64, "time_elapsed": 383850, "internal_node_id": "0.0-46.0"}}, {"uniqueid": "MTK0838:3HVVDCPGTFZ2T8EOF8YN8YGUBDFTY5", "current_trial": 65, "dateTime": 1512767645203, "trialdata": {"rt": -1000, "stimulus": "/static/audio/wordpool/NOTEBOOK.wav", "key_press": -1, "type": "PRES_AUD", "word": "notebook", "wordID": 958, "conditions": [18, 1200, "a", 18000], "trial": 1, "serialpos": 10, "trial_type": "single-audio", "trial_index": 65, "time_elapsed": 385927, "internal_node_id": "0.0-47.0"}}, {"uniqueid": "MTK0838:3HVVDCPGTFZ2T8EOF8YN8YGUBDFTY5", "current_trial": 66, "dateTime": 1512767647492, "trialdata": {"rt": -1000, "stimulus": "/static/audio/wordpool/ZIPPER.wav", "key_press": -1, "type": "PRES_AUD", "word": "zipper", "wordID": 1635, "conditions": [18, 1200, "a", 18000], "trial": 1, "serialpos": 11, "trial_type": "single-audio", "trial_index": 66, "time_elapsed": 388216, "internal_node_id": "0.0-48.0"}}, {"uniqueid": "MTK0838:3HVVDCPGTFZ2T8EOF8YN8YGUBDFTY5", "current_trial": 67, "dateTime": 1512767649535, "trialdata": {"rt": -1000, "stimulus": "/static/audio/wordpool/BREAST.wav", "key_press": -1, "type": "PRES_AUD", "word": "breast", "wordID": 170, "conditions": [18, 1200, "a", 18000], "trial": 1, "serialpos": 12, "trial_type": "single-audio", "trial_index": 67, "time_elapsed": 390259, "internal_node_id": "0.0-49.0"}}, {"uniqueid": "MTK0838:3HVVDCPGTFZ2T8EOF8YN8YGUBDFTY5", "current_trial": 68, "dateTime": 1512767651573, "trialdata": {"rt": -1000, "stimulus": "/static/audio/wordpool/CRITIC.wav", "key_press": -1, "type": "PRES_AUD", "word": "critic", "wordID": 409, "conditions": [18, 1200, "a", 18000], "trial": 1, "serialpos": 13, "trial_type": "single-audio", "trial_index": 68, "time_elapsed": 392297, "internal_node_id": "0.0-50.0"}}, {"uniqueid": "MTK0838:3HVVDCPGTFZ2T8EOF8YN8YGUBDFTY5", "current_trial": 69, "dateTime": 1512767653738, "trialdata": {"rt": -1000, "stimulus": "/static/audio/wordpool/DRAWING.wav", "key_press": -1, "type": "PRES_AUD", "word": "drawing", "wordID": 493, "conditions": [18, 1200, "a", 18000], "trial": 1, "serialpos": 14, "trial_type": "single-audio", "trial_index": 69, "time_elapsed": 394462, "internal_node_id": "0.0-51.0"}}, {"uniqueid": "MTK0838:3HVVDCPGTFZ2T8EOF8YN8YGUBDFTY5", "current_trial": 70, "dateTime": 1512767655790, "trialdata": {"rt": -1000, "stimulus": "/static/audio/wordpool/JOURNAL.wav", "key_press": -1, "type": "PRES_AUD", "word": "journal", "wordID": 759, "conditions": [18, 1200, "a", 18000], "trial": 1, "serialpos": 15, "trial_type": "single-audio", "trial_index": 70, "time_elapsed": 396514, "internal_node_id": "0.0-52.0"}}, {"uniqueid": "MTK0838:3HVVDCPGTFZ2T8EOF8YN8YGUBDFTY5", "current_trial": 71, "dateTime": 1512767657850, "trialdata": {"rt": -1000, "stimulus": "/static/audio/wordpool/OZONE.wav", "key_press": -1, "type": "PRES_AUD", "word": "ozone", "wordID": 995, "conditions": [18, 1200, "a", 18000], "trial": 1, "serialpos": 16, "trial_type": "single-audio", "trial_index": 71, "time_elapsed": 398574, "internal_node_id": "0.0-53.0"}}, {"uniqueid": "MTK0838:3HVVDCPGTFZ2T8EOF8YN8YGUBDFTY5", "current_trial": 72, "dateTime": 1512767659886, "trialdata": {"rt": -1000, "stimulus": "/static/audio/wordpool/PENGUIN.wav", "key_press": -1, "type": "PRES_AUD", "word": "penguin", "wordID": 1043, "conditions": [18, 1200, "a", 18000], "trial": 1, "serialpos": 17, "trial_type": "single-audio", "trial_index": 72, "time_elapsed": 400610, "internal_node_id": "0.0-54.0"}}, {"uniqueid": "MTK0838:3HVVDCPGTFZ2T8EOF8YN8YGUBDFTY5", "current_trial": 73, "dateTime": 1512767661257, "trialdata": {"rt": -1, "stimulus": "", "key_press": -1, "type": "PRE_RECALL_DELAY", "trial_type": "single-stim", "trial_index": 73, "time_elapsed": 401981, "internal_node_id": "0.0-55.0-0.0"}}, {"uniqueid": "MTK0838:3HVVDCPGTFZ2T8EOF8YN8YGUBDFTY5", "current_trial": 74, "dateTime": 1512767661772, "trialdata": {"rt": -1000, "stimulus": "/static/audio/400Hz.wav", "key_press": -1, "type": "PRE_RECALL_ALERT", "trial_type": "single-audio", "trial_index": 74, "time_elapsed": 402496, "internal_node_id": "0.0-56.0"}}, {"uniqueid": "MTK0838:3HVVDCPGTFZ2T8EOF8YN8YGUBDFTY5", "current_trial": 75, "dateTime": 1512767721803, "trialdata": {"rt": [2393, 3400, 6174, 8445, 18527, 36793, 51062], "recwords": ["panther", "space", "penquin", "police", "zipper", "mamel", "shovel"], "type": "FREE_RECALL", "conditions": [18, 1200, "a", 18000], "trial": 1, "trial_type": "free-recall", "trial_index": 75, "time_elapsed": 462494, "internal_node_id": "0.0-57.0-0.0"}}, {"uniqueid": "MTK0838:3HVVDCPGTFZ2T8EOF8YN8YGUBDFTY5", "current_trial": 76, "dateTime": 1512767726869, "trialdata": {"rt": 2944, "key_press": 13, "type": "INSTRUCTIONS", "trial_type": "text", "trial_index": 76, "time_elapsed": 467484, "internal_node_id": "0.0-58.0"}}, {"uniqueid": "MTK0838:3HVVDCPGTFZ2T8EOF8YN8YGUBDFTY5", "current_trial": 77, "dateTime": 1512767739894, "trialdata": {"rt": [2172, 3643, 6686, 10321], "responses": ["17", "16", "21", "21"], "num1": [7, 9, 7, 9, 3], "num2": [5, 1, 6, 3, 4], "num3": [5, 6, 8, 9, 8], "type": "DISTRACTOR", "conditions": [24, 800, "a", 12000], "trial": 2, "trial_type": "math-distractor", "trial_index": 77, "time_elapsed": 480617, "internal_node_id": "0.0-59.0"}}, {"uniqueid": "MTK0838:3HVVDCPGTFZ2T8EOF8YN8YGUBDFTY5", "current_trial": 78, "dateTime": 1512767742920, "trialdata": {"rt": -1, "stimulus": "<p id=\"stim\">10</p>", "key_press": -1, "trial_type": "single-stim", "trial_index": 78, "time_elapsed": 483644, "internal_node_id": "0.0-60.0-0.0"}}, {"uniqueid": "MTK0838:3HVVDCPGTFZ2T8EOF8YN8YGUBDFTY5", "current_trial": 79, "dateTime": 1512767743924, "trialdata": {"rt": -1, "stimulus": "<p id=\"stim\">9</p>", "key_press": -1, "trial_type": "single-stim", "trial_index": 79, "time_elapsed": 484648, "internal_node_id": "0.0-60.0-1.0"}}, {"uniqueid": "MTK0838:3HVVDCPGTFZ2T8EOF8YN8YGUBDFTY5", "current_trial": 80, "dateTime": 1512767744938, "trialdata": {"rt": -1, "stimulus": "<p id=\"stim\">8</p>", "key_press": -1, "trial_type": "single-stim", "trial_index": 80, "time_elapsed": 485662, "internal_node_id": "0.0-60.0-2.0"}}, {"uniqueid": "MTK0838:3HVVDCPGTFZ2T8EOF8YN8YGUBDFTY5", "current_trial": 81, "dateTime": 1512767745939, "trialdata": {"rt": -1, "stimulus": "<p id=\"stim\">7</p>", "key_press": -1, "trial_type": "single-stim", "trial_index": 81, "time_elapsed": 486663, "internal_node_id": "0.0-60.0-3.0"}}, {"uniqueid": "MTK0838:3HVVDCPGTFZ2T8EOF8YN8YGUBDFTY5", "current_trial": 82, "dateTime": 1512767746944, "trialdata": {"rt": -1, "stimulus": "<p id=\"stim\">6</p>", "key_press": -1, "trial_type": "single-stim", "trial_index": 82, "time_elapsed": 487668, "internal_node_id": "0.0-60.0-4.0"}}, {"uniqueid": "MTK0838:3HVVDCPGTFZ2T8EOF8YN8YGUBDFTY5", "current_trial": 83, "dateTime": 1512767747958, "trialdata": {"rt": -1, "stimulus": "<p id=\"stim\">5</p>", "key_press": -1, "trial_type": "single-stim", "trial_index": 83, "time_elapsed": 488682, "internal_node_id": "0.0-60.0-5.0"}}, {"uniqueid": "MTK0838:3HVVDCPGTFZ2T8EOF8YN8YGUBDFTY5", "current_trial": 84, "dateTime": 1512767748971, "trialdata": {"rt": -1, "stimulus": "<p id=\"stim\">4</p>", "key_press": -1, "trial_type": "single-stim", "trial_index": 84, "time_elapsed": 489695, "internal_node_id": "0.0-60.0-6.0"}}, {"uniqueid": "MTK0838:3HVVDCPGTFZ2T8EOF8YN8YGUBDFTY5", "current_trial": 85, "dateTime": 1512767749987, "trialdata": {"rt": -1, "stimulus": "<p id=\"stim\">3</p>", "key_press": -1, "trial_type": "single-stim", "trial_index": 85, "time_elapsed": 490711, "internal_node_id": "0.0-60.0-7.0"}}, {"uniqueid": "MTK0838:3HVVDCPGTFZ2T8EOF8YN8YGUBDFTY5", "current_trial": 86, "dateTime": 1512767750989, "trialdata": {"rt": -1, "stimulus": "<p id=\"stim\">2</p>", "key_press": -1, "trial_type": "single-stim", "trial_index": 86, "time_elapsed": 491713, "internal_node_id": "0.0-60.0-8.0"}}, {"uniqueid": "MTK0838:3HVVDCPGTFZ2T8EOF8YN8YGUBDFTY5", "current_trial": 87, "dateTime": 1512767752003, "trialdata": {"rt": -1, "stimulus": "<p id=\"stim\">1</p>", "key_press": -1, "trial_type": "single-stim", "trial_index": 87, "time_elapsed": 492727, "internal_node_id": "0.0-60.0-9.0"}}, {"uniqueid": "MTK0838:3HVVDCPGTFZ2T8EOF8YN8YGUBDFTY5", "current_trial": 88, "dateTime": 1512767753514, "trialdata": {"rt": -1, "stimulus": "<p id=\"stim\">+</p>", "key_press": -1, "type": "FIXATION", "trial_type": "single-stim", "trial_index": 88, "time_elapsed": 494238, "internal_node_id": "0.0-61.0-0.0"}}, {"uniqueid": "MTK0838:3HVVDCPGTFZ2T8EOF8YN8YGUBDFTY5", "current_trial": 89, "dateTime": 1512767755205, "trialdata": {"rt": -1000, "stimulus": "/static/audio/wordpool/CAFE.wav", "key_press": -1, "type": "PRES_AUD", "word": "cafe", "wordID": 215, "conditions": [24, 800, "a", 12000], "trial": 2, "serialpos": 0, "trial_type": "single-audio", "trial_index": 89, "time_elapsed": 495929, "internal_node_id": "0.0-62.0"}}, {"uniqueid": "MTK0838:3HVVDCPGTFZ2T8EOF8YN8YGUBDFTY5", "current_trial": 90, "dateTime": 1512767756964, "trialdata": {"rt": -1000, "stimulus": "/static/audio/wordpool/SLIDE.wav", "key_press": -1, "type": "PRES_AUD", "word": "slide", "wordID": 1325, "conditions": [24, 800, "a", 12000], "trial": 2, "serialpos": 1, "trial_type": "single-audio", "trial_index": 90, "time_elapsed": 497688, "internal_node_id": "0.0-63.0"}}, {"uniqueid": "MTK0838:3HVVDCPGTFZ2T8EOF8YN8YGUBDFTY5", "current_trial": 91, "dateTime": 1512767758851, "trialdata": {"rt": -1000, "stimulus": "/static/audio/wordpool/SUPPER.wav", "key_press": -1, "type": "PRES_AUD", "word": "supper", "wordID": 1410, "conditions": [24, 800, "a", 12000], "trial": 2, "serialpos": 2, "trial_type": "single-audio", "trial_index": 91, "time_elapsed": 499575, "internal_node_id": "0.0-64.0"}}, {"uniqueid": "MTK0838:3HVVDCPGTFZ2T8EOF8YN8YGUBDFTY5", "current_trial": 92, "dateTime": 1512767760454, "trialdata": {"rt": -1000, "stimulus": "/static/audio/wordpool/PICNIC.wav", "key_press": -1, "type": "PRES_AUD", "word": "picnic", "wordID": 1059, "conditions": [24, 800, "a", 12000], "trial": 2, "serialpos": 3, "trial_type": "single-audio", "trial_index": 92, "time_elapsed": 501178, "internal_node_id": "0.0-65.0"}}, {"uniqueid": "MTK0838:3HVVDCPGTFZ2T8EOF8YN8YGUBDFTY5", "current_trial": 93, "dateTime": 1512767762119, "trialdata": {"rt": -1000, "stimulus": "/static/audio/wordpool/OYSTER.wav", "key_press": -1, "type": "PRES_AUD", "word": "oyster", "wordID": 994, "conditions": [24, 800, "a", 12000], "trial": 2, "serialpos": 4, "trial_type": "single-audio", "trial_index": 93, "time_elapsed": 502843, "internal_node_id": "0.0-66.0"}}, {"uniqueid": "MTK0838:3HVVDCPGTFZ2T8EOF8YN8YGUBDFTY5", "current_trial": 94, "dateTime": 1512767763829, "trialdata": {"rt": -1000, "stimulus": "/static/audio/wordpool/UNCLE.wav", "key_press": -1, "type": "PRES_AUD", "word": "uncle", "wordID": 1535, "conditions": [24, 800, "a", 12000], "trial": 2, "serialpos": 5, "trial_type": "single-audio", "trial_index": 94, "time_elapsed": 504553, "internal_node_id": "0.0-67.0"}}, {"uniqueid": "MTK0838:3HVVDCPGTFZ2T8EOF8YN8YGUBDFTY5", "current_trial": 95, "dateTime": 1512767765779, "trialdata": {"rt": -1000, "stimulus": "/static/audio/wordpool/OINTMENT.wav", "key_press": -1, "type": "PRES_AUD", "word": "ointment", "wordID": 973, "conditions": [24, 800, "a", 12000], "trial": 2, "serialpos": 6, "trial_type": "single-audio", "trial_index": 95, "time_elapsed": 506503, "internal_node_id": "0.0-68.0"}}, {"uniqueid": "MTK0838:3HVVDCPGTFZ2T8EOF8YN8YGUBDFTY5", "current_trial": 96, "dateTime": 1512767767416, "trialdata": {"rt": -1000, "stimulus": "/static/audio/wordpool/CAMEL.wav", "key_press": -1, "type": "PRES_AUD", "word": "camel", "wordID": 222, "conditions": [24, 800, "a", 12000], "trial": 2, "serialpos": 7, "trial_type": "single-audio", "trial_index": 96, "time_elapsed": 508140, "internal_node_id": "0.0-69.0"}}, {"uniqueid": "MTK0838:3HVVDCPGTFZ2T8EOF8YN8YGUBDFTY5", "current_trial": 97, "dateTime": 1512767769112, "trialdata": {"rt": -1000, "stimulus": "/static/audio/wordpool/GLASS.wav", "key_press": -1, "type": "PRES_AUD", "word": "glass", "wordID": 638, "conditions": [24, 800, "a", 12000], "trial": 2, "serialpos": 8, "trial_type": "single-audio", "trial_index": 97, "time_elapsed": 509836, "internal_node_id": "0.0-70.0"}}, {"uniqueid": "MTK0838:3HVVDCPGTFZ2T8EOF8YN8YGUBDFTY5", "current_trial": 98, "dateTime": 1512767770800, "trialdata": {"rt": -1000, "stimulus": "/static/audio/wordpool/BASEMENT.wav", "key_press": -1, "type": "PRES_AUD", "word": "basement", "wordID": 93, "conditions": [24, 800, "a", 12000], "trial": 2, "serialpos": 9, "trial_type": "single-audio", "trial_index": 98, "time_elapsed": 511524, "internal_node_id": "0.0-71.0"}}, {"uniqueid": "MTK0838:3HVVDCPGTFZ2T8EOF8YN8YGUBDFTY5", "current_trial": 99, "dateTime": 1512767772666, "trialdata": {"rt": -1000, "stimulus": "/static/audio/wordpool/FRIEND.wav", "key_press": -1, "type": "PRES_AUD", "word": "friend", "wordID": 605, "conditions": [24, 800, "a", 12000], "trial": 2, "serialpos": 10, "trial_type": "single-audio", "trial_index": 99, "time_elapsed": 513390, "internal_node_id": "0.0-72.0"}}, {"uniqueid": "MTK0838:3HVVDCPGTFZ2T8EOF8YN8YGUBDFTY5", "current_trial": 100, "dateTime": 1512767774637, "trialdata": {"rt": -1000, "stimulus": "/static/audio/wordpool/LEG.wav", "key_press": -1, "type": "PRES_AUD", "word": "leg", "wordID": 808, "conditions": [24, 800, "a", 12000], "trial": 2, "serialpos": 11, "trial_type": "single-audio", "trial_index": 100, "time_elapsed": 515361, "internal_node_id": "0.0-73.0"}}, {"uniqueid": "MTK0838:3HVVDCPGTFZ2T8EOF8YN8YGUBDFTY5", "current_trial": 101, "dateTime": 1512767776576, "trialdata": {"rt": -1000, "stimulus": "/static/audio/wordpool/PEBBLE.wav", "key_press": -1, "type": "PRES_AUD", "word": "pebble", "wordID": 1034, "conditions": [24, 800, "a", 12000], "trial": 2, "serialpos": 12, "trial_type": "single-audio", "trial_index": 101, "time_elapsed": 517300, "internal_node_id": "0.0-74.0"}}, {"uniqueid": "MTK0838:3HVVDCPGTFZ2T8EOF8YN8YGUBDFTY5", "current_trial": 102, "dateTime": 1512767778287, "trialdata": {"rt": -1000, "stimulus": "/static/audio/wordpool/SCALLOP.wav", "key_press": -1, "type": "PRES_AUD", "word": "scallop", "wordID": 1241, "conditions": [24, 800, "a", 12000], "trial": 2, "serialpos": 13, "trial_type": "single-audio", "trial_index": 102, "time_elapsed": 519011, "internal_node_id": "0.0-75.0"}}, {"uniqueid": "MTK0838:3HVVDCPGTFZ2T8EOF8YN8YGUBDFTY5", "current_trial": 103, "dateTime": 1512767780008, "trialdata": {"rt": -1000, "stimulus": "/static/audio/wordpool/BINDER.wav", "key_press": -1, "type": "PRES_AUD", "word": "binder", "wordID": 126, "conditions": [24, 800, "a", 12000], "trial": 2, "serialpos": 14, "trial_type": "single-audio", "trial_index": 103, "time_elapsed": 520732, "internal_node_id": "0.0-76.0"}}, {"uniqueid": "MTK0838:3HVVDCPGTFZ2T8EOF8YN8YGUBDFTY5", "current_trial": 104, "dateTime": 1512767781997, "trialdata": {"rt": -1000, "stimulus": "/static/audio/wordpool/ISLAND.wav", "key_press": -1, "type": "PRES_AUD", "word": "island", "wordID": 744, "conditions": [24, 800, "a", 12000], "trial": 2, "serialpos": 15, "trial_type": "single-audio", "trial_index": 104, "time_elapsed": 522721, "internal_node_id": "0.0-77.0"}}, {"uniqueid": "MTK0838:3HVVDCPGTFZ2T8EOF8YN8YGUBDFTY5", "current_trial": 105, "dateTime": 1512767783710, "trialdata": {"rt": -1000, "stimulus": "/static/audio/wordpool/DRESS.wav", "key_press": -1, "type": "PRES_AUD", "word": "dress", "wordID": 494, "conditions": [24, 800, "a", 12000], "trial": 2, "serialpos": 16, "trial_type": "single-audio", "trial_index": 105, "time_elapsed": 524434, "internal_node_id": "0.0-78.0"}}, {"uniqueid": "MTK0838:3HVVDCPGTFZ2T8EOF8YN8YGUBDFTY5", "current_trial": 106, "dateTime": 1512767785347, "trialdata": {"rt": -1000, "stimulus": "/static/audio/wordpool/PORK.wav", "key_press": -1, "type": "PRES_AUD", "word": "pork", "wordID": 1107, "conditions": [24, 800, "a", 12000], "trial": 2, "serialpos": 17, "trial_type": "single-audio", "trial_index": 106, "time_elapsed": 526071, "internal_node_id": "0.0-79.0"}}, {"uniqueid": "MTK0838:3HVVDCPGTFZ2T8EOF8YN8YGUBDFTY5", "current_trial": 107, "dateTime": 1512767787211, "trialdata": {"rt": -1000, "stimulus": "/static/audio/wordpool/MILK.wav", "key_press": -1, "type": "PRES_AUD", "word": "milk", "wordID": 894, "conditions": [24, 800, "a", 12000], "trial": 2, "serialpos": 18, "trial_type": "single-audio", "trial_index": 107, "time_elapsed": 527935, "internal_node_id": "0.0-80.0"}}, {"uniqueid": "MTK0838:3HVVDCPGTFZ2T8EOF8YN8YGUBDFTY5", "current_trial": 108, "dateTime": 1512767789190, "trialdata": {"rt": -1000, "stimulus": "/static/audio/wordpool/TRIBE.wav", "key_press": -1, "type": "PRES_AUD", "word": "tribe", "wordID": 1504, "conditions": [24, 800, "a", 12000], "trial": 2, "serialpos": 19, "trial_type": "single-audio", "trial_index": 108, "time_elapsed": 529914, "internal_node_id": "0.0-81.0"}}, {"uniqueid": "MTK0838:3HVVDCPGTFZ2T8EOF8YN8YGUBDFTY5", "current_trial": 109, "dateTime": 1512767790828, "trialdata": {"rt": -1000, "stimulus": "/static/audio/wordpool/TUTU.wav", "key_press": -1, "type": "PRES_AUD", "word": "tutu", "wordID": 1523, "conditions": [24, 800, "a", 12000], "trial": 2, "serialpos": 20, "trial_type": "single-audio", "trial_index": 109, "time_elapsed": 531552, "internal_node_id": "0.0-82.0"}}, {"uniqueid": "MTK0838:3HVVDCPGTFZ2T8EOF8YN8YGUBDFTY5", "current_trial": 110, "dateTime": 1512767792508, "trialdata": {"rt": -1000, "stimulus": "/static/audio/wordpool/HIKER.wav", "key_press": -1, "type": "PRES_AUD", "word": "hiker", "wordID": 707, "conditions": [24, 800, "a", 12000], "trial": 2, "serialpos": 21, "trial_type": "single-audio", "trial_index": 110, "time_elapsed": 533232, "internal_node_id": "0.0-83.0"}}, {"uniqueid": "MTK0838:3HVVDCPGTFZ2T8EOF8YN8YGUBDFTY5", "current_trial": 111, "dateTime": 1512767794413, "trialdata": {"rt": -1000, "stimulus": "/static/audio/wordpool/CLIMBER.wav", "key_press": -1, "type": "PRES_AUD", "word": "climber", "wordID": 322, "conditions": [24, 800, "a", 12000], "trial": 2, "serialpos": 22, "trial_type": "single-audio", "trial_index": 111, "time_elapsed": 535137, "internal_node_id": "0.0-84.0"}}, {"uniqueid": "MTK0838:3HVVDCPGTFZ2T8EOF8YN8YGUBDFTY5", "current_trial": 112, "dateTime": 1512767796257, "trialdata": {"rt": -1000, "stimulus": "/static/audio/wordpool/CREATURE.wav", "key_press": -1, "type": "PRES_AUD", "word": "creature", "wordID": 402, "conditions": [24, 800, "a", 12000], "trial": 2, "serialpos": 23, "trial_type": "single-audio", "trial_index": 112, "time_elapsed": 536981, "internal_node_id": "0.0-85.0"}}, {"uniqueid": "MTK0838:3HVVDCPGTFZ2T8EOF8YN8YGUBDFTY5", "current_trial": 113, "dateTime": 1512767797552, "trialdata": {"rt": -1, "stimulus": "", "key_press": -1, "type": "PRE_RECALL_DELAY", "trial_type": "single-stim", "trial_index": 113, "time_elapsed": 538276, "internal_node_id": "0.0-86.0-0.0"}}, {"uniqueid": "MTK0838:3HVVDCPGTFZ2T8EOF8YN8YGUBDFTY5", "current_trial": 114, "dateTime": 1512767798054, "trialdata": {"rt": -1000, "stimulus": "/static/audio/400Hz.wav", "key_press": -1, "type": "PRE_RECALL_ALERT", "trial_type": "single-audio", "trial_index": 114, "time_elapsed": 538778, "internal_node_id": "0.0-87.0"}}, {"uniqueid": "MTK0838:3HVVDCPGTFZ2T8EOF8YN8YGUBDFTY5", "current_trial": 115, "dateTime": 1512767858135, "trialdata": {"rt": [4344, 5523, 6847, 7994, 11796, 14286, 18760, 23371, 25977, 37228], "recwords": ["hiker", "climber", "creature", "pork", "oyster", "scallop", "dinner", "cafe", "uncle", "freind"], "type": "FREE_RECALL", "conditions": [24, 800, "a", 12000], "trial": 2, "trial_type": "free-recall", "trial_index": 115, "time_elapsed": 598793, "internal_node_id": "0.0-88.0-0.0"}}, {"uniqueid": "MTK0838:3HVVDCPGTFZ2T8EOF8YN8YGUBDFTY5", "current_trial": 116, "dateTime": 1512767860999, "trialdata": {"rt": 841, "key_press": 75, "type": "INSTRUCTIONS", "trial_type": "text", "trial_index": 116, "time_elapsed": 601723, "internal_node_id": "0.0-89.0"}}, {"uniqueid": "MTK0838:3HVVDCPGTFZ2T8EOF8YN8YGUBDFTY5", "current_trial": 117, "dateTime": 1512767887013, "trialdata": {"rt": [1808, 3824, 5403, 7710, 10526, 12135, 14062, 15635, 17455, 19389, 21535, 23367], "responses": ["21", "23", "10", "14", "21", "12", "19", "9", "16", "17", "15", "10"], "num1": [8, 8, 5, 1, 9, 7, 9, 4, 7, 8, 4, 2, 4], "num2": [8, 9, 4, 6, 9, 3, 6, 3, 6, 4, 7, 2, 6], "num3": [5, 6, 1, 7, 3, 2, 4, 2, 3, 5, 4, 6, 9], "type": "DISTRACTOR", "conditions": [24, 800, "v", 24000], "trial": 3, "trial_type": "math-distractor", "trial_index": 117, "time_elapsed": 627737, "internal_node_id": "0.0-90.0"}}, {"uniqueid": "MTK0838:3HVVDCPGTFZ2T8EOF8YN8YGUBDFTY5", "current_trial": 118, "dateTime": 1512767890038, "trialdata": {"rt": -1, "stimulus": "<p id=\"stim\">10</p>", "key_press": -1, "trial_type": "single-stim", "trial_index": 118, "time_elapsed": 630762, "internal_node_id": "0.0-91.0-0.0"}}, {"uniqueid": "MTK0838:3HVVDCPGTFZ2T8EOF8YN8YGUBDFTY5", "current_trial": 119, "dateTime": 1512767891041, "trialdata": {"rt": -1, "stimulus": "<p id=\"stim\">9</p>", "key_press": -1, "trial_type": "single-stim", "trial_index": 119, "time_elapsed": 631765, "internal_node_id": "0.0-91.0-1.0"}}, {"uniqueid": "MTK0838:3HVVDCPGTFZ2T8EOF8YN8YGUBDFTY5", "current_trial": 120, "dateTime": 1512767892048, "trialdata": {"rt": -1, "stimulus": "<p id=\"stim\">8</p>", "key_press": -1, "trial_type": "single-stim", "trial_index": 120, "time_elapsed": 632772, "internal_node_id": "0.0-91.0-2.0"}}, {"uniqueid": "MTK0838:3HVVDCPGTFZ2T8EOF8YN8YGUBDFTY5", "current_trial": 121, "dateTime": 1512767893052, "trialdata": {"rt": -1, "stimulus": "<p id=\"stim\">7</p>", "key_press": -1, "trial_type": "single-stim", "trial_index": 121, "time_elapsed": 633776, "internal_node_id": "0.0-91.0-3.0"}}, {"uniqueid": "MTK0838:3HVVDCPGTFZ2T8EOF8YN8YGUBDFTY5", "current_trial": 122, "dateTime": 1512767894054, "trialdata": {"rt": -1, "stimulus": "<p id=\"stim\">6</p>", "key_press": -1, "trial_type": "single-stim", "trial_index": 122, "time_elapsed": 634778, "internal_node_id": "0.0-91.0-4.0"}}, {"uniqueid": "MTK0838:3HVVDCPGTFZ2T8EOF8YN8YGUBDFTY5", "current_trial": 123, "dateTime": 1512767895055, "trialdata": {"rt": -1, "stimulus": "<p id=\"stim\">5</p>", "key_press": -1, "trial_type": "single-stim", "trial_index": 123, "time_elapsed": 635779, "internal_node_id": "0.0-91.0-5.0"}}, {"uniqueid": "MTK0838:3HVVDCPGTFZ2T8EOF8YN8YGUBDFTY5", "current_trial": 124, "dateTime": 1512767896070, "trialdata": {"rt": -1, "stimulus": "<p id=\"stim\">4</p>", "key_press": -1, "trial_type": "single-stim", "trial_index": 124, "time_elapsed": 636794, "internal_node_id": "0.0-91.0-6.0"}}, {"uniqueid": "MTK0838:3HVVDCPGTFZ2T8EOF8YN8YGUBDFTY5", "current_trial": 125, "dateTime": 1512767897073, "trialdata": {"rt": -1, "stimulus": "<p id=\"stim\">3</p>", "key_press": -1, "trial_type": "single-stim", "trial_index": 125, "time_elapsed": 637797, "internal_node_id": "0.0-91.0-7.0"}}, {"uniqueid": "MTK0838:3HVVDCPGTFZ2T8EOF8YN8YGUBDFTY5", "current_trial": 126, "dateTime": 1512767898088, "trialdata": {"rt": -1, "stimulus": "<p id=\"stim\">2</p>", "key_press": -1, "trial_type": "single-stim", "trial_index": 126, "time_elapsed": 638812, "internal_node_id": "0.0-91.0-8.0"}}, {"uniqueid": "MTK0838:3HVVDCPGTFZ2T8EOF8YN8YGUBDFTY5", "current_trial": 127, "dateTime": 1512767899088, "trialdata": {"rt": -1, "stimulus": "<p id=\"stim\">1</p>", "key_press": -1, "trial_type": "single-stim", "trial_index": 127, "time_elapsed": 639812, "internal_node_id": "0.0-91.0-9.0"}}, {"uniqueid": "MTK0838:3HVVDCPGTFZ2T8EOF8YN8YGUBDFTY5", "current_trial": 128, "dateTime": 1512767900602, "trialdata": {"rt": -1, "stimulus": "<p id=\"stim\">+</p>", "key_press": -1, "type": "FIXATION", "trial_type": "single-stim", "trial_index": 128, "time_elapsed": 641326, "internal_node_id": "0.0-92.0-0.0"}}, {"uniqueid": "MTK0838:3HVVDCPGTFZ2T8EOF8YN8YGUBDFTY5", "current_trial": 129, "dateTime": 1512767901415, "trialdata": {"rt": -1, "stimulus": "<p id=\"stim\">COOK</p>", "key_press": -1, "type": "PRES_VIS", "word": "cook", "wordID": 371, "conditions": [24, 800, "v", 24000], "trial": 3, "serialpos": 0, "trial_type": "single-stim", "trial_index": 129, "time_elapsed": 642139, "internal_node_id": "0.0-93.0"}}, {"uniqueid": "MTK0838:3HVVDCPGTFZ2T8EOF8YN8YGUBDFTY5", "current_trial": 130, "dateTime": 1512767903019, "trialdata": {"rt": -1, "stimulus": "<p id=\"stim\">REBEL</p>", "key_press": -1, "type": "PRES_VIS", "word": "rebel", "wordID": 1171, "conditions": [24, 800, "v", 24000], "trial": 3, "serialpos": 1, "trial_type": "single-stim", "trial_index": 130, "time_elapsed": 643743, "internal_node_id": "0.0-94.0"}}, {"uniqueid": "MTK0838:3HVVDCPGTFZ2T8EOF8YN8YGUBDFTY5", "current_trial": 131, "dateTime": 1512767904882, "trialdata": {"rt": -1, "stimulus": "<p id=\"stim\">PARTNER</p>", "key_press": -1, "type": "PRES_VIS", "word": "partner", "wordID": 1016, "conditions": [24, 800, "v", 24000], "trial": 3, "serialpos": 2, "trial_type": "single-stim", "trial_index": 131, "time_elapsed": 645591, "internal_node_id": "0.0-95.0"}}, {"uniqueid": "MTK0838:3HVVDCPGTFZ2T8EOF8YN8YGUBDFTY5", "current_trial": 132, "dateTime": 1512767906588, "trialdata": {"rt": -1, "stimulus": "<p id=\"stim\">KITCHEN</p>", "key_press": -1, "type": "PRES_VIS", "word": "kitchen", "wordID": 777, "conditions": [24, 800, "v", 24000], "trial": 3, "serialpos": 3, "trial_type": "single-stim", "trial_index": 132, "time_elapsed": 647312, "internal_node_id": "0.0-96.0"}}, {"uniqueid": "MTK0838:3HVVDCPGTFZ2T8EOF8YN8YGUBDFTY5", "current_trial": 133, "dateTime": 1512767908372, "trialdata": {"rt": -1, "stimulus": "<p id=\"stim\">RADISH</p>", "key_press": -1, "type": "PRES_VIS", "word": "radish", "wordID": 1157, "conditions": [24, 800, "v", 24000], "trial": 3, "serialpos": 4, "trial_type": "single-stim", "trial_index": 133, "time_elapsed": 649096, "internal_node_id": "0.0-97.0"}}, {"uniqueid": "MTK0838:3HVVDCPGTFZ2T8EOF8YN8YGUBDFTY5", "current_trial": 134, "dateTime": 1512767910237, "trialdata": {"rt": -1, "stimulus": "<p id=\"stim\">TURNIP</p>", "key_press": -1, "type": "PRES_VIS", "word": "turnip", "wordID": 1520, "conditions": [24, 800, "v", 24000], "trial": 3, "serialpos": 5, "trial_type": "single-stim", "trial_index": 134, "time_elapsed": 650961, "internal_node_id": "0.0-98.0"}}, {"uniqueid": "MTK0838:3HVVDCPGTFZ2T8EOF8YN8YGUBDFTY5", "current_trial": 135, "dateTime": 1512767912187, "trialdata": {"rt": -1, "stimulus": "<p id=\"stim\">GOBLIN</p>", "key_press": -1, "type": "PRES_VIS", "word": "goblin", "wordID": 644, "conditions": [24, 800, "v", 24000], "trial": 3, "serialpos": 6, "trial_type": "single-stim", "trial_index": 135, "time_elapsed": 652911, "internal_node_id": "0.0-99.0"}}, {"uniqueid": "MTK0838:3HVVDCPGTFZ2T8EOF8YN8YGUBDFTY5", "current_trial": 136, "dateTime": 1512767914040, "trialdata": {"rt": -1, "stimulus": "<p id=\"stim\">ARMY</p>", "key_press": -1, "type": "PRES_VIS", "word": "army", "wordID": 38, "conditions": [24, 800, "v", 24000], "trial": 3, "serialpos": 7, "trial_type": "single-stim", "trial_index": 136, "time_elapsed": 654764, "internal_node_id": "0.0-100.0"}}, {"uniqueid": "MTK0838:3HVVDCPGTFZ2T8EOF8YN8YGUBDFTY5", "current_trial": 137, "dateTime": 1512767915691, "trialdata": {"rt": -1, "stimulus": "<p id=\"stim\">GRILL</p>", "key_press": -1, "type": "PRES_VIS", "word": "grill", "wordID": 660, "conditions": [24, 800, "v", 24000], "trial": 3, "serialpos": 8, "trial_type": "single-stim", "trial_index": 137, "time_elapsed": 656415, "internal_node_id": "0.0-101.0"}}, {"uniqueid": "MTK0838:3HVVDCPGTFZ2T8EOF8YN8YGUBDFTY5", "current_trial": 138, "dateTime": 1512767917486, "trialdata": {"rt": -1, "stimulus": "<p id=\"stim\">BROOK</p>", "key_press": -1, "type": "PRES_VIS", "word": "brook", "wordID": 176, "conditions": [24, 800, "v", 24000], "trial": 3, "serialpos": 9, "trial_type": "single-stim", "trial_index": 138, "time_elapsed": 658210, "internal_node_id": "0.0-102.0"}}, {"uniqueid": "MTK0838:3HVVDCPGTFZ2T8EOF8YN8YGUBDFTY5", "current_trial": 139, "dateTime": 1512767919340, "trialdata": {"rt": -1, "stimulus": "<p id=\"stim\">GRAVE</p>", "key_press": -1, "type": "PRES_VIS", "word": "grave", "wordID": 657, "conditions": [24, 800, "v", 24000], "trial": 3, "serialpos": 10, "trial_type": "single-stim", "trial_index": 139, "time_elapsed": 660064, "internal_node_id": "0.0-103.0"}}, {"uniqueid": "MTK0838:3HVVDCPGTFZ2T8EOF8YN8YGUBDFTY5", "current_trial": 140, "dateTime": 1512767921220, "trialdata": {"rt": -1, "stimulus": "<p id=\"stim\">CABBAGE</p>", "key_press": -1, "type": "PRES_VIS", "word": "cabbage", "wordID": 209, "conditions": [24, 800, "v", 24000], "trial": 3, "serialpos": 11, "trial_type": "single-stim", "trial_index": 140, "time_elapsed": 661944, "internal_node_id": "0.0-104.0"}}, {"uniqueid": "MTK0838:3HVVDCPGTFZ2T8EOF8YN8YGUBDFTY5", "current_trial": 141, "dateTime": 1512767923088, "trialdata": {"rt": -1, "stimulus": "<p id=\"stim\">FLESH</p>", "key_press": -1, "type": "PRES_VIS", "word": "flesh", "wordID": 578, "conditions": [24, 800, "v", 24000], "trial": 3, "serialpos": 12, "trial_type": "single-stim", "trial_index": 141, "time_elapsed": 663812, "internal_node_id": "0.0-105.0"}}, {"uniqueid": "MTK0838:3HVVDCPGTFZ2T8EOF8YN8YGUBDFTY5", "current_trial": 142, "dateTime": 1512767924887, "trialdata": {"rt": -1, "stimulus": "<p id=\"stim\">LODGE</p>", "key_press": -1, "type": "PRES_VIS", "word": "lodge", "wordID": 838, "conditions": [24, 800, "v", 24000], "trial": 3, "serialpos": 13, "trial_type": "single-stim", "trial_index": 142, "time_elapsed": 665611, "internal_node_id": "0.0-106.0"}}, {"uniqueid": "MTK0838:3HVVDCPGTFZ2T8EOF8YN8YGUBDFTY5", "current_trial": 143, "dateTime": 1512767926705, "trialdata": {"rt": -1, "stimulus": "<p id=\"stim\">SIDEWALK</p>", "key_press": -1, "type": "PRES_VIS", "word": "sidewalk", "wordID": 1302, "conditions": [24, 800, "v", 24000], "trial": 3, "serialpos": 14, "trial_type": "single-stim", "trial_index": 143, "time_elapsed": 667429, "internal_node_id": "0.0-107.0"}}, {"uniqueid": "MTK0838:3HVVDCPGTFZ2T8EOF8YN8YGUBDFTY5", "current_trial": 144, "dateTime": 1512767928552, "trialdata": {"rt": -1, "stimulus": "<p id=\"stim\">FIREPLACE</p>", "key_press": -1, "type": "PRES_VIS", "word": "fireplace", "wordID": 569, "conditions": [24, 800, "v", 24000], "trial": 3, "serialpos": 15, "trial_type": "single-stim", "trial_index": 144, "time_elapsed": 669276, "internal_node_id": "0.0-108.0"}}, {"uniqueid": "MTK0838:3HVVDCPGTFZ2T8EOF8YN8YGUBDFTY5", "current_trial": 145, "dateTime": 1512767930202, "trialdata": {"rt": -1, "stimulus": "<p id=\"stim\">TRACTOR</p>", "key_press": -1, "type": "PRES_VIS", "word": "tractor", "wordID": 1492, "conditions": [24, 800, "v", 24000], "trial": 3, "serialpos": 16, "trial_type": "single-stim", "trial_index": 145, "time_elapsed": 670926, "internal_node_id": "0.0-109.0"}}, {"uniqueid": "MTK0838:3HVVDCPGTFZ2T8EOF8YN8YGUBDFTY5", "current_trial": 146, "dateTime": 1512767931839, "trialdata": {"rt": -1, "stimulus": "<p id=\"stim\">JUNGLE</p>", "key_press": -1, "type": "PRES_VIS", "word": "jungle", "wordID": 763, "conditions": [24, 800, "v", 24000], "trial": 3, "serialpos": 17, "trial_type": "single-stim", "trial_index": 146, "time_elapsed": 672563, "internal_node_id": "0.0-110.0"}}, {"uniqueid": "MTK0838:3HVVDCPGTFZ2T8EOF8YN8YGUBDFTY5", "current_trial": 147, "dateTime": 1512767933486, "trialdata": {"rt": -1, "stimulus": "<p id=\"stim\">PIGMENT</p>", "key_press": -1, "type": "PRES_VIS", "word": "pigment", "wordID": 1065, "conditions": [24, 800, "v", 24000], "trial": 3, "serialpos": 18, "trial_type": "single-stim", "trial_index": 147, "time_elapsed": 674210, "internal_node_id": "0.0-111.0"}}, {"uniqueid": "MTK0838:3HVVDCPGTFZ2T8EOF8YN8YGUBDFTY5", "current_trial": 148, "dateTime": 1512767935486, "trialdata": {"rt": -1, "stimulus": "<p id=\"stim\">WAGON</p>", "key_press": -1, "type": "PRES_VIS", "word": "wagon", "wordID": 1577, "conditions": [24, 800, "v", 24000], "trial": 3, "serialpos": 19, "trial_type": "single-stim", "trial_index": 148, "time_elapsed": 676210, "internal_node_id": "0.0-112.0"}}, {"uniqueid": "MTK0838:3HVVDCPGTFZ2T8EOF8YN8YGUBDFTY5", "current_trial": 149, "dateTime": 1512767937186, "trialdata": {"rt": -1, "stimulus": "<p id=\"stim\">BEEF</p>", "key_press": -1, "type": "PRES_VIS", "word": "beef", "wordID": 112, "conditions": [24, 800, "v", 24000], "trial": 3, "serialpos": 20, "trial_type": "single-stim", "trial_index": 149, "time_elapsed": 677910, "internal_node_id": "0.0-113.0"}}, {"uniqueid": "MTK0838:3HVVDCPGTFZ2T8EOF8YN8YGUBDFTY5", "current_trial": 150, "dateTime": 1512767939137, "trialdata": {"rt": -1, "stimulus": "<p id=\"stim\">DENIM</p>", "key_press": -1, "type": "PRES_VIS", "word": "denim", "wordID": 445, "conditions": [24, 800, "v", 24000], "trial": 3, "serialpos": 21, "trial_type": "single-stim", "trial_index": 150, "time_elapsed": 679861, "internal_node_id": "0.0-114.0"}}, {"uniqueid": "MTK0838:3HVVDCPGTFZ2T8EOF8YN8YGUBDFTY5", "current_trial": 151, "dateTime": 1512767940990, "trialdata": {"rt": -1, "stimulus": "<p id=\"stim\">SUITCASE</p>", "key_press": -1, "type": "PRES_VIS", "word": "suitcase", "wordID": 1402, "conditions": [24, 800, "v", 24000], "trial": 3, "serialpos": 22, "trial_type": "single-stim", "trial_index": 151, "time_elapsed": 681714, "internal_node_id": "0.0-115.0"}}, {"uniqueid": "MTK0838:3HVVDCPGTFZ2T8EOF8YN8YGUBDFTY5", "current_trial": 152, "dateTime": 1512767942672, "trialdata": {"rt": -1, "stimulus": "<p id=\"stim\">LUGGAGE</p>", "key_press": -1, "type": "PRES_VIS", "word": "luggage", "wordID": 846, "conditions": [24, 800, "v", 24000], "trial": 3, "serialpos": 23, "trial_type": "single-stim", "trial_index": 152, "time_elapsed": 683396, "internal_node_id": "0.0-116.0"}}, {"uniqueid": "MTK0838:3HVVDCPGTFZ2T8EOF8YN8YGUBDFTY5", "current_trial": 153, "dateTime": 1512767944872, "trialdata": {"rt": -1, "stimulus": "", "key_press": -1, "type": "PRE_RECALL_DELAY", "trial_type": "single-stim", "trial_index": 153, "time_elapsed": 685596, "internal_node_id": "0.0-117.0-0.0"}}, {"uniqueid": "MTK0838:3HVVDCPGTFZ2T8EOF8YN8YGUBDFTY5", "current_trial": 154, "dateTime": 1512767945374, "trialdata": {"rt": -1000, "stimulus": "/static/audio/400Hz.wav", "key_press": -1, "type": "PRE_RECALL_ALERT", "trial_type": "single-audio", "trial_index": 154, "time_elapsed": 686098, "internal_node_id": "0.0-118.0"}}, {"uniqueid": "MTK0838:3HVVDCPGTFZ2T8EOF8YN8YGUBDFTY5", "current_trial": 155, "dateTime": 1512768005471, "trialdata": {"rt": [3715, 6781, 7884, 9221, 11231, 17345, 28646, 33910], "recwords": ["luggage", "suitcase", "denim", "rebel", "partner", "grave", "cabbage", "turnip"], "type": "FREE_RECALL", "conditions": [24, 800, "v", 24000], "trial": 3, "trial_type": "free-recall", "trial_index": 155, "time_elapsed": 746106, "internal_node_id": "0.0-119.0-0.0"}}, {"uniqueid": "MTK0838:3HVVDCPGTFZ2T8EOF8YN8YGUBDFTY5", "current_trial": 156, "dateTime": 1512768009209, "trialdata": {"rt": 1719, "key_press": 13, "type": "INSTRUCTIONS", "trial_type": "text", "trial_index": 156, "time_elapsed": 749933, "internal_node_id": "0.0-120.0"}}, {"uniqueid": "MTK0838:3HVVDCPGTFZ2T8EOF8YN8YGUBDFTY5", "current_trial": 157, "dateTime": 1512768035246, "trialdata": {"rt": [1760, 4640, 6155, 8450, 10180, 12720, 14536, 16846, 18293, 19959, 21504, 23698], "responses": ["15", "10", "14", "12", "7", "16", "13", "23", "19", "17", "19", "20"], "num1": [3, 1, 9, 7, 1, 6, 1, 7, 8, 6, 8, 7, 1], "num2": [8, 2, 1, 3, 2, 7, 8, 9, 2, 7, 2, 4, 9], "num3": [4, 7, 4, 2, 4, 3, 4, 7, 9, 4, 9, 9, 8], "type": "DISTRACTOR", "conditions": [24, 1600, "v", 24000], "trial": 4, "trial_type": "math-distractor", "trial_index": 157, "time_elapsed": 775970, "internal_node_id": "0.0-121.0"}}, {"uniqueid": "MTK0838:3HVVDCPGTFZ2T8EOF8YN8YGUBDFTY5", "current_trial": 158, "dateTime": 1512768038263, "trialdata": {"rt": -1, "stimulus": "<p id=\"stim\">10</p>", "key_press": -1, "trial_type": "single-stim", "trial_index": 158, "time_elapsed": 778987, "internal_node_id": "0.0-122.0-0.0"}}, {"uniqueid": "MTK0838:3HVVDCPGTFZ2T8EOF8YN8YGUBDFTY5", "current_trial": 159, "dateTime": 1512768039265, "trialdata": {"rt": -1, "stimulus": "<p id=\"stim\">9</p>", "key_press": -1, "trial_type": "single-stim", "trial_index": 159, "time_elapsed": 779989, "internal_node_id": "0.0-122.0-1.0"}}, {"uniqueid": "MTK0838:3HVVDCPGTFZ2T8EOF8YN8YGUBDFTY5", "current_trial": 160, "dateTime": 1512768040266, "trialdata": {"rt": -1, "stimulus": "<p id=\"stim\">8</p>", "key_press": -1, "trial_type": "single-stim", "trial_index": 160, "time_elapsed": 780990, "internal_node_id": "0.0-122.0-2.0"}}, {"uniqueid": "MTK0838:3HVVDCPGTFZ2T8EOF8YN8YGUBDFTY5", "current_trial": 161, "dateTime": 1512768041279, "trialdata": {"rt": -1, "stimulus": "<p id=\"stim\">7</p>", "key_press": -1, "trial_type": "single-stim", "trial_index": 161, "time_elapsed": 782003, "internal_node_id": "0.0-122.0-3.0"}}, {"uniqueid": "MTK0838:3HVVDCPGTFZ2T8EOF8YN8YGUBDFTY5", "current_trial": 162, "dateTime": 1512768042282, "trialdata": {"rt": -1, "stimulus": "<p id=\"stim\">6</p>", "key_press": -1, "trial_type": "single-stim", "trial_index": 162, "time_elapsed": 783006, "internal_node_id": "0.0-122.0-4.0"}}, {"uniqueid": "MTK0838:3HVVDCPGTFZ2T8EOF8YN8YGUBDFTY5", "current_trial": 163, "dateTime": 1512768043296, "trialdata": {"rt": -1, "stimulus": "<p id=\"stim\">5</p>", "key_press": -1, "trial_type": "single-stim", "trial_index": 163, "time_elapsed": 784020, "internal_node_id": "0.0-122.0-5.0"}}, {"uniqueid": "MTK0838:3HVVDCPGTFZ2T8EOF8YN8YGUBDFTY5", "current_trial": 164, "dateTime": 1512768044297, "trialdata": {"rt": -1, "stimulus": "<p id=\"stim\">4</p>", "key_press": -1, "trial_type": "single-stim", "trial_index": 164, "time_elapsed": 785021, "internal_node_id": "0.0-122.0-6.0"}}, {"uniqueid": "MTK0838:3HVVDCPGTFZ2T8EOF8YN8YGUBDFTY5", "current_trial": 165, "dateTime": 1512768045307, "trialdata": {"rt": -1, "stimulus": "<p id=\"stim\">3</p>", "key_press": -1, "trial_type": "single-stim", "trial_index": 165, "time_elapsed": 786031, "internal_node_id": "0.0-122.0-7.0"}}, {"uniqueid": "MTK0838:3HVVDCPGTFZ2T8EOF8YN8YGUBDFTY5", "current_trial": 166, "dateTime": 1512768046313, "trialdata": {"rt": -1, "stimulus": "<p id=\"stim\">2</p>", "key_press": -1, "trial_type": "single-stim", "trial_index": 166, "time_elapsed": 787037, "internal_node_id": "0.0-122.0-8.0"}}, {"uniqueid": "MTK0838:3HVVDCPGTFZ2T8EOF8YN8YGUBDFTY5", "current_trial": 167, "dateTime": 1512768047313, "trialdata": {"rt": -1, "stimulus": "<p id=\"stim\">1</p>", "key_press": -1, "trial_type": "single-stim", "trial_index": 167, "time_elapsed": 788037, "internal_node_id": "0.0-122.0-9.0"}}, {"uniqueid": "MTK0838:3HVVDCPGTFZ2T8EOF8YN8YGUBDFTY5", "current_trial": 168, "dateTime": 1512768048815, "trialdata": {"rt": -1, "stimulus": "<p id=\"stim\">+</p>", "key_press": -1, "type": "FIXATION", "trial_type": "single-stim", "trial_index": 168, "time_elapsed": 789539, "internal_node_id": "0.0-123.0-0.0"}}, {"uniqueid": "MTK0838:3HVVDCPGTFZ2T8EOF8YN8YGUBDFTY5", "current_trial": 169, "dateTime": 1512768050428, "trialdata": {"rt": -1, "stimulus": "<p id=\"stim\">WASHER</p>", "key_press": -1, "type": "PRES_VIS", "word": "washer", "wordID": 1591, "conditions": [24, 1600, "v", 24000], "trial": 4, "serialpos": 0, "trial_type": "single-stim", "trial_index": 169, "time_elapsed": 791152, "internal_node_id": "0.0-124.0"}}, {"uniqueid": "MTK0838:3HVVDCPGTFZ2T8EOF8YN8YGUBDFTY5", "current_trial": 170, "dateTime": 1512768053073, "trialdata": {"rt": -1, "stimulus": "<p id=\"stim\">MATTRESS</p>", "key_press": -1, "type": "PRES_VIS", "word": "mattress", "wordID": 878, "conditions": [24, 1600, "v", 24000], "trial": 4, "serialpos": 1, "trial_type": "single-stim", "trial_index": 170, "time_elapsed": 793797, "internal_node_id": "0.0-125.0"}}, {"uniqueid": "MTK0838:3HVVDCPGTFZ2T8EOF8YN8YGUBDFTY5", "current_trial": 171, "dateTime": 1512768055825, "trialdata": {"rt": -1, "stimulus": "<p id=\"stim\">ASIA</p>", "key_press": -1, "type": "PRES_VIS", "word": "asia", "wordID": 45, "conditions": [24, 1600, "v", 24000], "trial": 4, "serialpos": 2, "trial_type": "single-stim", "trial_index": 171, "time_elapsed": 796549, "internal_node_id": "0.0-126.0"}}, {"uniqueid": "MTK0838:3HVVDCPGTFZ2T8EOF8YN8YGUBDFTY5", "current_trial": 172, "dateTime": 1512768058256, "trialdata": {"rt": -1, "stimulus": "<p id=\"stim\">JELLY</p>", "key_press": -1, "type": "PRES_VIS", "word": "jelly", "wordID": 754, "conditions": [24, 1600, "v", 24000], "trial": 4, "serialpos": 3, "trial_type": "single-stim", "trial_index": 172, "time_elapsed": 798980, "internal_node_id": "0.0-127.0"}}, {"uniqueid": "MTK0838:3HVVDCPGTFZ2T8EOF8YN8YGUBDFTY5", "current_trial": 173, "dateTime": 1512768060975, "trialdata": {"rt": -1, "stimulus": "<p id=\"stim\">ATOM</p>", "key_press": -1, "type": "PRES_VIS", "word": "atom", "wordID": 54, "conditions": [24, 1600, "v", 24000], "trial": 4, "serialpos": 4, "trial_type": "single-stim", "trial_index": 173, "time_elapsed": 801699, "internal_node_id": "0.0-128.0"}}, {"uniqueid": "MTK0838:3HVVDCPGTFZ2T8EOF8YN8YGUBDFTY5", "current_trial": 174, "dateTime": 1512768063478, "trialdata": {"rt": -1, "stimulus": "<p id=\"stim\">ANKLE</p>", "key_press": -1, "type": "PRES_VIS", "word": "ankle", "wordID": 23, "conditions": [24, 1600, "v", 24000], "trial": 4, "serialpos": 5, "trial_type": "single-stim", "trial_index": 174, "time_elapsed": 804198, "internal_node_id": "0.0-129.0"}}, {"uniqueid": "MTK0838:3HVVDCPGTFZ2T8EOF8YN8YGUBDFTY5", "current_trial": 175, "dateTime": 1512768066108, "trialdata": {"rt": -1, "stimulus": "<p id=\"stim\">ELBOW</p>", "key_press": -1, "type": "PRES_VIS", "word": "elbow", "wordID": 519, "conditions": [24, 1600, "v", 24000], "trial": 4, "serialpos": 6, "trial_type": "single-stim", "trial_index": 175, "time_elapsed": 806832, "internal_node_id": "0.0-130.0"}}, {"uniqueid": "MTK0838:3HVVDCPGTFZ2T8EOF8YN8YGUBDFTY5", "current_trial": 176, "dateTime": 1512768068618, "trialdata": {"rt": -1, "stimulus": "<p id=\"stim\">EUROPE</p>", "key_press": -1, "type": "PRES_VIS", "word": "europe", "wordID": 540, "conditions": [24, 1600, "v", 24000], "trial": 4, "serialpos": 7, "trial_type": "single-stim", "trial_index": 176, "time_elapsed": 809342, "internal_node_id": "0.0-131.0"}}, {"uniqueid": "MTK0838:3HVVDCPGTFZ2T8EOF8YN8YGUBDFTY5", "current_trial": 177, "dateTime": 1512768071210, "trialdata": {"rt": -1, "stimulus": "<p id=\"stim\">VIKING</p>", "key_press": -1, "type": "PRES_VIS", "word": "viking", "wordID": 1564, "conditions": [24, 1600, "v", 24000], "trial": 4, "serialpos": 8, "trial_type": "single-stim", "trial_index": 177, "time_elapsed": 811934, "internal_node_id": "0.0-132.0"}}, {"uniqueid": "MTK0838:3HVVDCPGTFZ2T8EOF8YN8YGUBDFTY5", "current_trial": 178, "dateTime": 1512768074027, "trialdata": {"rt": -1, "stimulus": "<p id=\"stim\">HAMPER</p>", "key_press": -1, "type": "PRES_VIS", "word": "hamper", "wordID": 681, "conditions": [24, 1600, "v", 24000], "trial": 4, "serialpos": 9, "trial_type": "single-stim", "trial_index": 178, "time_elapsed": 814751, "internal_node_id": "0.0-133.0"}}, {"uniqueid": "MTK0838:3HVVDCPGTFZ2T8EOF8YN8YGUBDFTY5", "current_trial": 179, "dateTime": 1512768076509, "trialdata": {"rt": -1, "stimulus": "<p id=\"stim\">BACKBONE</p>", "key_press": -1, "type": "PRES_VIS", "word": "backbone", "wordID": 65, "conditions": [24, 1600, "v", 24000], "trial": 4, "serialpos": 10, "trial_type": "single-stim", "trial_index": 179, "time_elapsed": 817233, "internal_node_id": "0.0-134.0"}}, {"uniqueid": "MTK0838:3HVVDCPGTFZ2T8EOF8YN8YGUBDFTY5", "current_trial": 180, "dateTime": 1512768079144, "trialdata": {"rt": -1, "stimulus": "<p id=\"stim\">OUTDOORS</p>", "key_press": -1, "type": "PRES_VIS", "word": "outdoors", "wordID": 986, "conditions": [24, 1600, "v", 24000], "trial": 4, "serialpos": 11, "trial_type": "single-stim", "trial_index": 180, "time_elapsed": 819868, "internal_node_id": "0.0-135.0"}}, {"uniqueid": "MTK0838:3HVVDCPGTFZ2T8EOF8YN8YGUBDFTY5", "current_trial": 181, "dateTime": 1512768081581, "trialdata": {"rt": -1, "stimulus": "<p id=\"stim\">BABY</p>", "key_press": -1, "type": "PRES_VIS", "word": "baby", "wordID": 63, "conditions": [24, 1600, "v", 24000], "trial": 4, "serialpos": 12, "trial_type": "single-stim", "trial_index": 181, "time_elapsed": 822305, "internal_node_id": "0.0-136.0"}}, {"uniqueid": "MTK0838:3HVVDCPGTFZ2T8EOF8YN8YGUBDFTY5", "current_trial": 182, "dateTime": 1512768084389, "trialdata": {"rt": -1, "stimulus": "<p id=\"stim\">LIGHTNING</p>", "key_press": -1, "type": "PRES_VIS", "word": "lightning", "wordID": 819, "conditions": [24, 1600, "v", 24000], "trial": 4, "serialpos": 13, "trial_type": "single-stim", "trial_index": 182, "time_elapsed": 825113, "internal_node_id": "0.0-137.0"}}, {"uniqueid": "MTK0838:3HVVDCPGTFZ2T8EOF8YN8YGUBDFTY5", "current_trial": 183, "dateTime": 1512768086824, "trialdata": {"rt": -1, "stimulus": "<p id=\"stim\">APPLE</p>", "key_press": -1, "type": "PRES_VIS", "word": "apple", "wordID": 32, "conditions": [24, 1600, "v", 24000], "trial": 4, "serialpos": 14, "trial_type": "single-stim", "trial_index": 183, "time_elapsed": 827548, "internal_node_id": "0.0-138.0"}}, {"uniqueid": "MTK0838:3HVVDCPGTFZ2T8EOF8YN8YGUBDFTY5", "current_trial": 184, "dateTime": 1512768089258, "trialdata": {"rt": -1, "stimulus": "<p id=\"stim\">COUSIN</p>", "key_press": -1, "type": "PRES_VIS", "word": "cousin", "wordID": 391, "conditions": [24, 1600, "v", 24000], "trial": 4, "serialpos": 15, "trial_type": "single-stim", "trial_index": 184, "time_elapsed": 829982, "internal_node_id": "0.0-139.0"}}, {"uniqueid": "MTK0838:3HVVDCPGTFZ2T8EOF8YN8YGUBDFTY5", "current_trial": 185, "dateTime": 1512768091775, "trialdata": {"rt": -1, "stimulus": "<p id=\"stim\">VICTIM</p>", "key_press": -1, "type": "PRES_VIS", "word": "victim", "wordID": 1561, "conditions": [24, 1600, "v", 24000], "trial": 4, "serialpos": 16, "trial_type": "single-stim", "trial_index": 185, "time_elapsed": 832499, "internal_node_id": "0.0-140.0"}}, {"uniqueid": "MTK0838:3HVVDCPGTFZ2T8EOF8YN8YGUBDFTY5", "current_trial": 186, "dateTime": 1512768094522, "trialdata": {"rt": -1, "stimulus": "<p id=\"stim\">SILK</p>", "key_press": -1, "type": "PRES_VIS", "word": "silk", "wordID": 1306, "conditions": [24, 1600, "v", 24000], "trial": 4, "serialpos": 17, "trial_type": "single-stim", "trial_index": 186, "time_elapsed": 835246, "internal_node_id": "0.0-141.0"}}, {"uniqueid": "MTK0838:3HVVDCPGTFZ2T8EOF8YN8YGUBDFTY5", "current_trial": 187, "dateTime": 1512768097276, "trialdata": {"rt": -1, "stimulus": "<p id=\"stim\">GRAPE</p>", "key_press": -1, "type": "PRES_VIS", "word": "grape", "wordID": 653, "conditions": [24, 1600, "v", 24000], "trial": 4, "serialpos": 18, "trial_type": "single-stim", "trial_index": 187, "time_elapsed": 838000, "internal_node_id": "0.0-142.0"}}, {"uniqueid": "MTK0838:3HVVDCPGTFZ2T8EOF8YN8YGUBDFTY5", "current_trial": 188, "dateTime": 1512768099738, "trialdata": {"rt": -1, "stimulus": "<p id=\"stim\">STAMP</p>", "key_press": -1, "type": "PRES_VIS", "word": "stamp", "wordID": 1369, "conditions": [24, 1600, "v", 24000], "trial": 4, "serialpos": 19, "trial_type": "single-stim", "trial_index": 188, "time_elapsed": 840462, "internal_node_id": "0.0-143.0"}}, {"uniqueid": "MTK0838:3HVVDCPGTFZ2T8EOF8YN8YGUBDFTY5", "current_trial": 189, "dateTime": 1512768102263, "trialdata": {"rt": -1, "stimulus": "<p id=\"stim\">COUNTRY</p>", "key_press": -1, "type": "PRES_VIS", "word": "country", "wordID": 387, "conditions": [24, 1600, "v", 24000], "trial": 4, "serialpos": 20, "trial_type": "single-stim", "trial_index": 189, "time_elapsed": 842987, "internal_node_id": "0.0-144.0"}}, {"uniqueid": "MTK0838:3HVVDCPGTFZ2T8EOF8YN8YGUBDFTY5", "current_trial": 190, "dateTime": 1512768104810, "trialdata": {"rt": -1, "stimulus": "<p id=\"stim\">VALLEY</p>", "key_press": -1, "type": "PRES_VIS", "word": "valley", "wordID": 1544, "conditions": [24, 1600, "v", 24000], "trial": 4, "serialpos": 21, "trial_type": "single-stim", "trial_index": 190, "time_elapsed": 845534, "internal_node_id": "0.0-145.0"}}, {"uniqueid": "MTK0838:3HVVDCPGTFZ2T8EOF8YN8YGUBDFTY5", "current_trial": 191, "dateTime": 1512768107308, "trialdata": {"rt": -1, "stimulus": "<p id=\"stim\">PUPPY</p>", "key_press": -1, "type": "PRES_VIS", "word": "puppy", "wordID": 1143, "conditions": [24, 1600, "v", 24000], "trial": 4, "serialpos": 22, "trial_type": "single-stim", "trial_index": 191, "time_elapsed": 848032, "internal_node_id": "0.0-146.0"}}, {"uniqueid": "MTK0838:3HVVDCPGTFZ2T8EOF8YN8YGUBDFTY5", "current_trial": 192, "dateTime": 1512768109990, "trialdata": {"rt": -1, "stimulus": "<p id=\"stim\">RABBIT</p>", "key_press": -1, "type": "PRES_VIS", "word": "rabbit", "wordID": 1151, "conditions": [24, 1600, "v", 24000], "trial": 4, "serialpos": 23, "trial_type": "single-stim", "trial_index": 192, "time_elapsed": 850714, "internal_node_id": "0.0-147.0"}}, {"uniqueid": "MTK0838:3HVVDCPGTFZ2T8EOF8YN8YGUBDFTY5", "current_trial": 193, "dateTime": 1512768112149, "trialdata": {"rt": -1, "stimulus": "", "key_press": -1, "type": "PRE_RECALL_DELAY", "trial_type": "single-stim", "trial_index": 193, "time_elapsed": 852873, "internal_node_id": "0.0-148.0-0.0"}}, {"uniqueid": "MTK0838:3HVVDCPGTFZ2T8EOF8YN8YGUBDFTY5", "current_trial": 194, "dateTime": 1512768112662, "trialdata": {"rt": -1000, "stimulus": "/static/audio/400Hz.wav", "key_press": -1, "type": "PRE_RECALL_ALERT", "trial_type": "single-audio", "trial_index": 194, "time_elapsed": 853386, "internal_node_id": "0.0-149.0"}}, {"uniqueid": "MTK0838:3HVVDCPGTFZ2T8EOF8YN8YGUBDFTY5", "current_trial": 195, "dateTime": 1512768172656, "trialdata": {"rt": [5122, 6482, 8005, 15293, 21100], "recwords": ["ankle", "grape", "asia", "europe", "ankle"], "type": "FREE_RECALL", "conditions": [24, 1600, "v", 24000], "trial": 4, "trial_type": "free-recall", "trial_index": 195, "time_elapsed": 913380, "internal_node_id": "0.0-150.0-0.0"}}, {"uniqueid": "MTK0838:3HVVDCPGTFZ2T8EOF8YN8YGUBDFTY5", "current_trial": 196, "dateTime": 1512768299816, "trialdata": {"rt": 125143, "key_press": 13, "type": "INSTRUCTIONS", "trial_type": "text", "trial_index": 196, "time_elapsed": 1040540, "internal_node_id": "0.0-151.0"}}, {"uniqueid": "MTK0838:3HVVDCPGTFZ2T8EOF8YN8YGUBDFTY5", "current_trial": 197, "dateTime": 1512768313841, "trialdata": {"rt": [2465, 5246, 7163, 9154, 11440], "responses": ["14", "11", "16", "12", "16"], "num1": [5, 1, 9, 3, 4, 6], "num2": [3, 8, 4, 5, 5, 5], "num3": [6, 2, 3, 4, 7, 1], "type": "DISTRACTOR", "conditions": [24, 1600, "v", 12000], "trial": 5, "trial_type": "math-distractor", "trial_index": 197, "time_elapsed": 1054565, "internal_node_id": "0.0-152.0"}}, {"uniqueid": "MTK0838:3HVVDCPGTFZ2T8EOF8YN8YGUBDFTY5", "current_trial": 198, "dateTime": 1512768316869, "trialdata": {"rt": -1, "stimulus": "<p id=\"stim\">10</p>", "key_press": -1, "trial_type": "single-stim", "trial_index": 198, "time_elapsed": 1057593, "internal_node_id": "0.0-153.0-0.0"}}, {"uniqueid": "MTK0838:3HVVDCPGTFZ2T8EOF8YN8YGUBDFTY5", "current_trial": 199, "dateTime": 1512768317872, "trialdata": {"rt": -1, "stimulus": "<p id=\"stim\">9</p>", "key_press": -1, "trial_type": "single-stim", "trial_index": 199, "time_elapsed": 1058596, "internal_node_id": "0.0-153.0-1.0"}}, {"uniqueid": "MTK0838:3HVVDCPGTFZ2T8EOF8YN8YGUBDFTY5", "current_trial": 200, "dateTime": 1512768318872, "trialdata": {"rt": -1, "stimulus": "<p id=\"stim\">8</p>", "key_press": -1, "trial_type": "single-stim", "trial_index": 200, "time_elapsed": 1059596, "internal_node_id": "0.0-153.0-2.0"}}, {"uniqueid": "MTK0838:3HVVDCPGTFZ2T8EOF8YN8YGUBDFTY5", "current_trial": 201, "dateTime": 1512768319875, "trialdata": {"rt": -1, "stimulus": "<p id=\"stim\">7</p>", "key_press": -1, "trial_type": "single-stim", "trial_index": 201, "time_elapsed": 1060599, "internal_node_id": "0.0-153.0-3.0"}}, {"uniqueid": "MTK0838:3HVVDCPGTFZ2T8EOF8YN8YGUBDFTY5", "current_trial": 202, "dateTime": 1512768320888, "trialdata": {"rt": -1, "stimulus": "<p id=\"stim\">6</p>", "key_press": -1, "trial_type": "single-stim", "trial_index": 202, "time_elapsed": 1061612, "internal_node_id": "0.0-153.0-4.0"}}, {"uniqueid": "MTK0838:3HVVDCPGTFZ2T8EOF8YN8YGUBDFTY5", "current_trial": 203, "dateTime": 1512768321890, "trialdata": {"rt": -1, "stimulus": "<p id=\"stim\">5</p>", "key_press": -1, "trial_type": "single-stim", "trial_index": 203, "time_elapsed": 1062614, "internal_node_id": "0.0-153.0-5.0"}}, {"uniqueid": "MTK0838:3HVVDCPGTFZ2T8EOF8YN8YGUBDFTY5", "current_trial": 204, "dateTime": 1512768322895, "trialdata": {"rt": -1, "stimulus": "<p id=\"stim\">4</p>", "key_press": -1, "trial_type": "single-stim", "trial_index": 204, "time_elapsed": 1063619, "internal_node_id": "0.0-153.0-6.0"}}, {"uniqueid": "MTK0838:3HVVDCPGTFZ2T8EOF8YN8YGUBDFTY5", "current_trial": 205, "dateTime": 1512768323902, "trialdata": {"rt": -1, "stimulus": "<p id=\"stim\">3</p>", "key_press": -1, "trial_type": "single-stim", "trial_index": 205, "time_elapsed": 1064626, "internal_node_id": "0.0-153.0-7.0"}}, {"uniqueid": "MTK0838:3HVVDCPGTFZ2T8EOF8YN8YGUBDFTY5", "current_trial": 206, "dateTime": 1512768324909, "trialdata": {"rt": -1, "stimulus": "<p id=\"stim\">2</p>", "key_press": -1, "trial_type": "single-stim", "trial_index": 206, "time_elapsed": 1065633, "internal_node_id": "0.0-153.0-8.0"}}, {"uniqueid": "MTK0838:3HVVDCPGTFZ2T8EOF8YN8YGUBDFTY5", "current_trial": 207, "dateTime": 1512768325924, "trialdata": {"rt": -1, "stimulus": "<p id=\"stim\">1</p>", "key_press": -1, "trial_type": "single-stim", "trial_index": 207, "time_elapsed": 1066648, "internal_node_id": "0.0-153.0-9.0"}}, {"uniqueid": "MTK0838:3HVVDCPGTFZ2T8EOF8YN8YGUBDFTY5", "current_trial": 208, "dateTime": 1512768327426, "trialdata": {"rt": -1, "stimulus": "<p id=\"stim\">+</p>", "key_press": -1, "type": "FIXATION", "trial_type": "single-stim", "trial_index": 208, "time_elapsed": 1068150, "internal_node_id": "0.0-154.0-0.0"}}, {"uniqueid": "MTK0838:3HVVDCPGTFZ2T8EOF8YN8YGUBDFTY5", "current_trial": 209, "dateTime": 1512768329033, "trialdata": {"rt": -1, "stimulus": "<p id=\"stim\">LEADER</p>", "key_press": -1, "type": "PRES_VIS", "word": "leader", "wordID": 806, "conditions": [24, 1600, "v", 12000], "trial": 5, "serialpos": 0, "trial_type": "single-stim", "trial_index": 209, "time_elapsed": 1069757, "internal_node_id": "0.0-155.0"}}, {"uniqueid": "MTK0838:3HVVDCPGTFZ2T8EOF8YN8YGUBDFTY5", "current_trial": 210, "dateTime": 1512768331730, "trialdata": {"rt": -1, "stimulus": "<p id=\"stim\">PASTRY</p>", "key_press": -1, "type": "PRES_VIS", "word": "pastry", "wordID": 1021, "conditions": [24, 1600, "v", 12000], "trial": 5, "serialpos": 1, "trial_type": "single-stim", "trial_index": 210, "time_elapsed": 1072454, "internal_node_id": "0.0-156.0"}}, {"uniqueid": "MTK0838:3HVVDCPGTFZ2T8EOF8YN8YGUBDFTY5", "current_trial": 211, "dateTime": 1512768334482, "trialdata": {"rt": -1, "stimulus": "<p id=\"stim\">DASHBOARD</p>", "key_press": -1, "type": "PRES_VIS", "word": "dashboard", "wordID": 440, "conditions": [24, 1600, "v", 12000], "trial": 5, "serialpos": 2, "trial_type": "single-stim", "trial_index": 211, "time_elapsed": 1075206, "internal_node_id": "0.0-157.0"}}, {"uniqueid": "MTK0838:3HVVDCPGTFZ2T8EOF8YN8YGUBDFTY5", "current_trial": 212, "dateTime": 1512768336967, "trialdata": {"rt": -1, "stimulus": "<p id=\"stim\">WRENCH</p>", "key_press": -1, "type": "PRES_VIS", "word": "wrench", "wordID": 1624, "conditions": [24, 1600, "v", 12000], "trial": 5, "serialpos": 3, "trial_type": "single-stim", "trial_index": 212, "time_elapsed": 1077691, "internal_node_id": "0.0-158.0"}}, {"uniqueid": "MTK0838:3HVVDCPGTFZ2T8EOF8YN8YGUBDFTY5", "current_trial": 213, "dateTime": 1512768339395, "trialdata": {"rt": -1, "stimulus": "<p id=\"stim\">SHARK</p>", "key_press": -1, "type": "PRES_VIS", "word": "shark", "wordID": 1274, "conditions": [24, 1600, "v", 12000], "trial": 5, "serialpos": 4, "trial_type": "single-stim", "trial_index": 213, "time_elapsed": 1080119, "internal_node_id": "0.0-159.0"}}, {"uniqueid": "MTK0838:3HVVDCPGTFZ2T8EOF8YN8YGUBDFTY5", "current_trial": 214, "dateTime": 1512768342108, "trialdata": {"rt": -1, "stimulus": "<p id=\"stim\">PLAZA</p>", "key_press": -1, "type": "PRES_VIS", "word": "plaza", "wordID": 1087, "conditions": [24, 1600, "v", 12000], "trial": 5, "serialpos": 5, "trial_type": "single-stim", "trial_index": 214, "time_elapsed": 1082832, "internal_node_id": "0.0-160.0"}}, {"uniqueid": "MTK0838:3HVVDCPGTFZ2T8EOF8YN8YGUBDFTY5", "current_trial": 215, "dateTime": 1512768344861, "trialdata": {"rt": -1, "stimulus": "<p id=\"stim\">HANDBAG</p>", "key_press": -1, "type": "PRES_VIS", "word": "handbag", "wordID": 683, "conditions": [24, 1600, "v", 12000], "trial": 5, "serialpos": 6, "trial_type": "single-stim", "trial_index": 215, "time_elapsed": 1085585, "internal_node_id": "0.0-161.0"}}, {"uniqueid": "MTK0838:3HVVDCPGTFZ2T8EOF8YN8YGUBDFTY5", "current_trial": 216, "dateTime": 1512768347480, "trialdata": {"rt": -1, "stimulus": "<p id=\"stim\">MUFFIN</p>", "key_press": -1, "type": "PRES_VIS", "word": "muffin", "wordID": 928, "conditions": [24, 1600, "v", 12000], "trial": 5, "serialpos": 7, "trial_type": "single-stim", "trial_index": 216, "time_elapsed": 1088204, "internal_node_id": "0.0-162.0"}}, {"uniqueid": "MTK0838:3HVVDCPGTFZ2T8EOF8YN8YGUBDFTY5", "current_trial": 217, "dateTime": 1512768350111, "trialdata": {"rt": -1, "stimulus": "<p id=\"stim\">ROBIN</p>", "key_press": -1, "type": "PRES_VIS", "word": "robin", "wordID": 1198, "conditions": [24, 1600, "v", 12000], "trial": 5, "serialpos": 8, "trial_type": "single-stim", "trial_index": 217, "time_elapsed": 1090835, "internal_node_id": "0.0-163.0"}}, {"uniqueid": "MTK0838:3HVVDCPGTFZ2T8EOF8YN8YGUBDFTY5", "current_trial": 218, "dateTime": 1512768352630, "trialdata": {"rt": -1, "stimulus": "<p id=\"stim\">FOX</p>", "key_press": -1, "type": "PRES_VIS", "word": "fox", "wordID": 597, "conditions": [24, 1600, "v", 12000], "trial": 5, "serialpos": 9, "trial_type": "single-stim", "trial_index": 218, "time_elapsed": 1093354, "internal_node_id": "0.0-164.0"}}, {"uniqueid": "MTK0838:3HVVDCPGTFZ2T8EOF8YN8YGUBDFTY5", "current_trial": 219, "dateTime": 1512768355163, "trialdata": {"rt": -1, "stimulus": "<p id=\"stim\">ROOSTER</p>", "key_press": -1, "type": "PRES_VIS", "word": "rooster", "wordID": 1208, "conditions": [24, 1600, "v", 12000], "trial": 5, "serialpos": 10, "trial_type": "single-stim", "trial_index": 219, "time_elapsed": 1095887, "internal_node_id": "0.0-165.0"}}, {"uniqueid": "MTK0838:3HVVDCPGTFZ2T8EOF8YN8YGUBDFTY5", "current_trial": 220, "dateTime": 1512768357580, "trialdata": {"rt": -1, "stimulus": "<p id=\"stim\">RACKET</p>", "key_press": -1, "type": "PRES_VIS", "word": "racket", "wordID": 1154, "conditions": [24, 1600, "v", 12000], "trial": 5, "serialpos": 11, "trial_type": "single-stim", "trial_index": 220, "time_elapsed": 1098304, "internal_node_id": "0.0-166.0"}}, {"uniqueid": "MTK0838:3HVVDCPGTFZ2T8EOF8YN8YGUBDFTY5", "current_trial": 221, "dateTime": 1512768360190, "trialdata": {"rt": -1, "stimulus": "<p id=\"stim\">PEANUT</p>", "key_press": -1, "type": "PRES_VIS", "word": "peanut", "wordID": 1031, "conditions": [24, 1600, "v", 12000], "trial": 5, "serialpos": 12, "trial_type": "single-stim", "trial_index": 221, "time_elapsed": 1100914, "internal_node_id": "0.0-167.0"}}, {"uniqueid": "MTK0838:3HVVDCPGTFZ2T8EOF8YN8YGUBDFTY5", "current_trial": 222, "dateTime": 1512768362710, "trialdata": {"rt": -1, "stimulus": "<p id=\"stim\">RATTLE</p>", "key_press": -1, "type": "PRES_VIS", "word": "rattle", "wordID": 1169, "conditions": [24, 1600, "v", 12000], "trial": 5, "serialpos": 13, "trial_type": "single-stim", "trial_index": 222, "time_elapsed": 1103434, "internal_node_id": "0.0-168.0"}}, {"uniqueid": "MTK0838:3HVVDCPGTFZ2T8EOF8YN8YGUBDFTY5", "current_trial": 223, "dateTime": 1512768365480, "trialdata": {"rt": -1, "stimulus": "<p id=\"stim\">GLOBE</p>", "key_press": -1, "type": "PRES_VIS", "word": "globe", "wordID": 640, "conditions": [24, 1600, "v", 12000], "trial": 5, "serialpos": 14, "trial_type": "single-stim", "trial_index": 223, "time_elapsed": 1106204, "internal_node_id": "0.0-169.0"}}, {"uniqueid": "MTK0838:3HVVDCPGTFZ2T8EOF8YN8YGUBDFTY5", "current_trial": 224, "dateTime": 1512768368139, "trialdata": {"rt": -1, "stimulus": "<p id=\"stim\">CUSTARD</p>", "key_press": -1, "type": "PRES_VIS", "word": "custard", "wordID": 428, "conditions": [24, 1600, "v", 12000], "trial": 5, "serialpos": 15, "trial_type": "single-stim", "trial_index": 224, "time_elapsed": 1108863, "internal_node_id": "0.0-170.0"}}, {"uniqueid": "MTK0838:3HVVDCPGTFZ2T8EOF8YN8YGUBDFTY5", "current_trial": 225, "dateTime": 1512768370694, "trialdata": {"rt": -1, "stimulus": "<p id=\"stim\">STAR</p>", "key_press": -1, "type": "PRES_VIS", "word": "star", "wordID": 1372, "conditions": [24, 1600, "v", 12000], "trial": 5, "serialpos": 16, "trial_type": "single-stim", "trial_index": 225, "time_elapsed": 1111418, "internal_node_id": "0.0-171.0"}}, {"uniqueid": "MTK0838:3HVVDCPGTFZ2T8EOF8YN8YGUBDFTY5", "current_trial": 226, "dateTime": 1512768373468, "trialdata": {"rt": -1, "stimulus": "<p id=\"stim\">COSTUME</p>", "key_press": -1, "type": "PRES_VIS", "word": "costume", "wordID": 382, "conditions": [24, 1600, "v", 12000], "trial": 5, "serialpos": 17, "trial_type": "single-stim", "trial_index": 226, "time_elapsed": 1114192, "internal_node_id": "0.0-172.0"}}, {"uniqueid": "MTK0838:3HVVDCPGTFZ2T8EOF8YN8YGUBDFTY5", "current_trial": 227, "dateTime": 1512768376193, "trialdata": {"rt": -1, "stimulus": "<p id=\"stim\">SCARECROW</p>", "key_press": -1, "type": "PRES_VIS", "word": "scarecrow", "wordID": 1244, "conditions": [24, 1600, "v", 12000], "trial": 5, "serialpos": 18, "trial_type": "single-stim", "trial_index": 227, "time_elapsed": 1116917, "internal_node_id": "0.0-173.0"}}, {"uniqueid": "MTK0838:3HVVDCPGTFZ2T8EOF8YN8YGUBDFTY5", "current_trial": 228, "dateTime": 1512768378949, "trialdata": {"rt": -1, "stimulus": "<p id=\"stim\">TAXI</p>", "key_press": -1, "type": "PRES_VIS", "word": "taxi", "wordID": 1437, "conditions": [24, 1600, "v", 12000], "trial": 5, "serialpos": 19, "trial_type": "single-stim", "trial_index": 228, "time_elapsed": 1119673, "internal_node_id": "0.0-174.0"}}, {"uniqueid": "MTK0838:3HVVDCPGTFZ2T8EOF8YN8YGUBDFTY5", "current_trial": 229, "dateTime": 1512768381744, "trialdata": {"rt": -1, "stimulus": "<p id=\"stim\">COFFEE</p>", "key_press": -1, "type": "PRES_VIS", "word": "coffee", "wordID": 340, "conditions": [24, 1600, "v", 12000], "trial": 5, "serialpos": 20, "trial_type": "single-stim", "trial_index": 229, "time_elapsed": 1122468, "internal_node_id": "0.0-175.0"}}, {"uniqueid": "MTK0838:3HVVDCPGTFZ2T8EOF8YN8YGUBDFTY5", "current_trial": 230, "dateTime": 1512768384325, "trialdata": {"rt": -1, "stimulus": "<p id=\"stim\">TOMBSTONE</p>", "key_press": -1, "type": "PRES_VIS", "word": "tombstone", "wordID": 1477, "conditions": [24, 1600, "v", 12000], "trial": 5, "serialpos": 21, "trial_type": "single-stim", "trial_index": 230, "time_elapsed": 1125049, "internal_node_id": "0.0-176.0"}}, {"uniqueid": "MTK0838:3HVVDCPGTFZ2T8EOF8YN8YGUBDFTY5", "current_trial": 231, "dateTime": 1512768386961, "trialdata": {"rt": -1, "stimulus": "<p id=\"stim\">PIANO</p>", "key_press": -1, "type": "PRES_VIS", "word": "piano", "wordID": 1056, "conditions": [24, 1600, "v", 12000], "trial": 5, "serialpos": 22, "trial_type": "single-stim", "trial_index": 231, "time_elapsed": 1127685, "internal_node_id": "0.0-177.0"}}, {"uniqueid": "MTK0838:3HVVDCPGTFZ2T8EOF8YN8YGUBDFTY5", "current_trial": 232, "dateTime": 1512768389429, "trialdata": {"rt": -1, "stimulus": "<p id=\"stim\">WORLD</p>", "key_press": -1, "type": "PRES_VIS", "word": "world", "wordID": 1621, "conditions": [24, 1600, "v", 12000], "trial": 5, "serialpos": 23, "trial_type": "single-stim", "trial_index": 232, "time_elapsed": 1130153, "internal_node_id": "0.0-178.0"}}, {"uniqueid": "MTK0838:3HVVDCPGTFZ2T8EOF8YN8YGUBDFTY5", "current_trial": 233, "dateTime": 1512768391755, "trialdata": {"rt": -1, "stimulus": "", "key_press": -1, "type": "PRE_RECALL_DELAY", "trial_type": "single-stim", "trial_index": 233, "time_elapsed": 1132479, "internal_node_id": "0.0-179.0-0.0"}}, {"uniqueid": "MTK0838:3HVVDCPGTFZ2T8EOF8YN8YGUBDFTY5", "current_trial": 234, "dateTime": 1512768392265, "trialdata": {"rt": -1000, "stimulus": "/static/audio/400Hz.wav", "key_press": -1, "type": "PRE_RECALL_ALERT", "trial_type": "single-audio", "trial_index": 234, "time_elapsed": 1132989, "internal_node_id": "0.0-180.0"}}, {"uniqueid": "MTK0838:3HVVDCPGTFZ2T8EOF8YN8YGUBDFTY5", "current_trial": 235, "dateTime": 1512768452382, "trialdata": {"rt": [1151, 2421, 4205, 5497, 7380, 9749, 11170, 14504, 23169], "recwords": ["world", "piano", "rooster", "coffee", "tombstone", "leader", "shark", "costume", "plaza"], "type": "FREE_RECALL", "conditions": [24, 1600, "v", 12000], "trial": 5, "trial_type": "free-recall", "trial_index": 235, "time_elapsed": 1192999, "internal_node_id": "0.0-181.0-0.0"}}, {"uniqueid": "MTK0838:3HVVDCPGTFZ2T8EOF8YN8YGUBDFTY5", "current_trial": 236, "dateTime": 1512768456115, "trialdata": {"rt": 1721, "key_press": 13, "type": "INSTRUCTIONS", "trial_type": "text", "trial_index": 236, "time_elapsed": 1196839, "internal_node_id": "0.0-182.0"}}, {"uniqueid": "MTK0838:3HVVDCPGTFZ2T8EOF8YN8YGUBDFTY5", "current_trial": 237, "dateTime": 1512768470125, "trialdata": {"rt": [2065, 3866, 6558, 8386], "responses": ["13", "13", "22", "21"], "num1": [5, 7, 5, 8, 6], "num2": [6, 1, 9, 4, 7], "num3": [2, 5, 8, 9, 5], "type": "DISTRACTOR", "conditions": [12, 800, "v", 12000], "trial": 6, "trial_type": "math-distractor", "trial_index": 237, "time_elapsed": 1210849, "internal_node_id": "0.0-183.0"}}, {"uniqueid": "MTK0838:3HVVDCPGTFZ2T8EOF8YN8YGUBDFTY5", "current_trial": 238, "dateTime": 1512768473156, "trialdata": {"rt": -1, "stimulus": "<p id=\"stim\">10</p>", "key_press": -1, "trial_type": "single-stim", "trial_index": 238, "time_elapsed": 1213880, "internal_node_id": "0.0-184.0-0.0"}}, {"uniqueid": "MTK0838:3HVVDCPGTFZ2T8EOF8YN8YGUBDFTY5", "current_trial": 239, "dateTime": 1512768474159, "trialdata": {"rt": -1, "stimulus": "<p id=\"stim\">9</p>", "key_press": -1, "trial_type": "single-stim", "trial_index": 239, "time_elapsed": 1214883, "internal_node_id": "0.0-184.0-1.0"}}, {"uniqueid": "MTK0838:3HVVDCPGTFZ2T8EOF8YN8YGUBDFTY5", "current_trial": 240, "dateTime": 1512768475173, "trialdata": {"rt": -1, "stimulus": "<p id=\"stim\">8</p>", "key_press": -1, "trial_type": "single-stim", "trial_index": 240, "time_elapsed": 1215897, "internal_node_id": "0.0-184.0-2.0"}}, {"uniqueid": "MTK0838:3HVVDCPGTFZ2T8EOF8YN8YGUBDFTY5", "current_trial": 241, "dateTime": 1512768476175, "trialdata": {"rt": -1, "stimulus": "<p id=\"stim\">7</p>", "key_press": -1, "trial_type": "single-stim", "trial_index": 241, "time_elapsed": 1216899, "internal_node_id": "0.0-184.0-3.0"}}, {"uniqueid": "MTK0838:3HVVDCPGTFZ2T8EOF8YN8YGUBDFTY5", "current_trial": 242, "dateTime": 1512768477190, "trialdata": {"rt": -1, "stimulus": "<p id=\"stim\">6</p>", "key_press": -1, "trial_type": "single-stim", "trial_index": 242, "time_elapsed": 1217914, "internal_node_id": "0.0-184.0-4.0"}}, {"uniqueid": "MTK0838:3HVVDCPGTFZ2T8EOF8YN8YGUBDFTY5", "current_trial": 243, "dateTime": 1512768478204, "trialdata": {"rt": -1, "stimulus": "<p id=\"stim\">5</p>", "key_press": -1, "trial_type": "single-stim", "trial_index": 243, "time_elapsed": 1218928, "internal_node_id": "0.0-184.0-5.0"}}, {"uniqueid": "MTK0838:3HVVDCPGTFZ2T8EOF8YN8YGUBDFTY5", "current_trial": 244, "dateTime": 1512768479208, "trialdata": {"rt": -1, "stimulus": "<p id=\"stim\">4</p>", "key_press": -1, "trial_type": "single-stim", "trial_index": 244, "time_elapsed": 1219932, "internal_node_id": "0.0-184.0-6.0"}}, {"uniqueid": "MTK0838:3HVVDCPGTFZ2T8EOF8YN8YGUBDFTY5", "current_trial": 245, "dateTime": 1512768480221, "trialdata": {"rt": -1, "stimulus": "<p id=\"stim\">3</p>", "key_press": -1, "trial_type": "single-stim", "trial_index": 245, "time_elapsed": 1220945, "internal_node_id": "0.0-184.0-7.0"}}, {"uniqueid": "MTK0838:3HVVDCPGTFZ2T8EOF8YN8YGUBDFTY5", "current_trial": 246, "dateTime": 1512768481225, "trialdata": {"rt": -1, "stimulus": "<p id=\"stim\">2</p>", "key_press": -1, "trial_type": "single-stim", "trial_index": 246, "time_elapsed": 1221949, "internal_node_id": "0.0-184.0-8.0"}}, {"uniqueid": "MTK0838:3HVVDCPGTFZ2T8EOF8YN8YGUBDFTY5", "current_trial": 247, "dateTime": 1512768482239, "trialdata": {"rt": -1, "stimulus": "<p id=\"stim\">1</p>", "key_press": -1, "trial_type": "single-stim", "trial_index": 247, "time_elapsed": 1222963, "internal_node_id": "0.0-184.0-9.0"}}, {"uniqueid": "MTK0838:3HVVDCPGTFZ2T8EOF8YN8YGUBDFTY5", "current_trial": 248, "dateTime": 1512768483754, "trialdata": {"rt": -1, "stimulus": "<p id=\"stim\">+</p>", "key_press": -1, "type": "FIXATION", "trial_type": "single-stim", "trial_index": 248, "time_elapsed": 1224478, "internal_node_id": "0.0-185.0-0.0"}}, {"uniqueid": "MTK0838:3HVVDCPGTFZ2T8EOF8YN8YGUBDFTY5", "current_trial": 249, "dateTime": 1512768484567, "trialdata": {"rt": -1, "stimulus": "<p id=\"stim\">CANDY</p>", "key_press": -1, "type": "PRES_VIS", "word": "candy", "wordID": 229, "conditions": [12, 800, "v", 12000], "trial": 6, "serialpos": 0, "trial_type": "single-stim", "trial_index": 249, "time_elapsed": 1225291, "internal_node_id": "0.0-186.0"}}, {"uniqueid": "MTK0838:3HVVDCPGTFZ2T8EOF8YN8YGUBDFTY5", "current_trial": 250, "dateTime": 1512768486422, "trialdata": {"rt": -1, "stimulus": "<p id=\"stim\">DRIVER</p>", "key_press": -1, "type": "PRES_VIS", "word": "driver", "wordID": 498, "conditions": [12, 800, "v", 12000], "trial": 6, "serialpos": 1, "trial_type": "single-stim", "trial_index": 250, "time_elapsed": 1227146, "internal_node_id": "0.0-187.0"}}, {"uniqueid": "MTK0838:3HVVDCPGTFZ2T8EOF8YN8YGUBDFTY5", "current_trial": 251, "dateTime": 1512768488223, "trialdata": {"rt": -1, "stimulus": "<p id=\"stim\">MUMMY</p>", "key_press": -1, "type": "PRES_VIS", "word": "mummy", "wordID": 931, "conditions": [12, 800, "v", 12000], "trial": 6, "serialpos": 2, "trial_type": "single-stim", "trial_index": 251, "time_elapsed": 1228947, "internal_node_id": "0.0-188.0"}}, {"uniqueid": "MTK0838:3HVVDCPGTFZ2T8EOF8YN8YGUBDFTY5", "current_trial": 252, "dateTime": 1512768490189, "trialdata": {"rt": -1, "stimulus": "<p id=\"stim\">TEMPLE</p>", "key_press": -1, "type": "PRES_VIS", "word": "temple", "wordID": 1447, "conditions": [12, 800, "v", 12000], "trial": 6, "serialpos": 3, "trial_type": "single-stim", "trial_index": 252, "time_elapsed": 1230913, "internal_node_id": "0.0-189.0"}}, {"uniqueid": "MTK0838:3HVVDCPGTFZ2T8EOF8YN8YGUBDFTY5", "current_trial": 253, "dateTime": 1512768492068, "trialdata": {"rt": -1, "stimulus": "<p id=\"stim\">FLUTE</p>", "key_press": -1, "type": "PRES_VIS", "word": "flute", "wordID": 584, "conditions": [12, 800, "v", 12000], "trial": 6, "serialpos": 4, "trial_type": "single-stim", "trial_index": 253, "time_elapsed": 1232792, "internal_node_id": "0.0-190.0"}}, {"uniqueid": "MTK0838:3HVVDCPGTFZ2T8EOF8YN8YGUBDFTY5", "current_trial": 254, "dateTime": 1512768493706, "trialdata": {"rt": -1, "stimulus": "<p id=\"stim\">PLIERS</p>", "key_press": -1, "type": "PRES_VIS", "word": "pliers", "wordID": 1088, "conditions": [12, 800, "v", 12000], "trial": 6, "serialpos": 5, "trial_type": "single-stim", "trial_index": 254, "time_elapsed": 1234430, "internal_node_id": "0.0-191.0"}}, {"uniqueid": "MTK0838:3HVVDCPGTFZ2T8EOF8YN8YGUBDFTY5", "current_trial": 255, "dateTime": 1512768495469, "trialdata": {"rt": -1, "stimulus": "<p id=\"stim\">STICKER</p>", "key_press": -1, "type": "PRES_VIS", "word": "sticker", "wordID": 1381, "conditions": [12, 800, "v", 12000], "trial": 6, "serialpos": 6, "trial_type": "single-stim", "trial_index": 255, "time_elapsed": 1236193, "internal_node_id": "0.0-192.0"}}, {"uniqueid": "MTK0838:3HVVDCPGTFZ2T8EOF8YN8YGUBDFTY5", "current_trial": 256, "dateTime": 1512768497219, "trialdata": {"rt": -1, "stimulus": "<p id=\"stim\">BADGE</p>", "key_press": -1, "type": "PRES_VIS", "word": "badge", "wordID": 67, "conditions": [12, 800, "v", 12000], "trial": 6, "serialpos": 7, "trial_type": "single-stim", "trial_index": 256, "time_elapsed": 1237943, "internal_node_id": "0.0-193.0"}}, {"uniqueid": "MTK0838:3HVVDCPGTFZ2T8EOF8YN8YGUBDFTY5", "current_trial": 257, "dateTime": 1512768498936, "trialdata": {"rt": -1, "stimulus": "<p id=\"stim\">TUBA</p>", "key_press": -1, "type": "PRES_VIS", "word": "tuba", "wordID": 1514, "conditions": [12, 800, "v", 12000], "trial": 6, "serialpos": 8, "trial_type": "single-stim", "trial_index": 257, "time_elapsed": 1239660, "internal_node_id": "0.0-194.0"}}, {"uniqueid": "MTK0838:3HVVDCPGTFZ2T8EOF8YN8YGUBDFTY5", "current_trial": 258, "dateTime": 1512768500573, "trialdata": {"rt": -1, "stimulus": "<p id=\"stim\">SNAIL</p>", "key_press": -1, "type": "PRES_VIS", "word": "snail", "wordID": 1331, "conditions": [12, 800, "v", 12000], "trial": 6, "serialpos": 9, "trial_type": "single-stim", "trial_index": 258, "time_elapsed": 1241297, "internal_node_id": "0.0-195.0"}}, {"uniqueid": "MTK0838:3HVVDCPGTFZ2T8EOF8YN8YGUBDFTY5", "current_trial": 259, "dateTime": 1512768502384, "trialdata": {"rt": -1, "stimulus": "<p id=\"stim\">MACHINE</p>", "key_press": -1, "type": "PRES_VIS", "word": "machine", "wordID": 851, "conditions": [12, 800, "v", 12000], "trial": 6, "serialpos": 10, "trial_type": "single-stim", "trial_index": 259, "time_elapsed": 1243108, "internal_node_id": "0.0-196.0"}}, {"uniqueid": "MTK0838:3HVVDCPGTFZ2T8EOF8YN8YGUBDFTY5", "current_trial": 260, "dateTime": 1512768504401, "trialdata": {"rt": -1, "stimulus": "<p id=\"stim\">LACE</p>", "key_press": -1, "type": "PRES_VIS", "word": "lace", "wordID": 791, "conditions": [12, 800, "v", 12000], "trial": 6, "serialpos": 11, "trial_type": "single-stim", "trial_index": 260, "time_elapsed": 1245125, "internal_node_id": "0.0-197.0"}}, {"uniqueid": "MTK0838:3HVVDCPGTFZ2T8EOF8YN8YGUBDFTY5", "current_trial": 261, "dateTime": 1512768506821, "trialdata": {"rt": -1, "stimulus": "", "key_press": -1, "type": "PRE_RECALL_DELAY", "trial_type": "single-stim", "trial_index": 261, "time_elapsed": 1247545, "internal_node_id": "0.0-198.0-0.0"}}, {"uniqueid": "MTK0838:3HVVDCPGTFZ2T8EOF8YN8YGUBDFTY5", "current_trial": 262, "dateTime": 1512768507324, "trialdata": {"rt": -1000, "stimulus": "/static/audio/400Hz.wav", "key_press": -1, "type": "PRE_RECALL_ALERT", "trial_type": "single-audio", "trial_index": 262, "time_elapsed": 1248048, "internal_node_id": "0.0-199.0"}}, {"uniqueid": "MTK0838:3HVVDCPGTFZ2T8EOF8YN8YGUBDFTY5", "current_trial": 263, "dateTime": 1512768567326, "trialdata": {"rt": [1289, 2274, 3599, 8823, 12787, 41994], "recwords": ["lace", "tuba", "machine", "sticker", "badge", "world"], "type": "FREE_RECALL", "conditions": [12, 800, "v", 12000], "trial": 6, "trial_type": "free-recall", "trial_index": 263, "time_elapsed": 1308050, "internal_node_id": "0.0-200.0-0.0"}}, {"uniqueid": "MTK0838:3HVVDCPGTFZ2T8EOF8YN8YGUBDFTY5", "current_trial": 264, "dateTime": 1512768576209, "trialdata": {"rt": 6880, "key_press": 13, "type": "INSTRUCTIONS", "trial_type": "text", "trial_index": 264, "time_elapsed": 1316933, "internal_node_id": "0.0-201.0"}}, {"uniqueid": "MTK0838:3HVVDCPGTFZ2T8EOF8YN8YGUBDFTY5", "current_trial": 265, "dateTime": 1512768590243, "trialdata": {"rt": [2181, 4140, 5595, 7700, 9222, 11980], "responses": ["24", "12", "8", "16", "11", "16"], "num1": [6, 1, 2, 6, 5, 6, 6], "num2": [9, 4, 5, 2, 4, 3, 8], "num3": [9, 7, 1, 8, 2, 7, 9], "type": "DISTRACTOR", "conditions": [12, 800, "a", 12000], "trial": 7, "trial_type": "math-distractor", "trial_index": 265, "time_elapsed": 1330967, "internal_node_id": "0.0-202.0"}}, {"uniqueid": "MTK0838:3HVVDCPGTFZ2T8EOF8YN8YGUBDFTY5", "current_trial": 266, "dateTime": 1512768593257, "trialdata": {"rt": -1, "stimulus": "<p id=\"stim\">10</p>", "key_press": -1, "trial_type": "single-stim", "trial_index": 266, "time_elapsed": 1333981, "internal_node_id": "0.0-203.0-0.0"}}, {"uniqueid": "MTK0838:3HVVDCPGTFZ2T8EOF8YN8YGUBDFTY5", "current_trial": 267, "dateTime": 1512768594257, "trialdata": {"rt": -1, "stimulus": "<p id=\"stim\">9</p>", "key_press": -1, "trial_type": "single-stim", "trial_index": 267, "time_elapsed": 1334981, "internal_node_id": "0.0-203.0-1.0"}}, {"uniqueid": "MTK0838:3HVVDCPGTFZ2T8EOF8YN8YGUBDFTY5", "current_trial": 268, "dateTime": 1512768595260, "trialdata": {"rt": -1, "stimulus": "<p id=\"stim\">8</p>", "key_press": -1, "trial_type": "single-stim", "trial_index": 268, "time_elapsed": 1335984, "internal_node_id": "0.0-203.0-2.0"}}, {"uniqueid": "MTK0838:3HVVDCPGTFZ2T8EOF8YN8YGUBDFTY5", "current_trial": 269, "dateTime": 1512768596275, "trialdata": {"rt": -1, "stimulus": "<p id=\"stim\">7</p>", "key_press": -1, "trial_type": "single-stim", "trial_index": 269, "time_elapsed": 1336999, "internal_node_id": "0.0-203.0-3.0"}}, {"uniqueid": "MTK0838:3HVVDCPGTFZ2T8EOF8YN8YGUBDFTY5", "current_trial": 270, "dateTime": 1512768597289, "trialdata": {"rt": -1, "stimulus": "<p id=\"sti