{"condition": 0, "counterbalance": 993, "assignmentId": "3K9FOBBF2IQKYW25ZXNL5R86DEWLN7", "workerId": "MTK0744", "hitId": "301KG0KX9CSK0UWSWR51WRGH5XD2H6", "currenttrial": 626, "bonus": 0, "data": [{"uniqueid": "MTK0744:3K9FOBBF2IQKYW25ZXNL5R86DEWLN7", "current_trial": 0, "dateTime": 1512685595985, "trialdata": {"rt": 9213, "key_press": 13, "type": "INSTRUCTIONS", "trial_type": "text", "trial_index": 0, "time_elapsed": 9215, "internal_node_id": "0.0-0.0"}}, {"uniqueid": "MTK0744:3K9FOBBF2IQKYW25ZXNL5R86DEWLN7", "current_trial": 1, "dateTime": 1512685625409, "trialdata": {"rt": 29424, "key_press": 13, "type": "INSTRUCTIONS", "trial_type": "text", "trial_index": 1, "time_elapsed": 38640, "internal_node_id": "0.0-1.0"}}, {"uniqueid": "MTK0744:3K9FOBBF2IQKYW25ZXNL5R86DEWLN7", "current_trial": 2, "dateTime": 1512685681429, "trialdata": {"rt": [56013], "responses": ["ocean"], "type": "AUDIO_TEST", "trial_type": "audio-test", "trial_index": 2, "time_elapsed": 94660, "internal_node_id": "0.0-2.0"}}, {"uniqueid": "MTK0744:3K9FOBBF2IQKYW25ZXNL5R86DEWLN7", "current_trial": 3, "dateTime": 1512685699904, "trialdata": {"rt": [9551, 18473], "responses": ["crysta", "crystal"], "type": "AUDIO_TEST", "trial_type": "audio-test", "trial_index": 3, "time_elapsed": 113135, "internal_node_id": "0.0-3.0"}}, {"uniqueid": "MTK0744:3K9FOBBF2IQKYW25ZXNL5R86DEWLN7", "current_trial": 4, "dateTime": 1512685706337, "trialdata": {"rt": [6430], "responses": ["spice"], "type": "AUDIO_TEST", "trial_type": "audio-test", "trial_index": 4, "time_elapsed": 119568, "internal_node_id": "0.0-4.0"}}, {"uniqueid": "MTK0744:3K9FOBBF2IQKYW25ZXNL5R86DEWLN7", "current_trial": 5, "dateTime": 1512685787605, "trialdata": {"rt": 80517, "responses": "{\"Q0\":\"12:00\",\"Q1\":\"\",\"Q2\":\"\"}", "type": "SLEEP_SURVEY", "trial_type": "survey-text", "trial_index": 5, "time_elapsed": 200836, "internal_node_id": "0.0-5.0"}}, {"uniqueid": "MTK0744:3K9FOBBF2IQKYW25ZXNL5R86DEWLN7", "current_trial": 6, "dateTime": 1512685837282, "trialdata": {"rt": 48676, "key_press": 13, "type": "INSTRUCTIONS", "trial_type": "text", "trial_index": 6, "time_elapsed": 250513, "internal_node_id": "0.0-6.0"}}, {"uniqueid": "MTK0744:3K9FOBBF2IQKYW25ZXNL5R86DEWLN7", "current_trial": 7, "dateTime": 1512685858760, "trialdata": {"rt": 20976, "key_press": 13, "type": "INSTRUCTIONS", "trial_type": "text", "trial_index": 7, "time_elapsed": 271991, "internal_node_id": "0.0-7.0"}}, {"uniqueid": "MTK0744:3K9FOBBF2IQKYW25ZXNL5R86DEWLN7", "current_trial": 8, "dateTime": 1512685900425, "trialdata": {"rt": 41163, "key_press": 13, "type": "INSTRUCTIONS", "trial_type": "text", "trial_index": 8, "time_elapsed": 313656, "internal_node_id": "0.0-8.0"}}, {"uniqueid": "MTK0744:3K9FOBBF2IQKYW25ZXNL5R86DEWLN7", "current_trial": 9, "dateTime": 1512685919430, "trialdata": {"rt": [4781, 7681, 11547, 13509, 15578, 17600], "responses": ["17", "16", "18", "4", "10", "13"], "num1": [8, 9, 9, 1, 3, 3, 6], "num2": [4, 2, 2, 2, 3, 7, 1], "num3": [5, 5, 7, 1, 4, 3, 7], "type": "DISTRACTOR", "conditions": [18, 1200, "a", 18000], "trial": 0, "trial_type": "math-distractor", "trial_index": 9, "time_elapsed": 332661, "internal_node_id": "0.0-9.0"}}, {"uniqueid": "MTK0744:3K9FOBBF2IQKYW25ZXNL5R86DEWLN7", "current_trial": 10, "dateTime": 1512685922432, "trialdata": {"rt": -1, "stimulus": "<p id=\"stim\">10</p>", "key_press": -1, "trial_type": "single-stim", "trial_index": 10, "time_elapsed": 335663, "internal_node_id": "0.0-10.0-0.0"}}, {"uniqueid": "MTK0744:3K9FOBBF2IQKYW25ZXNL5R86DEWLN7", "current_trial": 11, "dateTime": 1512685923433, "trialdata": {"rt": -1, "stimulus": "<p id=\"stim\">9</p>", "key_press": -1, "trial_type": "single-stim", "trial_index": 11, "time_elapsed": 336664, "internal_node_id": "0.0-10.0-1.0"}}, {"uniqueid": "MTK0744:3K9FOBBF2IQKYW25ZXNL5R86DEWLN7", "current_trial": 12, "dateTime": 1512685924435, "trialdata": {"rt": -1, "stimulus": "<p id=\"stim\">8</p>", "key_press": -1, "trial_type": "single-stim", "trial_index": 12, "time_elapsed": 337665, "internal_node_id": "0.0-10.0-2.0"}}, {"uniqueid": "MTK0744:3K9FOBBF2IQKYW25ZXNL5R86DEWLN7", "current_trial": 13, "dateTime": 1512685925435, "trialdata": {"rt": -1, "stimulus": "<p id=\"stim\">7</p>", "key_press": -1, "trial_type": "single-stim", "trial_index": 13, "time_elapsed": 338666, "internal_node_id": "0.0-10.0-3.0"}}, {"uniqueid": "MTK0744:3K9FOBBF2IQKYW25ZXNL5R86DEWLN7", "current_trial": 14, "dateTime": 1512685926436, "trialdata": {"rt": -1, "stimulus": "<p id=\"stim\">6</p>", "key_press": -1, "trial_type": "single-stim", "trial_index": 14, "time_elapsed": 339667, "internal_node_id": "0.0-10.0-4.0"}}, {"uniqueid": "MTK0744:3K9FOBBF2IQKYW25ZXNL5R86DEWLN7", "current_trial": 15, "dateTime": 1512685927437, "trialdata": {"rt": -1, "stimulus": "<p id=\"stim\">5</p>", "key_press": -1, "trial_type": "single-stim", "trial_index": 15, "time_elapsed": 340668, "internal_node_id": "0.0-10.0-5.0"}}, {"uniqueid": "MTK0744:3K9FOBBF2IQKYW25ZXNL5R86DEWLN7", "current_trial": 16, "dateTime": 1512685928438, "trialdata": {"rt": -1, "stimulus": "<p id=\"stim\">4</p>", "key_press": -1, "trial_type": "single-stim", "trial_index": 16, "time_elapsed": 341669, "internal_node_id": "0.0-10.0-6.0"}}, {"uniqueid": "MTK0744:3K9FOBBF2IQKYW25ZXNL5R86DEWLN7", "current_trial": 17, "dateTime": 1512685929439, "trialdata": {"rt": -1, "stimulus": "<p id=\"stim\">3</p>", "key_press": -1, "trial_type": "single-stim", "trial_index": 17, "time_elapsed": 342670, "internal_node_id": "0.0-10.0-7.0"}}, {"uniqueid": "MTK0744:3K9FOBBF2IQKYW25ZXNL5R86DEWLN7", "current_trial": 18, "dateTime": 1512685930440, "trialdata": {"rt": -1, "stimulus": "<p id=\"stim\">2</p>", "key_press": -1, "trial_type": "single-stim", "trial_index": 18, "time_elapsed": 343671, "internal_node_id": "0.0-10.0-8.0"}}, {"uniqueid": "MTK0744:3K9FOBBF2IQKYW25ZXNL5R86DEWLN7", "current_trial": 19, "dateTime": 1512685931441, "trialdata": {"rt": -1, "stimulus": "<p id=\"stim\">1</p>", "key_press": -1, "trial_type": "single-stim", "trial_index": 19, "time_elapsed": 344672, "internal_node_id": "0.0-10.0-9.0"}}, {"uniqueid": "MTK0744:3K9FOBBF2IQKYW25ZXNL5R86DEWLN7", "current_trial": 20, "dateTime": 1512685932942, "trialdata": {"rt": -1, "stimulus": "<p id=\"stim\">+</p>", "key_press": -1, "type": "FIXATION", "trial_type": "single-stim", "trial_index": 20, "time_elapsed": 346173, "internal_node_id": "0.0-11.0-0.0"}}, {"uniqueid": "MTK0744:3K9FOBBF2IQKYW25ZXNL5R86DEWLN7", "current_trial": 21, "dateTime": 1512685935080, "trialdata": {"rt": -1000, "stimulus": "/static/audio/wordpool/FOX.wav", "key_press": -1, "type": "PRES_AUD", "word": "fox", "wordID": 597, "conditions": [18, 1200, "a", 18000], "trial": 0, "serialpos": 0, "trial_type": "single-audio", "trial_index": 21, "time_elapsed": 348311, "internal_node_id": "0.0-12.0"}}, {"uniqueid": "MTK0744:3K9FOBBF2IQKYW25ZXNL5R86DEWLN7", "current_trial": 22, "dateTime": 1512685937363, "trialdata": {"rt": -1000, "stimulus": "/static/audio/wordpool/RAFT.wav", "key_press": -1, "type": "PRES_AUD", "word": "raft", "wordID": 1158, "conditions": [18, 1200, "a", 18000], "trial": 0, "serialpos": 1, "trial_type": "single-audio", "trial_index": 22, "time_elapsed": 350593, "internal_node_id": "0.0-13.0"}}, {"uniqueid": "MTK0744:3K9FOBBF2IQKYW25ZXNL5R86DEWLN7", "current_trial": 23, "dateTime": 1512685939481, "trialdata": {"rt": -1000, "stimulus": "/static/audio/wordpool/GUARD.wav", "key_press": -1, "type": "PRES_AUD", "word": "guard", "wordID": 666, "conditions": [18, 1200, "a", 18000], "trial": 0, "serialpos": 2, "trial_type": "single-audio", "trial_index": 23, "time_elapsed": 352712, "internal_node_id": "0.0-14.0"}}, {"uniqueid": "MTK0744:3K9FOBBF2IQKYW25ZXNL5R86DEWLN7", "current_trial": 24, "dateTime": 1512685941488, "trialdata": {"rt": -1000, "stimulus": "/static/audio/wordpool/GARBAGE.wav", "key_press": -1, "type": "PRES_AUD", "word": "garbage", "wordID": 621, "conditions": [18, 1200, "a", 18000], "trial": 0, "serialpos": 3, "trial_type": "single-audio", "trial_index": 24, "time_elapsed": 354719, "internal_node_id": "0.0-15.0"}}, {"uniqueid": "MTK0744:3K9FOBBF2IQKYW25ZXNL5R86DEWLN7", "current_trial": 25, "dateTime": 1512685943657, "trialdata": {"rt": -1000, "stimulus": "/static/audio/wordpool/PIMPLE.wav", "key_press": -1, "type": "PRES_AUD", "word": "pimple", "wordID": 1070, "conditions": [18, 1200, "a", 18000], "trial": 0, "serialpos": 4, "trial_type": "single-audio", "trial_index": 25, "time_elapsed": 356888, "internal_node_id": "0.0-16.0"}}, {"uniqueid": "MTK0744:3K9FOBBF2IQKYW25ZXNL5R86DEWLN7", "current_trial": 26, "dateTime": 1512685945907, "trialdata": {"rt": -1000, "stimulus": "/static/audio/wordpool/JUDGE.wav", "key_press": -1, "type": "PRES_AUD", "word": "judge", "wordID": 760, "conditions": [18, 1200, "a", 18000], "trial": 0, "serialpos": 5, "trial_type": "single-audio", "trial_index": 26, "time_elapsed": 359138, "internal_node_id": "0.0-17.0"}}, {"uniqueid": "MTK0744:3K9FOBBF2IQKYW25ZXNL5R86DEWLN7", "current_trial": 27, "dateTime": 1512685948204, "trialdata": {"rt": -1000, "stimulus": "/static/audio/wordpool/CARROT.wav", "key_press": -1, "type": "PRES_AUD", "word": "carrot", "wordID": 248, "conditions": [18, 1200, "a", 18000], "trial": 0, "serialpos": 6, "trial_type": "single-audio", "trial_index": 27, "time_elapsed": 361435, "internal_node_id": "0.0-18.0"}}, {"uniqueid": "MTK0744:3K9FOBBF2IQKYW25ZXNL5R86DEWLN7", "current_trial": 28, "dateTime": 1512685950489, "trialdata": {"rt": -1000, "stimulus": "/static/audio/wordpool/COWBOY.wav", "key_press": -1, "type": "PRES_AUD", "word": "cowboy", "wordID": 394, "conditions": [18, 1200, "a", 18000], "trial": 0, "serialpos": 7, "trial_type": "single-audio", "trial_index": 28, "time_elapsed": 363720, "internal_node_id": "0.0-19.0"}}, {"uniqueid": "MTK0744:3K9FOBBF2IQKYW25ZXNL5R86DEWLN7", "current_trial": 29, "dateTime": 1512685952784, "trialdata": {"rt": -1000, "stimulus": "/static/audio/wordpool/BRICK.wav", "key_press": -1, "type": "PRES_AUD", "word": "brick", "wordID": 171, "conditions": [18, 1200, "a", 18000], "trial": 0, "serialpos": 8, "trial_type": "single-audio", "trial_index": 29, "time_elapsed": 366014, "internal_node_id": "0.0-20.0"}}, {"uniqueid": "MTK0744:3K9FOBBF2IQKYW25ZXNL5R86DEWLN7", "current_trial": 30, "dateTime": 1512685954805, "trialdata": {"rt": -1000, "stimulus": "/static/audio/wordpool/SPHINX.wav", "key_press": -1, "type": "PRES_AUD", "word": "sphinx", "wordID": 1348, "conditions": [18, 1200, "a", 18000], "trial": 0, "serialpos": 9, "trial_type": "single-audio", "trial_index": 30, "time_elapsed": 368036, "internal_node_id": "0.0-21.0"}}, {"uniqueid": "MTK0744:3K9FOBBF2IQKYW25ZXNL5R86DEWLN7", "current_trial": 31, "dateTime": 1512685956845, "trialdata": {"rt": -1000, "stimulus": "/static/audio/wordpool/CANAL.wav", "key_press": -1, "type": "PRES_AUD", "word": "canal", "wordID": 225, "conditions": [18, 1200, "a", 18000], "trial": 0, "serialpos": 10, "trial_type": "single-audio", "trial_index": 31, "time_elapsed": 370076, "internal_node_id": "0.0-22.0"}}, {"uniqueid": "MTK0744:3K9FOBBF2IQKYW25ZXNL5R86DEWLN7", "current_trial": 32, "dateTime": 1512685959229, "trialdata": {"rt": -1000, "stimulus": "/static/audio/wordpool/SHORTCAKE.wav", "key_press": -1, "type": "PRES_AUD", "word": "shortcake", "wordID": 1291, "conditions": [18, 1200, "a", 18000], "trial": 0, "serialpos": 11, "trial_type": "single-audio", "trial_index": 32, "time_elapsed": 372460, "internal_node_id": "0.0-23.0"}}, {"uniqueid": "MTK0744:3K9FOBBF2IQKYW25ZXNL5R86DEWLN7", "current_trial": 33, "dateTime": 1512685961443, "trialdata": {"rt": -1000, "stimulus": "/static/audio/wordpool/LASER.wav", "key_press": -1, "type": "PRES_AUD", "word": "laser", "wordID": 800, "conditions": [18, 1200, "a", 18000], "trial": 0, "serialpos": 12, "trial_type": "single-audio", "trial_index": 33, "time_elapsed": 374674, "internal_node_id": "0.0-24.0"}}, {"uniqueid": "MTK0744:3K9FOBBF2IQKYW25ZXNL5R86DEWLN7", "current_trial": 34, "dateTime": 1512685963728, "trialdata": {"rt": -1000, "stimulus": "/static/audio/wordpool/SHOVEL.wav", "key_press": -1, "type": "PRES_AUD", "word": "shovel", "wordID": 1294, "conditions": [18, 1200, "a", 18000], "trial": 0, "serialpos": 13, "trial_type": "single-audio", "trial_index": 34, "time_elapsed": 376959, "internal_node_id": "0.0-25.0"}}, {"uniqueid": "MTK0744:3K9FOBBF2IQKYW25ZXNL5R86DEWLN7", "current_trial": 35, "dateTime": 1512685965745, "trialdata": {"rt": -1000, "stimulus": "/static/audio/wordpool/CLAM.wav", "key_press": -1, "type": "PRES_AUD", "word": "clam", "wordID": 314, "conditions": [18, 1200, "a", 18000], "trial": 0, "serialpos": 14, "trial_type": "single-audio", "trial_index": 35, "time_elapsed": 378976, "internal_node_id": "0.0-26.0"}}, {"uniqueid": "MTK0744:3K9FOBBF2IQKYW25ZXNL5R86DEWLN7", "current_trial": 36, "dateTime": 1512685967871, "trialdata": {"rt": -1000, "stimulus": "/static/audio/wordpool/SHARK.wav", "key_press": -1, "type": "PRES_AUD", "word": "shark", "wordID": 1274, "conditions": [18, 1200, "a", 18000], "trial": 0, "serialpos": 15, "trial_type": "single-audio", "trial_index": 36, "time_elapsed": 381102, "internal_node_id": "0.0-27.0"}}, {"uniqueid": "MTK0744:3K9FOBBF2IQKYW25ZXNL5R86DEWLN7", "current_trial": 37, "dateTime": 1512685970173, "trialdata": {"rt": -1000, "stimulus": "/static/audio/wordpool/BANQUET.wav", "key_press": -1, "type": "PRES_AUD", "word": "banquet", "wordID": 85, "conditions": [18, 1200, "a", 18000], "trial": 0, "serialpos": 16, "trial_type": "single-audio", "trial_index": 37, "time_elapsed": 383404, "internal_node_id": "0.0-28.0"}}, {"uniqueid": "MTK0744:3K9FOBBF2IQKYW25ZXNL5R86DEWLN7", "current_trial": 38, "dateTime": 1512685972323, "trialdata": {"rt": -1000, "stimulus": "/static/audio/wordpool/REBEL.wav", "key_press": -1, "type": "PRES_AUD", "word": "rebel", "wordID": 1171, "conditions": [18, 1200, "a", 18000], "trial": 0, "serialpos": 17, "trial_type": "single-audio", "trial_index": 38, "time_elapsed": 385554, "internal_node_id": "0.0-29.0"}}, {"uniqueid": "MTK0744:3K9FOBBF2IQKYW25ZXNL5R86DEWLN7", "current_trial": 39, "dateTime": 1512685973620, "trialdata": {"rt": -1, "stimulus": "", "key_press": -1, "type": "PRE_RECALL_DELAY", "trial_type": "single-stim", "trial_index": 39, "time_elapsed": 386851, "internal_node_id": "0.0-30.0-0.0"}}, {"uniqueid": "MTK0744:3K9FOBBF2IQKYW25ZXNL5R86DEWLN7", "current_trial": 40, "dateTime": 1512685974121, "trialdata": {"rt": -1000, "stimulus": "/static/audio/400Hz.wav", "key_press": -1, "type": "PRE_RECALL_ALERT", "trial_type": "single-audio", "trial_index": 40, "time_elapsed": 387352, "internal_node_id": "0.0-31.0"}}, {"uniqueid": "MTK0744:3K9FOBBF2IQKYW25ZXNL5R86DEWLN7", "current_trial": 41, "dateTime": 1512686034127, "trialdata": {"rt": [5074, 5313, 8034, 8278, 10154, 15605, 17439, 22114, 23209, 32044, 33303, 38234, 45285, 51013], "recwords": ["short", "", "banquet", "", "fox", "shortcake", "rebele", "shovel", "clam", "sharp", "laser", "cana", "clam", ""], "type": "FREE_RECALL", "conditions": [18, 1200, "a", 18000], "trial": 0, "trial_type": "free-recall", "trial_index": 41, "time_elapsed": 447355, "internal_node_id": "0.0-32.0-0.0"}}, {"uniqueid": "MTK0744:3K9FOBBF2IQKYW25ZXNL5R86DEWLN7", "current_trial": 42, "dateTime": 1512686037755, "trialdata": {"rt": 1627, "key_press": 32, "type": "INSTRUCTIONS", "trial_type": "text", "trial_index": 42, "time_elapsed": 450986, "internal_node_id": "0.0-33.0"}}, {"uniqueid": "MTK0744:3K9FOBBF2IQKYW25ZXNL5R86DEWLN7", "current_trial": 43, "dateTime": 1512686057759, "trialdata": {"rt": [3753, 11401, 14454, 16330], "responses": ["19", "22", "18", "6"], "num1": [8, 9, 3, 1, 2], "num2": [5, 4, 7, 3, 3], "num3": [6, 9, 8, 2, 8], "type": "DISTRACTOR", "conditions": [18, 1200, "v", 18000], "trial": 1, "trial_type": "math-distractor", "trial_index": 43, "time_elapsed": 470990, "internal_node_id": "0.0-34.0"}}, {"uniqueid": "MTK0744:3K9FOBBF2IQKYW25ZXNL5R86DEWLN7", "current_trial": 44, "dateTime": 1512686060761, "trialdata": {"rt": -1, "stimulus": "<p id=\"stim\">10</p>", "key_press": -1, "trial_type": "single-stim", "trial_index": 44, "time_elapsed": 473992, "internal_node_id": "0.0-35.0-0.0"}}, {"uniqueid": "MTK0744:3K9FOBBF2IQKYW25ZXNL5R86DEWLN7", "current_trial": 45, "dateTime": 1512686061762, "trialdata": {"rt": -1, "stimulus": "<p id=\"stim\">9</p>", "key_press": -1, "trial_type": "single-stim", "trial_index": 45, "time_elapsed": 474993, "internal_node_id": "0.0-35.0-1.0"}}, {"uniqueid": "MTK0744:3K9FOBBF2IQKYW25ZXNL5R86DEWLN7", "current_trial": 46, "dateTime": 1512686062762, "trialdata": {"rt": -1, "stimulus": "<p id=\"stim\">8</p>", "key_press": -1, "trial_type": "single-stim", "trial_index": 46, "time_elapsed": 475993, "internal_node_id": "0.0-35.0-2.0"}}, {"uniqueid": "MTK0744:3K9FOBBF2IQKYW25ZXNL5R86DEWLN7", "current_trial": 47, "dateTime": 1512686063763, "trialdata": {"rt": -1, "stimulus": "<p id=\"stim\">7</p>", "key_press": -1, "trial_type": "single-stim", "trial_index": 47, "time_elapsed": 476994, "internal_node_id": "0.0-35.0-3.0"}}, {"uniqueid": "MTK0744:3K9FOBBF2IQKYW25ZXNL5R86DEWLN7", "current_trial": 48, "dateTime": 1512686064764, "trialdata": {"rt": -1, "stimulus": "<p id=\"stim\">6</p>", "key_press": -1, "trial_type": "single-stim", "trial_index": 48, "time_elapsed": 477995, "internal_node_id": "0.0-35.0-4.0"}}, {"uniqueid": "MTK0744:3K9FOBBF2IQKYW25ZXNL5R86DEWLN7", "current_trial": 49, "dateTime": 1512686065764, "trialdata": {"rt": -1, "stimulus": "<p id=\"stim\">5</p>", "key_press": -1, "trial_type": "single-stim", "trial_index": 49, "time_elapsed": 478995, "internal_node_id": "0.0-35.0-5.0"}}, {"uniqueid": "MTK0744:3K9FOBBF2IQKYW25ZXNL5R86DEWLN7", "current_trial": 50, "dateTime": 1512686066765, "trialdata": {"rt": -1, "stimulus": "<p id=\"stim\">4</p>", "key_press": -1, "trial_type": "single-stim", "trial_index": 50, "time_elapsed": 479996, "internal_node_id": "0.0-35.0-6.0"}}, {"uniqueid": "MTK0744:3K9FOBBF2IQKYW25ZXNL5R86DEWLN7", "current_trial": 51, "dateTime": 1512686067766, "trialdata": {"rt": -1, "stimulus": "<p id=\"stim\">3</p>", "key_press": -1, "trial_type": "single-stim", "trial_index": 51, "time_elapsed": 480997, "internal_node_id": "0.0-35.0-7.0"}}, {"uniqueid": "MTK0744:3K9FOBBF2IQKYW25ZXNL5R86DEWLN7", "current_trial": 52, "dateTime": 1512686068766, "trialdata": {"rt": -1, "stimulus": "<p id=\"stim\">2</p>", "key_press": -1, "trial_type": "single-stim", "trial_index": 52, "time_elapsed": 481997, "internal_node_id": "0.0-35.0-8.0"}}, {"uniqueid": "MTK0744:3K9FOBBF2IQKYW25ZXNL5R86DEWLN7", "current_trial": 53, "dateTime": 1512686069767, "trialdata": {"rt": -1, "stimulus": "<p id=\"stim\">1</p>", "key_press": -1, "trial_type": "single-stim", "trial_index": 53, "time_elapsed": 482998, "internal_node_id": "0.0-35.0-9.0"}}, {"uniqueid": "MTK0744:3K9FOBBF2IQKYW25ZXNL5R86DEWLN7", "current_trial": 54, "dateTime": 1512686071268, "trialdata": {"rt": -1, "stimulus": "<p id=\"stim\">+</p>", "key_press": -1, "type": "FIXATION", "trial_type": "single-stim", "trial_index": 54, "time_elapsed": 484499, "internal_node_id": "0.0-36.0-0.0"}}, {"uniqueid": "MTK0744:3K9FOBBF2IQKYW25ZXNL5R86DEWLN7", "current_trial": 55, "dateTime": 1512686072469, "trialdata": {"rt": -1, "stimulus": "<p id=\"stim\">FLASHLIGHT</p>", "key_press": -1, "type": "PRES_VIS", "word": "flashlight", "wordID": 574, "conditions": [18, 1200, "v", 18000], "trial": 1, "serialpos": 0, "trial_type": "single-stim", "trial_index": 55, "time_elapsed": 485700, "internal_node_id": "0.0-37.0"}}, {"uniqueid": "MTK0744:3K9FOBBF2IQKYW25ZXNL5R86DEWLN7", "current_trial": 56, "dateTime": 1512686074742, "trialdata": {"rt": -1, "stimulus": "<p id=\"stim\">HAWK</p>", "key_press": -1, "type": "PRES_VIS", "word": "hawk", "wordID": 691, "conditions": [18, 1200, "v", 18000], "trial": 1, "serialpos": 1, "trial_type": "single-stim", "trial_index": 56, "time_elapsed": 487973, "internal_node_id": "0.0-38.0"}}, {"uniqueid": "MTK0744:3K9FOBBF2IQKYW25ZXNL5R86DEWLN7", "current_trial": 57, "dateTime": 1512686076855, "trialdata": {"rt": -1, "stimulus": "<p id=\"stim\">BACON</p>", "key_press": -1, "type": "PRES_VIS", "word": "bacon", "wordID": 66, "conditions": [18, 1200, "v", 18000], "trial": 1, "serialpos": 2, "trial_type": "single-stim", "trial_index": 57, "time_elapsed": 490086, "internal_node_id": "0.0-39.0"}}, {"uniqueid": "MTK0744:3K9FOBBF2IQKYW25ZXNL5R86DEWLN7", "current_trial": 58, "dateTime": 1512686078966, "trialdata": {"rt": -1, "stimulus": "<p id=\"stim\">FOREST</p>", "key_press": -1, "type": "PRES_VIS", "word": "forest", "wordID": 592, "conditions": [18, 1200, "v", 18000], "trial": 1, "serialpos": 3, "trial_type": "single-stim", "trial_index": 58, "time_elapsed": 492197, "internal_node_id": "0.0-40.0"}}, {"uniqueid": "MTK0744:3K9FOBBF2IQKYW25ZXNL5R86DEWLN7", "current_trial": 59, "dateTime": 1512686081018, "trialdata": {"rt": -1, "stimulus": "<p id=\"stim\">TROUT</p>", "key_press": -1, "type": "PRES_VIS", "word": "trout", "wordID": 1510, "conditions": [18, 1200, "v", 18000], "trial": 1, "serialpos": 4, "trial_type": "single-stim", "trial_index": 59, "time_elapsed": 494249, "internal_node_id": "0.0-41.0"}}, {"uniqueid": "MTK0744:3K9FOBBF2IQKYW25ZXNL5R86DEWLN7", "current_trial": 60, "dateTime": 1512686083246, "trialdata": {"rt": -1, "stimulus": "<p id=\"stim\">MOTOR</p>", "key_press": -1, "type": "PRES_VIS", "word": "motor", "wordID": 921, "conditions": [18, 1200, "v", 18000], "trial": 1, "serialpos": 5, "trial_type": "single-stim", "trial_index": 60, "time_elapsed": 496477, "internal_node_id": "0.0-42.0"}}, {"uniqueid": "MTK0744:3K9FOBBF2IQKYW25ZXNL5R86DEWLN7", "current_trial": 61, "dateTime": 1512686085630, "trialdata": {"rt": -1, "stimulus": "<p id=\"stim\">BEEF</p>", "key_press": -1, "type": "PRES_VIS", "word": "beef", "wordID": 112, "conditions": [18, 1200, "v", 18000], "trial": 1, "serialpos": 6, "trial_type": "single-stim", "trial_index": 61, "time_elapsed": 498861, "internal_node_id": "0.0-43.0"}}, {"uniqueid": "MTK0744:3K9FOBBF2IQKYW25ZXNL5R86DEWLN7", "current_trial": 62, "dateTime": 1512686087955, "trialdata": {"rt": -1, "stimulus": "<p id=\"stim\">DENTIST</p>", "key_press": -1, "type": "PRES_VIS", "word": "dentist", "wordID": 446, "conditions": [18, 1200, "v", 18000], "trial": 1, "serialpos": 7, "trial_type": "single-stim", "trial_index": 62, "time_elapsed": 501186, "internal_node_id": "0.0-44.0"}}, {"uniqueid": "MTK0744:3K9FOBBF2IQKYW25ZXNL5R86DEWLN7", "current_trial": 63, "dateTime": 1512686089964, "trialdata": {"rt": -1, "stimulus": "<p id=\"stim\">SEAFOOD</p>", "key_press": -1, "type": "PRES_VIS", "word": "seafood", "wordID": 1259, "conditions": [18, 1200, "v", 18000], "trial": 1, "serialpos": 8, "trial_type": "single-stim", "trial_index": 63, "time_elapsed": 503195, "internal_node_id": "0.0-45.0"}}, {"uniqueid": "MTK0744:3K9FOBBF2IQKYW25ZXNL5R86DEWLN7", "current_trial": 64, "dateTime": 1512686092295, "trialdata": {"rt": -1, "stimulus": "<p id=\"stim\">LION</p>", "key_press": -1, "type": "PRES_VIS", "word": "lion", "wordID": 826, "conditions": [18, 1200, "v", 18000], "trial": 1, "serialpos": 9, "trial_type": "single-stim", "trial_index": 64, "time_elapsed": 505526, "internal_node_id": "0.0-46.0"}}, {"uniqueid": "MTK0744:3K9FOBBF2IQKYW25ZXNL5R86DEWLN7", "current_trial": 65, "dateTime": 1512686094513, "trialdata": {"rt": -1, "stimulus": "<p id=\"stim\">GAZELLE</p>", "key_press": -1, "type": "PRES_VIS", "word": "gazelle", "wordID": 627, "conditions": [18, 1200, "v", 18000], "trial": 1, "serialpos": 10, "trial_type": "single-stim", "trial_index": 65, "time_elapsed": 507744, "internal_node_id": "0.0-47.0"}}, {"uniqueid": "MTK0744:3K9FOBBF2IQKYW25ZXNL5R86DEWLN7", "current_trial": 66, "dateTime": 1512686096907, "trialdata": {"rt": -1, "stimulus": "<p id=\"stim\">PACKAGE</p>", "key_press": -1, "type": "PRES_VIS", "word": "package", "wordID": 996, "conditions": [18, 1200, "v", 18000], "trial": 1, "serialpos": 11, "trial_type": "single-stim", "trial_index": 66, "time_elapsed": 510138, "internal_node_id": "0.0-48.0"}}, {"uniqueid": "MTK0744:3K9FOBBF2IQKYW25ZXNL5R86DEWLN7", "current_trial": 67, "dateTime": 1512686099078, "trialdata": {"rt": -1, "stimulus": "<p id=\"stim\">MUSTARD</p>", "key_press": -1, "type": "PRES_VIS", "word": "mustard", "wordID": 934, "conditions": [18, 1200, "v", 18000], "trial": 1, "serialpos": 12, "trial_type": "single-stim", "trial_index": 67, "time_elapsed": 512309, "internal_node_id": "0.0-49.0"}}, {"uniqueid": "MTK0744:3K9FOBBF2IQKYW25ZXNL5R86DEWLN7", "current_trial": 68, "dateTime": 1512686101192, "trialdata": {"rt": -1, "stimulus": "<p id=\"stim\">WORKER</p>", "key_press": -1, "type": "PRES_VIS", "word": "worker", "wordID": 1620, "conditions": [18, 1200, "v", 18000], "trial": 1, "serialpos": 13, "trial_type": "single-stim", "trial_index": 68, "time_elapsed": 514422, "internal_node_id": "0.0-50.0"}}, {"uniqueid": "MTK0744:3K9FOBBF2IQKYW25ZXNL5R86DEWLN7", "current_trial": 69, "dateTime": 1512686103198, "trialdata": {"rt": -1, "stimulus": "<p id=\"stim\">SPARROW</p>", "key_press": -1, "type": "PRES_VIS", "word": "sparrow", "wordID": 1346, "conditions": [18, 1200, "v", 18000], "trial": 1, "serialpos": 14, "trial_type": "single-stim", "trial_index": 69, "time_elapsed": 516429, "internal_node_id": "0.0-51.0"}}, {"uniqueid": "MTK0744:3K9FOBBF2IQKYW25ZXNL5R86DEWLN7", "current_trial": 70, "dateTime": 1512686105296, "trialdata": {"rt": -1, "stimulus": "<p id=\"stim\">STAPLE</p>", "key_press": -1, "type": "PRES_VIS", "word": "staple", "wordID": 1370, "conditions": [18, 1200, "v", 18000], "trial": 1, "serialpos": 15, "trial_type": "single-stim", "trial_index": 70, "time_elapsed": 518527, "internal_node_id": "0.0-52.0"}}, {"uniqueid": "MTK0744:3K9FOBBF2IQKYW25ZXNL5R86DEWLN7", "current_trial": 71, "dateTime": 1512686107411, "trialdata": {"rt": -1, "stimulus": "<p id=\"stim\">HOSTESS</p>", "key_press": -1, "type": "PRES_VIS", "word": "hostess", "wordID": 722, "conditions": [18, 1200, "v", 18000], "trial": 1, "serialpos": 16, "trial_type": "single-stim", "trial_index": 71, "time_elapsed": 520642, "internal_node_id": "0.0-53.0"}}, {"uniqueid": "MTK0744:3K9FOBBF2IQKYW25ZXNL5R86DEWLN7", "current_trial": 72, "dateTime": 1512686109509, "trialdata": {"rt": -1, "stimulus": "<p id=\"stim\">BUBBLE</p>", "key_press": -1, "type": "PRES_VIS", "word": "bubble", "wordID": 182, "conditions": [18, 1200, "v", 18000], "trial": 1, "serialpos": 17, "trial_type": "single-stim", "trial_index": 72, "time_elapsed": 522740, "internal_node_id": "0.0-54.0"}}, {"uniqueid": "MTK0744:3K9FOBBF2IQKYW25ZXNL5R86DEWLN7", "current_trial": 73, "dateTime": 1512686111856, "trialdata": {"rt": -1, "stimulus": "", "key_press": -1, "type": "PRE_RECALL_DELAY", "trial_type": "single-stim", "trial_index": 73, "time_elapsed": 525087, "internal_node_id": "0.0-55.0-0.0"}}, {"uniqueid": "MTK0744:3K9FOBBF2IQKYW25ZXNL5R86DEWLN7", "current_trial": 74, "dateTime": 1512686112358, "trialdata": {"rt": -1000, "stimulus": "/static/audio/400Hz.wav", "key_press": -1, "type": "PRE_RECALL_ALERT", "trial_type": "single-audio", "trial_index": 74, "time_elapsed": 525589, "internal_node_id": "0.0-56.0"}}, {"uniqueid": "MTK0744:3K9FOBBF2IQKYW25ZXNL5R86DEWLN7", "current_trial": 75, "dateTime": 1512686172363, "trialdata": {"rt": [10591, 12677, 15606, 21365, 28295, 34556, 39454, 40849, 46312, 47719, 51328, 58476], "recwords": ["hostess", "bubble", "staple", "package", "worker", "seafood", "gazelle", "lion", "motor", "beef", "dentist", "bacon"], "type": "FREE_RECALL", "conditions": [18, 1200, "v", 18000], "trial": 1, "trial_type": "free-recall", "trial_index": 75, "time_elapsed": 585590, "internal_node_id": "0.0-57.0-0.0"}}, {"uniqueid": "MTK0744:3K9FOBBF2IQKYW25ZXNL5R86DEWLN7", "current_trial": 76, "dateTime": 1512686182781, "trialdata": {"rt": 8413, "key_press": 13, "type": "INSTRUCTIONS", "trial_type": "text", "trial_index": 76, "time_elapsed": 596009, "internal_node_id": "0.0-58.0"}}, {"uniqueid": "MTK0744:3K9FOBBF2IQKYW25ZXNL5R86DEWLN7", "current_trial": 77, "dateTime": 1512686195786, "trialdata": {"rt": [3351, 4953, 7085, 9103, 11988], "responses": ["19", "15", "11", "17", "19"], "num1": [6, 7, 6, 9, 8, 5], "num2": [8, 3, 4, 2, 5, 8], "num3": [5, 5, 1, 6, 6, 2], "type": "DISTRACTOR", "conditions": [12, 1600, "v", 12000], "trial": 2, "trial_type": "math-distractor", "trial_index": 77, "time_elapsed": 609017, "internal_node_id": "0.0-59.0"}}, {"uniqueid": "MTK0744:3K9FOBBF2IQKYW25ZXNL5R86DEWLN7", "current_trial": 78, "dateTime": 1512686198790, "trialdata": {"rt": -1, "stimulus": "<p id=\"stim\">10</p>", "key_press": -1, "trial_type": "single-stim", "trial_index": 78, "time_elapsed": 612021, "internal_node_id": "0.0-60.0-0.0"}}, {"uniqueid": "MTK0744:3K9FOBBF2IQKYW25ZXNL5R86DEWLN7", "current_trial": 79, "dateTime": 1512686199793, "trialdata": {"rt": -1, "stimulus": "<p id=\"stim\">9</p>", "key_press": -1, "trial_type": "single-stim", "trial_index": 79, "time_elapsed": 613024, "internal_node_id": "0.0-60.0-1.0"}}, {"uniqueid": "MTK0744:3K9FOBBF2IQKYW25ZXNL5R86DEWLN7", "current_trial": 80, "dateTime": 1512686200795, "trialdata": {"rt": -1, "stimulus": "<p id=\"stim\">8</p>", "key_press": -1, "trial_type": "single-stim", "trial_index": 80, "time_elapsed": 614025, "internal_node_id": "0.0-60.0-2.0"}}, {"uniqueid": "MTK0744:3K9FOBBF2IQKYW25ZXNL5R86DEWLN7", "current_trial": 81, "dateTime": 1512686201796, "trialdata": {"rt": -1, "stimulus": "<p id=\"stim\">7</p>", "key_press": -1, "trial_type": "single-stim", "trial_index": 81, "time_elapsed": 615027, "internal_node_id": "0.0-60.0-3.0"}}, {"uniqueid": "MTK0744:3K9FOBBF2IQKYW25ZXNL5R86DEWLN7", "current_trial": 82, "dateTime": 1512686202798, "trialdata": {"rt": -1, "stimulus": "<p id=\"stim\">6</p>", "key_press": -1, "trial_type": "single-stim", "trial_index": 82, "time_elapsed": 616029, "internal_node_id": "0.0-60.0-4.0"}}, {"uniqueid": "MTK0744:3K9FOBBF2IQKYW25ZXNL5R86DEWLN7", "current_trial": 83, "dateTime": 1512686203799, "trialdata": {"rt": -1, "stimulus": "<p id=\"stim\">5</p>", "key_press": -1, "trial_type": "single-stim", "trial_index": 83, "time_elapsed": 617030, "internal_node_id": "0.0-60.0-5.0"}}, {"uniqueid": "MTK0744:3K9FOBBF2IQKYW25ZXNL5R86DEWLN7", "current_trial": 84, "dateTime": 1512686204802, "trialdata": {"rt": -1, "stimulus": "<p id=\"stim\">4</p>", "key_press": -1, "trial_type": "single-stim", "trial_index": 84, "time_elapsed": 618032, "internal_node_id": "0.0-60.0-6.0"}}, {"uniqueid": "MTK0744:3K9FOBBF2IQKYW25ZXNL5R86DEWLN7", "current_trial": 85, "dateTime": 1512686205804, "trialdata": {"rt": -1, "stimulus": "<p id=\"stim\">3</p>", "key_press": -1, "trial_type": "single-stim", "trial_index": 85, "time_elapsed": 619034, "internal_node_id": "0.0-60.0-7.0"}}, {"uniqueid": "MTK0744:3K9FOBBF2IQKYW25ZXNL5R86DEWLN7", "current_trial": 86, "dateTime": 1512686206805, "trialdata": {"rt": -1, "stimulus": "<p id=\"stim\">2</p>", "key_press": -1, "trial_type": "single-stim", "trial_index": 86, "time_elapsed": 620036, "internal_node_id": "0.0-60.0-8.0"}}, {"uniqueid": "MTK0744:3K9FOBBF2IQKYW25ZXNL5R86DEWLN7", "current_trial": 87, "dateTime": 1512686207808, "trialdata": {"rt": -1, "stimulus": "<p id=\"stim\">1</p>", "key_press": -1, "trial_type": "single-stim", "trial_index": 87, "time_elapsed": 621038, "internal_node_id": "0.0-60.0-9.0"}}, {"uniqueid": "MTK0744:3K9FOBBF2IQKYW25ZXNL5R86DEWLN7", "current_trial": 88, "dateTime": 1512686209311, "trialdata": {"rt": -1, "stimulus": "<p id=\"stim\">+</p>", "key_press": -1, "type": "FIXATION", "trial_type": "single-stim", "trial_index": 88, "time_elapsed": 622541, "internal_node_id": "0.0-61.0-0.0"}}, {"uniqueid": "MTK0744:3K9FOBBF2IQKYW25ZXNL5R86DEWLN7", "current_trial": 89, "dateTime": 1512686210911, "trialdata": {"rt": -1, "stimulus": "<p id=\"stim\">BISON</p>", "key_press": -1, "type": "PRES_VIS", "word": "bison", "wordID": 130, "conditions": [12, 1600, "v", 12000], "trial": 2, "serialpos": 0, "trial_type": "single-stim", "trial_index": 89, "time_elapsed": 624142, "internal_node_id": "0.0-62.0"}}, {"uniqueid": "MTK0744:3K9FOBBF2IQKYW25ZXNL5R86DEWLN7", "current_trial": 90, "dateTime": 1512686213653, "trialdata": {"rt": -1, "stimulus": "<p id=\"stim\">CATCHER</p>", "key_press": -1, "type": "PRES_VIS", "word": "catcher", "wordID": 257, "conditions": [12, 1600, "v", 12000], "trial": 2, "serialpos": 1, "trial_type": "single-stim", "trial_index": 90, "time_elapsed": 626884, "internal_node_id": "0.0-63.0"}}, {"uniqueid": "MTK0744:3K9FOBBF2IQKYW25ZXNL5R86DEWLN7", "current_trial": 91, "dateTime": 1512686216069, "trialdata": {"rt": -1, "stimulus": "<p id=\"stim\">HIGHWAY</p>", "key_press": -1, "type": "PRES_VIS", "word": "highway", "wordID": 706, "conditions": [12, 1600, "v", 12000], "trial": 2, "serialpos": 2, "trial_type": "single-stim", "trial_index": 91, "time_elapsed": 629299, "internal_node_id": "0.0-64.0"}}, {"uniqueid": "MTK0744:3K9FOBBF2IQKYW25ZXNL5R86DEWLN7", "current_trial": 92, "dateTime": 1512686218847, "trialdata": {"rt": -1, "stimulus": "<p id=\"stim\">SMOG</p>", "key_press": -1, "type": "PRES_VIS", "word": "smog", "wordID": 1329, "conditions": [12, 1600, "v", 12000], "trial": 2, "serialpos": 3, "trial_type": "single-stim", "trial_index": 92, "time_elapsed": 632078, "internal_node_id": "0.0-65.0"}}, {"uniqueid": "MTK0744:3K9FOBBF2IQKYW25ZXNL5R86DEWLN7", "current_trial": 93, "dateTime": 1512686221400, "trialdata": {"rt": -1, "stimulus": "<p id=\"stim\">FLAG</p>", "key_press": -1, "type": "PRES_VIS", "word": "flag", "wordID": 572, "conditions": [12, 1600, "v", 12000], "trial": 2, "serialpos": 4, "trial_type": "single-stim", "trial_index": 93, "time_elapsed": 634630, "internal_node_id": "0.0-66.0"}}, {"uniqueid": "MTK0744:3K9FOBBF2IQKYW25ZXNL5R86DEWLN7", "current_trial": 94, "dateTime": 1512686224182, "trialdata": {"rt": -1, "stimulus": "<p id=\"stim\">CRITIC</p>", "key_press": -1, "type": "PRES_VIS", "word": "critic", "wordID": 409, "conditions": [12, 1600, "v", 12000], "trial": 2, "serialpos": 5, "trial_type": "single-stim", "trial_index": 94, "time_elapsed": 637412, "internal_node_id": "0.0-67.0"}}, {"uniqueid": "MTK0744:3K9FOBBF2IQKYW25ZXNL5R86DEWLN7", "current_trial": 95, "dateTime": 1512686226822, "trialdata": {"rt": -1, "stimulus": "<p id=\"stim\">OUTDOORS</p>", "key_press": -1, "type": "PRES_VIS", "word": "outdoors", "wordID": 986, "conditions": [12, 1600, "v", 12000], "trial": 2, "serialpos": 6, "trial_type": "single-stim", "trial_index": 95, "time_elapsed": 640052, "internal_node_id": "0.0-68.0"}}, {"uniqueid": "MTK0744:3K9FOBBF2IQKYW25ZXNL5R86DEWLN7", "current_trial": 96, "dateTime": 1512686229377, "trialdata": {"rt": -1, "stimulus": "<p id=\"stim\">SOFTBALL</p>", "key_press": -1, "type": "PRES_VIS", "word": "softball", "wordID": 1342, "conditions": [12, 1600, "v", 12000], "trial": 2, "serialpos": 7, "trial_type": "single-stim", "trial_index": 96, "time_elapsed": 642608, "internal_node_id": "0.0-69.0"}}, {"uniqueid": "MTK0744:3K9FOBBF2IQKYW25ZXNL5R86DEWLN7", "current_trial": 97, "dateTime": 1512686231997, "trialdata": {"rt": -1, "stimulus": "<p id=\"stim\">JOURNAL</p>", "key_press": -1, "type": "PRES_VIS", "word": "journal", "wordID": 759, "conditions": [12, 1600, "v", 12000], "trial": 2, "serialpos": 8, "trial_type": "single-stim", "trial_index": 97, "time_elapsed": 645227, "internal_node_id": "0.0-70.0"}}, {"uniqueid": "MTK0744:3K9FOBBF2IQKYW25ZXNL5R86DEWLN7", "current_trial": 98, "dateTime": 1512686234406, "trialdata": {"rt": -1, "stimulus": "<p id=\"stim\">CATTLE</p>", "key_press": -1, "type": "PRES_VIS", "word": "cattle", "wordID": 260, "conditions": [12, 1600, "v", 12000], "trial": 2, "serialpos": 9, "trial_type": "single-stim", "trial_index": 98, "time_elapsed": 647637, "internal_node_id": "0.0-71.0"}}, {"uniqueid": "MTK0744:3K9FOBBF2IQKYW25ZXNL5R86DEWLN7", "current_trial": 99, "dateTime": 1512686236868, "trialdata": {"rt": -1, "stimulus": "<p id=\"stim\">SCALLOP</p>", "key_press": -1, "type": "PRES_VIS", "word": "scallop", "wordID": 1241, "conditions": [12, 1600, "v", 12000], "trial": 2, "serialpos": 10, "trial_type": "single-stim", "trial_index": 99, "time_elapsed": 650098, "internal_node_id": "0.0-72.0"}}, {"uniqueid": "MTK0744:3K9FOBBF2IQKYW25ZXNL5R86DEWLN7", "current_trial": 100, "dateTime": 1512686239665, "trialdata": {"rt": -1, "stimulus": "<p id=\"stim\">SALMON</p>", "key_press": -1, "type": "PRES_VIS", "word": "salmon", "wordID": 1226, "conditions": [12, 1600, "v", 12000], "trial": 2, "serialpos": 11, "trial_type": "single-stim", "trial_index": 100, "time_elapsed": 652896, "internal_node_id": "0.0-73.0"}}, {"uniqueid": "MTK0744:3K9FOBBF2IQKYW25ZXNL5R86DEWLN7", "current_trial": 101, "dateTime": 1512686241957, "trialdata": {"rt": -1, "stimulus": "", "key_press": -1, "type": "PRE_RECALL_DELAY", "trial_type": "single-stim", "trial_index": 101, "time_elapsed": 655188, "internal_node_id": "0.0-74.0-0.0"}}, {"uniqueid": "MTK0744:3K9FOBBF2IQKYW25ZXNL5R86DEWLN7", "current_trial": 102, "dateTime": 1512686242467, "trialdata": {"rt": -1000, "stimulus": "/static/audio/400Hz.wav", "key_press": -1, "type": "PRE_RECALL_ALERT", "trial_type": "single-audio", "trial_index": 102, "time_elapsed": 655698, "internal_node_id": "0.0-75.0"}}, {"uniqueid": "MTK0744:3K9FOBBF2IQKYW25ZXNL5R86DEWLN7", "current_trial": 103, "dateTime": 1512686302475, "trialdata": {"rt": [8201, 10005, 14174, 16606, 22102, 25880, 28597, 31710, 35795, 37743, 43600, 48358], "recwords": ["journal", "castle", "salmon", "scallop", "cattle", "critic", "outdorrs", "siftball", "smof", "flag", "highway", "catcher"], "type": "FREE_RECALL", "conditions": [12, 1600, "v", 12000], "trial": 2, "trial_type": "free-recall", "trial_index": 103, "time_elapsed": 715703, "internal_node_id": "0.0-76.0-0.0"}}, {"uniqueid": "MTK0744:3K9FOBBF2IQKYW25ZXNL5R86DEWLN7", "current_trial": 104, "dateTime": 1512686313754, "trialdata": {"rt": 9278, "key_press": 13, "type": "INSTRUCTIONS", "trial_type": "text", "trial_index": 104, "time_elapsed": 726985, "internal_node_id": "0.0-77.0"}}, {"uniqueid": "MTK0744:3K9FOBBF2IQKYW25ZXNL5R86DEWLN7", "current_trial": 105, "dateTime": 1512686339758, "trialdata": {"rt": [3277, 5706, 7522, 9591, 11503, 13502, 18712, 21091, 22864], "responses": ["19", "15", "14", "17", "14", "18", "22", "13", "12"], "num1": [8, 4, 4, 6, 6, 4, 5, 2, 2, 7], "num2": [8, 7, 6, 8, 7, 7, 8, 4, 5, 1], "num3": [3, 4, 4, 3, 1, 7, 9, 7, 5, 5], "type": "DISTRACTOR", "conditions": [24, 800, "v", 24000], "trial": 3, "trial_type": "math-distractor", "trial_index": 105, "time_elapsed": 752989, "internal_node_id": "0.0-78.0"}}, {"uniqueid": "MTK0744:3K9FOBBF2IQKYW25ZXNL5R86DEWLN7", "current_trial": 106, "dateTime": 1512686342761, "trialdata": {"rt": -1, "stimulus": "<p id=\"stim\">10</p>", "key_press": -1, "trial_type": "single-stim", "trial_index": 106, "time_elapsed": 755992, "internal_node_id": "0.0-79.0-0.0"}}, {"uniqueid": "MTK0744:3K9FOBBF2IQKYW25ZXNL5R86DEWLN7", "current_trial": 107, "dateTime": 1512686343764, "trialdata": {"rt": -1, "stimulus": "<p id=\"stim\">9</p>", "key_press": -1, "trial_type": "single-stim", "trial_index": 107, "time_elapsed": 756994, "internal_node_id": "0.0-79.0-1.0"}}, {"uniqueid": "MTK0744:3K9FOBBF2IQKYW25ZXNL5R86DEWLN7", "current_trial": 108, "dateTime": 1512686344764, "trialdata": {"rt": -1, "stimulus": "<p id=\"stim\">8</p>", "key_press": -1, "trial_type": "single-stim", "trial_index": 108, "time_elapsed": 757995, "internal_node_id": "0.0-79.0-2.0"}}, {"uniqueid": "MTK0744:3K9FOBBF2IQKYW25ZXNL5R86DEWLN7", "current_trial": 109, "dateTime": 1512686345766, "trialdata": {"rt": -1, "stimulus": "<p id=\"stim\">7</p>", "key_press": -1, "trial_type": "single-stim", "trial_index": 109, "time_elapsed": 758997, "internal_node_id": "0.0-79.0-3.0"}}, {"uniqueid": "MTK0744:3K9FOBBF2IQKYW25ZXNL5R86DEWLN7", "current_trial": 110, "dateTime": 1512686346769, "trialdata": {"rt": -1, "stimulus": "<p id=\"stim\">6</p>", "key_press": -1, "trial_type": "single-stim", "trial_index": 110, "time_elapsed": 759999, "internal_node_id": "0.0-79.0-4.0"}}, {"uniqueid": "MTK0744:3K9FOBBF2IQKYW25ZXNL5R86DEWLN7", "current_trial": 111, "dateTime": 1512686347771, "trialdata": {"rt": -1, "stimulus": "<p id=\"stim\">5</p>", "key_press": -1, "trial_type": "single-stim", "trial_index": 111, "time_elapsed": 761001, "internal_node_id": "0.0-79.0-5.0"}}, {"uniqueid": "MTK0744:3K9FOBBF2IQKYW25ZXNL5R86DEWLN7", "current_trial": 112, "dateTime": 1512686348772, "trialdata": {"rt": -1, "stimulus": "<p id=\"stim\">4</p>", "key_press": -1, "trial_type": "single-stim", "trial_index": 112, "time_elapsed": 762003, "internal_node_id": "0.0-79.0-6.0"}}, {"uniqueid": "MTK0744:3K9FOBBF2IQKYW25ZXNL5R86DEWLN7", "current_trial": 113, "dateTime": 1512686349773, "trialdata": {"rt": -1, "stimulus": "<p id=\"stim\">3</p>", "key_press": -1, "trial_type": "single-stim", "trial_index": 113, "time_elapsed": 763004, "internal_node_id": "0.0-79.0-7.0"}}, {"uniqueid": "MTK0744:3K9FOBBF2IQKYW25ZXNL5R86DEWLN7", "current_trial": 114, "dateTime": 1512686350775, "trialdata": {"rt": -1, "stimulus": "<p id=\"stim\">2</p>", "key_press": -1, "trial_type": "single-stim", "trial_index": 114, "time_elapsed": 764006, "internal_node_id": "0.0-79.0-8.0"}}, {"uniqueid": "MTK0744:3K9FOBBF2IQKYW25ZXNL5R86DEWLN7", "current_trial": 115, "dateTime": 1512686351778, "trialdata": {"rt": -1, "stimulus": "<p id=\"stim\">1</p>", "key_press": -1, "trial_type": "single-stim", "trial_index": 115, "time_elapsed": 765008, "internal_node_id": "0.0-79.0-9.0"}}, {"uniqueid": "MTK0744:3K9FOBBF2IQKYW25ZXNL5R86DEWLN7", "current_trial": 116, "dateTime": 1512686353279, "trialdata": {"rt": -1, "stimulus": "<p id=\"stim\">+</p>", "key_press": -1, "type": "FIXATION", "trial_type": "single-stim", "trial_index": 116, "time_elapsed": 766510, "internal_node_id": "0.0-80.0-0.0"}}, {"uniqueid": "MTK0744:3K9FOBBF2IQKYW25ZXNL5R86DEWLN7", "current_trial": 117, "dateTime": 1512686354082, "trialdata": {"rt": -1, "stimulus": "<p id=\"stim\">GYMNAST</p>", "key_press": -1, "type": "PRES_VIS", "word": "gymnast", "wordID": 674, "conditions": [24, 800, "v", 24000], "trial": 3, "serialpos": 0, "trial_type": "single-stim", "trial_index": 117, "time_elapsed": 767313, "internal_node_id": "0.0-81.0"}}, {"uniqueid": "MTK0744:3K9FOBBF2IQKYW25ZXNL5R86DEWLN7", "current_trial": 118, "dateTime": 1512686356054, "trialdata": {"rt": -1, "stimulus": "<p id=\"stim\">PATIENT</p>", "key_press": -1, "type": "PRES_VIS", "word": "patient", "wordID": 1023, "conditions": [24, 800, "v", 24000], "trial": 3, "serialpos": 1, "trial_type": "single-stim", "trial_index": 118, "time_elapsed": 769284, "internal_node_id": "0.0-82.0"}}, {"uniqueid": "MTK0744:3K9FOBBF2IQKYW25ZXNL5R86DEWLN7", "current_trial": 119, "dateTime": 1512686357860, "trialdata": {"rt": -1, "stimulus": "<p id=\"stim\">NURSE</p>", "key_press": -1, "type": "PRES_VIS", "word": "nurse", "wordID": 962, "conditions": [24, 800, "v", 24000], "trial": 3, "serialpos": 2, "trial_type": "single-stim", "trial_index": 119, "time_elapsed": 771091, "internal_node_id": "0.0-83.0"}}, {"uniqueid": "MTK0744:3K9FOBBF2IQKYW25ZXNL5R86DEWLN7", "current_trial": 120, "dateTime": 1512686359550, "trialdata": {"rt": -1, "stimulus": "<p id=\"stim\">SCARF</p>", "key_press": -1, "type": "PRES_VIS", "word": "scarf", "wordID": 1245, "conditions": [24, 800, "v", 24000], "trial": 3, "serialpos": 3, "trial_type": "single-stim", "trial_index": 120, "time_elapsed": 772780, "internal_node_id": "0.0-84.0"}}, {"uniqueid": "MTK0744:3K9FOBBF2IQKYW25ZXNL5R86DEWLN7", "current_trial": 121, "dateTime": 1512686361539, "trialdata": {"rt": -1, "stimulus": "<p id=\"stim\">YARN</p>", "key_press": -1, "type": "PRES_VIS", "word": "yarn", "wordID": 1630, "conditions": [24, 800, "v", 24000], "trial": 3, "serialpos": 4, "trial_type": "single-stim", "trial_index": 121, "time_elapsed": 774769, "internal_node_id": "0.0-85.0"}}, {"uniqueid": "MTK0744:3K9FOBBF2IQKYW25ZXNL5R86DEWLN7", "current_trial": 122, "dateTime": 1512686363428, "trialdata": {"rt": -1, "stimulus": "<p id=\"stim\">MUMMY</p>", "key_press": -1, "type": "PRES_VIS", "word": "mummy", "wordID": 931, "conditions": [24, 800, "v", 24000], "trial": 3, "serialpos": 5, "trial_type": "single-stim", "trial_index": 122, "time_elapsed": 776659, "internal_node_id": "0.0-86.0"}}, {"uniqueid": "MTK0744:3K9FOBBF2IQKYW25ZXNL5R86DEWLN7", "current_trial": 123, "dateTime": 1512686365141, "trialdata": {"rt": -1, "stimulus": "<p id=\"stim\">WINDOW</p>", "key_press": -1, "type": "PRES_VIS", "word": "window", "wordID": 1610, "conditions": [24, 800, "v", 24000], "trial": 3, "serialpos": 6, "trial_type": "single-stim", "trial_index": 123, "time_elapsed": 778371, "internal_node_id": "0.0-87.0"}}, {"uniqueid": "MTK0744:3K9FOBBF2IQKYW25ZXNL5R86DEWLN7", "current_trial": 124, "dateTime": 1512686367132, "trialdata": {"rt": -1, "stimulus": "<p id=\"stim\">PIZZA</p>", "key_press": -1, "type": "PRES_VIS", "word": "pizza", "wordID": 1078, "conditions": [24, 800, "v", 24000], "trial": 3, "serialpos": 7, "trial_type": "single-stim", "trial_index": 124, "time_elapsed": 780363, "internal_node_id": "0.0-88.0"}}, {"uniqueid": "MTK0744:3K9FOBBF2IQKYW25ZXNL5R86DEWLN7", "current_trial": 125, "dateTime": 1512686368928, "trialdata": {"rt": -1, "stimulus": "<p id=\"stim\">PIGEON</p>", "key_press": -1, "type": "PRES_VIS", "word": "pigeon", "wordID": 1064, "conditions": [24, 800, "v", 24000], "trial": 3, "serialpos": 8, "trial_type": "single-stim", "trial_index": 125, "time_elapsed": 782159, "internal_node_id": "0.0-89.0"}}, {"uniqueid": "MTK0744:3K9FOBBF2IQKYW25ZXNL5R86DEWLN7", "current_trial": 126, "dateTime": 1512686370885, "trialdata": {"rt": -1, "stimulus": "<p id=\"stim\">SERVANT</p>", "key_press": -1, "type": "PRES_VIS", "word": "servant", "wordID": 1270, "conditions": [24, 800, "v", 24000], "trial": 3, "serialpos": 9, "trial_type": "single-stim", "trial_index": 126, "time_elapsed": 784115, "internal_node_id": "0.0-90.0"}}, {"uniqueid": "MTK0744:3K9FOBBF2IQKYW25ZXNL5R86DEWLN7", "current_trial": 127, "dateTime": 1512686372762, "trialdata": {"rt": -1, "stimulus": "<p id=\"stim\">DANCER</p>", "key_press": -1, "type": "PRES_VIS", "word": "dancer", "wordID": 436, "conditions": [24, 800, "v", 24000], "trial": 3, "serialpos": 10, "trial_type": "single-stim", "trial_index": 127, "time_elapsed": 785992, "internal_node_id": "0.0-91.0"}}, {"uniqueid": "MTK0744:3K9FOBBF2IQKYW25ZXNL5R86DEWLN7", "current_trial": 128, "dateTime": 1512686374536, "trialdata": {"rt": -1, "stimulus": "<p id=\"stim\">BADGE</p>", "key_press": -1, "type": "PRES_VIS", "word": "badge", "wordID": 67, "conditions": [24, 800, "v", 24000], "trial": 3, "serialpos": 11, "trial_type": "single-stim", "trial_index": 128, "time_elapsed": 787767, "internal_node_id": "0.0-92.0"}}, {"uniqueid": "MTK0744:3K9FOBBF2IQKYW25ZXNL5R86DEWLN7", "current_trial": 129, "dateTime": 1512686376265, "trialdata": {"rt": -1, "stimulus": "<p id=\"stim\">COUNTY</p>", "key_press": -1, "type": "PRES_VIS", "word": "county", "wordID": 388, "conditions": [24, 800, "v", 24000], "trial": 3, "serialpos": 12, "trial_type": "single-stim", "trial_index": 129, "time_elapsed": 789496, "internal_node_id": "0.0-93.0"}}, {"uniqueid": "MTK0744:3K9FOBBF2IQKYW25ZXNL5R86DEWLN7", "current_trial": 130, "dateTime": 1512686377902, "trialdata": {"rt": -1, "stimulus": "<p id=\"stim\">BOX</p>", "key_press": -1, "type": "PRES_VIS", "word": "box", "wordID": 158, "conditions": [24, 800, "v", 24000], "trial": 3, "serialpos": 13, "trial_type": "single-stim", "trial_index": 130, "time_elapsed": 791133, "internal_node_id": "0.0-94.0"}}, {"uniqueid": "MTK0744:3K9FOBBF2IQKYW25ZXNL5R86DEWLN7", "current_trial": 131, "dateTime": 1512686379530, "trialdata": {"rt": -1, "stimulus": "<p id=\"stim\">TUTU</p>", "key_press": -1, "type": "PRES_VIS", "word": "tutu", "wordID": 1523, "conditions": [24, 800, "v", 24000], "trial": 3, "serialpos": 14, "trial_type": "single-stim", "trial_index": 131, "time_elapsed": 792760, "internal_node_id": "0.0-95.0"}}, {"uniqueid": "MTK0744:3K9FOBBF2IQKYW25ZXNL5R86DEWLN7", "current_trial": 132, "dateTime": 1512686381341, "trialdata": {"rt": -1, "stimulus": "<p id=\"stim\">CUSTARD</p>", "key_press": -1, "type": "PRES_VIS", "word": "custard", "wordID": 428, "conditions": [24, 800, "v", 24000], "trial": 3, "serialpos": 15, "trial_type": "single-stim", "trial_index": 132, "time_elapsed": 794572, "internal_node_id": "0.0-96.0"}}, {"uniqueid": "MTK0744:3K9FOBBF2IQKYW25ZXNL5R86DEWLN7", "current_trial": 133, "dateTime": 1512686383108, "trialdata": {"rt": -1, "stimulus": "<p id=\"stim\">BLOUSE</p>", "key_press": -1, "type": "PRES_VIS", "word": "blouse", "wordID": 138, "conditions": [24, 800, "v", 24000], "trial": 3, "serialpos": 16, "trial_type": "single-stim", "trial_index": 133, "time_elapsed": 796338, "internal_node_id": "0.0-97.0"}}, {"uniqueid": "MTK0744:3K9FOBBF2IQKYW25ZXNL5R86DEWLN7", "current_trial": 134, "dateTime": 1512686384883, "trialdata": {"rt": -1, "stimulus": "<p id=\"stim\">PENGUIN</p>", "key_press": -1, "type": "PRES_VIS", "word": "penguin", "wordID": 1043, "conditions": [24, 800, "v", 24000], "trial": 3, "serialpos": 17, "trial_type": "single-stim", "trial_index": 134, "time_elapsed": 798113, "internal_node_id": "0.0-98.0"}}, {"uniqueid": "MTK0744:3K9FOBBF2IQKYW25ZXNL5R86DEWLN7", "current_trial": 135, "dateTime": 1512686386643, "trialdata": {"rt": -1, "stimulus": "<p id=\"stim\">BUNNY</p>", "key_press": -1, "type": "PRES_VIS", "word": "bunny", "wordID": 197, "conditions": [24, 800, "v", 24000], "trial": 3, "serialpos": 18, "trial_type": "single-stim", "trial_index": 135, "time_elapsed": 799873, "internal_node_id": "0.0-99.0"}}, {"uniqueid": "MTK0744:3K9FOBBF2IQKYW25ZXNL5R86DEWLN7", "current_trial": 136, "dateTime": 1512686388503, "trialdata": {"rt": -1, "stimulus": "<p id=\"stim\">SALAD</p>", "key_press": -1, "type": "PRES_VIS", "word": "salad", "wordID": 1223, "conditions": [24, 800, "v", 24000], "trial": 3, "serialpos": 19, "trial_type": "single-stim", "trial_index": 136, "time_elapsed": 801733, "internal_node_id": "0.0-100.0"}}, {"uniqueid": "MTK0744:3K9FOBBF2IQKYW25ZXNL5R86DEWLN7", "current_trial": 137, "dateTime": 1512686390502, "trialdata": {"rt": -1, "stimulus": "<p id=\"stim\">SUITCASE</p>", "key_press": -1, "type": "PRES_VIS", "word": "suitcase", "wordID": 1402, "conditions": [24, 800, "v", 24000], "trial": 3, "serialpos": 20, "trial_type": "single-stim", "trial_index": 137, "time_elapsed": 803732, "internal_node_id": "0.0-101.0"}}, {"uniqueid": "MTK0744:3K9FOBBF2IQKYW25ZXNL5R86DEWLN7", "current_trial": 138, "dateTime": 1512686392326, "trialdata": {"rt": -1, "stimulus": "<p id=\"stim\">ICEBERG</p>", "key_press": -1, "type": "PRES_VIS", "word": "iceberg", "wordID": 730, "conditions": [24, 800, "v", 24000], "trial": 3, "serialpos": 21, "trial_type": "single-stim", "trial_index": 138, "time_elapsed": 805556, "internal_node_id": "0.0-102.0"}}, {"uniqueid": "MTK0744:3K9FOBBF2IQKYW25ZXNL5R86DEWLN7", "current_trial": 139, "dateTime": 1512686394225, "trialdata": {"rt": -1, "stimulus": "<p id=\"stim\">PADDING</p>", "key_press": -1, "type": "PRES_VIS", "word": "padding", "wordID": 998, "conditions": [24, 800, "v", 24000], "trial": 3, "serialpos": 22, "trial_type": "single-stim", "trial_index": 139, "time_elapsed": 807455, "internal_node_id": "0.0-103.0"}}, {"uniqueid": "MTK0744:3K9FOBBF2IQKYW25ZXNL5R86DEWLN7", "current_trial": 140, "dateTime": 1512686395975, "trialdata": {"rt": -1, "stimulus": "<p id=\"stim\">WARDROBE</p>", "key_press": -1, "type": "PRES_VIS", "word": "wardrobe", "wordID": 1586, "conditions": [24, 800, "v", 24000], "trial": 3, "serialpos": 23, "trial_type": "single-stim", "trial_index": 140, "time_elapsed": 809206, "internal_node_id": "0.0-104.0"}}, {"uniqueid": "MTK0744:3K9FOBBF2IQKYW25ZXNL5R86DEWLN7", "current_trial": 141, "dateTime": 1512686398307, "trialdata": {"rt": -1, "stimulus": "", "key_press": -1, "type": "PRE_RECALL_DELAY", "trial_type": "single-stim", "trial_index": 141, "time_elapsed": 811538, "internal_node_id": "0.0-105.0-0.0"}}, {"uniqueid": "MTK0744:3K9FOBBF2IQKYW25ZXNL5R86DEWLN7", "current_trial": 142, "dateTime": 1512686398809, "trialdata": {"rt": -1000, "stimulus": "/static/audio/400Hz.wav", "key_press": -1, "type": "PRE_RECALL_ALERT", "trial_type": "single-audio", "trial_index": 142, "time_elapsed": 812040, "internal_node_id": "0.0-106.0"}}, {"uniqueid": "MTK0744:3K9FOBBF2IQKYW25ZXNL5R86DEWLN7", "current_trial": 143, "dateTime": 1512686458816, "trialdata": {"rt": [18008, 19738, 21697], "recwords": ["dancer", "baby", "custard"], "type": "FREE_RECALL", "conditions": [24, 800, "v", 24000], "trial": 3, "trial_type": "free-recall", "trial_index": 143, "time_elapsed": 872043, "internal_node_id": "0.0-107.0-0.0"}}, {"uniqueid": "MTK0744:3K9FOBBF2IQKYW25ZXNL5R86DEWLN7", "current_trial": 144, "dateTime": 1512686492906, "trialdata": {"rt": 32089, "key_press": 13, "type": "INSTRUCTIONS", "trial_type": "text", "trial_index": 144, "time_elapsed": 906137, "internal_node_id": "0.0-108.0"}}, {"uniqueid": "MTK0744:3K9FOBBF2IQKYW25ZXNL5R86DEWLN7", "current_trial": 145, "dateTime": 1512686518912, "trialdata": {"rt": [5380, 8944, 11024, 12563, 16088, 17827, 20113, 22060], "responses": ["17", "21", "17", "6", "22", "11", "18", "19"], "num1": [8, 7, 3, 1, 7, 6, 7, 3, 3], "num2": [4, 5, 7, 4, 9, 3, 4, 9, 9], "num3": [5, 9, 7, 1, 6, 2, 7, 7, 1], "type": "DISTRACTOR", "conditions": [12, 1600, "v", 24000], "trial": 4, "trial_type": "math-distractor", "trial_index": 145, "time_elapsed": 932143, "internal_node_id": "0.0-109.0"}}, {"uniqueid": "MTK0744:3K9FOBBF2IQKYW25ZXNL5R86DEWLN7", "current_trial": 146, "dateTime": 1512686521915, "trialdata": {"rt": -1, "stimulus": "<p id=\"stim\">10</p>", "key_press": -1, "trial_type": "single-stim", "trial_index": 146, "time_elapsed": 935146, "internal_node_id": "0.0-110.0-0.0"}}, {"uniqueid": "MTK0744:3K9FOBBF2IQKYW25ZXNL5R86DEWLN7", "current_trial": 147, "dateTime": 1512686522916, "trialdata": {"rt": -1, "stimulus": "<p id=\"stim\">9</p>", "key_press": -1, "trial_type": "single-stim", "trial_index": 147, "time_elapsed": 936147, "internal_node_id": "0.0-110.0-1.0"}}, {"uniqueid": "MTK0744:3K9FOBBF2IQKYW25ZXNL5R86DEWLN7", "current_trial": 148, "dateTime": 1512686523917, "trialdata": {"rt": -1, "stimulus": "<p id=\"stim\">8</p>", "key_press": -1, "trial_type": "single-stim", "trial_index": 148, "time_elapsed": 937148, "internal_node_id": "0.0-110.0-2.0"}}, {"uniqueid": "MTK0744:3K9FOBBF2IQKYW25ZXNL5R86DEWLN7", "current_trial": 149, "dateTime": 1512686524918, "trialdata": {"rt": -1, "stimulus": "<p id=\"stim\">7</p>", "key_press": -1, "trial_type": "single-stim", "trial_index": 149, "time_elapsed": 938149, "internal_node_id": "0.0-110.0-3.0"}}, {"uniqueid": "MTK0744:3K9FOBBF2IQKYW25ZXNL5R86DEWLN7", "current_trial": 150, "dateTime": 1512686525920, "trialdata": {"rt": -1, "stimulus": "<p id=\"stim\">6</p>", "key_press": -1, "trial_type": "single-stim", "trial_index": 150, "time_elapsed": 939151, "internal_node_id": "0.0-110.0-4.0"}}, {"uniqueid": "MTK0744:3K9FOBBF2IQKYW25ZXNL5R86DEWLN7", "current_trial": 151, "dateTime": 1512686526922, "trialdata": {"rt": -1, "stimulus": "<p id=\"stim\">5</p>", "key_press": -1, "trial_type": "single-stim", "trial_index": 151, "time_elapsed": 940153, "internal_node_id": "0.0-110.0-5.0"}}, {"uniqueid": "MTK0744:3K9FOBBF2IQKYW25ZXNL5R86DEWLN7", "current_trial": 152, "dateTime": 1512686527923, "trialdata": {"rt": -1, "stimulus": "<p id=\"stim\">4</p>", "key_press": -1, "trial_type": "single-stim", "trial_index": 152, "time_elapsed": 941154, "internal_node_id": "0.0-110.0-6.0"}}, {"uniqueid": "MTK0744:3K9FOBBF2IQKYW25ZXNL5R86DEWLN7", "current_trial": 153, "dateTime": 1512686528924, "trialdata": {"rt": -1, "stimulus": "<p id=\"stim\">3</p>", "key_press": -1, "trial_type": "single-stim", "trial_index": 153, "time_elapsed": 942155, "internal_node_id": "0.0-110.0-7.0"}}, {"uniqueid": "MTK0744:3K9FOBBF2IQKYW25ZXNL5R86DEWLN7", "current_trial": 154, "dateTime": 1512686529925, "trialdata": {"rt": -1, "stimulus": "<p id=\"stim\">2</p>", "key_press": -1, "trial_type": "single-stim", "trial_index": 154, "time_elapsed": 943156, "internal_node_id": "0.0-110.0-8.0"}}, {"uniqueid": "MTK0744:3K9FOBBF2IQKYW25ZXNL5R86DEWLN7", "current_trial": 155, "dateTime": 1512686530926, "trialdata": {"rt": -1, "stimulus": "<p id=\"stim\">1</p>", "key_press": -1, "trial_type": "single-stim", "trial_index": 155, "time_elapsed": 944157, "internal_node_id": "0.0-110.0-9.0"}}, {"uniqueid": "MTK0744:3K9FOBBF2IQKYW25ZXNL5R86DEWLN7", "current_trial": 156, "dateTime": 1512686532428, "trialdata": {"rt": -1, "stimulus": "<p id=\"stim\">+</p>", "key_press": -1, "type": "FIXATION", "trial_type": "single-stim", "trial_index": 156, "time_elapsed": 945659, "internal_node_id": "0.0-111.0-0.0"}}, {"uniqueid": "MTK0744:3K9FOBBF2IQKYW25ZXNL5R86DEWLN7", "current_trial": 157, "dateTime": 1512686534030, "trialdata": {"rt": -1, "stimulus": "<p id=\"stim\">DORM</p>", "key_press": -1, "type": "PRES_VIS", "word": "dorm", "wordID": 487, "conditions": [12, 1600, "v", 24000], "trial": 4, "serialpos": 0, "trial_type": "single-stim", "trial_index": 157, "time_elapsed": 947261, "internal_node_id": "0.0-112.0"}}, {"uniqueid": "MTK0744:3K9FOBBF2IQKYW25ZXNL5R86DEWLN7", "current_trial": 158, "dateTime": 1512686536670, "trialdata": {"rt": -1, "stimulus": "<p id=\"stim\">CROSS</p>", "key_press": -1, "type": "PRES_VIS", "word": "cross", "wordID": 412, "conditions": [12, 1600, "v", 24000], "trial": 4, "serialpos": 1, "trial_type": "single-stim", "trial_index": 158, "time_elapsed": 949901, "internal_node_id": "0.0-113.0"}}, {"uniqueid": "MTK0744:3K9FOBBF2IQKYW25ZXNL5R86DEWLN7", "current_trial": 159, "dateTime": 1512686539206, "trialdata": {"rt": -1, "stimulus": "<p id=\"stim\">GLASS</p>", "key_press": -1, "type": "PRES_VIS", "word": "glass", "wordID": 638, "conditions": [12, 1600, "v", 24000], "trial": 4, "serialpos": 2, "trial_type": "single-stim", "trial_index": 159, "time_elapsed": 952436, "internal_node_id": "0.0-114.0"}}, {"uniqueid": "MTK0744:3K9FOBBF2IQKYW25ZXNL5R86DEWLN7", "current_trial": 160, "dateTime": 1512686541695, "trialdata": {"rt": -1, "stimulus": "<p id=\"stim\">STUDENT</p>", "key_press": -1, "type": "PRES_VIS", "word": "student", "wordID": 1394, "conditions": [12, 1600, "v", 24000], "trial": 4, "serialpos": 3, "trial_type": "single-stim", "trial_index": 160, "time_elapsed": 954926, "internal_node_id": "0.0-115.0"}}, {"uniqueid": "MTK0744:3K9FOBBF2IQKYW25ZXNL5R86DEWLN7", "current_trial": 161, "dateTime": 1512686544377, "trialdata": {"rt": -1, "stimulus": "<p id=\"stim\">BRANCH</p>", "key_press": -1, "type": "PRES_VIS", "word": "branch", "wordID": 167, "conditions": [12, 1600, "v", 24000], "trial": 4, "serialpos": 4, "trial_type": "single-stim", "trial_index": 161, "time_elapsed": 957608, "internal_node_id": "0.0-116.0"}}, {"uniqueid": "MTK0744:3K9FOBBF2IQKYW25ZXNL5R86DEWLN7", "current_trial": 162, "dateTime": 1512686546796, "trialdata": {"rt": -1, "stimulus": "<p id=\"stim\">ROBBER</p>", "key_press": -1, "type": "PRES_VIS", "word": "robber", "wordID": 1196, "conditions": [12, 1600, "v", 24000], "trial": 4, "serialpos": 5, "trial_type": "single-stim", "trial_index": 162, "time_elapsed": 960026, "internal_node_id": "0.0-117.0"}}, {"uniqueid": "MTK0744:3K9FOBBF2IQKYW25ZXNL5R86DEWLN7", "current_trial": 163, "dateTime": 1512686549439, "trialdata": {"rt": -1, "stimulus": "<p id=\"stim\">RUST</p>", "key_press": -1, "type": "PRES_VIS", "word": "rust", "wordID": 1218, "conditions": [12, 1600, "v", 24000], "trial": 4, "serialpos": 6, "trial_type": "single-stim", "trial_index": 163, "time_elapsed": 962670, "internal_node_id": "0.0-118.0"}}, {"uniqueid": "MTK0744:3K9FOBBF2IQKYW25ZXNL5R86DEWLN7", "current_trial": 164, "dateTime": 1512686552072, "trialdata": {"rt": -1, "stimulus": "<p id=\"stim\">SIDEWALK</p>", "key_press": -1, "type": "PRES_VIS", "word": "sidewalk", "wordID": 1302, "conditions": [12, 1600, "v", 24000], "trial": 4, "serialpos": 7, "trial_type": "single-stim", "trial_index": 164, "time_elapsed": 965303, "internal_node_id": "0.0-119.0"}}, {"uniqueid": "MTK0744:3K9FOBBF2IQKYW25ZXNL5R86DEWLN7", "current_trial": 165, "dateTime": 1512686554539, "trialdata": {"rt": -1, "stimulus": "<p id=\"stim\">LODGE</p>", "key_press": -1, "type": "PRES_VIS", "word": "lodge", "wordID": 838, "conditions": [12, 1600, "v", 24000], "trial": 4, "serialpos": 8, "trial_type": "single-stim", "trial_index": 165, "time_elapsed": 967770, "internal_node_id": "0.0-120.0"}}, {"uniqueid": "MTK0744:3K9FOBBF2IQKYW25ZXNL5R86DEWLN7", "current_trial": 166, "dateTime": 1512686557124, "trialdata": {"rt": -1, "stimulus": "<p id=\"stim\">LETTUCE</p>", "key_press": -1, "type": "PRES_VIS", "word": "lettuce", "wordID": 813, "conditions": [12, 1600, "v", 24000], "trial": 4, "serialpos": 9, "trial_type": "single-stim", "trial_index": 166, "time_elapsed": 970355, "internal_node_id": "0.0-121.0"}}, {"uniqueid": "MTK0744:3K9FOBBF2IQKYW25ZXNL5R86DEWLN7", "current_trial": 167, "dateTime": 1512686559608, "trialdata": {"rt": -1, "stimulus": "<p id=\"stim\">POLICE</p>", "key_press": -1, "type": "PRES_VIS", "word": "police", "wordID": 1097, "conditions": [12, 1600, "v", 24000], "trial": 4, "serialpos": 10, "trial_type": "single-stim", "trial_index": 167, "time_elapsed": 972839, "internal_node_id": "0.0-122.0"}}, {"uniqueid": "MTK0744:3K9FOBBF2IQKYW25ZXNL5R86DEWLN7", "current_trial": 168, "dateTime": 1512686562118, "trialdata": {"rt": -1, "stimulus": "<p id=\"stim\">PATROL</p>", "key_press": -1, "type": "PRES_VIS", "word": "patrol", "wordID": 1026, "conditions": [12, 1600, "v", 24000], "trial": 4, "serialpos": 11, "trial_type": "single-stim", "trial_index": 168, "time_elapsed": 975349, "internal_node_id": "0.0-123.0"}}, {"uniqueid": "MTK0744:3K9FOBBF2IQKYW25ZXNL5R86DEWLN7", "current_trial": 169, "dateTime": 1512686564548, "trialdata": {"rt": -1, "stimulus": "", "key_press": -1, "type": "PRE_RECALL_DELAY", "trial_type": "single-stim", "trial_index": 169, "time_elapsed": 977779, "internal_node_id": "0.0-124.0-0.0"}}, {"uniqueid": "MTK0744:3K9FOBBF2IQKYW25ZXNL5R86DEWLN7", "current_trial": 170, "dateTime": 1512686565051, "trialdata": {"rt": -1000, "stimulus": "/static/audio/400Hz.wav", "key_press": -1, "type": "PRE_RECALL_ALERT", "trial_type": "single-audio", "trial_index": 170, "time_elapsed": 978282, "internal_node_id": "0.0-125.0"}}, {"uniqueid": "MTK0744:3K9FOBBF2IQKYW25ZXNL5R86DEWLN7", "current_trial": 171, "dateTime": 1512686625062, "trialdata": {"rt": [7728, 10566, 14432, 17132, 21393, 24239, 25838, 33220, 35465, 39707, 41480, 45902, 48068, 54028, 55333], "recwords": ["police", "patrol", "lodge", "lettuce", "robber", "sidewalk", "rust", "branch", "student", "glass", "salmon", "critic", "scallop", "flag", "smog"], "type": "FREE_RECALL", "conditions": [12, 1600, "v", 24000], "trial": 4, "trial_type": "free-recall", "trial_index": 171, "time_elapsed": 1038286, "internal_node_id": "0.0-126.0-0.0"}}, {"uniqueid": "MTK0744:3K9FOBBF2IQKYW25ZXNL5R86DEWLN7", "current_trial": 172, "dateTime": 1512686629767, "trialdata": {"rt": 2704, "key_press": 13, "type": "INSTRUCTIONS", "trial_type": "text", "trial_index": 172, "time_elapsed": 1042998, "internal_node_id": "0.0-127.0"}}, {"uniqueid": "MTK0744:3K9FOBBF2IQKYW25ZXNL5R86DEWLN7", "current_trial": 173, "dateTime": 1512686655768, "trialdata": {"rt": [2153, 4006, 5375, 6883, 8664, 13210, 15628, 19180, 21030], "responses": ["10", "15", "4", "12", "18", "16", "20", "18", "5"], "num1": [2, 7, 2, 6, 8, 8, 5, 8, 3, 9], "num2": [7, 3, 1, 3, 9, 1, 9, 4, 1, 6], "num3": [1, 5, 1, 3, 1, 7, 6, 6, 1, 4], "type": "DISTRACTOR", "conditions": [12, 800, "a", 24000], "trial": 5, "trial_type": "math-distractor", "trial_index": 173, "time_elapsed": 1068999, "internal_node_id": "0.0-128.0"}}, {"uniqueid": "MTK0744:3K9FOBBF2IQKYW25ZXNL5R86DEWLN7", "current_trial": 174, "dateTime": 1512686658771, "trialdata": {"rt": -1, "stimulus": "<p id=\"stim\">10</p>", "key_press": -1, "trial_type": "single-stim", "trial_index": 174, "time_elapsed": 1072001, "internal_node_id": "0.0-129.0-0.0"}}, {"uniqueid": "MTK0744:3K9FOBBF2IQKYW25ZXNL5R86DEWLN7", "current_trial": 175, "dateTime": 1512686659773, "trialdata": {"rt": -1, "stimulus": "<p id=\"stim\">9</p>", "key_press": -1, "trial_type": "single-stim", "trial_index": 175, "time_elapsed": 1073003, "internal_node_id": "0.0-129.0-1.0"}}, {"uniqueid": "MTK0744:3K9FOBBF2IQKYW25ZXNL5R86DEWLN7", "current_trial": 176, "dateTime": 1512686660775, "trialdata": {"rt": -1, "stimulus": "<p id=\"stim\">8</p>", "key_press": -1, "trial_type": "single-stim", "trial_index": 176, "time_elapsed": 1074005, "internal_node_id": "0.0-129.0-2.0"}}, {"uniqueid": "MTK0744:3K9FOBBF2IQKYW25ZXNL5R86DEWLN7", "current_trial": 177, "dateTime": 1512686661776, "trialdata": {"rt": -1, "stimulus": "<p id=\"stim\">7</p>", "key_press": -1, "trial_type": "single-stim", "trial_index": 177, "time_elapsed": 1075007, "internal_node_id": "0.0-129.0-3.0"}}, {"uniqueid": "MTK0744:3K9FOBBF2IQKYW25ZXNL5R86DEWLN7", "current_trial": 178, "dateTime": 1512686662779, "trialdata": {"rt": -1, "stimulus": "<p id=\"stim\">6</p>", "key_press": -1, "trial_type": "single-stim", "trial_index": 178, "time_elapsed": 1076009, "internal_node_id": "0.0-129.0-4.0"}}, {"uniqueid": "MTK0744:3K9FOBBF2IQKYW25ZXNL5R86DEWLN7", "current_trial": 179, "dateTime": 1512686663781, "trialdata": {"rt": -1, "stimulus": "<p id=\"stim\">5</p>", "key_press": -1, "trial_type": "single-stim", "trial_index": 179, "time_elapsed": 1077011, "internal_node_id": "0.0-129.0-5.0"}}, {"uniqueid": "MTK0744:3K9FOBBF2IQKYW25ZXNL5R86DEWLN7", "current_trial": 180, "dateTime": 1512686664783, "trialdata": {"rt": -1, "stimulus": "<p id=\"stim\">4</p>", "key_press": -1, "trial_type": "single-stim", "trial_index": 180, "time_elapsed": 1078013, "internal_node_id": "0.0-129.0-6.0"}}, {"uniqueid": "MTK0744:3K9FOBBF2IQKYW25ZXNL5R86DEWLN7", "current_trial": 181, "dateTime": 1512686665784, "trialdata": {"rt": -1, "stimulus": "<p id=\"stim\">3</p>", "key_press": -1, "trial_type": "single-stim", "trial_index": 181, "time_elapsed": 1079015, "internal_node_id": "0.0-129.0-7.0"}}, {"uniqueid": "MTK0744:3K9FOBBF2IQKYW25ZXNL5R86DEWLN7", "current_trial": 182, "dateTime": 1512686666786, "trialdata": {"rt": -1, "stimulus": "<p id=\"stim\">2</p>", "key_press": -1, "trial_type": "single-stim", "trial_index": 182, "time_elapsed": 1080016, "internal_node_id": "0.0-129.0-8.0"}}, {"uniqueid": "MTK0744:3K9FOBBF2IQKYW25ZXNL5R86DEWLN7", "current_trial": 183, "dateTime": 1512686667789, "trialdata": {"rt": -1, "stimulus": "<p id=\"stim\">1</p>", "key_press": -1, "trial_type": "single-stim", "trial_index": 183, "time_elapsed": 1081019, "internal_node_id": "0.0-129.0-9.0"}}, {"uniqueid": "MTK0744:3K9FOBBF2IQKYW25ZXNL5R86DEWLN7", "current_trial": 184, "dateTime": 1512686669289, "trialdata": {"rt": -1, "stimulus": "<p id=\"stim\">+</p>", "key_press": -1, "type": "FIXATION", "trial_type": "single-stim", "trial_index": 184, "time_elapsed": 1082520, "internal_node_id": "0.0-130.0-0.0"}}, {"uniqueid": "MTK0744:3K9FOBBF2IQKYW25ZXNL5R86DEWLN7", "current_trial": 185, "dateTime": 1512686671285, "trialdata": {"rt": -1000, "stimulus": "/static/audio/wordpool/JAPAN.wav", "key_press": -1, "type": "PRES_AUD", "word": "japan", "wordID": 748, "conditions": [12, 800, "a", 24000], "trial": 5, "serialpos": 0, "trial_type": "single-audio", "trial_index": 185, "time_elapsed": 1084516, "internal_node_id": "0.0-131.0"}}, {"uniqueid": "MTK0744:3K9FOBBF2IQKYW25ZXNL5R86DEWLN7", "current_trial": 186, "dateTime": 1512686673175, "trialdata": {"rt": -1000, "stimulus": "/static/audio/wordpool/NAPKIN.wav", "key_press": -1, "type": "PRES_AUD", "word": "napkin", "wordID": 936, "conditions": [12, 800, "a", 24000], "trial": 5, "serialpos": 1, "trial_type": "single-audio", "trial_index": 186, "time_elapsed": 1086406, "internal_node_id": "0.0-132.0"}}, {"uniqueid": "MTK0744:3K9FOBBF2IQKYW25ZXNL5R86DEWLN7", "current_trial": 187, "dateTime": 1512686675012, "trialdata": {"rt": -1000, "stimulus": "/static/audio/wordpool/ONION.wav", "key_press": -1, "type": "PRES_AUD", "word": "onion", "wordID": 976, "conditions": [12, 800, "a", 24000], "trial": 5, "serialpos": 2, "trial_type": "single-audio", "trial_index": 187, "time_elapsed": 1088243, "internal_node_id": "0.0-133.0"}}, {"uniqueid": "MTK0744:3K9FOBBF2IQKYW25ZXNL5R86DEWLN7", "current_trial": 188, "dateTime": 1512686676773, "trialdata": {"rt": -1000, "stimulus": "/static/audio/wordpool/GARLIC.wav", "key_press": -1, "type": "PRES_AUD", "word": "garlic", "wordID": 623, "conditions": [12, 800, "a", 24000], "trial": 5, "serialpos": 3, "trial_type": "single-audio", "trial_index": 188, "time_elapsed": 1090004, "internal_node_id": "0.0-134.0"}}, {"uniqueid": "MTK0744:3K9FOBBF2IQKYW25ZXNL5R86DEWLN7", "current_trial": 189, "dateTime": 1512686678398, "trialdata": {"rt": -1000, "stimulus": "/static/audio/wordpool/PLAID.wav", "key_press": -1, "type": "PRES_AUD", "word": "plaid", "wordID": 1079, "conditions": [12, 800, "a", 24000], "trial": 5, "serialpos": 4, "trial_type": "single-audio", "trial_index": 189, "time_elapsed": 1091629, "internal_node_id": "0.0-135.0"}}, {"uniqueid": "MTK0744:3K9FOBBF2IQKYW25ZXNL5R86DEWLN7", "current_trial": 190, "dateTime": 1512686680126, "trialdata": {"rt": -1000, "stimulus": "/static/audio/wordpool/COUCH.wav", "key_press": -1, "type": "PRES_AUD", "word": "couch", "wordID": 385, "conditions": [12, 800, "a", 24000], "trial": 5, "serialpos": 5, "trial_type": "single-audio", "trial_index": 190, "time_elapsed": 1093357, "internal_node_id": "0.0-136.0"}}, {"uniqueid": "MTK0744:3K9FOBBF2IQKYW25ZXNL5R86DEWLN7", "current_trial": 191, "dateTime": 1512686682100, "trialdata": {"rt": -1000, "stimulus": "/static/audio/wordpool/CRAYON.wav", "key_press": -1, "type": "PRES_AUD", "word": "crayon", "wordID": 400, "conditions": [12, 800, "a", 24000], "trial": 5, "serialpos": 6, "trial_type": "single-audio", "trial_index": 191, "time_elapsed": 1095331, "internal_node_id": "0.0-137.0"}}, {"uniqueid": "MTK0744:3K9FOBBF2IQKYW25ZXNL5R86DEWLN7", "current_trial": 192, "dateTime": 1512686683767, "trialdata": {"rt": -1000, "stimulus": "/static/audio/wordpool/GHETTO.wav", "key_press": -1, "type": "PRES_AUD", "word": "ghetto", "wordID": 632, "conditions": [12, 800, "a", 24000], "trial": 5, "serialpos": 7, "trial_type": "single-audio", "trial_index": 192, "time_elapsed": 1096998, "internal_node_id": "0.0-138.0"}}, {"uniqueid": "MTK0744:3K9FOBBF2IQKYW25ZXNL5R86DEWLN7", "current_trial": 193, "dateTime": 1512686685521, "trialdata": {"rt": -1000, "stimulus": "/static/audio/wordpool/FRANCE.wav", "key_press": -1, "type": "PRES_AUD", "word": "france", "wordID": 600, "conditions": [12, 800, "a", 24000], "trial": 5, "serialpos": 8, "trial_type": "single-audio", "trial_index": 193, "time_elapsed": 1098752, "internal_node_id": "0.0-139.0"}}, {"uniqueid": "MTK0744:3K9FOBBF2IQKYW25ZXNL5R86DEWLN7", "current_trial": 194, "dateTime": 1512686687262, "trialdata": {"rt": -1000, "stimulus": "/static/audio/wordpool/ORCHID.wav", "key_press": -1, "type": "PRES_AUD", "word": "orchid", "wordID": 981, "conditions": [12, 800, "a", 24000], "trial": 5, "serialpos": 9, "trial_type": "single-audio", "trial_index": 194, "time_elapsed": 1100493, "internal_node_id": "0.0-140.0"}}, {"uniqueid": "MTK0744:3K9FOBBF2IQKYW25ZXNL5R86DEWLN7", "current_trial": 195, "dateTime": 1512686689128, "trialdata": {"rt": -1000, "stimulus": "/static/audio/wordpool/FIREPLACE.wav", "key_press": -1, "type": "PRES_AUD", "word": "fireplace", "wordID": 569, "conditions": [12, 800, "a", 24000], "trial": 5, "serialpos": 10, "trial_type": "single-audio", "trial_index": 195, "time_elapsed": 1102359, "internal_node_id": "0.0-141.0"}}, {"uniqueid": "MTK0744:3K9FOBBF2IQKYW25ZXNL5R86DEWLN7", "current_trial": 196, "dateTime": 1512686691085, "trialdata": {"rt": -1000, "stimulus": "/static/audio/wordpool/HARP.wav", "key_press": -1, "type": "PRES_AUD", "word": "harp", "wordID": 688, "conditions": [12, 800, "a", 24000], "trial": 5, "serialpos": 11, "trial_type": "single-audio", "trial_index": 196, "time_elapsed": 1104316, "internal_node_id": "0.0-142.0"}}, {"uniqueid": "MTK0744:3K9FOBBF2IQKYW25ZXNL5R86DEWLN7", "current_trial": 197, "dateTime": 1512686692444, "trialdata": {"rt": -1, "stimulus": "", "key_press": -1, "type": "PRE_RECALL_DELAY", "trial_type": "single-stim", "trial_index": 197, "time_elapsed": 1105675, "internal_node_id": "0.0-143.0-0.0"}}, {"uniqueid": "MTK0744:3K9FOBBF2IQKYW25ZXNL5R86DEWLN7", "current_trial": 198, "dateTime": 1512686692947, "trialdata": {"rt": -1000, "stimulus": "/static/audio/400Hz.wav", "key_press": -1, "type": "PRE_RECALL_ALERT", "trial_type": "single-audio", "trial_index": 198, "time_elapsed": 1106178, "internal_node_id": "0.0-144.0"}}, {"uniqueid": "MTK0744:3K9FOBBF2IQKYW25ZXNL5R86DEWLN7", "current_trial": 199, "dateTime": 1512686752952, "trialdata": {"rt": [6069, 8106, 11897, 16093, 18239, 24091, 26235, 34989], "recwords": ["napkind", "hand", "hut", "onion", "garlic", "couch", "crayon", "fireplace"], "type": "FREE_RECALL", "conditions": [12, 800, "a", 24000], "trial": 5, "trial_type": "free-recall", "trial_index": 199, "time_elapsed": 1166179, "internal_node_id": "0.0-145.0-0.0"}}, {"uniqueid": "MTK0744:3K9FOBBF2IQKYW25ZXNL5R86DEWLN7", "current_trial": 200, "dateTime": 1512686763095, "trialdata": {"rt": 8141, "key_press": 13, "type": "INSTRUCTIONS", "trial_type": "text", "trial_index": 200, "time_elapsed": 1176326, "internal_node_id": "0.0-146.0"}}, {"uniqueid": "MTK0744:3K9FOBBF2IQKYW25ZXNL5R86DEWLN7", "current_trial": 201, "dateTime": 1512686789100, "trialdata": {"rt": [2456, 4683, 8048, 9678, 11830, 16320, 19611, 21482], "responses": ["16", "12", "15", "10", "19", "15", "15", "19"], "num1": [6, 9, 3, 2, 9, 7, 8, 7, 7], "num2": [4, 2, 5, 7, 5, 2, 3, 8, 8], "num3": [6, 1, 7, 1, 5, 6, 4, 4, 2], "type": "DISTRACTOR", "conditions": [24, 1600, "v", 24000], "trial": 6, "trial_type": "math-distractor", "trial_index": 201, "time_elapsed": 1202331, "internal_node_id": "0.0-147.0"}}, {"uniqueid": "MTK0744:3K9FOBBF2IQKYW25ZXNL5R86DEWLN7", "current_trial": 202, "dateTime": 1512686792103, "trialdata": {"rt": -1, "stimulus": "<p id=\"stim\">10</p>", "key_press": -1, "trial_type": "single-stim", "trial_index": 202, "time_elapsed": 1205334, "internal_node_id": "0.0-148.0-0.0"}}, {"uniqueid": "MTK0744:3K9FOBBF2IQKYW25ZXNL5R86DEWLN7", "current_trial": 203, "dateTime": 1512686793105, "trialdata": {"rt": -1, "stimulus": "<p id=\"stim\">9</p>", "key_press": -1, "trial_type": "single-stim", "trial_index": 203, "time_elapsed": 1206336, "internal_node_id": "0.0-148.0-1.0"}}, {"uniqueid": "MTK0744:3K9FOBBF2IQKYW25ZXNL5R86DEWLN7", "current_trial": 204, "dateTime": 1512686794106, "trialdata": {"rt": -1, "stimulus": "<p id=\"stim\">8</p>", "key_press": -1, "trial_type": "single-stim", "trial_index": 204, "time_elapsed": 1207337, "internal_node_id": "0.0-148.0-2.0"}}, {"uniqueid": "MTK0744:3K9FOBBF2IQKYW25ZXNL5R86DEWLN7", "current_trial": 205, "dateTime": 1512686795108, "trialdata": {"rt": -1, "stimulus": "<p id=\"stim\">7</p>", "key_press": -1, "trial_type": "single-stim", "trial_index": 205, "time_elapsed": 1208339, "internal_node_id": "0.0-148.0-3.0"}}, {"uniqueid": "MTK0744:3K9FOBBF2IQKYW25ZXNL5R86DEWLN7", "current_trial": 206, "dateTime": 1512686796111, "trialdata": {"rt": -1, "stimulus": "<p id=\"stim\">6</p>", "key_press": -1, "trial_type": "single-stim", "trial_index": 206, "time_elapsed": 1209341, "internal_node_id": "0.0-148.0-4.0"}}, {"uniqueid": "MTK0744:3K9FOBBF2IQKYW25ZXNL5R86DEWLN7", "current_trial": 207, "dateTime": 1512686797113, "trialdata": {"rt": -1, "stimulus": "<p id=\"stim\">5</p>", "key_press": -1, "trial_type": "single-stim", "trial_index": 207, "time_elapsed": 1210343, "internal_node_id": "0.0-148.0-5.0"}}, {"uniqueid": "MTK0744:3K9FOBBF2IQKYW25ZXNL5R86DEWLN7", "current_trial": 208, "dateTime": 1512686798115, "trialdata": {"rt": -1, "stimulus": "<p id=\"stim\">4</p>", "key_press": -1, "trial_type": "single-stim", "trial_index": 208, "time_elapsed": 1211345, "internal_node_id": "0.0-148.0-6.0"}}, {"uniqueid": "MTK0744:3K9FOBBF2IQKYW25ZXNL5R86DEWLN7", "current_trial": 209, "dateTime": 1512686799117, "trialdata": {"rt": -1, "stimulus": "<p id=\"stim\">3</p>", "key_press": -1, "trial_type": "single-stim", "trial_index": 209, "time_elapsed": 1212348, "internal_node_id": "0.0-148.0-7.0"}}, {"uniqueid": "MTK0744:3K9FOBBF2IQKYW25ZXNL5R86DEWLN7", "current_trial": 210, "dateTime": 1512686800119, "trialdata": {"rt": -1, "stimulus": "<p id=\"stim\">2</p>", "key_press": -1, "trial_type": "single-stim", "trial_index": 210, "time_elapsed": 1213349, "internal_node_id": "0.0-148.0-8.0"}}, {"uniqueid": "MTK0744:3K9FOBBF2IQKYW25ZXNL5R86DEWLN7", "current_trial": 211, "dateTime": 1512686801120, "trialdata": {"rt": -1, "stimulus": "<p id=\"stim\">1</p>", "key_press": -1, "trial_type": "single-stim", "trial_index": 211, "time_elapsed": 1214350, "internal_node_id": "0.0-148.0-9.0"}}, {"uniqueid": "MTK0744:3K9FOBBF2IQKYW25ZXNL5R86DEWLN7", "current_trial": 212, "dateTime": 1512686802621, "trialdata": {"rt": -1, "stimulus": "<p id=\"stim\">+</p>", "key_press": -1, "type": "FIXATION", "trial_type": "single-stim", "trial_index": 212, "time_elapsed": 1215851, "internal_node_id": "0.0-149.0-0.0"}}, {"uniqueid": "MTK0744:3K9FOBBF2IQKYW25ZXNL5R86DEWLN7", "current_trial": 213, "dateTime": 1512686804223, "trialdata": {"rt": -1, "stimulus": "<p id=\"stim\">HAMPER</p>", "key_press": -1, "type": "PRES_VIS", "word": "hamper", "wordID": 681, "conditions": [24, 1600, "v", 24000], "trial": 6, "serialpos": 0, "trial_type": "single-stim", "trial_index": 213, "time_elapsed": 1217453, "internal_node_id": "0.0-150.0"}}, {"uniqueid": "MTK0744:3K9FOBBF2IQKYW25ZXNL5R86DEWLN7", "current_trial": 214, "dateTime": 1512686806918, "trialdata": {"rt": -1, "stimulus": "<p id=\"stim\">CELLAR</p>", "key_press": -1, "type": "PRES_VIS", "word": "cellar", "wordID": 266, "conditions": [24, 1600, "v", 24000], "trial": 6, "serialpos": 1, "trial_type": "single-stim", "trial_index": 214, "time_elapsed": 1220149, "internal_node_id": "0.0-151.0"}}, {"uniqueid": "MTK0744:3K9FOBBF2IQKYW25ZXNL5R86DEWLN7", "current_trial": 215, "dateTime": 1512686809605, "trialdata": {"rt": -1, "stimulus": "<p id=\"stim\">COTTAGE</p>", "key_press": -1, "type": "PRES_VIS", "word": "cottage", "wordID": 383, "conditions": [24, 1600, "v", 24000], "trial": 6, "serialpos": 2, "trial_type": "single-stim", "trial_index": 215, "time_elapsed": 1222835, "internal_node_id": "0.0-152.0"}}, {"uniqueid": "MTK0744:3K9FOBBF2IQKYW25ZXNL5R86DEWLN7", "current_trial": 216, "dateTime": 1512686812060, "trialdata": {"rt": -1, "stimulus": "<p id=\"stim\">COSTUME</p>", "key_press": -1, "type": "PRES_VIS", "word": "costume", "wordID": 382, "conditions": [24, 1600, "v", 24000], "trial": 6, "serialpos": 3, "trial_type": "single-stim", "trial_index": 216, "time_elapsed": 1225290, "internal_node_id": "0.0-153.0"}}, {"uniqueid": "MTK0744:3K9FOBBF2IQKYW25ZXNL5R86DEWLN7", "current_trial": 217, "dateTime": 1512686814822, "trialdata": {"rt": -1, "stimulus": "<p id=\"stim\">TOASTER</p>", "key_press": -1, "type": "PRES_VIS", "word": "toaster", "wordID": 1471, "conditions": [24, 1600, "v", 24000], "trial": 6, "serialpos": 4, "trial_type": "single-stim", "trial_index": 217, "time_elapsed": 1228052, "internal_node_id": "0.0-154.0"}}, {"uniqueid": "MTK0744:3K9FOBBF2IQKYW25ZXNL5R86DEWLN7", "current_trial": 218, "dateTime": 1512686817483, "trialdata": {"rt": -1, "stimulus": "<p id=\"stim\">POCKET</p>", "key_press": -1, "type": "PRES_VIS", "word": "pocket", "wordID": 1092, "conditions": [24, 1600, "v", 24000], "trial": 6, "serialpos": 5, "trial_type": "single-stim", "trial_index": 218, "time_elapsed": 1230714, "internal_node_id": "0.0-155.0"}}, {"uniqueid": "MTK0744:3K9FOBBF2IQKYW25ZXNL5R86DEWLN7", "current_trial": 219, "dateTime": 1512686820016, "trialdata": {"rt": -1, "stimulus": "<p id=\"stim\">BRIEFCASE</p>", "key_press": -1, "type": "PRES_VIS", "word": "briefcase", "wordID": 174, "conditions": [24, 1600, "v", 24000], "trial": 6, "serialpos": 6, "trial_type": "single-stim", "trial_index": 219, "time_elapsed": 1233246, "internal_node_id": "0.0-156.0"}}, {"uniqueid": "MTK0744:3K9FOBBF2IQKYW25ZXNL5R86DEWLN7", "current_trial": 220, "dateTime": 1512686822550, "trialdata": {"rt": -1, "stimulus": "<p id=\"stim\">MATCH</p>", "key_press": -1, "type": "PRES_VIS", "word": "match", "wordID": 877, "conditions": [24, 1600, "v", 24000], "trial": 6, "serialpos": 7, "trial_type": "single-stim", "trial_index": 220, "time_elapsed": 1235780, "internal_node_id": "0.0-157.0"}}, {"uniqueid": "MTK0744:3K9FOBBF2IQKYW25ZXNL5R86DEWLN7", "current_trial": 221, "dateTime": 1512686825314, "trialdata": {"rt": -1, "stimulus": "<p id=\"stim\">PREACHER</p>", "key_press": -1, "type": "PRES_VIS", "word": "preacher", "wordID": 1118, "conditions": [24, 1600, "v", 24000], "trial": 6, "serialpos": 8, "trial_type": "single-stim", "trial_index": 221, "time_elapsed": 1238545, "internal_node_id": "0.0-158.0"}}, {"uniqueid": "MTK0744:3K9FOBBF2IQKYW25ZXNL5R86DEWLN7", "current_trial": 222, "dateTime": 1512686827936, "trialdata": {"rt": -1, "stimulus": "<p id=\"stim\">CONCERT</p>", "key_press": -1, "type": "PRES_VIS", "word": "concert", "wordID": 359, "conditions": [24, 1600, "v", 24000], "trial": 6, "serialpos": 9, "trial_type": "single-stim", "trial_index": 222, "time_elapsed": 1241167, "internal_node_id": "0.0-159.0"}}, {"uniqueid": "MTK0744:3K9FOBBF2IQKYW25ZXNL5R86DEWLN7", "current_trial": 223, "dateTime": 1512686830707, "trialdata": {"rt": -1, "stimulus": "<p id=\"stim\">BASEMENT</p>", "key_press": -1, "type": "PRES_VIS", "word": "basement", "wordID": 93, "conditions": [24, 1600, "v", 24000], "trial": 6, "serialpos": 10, "trial_type": "single-stim", "trial_index": 223, "time_elapsed": 1243938, "internal_node_id": "0.0-160.0"}}, {"uniqueid": "MTK0744:3K9FOBBF2IQKYW25ZXNL5R86DEWLN7", "current_trial": 224, "dateTime": 1512686833283, "trialdata": {"rt": -1, "stimulus": "<p id=\"stim\">UMPIRE</p>", "key_press": -1, "type": "PRES_VIS", "word": "umpire", "wordID": 1534, "conditions": [24, 1600, "v", 24000], "trial": 6, "serialpos": 11, "trial_type": "single-stim", "trial_index": 224, "time_elapsed": 1246514, "internal_node_id": "0.0-161.0"}}, {"uniqueid": "MTK0744:3K9FOBBF2IQKYW25ZXNL5R86DEWLN7", "current_trial": 225, "dateTime": 1512686835878, "trialdata": {"rt": -1, "stimulus": "<p id=\"stim\">ACTOR</p>", "key_press": -1, "type": "PRES_VIS", "word": "actor", "wordID": 4, "conditions": [24, 1600, "v", 24000], "trial": 6, "serialpos": 12, "trial_type": "single-stim", "trial_index": 225, "time_elapsed": 1249108, "internal_node_id": "0.0-162.0"}}, {"uniqueid": "MTK0744:3K9FOBBF2IQKYW25ZXNL5R86DEWLN7", "current_trial": 226, "dateTime": 1512686838336, "trialdata": {"rt": -1, "stimulus": "<p id=\"stim\">CLOTHES</p>", "key_press": -1, "type": "PRES_VIS", "word": "clothes", "wordID": 326, "conditions": [24, 1600, "v", 24000], "trial": 6, "serialpos": 13, "trial_type": "single-stim", "trial_index": 226, "time_elapsed": 1251566, "internal_node_id": "0.0-163.0"}}, {"uniqueid": "MTK0744:3K9FOBBF2IQKYW25ZXNL5R86DEWLN7", "current_trial": 227, "dateTime": 1512686840983, "trialdata": {"rt": -1, "stimulus": "<p id=\"stim\">TUNNEL</p>", "key_press": -1, "type": "PRES_VIS", "word": "tunnel", "wordID": 1518, "conditions": [24, 1600, "v", 24000], "trial": 6, "serialpos": 14, "trial_type": "single-stim", "trial_index": 227, "time_elapsed": 1254214, "internal_node_id": "0.0-164.0"}}, {"uniqueid": "MTK0744:3K9FOBBF2IQKYW25ZXNL5R86DEWLN7", "current_trial": 228, "dateTime": 1512686843403, "trialdata": {"rt": -1, "stimulus": "<p id=\"stim\">FLUTE</p>", "key_press": -1, "type": "PRES_VIS", "word": "flute", "wordID": 584, "conditions": [24, 1600, "v", 24000], "trial": 6, "serialpos": 15, "trial_type": "single-stim", "trial_index": 228, "time_elapsed": 1256632, "internal_node_id": "0.0-165.0"}}, {"uniqueid": "MTK0744:3K9FOBBF2IQKYW25ZXNL5R86DEWLN7", "current_trial": 229, "dateTime": 1512686846130, "trialdata": {"rt": -1, "stimulus": "<p id=\"stim\">MISSILE</p>", "key_press": -1, "type": "PRES_VIS", "word": "missile", "wordID": 899, "conditions": [24, 1600, "v", 24000], "trial": 6, "serialpos": 16, "trial_type": "single-stim", "trial_index": 229, "time_elapsed": 1259360, "internal_node_id": "0.0-166.0"}}, {"uniqueid": "MTK0744:3K9FOBBF2IQKYW25ZXNL5R86DEWLN7", "current_trial": 230, "dateTime": 1512686848723, "trialdata": {"rt": -1, "stimulus": "<p id=\"stim\">ROCKET</p>", "key_press": -1, "type": "PRES_VIS", "word": "rocket", "wordID": 1201, "conditions": [24, 1600, "v", 24000], "trial": 6, "serialpos": 17, "trial_type": "single-stim", "trial_index": 230, "time_elapsed": 1261953, "internal_node_id": "0.0-167.0"}}, {"uniqueid": "MTK0744:3K9FOBBF2IQKYW25ZXNL5R86DEWLN7", "current_trial": 231, "dateTime": 1512686851472, "trialdata": {"rt": -1, "stimulus": "<p id=\"stim\">BATHTUB</p>", "key_press": -1, "type": "PRES_VIS", "word": "bathtub", "wordID": 99, "conditions": [24, 1600, "v", 24000], "trial": 6, "serialpos": 18, "trial_type": "single-stim", "trial_index": 231, "time_elapsed": 1264702, "internal_node_id": "0.0-168.0"}}, {"uniqueid": "MTK0744:3K9FOBBF2IQKYW25ZXNL5R86DEWLN7", "current_trial": 232, "dateTime": 1512686854194, "trialdata": {"rt": -1, "stimulus": "<p id=\"stim\">SCALPEL</p>", "key_press": -1, "type": "PRES_VIS", "word": "scalpel", "wordID": 1242, "conditions": [24, 1600, "v", 24000], "trial": 6, "serialpos": 19, "trial_type": "single-stim", "trial_index": 232, "time_elapsed": 1267425, "internal_node_id": "0.0-169.0"}}, {"uniqueid": "MTK0744:3K9FOBBF2IQKYW25ZXNL5R86DEWLN7", "current_trial": 233, "dateTime": 1512686856815, "trialdata": {"rt": -1, "stimulus": "<p id=\"stim\">TURKEY</p>", "key_press": -1, "type": "PRES_VIS", "word": "turkey", "wordID": 1519, "conditions": [24, 1600, "v", 24000], "trial": 6, "serialpos": 20, "trial_type": "single-stim", "trial_index": 233, "time_elapsed": 1270045, "internal_node_id": "0.0-170.0"}}, {"uniqueid": "MTK0744:3K9FOBBF2IQKYW25ZXNL5R86DEWLN7", "current_trial": 234, "dateTime": 1512686859447, "trialdata": {"rt": -1, "stimulus": "<p id=\"stim\">POWDER</p>", "key_press": -1, "type": "PRES_VIS", "word": "powder", "wordID": 1116, "conditions": [24, 1600, "v", 24000], "trial": 6, "serialpos": 21, "trial_type": "single-stim", "trial_index": 234, "time_elapsed": 1272678, "internal_node_id": "0.0-171.0"}}, {"uniqueid": "MTK0744:3K9FOBBF2IQKYW25ZXNL5R86DEWLN7", "current_trial": 235, "dateTime": 1512686862198, "trialdata": {"rt": -1, "stimulus": "<p id=\"stim\">FILM</p>", "key_press": -1, "type": "PRES_VIS", "word": "film", "wordID": 564, "conditions": [24, 1600, "v", 24000], "trial": 6, "serialpos": 22, "trial_type": "single-stim", "trial_index": 235, "time_elapsed": 1275429, "internal_node_id": "0.0-172.0"}}, {"uniqueid": "MTK0744:3K9FOBBF2IQKYW25ZXNL5R86DEWLN7", "current_trial": 236, "dateTime": 1512686864800, "trialdata": {"rt": -1, "stimulus": "<p id=\"stim\">DRINK</p>", "key_press": -1, "type": "PRES_VIS", "word": "drink", "wordID": 497, "conditions": [24, 1600, "v", 24000], "trial": 6, "serialpos": 23, "trial_type": "single-stim", "trial_index": 236, "time_elapsed": 1278030, "internal_node_id": "0.0-173.0"}}, {"uniqueid": "MTK0744:3K9FOBBF2IQKYW25ZXNL5R86DEWLN7", "current_trial": 237, "dateTime": 1512686867100, "trialdata": {"rt": -1, "stimulus": "", "key_press": -1, "type": "PRE_RECALL_DELAY", "trial_type": "single-stim", "trial_index": 237, "time_elapsed": 1280331, "internal_node_id": "0.0-174.0-0.0"}}, {"uniqueid": "MTK0744:3K9FOBBF2IQKYW25ZXNL5R86DEWLN7", "current_trial": 238, "dateTime": 1512686867603, "trialdata": {"rt": -1000, "stimulus": "/static/audio/400Hz.wav", "key_press": -1, "type": "PRE_RECALL_ALERT", "trial_type": "single-audio", "trial_index": 238, "time_elapsed": 1280834, "internal_node_id": "0.0-175.0"}}, {"uniqueid": "MTK0744:3K9FOBBF2IQKYW25ZXNL5R86DEWLN7", "current_trial": 239, "dateTime": 1512686927611, "trialdata": {"rt": [8933, 12741, 17107, 20379, 24545, 26308, 29795, 34872, 38119, 42095, 49127, 51514, 53290, 58737], "recwords": ["turkey", "film", "scalpel", "bathtub", "missile", "rocket", "flute", "umpire", "actor", "tunnel", "preacher", "basement", "concert", "briegcase"], "type": "FREE_RECALL", "conditions": [24, 1600, "v", 24000], "trial": 6, "trial_type": "free-recall", "trial_index": 239, "time_elapsed": 1340838, "internal_node_id": "0.0-176.0-0.0"}}, {"uniqueid": "MTK0744:3K9FOBBF2IQKYW25ZXNL5R86DEWLN7", "current_trial": 240, "dateTime": 1512686940278, "trialdata": {"rt": 10665, "key_press": 13, "type": "INSTRUCTIONS", "trial_type": "text", "trial_index": 240, "time_elapsed": 1353509, "internal_node_id": "0.0-177.0"}}, {"uniqueid": "MTK0744:3K9FOBBF2IQKYW25ZXNL5R86DEWLN7", "current_trial": 241, "dateTime": 1512686954283, "trialdata": {"rt": [2665, 4760, 6782, 9147, 11097], "responses": ["22", "13", "19", "15", "8"], "num1": [9, 3, 5, 4, 3, 4], "num2": [4, 2, 6, 7, 1, 1], "num3": [9, 8, 8, 4, 4, 1], "type": "DISTRACTOR", "conditions": [12, 800, "a", 12000], "trial": 7, "trial_type": "math-distractor", "trial_index": 241, "time_elapsed": 1367514, "internal_node_id": "0.0-178.0"}}, {"uniqueid": "MTK0744:3K9FOBBF2IQKYW25ZXNL5R86DEWLN7", "current_trial": 242, "dateTime": 1512686957288, "trialdata": {"rt": -1, "stimulus": "<p id=\"stim\">10</p>", "key_press": -1, "trial_type": "single-stim", "trial_index": 242, "time_elapsed": 1370519, "internal_node_id": "0.0-179.0-0.0"}}, {"uniqueid": "MTK0744:3K9FOBBF2IQKYW25ZXNL5R86DEWLN7", "current_trial": 243, "dateTime": 1512686958290, "trialdata": {"rt": -1, "stimulus": "<p id=\"stim\">9</p>", "key_press": -1, "trial_type": "single-stim", "trial_index": 243, "time_elapsed": 1371520, "internal_node_id": "0.0-179.0-1.0"}}, {"uniqueid": "MTK0744:3K9FOBBF2IQKYW25ZXNL5R86DEWLN7", "current_trial": 244, "dateTime": 1512686959292, "trialdata": {"rt": -1, "stimulus": "<p id=\"stim\">8</p>", "key_press": -1, "trial_type": "single-stim", "trial_index": 244, "time_elapsed": 1372523, "internal_node_id": "0.0-179.0-2.0"}}, {"uniqueid": "MTK0744:3K9FOBBF2IQKYW25ZXNL5R86DEWLN7", "current_trial": 245, "dateTime": 1512686960294, "trialdata": {"rt": -1, "stimulus": "<p id=\"stim\">7</p>", "key_press": -1, "trial_type": "single-stim", "trial_index": 245, "time_elapsed": 1373525, "internal_node_id": "0.0-179.0-3.0"}}, {"uniqueid": "MTK0744:3K9FOBBF2IQKYW25ZXNL5R86DEWLN7", "current_trial": 246, "dateTime": 1512686961296, "trialdata": {"rt": -1, "stimulus": "<p id=\"stim\">6</p>", "key_press": -1, "trial_type": "single-stim", "trial_index": 246, "time_elapsed": 1374527, "internal_node_id": "0.0-179.0-4.0"}}, {"uniqueid": "MTK0744:3K9FOBBF2IQKYW25ZXNL5R86DEWLN7", "current_trial": 247, "dateTime": 1512686962298, "trialdata": {"rt": -1, "stimulus": "<p id=\"stim\">5</p>", "key_press": -1, "trial_type": "single-stim", "trial_index": 247, "time_elapsed": 1375529, "internal_node_id": "0.0-179.0-5.0"}}, {"uniqueid": "MTK0744:3K9FOBBF2IQKYW25ZXNL5R86DEWLN7", "current_trial": 248, "dateTime": 1512686963300, "trialdata": {"rt": -1, "stimulus": "<p id=\"stim\">4</p>", "key_press": -1, "trial_type": "single-stim", "trial_index": 248, "time_elapsed": 1376531, "internal_node_id": "0.0-179.0-6.0"}}, {"uniqueid": "MTK0744:3K9FOBBF2IQKYW25ZXNL5R86DEWLN7", "current_trial": 249, "dateTime": 1512686964301, "trialdata": {"rt": -1, "stimulus": "<p id=\"stim\">3</p>", "key_press": -1, "trial_type": "single-stim", "trial_index": 249, "time_elapsed": 1377532, "internal_node_id": "0.0-179.0-7.0"}}, {"uniqueid": "MTK0744:3K9FOBBF2IQKYW25ZXNL5R86DEWLN7", "current_trial": 250, "dateTime": 1512686965303, "trialdata": {"rt": -1, "stimulus": "<p id=\"stim\">2</p>", "key_press": -1, "trial_type": "single-stim", "trial_index": 250, "time_elapsed": 1378534, "internal_node_id": "0.0-179.0-8.0"}}, {"uniqueid": "MTK0744:3K9FOBBF2IQKYW25ZXNL5R86DEWLN7", "current_trial": 251, "dateTime": 1512686966305, "trialdata": {"rt": -1, "stimulus": "<p id=\"stim\">1</p>", "key_press": -1, "trial_type": "single-stim", "trial_index": 251, "time_elapsed": 1379535, "internal_node_id": "0.0-179.0-9.0"}}, {"uniqueid": "MTK0744:3K9FOBBF2IQKYW25ZXNL5R86DEWLN7", "current_trial": 252, "dateTime": 1512686967807, "trialdata": {"rt": -1, "stimulus": "<p id=\"stim\">+</p>", "key_press": -1, "type": "FIXATION", "trial_type": "single-stim", "trial_index": 252, "time_elapsed": 1381037, "internal_node_id": "0.0-180.0-0.0"}}, {"uniqueid": "MTK0744:3K9FOBBF2IQKYW25ZXNL5R86DEWLN7", "current_trial": 253, "dateTime": 1512686969512, "trialdata": {"rt": -1000, "stimulus": "/static/audio/wordpool/MAMMAL.wav", "key_press": -1, "type": "PRES_AUD", "word": "mammal", "wordID": 860, "conditions": [12, 800, "a", 12000], "trial": 7, "serialpos": 0, "trial_type": "single-audio", "trial_index": 253, "time_elapsed": 1382742, "internal_node_id": "0.0-181.0"}}, {"uniqueid": "MTK0744:3K9FOBBF2IQKYW25ZXNL5R86DEWLN7", "current_trial": 254, "dateTime": 1512686971490, "trialdata": {"rt": -1000, "stimulus": "/static/audio/wordpool/CREATURE.wav", "key_press": -1, "type": "PRES_AUD", "word": "creature", "wordID": 402, "conditions": [12, 800, "a", 12000], "trial": 7, "serialpos": 1, "trial_type": "single-audio", "trial_index": 254, "time_elapsed": 1384721, "internal_node_id": "0.0-182.0"}}, {"uniqueid": "MTK0744:3K9FOBBF2IQKYW25ZXNL5R86DEWLN7", "current_trial": 255, "dateTime": 1512686973202, "trialdata": {"rt": -1000, "stimulus": "/static/audio/wordpool/NECKLACE.wav", "key_press": -1, "type": "PRES_AUD", "word": "necklace", "wordID": 939, "conditions": [12, 800, "a", 12000], "trial": 7, "serialpos": 2, "trial_type": "single-audio", "trial_index": 255, "time_elapsed": 1386433, "internal_node_id": "0.0-183.0"}}, {"uniqueid": "MTK0744:3K9FOBBF2IQKYW25ZXNL5R86DEWLN7", "current_trial": 256, "dateTime": 1512686975059, "trialdata": {"rt": -1000, "stimulus": "/static/audio/wordpool/JUNGLE.wav", "key_press": -1, "type": "PRES_AUD", "word": "jungle", "wordID": 763, "conditions": [12, 800, "a", 12000], "trial": 7, "serialpos": 3, "trial_type": "single-audio", "trial_index": 256, "time_elapsed": 1388289, "internal_node_id": "0.0-184.0"}}, {"uniqueid": "MTK0744:3K9FOBBF2IQKYW25ZXNL5R86DEWLN7", "current_trial": 257, "dateTime": 1512686976859, "trialdata": {"rt": -1000, "stimulus": "/static/audio/wordpool/TRACTOR.wav", "key_press": -1, "type": "PRES_AUD", "word": "tractor", "wordID": 1492, "conditions": [12, 800, "a", 12000], "trial": 7, "serialpos": 4, "trial_type": "single-audio", "trial_index": 257, "time_elapsed": 1390089, "internal_node_id": "0.0-185.0"}}, {"uniqueid": "MTK0744:3K9FOBBF2IQKYW25ZXNL5R86DEWLN7", "current_trial": 258, "dateTime": 1512686978573, "trialdata": {"rt": -1000, "stimulus": "/static/audio/wordpool/TUBA.wav", "key_press": -1, "type": "PRES_AUD", "word": "tuba", "wordID": 1514, "conditions": [12, 800, "a", 12000], "trial": 7, "serialpos": 5, "trial_type": "single-audio", "trial_index": 258, "time_elapsed": 1391803, "internal_node_id": "0.0-186.0"}}, {"uniqueid": "MTK0744:3K9FOBBF2IQKYW25ZXNL5R86DEWLN7", "current_trial": 259, "dateTime": 1512686980458, "trialdata": {"rt": -1000, "stimulus": "/static/audio/wordpool/HANDBAG.wav", "key_press": -1, "type": "PRES_AUD", "word": "handbag", "wordID": 683, "conditions": [12, 800, "a", 12000], "trial": 7, "serialpos": 6, "trial_type": "single-audio", "trial_index": 259, "time_elapsed": 1393689, "internal_node_id": "0.0-187.0"}}, {"uniqueid": "MTK0744:3K9FOBBF2IQKYW25ZXNL5R86DEWLN7", "current_trial": 260, "dateTime": 1512686982161, "trialdata": {"rt": -1000, "stimulus": "/static/audio/wordpool/SUMMIT.wav", "key_press": -1, "type": "PRES_AUD", "word": "summit", "wordID": 1404, "conditions": [12, 800, "a", 12000], "trial": 7, "serialpos": 7, "trial_type": "single-audio", "trial_index": 260, "time_elapsed": 1395392, "internal_node_id": "0.0-188.0"}}, {"uniqueid": "MTK0744:3K9FOBBF2IQKYW25ZXNL5R86DEWLN7", "current_trial": 261, "dateTime": 1512686984143, "trialdata": {"rt": -1000, "stimulus": "/static/audio/wordpool/RABBIT.wav", "key_press": -1, "type": "PRES_AUD", "word": "rabbit", "wordID": 1151, "conditions": [12, 800, "a", 12000], "trial": 7, "serialpos": 8, "trial_type": "single-audio", "trial_index": 261, "time_elapsed": 1397374, "internal_node_id": "0.0-189.0"}}, {"uniqueid": "MTK0744:3K9FOBBF2IQKYW25ZXNL5R86DEWLN7", "current_trial": 262, "dateTime": 1512686986020, "trialdata": {"rt": -1000, "stimulus": "/static/audio/wordpool/BLENDER.wav", "key_press": -1, "type": "PRES_AUD", "word": "blender", "wordID": 135, "conditions": [12, 800, "a", 12000], "trial": 7, "serialpos": 9, "trial_type": "single-audio", "trial_index": 262, "time_elapsed": 1399251, "internal_node_id": "0.0-190.0"}}, {"uniqueid": "MTK0744:3K9FOBBF2IQKYW25ZXNL5R86DEWLN7", "current_trial": 263, "dateTime": 1512686987787, "trialdata": {"rt": -1000, "stimulus": "/static/audio/wordpool/OYSTER.wav", "key_press": -1, "type": "PRES_AUD", "word": "oyster", "wordID": 994, "conditions": [12, 800, "a", 12000], "trial": 7, "serialpos": 10, "trial_type": "single-audio", "trial_index": 263, "time_elapsed": 1401018, "internal_node_id": "0.0-191.0"}}, {"uniqueid": "MTK0744:3K9FOBBF2IQKYW25ZXNL5R86DEWLN7", "current_trial": 264, "dateTime": 1512686989670, "trialdata": {"rt": -1000, "stimulus": "/static/audio/wordpool/PAPER.wav", "key_press": -1, "type": "PRES_AUD", "word": "paper", "wordID": 1010, "conditions": [12, 800, "a", 12000], "trial": 7, "serialpos": 11, "trial_type": "single-audio", "trial_index": 264, "time_elapsed": 1402901, "internal_node_id": "0.0-192.0"}}, {"uniqueid": "MTK0744:3K9FOBBF2IQKYW25ZXNL5R86DEWLN7", "current_trial": 265, "dateTime": 1512686990946, "trialdata": {"rt": -1, "stimulus": "", "key_press": -1, "type": "PRE_RECALL_DELAY", "trial_type": "single-stim", "trial_index": 265, "time_elapsed": 1404177, "internal_node_id": "0.0-193.0-0.0"}}, {"uniqueid": "MTK0744:3K9FOBBF2IQKYW25ZXNL5R86DEWLN7", "current_trial": 266, "dateTime": 1512686991453, "trialdata": {"rt": -1000, "stimulus": "/static/audio/400Hz.wav", "key_press": -1, "type": "PRE_RECALL_ALERT", "trial_type": "single-audio", "trial_index": 266, "time_elapsed": 1404684, "internal_node_id": "0.0-194.0"}}, {"uniqueid": "MTK0744:3K9FOBBF2IQKYW25ZXNL5R86DEWLN7", "current_trial": 267, "dateTime": 1512687051460, "trialdata": {"rt": [7801, 11655, 13085, 16806, 23248, 25328, 27615, 29100, 31566, 35067, 43151, 51196], "recwords": ["mammal", "necklace", "jungle", "tractor", "tuba", "handbag", "rabbit", "blender", "paper", "oyster", "creautre", "submit"], "type": "FREE_RECALL", "conditions": [12, 800, "a", 12000], "trial": 7, "trial_type": "free-recall", "trial_index": 267, "time_elapsed": 1464686, "internal_node_id": "0.0-195.0-0.0"}}, {"uniqueid": "MTK0744:3K9FOBBF2IQKYW25ZXNL5R86DEWLN7", "current_trial": 268, "dateTime": 1512687060892, "trialdata": {"rt": 7431, "key_press": 13, "type": "INSTRUCTIONS", "trial_type": "text", "trial_index": 268, "time_elapsed": 1474123, "internal_node_id": "0.0-196.0"}}, {"uniqueid": "MTK0744:3K9FOBBF2IQKYW25ZXNL5R86DEWLN7", "current_trial": 269, "dateTime": 1512687086897, "trialdata": {"rt": [2173, 5626, 8549, 12295, 14231, 16093, 17903, 19897, 22157, 23922], "responses": ["17", "24", "22", "22", "9", "11", "18", "18", "14", "11"], "num1": [8, 8, 8, 8, 6, 4, 7, 6, 8, 3, 3], "num2": [8, 7, 8, 8, 2, 2, 8, 3, 5, 5, 8], "num3": [1, 9, 6, 6, 1, 5, 3, 9, 1, 3, 4], "type": "DISTRACTOR", "conditions": [24, 1600, "a", 24000], "trial": 8, "trial_type": "math-distractor", "trial_index": 269, "time_elapsed": 1500128, "internal_node_id": "0.0-197.0"}}, {"uniqueid": "MTK0744:3K9FOBBF2IQKYW25ZXNL5R86DEWLN7", "current_trial": 270, "dateTime": 1512687089900, "trialdata": {"rt": -1, "stimulus": "<p id=\"stim\">10</p>", "key_press": -1, "trial_type": "single-stim", "trial_index": 270, "time_elapsed": 1503131, "internal_node_id": "0.0-198.0-0.0"}}, {"uniqueid": "MTK0744:3K9FOBBF2IQKYW25ZXNL5R86DEWLN7", "current_trial": 271, "dateTime": 1512687090902, "trialdata": {"rt": -1, "stimulus": "<p id=\"stim\">9</p>", "key_press": -1, "trial_type": "single-stim", "trial_index": 271, "time_elapsed": 1504133, "internal_node_id": "0.