{"condition": 0, "counterbalance": 146, "assignmentId": "3DY4FPOOA2V89Z6R68681KBI3LLVR8", "workerId": "MTK0468", "hitId": "3HEA4ZVWVDT0JYVKD86Q51G3KJI554", "currenttrial": 627, "bonus": 0, "data": [{"uniqueid": "MTK0468:3DY4FPOOA2V89Z6R68681KBI3LLVR8", "current_trial": 0, "dateTime": 1510937004463, "trialdata": {"rt": 4528, "key_press": 75, "type": "INSTRUCTIONS", "trial_type": "text", "trial_index": 0, "time_elapsed": 4539, "internal_node_id": "0.0-0.0"}}, {"uniqueid": "MTK0468:3DY4FPOOA2V89Z6R68681KBI3LLVR8", "current_trial": 1, "dateTime": 1510937048071, "trialdata": {"rt": 43601, "key_press": 76, "type": "INSTRUCTIONS", "trial_type": "text", "trial_index": 1, "time_elapsed": 48150, "internal_node_id": "0.0-1.0"}}, {"uniqueid": "MTK0468:3DY4FPOOA2V89Z6R68681KBI3LLVR8", "current_trial": 2, "dateTime": 1510937111949, "trialdata": {"rt": [63815], "responses": ["ocean"], "type": "AUDIO_TEST", "trial_type": "audio-test", "trial_index": 2, "time_elapsed": 112028, "internal_node_id": "0.0-2.0"}}, {"uniqueid": "MTK0468:3DY4FPOOA2V89Z6R68681KBI3LLVR8", "current_trial": 3, "dateTime": 1510937183913, "trialdata": {"rt": [71947], "responses": ["crystal"], "type": "AUDIO_TEST", "trial_type": "audio-test", "trial_index": 3, "time_elapsed": 183991, "internal_node_id": "0.0-3.0"}}, {"uniqueid": "MTK0468:3DY4FPOOA2V89Z6R68681KBI3LLVR8", "current_trial": 4, "dateTime": 1510937225651, "trialdata": {"rt": [41723], "responses": ["spice"], "type": "AUDIO_TEST", "trial_type": "audio-test", "trial_index": 4, "time_elapsed": 225730, "internal_node_id": "0.0-4.0"}}, {"uniqueid": "MTK0468:3DY4FPOOA2V89Z6R68681KBI3LLVR8", "current_trial": 5, "dateTime": 1510937287444, "trialdata": {"rt": 61026, "responses": "{\"Q0\":\"4:00 am\",\"Q1\":\"10:00 am\",\"Q2\":\"4\"}", "type": "SLEEP_SURVEY", "trial_type": "survey-text", "trial_index": 5, "time_elapsed": 287523, "internal_node_id": "0.0-5.0"}}, {"uniqueid": "MTK0468:3DY4FPOOA2V89Z6R68681KBI3LLVR8", "current_trial": 6, "dateTime": 1510937392549, "trialdata": {"rt": 104097, "key_press": 76, "type": "INSTRUCTIONS", "trial_type": "text", "trial_index": 6, "time_elapsed": 392628, "internal_node_id": "0.0-6.0"}}, {"uniqueid": "MTK0468:3DY4FPOOA2V89Z6R68681KBI3LLVR8", "current_trial": 7, "dateTime": 1510937425101, "trialdata": {"rt": 32046, "key_press": 76, "type": "INSTRUCTIONS", "trial_type": "text", "trial_index": 7, "time_elapsed": 425179, "internal_node_id": "0.0-7.0"}}, {"uniqueid": "MTK0468:3DY4FPOOA2V89Z6R68681KBI3LLVR8", "current_trial": 8, "dateTime": 1510937492163, "trialdata": {"rt": 66553, "key_press": 76, "type": "INSTRUCTIONS", "trial_type": "text", "trial_index": 8, "time_elapsed": 492241, "internal_node_id": "0.0-8.0"}}, {"uniqueid": "MTK0468:3DY4FPOOA2V89Z6R68681KBI3LLVR8", "current_trial": 9, "dateTime": 1510937511204, "trialdata": {"rt": [11543, 15724], "responses": ["17", "6"], "num1": [7, 4, 8], "num2": [1, 1, 9], "num3": [9, 1, 6], "type": "DISTRACTOR", "conditions": [18, 1200, "a", 18000], "trial": 0, "trial_type": "math-distractor", "trial_index": 9, "time_elapsed": 511282, "internal_node_id": "0.0-9.0"}}, {"uniqueid": "MTK0468:3DY4FPOOA2V89Z6R68681KBI3LLVR8", "current_trial": 10, "dateTime": 1510937514222, "trialdata": {"rt": -1, "stimulus": "<p id=\"stim\">10</p>", "key_press": -1, "trial_type": "single-stim", "trial_index": 10, "time_elapsed": 514300, "internal_node_id": "0.0-10.0-0.0"}}, {"uniqueid": "MTK0468:3DY4FPOOA2V89Z6R68681KBI3LLVR8", "current_trial": 11, "dateTime": 1510937515231, "trialdata": {"rt": -1, "stimulus": "<p id=\"stim\">9</p>", "key_press": -1, "trial_type": "single-stim", "trial_index": 11, "time_elapsed": 515309, "internal_node_id": "0.0-10.0-1.0"}}, {"uniqueid": "MTK0468:3DY4FPOOA2V89Z6R68681KBI3LLVR8", "current_trial": 12, "dateTime": 1510937516237, "trialdata": {"rt": -1, "stimulus": "<p id=\"stim\">8</p>", "key_press": -1, "trial_type": "single-stim", "trial_index": 12, "time_elapsed": 516316, "internal_node_id": "0.0-10.0-2.0"}}, {"uniqueid": "MTK0468:3DY4FPOOA2V89Z6R68681KBI3LLVR8", "current_trial": 13, "dateTime": 1510937517245, "trialdata": {"rt": -1, "stimulus": "<p id=\"stim\">7</p>", "key_press": -1, "trial_type": "single-stim", "trial_index": 13, "time_elapsed": 517323, "internal_node_id": "0.0-10.0-3.0"}}, {"uniqueid": "MTK0468:3DY4FPOOA2V89Z6R68681KBI3LLVR8", "current_trial": 14, "dateTime": 1510937518253, "trialdata": {"rt": -1, "stimulus": "<p id=\"stim\">6</p>", "key_press": -1, "trial_type": "single-stim", "trial_index": 14, "time_elapsed": 518331, "internal_node_id": "0.0-10.0-4.0"}}, {"uniqueid": "MTK0468:3DY4FPOOA2V89Z6R68681KBI3LLVR8", "current_trial": 15, "dateTime": 1510937519265, "trialdata": {"rt": -1, "stimulus": "<p id=\"stim\">5</p>", "key_press": -1, "trial_type": "single-stim", "trial_index": 15, "time_elapsed": 519343, "internal_node_id": "0.0-10.0-5.0"}}, {"uniqueid": "MTK0468:3DY4FPOOA2V89Z6R68681KBI3LLVR8", "current_trial": 16, "dateTime": 1510937520271, "trialdata": {"rt": -1, "stimulus": "<p id=\"stim\">4</p>", "key_press": -1, "trial_type": "single-stim", "trial_index": 16, "time_elapsed": 520349, "internal_node_id": "0.0-10.0-6.0"}}, {"uniqueid": "MTK0468:3DY4FPOOA2V89Z6R68681KBI3LLVR8", "current_trial": 17, "dateTime": 1510937521278, "trialdata": {"rt": -1, "stimulus": "<p id=\"stim\">3</p>", "key_press": -1, "trial_type": "single-stim", "trial_index": 17, "time_elapsed": 521356, "internal_node_id": "0.0-10.0-7.0"}}, {"uniqueid": "MTK0468:3DY4FPOOA2V89Z6R68681KBI3LLVR8", "current_trial": 18, "dateTime": 1510937522283, "trialdata": {"rt": -1, "stimulus": "<p id=\"stim\">2</p>", "key_press": -1, "trial_type": "single-stim", "trial_index": 18, "time_elapsed": 522362, "internal_node_id": "0.0-10.0-8.0"}}, {"uniqueid": "MTK0468:3DY4FPOOA2V89Z6R68681KBI3LLVR8", "current_trial": 19, "dateTime": 1510937523290, "trialdata": {"rt": -1, "stimulus": "<p id=\"stim\">1</p>", "key_press": -1, "trial_type": "single-stim", "trial_index": 19, "time_elapsed": 523368, "internal_node_id": "0.0-10.0-9.0"}}, {"uniqueid": "MTK0468:3DY4FPOOA2V89Z6R68681KBI3LLVR8", "current_trial": 20, "dateTime": 1510937524798, "trialdata": {"rt": -1, "stimulus": "<p id=\"stim\">+</p>", "key_press": -1, "type": "FIXATION", "trial_type": "single-stim", "trial_index": 20, "time_elapsed": 524876, "internal_node_id": "0.0-11.0-0.0"}}, {"uniqueid": "MTK0468:3DY4FPOOA2V89Z6R68681KBI3LLVR8", "current_trial": 21, "dateTime": 1510937527070, "trialdata": {"rt": -1000, "stimulus": "/static/audio/wordpool/ROOSTER.wav", "key_press": -1, "type": "PRES_AUD", "word": "rooster", "wordID": 1208, "conditions": [18, 1200, "a", 18000], "trial": 0, "serialpos": 0, "trial_type": "single-audio", "trial_index": 21, "time_elapsed": 527148, "internal_node_id": "0.0-12.0"}}, {"uniqueid": "MTK0468:3DY4FPOOA2V89Z6R68681KBI3LLVR8", "current_trial": 22, "dateTime": 1510937529301, "trialdata": {"rt": -1000, "stimulus": "/static/audio/wordpool/SHOULDER.wav", "key_press": -1, "type": "PRES_AUD", "word": "shoulder", "wordID": 1293, "conditions": [18, 1200, "a", 18000], "trial": 0, "serialpos": 1, "trial_type": "single-audio", "trial_index": 22, "time_elapsed": 529379, "internal_node_id": "0.0-13.0"}}, {"uniqueid": "MTK0468:3DY4FPOOA2V89Z6R68681KBI3LLVR8", "current_trial": 23, "dateTime": 1510937531700, "trialdata": {"rt": -1000, "stimulus": "/static/audio/wordpool/TOMBSTONE.wav", "key_press": -1, "type": "PRES_AUD", "word": "tombstone", "wordID": 1477, "conditions": [18, 1200, "a", 18000], "trial": 0, "serialpos": 2, "trial_type": "single-audio", "trial_index": 23, "time_elapsed": 531778, "internal_node_id": "0.0-14.0"}}, {"uniqueid": "MTK0468:3DY4FPOOA2V89Z6R68681KBI3LLVR8", "current_trial": 24, "dateTime": 1510937533792, "trialdata": {"rt": -1000, "stimulus": "/static/audio/wordpool/CRAB.wav", "key_press": -1, "type": "PRES_AUD", "word": "crab", "wordID": 396, "conditions": [18, 1200, "a", 18000], "trial": 0, "serialpos": 3, "trial_type": "single-audio", "trial_index": 24, "time_elapsed": 533871, "internal_node_id": "0.0-15.0"}}, {"uniqueid": "MTK0468:3DY4FPOOA2V89Z6R68681KBI3LLVR8", "current_trial": 25, "dateTime": 1510937536171, "trialdata": {"rt": -1000, "stimulus": "/static/audio/wordpool/FILM.wav", "key_press": -1, "type": "PRES_AUD", "word": "film", "wordID": 564, "conditions": [18, 1200, "a", 18000], "trial": 0, "serialpos": 4, "trial_type": "single-audio", "trial_index": 25, "time_elapsed": 536250, "internal_node_id": "0.0-16.0"}}, {"uniqueid": "MTK0468:3DY4FPOOA2V89Z6R68681KBI3LLVR8", "current_trial": 26, "dateTime": 1510937538354, "trialdata": {"rt": -1000, "stimulus": "/static/audio/wordpool/DASHBOARD.wav", "key_press": -1, "type": "PRES_AUD", "word": "dashboard", "wordID": 440, "conditions": [18, 1200, "a", 18000], "trial": 0, "serialpos": 5, "trial_type": "single-audio", "trial_index": 26, "time_elapsed": 538433, "internal_node_id": "0.0-17.0"}}, {"uniqueid": "MTK0468:3DY4FPOOA2V89Z6R68681KBI3LLVR8", "current_trial": 27, "dateTime": 1510937540519, "trialdata": {"rt": -1000, "stimulus": "/static/audio/wordpool/SPOUSE.wav", "key_press": -1, "type": "PRES_AUD", "word": "spouse", "wordID": 1357, "conditions": [18, 1200, "a", 18000], "trial": 0, "serialpos": 6, "trial_type": "single-audio", "trial_index": 27, "time_elapsed": 540598, "internal_node_id": "0.0-18.0"}}, {"uniqueid": "MTK0468:3DY4FPOOA2V89Z6R68681KBI3LLVR8", "current_trial": 28, "dateTime": 1510937542640, "trialdata": {"rt": -1000, "stimulus": "/static/audio/wordpool/SUMMIT.wav", "key_press": -1, "type": "PRES_AUD", "word": "summit", "wordID": 1404, "conditions": [18, 1200, "a", 18000], "trial": 0, "serialpos": 7, "trial_type": "single-audio", "trial_index": 28, "time_elapsed": 542718, "internal_node_id": "0.0-19.0"}}, {"uniqueid": "MTK0468:3DY4FPOOA2V89Z6R68681KBI3LLVR8", "current_trial": 29, "dateTime": 1510937544811, "trialdata": {"rt": -1000, "stimulus": "/static/audio/wordpool/GALLON.wav", "key_press": -1, "type": "PRES_AUD", "word": "gallon", "wordID": 617, "conditions": [18, 1200, "a", 18000], "trial": 0, "serialpos": 8, "trial_type": "single-audio", "trial_index": 29, "time_elapsed": 544890, "internal_node_id": "0.0-20.0"}}, {"uniqueid": "MTK0468:3DY4FPOOA2V89Z6R68681KBI3LLVR8", "current_trial": 30, "dateTime": 1510937547088, "trialdata": {"rt": -1000, "stimulus": "/static/audio/wordpool/NEUTRON.wav", "key_press": -1, "type": "PRES_AUD", "word": "neutron", "wordID": 946, "conditions": [18, 1200, "a", 18000], "trial": 0, "serialpos": 9, "trial_type": "single-audio", "trial_index": 30, "time_elapsed": 547167, "internal_node_id": "0.0-21.0"}}, {"uniqueid": "MTK0468:3DY4FPOOA2V89Z6R68681KBI3LLVR8", "current_trial": 31, "dateTime": 1510937549150, "trialdata": {"rt": -1000, "stimulus": "/static/audio/wordpool/COOKBOOK.wav", "key_press": -1, "type": "PRES_AUD", "word": "cookbook", "wordID": 372, "conditions": [18, 1200, "a", 18000], "trial": 0, "serialpos": 10, "trial_type": "single-audio", "trial_index": 31, "time_elapsed": 549228, "internal_node_id": "0.0-22.0"}}, {"uniqueid": "MTK0468:3DY4FPOOA2V89Z6R68681KBI3LLVR8", "current_trial": 32, "dateTime": 1510937551207, "trialdata": {"rt": -1000, "stimulus": "/static/audio/wordpool/PANTHER.wav", "key_press": -1, "type": "PRES_AUD", "word": "panther", "wordID": 1008, "conditions": [18, 1200, "a", 18000], "trial": 0, "serialpos": 11, "trial_type": "single-audio", "trial_index": 32, "time_elapsed": 551286, "internal_node_id": "0.0-23.0"}}, {"uniqueid": "MTK0468:3DY4FPOOA2V89Z6R68681KBI3LLVR8", "current_trial": 33, "dateTime": 1510937553464, "trialdata": {"rt": -1000, "stimulus": "/static/audio/wordpool/TRIBE.wav", "key_press": -1, "type": "PRES_AUD", "word": "tribe", "wordID": 1504, "conditions": [18, 1200, "a", 18000], "trial": 0, "serialpos": 12, "trial_type": "single-audio", "trial_index": 33, "time_elapsed": 553543, "internal_node_id": "0.0-24.0"}}, {"uniqueid": "MTK0468:3DY4FPOOA2V89Z6R68681KBI3LLVR8", "current_trial": 34, "dateTime": 1510937555828, "trialdata": {"rt": -1000, "stimulus": "/static/audio/wordpool/BUCKET.wav", "key_press": -1, "type": "PRES_AUD", "word": "bucket", "wordID": 183, "conditions": [18, 1200, "a", 18000], "trial": 0, "serialpos": 13, "trial_type": "single-audio", "trial_index": 34, "time_elapsed": 555907, "internal_node_id": "0.0-25.0"}}, {"uniqueid": "MTK0468:3DY4FPOOA2V89Z6R68681KBI3LLVR8", "current_trial": 35, "dateTime": 1510937557870, "trialdata": {"rt": -1000, "stimulus": "/static/audio/wordpool/SWORD.wav", "key_press": -1, "type": "PRES_AUD", "word": "sword", "wordID": 1422, "conditions": [18, 1200, "a", 18000], "trial": 0, "serialpos": 14, "trial_type": "single-audio", "trial_index": 35, "time_elapsed": 557949, "internal_node_id": "0.0-26.0"}}, {"uniqueid": "MTK0468:3DY4FPOOA2V89Z6R68681KBI3LLVR8", "current_trial": 36, "dateTime": 1510937559888, "trialdata": {"rt": -1000, "stimulus": "/static/audio/wordpool/FLASHLIGHT.wav", "key_press": -1, "type": "PRES_AUD", "word": "flashlight", "wordID": 574, "conditions": [18, 1200, "a", 18000], "trial": 0, "serialpos": 15, "trial_type": "single-audio", "trial_index": 36, "time_elapsed": 559967, "internal_node_id": "0.0-27.0"}}, {"uniqueid": "MTK0468:3DY4FPOOA2V89Z6R68681KBI3LLVR8", "current_trial": 37, "dateTime": 1510937562133, "trialdata": {"rt": -1000, "stimulus": "/static/audio/wordpool/CROSS.wav", "key_press": -1, "type": "PRES_AUD", "word": "cross", "wordID": 412, "conditions": [18, 1200, "a", 18000], "trial": 0, "serialpos": 16, "trial_type": "single-audio", "trial_index": 37, "time_elapsed": 562211, "internal_node_id": "0.0-28.0"}}, {"uniqueid": "MTK0468:3DY4FPOOA2V89Z6R68681KBI3LLVR8", "current_trial": 38, "dateTime": 1510937564350, "trialdata": {"rt": -1000, "stimulus": "/static/audio/wordpool/DRAWING.wav", "key_press": -1, "type": "PRES_AUD", "word": "drawing", "wordID": 493, "conditions": [18, 1200, "a", 18000], "trial": 0, "serialpos": 17, "trial_type": "single-audio", "trial_index": 38, "time_elapsed": 564428, "internal_node_id": "0.0-29.0"}}, {"uniqueid": "MTK0468:3DY4FPOOA2V89Z6R68681KBI3LLVR8", "current_trial": 39, "dateTime": 1510937565737, "trialdata": {"rt": -1, "stimulus": "", "key_press": -1, "type": "PRE_RECALL_DELAY", "trial_type": "single-stim", "trial_index": 39, "time_elapsed": 565816, "internal_node_id": "0.0-30.0-0.0"}}, {"uniqueid": "MTK0468:3DY4FPOOA2V89Z6R68681KBI3LLVR8", "current_trial": 40, "dateTime": 1510937566241, "trialdata": {"rt": -1000, "stimulus": "/static/audio/400Hz.wav", "key_press": -1, "type": "PRE_RECALL_ALERT", "trial_type": "single-audio", "trial_index": 40, "time_elapsed": 566320, "internal_node_id": "0.0-31.0"}}, {"uniqueid": "MTK0468:3DY4FPOOA2V89Z6R68681KBI3LLVR8", "current_trial": 41, "dateTime": 1510937626281, "trialdata": {"rt": [11185, 17871, 22127, 26184, 29406, 33504, 40150, 44641, 55658], "recwords": ["booster", "spouse", "tombstone", "cookbook", "bucket", "cross", "flashlight", "gallon", ""], "type": "FREE_RECALL", "conditions": [18, 1200, "a", 18000], "trial": 0, "trial_type": "free-recall", "trial_index": 41, "time_elapsed": 626335, "internal_node_id": "0.0-32.0-0.0"}}, {"uniqueid": "MTK0468:3DY4FPOOA2V89Z6R68681KBI3LLVR8", "current_trial": 42, "dateTime": 1510937635982, "trialdata": {"rt": 7693, "key_press": 74, "type": "INSTRUCTIONS", "trial_type": "text", "trial_index": 42, "time_elapsed": 636060, "internal_node_id": "0.0-33.0"}}, {"uniqueid": "MTK0468:3DY4FPOOA2V89Z6R68681KBI3LLVR8", "current_trial": 43, "dateTime": 1510937656000, "trialdata": {"rt": [8423, 11711, 16290], "responses": ["15", "14", "15"], "num1": [2, 2, 3, 5], "num2": [8, 7, 5, 5], "num3": [5, 5, 7, 4], "type": "DISTRACTOR", "conditions": [18, 1200, "v", 18000], "trial": 1, "trial_type": "math-distractor", "trial_index": 43, "time_elapsed": 656079, "internal_node_id": "0.0-34.0"}}, {"uniqueid": "MTK0468:3DY4FPOOA2V89Z6R68681KBI3LLVR8", "current_trial": 44, "dateTime": 1510937659008, "trialdata": {"rt": -1, "stimulus": "<p id=\"stim\">10</p>", "key_press": -1, "trial_type": "single-stim", "trial_index": 44, "time_elapsed": 659086, "internal_node_id": "0.0-35.0-0.0"}}, {"uniqueid": "MTK0468:3DY4FPOOA2V89Z6R68681KBI3LLVR8", "current_trial": 45, "dateTime": 1510937660014, "trialdata": {"rt": -1, "stimulus": "<p id=\"stim\">9</p>", "key_press": -1, "trial_type": "single-stim", "trial_index": 45, "time_elapsed": 660092, "internal_node_id": "0.0-35.0-1.0"}}, {"uniqueid": "MTK0468:3DY4FPOOA2V89Z6R68681KBI3LLVR8", "current_trial": 46, "dateTime": 1510937661021, "trialdata": {"rt": -1, "stimulus": "<p id=\"stim\">8</p>", "key_press": -1, "trial_type": "single-stim", "trial_index": 46, "time_elapsed": 661100, "internal_node_id": "0.0-35.0-2.0"}}, {"uniqueid": "MTK0468:3DY4FPOOA2V89Z6R68681KBI3LLVR8", "current_trial": 47, "dateTime": 1510937662027, "trialdata": {"rt": -1, "stimulus": "<p id=\"stim\">7</p>", "key_press": -1, "trial_type": "single-stim", "trial_index": 47, "time_elapsed": 662105, "internal_node_id": "0.0-35.0-3.0"}}, {"uniqueid": "MTK0468:3DY4FPOOA2V89Z6R68681KBI3LLVR8", "current_trial": 48, "dateTime": 1510937663030, "trialdata": {"rt": -1, "stimulus": "<p id=\"stim\">6</p>", "key_press": -1, "trial_type": "single-stim", "trial_index": 48, "time_elapsed": 663109, "internal_node_id": "0.0-35.0-4.0"}}, {"uniqueid": "MTK0468:3DY4FPOOA2V89Z6R68681KBI3LLVR8", "current_trial": 49, "dateTime": 1510937664037, "trialdata": {"rt": -1, "stimulus": "<p id=\"stim\">5</p>", "key_press": -1, "trial_type": "single-stim", "trial_index": 49, "time_elapsed": 664115, "internal_node_id": "0.0-35.0-5.0"}}, {"uniqueid": "MTK0468:3DY4FPOOA2V89Z6R68681KBI3LLVR8", "current_trial": 50, "dateTime": 1510937665042, "trialdata": {"rt": -1, "stimulus": "<p id=\"stim\">4</p>", "key_press": -1, "trial_type": "single-stim", "trial_index": 50, "time_elapsed": 665120, "internal_node_id": "0.0-35.0-6.0"}}, {"uniqueid": "MTK0468:3DY4FPOOA2V89Z6R68681KBI3LLVR8", "current_trial": 51, "dateTime": 1510937666058, "trialdata": {"rt": -1, "stimulus": "<p id=\"stim\">3</p>", "key_press": -1, "trial_type": "single-stim", "trial_index": 51, "time_elapsed": 666137, "internal_node_id": "0.0-35.0-7.0"}}, {"uniqueid": "MTK0468:3DY4FPOOA2V89Z6R68681KBI3LLVR8", "current_trial": 52, "dateTime": 1510937667064, "trialdata": {"rt": -1, "stimulus": "<p id=\"stim\">2</p>", "key_press": -1, "trial_type": "single-stim", "trial_index": 52, "time_elapsed": 667142, "internal_node_id": "0.0-35.0-8.0"}}, {"uniqueid": "MTK0468:3DY4FPOOA2V89Z6R68681KBI3LLVR8", "current_trial": 53, "dateTime": 1510937668068, "trialdata": {"rt": -1, "stimulus": "<p id=\"stim\">1</p>", "key_press": -1, "trial_type": "single-stim", "trial_index": 53, "time_elapsed": 668147, "internal_node_id": "0.0-35.0-9.0"}}, {"uniqueid": "MTK0468:3DY4FPOOA2V89Z6R68681KBI3LLVR8", "current_trial": 54, "dateTime": 1510937669572, "trialdata": {"rt": -1, "stimulus": "<p id=\"stim\">+</p>", "key_press": -1, "type": "FIXATION", "trial_type": "single-stim", "trial_index": 54, "time_elapsed": 669650, "internal_node_id": "0.0-36.0-0.0"}}, {"uniqueid": "MTK0468:3DY4FPOOA2V89Z6R68681KBI3LLVR8", "current_trial": 55, "dateTime": 1510937670784, "trialdata": {"rt": -1, "stimulus": "<p id=\"stim\">BRANDY</p>", "key_press": -1, "type": "PRES_VIS", "word": "brandy", "wordID": 168, "conditions": [18, 1200, "v", 18000], "trial": 1, "serialpos": 0, "trial_type": "single-stim", "trial_index": 55, "time_elapsed": 670856, "internal_node_id": "0.0-37.0"}}, {"uniqueid": "MTK0468:3DY4FPOOA2V89Z6R68681KBI3LLVR8", "current_trial": 56, "dateTime": 1510937673016, "trialdata": {"rt": -1, "stimulus": "<p id=\"stim\">FRECKLE</p>", "key_press": -1, "type": "PRES_VIS", "word": "freckle", "wordID": 601, "conditions": [18, 1200, "v", 18000], "trial": 1, "serialpos": 1, "trial_type": "single-stim", "trial_index": 56, "time_elapsed": 673095, "internal_node_id": "0.0-38.0"}}, {"uniqueid": "MTK0468:3DY4FPOOA2V89Z6R68681KBI3LLVR8", "current_trial": 57, "dateTime": 1510937675398, "trialdata": {"rt": -1, "stimulus": "<p id=\"stim\">TAXI</p>", "key_press": -1, "type": "PRES_VIS", "word": "taxi", "wordID": 1437, "conditions": [18, 1200, "v", 18000], "trial": 1, "serialpos": 2, "trial_type": "single-stim", "trial_index": 57, "time_elapsed": 675477, "internal_node_id": "0.0-39.0"}}, {"uniqueid": "MTK0468:3DY4FPOOA2V89Z6R68681KBI3LLVR8", "current_trial": 58, "dateTime": 1510937677415, "trialdata": {"rt": -1, "stimulus": "<p id=\"stim\">SHERIFF</p>", "key_press": -1, "type": "PRES_VIS", "word": "sheriff", "wordID": 1283, "conditions": [18, 1200, "v", 18000], "trial": 1, "serialpos": 3, "trial_type": "single-stim", "trial_index": 58, "time_elapsed": 677493, "internal_node_id": "0.0-40.0"}}, {"uniqueid": "MTK0468:3DY4FPOOA2V89Z6R68681KBI3LLVR8", "current_trial": 59, "dateTime": 1510937679728, "trialdata": {"rt": -1, "stimulus": "<p id=\"stim\">SALMON</p>", "key_press": -1, "type": "PRES_VIS", "word": "salmon", "wordID": 1226, "conditions": [18, 1200, "v", 18000], "trial": 1, "serialpos": 4, "trial_type": "single-stim", "trial_index": 59, "time_elapsed": 679806, "internal_node_id": "0.0-41.0"}}, {"uniqueid": "MTK0468:3DY4FPOOA2V89Z6R68681KBI3LLVR8", "current_trial": 60, "dateTime": 1510937681945, "trialdata": {"rt": -1, "stimulus": "<p id=\"stim\">MATCH</p>", "key_press": -1, "type": "PRES_VIS", "word": "match", "wordID": 877, "conditions": [18, 1200, "v", 18000], "trial": 1, "serialpos": 5, "trial_type": "single-stim", "trial_index": 60, "time_elapsed": 682023, "internal_node_id": "0.0-42.0"}}, {"uniqueid": "MTK0468:3DY4FPOOA2V89Z6R68681KBI3LLVR8", "current_trial": 61, "dateTime": 1510937684045, "trialdata": {"rt": -1, "stimulus": "<p id=\"stim\">INMATE</p>", "key_press": -1, "type": "PRES_VIS", "word": "inmate", "wordID": 737, "conditions": [18, 1200, "v", 18000], "trial": 1, "serialpos": 6, "trial_type": "single-stim", "trial_index": 61, "time_elapsed": 684123, "internal_node_id": "0.0-43.0"}}, {"uniqueid": "MTK0468:3DY4FPOOA2V89Z6R68681KBI3LLVR8", "current_trial": 62, "dateTime": 1510937686401, "trialdata": {"rt": -1, "stimulus": "<p id=\"stim\">DIVER</p>", "key_press": -1, "type": "PRES_VIS", "word": "diver", "wordID": 475, "conditions": [18, 1200, "v", 18000], "trial": 1, "serialpos": 7, "trial_type": "single-stim", "trial_index": 62, "time_elapsed": 686479, "internal_node_id": "0.0-44.0"}}, {"uniqueid": "MTK0468:3DY4FPOOA2V89Z6R68681KBI3LLVR8", "current_trial": 63, "dateTime": 1510937688485, "trialdata": {"rt": -1, "stimulus": "<p id=\"stim\">TUNNEL</p>", "key_press": -1, "type": "PRES_VIS", "word": "tunnel", "wordID": 1518, "conditions": [18, 1200, "v", 18000], "trial": 1, "serialpos": 8, "trial_type": "single-stim", "trial_index": 63, "time_elapsed": 688564, "internal_node_id": "0.0-45.0"}}, {"uniqueid": "MTK0468:3DY4FPOOA2V89Z6R68681KBI3LLVR8", "current_trial": 64, "dateTime": 1510937690673, "trialdata": {"rt": -1, "stimulus": "<p id=\"stim\">SAUSAGE</p>", "key_press": -1, "type": "PRES_VIS", "word": "sausage", "wordID": 1237, "conditions": [18, 1200, "v", 18000], "trial": 1, "serialpos": 9, "trial_type": "single-stim", "trial_index": 64, "time_elapsed": 690751, "internal_node_id": "0.0-46.0"}}, {"uniqueid": "MTK0468:3DY4FPOOA2V89Z6R68681KBI3LLVR8", "current_trial": 65, "dateTime": 1510937693039, "trialdata": {"rt": -1, "stimulus": "<p id=\"stim\">LAGOON</p>", "key_press": -1, "type": "PRES_VIS", "word": "lagoon", "wordID": 794, "conditions": [18, 1200, "v", 18000], "trial": 1, "serialpos": 10, "trial_type": "single-stim", "trial_index": 65, "time_elapsed": 693117, "internal_node_id": "0.0-47.0"}}, {"uniqueid": "MTK0468:3DY4FPOOA2V89Z6R68681KBI3LLVR8", "current_trial": 66, "dateTime": 1510937695401, "trialdata": {"rt": -1, "stimulus": "<p id=\"stim\">FOREHEAD</p>", "key_press": -1, "type": "PRES_VIS", "word": "forehead", "wordID": 591, "conditions": [18, 1200, "v", 18000], "trial": 1, "serialpos": 11, "trial_type": "single-stim", "trial_index": 66, "time_elapsed": 695479, "internal_node_id": "0.0-48.0"}}, {"uniqueid": "MTK0468:3DY4FPOOA2V89Z6R68681KBI3LLVR8", "current_trial": 67, "dateTime": 1510937697755, "trialdata": {"rt": -1, "stimulus": "<p id=\"stim\">HERO</p>", "key_press": -1, "type": "PRES_VIS", "word": "hero", "wordID": 705, "conditions": [18, 1200, "v", 18000], "trial": 1, "serialpos": 12, "trial_type": "single-stim", "trial_index": 67, "time_elapsed": 697833, "internal_node_id": "0.0-49.0"}}, {"uniqueid": "MTK0468:3DY4FPOOA2V89Z6R68681KBI3LLVR8", "current_trial": 68, "dateTime": 1510937699899, "trialdata": {"rt": -1, "stimulus": "<p id=\"stim\">FINGER</p>", "key_press": -1, "type": "PRES_VIS", "word": "finger", "wordID": 566, "conditions": [18, 1200, "v", 18000], "trial": 1, "serialpos": 13, "trial_type": "single-stim", "trial_index": 68, "time_elapsed": 699977, "internal_node_id": "0.0-50.0"}}, {"uniqueid": "MTK0468:3DY4FPOOA2V89Z6R68681KBI3LLVR8", "current_trial": 69, "dateTime": 1510937702209, "trialdata": {"rt": -1, "stimulus": "<p id=\"stim\">FEMALE</p>", "key_press": -1, "type": "PRES_VIS", "word": "female", "wordID": 558, "conditions": [18, 1200, "v", 18000], "trial": 1, "serialpos": 14, "trial_type": "single-stim", "trial_index": 69, "time_elapsed": 702287, "internal_node_id": "0.0-51.0"}}, {"uniqueid": "MTK0468:3DY4FPOOA2V89Z6R68681KBI3LLVR8", "current_trial": 70, "dateTime": 1510937704565, "trialdata": {"rt": -1, "stimulus": "<p id=\"stim\">SUNSET</p>", "key_press": -1, "type": "PRES_VIS", "word": "sunset", "wordID": 1407, "conditions": [18, 1200, "v", 18000], "trial": 1, "serialpos": 15, "trial_type": "single-stim", "trial_index": 70, "time_elapsed": 704643, "internal_node_id": "0.0-52.0"}}, {"uniqueid": "MTK0468:3DY4FPOOA2V89Z6R68681KBI3LLVR8", "current_trial": 71, "dateTime": 1510937706899, "trialdata": {"rt": -1, "stimulus": "<p id=\"stim\">WITNESS</p>", "key_press": -1, "type": "PRES_VIS", "word": "witness", "wordID": 1617, "conditions": [18, 1200, "v", 18000], "trial": 1, "serialpos": 16, "trial_type": "single-stim", "trial_index": 71, "time_elapsed": 706977, "internal_node_id": "0.0-53.0"}}, {"uniqueid": "MTK0468:3DY4FPOOA2V89Z6R68681KBI3LLVR8", "current_trial": 72, "dateTime": 1510937709086, "trialdata": {"rt": -1, "stimulus": "<p id=\"stim\">DRESS</p>", "key_press": -1, "type": "PRES_VIS", "word": "dress", "wordID": 494, "conditions": [18, 1200, "v", 18000], "trial": 1, "serialpos": 17, "trial_type": "single-stim", "trial_index": 72, "time_elapsed": 709164, "internal_node_id": "0.0-54.0"}}, {"uniqueid": "MTK0468:3DY4FPOOA2V89Z6R68681KBI3LLVR8", "current_trial": 73, "dateTime": 1510937711199, "trialdata": {"rt": -1, "stimulus": "", "key_press": -1, "type": "PRE_RECALL_DELAY", "trial_type": "single-stim", "trial_index": 73, "time_elapsed": 711278, "internal_node_id": "0.0-55.0-0.0"}}, {"uniqueid": "MTK0468:3DY4FPOOA2V89Z6R68681KBI3LLVR8", "current_trial": 74, "dateTime": 1510937711704, "trialdata": {"rt": -1000, "stimulus": "/static/audio/400Hz.wav", "key_press": -1, "type": "PRE_RECALL_ALERT", "trial_type": "single-audio", "trial_index": 74, "time_elapsed": 711783, "internal_node_id": "0.0-56.0"}}, {"uniqueid": "MTK0468:3DY4FPOOA2V89Z6R68681KBI3LLVR8", "current_trial": 75, "dateTime": 1510937771719, "trialdata": {"rt": [9046, 12412, 15550, 19183, 22527, 24021, 29320, 31374, 35250, 42071, 53416], "recwords": ["brandy", "freckle", "taxi", "sheriff", "match", "diver", "sunset", "female", "hero", "match", "lagoon"], "type": "FREE_RECALL", "conditions": [18, 1200, "v", 18000], "trial": 1, "trial_type": "free-recall", "trial_index": 75, "time_elapsed": 771792, "internal_node_id": "0.0-57.0-0.0"}}, {"uniqueid": "MTK0468:3DY4FPOOA2V89Z6R68681KBI3LLVR8", "current_trial": 76, "dateTime": 1510937787267, "trialdata": {"rt": 13502, "key_press": 75, "type": "INSTRUCTIONS", "trial_type": "text", "trial_index": 76, "time_elapsed": 787304, "internal_node_id": "0.0-58.0"}}, {"uniqueid": "MTK0468:3DY4FPOOA2V89Z6R68681KBI3LLVR8", "current_trial": 77, "dateTime": 1510937800286, "trialdata": {"rt": [3055, 6196, 9794], "responses": ["11", "9", "9"], "num1": [1, 2, 1, 7], "num2": [9, 5, 3, 7], "num3": [1, 2, 5, 3], "type": "DISTRACTOR", "conditions": [12, 1600, "v", 12000], "trial": 2, "trial_type": "math-distractor", "trial_index": 77, "time_elapsed": 800364, "internal_node_id": "0.0-59.0"}}, {"uniqueid": "MTK0468:3DY4FPOOA2V89Z6R68681KBI3LLVR8", "current_trial": 78, "dateTime": 1510937803310, "trialdata": {"rt": -1, "stimulus": "<p id=\"stim\">10</p>", "key_press": -1, "trial_type": "single-stim", "trial_index": 78, "time_elapsed": 803373, "internal_node_id": "0.0-60.0-0.0"}}, {"uniqueid": "MTK0468:3DY4FPOOA2V89Z6R68681KBI3LLVR8", "current_trial": 79, "dateTime": 1510937804316, "trialdata": {"rt": -1, "stimulus": "<p id=\"stim\">9</p>", "key_press": -1, "trial_type": "single-stim", "trial_index": 79, "time_elapsed": 804394, "internal_node_id": "0.0-60.0-1.0"}}, {"uniqueid": "MTK0468:3DY4FPOOA2V89Z6R68681KBI3LLVR8", "current_trial": 80, "dateTime": 1510937805322, "trialdata": {"rt": -1, "stimulus": "<p id=\"stim\">8</p>", "key_press": -1, "trial_type": "single-stim", "trial_index": 80, "time_elapsed": 805401, "internal_node_id": "0.0-60.0-2.0"}}, {"uniqueid": "MTK0468:3DY4FPOOA2V89Z6R68681KBI3LLVR8", "current_trial": 81, "dateTime": 1510937806328, "trialdata": {"rt": -1, "stimulus": "<p id=\"stim\">7</p>", "key_press": -1, "trial_type": "single-stim", "trial_index": 81, "time_elapsed": 806406, "internal_node_id": "0.0-60.0-3.0"}}, {"uniqueid": "MTK0468:3DY4FPOOA2V89Z6R68681KBI3LLVR8", "current_trial": 82, "dateTime": 1510937807335, "trialdata": {"rt": -1, "stimulus": "<p id=\"stim\">6</p>", "key_press": -1, "trial_type": "single-stim", "trial_index": 82, "time_elapsed": 807413, "internal_node_id": "0.0-60.0-4.0"}}, {"uniqueid": "MTK0468:3DY4FPOOA2V89Z6R68681KBI3LLVR8", "current_trial": 83, "dateTime": 1510937808343, "trialdata": {"rt": -1, "stimulus": "<p id=\"stim\">5</p>", "key_press": -1, "trial_type": "single-stim", "trial_index": 83, "time_elapsed": 808422, "internal_node_id": "0.0-60.0-5.0"}}, {"uniqueid": "MTK0468:3DY4FPOOA2V89Z6R68681KBI3LLVR8", "current_trial": 84, "dateTime": 1510937809350, "trialdata": {"rt": -1, "stimulus": "<p id=\"stim\">4</p>", "key_press": -1, "trial_type": "single-stim", "trial_index": 84, "time_elapsed": 809428, "internal_node_id": "0.0-60.0-6.0"}}, {"uniqueid": "MTK0468:3DY4FPOOA2V89Z6R68681KBI3LLVR8", "current_trial": 85, "dateTime": 1510937810355, "trialdata": {"rt": -1, "stimulus": "<p id=\"stim\">3</p>", "key_press": -1, "trial_type": "single-stim", "trial_index": 85, "time_elapsed": 810434, "internal_node_id": "0.0-60.0-7.0"}}, {"uniqueid": "MTK0468:3DY4FPOOA2V89Z6R68681KBI3LLVR8", "current_trial": 86, "dateTime": 1510937811361, "trialdata": {"rt": -1, "stimulus": "<p id=\"stim\">2</p>", "key_press": -1, "trial_type": "single-stim", "trial_index": 86, "time_elapsed": 811440, "internal_node_id": "0.0-60.0-8.0"}}, {"uniqueid": "MTK0468:3DY4FPOOA2V89Z6R68681KBI3LLVR8", "current_trial": 87, "dateTime": 1510937812368, "trialdata": {"rt": -1, "stimulus": "<p id=\"stim\">1</p>", "key_press": -1, "trial_type": "single-stim", "trial_index": 87, "time_elapsed": 812446, "internal_node_id": "0.0-60.0-9.0"}}, {"uniqueid": "MTK0468:3DY4FPOOA2V89Z6R68681KBI3LLVR8", "current_trial": 88, "dateTime": 1510937813872, "trialdata": {"rt": -1, "stimulus": "<p id=\"stim\">+</p>", "key_press": -1, "type": "FIXATION", "trial_type": "single-stim", "trial_index": 88, "time_elapsed": 813951, "internal_node_id": "0.0-61.0-0.0"}}, {"uniqueid": "MTK0468:3DY4FPOOA2V89Z6R68681KBI3LLVR8", "current_trial": 89, "dateTime": 1510937815477, "trialdata": {"rt": -1, "stimulus": "<p id=\"stim\">JURY</p>", "key_press": -1, "type": "PRES_VIS", "word": "jury", "wordID": 765, "conditions": [12, 1600, "v", 12000], "trial": 2, "serialpos": 0, "trial_type": "single-stim", "trial_index": 89, "time_elapsed": 815554, "internal_node_id": "0.0-62.0"}}, {"uniqueid": "MTK0468:3DY4FPOOA2V89Z6R68681KBI3LLVR8", "current_trial": 90, "dateTime": 1510937817964, "trialdata": {"rt": -1, "stimulus": "<p id=\"stim\">PORK</p>", "key_press": -1, "type": "PRES_VIS", "word": "pork", "wordID": 1107, "conditions": [12, 1600, "v", 12000], "trial": 2, "serialpos": 1, "trial_type": "single-stim", "trial_index": 90, "time_elapsed": 818042, "internal_node_id": "0.0-63.0"}}, {"uniqueid": "MTK0468:3DY4FPOOA2V89Z6R68681KBI3LLVR8", "current_trial": 91, "dateTime": 1510937820618, "trialdata": {"rt": -1, "stimulus": "<p id=\"stim\">WAITER</p>", "key_press": -1, "type": "PRES_VIS", "word": "waiter", "wordID": 1579, "conditions": [12, 1600, "v", 12000], "trial": 2, "serialpos": 2, "trial_type": "single-stim", "trial_index": 91, "time_elapsed": 820697, "internal_node_id": "0.0-64.0"}}, {"uniqueid": "MTK0468:3DY4FPOOA2V89Z6R68681KBI3LLVR8", "current_trial": 92, "dateTime": 1510937823376, "trialdata": {"rt": -1, "stimulus": "<p id=\"stim\">GYMNAST</p>", "key_press": -1, "type": "PRES_VIS", "word": "gymnast", "wordID": 674, "conditions": [12, 1600, "v", 12000], "trial": 2, "serialpos": 3, "trial_type": "single-stim", "trial_index": 92, "time_elapsed": 823455, "internal_node_id": "0.0-65.0"}}, {"uniqueid": "MTK0468:3DY4FPOOA2V89Z6R68681KBI3LLVR8", "current_trial": 93, "dateTime": 1510937826137, "trialdata": {"rt": -1, "stimulus": "<p id=\"stim\">WASP</p>", "key_press": -1, "type": "PRES_VIS", "word": "wasp", "wordID": 1592, "conditions": [12, 1600, "v", 12000], "trial": 2, "serialpos": 4, "trial_type": "single-stim", "trial_index": 93, "time_elapsed": 826215, "internal_node_id": "0.0-66.0"}}, {"uniqueid": "MTK0468:3DY4FPOOA2V89Z6R68681KBI3LLVR8", "current_trial": 94, "dateTime": 1510937828701, "trialdata": {"rt": -1, "stimulus": "<p id=\"stim\">SPIDER</p>", "key_press": -1, "type": "PRES_VIS", "word": "spider", "wordID": 1350, "conditions": [12, 1600, "v", 12000], "trial": 2, "serialpos": 5, "trial_type": "single-stim", "trial_index": 94, "time_elapsed": 828780, "internal_node_id": "0.0-67.0"}}, {"uniqueid": "MTK0468:3DY4FPOOA2V89Z6R68681KBI3LLVR8", "current_trial": 95, "dateTime": 1510937831214, "trialdata": {"rt": -1, "stimulus": "<p id=\"stim\">LUNCH</p>", "key_press": -1, "type": "PRES_VIS", "word": "lunch", "wordID": 848, "conditions": [12, 1600, "v", 12000], "trial": 2, "serialpos": 6, "trial_type": "single-stim", "trial_index": 95, "time_elapsed": 831291, "internal_node_id": "0.0-68.0"}}, {"uniqueid": "MTK0468:3DY4FPOOA2V89Z6R68681KBI3LLVR8", "current_trial": 96, "dateTime": 1510937833648, "trialdata": {"rt": -1, "stimulus": "<p id=\"stim\">HOSTESS</p>", "key_press": -1, "type": "PRES_VIS", "word": "hostess", "wordID": 722, "conditions": [12, 1600, "v", 12000], "trial": 2, "serialpos": 7, "trial_type": "single-stim", "trial_index": 96, "time_elapsed": 833727, "internal_node_id": "0.0-69.0"}}, {"uniqueid": "MTK0468:3DY4FPOOA2V89Z6R68681KBI3LLVR8", "current_trial": 97, "dateTime": 1510937836435, "trialdata": {"rt": -1, "stimulus": "<p id=\"stim\">PLAZA</p>", "key_press": -1, "type": "PRES_VIS", "word": "plaza", "wordID": 1087, "conditions": [12, 1600, "v", 12000], "trial": 2, "serialpos": 8, "trial_type": "single-stim", "trial_index": 97, "time_elapsed": 836513, "internal_node_id": "0.0-70.0"}}, {"uniqueid": "MTK0468:3DY4FPOOA2V89Z6R68681KBI3LLVR8", "current_trial": 98, "dateTime": 1510937839057, "trialdata": {"rt": -1, "stimulus": "<p id=\"stim\">MAMMAL</p>", "key_press": -1, "type": "PRES_VIS", "word": "mammal", "wordID": 860, "conditions": [12, 1600, "v", 12000], "trial": 2, "serialpos": 9, "trial_type": "single-stim", "trial_index": 98, "time_elapsed": 839136, "internal_node_id": "0.0-71.0"}}, {"uniqueid": "MTK0468:3DY4FPOOA2V89Z6R68681KBI3LLVR8", "current_trial": 99, "dateTime": 1510937841581, "trialdata": {"rt": -1, "stimulus": "<p id=\"stim\">GIRL</p>", "key_press": -1, "type": "PRES_VIS", "word": "girl", "wordID": 636, "conditions": [12, 1600, "v", 12000], "trial": 2, "serialpos": 10, "trial_type": "single-stim", "trial_index": 99, "time_elapsed": 841660, "internal_node_id": "0.0-72.0"}}, {"uniqueid": "MTK0468:3DY4FPOOA2V89Z6R68681KBI3LLVR8", "current_trial": 100, "dateTime": 1510937844269, "trialdata": {"rt": -1, "stimulus": "<p id=\"stim\">SIDEWALK</p>", "key_press": -1, "type": "PRES_VIS", "word": "sidewalk", "wordID": 1302, "conditions": [12, 1600, "v", 12000], "trial": 2, "serialpos": 11, "trial_type": "single-stim", "trial_index": 100, "time_elapsed": 844347, "internal_node_id": "0.0-73.0"}}, {"uniqueid": "MTK0468:3DY4FPOOA2V89Z6R68681KBI3LLVR8", "current_trial": 101, "dateTime": 1510937846592, "trialdata": {"rt": -1, "stimulus": "", "key_press": -1, "type": "PRE_RECALL_DELAY", "trial_type": "single-stim", "trial_index": 101, "time_elapsed": 846670, "internal_node_id": "0.0-74.0-0.0"}}, {"uniqueid": "MTK0468:3DY4FPOOA2V89Z6R68681KBI3LLVR8", "current_trial": 102, "dateTime": 1510937847107, "trialdata": {"rt": -1000, "stimulus": "/static/audio/400Hz.wav", "key_press": -1, "type": "PRE_RECALL_ALERT", "trial_type": "single-audio", "trial_index": 102, "time_elapsed": 847186, "internal_node_id": "0.0-75.0"}}, {"uniqueid": "MTK0468:3DY4FPOOA2V89Z6R68681KBI3LLVR8", "current_trial": 103, "dateTime": 1510937907118, "trialdata": {"rt": [4928, 8010, 11416, 15731, 20392, 24037, 30789, 33836, 40745], "recwords": ["jury", "pork", "waiter", "gymnastic", "sidewalk", "girl", "plaza", "mammal", "lunch"], "type": "FREE_RECALL", "conditions": [12, 1600, "v", 12000], "trial": 2, "trial_type": "free-recall", "trial_index": 103, "time_elapsed": 907192, "internal_node_id": "0.0-76.0-0.0"}}, {"uniqueid": "MTK0468:3DY4FPOOA2V89Z6R68681KBI3LLVR8", "current_trial": 104, "dateTime": 1510937914137, "trialdata": {"rt": 5014, "key_press": 75, "type": "INSTRUCTIONS", "trial_type": "text", "trial_index": 104, "time_elapsed": 914216, "internal_node_id": "0.0-77.0"}}, {"uniqueid": "MTK0468:3DY4FPOOA2V89Z6R68681KBI3LLVR8", "current_trial": 105, "dateTime": 1510937928153, "trialdata": {"rt": [2891, 8410, 11208], "responses": ["11", "22", "8"], "num1": [2, 6, 5, 9], "num2": [2, 9, 2, 3], "num3": [7, 7, 1, 6], "type": "DISTRACTOR", "conditions": [12, 1600, "a", 12000], "trial": 3, "trial_type": "math-distractor", "trial_index": 105, "time_elapsed": 928231, "internal_node_id": "0.0-78.0"}}, {"uniqueid": "MTK0468:3DY4FPOOA2V89Z6R68681KBI3LLVR8", "current_trial": 106, "dateTime": 1510937931161, "trialdata": {"rt": -1, "stimulus": "<p id=\"stim\">10</p>", "key_press": -1, "trial_type": "single-stim", "trial_index": 106, "time_elapsed": 931239, "internal_node_id": "0.0-79.0-0.0"}}, {"uniqueid": "MTK0468:3DY4FPOOA2V89Z6R68681KBI3LLVR8", "current_trial": 107, "dateTime": 1510937932170, "trialdata": {"rt": -1, "stimulus": "<p id=\"stim\">9</p>", "key_press": -1, "trial_type": "single-stim", "trial_index": 107, "time_elapsed": 932248, "internal_node_id": "0.0-79.0-1.0"}}, {"uniqueid": "MTK0468:3DY4FPOOA2V89Z6R68681KBI3LLVR8", "current_trial": 108, "dateTime": 1510937933175, "trialdata": {"rt": -1, "stimulus": "<p id=\"stim\">8</p>", "key_press": -1, "trial_type": "single-stim", "trial_index": 108, "time_elapsed": 933254, "internal_node_id": "0.0-79.0-2.0"}}, {"uniqueid": "MTK0468:3DY4FPOOA2V89Z6R68681KBI3LLVR8", "current_trial": 109, "dateTime": 1510937934180, "trialdata": {"rt": -1, "stimulus": "<p id=\"stim\">7</p>", "key_press": -1, "trial_type": "single-stim", "trial_index": 109, "time_elapsed": 934259, "internal_node_id": "0.0-79.0-3.0"}}, {"uniqueid": "MTK0468:3DY4FPOOA2V89Z6R68681KBI3LLVR8", "current_trial": 110, "dateTime": 1510937935187, "trialdata": {"rt": -1, "stimulus": "<p id=\"stim\">6</p>", "key_press": -1, "trial_type": "single-stim", "trial_index": 110, "time_elapsed": 935265, "internal_node_id": "0.0-79.0-4.0"}}, {"uniqueid": "MTK0468:3DY4FPOOA2V89Z6R68681KBI3LLVR8", "current_trial": 111, "dateTime": 1510937936192, "trialdata": {"rt": -1, "stimulus": "<p id=\"stim\">5</p>", "key_press": -1, "trial_type": "single-stim", "trial_index": 111, "time_elapsed": 936270, "internal_node_id": "0.0-79.0-5.0"}}, {"uniqueid": "MTK0468:3DY4FPOOA2V89Z6R68681KBI3LLVR8", "current_trial": 112, "dateTime": 1510937937199, "trialdata": {"rt": -1, "stimulus": "<p id=\"stim\">4</p>", "key_press": -1, "trial_type": "single-stim", "trial_index": 112, "time_elapsed": 937277, "internal_node_id": "0.0-79.0-6.0"}}, {"uniqueid": "MTK0468:3DY4FPOOA2V89Z6R68681KBI3LLVR8", "current_trial": 113, "dateTime": 1510937938209, "trialdata": {"rt": -1, "stimulus": "<p id=\"stim\">3</p>", "key_press": -1, "trial_type": "single-stim", "trial_index": 113, "time_elapsed": 938288, "internal_node_id": "0.0-79.0-7.0"}}, {"uniqueid": "MTK0468:3DY4FPOOA2V89Z6R68681KBI3LLVR8", "current_trial": 114, "dateTime": 1510937939214, "trialdata": {"rt": -1, "stimulus": "<p id=\"stim\">2</p>", "key_press": -1, "trial_type": "single-stim", "trial_index": 114, "time_elapsed": 939292, "internal_node_id": "0.0-79.0-8.0"}}, {"uniqueid": "MTK0468:3DY4FPOOA2V89Z6R68681KBI3LLVR8", "current_trial": 115, "dateTime": 1510937940219, "trialdata": {"rt": -1, "stimulus": "<p id=\"stim\">1</p>", "key_press": -1, "trial_type": "single-stim", "trial_index": 115, "time_elapsed": 940297, "internal_node_id": "0.0-79.0-9.0"}}, {"uniqueid": "MTK0468:3DY4FPOOA2V89Z6R68681KBI3LLVR8", "current_trial": 116, "dateTime": 1510937941723, "trialdata": {"rt": -1, "stimulus": "<p id=\"stim\">+</p>", "key_press": -1, "type": "FIXATION", "trial_type": "single-stim", "trial_index": 116, "time_elapsed": 941802, "internal_node_id": "0.0-80.0-0.0"}}, {"uniqueid": "MTK0468:3DY4FPOOA2V89Z6R68681KBI3LLVR8", "current_trial": 117, "dateTime": 1510937944153, "trialdata": {"rt": -1000, "stimulus": "/static/audio/wordpool/QUARTER.wav", "key_press": -1, "type": "PRES_AUD", "word": "quarter", "wordID": 1147, "conditions": [12, 1600, "a", 12000], "trial": 3, "serialpos": 0, "trial_type": "single-audio", "trial_index": 117, "time_elapsed": 944232, "internal_node_id": "0.0-81.0"}}, {"uniqueid": "MTK0468:3DY4FPOOA2V89Z6R68681KBI3LLVR8", "current_trial": 118, "dateTime": 1510937946784, "trialdata": {"rt": -1000, "stimulus": "/static/audio/wordpool/MARKET.wav", "key_press": -1, "type": "PRES_AUD", "word": "market", "wordID": 870, "conditions": [12, 1600, "a", 12000], "trial": 3, "serialpos": 1, "trial_type": "single-audio", "trial_index": 118, "time_elapsed": 946863, "internal_node_id": "0.0-82.0"}}, {"uniqueid": "MTK0468:3DY4FPOOA2V89Z6R68681KBI3LLVR8", "current_trial": 119, "dateTime": 1510937949279, "trialdata": {"rt": -1000, "stimulus": "/static/audio/wordpool/INFANT.wav", "key_press": -1, "type": "PRES_AUD", "word": "infant", "wordID": 736, "conditions": [12, 1600, "a", 12000], "trial": 3, "serialpos": 2, "trial_type": "single-audio", "trial_index": 119, "time_elapsed": 949358, "internal_node_id": "0.0-83.0"}}, {"uniqueid": "MTK0468:3DY4FPOOA2V89Z6R68681KBI3LLVR8", "current_trial": 120, "dateTime": 1510937951964, "trialdata": {"rt": -1000, "stimulus": "/static/audio/wordpool/WARDROBE.wav", "key_press": -1, "type": "PRES_AUD", "word": "wardrobe", "wordID": 1586, "conditions": [12, 1600, "a", 12000], "trial": 3, "serialpos": 3, "trial_type": "single-audio", "trial_index": 120, "time_elapsed": 952043, "internal_node_id": "0.0-84.0"}}, {"uniqueid": "MTK0468:3DY4FPOOA2V89Z6R68681KBI3LLVR8", "current_trial": 121, "dateTime": 1510937954643, "trialdata": {"rt": -1000, "stimulus": "/static/audio/wordpool/SLIME.wav", "key_press": -1, "type": "PRES_AUD", "word": "slime", "wordID": 1326, "conditions": [12, 1600, "a", 12000], "trial": 3, "serialpos": 4, "trial_type": "single-audio", "trial_index": 121, "time_elapsed": 954722, "internal_node_id": "0.0-85.0"}}, {"uniqueid": "MTK0468:3DY4FPOOA2V89Z6R68681KBI3LLVR8", "current_trial": 122, "dateTime": 1510937957379, "trialdata": {"rt": -1000, "stimulus": "/static/audio/wordpool/GAVEL.wav", "key_press": -1, "type": "PRES_AUD", "word": "gavel", "wordID": 626, "conditions": [12, 1600, "a", 12000], "trial": 3, "serialpos": 5, "trial_type": "single-audio", "trial_index": 122, "time_elapsed": 957458, "internal_node_id": "0.0-86.0"}}, {"uniqueid": "MTK0468:3DY4FPOOA2V89Z6R68681KBI3LLVR8", "current_trial": 123, "dateTime": 1510937959932, "trialdata": {"rt": -1000, "stimulus": "/static/audio/wordpool/BRACES.wav", "key_press": -1, "type": "PRES_AUD", "word": "braces", "wordID": 163, "conditions": [12, 1600, "a", 12000], "trial": 3, "serialpos": 6, "trial_type": "single-audio", "trial_index": 123, "time_elapsed": 960011, "internal_node_id": "0.0-87.0"}}, {"uniqueid": "MTK0468:3DY4FPOOA2V89Z6R68681KBI3LLVR8", "current_trial": 124, "dateTime": 1510937962648, "trialdata": {"rt": -1000, "stimulus": "/static/audio/wordpool/COSTUME.wav", "key_press": -1, "type": "PRES_AUD", "word": "costume", "wordID": 382, "conditions": [12, 1600, "a", 12000], "trial": 3, "serialpos": 7, "trial_type": "single-audio", "trial_index": 124, "time_elapsed": 962726, "internal_node_id": "0.0-88.0"}}, {"uniqueid": "MTK0468:3DY4FPOOA2V89Z6R68681KBI3LLVR8", "current_trial": 125, "dateTime": 1510937965237, "trialdata": {"rt": -1000, "stimulus": "/static/audio/wordpool/CAPTIVE.wav", "key_press": -1, "type": "PRES_AUD", "word": "captive", "wordID": 239, "conditions": [12, 1600, "a", 12000], "trial": 3, "serialpos": 8, "trial_type": "single-audio", "trial_index": 125, "time_elapsed": 965316, "internal_node_id": "0.0-89.0"}}, {"uniqueid": "MTK0468:3DY4FPOOA2V89Z6R68681KBI3LLVR8", "current_trial": 126, "dateTime": 1510937967701, "trialdata": {"rt": -1000, "stimulus": "/static/audio/wordpool/NECKLACE.wav", "key_press": -1, "type": "PRES_AUD", "word": "necklace", "wordID": 939, "conditions": [12, 1600, "a", 12000], "trial": 3, "serialpos": 9, "trial_type": "single-audio", "trial_index": 126, "time_elapsed": 967779, "internal_node_id": "0.0-90.0"}}, {"uniqueid": "MTK0468:3DY4FPOOA2V89Z6R68681KBI3LLVR8", "current_trial": 127, "dateTime": 1510937970361, "trialdata": {"rt": -1000, "stimulus": "/static/audio/wordpool/HIKER.wav", "key_press": -1, "type": "PRES_AUD", "word": "hiker", "wordID": 707, "conditions": [12, 1600, "a", 12000], "trial": 3, "serialpos": 10, "trial_type": "single-audio", "trial_index": 127, "time_elapsed": 970440, "internal_node_id": "0.0-91.0"}}, {"uniqueid": "MTK0468:3DY4FPOOA2V89Z6R68681KBI3LLVR8", "current_trial": 128, "dateTime": 1510937972844, "trialdata": {"rt": -1000, "stimulus": "/static/audio/wordpool/CLIMBER.wav", "key_press": -1, "type": "PRES_AUD", "word": "climber", "wordID": 322, "conditions": [12, 1600, "a", 12000], "trial": 3, "serialpos": 11, "trial_type": "single-audio", "trial_index": 128, "time_elapsed": 972922, "internal_node_id": "0.0-92.0"}}, {"uniqueid": "MTK0468:3DY4FPOOA2V89Z6R68681KBI3LLVR8", "current_trial": 129, "dateTime": 1510937974200, "trialdata": {"rt": -1, "stimulus": "", "key_press": -1, "type": "PRE_RECALL_DELAY", "trial_type": "single-stim", "trial_index": 129, "time_elapsed": 974279, "internal_node_id": "0.0-93.0-0.0"}}, {"uniqueid": "MTK0468:3DY4FPOOA2V89Z6R68681KBI3LLVR8", "current_trial": 130, "dateTime": 1510937974705, "trialdata": {"rt": -1000, "stimulus": "/static/audio/400Hz.wav", "key_press": -1, "type": "PRE_RECALL_ALERT", "trial_type": "single-audio", "trial_index": 130, "time_elapsed": 974784, "internal_node_id": "0.0-94.0"}}, {"uniqueid": "MTK0468:3DY4FPOOA2V89Z6R68681KBI3LLVR8", "current_trial": 131, "dateTime": 1510938034737, "trialdata": {"rt": [5029, 8559, 10679, 12845, 16304, 20312, 27938], "recwords": ["quarter", "market", "infant", "gavel", "necklace", "infant", "climber"], "type": "FREE_RECALL", "conditions": [12, 1600, "a", 12000], "trial": 3, "trial_type": "free-recall", "trial_index": 131, "time_elapsed": 1034804, "internal_node_id": "0.0-95.0-0.0"}}, {"uniqueid": "MTK0468:3DY4FPOOA2V89Z6R68681KBI3LLVR8", "current_trial": 132, "dateTime": 1510938038233, "trialdata": {"rt": 1490, "key_press": 75, "type": "INSTRUCTIONS", "trial_type": "text", "trial_index": 132, "time_elapsed": 1038311, "internal_node_id": "0.0-96.0"}}, {"uniqueid": "MTK0468:3DY4FPOOA2V89Z6R68681KBI3LLVR8", "current_trial": 133, "dateTime": 1510938052241, "trialdata": {"rt": [4184, 7152, 9281, 11970], "responses": ["17", "6", "11", "19"], "num1": [5, 2, 3, 2, 7], "num2": [9, 1, 4, 9, 5], "num3": [3, 3, 4, 8, 5], "type": "DISTRACTOR", "conditions": [24, 800, "a", 12000], "trial": 4, "trial_type": "math-distractor", "trial_index": 133, "time_elapsed": 1052319, "internal_node_id": "0.0-97.0"}}, {"uniqueid": "MTK0468:3DY4FPOOA2V89Z6R68681KBI3LLVR8", "current_trial": 134, "dateTime": 1510938055248, "trialdata": {"rt": -1, "stimulus": "<p id=\"stim\">10</p>", "key_press": -1, "trial_type": "single-stim", "trial_index": 134, "time_elapsed": 1055327, "internal_node_id": "0.0-98.0-0.0"}}, {"uniqueid": "MTK0468:3DY4FPOOA2V89Z6R68681KBI3LLVR8", "current_trial": 135, "dateTime": 1510938056253, "trialdata": {"rt": -1, "stimulus": "<p id=\"stim\">9</p>", "key_press": -1, "trial_type": "single-stim", "trial_index": 135, "time_elapsed": 1056332, "internal_node_id": "0.0-98.0-1.0"}}, {"uniqueid": "MTK0468:3DY4FPOOA2V89Z6R68681KBI3LLVR8", "current_trial": 136, "dateTime": 1510938057261, "trialdata": {"rt": -1, "stimulus": "<p id=\"stim\">8</p>", "key_press": -1, "trial_type": "single-stim", "trial_index": 136, "time_elapsed": 1057339, "internal_node_id": "0.0-98.0-2.0"}}, {"uniqueid": "MTK0468:3DY4FPOOA2V89Z6R68681KBI3LLVR8", "current_trial": 137, "dateTime": 1510938058265, "trialdata": {"rt": -1, "stimulus": "<p id=\"stim\">7</p>", "key_press": -1, "trial_type": "single-stim", "trial_index": 137, "time_elapsed": 1058344, "internal_node_id": "0.0-98.0-3.0"}}, {"uniqueid": "MTK0468:3DY4FPOOA2V89Z6R68681KBI3LLVR8", "current_trial": 138, "dateTime": 1510938059268, "trialdata": {"rt": -1, "stimulus": "<p id=\"stim\">6</p>", "key_press": -1, "trial_type": "single-stim", "trial_index": 138, "time_elapsed": 1059346, "internal_node_id": "0.0-98.0-4.0"}}, {"uniqueid": "MTK0468:3DY4FPOOA2V89Z6R68681KBI3LLVR8", "current_trial": 139, "dateTime": 1510938060280, "trialdata": {"rt": -1, "stimulus": "<p id=\"stim\">5</p>", "key_press": -1, "trial_type": "single-stim", "trial_index": 139, "time_elapsed": 1060355, "internal_node_id": "0.0-98.0-5.0"}}, {"uniqueid": "MTK0468:3DY4FPOOA2V89Z6R68681KBI3LLVR8", "current_trial": 140, "dateTime": 1510938061290, "trialdata": {"rt": -1, "stimulus": "<p id=\"stim\">4</p>", "key_press": -1, "trial_type": "single-stim", "trial_index": 140, "time_elapsed": 1061368, "internal_node_id": "0.0-98.0-6.0"}}, {"uniqueid": "MTK0468:3DY4FPOOA2V89Z6R68681KBI3LLVR8", "current_trial": 141, "dateTime": 1510938062294, "trialdata": {"rt": -1, "stimulus": "<p id=\"stim\">3</p>", "key_press": -1, "trial_type": "single-stim", "trial_index": 141, "time_elapsed": 1062372, "internal_node_id": "0.0-98.0-7.0"}}, {"uniqueid": "MTK0468:3DY4FPOOA2V89Z6R68681KBI3LLVR8", "current_trial": 142, "dateTime": 1510938063298, "trialdata": {"rt": -1, "stimulus": "<p id=\"stim\">2</p>", "key_press": -1, "trial_type": "single-stim", "trial_index": 142, "time_elapsed": 1063376, "internal_node_id": "0.0-98.0-8.0"}}, {"uniqueid": "MTK0468:3DY4FPOOA2V89Z6R68681KBI3LLVR8", "current_trial": 143, "dateTime": 1510938064301, "trialdata": {"rt": -1, "stimulus": "<p id=\"stim\">1</p>", "key_press": -1, "trial_type": "single-stim", "trial_index": 143, "time_elapsed": 1064380, "internal_node_id": "0.0-98.0-9.0"}}, {"uniqueid": "MTK0468:3DY4FPOOA2V89Z6R68681KBI3LLVR8", "current_trial": 144, "dateTime": 1510938065805, "trialdata": {"rt": -1, "stimulus": "<p id=\"stim\">+</p>", "key_press": -1, "type": "FIXATION", "trial_type": "single-stim", "trial_index": 144, "time_elapsed": 1065884, "internal_node_id": "0.0-99.0-0.0"}}, {"uniqueid": "MTK0468:3DY4FPOOA2V89Z6R68681KBI3LLVR8", "current_trial": 145, "dateTime": 1510938067502, "trialdata": {"rt": -1000, "stimulus": "/static/audio/wordpool/WHISTLE.wav", "key_press": -1, "type": "PRES_AUD", "word": "whistle", "wordID": 1605, "conditions": [24, 800, "a", 12000], "trial": 4, "serialpos": 0, "trial_type": "single-audio", "trial_index": 145, "time_elapsed": 1067581, "internal_node_id": "0.0-100.0"}}, {"uniqueid": "MTK0468:3DY4FPOOA2V89Z6R68681KBI3LLVR8", "current_trial": 146, "dateTime": 1510938069170, "trialdata": {"rt": -1000, "stimulus": "/static/audio/wordpool/SUNRISE.wav", "key_press": -1, "type": "PRES_AUD", "word": "sunrise", "wordID": 1406, "conditions": [24, 800, "a", 12000], "trial": 4, "serialpos": 1, "trial_type": "single-audio", "trial_index": 146, "time_elapsed": 1069249, "internal_node_id": "0.0-101.0"}}, {"uniqueid": "MTK0468:3DY4FPOOA2V89Z6R68681KBI3LLVR8", "current_trial": 147, "dateTime": 1510938070886, "trialdata": {"rt": -1000, "stimulus": "/static/audio/wordpool/COUNTY.wav", "key_press": -1, "type": "PRES_AUD", "word": "county", "wordID": 388, "conditions": [24, 800, "a", 12000], "trial": 4, "serialpos": 2, "trial_type": "single-audio", "trial_index": 147, "time_elapsed": 1070965, "internal_node_id": "0.0-102.0"}}, {"uniqueid": "MTK0468:3DY4FPOOA2V89Z6R68681KBI3LLVR8", "current_trial": 148, "dateTime": 1510938072789, "trialdata": {"rt": -1000, "stimulus": "/static/audio/wordpool/COUCH.wav", "key_press": -1, "type": "PRES_AUD", "word": "couch", "wordID": 385, "conditions": [24, 800, "a", 12000], "trial": 4, "serialpos": 3, "trial_type": "single-audio", "trial_index": 148, "time_elapsed": 1072867, "internal_node_id": "0.0-103.0"}}, {"uniqueid": "MTK0468:3DY4FPOOA2V89Z6R68681KBI3LLVR8", "current_trial": 149, "dateTime": 1510938074460, "trialdata": {"rt": -1000, "stimulus": "/static/audio/wordpool/TROMBONE.wav", "key_press": -1, "type": "PRES_AUD", "word": "trombone", "wordID": 1507, "conditions": [24, 800, "a", 12000], "trial": 4, "serialpos": 4, "trial_type": "single-audio", "trial_index": 149, "time_elapsed": 1074538, "internal_node_id": "0.0-104.0"}}, {"uniqueid": "MTK0468:3DY4FPOOA2V89Z6R68681KBI3LLVR8", "current_trial": 150, "dateTime": 1510938076371, "trialdata": {"rt": -1000, "stimulus": "/static/audio/wordpool/CHAMPAGNE.wav", "key_press": -1, "type": "PRES_AUD", "word": "champagne", "wordID": 277, "conditions": [24, 800, "a", 12000], "trial": 4, "serialpos": 5, "trial_type": "single-audio", "trial_index": 150, "time_elapsed": 1076450, "internal_node_id": "0.0-105.0"}}, {"uniqueid": "MTK0468:3DY4FPOOA2V89Z6R68681KBI3LLVR8", "current_trial": 151, "dateTime": 1510938078369, "trialdata": {"rt": -1000, "stimulus": "/static/audio/wordpool/MASK.wav", "key_press": -1, "type": "PRES_AUD", "word": "mask", "wordID": 875, "conditions": [24, 800, "a", 12000], "trial": 4, "serialpos": 6, "trial_type": "single-audio", "trial_index": 151, "time_elapsed": 1078447, "internal_node_id": "0.0-106.0"}}, {"uniqueid": "MTK0468:3DY4FPOOA2V89Z6R68681KBI3LLVR8", "current_trial": 152, "dateTime": 1510938080199, "trialdata": {"rt": -1000, "stimulus": "/static/audio/wordpool/WRIST.wav", "key_press": -1, "type": "PRES_AUD", "word": "wrist", "wordID": 1625, "conditions": [24, 800, "a", 12000], "trial": 4, "serialpos": 7, "trial_type": "single-audio", "trial_index": 152, "time_elapsed": 1080277, "internal_node_id": "0.0-107.0"}}, {"uniqueid": "MTK0468:3DY4FPOOA2V89Z6R68681KBI3LLVR8", "current_trial": 153, "dateTime": 1510938082063, "trialdata": {"rt": -1000, "stimulus": "/static/audio/wordpool/TUBA.wav", "key_press": -1, "type": "PRES_AUD", "word": "tuba", "wordID": 1514, "conditions": [24, 800, "a", 12000], "trial": 4, "serialpos": 8, "trial_type": "single-audio", "trial_index": 153, "time_elapsed": 1082141, "internal_node_id": "0.0-108.0"}}, {"uniqueid": "MTK0468:3DY4FPOOA2V89Z6R68681KBI3LLVR8", "current_trial": 154, "dateTime": 1510938083798, "trialdata": {"rt": -1000, "stimulus": "/static/audio/wordpool/DAUGHTER.wav", "key_press": -1, "type": "PRES_AUD", "word": "daughter", "wordID": 441, "conditions": [24, 800, "a", 12000], "trial": 4, "serialpos": 9, "trial_type": "single-audio", "trial_index": 154, "time_elapsed": 1083876, "internal_node_id": "0.0-109.0"}}, {"uniqueid": "MTK0468:3DY4FPOOA2V89Z6R68681KBI3LLVR8", "current_trial": 155, "dateTime": 1510938085417, "trialdata": {"rt": -1000, "stimulus": "/static/audio/wordpool/SISTER.wav", "key_press": -1, "type": "PRES_AUD", "word": "sister", "wordID": 1311, "conditions": [24, 800, "a", 12000], "trial": 4, "serialpos": 10, "trial_type": "single-audio", "trial_index": 155, "time_elapsed": 1085495, "internal_node_id": "0.0-110.0"}}, {"uniqueid": "MTK0468:3DY4FPOOA2V89Z6R68681KBI3LLVR8", "current_trial": 156, "dateTime": 1510938087134, "trialdata": {"rt": -1000, "stimulus": "/static/audio/wordpool/CLOUD.wav", "key_press": -1, "type": "PRES_AUD", "word": "cloud", "wordID": 327, "conditions": [24, 800, "a", 12000], "trial": 4, "serialpos": 11, "trial_type": "single-audio", "trial_index": 156, "time_elapsed": 1087213, "internal_node_id": "0.0-111.0"}}, {"uniqueid": "MTK0468:3DY4FPOOA2V89Z6R68681KBI3LLVR8", "current_trial": 157, "dateTime": 1510938089126, "trialdata": {"rt": -1000, "stimulus": "/static/audio/wordpool/PILOT.wav", "key_press": -1, "type": "PRES_AUD", "word": "pilot", "wordID": 1069, "conditions": [24, 800, "a", 12000], "trial": 4, "serialpos": 12, "trial_type": "single-audio", "trial_index": 157, "time_elapsed": 1089204, "internal_node_id": "0.0-112.0"}}, {"uniqueid": "MTK0468:3DY4FPOOA2V89Z6R68681KBI3LLVR8", "current_trial": 158, "dateTime": 1510938091035, "trialdata": {"rt": -1000, "stimulus": "/static/audio/wordpool/STOVE.wav", "key_press": -1, "type": "PRES_AUD", "word": "stove", "wordID": 1387, "conditions": [24, 800, "a", 12000], "trial": 4, "serialpos": 13, "trial_type": "single-audio", "trial_index": 158, "time_elapsed": 1091113, "internal_node_id": "0.0-113.0"}}, {"uniqueid": "MTK0468:3DY4FPOOA2V89Z6R68681KBI3LLVR8", "current_trial": 159, "dateTime": 1510938092698, "trialdata": {"rt": -1000, "stimulus": "/static/audio/wordpool/OMELET.wav", "key_press": -1, "type": "PRES_AUD", "word": "omelet", "wordID": 975, "conditions": [24, 800, "a", 12000], "trial": 4, "serialpos": 14, "trial_type": "single-audio", "trial_index": 159, "time_elapsed": 1092777, "internal_node_id": "0.0-114.0"}}, {"uniqueid": "MTK0468:3DY4FPOOA2V89Z6R68681KBI3LLVR8", "current_trial": 160, "dateTime": 1510938094625, "trialdata": {"rt": -1000, "stimulus": "/static/audio/wordpool/PLAYGROUND.wav", "key_press": -1, "type": "PRES_AUD", "word": "playground", "wordID": 1086, "conditions": [24, 800, "a", 12000], "trial": 4, "serialpos": 15, "trial_type": "single-audio", "trial_index": 160, "time_elapsed": 1094704, "internal_node_id": "0.0-115.0"}}, {"uniqueid": "MTK0468:3DY4FPOOA2V89Z6R68681KBI3LLVR8", "current_trial": 161, "dateTime": 1510938096513, "trialdata": {"rt": -1000, "stimulus": "/static/audio/wordpool/SCARECROW.wav", "key_press": -1, "type": "PRES_AUD", "word": "scarecrow", "wordID": 1244, "conditions": [24, 800, "a", 12000], "trial": 4, "serialpos": 16, "trial_type": "single-audio", "trial_index": 161, "time_elapsed": 1096592, "internal_node_id": "0.0-116.0"}}, {"uniqueid": "MTK0468:3DY4FPOOA2V89Z6R68681KBI3LLVR8", "current_trial": 162, "dateTime": 1510938098127, "trialdata": {"rt": -1000, "stimulus": "/static/audio/wordpool/TOASTER.wav", "key_press": -1, "type": "PRES_AUD", "word": "toaster", "wordID": 1471, "conditions": [24, 800, "a", 12000], "trial": 4, "serialpos": 17, "trial_type": "single-audio", "trial_index": 162, "time_elapsed": 1098206, "internal_node_id": "0.0-117.0"}}, {"uniqueid": "MTK0468:3DY4FPOOA2V89Z6R68681KBI3LLVR8", "current_trial": 163, "dateTime": 1510938099821, "trialdata": {"rt": -1000, "stimulus": "/static/audio/wordpool/LIVER.wav", "key_press": -1, "type": "PRES_AUD", "word": "liver", "wordID": 832, "conditions": [24, 800, "a", 12000], "trial": 4, "serialpos": 18, "trial_type": "single-audio", "trial_index": 163, "time_elapsed": 1099900, "internal_node_id": "0.0-118.0"}}, {"uniqueid": "MTK0468:3DY4FPOOA2V89Z6R68681KBI3LLVR8", "current_trial": 164, "dateTime": 1510938101532, "trialdata": {"rt": -1000, "stimulus": "/static/audio/wordpool/VIRUS.wav", "key_press": -1, "type": "PRES_AUD", "word": "virus", "wordID": 1571, "conditions": [24, 800, "a", 12000], "trial": 4, "serialpos": 19, "trial_type": "single-audio", "trial_index": 164, "time_elapsed": 1101611, "internal_node_id": "0.0-119.0"}}, {"uniqueid": "MTK0468:3DY4FPOOA2V89Z6R68681KBI3LLVR8", "current_trial": 165, "dateTime": 1510938103183, "trialdata": {"rt": -1000, "stimulus": "/static/audio/wordpool/BEAST.wav", "key_press": -1, "type": "PRES_AUD", "word": "beast", "wordID": 107, "conditions": [24, 800, "a", 12000], "trial": 4, "serialpos": 20, "trial_type": "single-audio", "trial_index": 165, "time_elapsed": 1103262, "internal_node_id": "0.0-120.0"}}, {"uniqueid": "MTK0468:3DY4FPOOA2V89Z6R68681KBI3LLVR8", "current_trial": 166, "dateTime": 1510938105031, "trialdata": {"rt": -1000, "stimulus": "/static/audio/wordpool/RELISH.wav", "key_press": -1, "type": "PRES_AUD", "word": "relish", "wordID": 1182, "conditions": [24, 800, "a", 12000], "trial": 4, "serialpos": 21, "trial_type": "single-audio", "trial_index": 166, "time_elapsed": 1105109, "internal_node_id": "0.0-121.0"}}, {"uniqueid": "MTK0468:3DY4FPOOA2V89Z6R68681KBI3LLVR8", "current_trial": 167, "dateTime": 1510938106708, "trialdata": {"rt": -1000, "stimulus": "/static/audio/wordpool/DAISY.wav", "key_press": -1, "type": "PRES_AUD", "word": "daisy", "wordID": 434, "conditions": [24, 800, "a", 12000], "trial": 4, "serialpos": 22, "trial_type": "single-audio", "trial_index": 167, "time_elapsed": 1106786, "internal_node_id": "0.0-122.0"}}, {"uniqueid": "MTK0468:3DY4FPOOA2V89Z6R68681KBI3LLVR8", "current_trial": 168, "dateTime": 1510938108327, "trialdata": {"rt": -1000, "stimulus": "/static/audio/wordpool/FLOWER.wav", "key_press": -1, "type": "PRES_AUD", "word": "flower", "wordID": 583, "conditions": [24, 800, "a", 12000], "trial": 4, "serialpos": 23, "trial_type": "single-audio", "trial_index": 168, "time_elapsed": 1108406, "internal_node_id": "0.0-123.0"}}, {"uniqueid": "MTK0468:3DY4FPOOA2V89Z6R68681KBI3LLVR8", "current_trial": 169, "dateTime": 1510938109703, "trialdata": {"rt": -1, "stimulus": "", "key_press": -1, "type": "PRE_RECALL_DELAY", "trial_type": "single-stim", "trial_index": 169, "time_elapsed": 1109782, "internal_node_id": "0.0-124.0-0.0"}}, {"uniqueid": "MTK0468:3DY4FPOOA2V89Z6R68681KBI3LLVR8", "current_trial": 170, "dateTime": 1510938110216, "trialdata": {"rt": -1000, "stimulus": "/static/audio/400Hz.wav", "key_press": -1, "type": "PRE_RECALL_ALERT", "trial_type": "single-audio", "trial_index": 170, "time_elapsed": 1110295, "internal_node_id": "0.0-125.0"}}, {"uniqueid": "MTK0468:3DY4FPOOA2V89Z6R68681KBI3LLVR8", "current_trial": 171, "dateTime": 1510938170260, "trialdata": {"rt": [5160, 7515, 10493, 12245, 17279, 21523, 38811], "recwords": ["whistle", "sunrise", "county", "couch", "liver", "sister", "girl"], "type": "FREE_RECALL", "conditions": [24, 800, "a", 12000], "trial": 4, "trial_type": "free-recall", "trial_index": 171, "time_elapsed": 1170309, "internal_node_id": "0.0-126.0-0.0"}}, {"uniqueid": "MTK0468:3DY4FPOOA2V89Z6R68681KBI3LLVR8", "current_trial": 172, "dateTime": 1510938188813, "trialdata": {"rt": 16547, "key_press": 75, "type": "INSTRUCTIONS", "trial_type": "text", "trial_index": 172, "time_elapsed": 1188892, "internal_node_id": "0.0-127.0"}}, {"uniqueid": "MTK0468:3DY4FPOOA2V89Z6R68681KBI3LLVR8", "current_trial": 173, "dateTime": 1510938214838, "trialdata": {"rt": [4722, 7009, 9371, 13269, 16665, 21003], "responses": ["17", "11", "11", "14", "14", "17"], "num1": [5, 3, 5, 3, 1, 4, 7], "num2": [5, 4, 3, 4, 4, 7, 9], "num3": [7, 4, 3, 7, 9, 6, 2], "type": "DISTRACTOR", "conditions": [12, 1600, "v", 24000], "trial": 5, "trial_type": "math-distractor", "trial_index": 173, "time_elapsed": 1214916, "internal_node_id": "0.0-128.0"}}, {"uniqueid": "MTK0468:3DY4FPOOA2V89Z6R68681KBI3LLVR8", "current_trial": 174, "dateTime": 1510938217852, "trialdata": {"rt": -1, "stimulus": "<p id=\"stim\">10</p>", "key_press": -1, "trial_type": "single-stim", "trial_index": 174, "time_elapsed": 1217923, "internal_node_id": "0.0-129.0-0.0"}}, {"uniqueid": "MTK0468:3DY4FPOOA2V89Z6R68681KBI3LLVR8", "current_trial": 175, "dateTime": 1510938218855, "trialdata": {"rt": -1, "stimulus": "<p id=\"stim\">9</p>", "key_press": -1, "trial_type": "single-stim", "trial_index": 175, "time_elapsed": 1218934, "internal_node_id": "0.0-129.0-1.0"}}, {"uniqueid": "MTK0468:3DY4FPOOA2V89Z6R68681KBI3LLVR8", "current_trial": 176, "dateTime": 1510938219861, "trialdata": {"rt": -1, "stimulus": "<p id=\"stim\">8</p>", "key_press": -1, "trial_type": "single-stim", "trial_index": 176, "time_elapsed": 1219939, "internal_node_id": "0.0-129.0-2.0"}}, {"uniqueid": "MTK0468:3DY4FPOOA2V89Z6R68681KBI3LLVR8", "current_trial": 177, "dateTime": 1510938220867, "trialdata": {"rt": -1, "stimulus": "<p id=\"stim\">7</p>", "key_press": -1, "trial_type": "single-stim", "trial_index": 177, "time_elapsed": 1220945, "internal_node_id": "0.0-129.0-3.0"}}, {"uniqueid": "MTK0468:3DY4FPOOA2V89Z6R68681KBI3LLVR8", "current_trial": 178, "dateTime": 1510938221874, "trialdata": {"rt": -1, "stimulus": "<p id=\"stim\">6</p>", "key_press": -1, "trial_type": "single-stim", "trial_index": 178, "time_elapsed": 1221952, "internal_node_id": "0.0-129.0-4.0"}}, {"uniqueid": "MTK0468:3DY4FPOOA2V89Z6R68681KBI3LLVR8", "current_trial": 179, "dateTime": 1510938222877, "trialdata": {"rt": -1, "stimulus": "<p id=\"stim\">5</p>", "key_press": -1, "trial_type": "single-stim", "trial_index": 179, "time_elapsed": 1222956, "internal_node_id": "0.0-129.0-5.0"}}, {"uniqueid": "MTK0468:3DY4FPOOA2V89Z6R68681KBI3LLVR8", "current_trial": 180, "dateTime": 1510938223880, "trialdata": {"rt": -1, "stimulus": "<p id=\"stim\">4</p>", "key_press": -1, "trial_type": "single-stim", "trial_index": 180, "time_elapsed": 1223959, "internal_node_id": "0.0-129.0-6.0"}}, {"uniqueid": "MTK0468:3DY4FPOOA2V89Z6R68681KBI3LLVR8", "current_trial": 181, "dateTime": 1510938224883, "trialdata": {"rt": -1, "stimulus": "<p id=\"stim\">3</p>", "key_press": -1, "trial_type": "single-stim", "trial_index": 181, "time_elapsed": 1224962, "internal_node_id": "0.0-129.0-7.0"}}, {"uniqueid": "MTK0468:3DY4FPOOA2V89Z6R68681KBI3LLVR8", "current_trial": 182, "dateTime": 1510938225887, "trialdata": {"rt": -1, "stimulus": "<p id=\"stim\">2</p>", "key_press": -1, "trial_type": "single-stim", "trial_index": 182, "time_elapsed": 1225965, "internal_node_id": "0.0-129.0-8.0"}}, {"uniqueid": "MTK0468:3DY4FPOOA2V89Z6R68681KBI3LLVR8", "current_trial": 183, "dateTime": 1510938226891, "trialdata": {"rt": -1, "stimulus": "<p id=\"stim\">1</p>", "key_press": -1, "trial_type": "single-stim", "trial_index": 183, "time_elapsed": 1226969, "internal_node_id": "0.0-129.0-9.0"}}, {"uniqueid": "MTK0468:3DY4FPOOA2V89Z6R68681KBI3LLVR8", "current_trial": 184, "dateTime": 1510938228399, "trialdata": {"rt": -1, "stimulus": "<p id=\"stim\">+</p>", "key_press": -1, "type": "FIXATION", "trial_type": "single-stim", "trial_index": 184, "time_elapsed": 1228478, "internal_node_id": "0.0-130.0-0.0"}}, {"uniqueid": "MTK0468:3DY4FPOOA2V89Z6R68681KBI3LLVR8", "current_trial": 185, "dateTime": 1510938230003, "trialdata": {"rt": -1, "stimulus": "<p id=\"stim\">PEPPER</p>", "key_press": -1, "type": "PRES_VIS", "word": "pepper", "wordID": 1046, "conditions": [12, 1600, "v", 24000], "trial": 5, "serialpos": 0, "trial_type": "single-stim", "trial_index": 185, "time_elapsed": 1230082, "internal_node_id": "0.0-131.0"}}, {"uniqueid": "MTK0468:3DY4FPOOA2V89Z6R68681KBI3LLVR8", "current_trial": 186, "dateTime": 1510938232727, "trialdata": {"rt": -1, "stimulus": "<p id=\"stim\">PARSLEY</p>", "key_press": -1, "type": "PRES_VIS", "word": "parsley", "wordID": 1015, "conditions": [12, 1600, "v", 24000], "trial": 5, "serialpos": 1, "trial_type": "single-stim", "trial_index": 186, "time_elapsed": 1232806, "internal_node_id": "0.0-132.0"}}, {"uniqueid": "MTK0468:3DY4FPOOA2V89Z6R68681KBI3LLVR8", "current_trial": 187, "dateTime": 1510938235425, "trialdata": {"rt": -1, "stimulus": "<p id=\"stim\">VAGRANT</p>", "key_press": -1, "type": "PRES_VIS", "word": "vagrant", "wordID": 1543, "conditions": [12, 1600, "v", 24000], "trial": 5, "serialpos": 2, "trial_type": "single-stim", "trial_index": 187, "time_elapsed": 1235503, "internal_node_id": "0.0-133.0"}}, {"uniqueid": "MTK0468:3DY4FPOOA2V89Z6R68681KBI3LLVR8", "current_trial": 188, "dateTime": 1510938237951, "trialdata": {"rt": -1, "stimulus": "<p id=\"stim\">DUSTPAN</p>", "key_press": -1, "type": "PRES_VIS", "word": "dustpan", "wordID": 508, "conditions": [12, 1600, "v", 24000], "trial": 5, "serialpos": 3, "trial_type": "single-stim", "trial_index": 188, "time_elapsed": 1238022, "internal_node_id": "0.0-134.0"}}, {"uniqueid": "MTK0468:3DY4FPOOA2V89Z6R68681KBI3LLVR8", "current_trial": 189, "dateTime": 1510938240557, "trialdata": {"rt": -1, "stimulus": "<p id=\"stim\">TURKEY</p>", "key_press": -1, "type": "PRES_VIS", "word": "turkey", "wordID": 1519, "conditions": [12, 1600, "v", 24000], "trial": 5, "serialpos": 4, "trial_type": "single-stim", "trial_index": 189, "time_elapsed": 1240636, "internal_node_id": "0.0-135.0"}}, {"uniqueid": "MTK0468:3DY4FPOOA2V89Z6R68681KBI3LLVR8", "current_trial": 190, "dateTime": 1510938243142, "trialdata": {"rt": -1, "stimulus": "<p id=\"stim\">PICTURE</p>", "key_press": -1, "type": "PRES_VIS", "word": "picture", "wordID": 1060, "conditions": [12, 1600, "v", 24000], "trial": 5, "serialpos": 5, "trial_type": "single-stim", "trial_index": 190, "time_elapsed": 1243221, "internal_node_id": "0.0-136.0"}}, {"uniqueid": "MTK0468:3DY4FPOOA2V89Z6R68681KBI3LLVR8", "current_trial": 191, "dateTime": 1510938245891, "trialdata": {"rt": -1, "stimulus": "<p id=\"stim\">TEMPLE</p>", "key_press": -1, "type": "PRES_VIS", "word": "temple", "wordID": 1447, "conditions": [12, 1600, "v", 24000], "trial": 5, "serialpos": 6, "trial_type": "single-stim", "trial_index": 191, "time_elapsed": 1245970, "internal_node_id": "0.0-137.0"}}, {"uniqueid": "MTK0468:3DY4FPOOA2V89Z6R68681KBI3LLVR8", "current_trial": 192, "dateTime": 1510938248537, "trialdata": {"rt": -1, "stimulus": "<p id=\"stim\">SERVANT</p>", "key_press": -1, "type": "PRES_VIS", "word": "servant", "wordID": 1270, "conditions": [12, 1600, "v", 24000], "trial": 5, "serialpos": 7, "trial_type": "single-stim", "trial_index": 192, "time_elapsed": 1248615, "internal_node_id": "0.0-138.0"}}, {"uniqueid": "MTK0468:3DY4FPOOA2V89Z6R68681KBI3LLVR8", "current_trial": 193, "dateTime": 1510938251230, "trialdata": {"rt": -1, "stimulus": "<p id=\"stim\">BUBBLE</p>", "key_press": -1, "type": "PRES_VIS", "word": "bubble", "wordID": 182, "conditions": [12, 1600, "v", 24000], "trial": 5, "serialpos": 8, "trial_type": "single-stim", "trial_index": 193, "time_elapsed": 1251308, "internal_node_id": "0.0-139.0"}}, {"uniqueid": "MTK0468:3DY4FPOOA2V89Z6R68681KBI3LLVR8", "current_trial": 194, "dateTime": 1510938253741, "trialdata": {"rt": -1, "stimulus": "<p id=\"stim\">PORTRAIT</p>", "key_press": -1, "type": "PRES_VIS", "word": "portrait", "wordID": 1110, "conditions": [12, 1600, "v", 24000], "trial": 5, "serialpos": 9, "trial_type": "single-stim", "trial_index": 194, "time_elapsed": 1253820, "internal_node_id": "0.0-140.0"}}, {"uniqueid": "MTK0468:3DY4FPOOA2V89Z6R68681KBI3LLVR8", "current_trial": 195, "dateTime": 1510938256275, "trialdata": {"rt": -1, "stimulus": "<p id=\"stim\">NAPKIN</p>", "key_press": -1, "type": "PRES_VIS", "word": "napkin", "wordID": 936, "conditions": [12, 1600, "v", 24000], "trial": 5, "serialpos": 10, "trial_type": "single-stim", "trial_index": 195, "time_elapsed": 1256353, "internal_node_id": "0.0-141.0"}}, {"uniqueid": "MTK0468:3DY4FPOOA2V89Z6R68681KBI3LLVR8", "current_trial": 196, "dateTime": 1510938258849, "trialdata": {"rt": -1, "stimulus": "<p id=\"stim\">OUTFIT</p>", "key_press": -1, "type": "PRES_VIS", "word": "outfit", "wordID": 987, "conditions": [12, 1600, "v", 24000], "trial": 5, "serialpos": 11, "trial_type": "single-stim", "trial_index": 196, "time_elapsed": 1258928, "internal_node_id": "0.0-142.0"}}, {"uniqueid": "MTK0468:3DY4FPOOA2V89Z6R68681KBI3LLVR8", "current_trial": 197, "dateTime": 1510938261203, "trialdata": {"rt": -1, "stimulus": "", "key_press": -1, "type": "PRE_RECALL_DELAY", "trial_type": "single-stim", "trial_index": 197, "time_elapsed": 1261281, "internal_node_id": "0.0-143.0-0.0"}}, {"uniqueid": "MTK0468:3DY4FPOOA2V89Z6R68681KBI3LLVR8", "current_trial": 198, "dateTime": 1510938261707, "trialdata": {"rt": -1000, "stimulus": "/static/audio/400Hz.wav", "key_press": -1, "type": "PRE_RECALL_ALERT", "trial_type": "single-audio", "trial_index": 198, "time_elapsed": 1261786, "internal_node_id": "0.0-144.0"}}, {"uniqueid": "MTK0468:3DY4FPOOA2V89Z6R68681KBI3LLVR8", "current_trial": 199, "dateTime": 1510938321723, "trialdata": {"rt": [5140, 7522, 9921, 11845, 18300, 20901, 23773, 27738, 35296, 39432, 46086], "recwords": ["portrait", "outfit", "napkin", "bubble", "vagrant", "pepper", "parsley", "turkey", "picture", "temple", "bubble"], "type": "FREE_RECALL", "conditions": [12, 1600, "v", 24000], "trial": 5, "trial_type": "free-recall", "trial_index": 199, "time_elapsed": 1321794, "internal_node_id": "0.0-145.0-0.0"}}, {"uniqueid": "MTK0468:3DY4FPOOA2V89Z6R68681KBI3LLVR8", "current_trial": 200, "dateTime": 1510938325011, "trialdata": {"rt": 1281, "key_press": 75, "type": "INSTRUCTIONS", "trial_type": "text", "trial_index": 200, "time_elapsed": 1325090, "internal_node_id": "0.0-146.0"}}, {"uniqueid": "MTK0468:3DY4FPOOA2V89Z6R68681KBI3LLVR8", "current_trial": 201, "dateTime": 1510938351024, "trialdata": {"rt": [4278, 7000, 11298, 17010, 20228, 23460], "responses": ["18", "16", "17", "10", "13", "14"], "num1": [2, 3, 4, 2, 8, 3, 1], "num2": [7, 7, 9, 3, 1, 4, 6], "num3": [9, 6, 4, 5, 4, 7, 7], "type": "DISTRACTOR", "conditions": [24, 800, "v", 24000], "trial": 6, "trial_type": "math-distractor", "trial_index": 201, "time_elapsed": 1351103, "internal_node_id": "0.0-147.0"}}, {"uniqueid": "MTK0468:3DY4FPOOA2V89Z6R68681KBI3LLVR8", "current_trial": 202, "dateTime": 1510938354031, "trialdata": {"rt": -1, "stimulus": "<p id=\"stim\">10</p>", "key_press": -1, "trial_type": "single-stim", "trial_index": 202, "time_elapsed": 1354109, "internal_node_id": "0.0-148.0-0.0"}}, {"uniqueid": "MTK0468:3DY4FPOOA2V89Z6R68681KBI3LLVR8", "current_trial": 203, "dateTime": 1510938355036, "trialdata": {"rt": -1, "stimulus": "<p id=\"stim\">9</p>", "key_press": -1, "trial_type": "single-stim", "trial_index": 203, "time_elapsed": 1355114, "internal_node_id": "0.0-148.0-1.0"}}, {"uniqueid": "MTK0468:3DY4FPOOA2V89Z6R68681KBI3LLVR8", "current_trial": 204, "dateTime": 1510938356043, "trialdata": {"rt": -1, "stimulus": "<p id=\"stim\">8</p>", "key_press": -1, "trial_type": "single-stim", "trial_index": 204, "time_elapsed": 1356121, "internal_node_id": "0.0-148.0-2.0"}}, {"uniqueid": "MTK0468:3DY4FPOOA2V89Z6R68681KBI3LLVR8", "current_trial": 205, "dateTime": 1510938357049, "trialdata": {"rt": -1, "stimulus": "<p id=\"stim\">7</p>", "key_press": -1, "trial_type": "single-stim", "trial_index": 205, "time_elapsed": 1357127, "internal_node_id": "0.0-148.0-3.0"}}, {"uniqueid": "MTK0468:3DY4FPOOA2V89Z6R68681KBI3LLVR8", "current_trial": 206, "dateTime": 1510938358055, "trialdata": {"rt": -1, "stimulus": "<p id=\"stim\">6</p>", "key_press": -1, "trial_type": "single-stim", "trial_index": 206, "time_elapsed": 1358133, "internal_node_id": "0.0-148.0-4.0"}}, {"uniqueid": "MTK0468:3DY4FPOOA2V89Z6R68681KBI3LLVR8", "current_trial": 207, "dateTime": 1510938359057, "trialdata": {"rt": -1, "stimulus": "<p id=\"stim\">5</p>", "key_press": -1, "trial_type": "single-stim", "trial_index": 207, "time_elapsed": 1359136, "internal_node_id": "0.0-148.0-5.0"}}, {"uniqueid": "MTK0468:3DY4FPOOA2V89Z6R68681KBI3LLVR8", "current_trial": 208, "dateTime": 1510938360062, "trialdata": {"rt": -1, "stimulus": "<p id=\"stim\">4</p>", "key_press": -1, "trial_type": "single-stim", "trial_index": 208, "time_elapsed": 1360140, "internal_node_id": "0.0-148.0-6.0"}}, {"uniqueid": "MTK0468:3DY4FPOOA2V89Z6R68681KBI3LLVR8", "current_trial": 209, "dateTime": 1510938361067, "trialdata": {"rt": -1, "stimulus": "<p id=\"stim\">3</p>", "key_press": -1, "trial_type": "single-stim", "trial_index": 209, "time_elapsed": 1361146, "internal_node_id": "0.0-148.0-7.0"}}, {"uniqueid": "MTK0468:3DY4FPOOA2V89Z6R68681KBI3LLVR8", "current_trial": 210, "dateTime": 1510938362076, "trialdata": {"rt": -1, "stimulus": "<p id=\"stim\">2</p>", "key_press": -1, "trial_type": "single-stim", "trial_index": 210, "time_elapsed": 1362154, "internal_node_id": "0.0-148.0-8.0"}}, {"uniqueid": "MTK0468:3DY4FPOOA2V89Z6R68681KBI3LLVR8", "current_trial": 211, "dateTime": 1510938363081, "trialdata": {"rt": -1, "stimulus": "<p id=\"stim\">1</p>", "key_press": -1, "trial_type": "single-stim", "trial_index": 211, "time_elapsed": 1363160, "internal_node_id": "0.0-148.0-9.0"}}, {"uniqueid": "MTK0468:3DY4FPOOA2V89Z6R68681KBI3LLVR8", "current_trial": 212, "dateTime": 1510938364588, "trialdata": {"rt": -1, "stimulus": "<p id=\"stim\">+</p>", "key_press": -1, "type": "FIXATION", "trial_type": "single-stim", "trial_index": 212, "time_elapsed": 1364666, "internal_node_id": "0.0-149.0-0.0"}}, {"uniqueid": "MTK0468:3DY4FPOOA2V89Z6R68681KBI3LLVR8", "current_trial": 213, "dateTime": 1510938365399, "trialdata": {"rt": -1, "stimulus": "<p id=\"stim\">DONKEY</p>", "key_press": -1, "type": "PRES_VIS", "word": "donkey", "wordID": 483, "conditions": [24, 800, "v", 24000], "trial": 6, "serialpos": 0, "trial_type": "single-stim", "trial_index": 213, "time_elapsed": 1365477, "internal_node_id": "0.0-150.0"}}, {"uniqueid": "MTK0468:3DY4FPOOA2V89Z6R68681KBI3LLVR8", "current_trial": 214, "dateTime": 1510938367063, "trialdata": {"rt": -1, "stimulus": "<p id=\"stim\">LEG</p>", "key_press": -1, "type": "PRES_VIS", "word": "leg", "wordID": 808, "conditions": [24, 800, "v", 24000], "trial": 6, "serialpos": 1, "trial_type": "single-stim", "trial_index": 214, "time_elapsed": 1367142, "internal_node_id": "0.0-151.0"}}, {"uniqueid": "MTK0468:3DY4FPOOA2V89Z6R68681KBI3LLVR8", "current_trial": 215, "dateTime": 1510938368954, "trialdata": {"rt": -1, "stimulus": "<p id=\"stim\">NURSE</p>", "key_press": -1, "type": "PRES_VIS", "word": "nurse", "wordID": 962, "conditions": [24, 800, "v", 24000], "trial": 6, "serialpos": 2, "trial_type": "single-stim", "trial_index": 215, "time_elapsed": 1369033, "internal_node_id": "0.0-152.0"}}, {"uniqueid": "MTK0468:3DY4FPOOA2V89Z6R68681KBI3LLVR8", "current_trial": 216, "dateTime": 1510938370731, "trialdata": {"rt": -1, "stimulus": "<p id=\"stim\">PATIENT</p>", "key_press": -1, "type": "PRES_VIS", "word": "patient", "wordID": 1023, "conditions": [24, 800, "v", 24000], "trial": 6, "serialpos": 3, "trial_type": "single-stim", "trial_index": 216, "time_elapsed": 1370809, "internal_node_id": "0.0-153.0"}}, {"uniqueid": "MTK0468:3DY4FPOOA2V89Z6R68681KBI3LLVR8", "current_trial": 217, "dateTime": 1510938372453, "trialdata": {"rt": -1, "stimulus": "<p id=\"stim\">DANCER</p>", "key_press": -1, "type": "PRES_VIS", "word": "dancer", "wordID": 436, "conditions": [24, 800, "v", 24000], "trial": 6, "serialpos": 4, "trial_type": "single-stim", "trial_index": 217, "time_elapsed": 1372532, "internal_node_id": "0.0-154.0"}}, {"uniqueid": "MTK0468:3DY4FPOOA2V89Z6R68681KBI3LLVR8", "current_trial": 218, "dateTime": 1510938374330, "trialdata": {"rt": -1, "stimulus": "<p id=\"stim\">RUG</p>", "key_press": -1, "type": "PRES_VIS", "word": "rug", "wordID": 1214, "conditions": [24, 800, "v", 24000], "trial": 6, "serialpos": 5, "trial_type": "single-stim", "trial_index": 218, "time_elapsed": 1374402, "internal_node_id": "0.0-155.0"}}, {"uniqueid": "MTK0468:3DY4FPOOA2V89Z6R68681KBI3LLVR8", "current_trial": 219, "dateTime": 1510938376235, "trialdata": {"rt": -1, "stimulus": "<p id=\"stim\">CASKET</p>", "key_press": -1, "type": "PRES_VIS", "word": "casket", "wordID": 254, "conditions": [24, 800, "v", 24000], "trial": 6, "serialpos": 6, "trial_type": "single-stim", "trial_index": 219, "time_elapsed": 1376314, "internal_node_id": "0.0-156.0"}}, {"uniqueid": "MTK0468:3DY4FPOOA2V89Z6R68681KBI3LLVR8", "current_trial": 220, "dateTime": 1510938377957, "trialdata": {"rt": -1, "stimulus": "<p id=\"stim\">HAWK</p>", "key_press": -1, "type": "PRES_VIS", "word": "hawk", "wordID": 691, "conditions": [24, 800, "v", 24000], "trial": 6, "serialpos": 7, "trial_type": "single-stim", "trial_index": 220, "time_elapsed": 1378035, "internal_node_id": "0.0-157.0"}}, {"uniqueid": "MTK0468:3DY4FPOOA2V89Z6R68681KBI3LLVR8", "current_trial": 221, "dateTime": 1510938379904, "trialdata": {"rt": -1, "stimulus": "<p id=\"stim\">CAMEL</p>", "key_press": -1, "type": "PRES_VIS", "word": "camel", "wordID": 222, "conditions": [24, 800, "v", 24000], "trial": 6, "serialpos": 8, "trial_type": "single-stim", "trial_index": 221, "time_elapsed": 1379982, "internal_node_id": "0.0-158.0"}}, {"uniqueid": "MTK0468:3DY4FPOOA2V89Z6R68681KBI3LLVR8", "current_trial": 222, "dateTime": 1510938381633, "trialdata": {"rt": -1, "stimulus": "<p id=\"stim\">ORANGE</p>", "key_press": -1, "type": "PRES_VIS", "word": "orange", "wordID": 979, "conditions": [24, 800, "v", 24000], "trial": 6, "serialpos": 9, "trial_type": "single-stim", "trial_index": 222, "time_elapsed": 1381711, "internal_node_id": "0.0-159.0"}}, {"uniqueid": "MTK0468:3DY4FPOOA2V89Z6R68681KBI3LLVR8", "current_trial": 223, "dateTime": 1510938383587, "trialdata": {"rt": -1, "stimulus": "<p id=\"stim\">FOX</p>", "key_press": -1, "type": "PRES_VIS", "word": "fox", "wordID": 597, "conditions": [24, 800, "v", 24000], "trial": 6, "serialpos": 10, "trial_type": "single-stim", "trial_index": 223, "time_elapsed": 1383665, "internal_node_id": "0.0-160.0"}}, {"uniqueid": "MTK0468:3DY4FPOOA2V89Z6R68681KBI3LLVR8", "current_trial": 224, "dateTime": 1510938385334, "trialdata": {"rt": -1, "stimulus": "<p id=\"stim\">PEACH</p>", "key_press": -1, "type": "PRES_VIS", "word": "peach", "wordID": 1030, "conditions": [24, 800, "v", 24000], "trial": 6, "serialpos": 11, "trial_type": "single-stim", "trial_index": 224, "time_elapsed": 1385412, "internal_node_id": "0.0-161.0"}}, {"uniqueid": "MTK0468:3DY4FPOOA2V89Z6R68681KBI3LLVR8", "current_trial": 225, "dateTime": 1510938387067, "trialdata": {"rt": -1, "stimulus": "<p id=\"stim\">MACHINE</p>", "key_press": -1, "type": "PRES_VIS", "word": "machine", "wordID": 851, "conditions": [24, 800, "v", 24000], "trial": 6, "serialpos": 12, "trial_type": "single-stim", "trial_index": 225, "time_elapsed": 1387146, "internal_node_id": "0.0-162.0"}}, {"uniqueid": "MTK0468:3DY4FPOOA2V89Z6R68681KBI3LLVR8", "current_trial": 226, "dateTime": 1510938388994, "trialdata": {"rt": -1, "stimulus": "<p id=\"stim\">COOK</p>", "key_press": -1, "type": "PRES_VIS", "word": "cook", "wordID": 371, "conditions": [24, 800, "v", 24000], "trial": 6, "serialpos": 13, "trial_type": "single-stim", "trial_index": 226, "time_elapsed": 1389073, "internal_node_id": "0.0-163.0"}}, {"uniqueid": "MTK0468:3DY4FPOOA2V89Z6R68681KBI3LLVR8", "current_trial": 227, "dateTime": 1510938390696, "trialdata": {"rt": -1, "stimulus": "<p id=\"stim\">BABY</p>", "key_press": -1, "type": "PRES_VIS", "word": "baby", "wordID": 63, "conditions": [24, 800, "v", 24000], "trial": 6, "serialpos": 14, "trial_type": "single-stim", "trial_index": 227, "time_elapsed": 1390774, "internal_node_id": "0.0-164.0"}}, {"uniqueid": "MTK0468:3DY4FPOOA2V89Z6R68681KBI3LLVR8", "current_trial": 228, "dateTime": 1510938392603, "trialdata": {"rt": -1, "stimulus": "<p id=\"stim\">WINDOW</p>", "key_press": -1, "type": "PRES_VIS", "word": "window", "wordID": 1610, "conditions": [24, 800, "v", 24000], "trial": 6, "serialpos": 15, "trial_type": "single-stim", "trial_index": 228, "time_elapsed": 1392681, "internal_node_id": "0.0-165.0"}}, {"uniqueid": "MTK0468:3DY4FPOOA2V89Z6R68681KBI3LLVR8", "current_trial": 229, "dateTime": 1510938394347, "trialdata": {"rt": -1, "stimulus": "<p id=\"stim\">STUDENT</p>", "key_press": -1, "type": "PRES_VIS", "word": "student", "wordID": 1394, "conditions": [24, 800, "v", 24000], "trial": 6, "serialpos": 16, "trial_type": "single-stim", "trial_index": 229, "time_elapsed": 1394426, "internal_node_id": "0.0-166.0"}}, {"uniqueid": "MTK0468:3DY4FPOOA2V89Z6R68681KBI3LLVR8", "current_trial": 230, "dateTime": 1510938396028, "trialdata": {"rt": -1, "stimulus": "<p id=\"stim\">COLLEGE</p>", "key_press": -1, "type": "PRES_VIS", "word": "college", "wordID": 345, "conditions": [24, 800, "v", 24000], "trial": 6, "serialpos": 17, "trial_type": "single-stim", "trial_index": 230, "time_elapsed": 1396107, "internal_node_id": "0.0-167.0"}}, {"uniqueid": "MTK0468:3DY4FPOOA2V89Z6R68681KBI3LLVR8", "current_trial": 231, "dateTime": 1510938397766, "trialdata": {"rt": -1, "stimulus": "<p id=\"stim\">TILE</p>", "key_press": -1, "type": "PRES_VIS", "word": "tile", "wordID": 1467, "conditions": [24, 800, "v", 24000], "trial": 6, "serialpos": 18, "trial_type": "single-stim", "trial_index": 231, "time_elapsed": 1397844, "internal_node_id": "0.0-168.0"}}, {"uniqueid": "MTK0468:3DY4FPOOA2V89Z6R68681KBI3LLVR8", "current_trial": 232, "dateTime": 1510938399750, "trialdata": {"rt": -1, "stimulus": "<p id=\"stim\">BARREL</p>", "key_press": -1, "type": "PRES_VIS", "word": "barrel", "wordID": 90, "conditions": [24, 800, "v", 24000], "trial": 6, "serialpos": 19, "trial_type": "single-stim", "trial_index": 232, "time_elapsed": 1399829, "internal_node_id": "0.0-169.0"}}, {"uniqueid": "MTK0468:3DY4FPOOA2V89Z6R68681KBI3LLVR8", "current_trial": 233, "dateTime": 1510938401531, "trialdata": {"rt": -1, "stimulus": "<p id=\"stim\">BELLY</p>", "key_press": -1, "type": "PRES_VIS", "word": "belly", "wordID": 118, "conditions": [24, 800, "v", 24000], "trial": 6, "serialpos": 20, "trial_type": "single-stim", "trial_index": 233, "time_elapsed": 1401609, "internal_node_id": "0.0-170.0"}}, {"uniqueid": "MTK0468:3DY4FPOOA2V89Z6R68681KBI3LLVR8", "current_trial": 234, "dateTime": 1510938403479, "trialdata": {"rt": -1, "stimulus": "<p id=\"stim\">PIMPLE</p>", "key_press": -1, "type": "PRES_VIS", "word": "pimple", "wordID": 1070, "conditions": [24, 800, "v", 24000], "trial": 6, "serialpos": 21, "trial_type": "single-stim", "trial_index": 234, "time_elapsed": 1403557, "internal_node_id": "0.0-171.0"}}, {"uniqueid": "MTK0468:3DY4FPOOA2V89Z6R68681KBI3LLVR8", "current_trial": 235, "dateTime": 1510938405409, "trialdata": {"rt": -1, "stimulus": "<p id=\"stim\">GRILL</p>", "key_press": -1, "type": "PRES_VIS", "word": "grill", "wordID": 660, "conditions": [24, 800, "v", 24000], "trial": 6, "serialpos": 22, "trial_type": "single-stim", "trial_index": 235, "time_elapsed": 1405487, "internal_node_id": "0.0-172.0"}}, {"uniqueid": "MTK0468:3DY4FPOOA2V89Z6R68681KBI3LLVR8", "current_trial": 236, "dateTime": 1510938407128, "trialdata": {"rt": -1, "stimulus": "<p id=\"stim\">PLAID</p>", "key_press": -1, "type": "PRES_VIS", "word": "plaid", "wordID": 1079, "conditions": [24, 800, "v", 24000], "trial": 6, "serialpos": 23, "trial_type": "single-stim", "trial_index": 236, "time_elapsed": 1407207, "internal_node_id": "0.0-173.0"}}, {"uniqueid": "MTK0468:3DY4FPOOA2V89Z6R68681KBI3LLVR8", "current_trial": 237, "dateTime": 1510938409619, "trialdata": {"rt": -1, "stimulus": "", "key_press": -1, "type": "PRE_RECALL_DELAY", "trial_type": "single-stim", "trial_index": 237, "time_elapsed": 1409697, "internal_node_id": "0.0-174.0-0.0"}}, {"uniqueid": "MTK0468:3DY4FPOOA2V89Z6R68681KBI3LLVR8", "current_trial": 238, "dateTime": 1510938410123, "trialdata": {"rt": -1000, "stimulus": "/static/audio/400Hz.wav", "key_press": -1, "type": "PRE_RECALL_ALERT", "trial_type": "single-audio", "trial_index": 238, "time_elapsed": 1410202, "internal_node_id": "0.0-175.0"}}, {"uniqueid": "MTK0468:3DY4FPOOA2V89Z6R68681KBI3LLVR8", "current_trial": 239, "dateTime": 1510938470170, "trialdata": {"rt": [2697, 5033, 6601, 8250, 12102, 16510, 20340, 22035, 26045, 33718], "recwords": ["student", "college", "trial", "baby", "donkey", "leg", "casket", "dancer", "patient", "trial"], "type": "FREE_RECALL", "conditions": [24, 800, "v", 24000], "trial": 6, "trial_type": "free-recall", "trial_index": 239, "time_elapsed": 1470215, "internal_node_id": "0.0-176.0-0.0"}}, {"uniqueid": "MTK0468:3DY4FPOOA2V89Z6R68681KBI3LLVR8", "current_trial": 240, "dateTime": 1510938499047, "trialdata": {"rt": 26871, "key_press": 75, "type": "INSTRUCTIONS", "trial_type": "text", "trial_index": 240, "time_elapsed": 1499125, "internal_node_id": "0.0-177.0"}}, {"uniqueid": "MTK0468:3DY4FPOOA2V89Z6R68681KBI3LLVR8", "current_trial": 241, "dateTime": 1510938525059, "trialdata": {"rt": [5156, 8916, 11980, 13935, 16680, 20096, 22881], "responses": ["17", "23", "8", "12", "17", "14", "13"], "num1": [3, 7, 2, 1, 1, 5, 3, 2], "num2": [7, 8, 5, 5, 8, 4, 7, 1], "num3": [7, 8, 1, 6, 8, 5, 3, 4], "type": "DISTRACTOR", "conditions": [12, 1600, "a", 24000], "trial": 7, "trial_type": "math-distractor", "trial_index": 241, "time_elapsed": 1525138, "internal_node_id": "0.0-178.0"}}, {"uniqueid": "MTK0468:3DY4FPOOA2V89Z6R68681KBI3LLVR8", "current_trial": 242, "dateTime": 1510938528064, "trialdata": {"rt": -1, "stimulus": "<p id=\"stim\">10</p>", "key_press": -1, "trial_type": "single-stim", "trial_index": 242, "time_elapsed": 1528143, "internal_node_id": "0.0-179.0-0.0"}}, {"uniqueid": "MTK0468:3DY4FPOOA2V89Z6R68681KBI3LLVR8", "current_trial": 243, "dateTime": 1510938529067, "trialdata": {"rt": -1, "stimulus": "<p id=\"stim\">9</p>", "key_press": -1, "trial_type": "single-stim", "trial_index": 243, "time_elapsed": 1529146, "internal_node_id": "0.0-179.0-1.0"}}, {"uniqueid": "MTK0468:3DY4FPOOA2V89Z6R68681KBI3LLVR8", "current_trial": 244, "dateTime": 1510938530070, "trialdata": {"rt": -1, "stimulus": "<p id=\"stim\">8</p>", "key_press": -1, "trial_type": "single-stim", "trial_index": 244, "time_elapsed": 1530148, "internal_node_id": "0.0-179.0-2.0"}}, {"uniqueid": "MTK0468:3DY4FPOOA2V89Z6R68681KBI3LLVR8", "current_trial": 245, "dateTime": 1510938531076, "trialdata": {"rt": -1, "stimulus": "<p id=\"stim\">7</p>", "key_press": -1, "trial_type": "single-stim", "trial_index": 245, "time_elapsed": 1531154, "internal_node_id": "0.0-179.0-3.0"}}, {"uniqueid": "MTK0468:3DY4FPOOA2V89Z6R68681KBI3LLVR8", "current_trial": 246, "dateTime": 1510938532080, "trialdata": {"rt": -1, "stimulus": "<p id=\"stim\">6</p>", "key_press": -1, "trial_type": "single-stim", "trial_index": 246, "time_elapsed": 1532158, "internal_node_id": "0.0-179.0-4.0"}}, {"uniqueid": "MTK0468:3DY4FPOOA2V89Z6R68681KBI3LLVR8", "current_trial": 247, "dateTime": 1510938533084, "trialdata": {"rt": -1, "stimulus": "<p id=\"stim\">5</p>", "key_press": -1, "trial_type": "single-stim", "trial_index": 247, "time_elapsed": 1533163, "internal_node_id": "0.0-179.0-5.0"}}, {"uniqueid": "MTK0468:3DY4FPOOA2V89Z6R68681KBI3LLVR8", "current_trial": 248, "dateTime": 1510938534088, "trialdata": {"rt": -1, "stimulus": "<p id=\"stim\">4</p>", "key_press": -1, "trial_type": "single-stim", "trial_index": 248, "time_elapsed": 1534167, "internal_node_id": "0.0-179.0-6.0"}}, {"uniqueid": "MTK0468:3DY4FPOOA2V89Z6R68681KBI3LLVR8", "current_trial": 249, "dateTime": 1510938535095, "trialdata": {"rt": -1, "stimulus": "<p id=\"stim\">3</p>", "key_press": -1, "trial_type": "single-stim", "trial_index": 249, "time_elapsed": 1535174, "internal_node_id": "0.0-179.0-7.0"}}, {"uniqueid": "MTK0468:3DY4FPOOA2V89Z6R68681KBI3LLVR8", "current_trial": 250, "dateTime": 1510938536104, "trialdata": {"rt": -1, "stimulus": "<p id=\"stim\">2</p>", "key_press": -1, "trial_type": "single-stim", "trial_index": 250, "time_elapsed": 1536181, "internal_node_id": "0.0-179.0-8.0"}}, {"uniqueid": "MTK0468:3DY4FPOOA2V89Z6R68681KBI3LLVR8", "current_trial": 251, "dateTime": 1510938537109, "trialdata": {"rt": -1, "stimulus": "<p id=\"stim\">1</p>", "key_press": -1, "trial_type": "single-stim", "trial_index": 251, "time_elapsed": 1537188, "internal_node_id": "0.0-179.0-9.0"}}, {"uniqueid": "MTK0468:3DY4FPOOA2V89Z6R68681KBI3LLVR8", "current_trial": 252, "dateTime": 1510938538615, "trialdata": {"rt": -1, "stimulus": "<p id=\"stim\">+</p>", "key_press": -1, "type": "FIXATION", "trial_type": "single-stim", "trial_index": 252, "time_elapsed": 1538693, "internal_node_id": "0.0-180.0-0.0"}}, {"uniqueid": "MTK0468:3DY4FPOOA2V89Z6R68681KBI3LLVR8", "current_trial": 253, "dateTime": 1510938541140, "trialdata": {"rt": -1000, "stimulus": "/static/audio/wordpool/BLOUSE.wav", "key_press": -1, "type": "PRES_AUD", "word": "blouse", "wordID": 138, "conditions": [12, 1600, "a", 24000], "trial": 7, "serialpos": 0, "trial_type": "single-audio", "trial_index": 253, "time_elapsed": 1541218, "internal_node_id": "0.0-181.0"}}, {"uniqueid": "MTK0468:3DY4FPOOA2V89Z6R68681KBI3LLVR8", "current_trial": 254, "dateTime": 1510938543549, "trialdata": {"rt": -1000, "stimulus": "/static/audio/wordpool/NIGHTGOWN.wav", "key_press": -1, "type": "PRES_AUD", "word": "nightgown", "wordID": 952, "conditions": [12, 1600, "a", 24000], "trial": 7, "serialpos": 1, "trial_type": "single-audio", "trial_index": 254, "time_elapsed": 1543628, "internal_node_id": "0.0-182.0"}}, {"uniqueid": "MTK0468:3DY4FPOOA2V89Z6R68681KBI3LLVR8", "current_trial": 255, "dateTime": 1510938546188, "trialdata": {"rt": -1000, "stimulus": "/static/audio/wordpool/CABBAGE.wav", "key_press": -1, "type": "PRES_AUD", "word": "cabbage", "wordID": 209, "conditions": [12, 1600, "a", 24000], "trial": 7, "serialpos": 2, "trial_type": "single-audio", "trial_index": 255, "time_elapsed": 1546266, "internal_node_id": "0.0-183.0"}}, {"uniqueid": "MTK0468:3DY4FPOOA2V89Z6R68681KBI3LLVR8", "current_trial": 256, "dateTime": 1510938548592, "trialdata": {"rt": -1000, "stimulus": "/static/audio/wordpool/PLASTER.wav", "key_press": -1, "type": "PRES_AUD", "word": "plaster", "wordID": 1084, "conditions": [12, 1600, "a", 24000], "trial": 7, "serialpos": 3, "trial_type": "single-audio", "trial_index": 256, "time_elapsed": 1548671, "internal_node_id": "0.0-184.0"}}, {"uniqueid": "MTK0468:3DY4FPOOA2V89Z6R68681KBI3LLVR8", "current_trial": 257, "dateTime": 1510938551166, "trialdata": {"rt": -1000, "stimulus": "/static/audio/wordpool/FLUTE.wav", "key_press": -1, "type": "PRES_AUD", "word": "flute", "wordID": 584, "conditions": [12, 1600, "a", 24000], "trial": 7, "serialpos": 4, "trial_type": "single-audio", "trial_index": 257, "time_elapsed": 1551245, "internal_node_id": "0.0-185.0"}}, {"uniqueid": "MTK0468:3DY4FPOOA2V89Z6R68681KBI3LLVR8", "current_trial": 258, "dateTime": 1510938553691, "trialdata": {"rt": -1000, "stimulus": "/static/audio/wordpool/PEBBLE.wav", "key_press": -1, "type": "PRES_AUD", "word": "pebble", "wordID": 1034, "conditions": [12, 1600, "a", 24000], "trial": 7, "serialpos": 5, "trial_type": "single-audio", "trial_index": 258, "time_elapsed": 1553769, "internal_node_id": "0.0-186.0"}}, {"uniqueid": "MTK0468:3DY4FPOOA2V89Z6R68681KBI3LLVR8", "current_trial": 259, "dateTime": 1510938556223, "trialdata": {"rt": -1000, "stimulus": "/static/audio/wordpool/XEROX.wav", "key_press": -1, "type": "PRES_AUD", "word": "xerox", "wordID": 1627, "conditions": [12, 1600, "a", 24000], "trial": 7, "serialpos": 6, "trial_type": "single-audio", "trial_index": 259, "time_elapsed": 1556301, "internal_node_id": "0.0-187.0"}}, {"uniqueid": "MTK0468:3DY4FPOOA2V89Z6R68681KBI3LLVR8", "current_trial": 260, "dateTime": 1510938558843, "trialdata": {"rt": -1000, "stimulus": "/static/audio/wordpool/TURNIP.wav", "key_press": -1, "type": "PRES_AUD", "word": "turnip", "wordID": 1520, "conditions": [12, 1600, "a", 24000], "trial": 7, "serialpos": 7, "trial_type": "single-audio", "trial_index": 260, "time_elapsed": 1558922, "internal_node_id": "0.0-188.0"}}, {"uniqueid": "MTK0468:3DY4FPOOA2V89Z6R68681KBI3LLVR8", "current_trial": 261, "dateTime": 1510938561461, "trialdata": {"rt": -1000, "stimulus": "/static/audio/wordpool/SLIDE.wav", "key_press": -1, "type": "PRES_AUD", "word": "slide", "wordID": 1325, "conditions": [12, 1600, "a", 24000], "trial": 7, "serialpos": 8, "trial_type": "single-audio", "trial_index": 261, "time_elapsed": 1561533, "internal_node_id": "0.0-189.0"}}, {"uniqueid": "MTK0468:3DY4FPOOA2V89Z6R68681KBI3LLVR8", "current_trial": 262, "dateTime": 1510938564087, "trialdata": {"rt": -1000, "stimulus": "/static/audio/wordpool/SODA.wav", "key_press": -1, "type": "PRES_AUD", "word": "soda", "wordID": 1340, "conditions": [12, 1600, "a", 24000], "trial": 7, "serialpos": 9, "trial_type": "single-audio", "trial_index": 262, "time_elapsed": 1564166, "internal_node_id": "0.0-190.0"}}, {"uniqueid": "MTK0468:3DY4FPOOA2V89Z6R68681KBI3LLVR8", "current_trial": 263, "dateTime": 1510938566847, "trialdata": {"rt": -1000, "stimulus": "/static/audio/wordpool/CANDY.wav", "key_press": -1, "type": "PRES_AUD", "word": "candy", "wordID": 229, "conditions": [12, 1600, "a", 24000], "trial": 7, "serialpos": 10, "trial_type": "single-audio", "trial_index": 263, "time_elapsed": 1566925, "internal_node_id": "0.0-191.0"}}, {"uniqueid": "MTK0468:3DY4FPOOA2V89Z6R68681KBI3LLVR8", "current_trial": 264, "dateTime": 1510938569368, "trialdata": {"rt": -1000, "stimulus": "/static/audio/wordpool/PASTA.wav", "key_press": -1, "type": "PRES_AUD", "word": "pasta", "wordID": 1020, "conditions": [12, 1600, "a", 24000], "trial": 7, "serialpos": 11, "trial_type": "single-audio", "trial_index": 264, "time_elapsed": 1569446, "internal_node_id": "0.0-192.0"}}, {"uniqueid": "MTK0468:3DY4FPOOA2V89Z6R68681KBI3LLVR8", "current_trial": 265, "dateTime": 1510938570593, "trialdata": {"rt": -1, "stimulus": "", "key_press": -1, "type": "PRE_RECALL_DELAY", "trial_type": "single-stim", "trial_index": 265, "time_elapsed": 1570671, "internal_node_id": "0.0-193.0-0.0"}}, {"uniqueid": "MTK0468:3DY4FPOOA2V89Z6R68681KBI3LLVR8", "current_trial": 266, "dateTime": 1510938571097, "trialdata": {"rt": -1000, "stimulus": "/static/audio/400Hz.wav", "key_press": -1, "type": "PRE_RECALL_ALERT", "trial_type": "single-audio", "trial_index": 266, "time_elapsed": 1571176, "internal_node_id": "0.0-194.0"}}, {"uniqueid": "MTK0468:3DY4FPOOA2V89Z6R68681KBI3LLVR8", "current_trial": 267, "dateTime": 1510938631141, "trialdata": {"rt": [5375, 7377, 9921, 13678, 17171, 23093, 28287], "recwords": ["candy", "soda", "pasta", "pastor", "pebble", "cabbage", "nightgown"], "type": "FREE_RECALL", "conditions": [12, 1600, "a", 24000], "trial": 7, "trial_type": "free-recall", "trial_index": 267, "time_elapsed": 1631188, "internal_node_id": "0.0-195.0-0.0"}}, {"uniqueid": "MTK0468:3DY4FPOOA2V89Z6R68681KBI3LLVR8", "current_trial": 268, "dateTime": 1510938633877, "trialdata": {"rt": 730, "key_press": 74, "type": "INSTRUCTIONS", "trial_type": "text", "trial_index": 268, "time_elapsed": 1633956, "internal_node_id": "0.0-196.0"}}, {"uniqueid": "MTK0468:3DY4FPOOA2V89Z6R68681KBI3LLVR8", "current_trial": 269, "dateTime": 1510938659894, "trialdata": {"rt": [2885, 5073, 7882, 12574, 16832, 19921], "responses": ["15", "11", "15", "17", "17", "10"], "num1": [2, 2, 7, 3, 7, 3, 2], "num2": [6, 8, 5, 8, 4, 6, 3], "num3": [7, 1, 3, 6, 6, 1, 7], "type": "DISTRACTOR", "conditions": [24, 1600, "a", 24000], "trial": 8, "trial_type": "math-distractor", "trial_index": 269, "time_elapsed": 1659972, "internal_node_id": "0.0-197.0"}}, {"uniqueid": "MTK0468:3DY4FPOOA2V89Z6R68681KBI3LLVR8", "current_trial": 270, "dateTime": 1510938662901, "trialdata": {"rt": -1, "stimulus": "<p id=\"stim\">10</p>", "key_press": -1, "trial_type": "single-stim", "trial_index": 270, "time_elapsed": 1662976, "internal_node_id": "0.0-198.0-0.0"}}, {"uniqueid": "MTK0468:3DY4FPOOA2V89Z6R68681KBI3LLVR8", "current_trial": 271, "dateTime": 1510938663905, "trialdata": {"rt": -1, "stimulus": "<p id=\"stim\">9</p>", "key_press": -1, "trial_type": "single-stim", "trial_index": 271, "time_elapsed": 1663984, "internal_node_id": "0.0-198.0-1.0"}}, {"uniqueid": "MTK0468:3DY4FPOOA2V89Z6R68681KBI3LLVR8", "current_trial": 272, "dateTime": 1510938664911, "trialdata": {"rt": -1, "stimulus": "<p id=\"stim\">8</p>", "key_press": -1, "trial_type": "single-stim", "trial_index": 272, "time_elapsed": 1664989, "internal_node_id": "0.0-198.0-2.0"}}, {"uniqueid": "MTK0468:3DY4FPOOA2V89Z6R68681KBI3LLVR8", "current_trial": 273, "dateTime": 1510938665917, "trialdata": {"rt": -1, "stimulus": "<p id=\"stim\">7</p>", "key_press": -1, "trial_