{"condition": 0, "counterbalance": 1831, "assignmentId": "3BV8HQ2ZZX8VVS593PCEU269OHRA6X", "workerId": "MTK0979", "hitId": "3SD15I2WD21TON8U48S2IAWJ2ZG637", "currenttrial": 634, "bonus": 0, "data": [{"uniqueid": "MTK0979:3BV8HQ2ZZX8VVS593PCEU269OHRA6X", "current_trial": 0, "dateTime": 1512945920962, "trialdata": {"rt": 2267, "key_press": 32, "type": "INSTRUCTIONS", "trial_type": "text", "trial_index": 0, "time_elapsed": 2270, "internal_node_id": "0.0-0.0"}}, {"uniqueid": "MTK0979:3BV8HQ2ZZX8VVS593PCEU269OHRA6X", "current_trial": 1, "dateTime": 1512945934870, "trialdata": {"rt": 13906, "key_press": 32, "type": "INSTRUCTIONS", "trial_type": "text", "trial_index": 1, "time_elapsed": 16178, "internal_node_id": "0.0-1.0"}}, {"uniqueid": "MTK0979:3BV8HQ2ZZX8VVS593PCEU269OHRA6X", "current_trial": 2, "dateTime": 1512945944685, "trialdata": {"rt": [9762], "responses": ["ocean"], "type": "AUDIO_TEST", "trial_type": "audio-test", "trial_index": 2, "time_elapsed": 25994, "internal_node_id": "0.0-2.0"}}, {"uniqueid": "MTK0979:3BV8HQ2ZZX8VVS593PCEU269OHRA6X", "current_trial": 3, "dateTime": 1512945951701, "trialdata": {"rt": [7013], "responses": ["crystal"], "type": "AUDIO_TEST", "trial_type": "audio-test", "trial_index": 3, "time_elapsed": 33010, "internal_node_id": "0.0-3.0"}}, {"uniqueid": "MTK0979:3BV8HQ2ZZX8VVS593PCEU269OHRA6X", "current_trial": 4, "dateTime": 1512945957004, "trialdata": {"rt": [5301], "responses": ["spice"], "type": "AUDIO_TEST", "trial_type": "audio-test", "trial_index": 4, "time_elapsed": 38313, "internal_node_id": "0.0-4.0"}}, {"uniqueid": "MTK0979:3BV8HQ2ZZX8VVS593PCEU269OHRA6X", "current_trial": 5, "dateTime": 1512945976613, "trialdata": {"rt": 18856, "responses": "{\"Q0\":\"11:30\",\"Q1\":\"4:00\",\"Q2\":\"3\"}", "type": "SLEEP_SURVEY", "trial_type": "survey-text", "trial_index": 5, "time_elapsed": 57921, "internal_node_id": "0.0-5.0"}}, {"uniqueid": "MTK0979:3BV8HQ2ZZX8VVS593PCEU269OHRA6X", "current_trial": 6, "dateTime": 1512946167747, "trialdata": {"rt": 190132, "key_press": 18, "type": "INSTRUCTIONS", "trial_type": "text", "trial_index": 6, "time_elapsed": 249056, "internal_node_id": "0.0-6.0"}}, {"uniqueid": "MTK0979:3BV8HQ2ZZX8VVS593PCEU269OHRA6X", "current_trial": 7, "dateTime": 1512946181050, "trialdata": {"rt": 12801, "key_press": 32, "type": "INSTRUCTIONS", "trial_type": "text", "trial_index": 7, "time_elapsed": 262359, "internal_node_id": "0.0-7.0"}}, {"uniqueid": "MTK0979:3BV8HQ2ZZX8VVS593PCEU269OHRA6X", "current_trial": 8, "dateTime": 1512946191866, "trialdata": {"rt": 10314, "key_press": 32, "type": "INSTRUCTIONS", "trial_type": "text", "trial_index": 8, "time_elapsed": 273175, "internal_node_id": "0.0-8.0"}}, {"uniqueid": "MTK0979:3BV8HQ2ZZX8VVS593PCEU269OHRA6X", "current_trial": 9, "dateTime": 1512946210873, "trialdata": {"rt": [4234, 6673, 10946, 13434, 14977, 16569], "responses": ["11", "10", "25", "11", "12", "18"], "num1": [8, 7, 9, 7, 7, 9, 2], "num2": [2, 1, 8, 1, 3, 1, 6], "num3": [1, 2, 8, 3, 2, 8, 6], "type": "DISTRACTOR", "conditions": [18, 1200, "v", 18000], "trial": 0, "trial_type": "math-distractor", "trial_index": 9, "time_elapsed": 292181, "internal_node_id": "0.0-9.0"}}, {"uniqueid": "MTK0979:3BV8HQ2ZZX8VVS593PCEU269OHRA6X", "current_trial": 10, "dateTime": 1512946213875, "trialdata": {"rt": -1, "stimulus": "<p id=\"stim\">10</p>", "key_press": -1, "trial_type": "single-stim", "trial_index": 10, "time_elapsed": 295184, "internal_node_id": "0.0-10.0-0.0"}}, {"uniqueid": "MTK0979:3BV8HQ2ZZX8VVS593PCEU269OHRA6X", "current_trial": 11, "dateTime": 1512946214876, "trialdata": {"rt": -1, "stimulus": "<p id=\"stim\">9</p>", "key_press": -1, "trial_type": "single-stim", "trial_index": 11, "time_elapsed": 296185, "internal_node_id": "0.0-10.0-1.0"}}, {"uniqueid": "MTK0979:3BV8HQ2ZZX8VVS593PCEU269OHRA6X", "current_trial": 12, "dateTime": 1512946215877, "trialdata": {"rt": -1, "stimulus": "<p id=\"stim\">8</p>", "key_press": -1, "trial_type": "single-stim", "trial_index": 12, "time_elapsed": 297186, "internal_node_id": "0.0-10.0-2.0"}}, {"uniqueid": "MTK0979:3BV8HQ2ZZX8VVS593PCEU269OHRA6X", "current_trial": 13, "dateTime": 1512946216879, "trialdata": {"rt": -1, "stimulus": "<p id=\"stim\">7</p>", "key_press": -1, "trial_type": "single-stim", "trial_index": 13, "time_elapsed": 298188, "internal_node_id": "0.0-10.0-3.0"}}, {"uniqueid": "MTK0979:3BV8HQ2ZZX8VVS593PCEU269OHRA6X", "current_trial": 14, "dateTime": 1512946217881, "trialdata": {"rt": -1, "stimulus": "<p id=\"stim\">6</p>", "key_press": -1, "trial_type": "single-stim", "trial_index": 14, "time_elapsed": 299190, "internal_node_id": "0.0-10.0-4.0"}}, {"uniqueid": "MTK0979:3BV8HQ2ZZX8VVS593PCEU269OHRA6X", "current_trial": 15, "dateTime": 1512946218883, "trialdata": {"rt": -1, "stimulus": "<p id=\"stim\">5</p>", "key_press": -1, "trial_type": "single-stim", "trial_index": 15, "time_elapsed": 300191, "internal_node_id": "0.0-10.0-5.0"}}, {"uniqueid": "MTK0979:3BV8HQ2ZZX8VVS593PCEU269OHRA6X", "current_trial": 16, "dateTime": 1512946219884, "trialdata": {"rt": 580, "stimulus": "<p id=\"stim\">4</p>", "key_press": 175, "trial_type": "single-stim", "trial_index": 16, "time_elapsed": 301193, "internal_node_id": "0.0-10.0-6.0"}}, {"uniqueid": "MTK0979:3BV8HQ2ZZX8VVS593PCEU269OHRA6X", "current_trial": 17, "dateTime": 1512946220887, "trialdata": {"rt": 10, "stimulus": "<p id=\"stim\">3</p>", "key_press": 175, "trial_type": "single-stim", "trial_index": 17, "time_elapsed": 302196, "internal_node_id": "0.0-10.0-7.0"}}, {"uniqueid": "MTK0979:3BV8HQ2ZZX8VVS593PCEU269OHRA6X", "current_trial": 18, "dateTime": 1512946221888, "trialdata": {"rt": -1, "stimulus": "<p id=\"stim\">2</p>", "key_press": -1, "trial_type": "single-stim", "trial_index": 18, "time_elapsed": 303196, "internal_node_id": "0.0-10.0-8.0"}}, {"uniqueid": "MTK0979:3BV8HQ2ZZX8VVS593PCEU269OHRA6X", "current_trial": 19, "dateTime": 1512946222889, "trialdata": {"rt": -1, "stimulus": "<p id=\"stim\">1</p>", "key_press": -1, "trial_type": "single-stim", "trial_index": 19, "time_elapsed": 304198, "internal_node_id": "0.0-10.0-9.0"}}, {"uniqueid": "MTK0979:3BV8HQ2ZZX8VVS593PCEU269OHRA6X", "current_trial": 20, "dateTime": 1512946224390, "trialdata": {"rt": -1, "stimulus": "<p id=\"stim\">+</p>", "key_press": -1, "type": "FIXATION", "trial_type": "single-stim", "trial_index": 20, "time_elapsed": 305699, "internal_node_id": "0.0-11.0-0.0"}}, {"uniqueid": "MTK0979:3BV8HQ2ZZX8VVS593PCEU269OHRA6X", "current_trial": 21, "dateTime": 1512946225592, "trialdata": {"rt": -1, "stimulus": "<p id=\"stim\">TEACHER</p>", "key_press": -1, "type": "PRES_VIS", "word": "teacher", "wordID": 1439, "conditions": [18, 1200, "v", 18000], "trial": 0, "serialpos": 0, "trial_type": "single-stim", "trial_index": 21, "time_elapsed": 306901, "internal_node_id": "0.0-12.0"}}, {"uniqueid": "MTK0979:3BV8HQ2ZZX8VVS593PCEU269OHRA6X", "current_trial": 22, "dateTime": 1512946227652, "trialdata": {"rt": -1, "stimulus": "<p id=\"stim\">SAUSAGE</p>", "key_press": -1, "type": "PRES_VIS", "word": "sausage", "wordID": 1237, "conditions": [18, 1200, "v", 18000], "trial": 0, "serialpos": 1, "trial_type": "single-stim", "trial_index": 22, "time_elapsed": 308961, "internal_node_id": "0.0-13.0"}}, {"uniqueid": "MTK0979:3BV8HQ2ZZX8VVS593PCEU269OHRA6X", "current_trial": 23, "dateTime": 1512946230044, "trialdata": {"rt": -1, "stimulus": "<p id=\"stim\">WARDROBE</p>", "key_press": -1, "type": "PRES_VIS", "word": "wardrobe", "wordID": 1586, "conditions": [18, 1200, "v", 18000], "trial": 0, "serialpos": 2, "trial_type": "single-stim", "trial_index": 23, "time_elapsed": 311353, "internal_node_id": "0.0-14.0"}}, {"uniqueid": "MTK0979:3BV8HQ2ZZX8VVS593PCEU269OHRA6X", "current_trial": 24, "dateTime": 1512946232338, "trialdata": {"rt": -1, "stimulus": "<p id=\"stim\">HEART</p>", "key_press": -1, "type": "PRES_VIS", "word": "heart", "wordID": 696, "conditions": [18, 1200, "v", 18000], "trial": 0, "serialpos": 3, "trial_type": "single-stim", "trial_index": 24, "time_elapsed": 313647, "internal_node_id": "0.0-15.0"}}, {"uniqueid": "MTK0979:3BV8HQ2ZZX8VVS593PCEU269OHRA6X", "current_trial": 25, "dateTime": 1512946234606, "trialdata": {"rt": -1, "stimulus": "<p id=\"stim\">PADDING</p>", "key_press": -1, "type": "PRES_VIS", "word": "padding", "wordID": 998, "conditions": [18, 1200, "v", 18000], "trial": 0, "serialpos": 4, "trial_type": "single-stim", "trial_index": 25, "time_elapsed": 315915, "internal_node_id": "0.0-16.0"}}, {"uniqueid": "MTK0979:3BV8HQ2ZZX8VVS593PCEU269OHRA6X", "current_trial": 26, "dateTime": 1512946236876, "trialdata": {"rt": -1, "stimulus": "<p id=\"stim\">SNACK</p>", "key_press": -1, "type": "PRES_VIS", "word": "snack", "wordID": 1330, "conditions": [18, 1200, "v", 18000], "trial": 0, "serialpos": 5, "trial_type": "single-stim", "trial_index": 26, "time_elapsed": 318185, "internal_node_id": "0.0-17.0"}}, {"uniqueid": "MTK0979:3BV8HQ2ZZX8VVS593PCEU269OHRA6X", "current_trial": 27, "dateTime": 1512946239072, "trialdata": {"rt": -1, "stimulus": "<p id=\"stim\">UMPIRE</p>", "key_press": -1, "type": "PRES_VIS", "word": "umpire", "wordID": 1534, "conditions": [18, 1200, "v", 18000], "trial": 0, "serialpos": 6, "trial_type": "single-stim", "trial_index": 27, "time_elapsed": 320381, "internal_node_id": "0.0-18.0"}}, {"uniqueid": "MTK0979:3BV8HQ2ZZX8VVS593PCEU269OHRA6X", "current_trial": 28, "dateTime": 1512946241380, "trialdata": {"rt": -1, "stimulus": "<p id=\"stim\">PUDDLE</p>", "key_press": -1, "type": "PRES_VIS", "word": "puddle", "wordID": 1139, "conditions": [18, 1200, "v", 18000], "trial": 0, "serialpos": 7, "trial_type": "single-stim", "trial_index": 28, "time_elapsed": 322689, "internal_node_id": "0.0-19.0"}}, {"uniqueid": "MTK0979:3BV8HQ2ZZX8VVS593PCEU269OHRA6X", "current_trial": 29, "dateTime": 1512946243723, "trialdata": {"rt": -1, "stimulus": "<p id=\"stim\">CATTLE</p>", "key_press": -1, "type": "PRES_VIS", "word": "cattle", "wordID": 260, "conditions": [18, 1200, "v", 18000], "trial": 0, "serialpos": 8, "trial_type": "single-stim", "trial_index": 29, "time_elapsed": 325032, "internal_node_id": "0.0-20.0"}}, {"uniqueid": "MTK0979:3BV8HQ2ZZX8VVS593PCEU269OHRA6X", "current_trial": 30, "dateTime": 1512946245904, "trialdata": {"rt": -1, "stimulus": "<p id=\"stim\">BARREL</p>", "key_press": -1, "type": "PRES_VIS", "word": "barrel", "wordID": 90, "conditions": [18, 1200, "v", 18000], "trial": 0, "serialpos": 9, "trial_type": "single-stim", "trial_index": 30, "time_elapsed": 327212, "internal_node_id": "0.0-21.0"}}, {"uniqueid": "MTK0979:3BV8HQ2ZZX8VVS593PCEU269OHRA6X", "current_trial": 31, "dateTime": 1512946247916, "trialdata": {"rt": -1, "stimulus": "<p id=\"stim\">SCISSORS</p>", "key_press": -1, "type": "PRES_VIS", "word": "scissors", "wordID": 1249, "conditions": [18, 1200, "v", 18000], "trial": 0, "serialpos": 10, "trial_type": "single-stim", "trial_index": 31, "time_elapsed": 329225, "internal_node_id": "0.0-22.0"}}, {"uniqueid": "MTK0979:3BV8HQ2ZZX8VVS593PCEU269OHRA6X", "current_trial": 32, "dateTime": 1512946250189, "trialdata": {"rt": -1, "stimulus": "<p id=\"stim\">TUTU</p>", "key_press": -1, "type": "PRES_VIS", "word": "tutu", "wordID": 1523, "conditions": [18, 1200, "v", 18000], "trial": 0, "serialpos": 11, "trial_type": "single-stim", "trial_index": 32, "time_elapsed": 331498, "internal_node_id": "0.0-23.0"}}, {"uniqueid": "MTK0979:3BV8HQ2ZZX8VVS593PCEU269OHRA6X", "current_trial": 33, "dateTime": 1512946252345, "trialdata": {"rt": -1, "stimulus": "<p id=\"stim\">PLUTO</p>", "key_press": -1, "type": "PRES_VIS", "word": "pluto", "wordID": 1091, "conditions": [18, 1200, "v", 18000], "trial": 0, "serialpos": 12, "trial_type": "single-stim", "trial_index": 33, "time_elapsed": 333654, "internal_node_id": "0.0-24.0"}}, {"uniqueid": "MTK0979:3BV8HQ2ZZX8VVS593PCEU269OHRA6X", "current_trial": 34, "dateTime": 1512946254362, "trialdata": {"rt": -1, "stimulus": "<p id=\"stim\">MACHINE</p>", "key_press": -1, "type": "PRES_VIS", "word": "machine", "wordID": 851, "conditions": [18, 1200, "v", 18000], "trial": 0, "serialpos": 13, "trial_type": "single-stim", "trial_index": 34, "time_elapsed": 335671, "internal_node_id": "0.0-25.0"}}, {"uniqueid": "MTK0979:3BV8HQ2ZZX8VVS593PCEU269OHRA6X", "current_trial": 35, "dateTime": 1512946256516, "trialdata": {"rt": -1, "stimulus": "<p id=\"stim\">CITRUS</p>", "key_press": -1, "type": "PRES_VIS", "word": "citrus", "wordID": 312, "conditions": [18, 1200, "v", 18000], "trial": 0, "serialpos": 14, "trial_type": "single-stim", "trial_index": 35, "time_elapsed": 337824, "internal_node_id": "0.0-26.0"}}, {"uniqueid": "MTK0979:3BV8HQ2ZZX8VVS593PCEU269OHRA6X", "current_trial": 36, "dateTime": 1512946258809, "trialdata": {"rt": -1, "stimulus": "<p id=\"stim\">CLOCK</p>", "key_press": -1, "type": "PRES_VIS", "word": "clock", "wordID": 324, "conditions": [18, 1200, "v", 18000], "trial": 0, "serialpos": 15, "trial_type": "single-stim", "trial_index": 36, "time_elapsed": 340118, "internal_node_id": "0.0-27.0"}}, {"uniqueid": "MTK0979:3BV8HQ2ZZX8VVS593PCEU269OHRA6X", "current_trial": 37, "dateTime": 1512946261140, "trialdata": {"rt": -1, "stimulus": "<p id=\"stim\">RADISH</p>", "key_press": -1, "type": "PRES_VIS", "word": "radish", "wordID": 1157, "conditions": [18, 1200, "v", 18000], "trial": 0, "serialpos": 16, "trial_type": "single-stim", "trial_index": 37, "time_elapsed": 342449, "internal_node_id": "0.0-28.0"}}, {"uniqueid": "MTK0979:3BV8HQ2ZZX8VVS593PCEU269OHRA6X", "current_trial": 38, "dateTime": 1512946263449, "trialdata": {"rt": -1, "stimulus": "<p id=\"stim\">SILK</p>", "key_press": -1, "type": "PRES_VIS", "word": "silk", "wordID": 1306, "conditions": [18, 1200, "v", 18000], "trial": 0, "serialpos": 17, "trial_type": "single-stim", "trial_index": 38, "time_elapsed": 344758, "internal_node_id": "0.0-29.0"}}, {"uniqueid": "MTK0979:3BV8HQ2ZZX8VVS593PCEU269OHRA6X", "current_trial": 39, "dateTime": 1512946265688, "trialdata": {"rt": -1, "stimulus": "", "key_press": -1, "type": "PRE_RECALL_DELAY", "trial_type": "single-stim", "trial_index": 39, "time_elapsed": 346997, "internal_node_id": "0.0-30.0-0.0"}}, {"uniqueid": "MTK0979:3BV8HQ2ZZX8VVS593PCEU269OHRA6X", "current_trial": 40, "dateTime": 1512946266190, "trialdata": {"rt": -1000, "stimulus": "/static/audio/400Hz.wav", "key_press": -1, "type": "PRE_RECALL_ALERT", "trial_type": "single-audio", "trial_index": 40, "time_elapsed": 347499, "internal_node_id": "0.0-31.0"}}, {"uniqueid": "MTK0979:3BV8HQ2ZZX8VVS593PCEU269OHRA6X", "current_trial": 41, "dateTime": 1512946326196, "trialdata": {"rt": [3088, 5640, 8776, 12448, 19904, 25136, 28623, 35359], "recwords": ["tutu", "pluto", "teacher", "suasage", "scissors", "cattle", "heart", "machine"], "type": "FREE_RECALL", "conditions": [18, 1200, "v", 18000], "trial": 0, "trial_type": "free-recall", "trial_index": 41, "time_elapsed": 407502, "internal_node_id": "0.0-32.0-0.0"}}, {"uniqueid": "MTK0979:3BV8HQ2ZZX8VVS593PCEU269OHRA6X", "current_trial": 42, "dateTime": 1512946330336, "trialdata": {"rt": 2139, "key_press": 32, "type": "INSTRUCTIONS", "trial_type": "text", "trial_index": 42, "time_elapsed": 411645, "internal_node_id": "0.0-33.0"}}, {"uniqueid": "MTK0979:3BV8HQ2ZZX8VVS593PCEU269OHRA6X", "current_trial": 43, "dateTime": 1512946350339, "trialdata": {"rt": [2941, 6365, 7909, 9669, 11677, 13005, 15188, 16957], "responses": ["11", "12", "6", "12", "13", "11", "15", "18"], "num1": [2, 5, 4, 3, 2, 9, 4, 3, 3], "num2": [6, 4, 1, 6, 9, 1, 3, 6, 5], "num3": [3, 3, 1, 3, 2, 1, 8, 9, 4], "type": "DISTRACTOR", "conditions": [18, 1200, "a", 18000], "trial": 1, "trial_type": "math-distractor", "trial_index": 43, "time_elapsed": 431648, "internal_node_id": "0.0-34.0"}}, {"uniqueid": "MTK0979:3BV8HQ2ZZX8VVS593PCEU269OHRA6X", "current_trial": 44, "dateTime": 1512946353341, "trialdata": {"rt": -1, "stimulus": "<p id=\"stim\">10</p>", "key_press": -1, "trial_type": "single-stim", "trial_index": 44, "time_elapsed": 434650, "internal_node_id": "0.0-35.0-0.0"}}, {"uniqueid": "MTK0979:3BV8HQ2ZZX8VVS593PCEU269OHRA6X", "current_trial": 45, "dateTime": 1512946354342, "trialdata": {"rt": -1, "stimulus": "<p id=\"stim\">9</p>", "key_press": -1, "trial_type": "single-stim", "trial_index": 45, "time_elapsed": 435651, "internal_node_id": "0.0-35.0-1.0"}}, {"uniqueid": "MTK0979:3BV8HQ2ZZX8VVS593PCEU269OHRA6X", "current_trial": 46, "dateTime": 1512946355344, "trialdata": {"rt": -1, "stimulus": "<p id=\"stim\">8</p>", "key_press": -1, "trial_type": "single-stim", "trial_index": 46, "time_elapsed": 436653, "internal_node_id": "0.0-35.0-2.0"}}, {"uniqueid": "MTK0979:3BV8HQ2ZZX8VVS593PCEU269OHRA6X", "current_trial": 47, "dateTime": 1512946356345, "trialdata": {"rt": -1, "stimulus": "<p id=\"stim\">7</p>", "key_press": -1, "trial_type": "single-stim", "trial_index": 47, "time_elapsed": 437654, "internal_node_id": "0.0-35.0-3.0"}}, {"uniqueid": "MTK0979:3BV8HQ2ZZX8VVS593PCEU269OHRA6X", "current_trial": 48, "dateTime": 1512946357348, "trialdata": {"rt": -1, "stimulus": "<p id=\"stim\">6</p>", "key_press": -1, "trial_type": "single-stim", "trial_index": 48, "time_elapsed": 438657, "internal_node_id": "0.0-35.0-4.0"}}, {"uniqueid": "MTK0979:3BV8HQ2ZZX8VVS593PCEU269OHRA6X", "current_trial": 49, "dateTime": 1512946358349, "trialdata": {"rt": -1, "stimulus": "<p id=\"stim\">5</p>", "key_press": -1, "trial_type": "single-stim", "trial_index": 49, "time_elapsed": 439658, "internal_node_id": "0.0-35.0-5.0"}}, {"uniqueid": "MTK0979:3BV8HQ2ZZX8VVS593PCEU269OHRA6X", "current_trial": 50, "dateTime": 1512946359351, "trialdata": {"rt": -1, "stimulus": "<p id=\"stim\">4</p>", "key_press": -1, "trial_type": "single-stim", "trial_index": 50, "time_elapsed": 440660, "internal_node_id": "0.0-35.0-6.0"}}, {"uniqueid": "MTK0979:3BV8HQ2ZZX8VVS593PCEU269OHRA6X", "current_trial": 51, "dateTime": 1512946360352, "trialdata": {"rt": -1, "stimulus": "<p id=\"stim\">3</p>", "key_press": -1, "trial_type": "single-stim", "trial_index": 51, "time_elapsed": 441661, "internal_node_id": "0.0-35.0-7.0"}}, {"uniqueid": "MTK0979:3BV8HQ2ZZX8VVS593PCEU269OHRA6X", "current_trial": 52, "dateTime": 1512946361354, "trialdata": {"rt": -1, "stimulus": "<p id=\"stim\">2</p>", "key_press": -1, "trial_type": "single-stim", "trial_index": 52, "time_elapsed": 442663, "internal_node_id": "0.0-35.0-8.0"}}, {"uniqueid": "MTK0979:3BV8HQ2ZZX8VVS593PCEU269OHRA6X", "current_trial": 53, "dateTime": 1512946362355, "trialdata": {"rt": -1, "stimulus": "<p id=\"stim\">1</p>", "key_press": -1, "trial_type": "single-stim", "trial_index": 53, "time_elapsed": 443664, "internal_node_id": "0.0-35.0-9.0"}}, {"uniqueid": "MTK0979:3BV8HQ2ZZX8VVS593PCEU269OHRA6X", "current_trial": 54, "dateTime": 1512946363856, "trialdata": {"rt": -1, "stimulus": "<p id=\"stim\">+</p>", "key_press": -1, "type": "FIXATION", "trial_type": "single-stim", "trial_index": 54, "time_elapsed": 445165, "internal_node_id": "0.0-36.0-0.0"}}, {"uniqueid": "MTK0979:3BV8HQ2ZZX8VVS593PCEU269OHRA6X", "current_trial": 55, "dateTime": 1512946365865, "trialdata": {"rt": -1000, "stimulus": "/static/audio/wordpool/DRESSER.wav", "key_press": -1, "type": "PRES_AUD", "word": "dresser", "wordID": 495, "conditions": [18, 1200, "a", 18000], "trial": 1, "serialpos": 0, "trial_type": "single-audio", "trial_index": 55, "time_elapsed": 447174, "internal_node_id": "0.0-37.0"}}, {"uniqueid": "MTK0979:3BV8HQ2ZZX8VVS593PCEU269OHRA6X", "current_trial": 56, "dateTime": 1512946368181, "trialdata": {"rt": -1000, "stimulus": "/static/audio/wordpool/STOMACH.wav", "key_press": -1, "type": "PRES_AUD", "word": "stomach", "wordID": 1383, "conditions": [18, 1200, "a", 18000], "trial": 1, "serialpos": 1, "trial_type": "single-audio", "trial_index": 56, "time_elapsed": 449490, "internal_node_id": "0.0-38.0"}}, {"uniqueid": "MTK0979:3BV8HQ2ZZX8VVS593PCEU269OHRA6X", "current_trial": 57, "dateTime": 1512946370205, "trialdata": {"rt": -1000, "stimulus": "/static/audio/wordpool/DIME.wav", "key_press": -1, "type": "PRES_AUD", "word": "dime", "wordID": 465, "conditions": [18, 1200, "a", 18000], "trial": 1, "serialpos": 2, "trial_type": "single-audio", "trial_index": 57, "time_elapsed": 451514, "internal_node_id": "0.0-39.0"}}, {"uniqueid": "MTK0979:3BV8HQ2ZZX8VVS593PCEU269OHRA6X", "current_trial": 58, "dateTime": 1512946372341, "trialdata": {"rt": -1000, "stimulus": "/static/audio/wordpool/COTTAGE.wav", "key_press": -1, "type": "PRES_AUD", "word": "cottage", "wordID": 383, "conditions": [18, 1200, "a", 18000], "trial": 1, "serialpos": 3, "trial_type": "single-audio", "trial_index": 58, "time_elapsed": 453650, "internal_node_id": "0.0-40.0"}}, {"uniqueid": "MTK0979:3BV8HQ2ZZX8VVS593PCEU269OHRA6X", "current_trial": 59, "dateTime": 1512946374635, "trialdata": {"rt": -1000, "stimulus": "/static/audio/wordpool/FRECKLE.wav", "key_press": -1, "type": "PRES_AUD", "word": "freckle", "wordID": 601, "conditions": [18, 1200, "a", 18000], "trial": 1, "serialpos": 4, "trial_type": "single-audio", "trial_index": 59, "time_elapsed": 455944, "internal_node_id": "0.0-41.0"}}, {"uniqueid": "MTK0979:3BV8HQ2ZZX8VVS593PCEU269OHRA6X", "current_trial": 60, "dateTime": 1512946376780, "trialdata": {"rt": -1000, "stimulus": "/static/audio/wordpool/CABBAGE.wav", "key_press": -1, "type": "PRES_AUD", "word": "cabbage", "wordID": 209, "conditions": [18, 1200, "a", 18000], "trial": 1, "serialpos": 5, "trial_type": "single-audio", "trial_index": 60, "time_elapsed": 458089, "internal_node_id": "0.0-42.0"}}, {"uniqueid": "MTK0979:3BV8HQ2ZZX8VVS593PCEU269OHRA6X", "current_trial": 61, "dateTime": 1512946379110, "trialdata": {"rt": -1000, "stimulus": "/static/audio/wordpool/FOREST.wav", "key_press": -1, "type": "PRES_AUD", "word": "forest", "wordID": 592, "conditions": [18, 1200, "a", 18000], "trial": 1, "serialpos": 6, "trial_type": "single-audio", "trial_index": 61, "time_elapsed": 460419, "internal_node_id": "0.0-43.0"}}, {"uniqueid": "MTK0979:3BV8HQ2ZZX8VVS593PCEU269OHRA6X", "current_trial": 62, "dateTime": 1512946381252, "trialdata": {"rt": -1000, "stimulus": "/static/audio/wordpool/EAGLE.wav", "key_press": -1, "type": "PRES_AUD", "word": "eagle", "wordID": 511, "conditions": [18, 1200, "a", 18000], "trial": 1, "serialpos": 7, "trial_type": "single-audio", "trial_index": 62, "time_elapsed": 462561, "internal_node_id": "0.0-44.0"}}, {"uniqueid": "MTK0979:3BV8HQ2ZZX8VVS593PCEU269OHRA6X", "current_trial": 63, "dateTime": 1512946383335, "trialdata": {"rt": -1000, "stimulus": "/static/audio/wordpool/SALT.wav", "key_press": -1, "type": "PRES_AUD", "word": "salt", "wordID": 1228, "conditions": [18, 1200, "a", 18000], "trial": 1, "serialpos": 8, "trial_type": "single-audio", "trial_index": 63, "time_elapsed": 464643, "internal_node_id": "0.0-45.0"}}, {"uniqueid": "MTK0979:3BV8HQ2ZZX8VVS593PCEU269OHRA6X", "current_trial": 64, "dateTime": 1512946385649, "trialdata": {"rt": -1000, "stimulus": "/static/audio/wordpool/SWAMP.wav", "key_press": -1, "type": "PRES_AUD", "word": "swamp", "wordID": 1415, "conditions": [18, 1200, "a", 18000], "trial": 1, "serialpos": 9, "trial_type": "single-audio", "trial_index": 64, "time_elapsed": 466958, "internal_node_id": "0.0-46.0"}}, {"uniqueid": "MTK0979:3BV8HQ2ZZX8VVS593PCEU269OHRA6X", "current_trial": 65, "dateTime": 1512946387805, "trialdata": {"rt": -1000, "stimulus": "/static/audio/wordpool/SALAD.wav", "key_press": -1, "type": "PRES_AUD", "word": "salad", "wordID": 1223, "conditions": [18, 1200, "a", 18000], "trial": 1, "serialpos": 10, "trial_type": "single-audio", "trial_index": 65, "time_elapsed": 469114, "internal_node_id": "0.0-47.0"}}, {"uniqueid": "MTK0979:3BV8HQ2ZZX8VVS593PCEU269OHRA6X", "current_trial": 66, "dateTime": 1512946389916, "trialdata": {"rt": -1000, "stimulus": "/static/audio/wordpool/MARKER.wav", "key_press": -1, "type": "PRES_AUD", "word": "marker", "wordID": 869, "conditions": [18, 1200, "a", 18000], "trial": 1, "serialpos": 11, "trial_type": "single-audio", "trial_index": 66, "time_elapsed": 471225, "internal_node_id": "0.0-48.0"}}, {"uniqueid": "MTK0979:3BV8HQ2ZZX8VVS593PCEU269OHRA6X", "current_trial": 67, "dateTime": 1512946392166, "trialdata": {"rt": -1000, "stimulus": "/static/audio/wordpool/FRUIT.wav", "key_press": -1, "type": "PRES_AUD", "word": "fruit", "wordID": 609, "conditions": [18, 1200, "a", 18000], "trial": 1, "serialpos": 12, "trial_type": "single-audio", "trial_index": 67, "time_elapsed": 473475, "internal_node_id": "0.0-49.0"}}, {"uniqueid": "MTK0979:3BV8HQ2ZZX8VVS593PCEU269OHRA6X", "current_trial": 68, "dateTime": 1512946394185, "trialdata": {"rt": -1000, "stimulus": "/static/audio/wordpool/CATCHER.wav", "key_press": -1, "type": "PRES_AUD", "word": "catcher", "wordID": 257, "conditions": [18, 1200, "a", 18000], "trial": 1, "serialpos": 13, "trial_type": "single-audio", "trial_index": 68, "time_elapsed": 475491, "internal_node_id": "0.0-50.0"}}, {"uniqueid": "MTK0979:3BV8HQ2ZZX8VVS593PCEU269OHRA6X", "current_trial": 69, "dateTime": 1512946396359, "trialdata": {"rt": -1000, "stimulus": "/static/audio/wordpool/QUAIL.wav", "key_press": -1, "type": "PRES_AUD", "word": "quail", "wordID": 1146, "conditions": [18, 1200, "a", 18000], "trial": 1, "serialpos": 14, "trial_type": "single-audio", "trial_index": 69, "time_elapsed": 477668, "internal_node_id": "0.0-51.0"}}, {"uniqueid": "MTK0979:3BV8HQ2ZZX8VVS593PCEU269OHRA6X", "current_trial": 70, "dateTime": 1512946398621, "trialdata": {"rt": -1000, "stimulus": "/static/audio/wordpool/VICTIM.wav", "key_press": -1, "type": "PRES_AUD", "word": "victim", "wordID": 1561, "conditions": [18, 1200, "a", 18000], "trial": 1, "serialpos": 15, "trial_type": "single-audio", "trial_index": 70, "time_elapsed": 479930, "internal_node_id": "0.0-52.0"}}, {"uniqueid": "MTK0979:3BV8HQ2ZZX8VVS593PCEU269OHRA6X", "current_trial": 71, "dateTime": 1512946400700, "trialdata": {"rt": -1000, "stimulus": "/static/audio/wordpool/HUMAN.wav", "key_press": -1, "type": "PRES_AUD", "word": "human", "wordID": 725, "conditions": [18, 1200, "a", 18000], "trial": 1, "serialpos": 16, "trial_type": "single-audio", "trial_index": 71, "time_elapsed": 482008, "internal_node_id": "0.0-53.0"}}, {"uniqueid": "MTK0979:3BV8HQ2ZZX8VVS593PCEU269OHRA6X", "current_trial": 72, "dateTime": 1512946402814, "trialdata": {"rt": -1000, "stimulus": "/static/audio/wordpool/COFFEE.wav", "key_press": -1, "type": "PRES_AUD", "word": "coffee", "wordID": 340, "conditions": [18, 1200, "a", 18000], "trial": 1, "serialpos": 17, "trial_type": "single-audio", "trial_index": 72, "time_elapsed": 484122, "internal_node_id": "0.0-54.0"}}, {"uniqueid": "MTK0979:3BV8HQ2ZZX8VVS593PCEU269OHRA6X", "current_trial": 73, "dateTime": 1512946404109, "trialdata": {"rt": -1, "stimulus": "", "key_press": -1, "type": "PRE_RECALL_DELAY", "trial_type": "single-stim", "trial_index": 73, "time_elapsed": 485418, "internal_node_id": "0.0-55.0-0.0"}}, {"uniqueid": "MTK0979:3BV8HQ2ZZX8VVS593PCEU269OHRA6X", "current_trial": 74, "dateTime": 1512946404610, "trialdata": {"rt": -1000, "stimulus": "/static/audio/400Hz.wav", "key_press": -1, "type": "PRE_RECALL_ALERT", "trial_type": "single-audio", "trial_index": 74, "time_elapsed": 485919, "internal_node_id": "0.0-56.0"}}, {"uniqueid": "MTK0979:3BV8HQ2ZZX8VVS593PCEU269OHRA6X", "current_trial": 75, "dateTime": 1512946464616, "trialdata": {"rt": [3194, 7042, 9602, 12858, 20298, 24234, 29241], "recwords": ["coffee", "victim", "cabbage", "forest", "swamp", "human", "salad"], "type": "FREE_RECALL", "conditions": [18, 1200, "a", 18000], "trial": 1, "trial_type": "free-recall", "trial_index": 75, "time_elapsed": 545922, "internal_node_id": "0.0-57.0-0.0"}}, {"uniqueid": "MTK0979:3BV8HQ2ZZX8VVS593PCEU269OHRA6X", "current_trial": 76, "dateTime": 1512946469874, "trialdata": {"rt": 3254, "key_press": 32, "type": "INSTRUCTIONS", "trial_type": "text", "trial_index": 76, "time_elapsed": 551179, "internal_node_id": "0.0-58.0"}}, {"uniqueid": "MTK0979:3BV8HQ2ZZX8VVS593PCEU269OHRA6X", "current_trial": 77, "dateTime": 1512946482877, "trialdata": {"rt": [2305, 3657, 5217, 6633, 8577, 10321], "responses": ["15", "15", "21", "14", "19", "18"], "num1": [2, 7, 7, 4, 8, 3, 5], "num2": [9, 3, 7, 6, 5, 7, 9], "num3": [4, 5, 7, 4, 6, 8, 1], "type": "DISTRACTOR", "conditions": [24, 1600, "a", 12000], "trial": 2, "trial_type": "math-distractor", "trial_index": 77, "time_elapsed": 564186, "internal_node_id": "0.0-59.0"}}, {"uniqueid": "MTK0979:3BV8HQ2ZZX8VVS593PCEU269OHRA6X", "current_trial": 78, "dateTime": 1512946485880, "trialdata": {"rt": -1, "stimulus": "<p id=\"stim\">10</p>", "key_press": -1, "trial_type": "single-stim", "trial_index": 78, "time_elapsed": 567189, "internal_node_id": "0.0-60.0-0.0"}}, {"uniqueid": "MTK0979:3BV8HQ2ZZX8VVS593PCEU269OHRA6X", "current_trial": 79, "dateTime": 1512946486882, "trialdata": {"rt": -1, "stimulus": "<p id=\"stim\">9</p>", "key_press": -1, "trial_type": "single-stim", "trial_index": 79, "time_elapsed": 568190, "internal_node_id": "0.0-60.0-1.0"}}, {"uniqueid": "MTK0979:3BV8HQ2ZZX8VVS593PCEU269OHRA6X", "current_trial": 80, "dateTime": 1512946487884, "trialdata": {"rt": -1, "stimulus": "<p id=\"stim\">8</p>", "key_press": -1, "trial_type": "single-stim", "trial_index": 80, "time_elapsed": 569192, "internal_node_id": "0.0-60.0-2.0"}}, {"uniqueid": "MTK0979:3BV8HQ2ZZX8VVS593PCEU269OHRA6X", "current_trial": 81, "dateTime": 1512946488886, "trialdata": {"rt": -1, "stimulus": "<p id=\"stim\">7</p>", "key_press": -1, "trial_type": "single-stim", "trial_index": 81, "time_elapsed": 570195, "internal_node_id": "0.0-60.0-3.0"}}, {"uniqueid": "MTK0979:3BV8HQ2ZZX8VVS593PCEU269OHRA6X", "current_trial": 82, "dateTime": 1512946489888, "trialdata": {"rt": -1, "stimulus": "<p id=\"stim\">6</p>", "key_press": -1, "trial_type": "single-stim", "trial_index": 82, "time_elapsed": 571197, "internal_node_id": "0.0-60.0-4.0"}}, {"uniqueid": "MTK0979:3BV8HQ2ZZX8VVS593PCEU269OHRA6X", "current_trial": 83, "dateTime": 1512946490889, "trialdata": {"rt": -1, "stimulus": "<p id=\"stim\">5</p>", "key_press": -1, "trial_type": "single-stim", "trial_index": 83, "time_elapsed": 572198, "internal_node_id": "0.0-60.0-5.0"}}, {"uniqueid": "MTK0979:3BV8HQ2ZZX8VVS593PCEU269OHRA6X", "current_trial": 84, "dateTime": 1512946491890, "trialdata": {"rt": -1, "stimulus": "<p id=\"stim\">4</p>", "key_press": -1, "trial_type": "single-stim", "trial_index": 84, "time_elapsed": 573199, "internal_node_id": "0.0-60.0-6.0"}}, {"uniqueid": "MTK0979:3BV8HQ2ZZX8VVS593PCEU269OHRA6X", "current_trial": 85, "dateTime": 1512946492891, "trialdata": {"rt": -1, "stimulus": "<p id=\"stim\">3</p>", "key_press": -1, "trial_type": "single-stim", "trial_index": 85, "time_elapsed": 574200, "internal_node_id": "0.0-60.0-7.0"}}, {"uniqueid": "MTK0979:3BV8HQ2ZZX8VVS593PCEU269OHRA6X", "current_trial": 86, "dateTime": 1512946493893, "trialdata": {"rt": -1, "stimulus": "<p id=\"stim\">2</p>", "key_press": -1, "trial_type": "single-stim", "trial_index": 86, "time_elapsed": 575202, "internal_node_id": "0.0-60.0-8.0"}}, {"uniqueid": "MTK0979:3BV8HQ2ZZX8VVS593PCEU269OHRA6X", "current_trial": 87, "dateTime": 1512946494894, "trialdata": {"rt": -1, "stimulus": "<p id=\"stim\">1</p>", "key_press": -1, "trial_type": "single-stim", "trial_index": 87, "time_elapsed": 576203, "internal_node_id": "0.0-60.0-9.0"}}, {"uniqueid": "MTK0979:3BV8HQ2ZZX8VVS593PCEU269OHRA6X", "current_trial": 88, "dateTime": 1512946496395, "trialdata": {"rt": -1, "stimulus": "<p id=\"stim\">+</p>", "key_press": -1, "type": "FIXATION", "trial_type": "single-stim", "trial_index": 88, "time_elapsed": 577704, "internal_node_id": "0.0-61.0-0.0"}}, {"uniqueid": "MTK0979:3BV8HQ2ZZX8VVS593PCEU269OHRA6X", "current_trial": 89, "dateTime": 1512946499011, "trialdata": {"rt": -1000, "stimulus": "/static/audio/wordpool/LAVA.wav", "key_press": -1, "type": "PRES_AUD", "word": "lava", "wordID": 803, "conditions": [24, 1600, "a", 12000], "trial": 2, "serialpos": 0, "trial_type": "single-audio", "trial_index": 89, "time_elapsed": 580320, "internal_node_id": "0.0-62.0"}}, {"uniqueid": "MTK0979:3BV8HQ2ZZX8VVS593PCEU269OHRA6X", "current_trial": 90, "dateTime": 1512946501481, "trialdata": {"rt": -1000, "stimulus": "/static/audio/wordpool/SHORTCAKE.wav", "key_press": -1, "type": "PRES_AUD", "word": "shortcake", "wordID": 1291, "conditions": [24, 1600, "a", 12000], "trial": 2, "serialpos": 1, "trial_type": "single-audio", "trial_index": 90, "time_elapsed": 582790, "internal_node_id": "0.0-63.0"}}, {"uniqueid": "MTK0979:3BV8HQ2ZZX8VVS593PCEU269OHRA6X", "current_trial": 91, "dateTime": 1512946503978, "trialdata": {"rt": -1000, "stimulus": "/static/audio/wordpool/MUFFIN.wav", "key_press": -1, "type": "PRES_AUD", "word": "muffin", "wordID": 928, "conditions": [24, 1600, "a", 12000], "trial": 2, "serialpos": 2, "trial_type": "single-audio", "trial_index": 91, "time_elapsed": 585287, "internal_node_id": "0.0-64.0"}}, {"uniqueid": "MTK0979:3BV8HQ2ZZX8VVS593PCEU269OHRA6X", "current_trial": 92, "dateTime": 1512946506765, "trialdata": {"rt": -1000, "stimulus": "/static/audio/wordpool/PEPPER.wav", "key_press": -1, "type": "PRES_AUD", "word": "pepper", "wordID": 1046, "conditions": [24, 1600, "a", 12000], "trial": 2, "serialpos": 3, "trial_type": "single-audio", "trial_index": 92, "time_elapsed": 588073, "internal_node_id": "0.0-65.0"}}, {"uniqueid": "MTK0979:3BV8HQ2ZZX8VVS593PCEU269OHRA6X", "current_trial": 93, "dateTime": 1512946509352, "trialdata": {"rt": -1000, "stimulus": "/static/audio/wordpool/FLOWER.wav", "key_press": -1, "type": "PRES_AUD", "word": "flower", "wordID": 583, "conditions": [24, 1600, "a", 12000], "trial": 2, "serialpos": 4, "trial_type": "single-audio", "trial_index": 93, "time_elapsed": 590661, "internal_node_id": "0.0-66.0"}}, {"uniqueid": "MTK0979:3BV8HQ2ZZX8VVS593PCEU269OHRA6X", "current_trial": 94, "dateTime": 1512946512098, "trialdata": {"rt": -1000, "stimulus": "/static/audio/wordpool/PARSLEY.wav", "key_press": -1, "type": "PRES_AUD", "word": "parsley", "wordID": 1015, "conditions": [24, 1600, "a", 12000], "trial": 2, "serialpos": 5, "trial_type": "single-audio", "trial_index": 94, "time_elapsed": 593407, "internal_node_id": "0.0-67.0"}}, {"uniqueid": "MTK0979:3BV8HQ2ZZX8VVS593PCEU269OHRA6X", "current_trial": 95, "dateTime": 1512946514696, "trialdata": {"rt": -1000, "stimulus": "/static/audio/wordpool/GARLIC.wav", "key_press": -1, "type": "PRES_AUD", "word": "garlic", "wordID": 623, "conditions": [24, 1600, "a", 12000], "trial": 2, "serialpos": 6, "trial_type": "single-audio", "trial_index": 95, "time_elapsed": 596005, "internal_node_id": "0.0-68.0"}}, {"uniqueid": "MTK0979:3BV8HQ2ZZX8VVS593PCEU269OHRA6X", "current_trial": 96, "dateTime": 1512946517151, "trialdata": {"rt": -1000, "stimulus": "/static/audio/wordpool/BANKER.wav", "key_press": -1, "type": "PRES_AUD", "word": "banker", "wordID": 83, "conditions": [24, 1600, "a", 12000], "trial": 2, "serialpos": 7, "trial_type": "single-audio", "trial_index": 96, "time_elapsed": 598460, "internal_node_id": "0.0-69.0"}}, {"uniqueid": "MTK0979:3BV8HQ2ZZX8VVS593PCEU269OHRA6X", "current_trial": 97, "dateTime": 1512946519734, "trialdata": {"rt": -1000, "stimulus": "/static/audio/wordpool/TURTLE.wav", "key_press": -1, "type": "PRES_AUD", "word": "turtle", "wordID": 1521, "conditions": [24, 1600, "a", 12000], "trial": 2, "serialpos": 8, "trial_type": "single-audio", "trial_index": 97, "time_elapsed": 601043, "internal_node_id": "0.0-70.0"}}, {"uniqueid": "MTK0979:3BV8HQ2ZZX8VVS593PCEU269OHRA6X", "current_trial": 98, "dateTime": 1512946522435, "trialdata": {"rt": -1000, "stimulus": "/static/audio/wordpool/CRUTCH.wav", "key_press": -1, "type": "PRES_AUD", "word": "crutch", "wordID": 416, "conditions": [24, 1600, "a", 12000], "trial": 2, "serialpos": 9, "trial_type": "single-audio", "trial_index": 98, "time_elapsed": 603743, "internal_node_id": "0.0-71.0"}}, {"uniqueid": "MTK0979:3BV8HQ2ZZX8VVS593PCEU269OHRA6X", "current_trial": 99, "dateTime": 1512946525132, "trialdata": {"rt": -1000, "stimulus": "/static/audio/wordpool/GARDEN.wav", "key_press": -1, "type": "PRES_AUD", "word": "garden", "wordID": 622, "conditions": [24, 1600, "a", 12000], "trial": 2, "serialpos": 10, "trial_type": "single-audio", "trial_index": 99, "time_elapsed": 606441, "internal_node_id": "0.0-72.0"}}, {"uniqueid": "MTK0979:3BV8HQ2ZZX8VVS593PCEU269OHRA6X", "current_trial": 100, "dateTime": 1512946527672, "trialdata": {"rt": -1000, "stimulus": "/static/audio/wordpool/VALLEY.wav", "key_press": -1, "type": "PRES_AUD", "word": "valley", "wordID": 1544, "conditions": [24, 1600, "a", 12000], "trial": 2, "serialpos": 11, "trial_type": "single-audio", "trial_index": 100, "time_elapsed": 608981, "internal_node_id": "0.0-73.0"}}, {"uniqueid": "MTK0979:3BV8HQ2ZZX8VVS593PCEU269OHRA6X", "current_trial": 101, "dateTime": 1512946530115, "trialdata": {"rt": -1000, "stimulus": "/static/audio/wordpool/ANKLE.wav", "key_press": -1, "type": "PRES_AUD", "word": "ankle", "wordID": 23, "conditions": [24, 1600, "a", 12000], "trial": 2, "serialpos": 12, "trial_type": "single-audio", "trial_index": 101, "time_elapsed": 611424, "internal_node_id": "0.0-74.0"}}, {"uniqueid": "MTK0979:3BV8HQ2ZZX8VVS593PCEU269OHRA6X", "current_trial": 102, "dateTime": 1512946532633, "trialdata": {"rt": -1000, "stimulus": "/static/audio/wordpool/OX.wav", "key_press": -1, "type": "PRES_AUD", "word": "ox", "wordID": 993, "conditions": [24, 1600, "a", 12000], "trial": 2, "serialpos": 13, "trial_type": "single-audio", "trial_index": 102, "time_elapsed": 613942, "internal_node_id": "0.0-75.0"}}, {"uniqueid": "MTK0979:3BV8HQ2ZZX8VVS593PCEU269OHRA6X", "current_trial": 103, "dateTime": 1512946535418, "trialdata": {"rt": -1000, "stimulus": "/static/audio/wordpool/MUSTARD.wav", "key_press": -1, "type": "PRES_AUD", "word": "mustard", "wordID": 934, "conditions": [24, 1600, "a", 12000], "trial": 2, "serialpos": 14, "trial_type": "single-audio", "trial_index": 103, "time_elapsed": 616727, "internal_node_id": "0.0-76.0"}}, {"uniqueid": "MTK0979:3BV8HQ2ZZX8VVS593PCEU269OHRA6X", "current_trial": 104, "dateTime": 1512946538211, "trialdata": {"rt": -1000, "stimulus": "/static/audio/wordpool/TERMITE.wav", "key_press": -1, "type": "PRES_AUD", "word": "termite", "wordID": 1450, "conditions": [24, 1600, "a", 12000], "trial": 2, "serialpos": 15, "trial_type": "single-audio", "trial_index": 104, "time_elapsed": 619520, "internal_node_id": "0.0-77.0"}}, {"uniqueid": "MTK0979:3BV8HQ2ZZX8VVS593PCEU269OHRA6X", "current_trial": 105, "dateTime": 1512946540931, "trialdata": {"rt": -1000, "stimulus": "/static/audio/wordpool/SEAFOOD.wav", "key_press": -1, "type": "PRES_AUD", "word": "seafood", "wordID": 1259, "conditions": [24, 1600, "a", 12000], "trial": 2, "serialpos": 16, "trial_type": "single-audio", "trial_index": 105, "time_elapsed": 622240, "internal_node_id": "0.0-78.0"}}, {"uniqueid": "MTK0979:3BV8HQ2ZZX8VVS593PCEU269OHRA6X", "current_trial": 106, "dateTime": 1512946543426, "trialdata": {"rt": -1000, "stimulus": "/static/audio/wordpool/HOUND.wav", "key_press": -1, "type": "PRES_AUD", "word": "hound", "wordID": 723, "conditions": [24, 1600, "a", 12000], "trial": 2, "serialpos": 17, "trial_type": "single-audio", "trial_index": 106, "time_elapsed": 624734, "internal_node_id": "0.0-79.0"}}, {"uniqueid": "MTK0979:3BV8HQ2ZZX8VVS593PCEU269OHRA6X", "current_trial": 107, "dateTime": 1512946546094, "trialdata": {"rt": -1000, "stimulus": "/static/audio/wordpool/BUREAU.wav", "key_press": -1, "type": "PRES_AUD", "word": "bureau", "wordID": 198, "conditions": [24, 1600, "a", 12000], "trial": 2, "serialpos": 18, "trial_type": "single-audio", "trial_index": 107, "time_elapsed": 627403, "internal_node_id": "0.0-80.0"}}, {"uniqueid": "MTK0979:3BV8HQ2ZZX8VVS593PCEU269OHRA6X", "current_trial": 108, "dateTime": 1512946548676, "trialdata": {"rt": -1000, "stimulus": "/static/audio/wordpool/SHOULDER.wav", "key_press": -1, "type": "PRES_AUD", "word": "shoulder", "wordID": 1293, "conditions": [24, 1600, "a", 12000], "trial": 2, "serialpos": 19, "trial_type": "single-audio", "trial_index": 108, "time_elapsed": 629985, "internal_node_id": "0.0-81.0"}}, {"uniqueid": "MTK0979:3BV8HQ2ZZX8VVS593PCEU269OHRA6X", "current_trial": 109, "dateTime": 1512946551145, "trialdata": {"rt": -1000, "stimulus": "/static/audio/wordpool/BLOUSE.wav", "key_press": -1, "type": "PRES_AUD", "word": "blouse", "wordID": 138, "conditions": [24, 1600, "a", 12000], "trial": 2, "serialpos": 20, "trial_type": "single-audio", "trial_index": 109, "time_elapsed": 632454, "internal_node_id": "0.0-82.0"}}, {"uniqueid": "MTK0979:3BV8HQ2ZZX8VVS593PCEU269OHRA6X", "current_trial": 110, "dateTime": 1512946553595, "trialdata": {"rt": -1000, "stimulus": "/static/audio/wordpool/SCARF.wav", "key_press": -1, "type": "PRES_AUD", "word": "scarf", "wordID": 1245, "conditions": [24, 1600, "a", 12000], "trial": 2, "serialpos": 21, "trial_type": "single-audio", "trial_index": 110, "time_elapsed": 634904, "internal_node_id": "0.0-83.0"}}, {"uniqueid": "MTK0979:3BV8HQ2ZZX8VVS593PCEU269OHRA6X", "current_trial": 111, "dateTime": 1512946556057, "trialdata": {"rt": -1000, "stimulus": "/static/audio/wordpool/MAILBOX.wav", "key_press": -1, "type": "PRES_AUD", "word": "mailbox", "wordID": 856, "conditions": [24, 1600, "a", 12000], "trial": 2, "serialpos": 22, "trial_type": "single-audio", "trial_index": 111, "time_elapsed": 637366, "internal_node_id": "0.0-84.0"}}, {"uniqueid": "MTK0979:3BV8HQ2ZZX8VVS593PCEU269OHRA6X", "current_trial": 112, "dateTime": 1512946558642, "trialdata": {"rt": -1000, "stimulus": "/static/audio/wordpool/TRIBE.wav", "key_press": -1, "type": "PRES_AUD", "word": "tribe", "wordID": 1504, "conditions": [24, 1600, "a", 12000], "trial": 2, "serialpos": 23, "trial_type": "single-audio", "trial_index": 112, "time_elapsed": 639951, "internal_node_id": "0.0-85.0"}}, {"uniqueid": "MTK0979:3BV8HQ2ZZX8VVS593PCEU269OHRA6X", "current_trial": 113, "dateTime": 1512946559959, "trialdata": {"rt": -1, "stimulus": "", "key_press": -1, "type": "PRE_RECALL_DELAY", "trial_type": "single-stim", "trial_index": 113, "time_elapsed": 641268, "internal_node_id": "0.0-86.0-0.0"}}, {"uniqueid": "MTK0979:3BV8HQ2ZZX8VVS593PCEU269OHRA6X", "current_trial": 114, "dateTime": 1512946560460, "trialdata": {"rt": -1000, "stimulus": "/static/audio/400Hz.wav", "key_press": -1, "type": "PRE_RECALL_ALERT", "trial_type": "single-audio", "trial_index": 114, "time_elapsed": 641769, "internal_node_id": "0.0-87.0"}}, {"uniqueid": "MTK0979:3BV8HQ2ZZX8VVS593PCEU269OHRA6X", "current_trial": 115, "dateTime": 1512946620465, "trialdata": {"rt": [3295, 6407, 15271, 32583, 50990], "recwords": ["trike", "mustard", "parsley", "mailbox", "garlic"], "type": "FREE_RECALL", "conditions": [24, 1600, "a", 12000], "trial": 2, "trial_type": "free-recall", "trial_index": 115, "time_elapsed": 701772, "internal_node_id": "0.0-88.0-0.0"}}, {"uniqueid": "MTK0979:3BV8HQ2ZZX8VVS593PCEU269OHRA6X", "current_trial": 116, "dateTime": 1512946623788, "trialdata": {"rt": 1323, "key_press": 32, "type": "INSTRUCTIONS", "trial_type": "text", "trial_index": 116, "time_elapsed": 705097, "internal_node_id": "0.0-89.0"}}, {"uniqueid": "MTK0979:3BV8HQ2ZZX8VVS593PCEU269OHRA6X", "current_trial": 117, "dateTime": 1512946637792, "trialdata": {"rt": [3109, 5445, 8517], "responses": ["10", "20", "15"], "num1": [3, 6, 4, 8], "num2": [1, 9, 4, 1], "num3": [6, 5, 7, 3], "type": "DISTRACTOR", "conditions": [12, 1600, "a", 12000], "trial": 3, "trial_type": "math-distractor", "trial_index": 117, "time_elapsed": 719101, "internal_node_id": "0.0-90.0"}}, {"uniqueid": "MTK0979:3BV8HQ2ZZX8VVS593PCEU269OHRA6X", "current_trial": 118, "dateTime": 1512946640794, "trialdata": {"rt": -1, "stimulus": "<p id=\"stim\">10</p>", "key_press": -1, "trial_type": "single-stim", "trial_index": 118, "time_elapsed": 722103, "internal_node_id": "0.0-91.0-0.0"}}, {"uniqueid": "MTK0979:3BV8HQ2ZZX8VVS593PCEU269OHRA6X", "current_trial": 119, "dateTime": 1512946641797, "trialdata": {"rt": -1, "stimulus": "<p id=\"stim\">9</p>", "key_press": -1, "trial_type": "single-stim", "trial_index": 119, "time_elapsed": 723105, "internal_node_id": "0.0-91.0-1.0"}}, {"uniqueid": "MTK0979:3BV8HQ2ZZX8VVS593PCEU269OHRA6X", "current_trial": 120, "dateTime": 1512946642798, "trialdata": {"rt": -1, "stimulus": "<p id=\"stim\">8</p>", "key_press": -1, "trial_type": "single-stim", "trial_index": 120, "time_elapsed": 724107, "internal_node_id": "0.0-91.0-2.0"}}, {"uniqueid": "MTK0979:3BV8HQ2ZZX8VVS593PCEU269OHRA6X", "current_trial": 121, "dateTime": 1512946643799, "trialdata": {"rt": -1, "stimulus": "<p id=\"stim\">7</p>", "key_press": -1, "trial_type": "single-stim", "trial_index": 121, "time_elapsed": 725108, "internal_node_id": "0.0-91.0-3.0"}}, {"uniqueid": "MTK0979:3BV8HQ2ZZX8VVS593PCEU269OHRA6X", "current_trial": 122, "dateTime": 1512946644801, "trialdata": {"rt": -1, "stimulus": "<p id=\"stim\">6</p>", "key_press": -1, "trial_type": "single-stim", "trial_index": 122, "time_elapsed": 726110, "internal_node_id": "0.0-91.0-4.0"}}, {"uniqueid": "MTK0979:3BV8HQ2ZZX8VVS593PCEU269OHRA6X", "current_trial": 123, "dateTime": 1512946645802, "trialdata": {"rt": -1, "stimulus": "<p id=\"stim\">5</p>", "key_press": -1, "trial_type": "single-stim", "trial_index": 123, "time_elapsed": 727111, "internal_node_id": "0.0-91.0-5.0"}}, {"uniqueid": "MTK0979:3BV8HQ2ZZX8VVS593PCEU269OHRA6X", "current_trial": 124, "dateTime": 1512946646803, "trialdata": {"rt": -1, "stimulus": "<p id=\"stim\">4</p>", "key_press": -1, "trial_type": "single-stim", "trial_index": 124, "time_elapsed": 728112, "internal_node_id": "0.0-91.0-6.0"}}, {"uniqueid": "MTK0979:3BV8HQ2ZZX8VVS593PCEU269OHRA6X", "current_trial": 125, "dateTime": 1512946647805, "trialdata": {"rt": -1, "stimulus": "<p id=\"stim\">3</p>", "key_press": -1, "trial_type": "single-stim", "trial_index": 125, "time_elapsed": 729113, "internal_node_id": "0.0-91.0-7.0"}}, {"uniqueid": "MTK0979:3BV8HQ2ZZX8VVS593PCEU269OHRA6X", "current_trial": 126, "dateTime": 1512946648806, "trialdata": {"rt": -1, "stimulus": "<p id=\"stim\">2</p>", "key_press": -1, "trial_type": "single-stim", "trial_index": 126, "time_elapsed": 730115, "internal_node_id": "0.0-91.0-8.0"}}, {"uniqueid": "MTK0979:3BV8HQ2ZZX8VVS593PCEU269OHRA6X", "current_trial": 127, "dateTime": 1512946649807, "trialdata": {"rt": -1, "stimulus": "<p id=\"stim\">1</p>", "key_press": -1, "trial_type": "single-stim", "trial_index": 127, "time_elapsed": 731116, "internal_node_id": "0.0-91.0-9.0"}}, {"uniqueid": "MTK0979:3BV8HQ2ZZX8VVS593PCEU269OHRA6X", "current_trial": 128, "dateTime": 1512946651308, "trialdata": {"rt": -1, "stimulus": "<p id=\"stim\">+</p>", "key_press": -1, "type": "FIXATION", "trial_type": "single-stim", "trial_index": 128, "time_elapsed": 732617, "internal_node_id": "0.0-92.0-0.0"}}, {"uniqueid": "MTK0979:3BV8HQ2ZZX8VVS593PCEU269OHRA6X", "current_trial": 129, "dateTime": 1512946653765, "trialdata": {"rt": -1000, "stimulus": "/static/audio/wordpool/SODA.wav", "key_press": -1, "type": "PRES_AUD", "word": "soda", "wordID": 1340, "conditions": [12, 1600, "a", 12000], "trial": 3, "serialpos": 0, "trial_type": "single-audio", "trial_index": 129, "time_elapsed": 735074, "internal_node_id": "0.0-93.0"}}, {"uniqueid": "MTK0979:3BV8HQ2ZZX8VVS593PCEU269OHRA6X", "current_trial": 130, "dateTime": 1512946656216, "trialdata": {"rt": -1000, "stimulus": "/static/audio/wordpool/MATCH.wav", "key_press": -1, "type": "PRES_AUD", "word": "match", "wordID": 877, "conditions": [12, 1600, "a", 12000], "trial": 3, "serialpos": 1, "trial_type": "single-audio", "trial_index": 130, "time_elapsed": 737525, "internal_node_id": "0.0-94.0"}}, {"uniqueid": "MTK0979:3BV8HQ2ZZX8VVS593PCEU269OHRA6X", "current_trial": 131, "dateTime": 1512946658637, "trialdata": {"rt": -1000, "stimulus": "/static/audio/wordpool/RIVER.wav", "key_press": -1, "type": "PRES_AUD", "word": "river", "wordID": 1193, "conditions": [12, 1600, "a", 12000], "trial": 3, "serialpos": 2, "trial_type": "single-audio", "trial_index": 131, "time_elapsed": 739946, "internal_node_id": "0.0-95.0"}}, {"uniqueid": "MTK0979:3BV8HQ2ZZX8VVS593PCEU269OHRA6X", "current_trial": 132, "dateTime": 1512946661119, "trialdata": {"rt": -1000, "stimulus": "/static/audio/wordpool/TRACTOR.wav", "key_press": -1, "type": "PRES_AUD", "word": "tractor", "wordID": 1492, "conditions": [12, 1600, "a", 12000], "trial": 3, "serialpos": 3, "trial_type": "single-audio", "trial_index": 132, "time_elapsed": 742428, "internal_node_id": "0.0-96.0"}}, {"uniqueid": "MTK0979:3BV8HQ2ZZX8VVS593PCEU269OHRA6X", "current_trial": 133, "dateTime": 1512946663611, "trialdata": {"rt": -1000, "stimulus": "/static/audio/wordpool/PUPPY.wav", "key_press": -1, "type": "PRES_AUD", "word": "puppy", "wordID": 1143, "conditions": [12, 1600, "a", 12000], "trial": 3, "serialpos": 4, "trial_type": "single-audio", "trial_index": 133, "time_elapsed": 744920, "internal_node_id": "0.0-97.0"}}, {"uniqueid": "MTK0979:3BV8HQ2ZZX8VVS593PCEU269OHRA6X", "current_trial": 134, "dateTime": 1512946666182, "trialdata": {"rt": -1000, "stimulus": "/static/audio/wordpool/RABBIT.wav", "key_press": -1, "type": "PRES_AUD", "word": "rabbit", "wordID": 1151, "conditions": [12, 1600, "a", 12000], "trial": 3, "serialpos": 5, "trial_type": "single-audio", "trial_index": 134, "time_elapsed": 747490, "internal_node_id": "0.0-98.0"}}, {"uniqueid": "MTK0979:3BV8HQ2ZZX8VVS593PCEU269OHRA6X", "current_trial": 135, "dateTime": 1512946668931, "trialdata": {"rt": -1000, "stimulus": "/static/audio/wordpool/COD.wav", "key_press": -1, "type": "PRES_AUD", "word": "cod", "wordID": 339, "conditions": [12, 1600, "a", 12000], "trial": 3, "serialpos": 6, "trial_type": "single-audio", "trial_index": 135, "time_elapsed": 750240, "internal_node_id": "0.0-99.0"}}, {"uniqueid": "MTK0979:3BV8HQ2ZZX8VVS593PCEU269OHRA6X", "current_trial": 136, "dateTime": 1512946671642, "trialdata": {"rt": -1000, "stimulus": "/static/audio/wordpool/REPORT.wav", "key_press": -1, "type": "PRES_AUD", "word": "report", "wordID": 1183, "conditions": [12, 1600, "a", 12000], "trial": 3, "serialpos": 7, "trial_type": "single-audio", "trial_index": 136, "time_elapsed": 752951, "internal_node_id": "0.0-100.0"}}, {"uniqueid": "MTK0979:3BV8HQ2ZZX8VVS593PCEU269OHRA6X", "current_trial": 137, "dateTime": 1512946674327, "trialdata": {"rt": -1000, "stimulus": "/static/audio/wordpool/PARTNER.wav", "key_press": -1, "type": "PRES_AUD", "word": "partner", "wordID": 1016, "conditions": [12, 1600, "a", 12000], "trial": 3, "serialpos": 8, "trial_type": "single-audio", "trial_index": 137, "time_elapsed": 755636, "internal_node_id": "0.0-101.0"}}, {"uniqueid": "MTK0979:3BV8HQ2ZZX8VVS593PCEU269OHRA6X", "current_trial": 138, "dateTime": 1512946677120, "trialdata": {"rt": -1000, "stimulus": "/static/audio/wordpool/HEADBAND.wav", "key_press": -1, "type": "PRES_AUD", "word": "headband", "wordID": 695, "conditions": [12, 1600, "a", 12000], "trial": 3, "serialpos": 9, "trial_type": "single-audio", "trial_index": 138, "time_elapsed": 758428, "internal_node_id": "0.0-102.0"}}, {"uniqueid": "MTK0979:3BV8HQ2ZZX8VVS593PCEU269OHRA6X", "current_trial": 139, "dateTime": 1512946679704, "trialdata": {"rt": -1000, "stimulus": "/static/audio/wordpool/ELBOW.wav", "key_press": -1, "type": "PRES_AUD", "word": "elbow", "wordID": 519, "conditions": [12, 1600, "a", 12000], "trial": 3, "serialpos": 10, "trial_type": "single-audio", "trial_index": 139, "time_elapsed": 761013, "internal_node_id": "0.0-103.0"}}, {"uniqueid": "MTK0979:3BV8HQ2ZZX8VVS593PCEU269OHRA6X", "current_trial": 140, "dateTime": 1512946682118, "trialdata": {"rt": -1000, "stimulus": "/static/audio/wordpool/SALMON.wav", "key_press": -1, "type": "PRES_AUD", "word": "salmon", "wordID": 1226, "conditions": [12, 1600, "a", 12000], "trial": 3, "serialpos": 11, "trial_type": "single-audio", "trial_index": 140, "time_elapsed": 763427, "internal_node_id": "0.0-104.0"}}, {"uniqueid": "MTK0979:3BV8HQ2ZZX8VVS593PCEU269OHRA6X", "current_trial": 141, "dateTime": 1512946683395, "trialdata": {"rt": -1, "stimulus": "", "key_press": -1, "type": "PRE_RECALL_DELAY", "trial_type": "single-stim", "trial_index": 141, "time_elapsed": 764704, "internal_node_id": "0.0-105.0-0.0"}}, {"uniqueid": "MTK0979:3BV8HQ2ZZX8VVS593PCEU269OHRA6X", "current_trial": 142, "dateTime": 1512946683896, "trialdata": {"rt": -1000, "stimulus": "/static/audio/400Hz.wav", "key_press": -1, "type": "PRE_RECALL_ALERT", "trial_type": "single-audio", "trial_index": 142, "time_elapsed": 765205, "internal_node_id": "0.0-106.0"}}, {"uniqueid": "MTK0979:3BV8HQ2ZZX8VVS593PCEU269OHRA6X", "current_trial": 143, "dateTime": 1512946743901, "trialdata": {"rt": [6329, 10113, 14530, 17409, 21089, 23809, 26617], "recwords": ["salmon", "elbow", "partner", "headband", "puppy", "rabbitt", "cod"], "type": "FREE_RECALL", "conditions": [12, 1600, "a", 12000], "trial": 3, "trial_type": "free-recall", "trial_index": 143, "time_elapsed": 825207, "internal_node_id": "0.0-107.0-0.0"}}, {"uniqueid": "MTK0979:3BV8HQ2ZZX8VVS593PCEU269OHRA6X", "current_trial": 144, "dateTime": 1512946748371, "trialdata": {"rt": 2469, "key_press": 32, "type": "INSTRUCTIONS", "trial_type": "text", "trial_index": 144, "time_elapsed": 829680, "internal_node_id": "0.0-108.0"}}, {"uniqueid": "MTK0979:3BV8HQ2ZZX8VVS593PCEU269OHRA6X", "current_trial": 145, "dateTime": 1512946762375, "trialdata": {"rt": [5892, 8228, 10092], "responses": ["24", "23", "12"], "num1": [7, 8, 3, 3], "num2": [7, 7, 8, 4], "num3": [9, 8, 1, 3], "type": "DISTRACTOR", "conditions": [24, 800, "a", 12000], "trial": 4, "trial_type": "math-distractor", "trial_index": 145, "time_elapsed": 843684, "internal_node_id": "0.0-109.0"}}, {"uniqueid": "MTK0979:3BV8HQ2ZZX8VVS593PCEU269OHRA6X", "current_trial": 146, "dateTime": 1512946765377, "trialdata": {"rt": -1, "stimulus": "<p id=\"stim\">10</p>", "key_press": -1, "trial_type": "single-stim", "trial_index": 146, "time_elapsed": 846686, "internal_node_id": "0.0-110.0-0.0"}}, {"uniqueid": "MTK0979:3BV8HQ2ZZX8VVS593PCEU269OHRA6X", "current_trial": 147, "dateTime": 1512946766378, "trialdata": {"rt": -1, "stimulus": "<p id=\"stim\">9</p>", "key_press": -1, "trial_type": "single-stim", "trial_index": 147, "time_elapsed": 847687, "internal_node_id": "0.0-110.0-1.0"}}, {"uniqueid": "MTK0979:3BV8HQ2ZZX8VVS593PCEU269OHRA6X", "current_trial": 148, "dateTime": 1512946767379, "trialdata": {"rt": -1, "stimulus": "<p id=\"stim\">8</p>", "key_press": -1, "trial_type": "single-stim", "trial_index": 148, "time_elapsed": 848688, "internal_node_id": "0.0-110.0-2.0"}}, {"uniqueid": "MTK0979:3BV8HQ2ZZX8VVS593PCEU269OHRA6X", "current_trial": 149, "dateTime": 1512946768380, "trialdata": {"rt": -1, "stimulus": "<p id=\"stim\">7</p>", "key_press": -1, "trial_type": "single-stim", "trial_index": 149, "time_elapsed": 849689, "internal_node_id": "0.0-110.0-3.0"}}, {"uniqueid": "MTK0979:3BV8HQ2ZZX8VVS593PCEU269OHRA6X", "current_trial": 150, "dateTime": 1512946769381, "trialdata": {"rt": -1, "stimulus": "<p id=\"stim\">6</p>", "key_press": -1, "trial_type": "single-stim", "trial_index": 150, "time_elapsed": 850690, "internal_node_id": "0.0-110.0-4.0"}}, {"uniqueid": "MTK0979:3BV8HQ2ZZX8VVS593PCEU269OHRA6X", "current_trial": 151, "dateTime": 1512946770383, "trialdata": {"rt": -1, "stimulus": "<p id=\"stim\">5</p>", "key_press": -1, "trial_type": "single-stim", "trial_index": 151, "time_elapsed": 851692, "internal_node_id": "0.0-110.0-5.0"}}, {"uniqueid": "MTK0979:3BV8HQ2ZZX8VVS593PCEU269OHRA6X", "current_trial": 152, "dateTime": 1512946771384, "trialdata": {"rt": -1, "stimulus": "<p id=\"stim\">4</p>", "key_press": -1, "trial_type": "single-stim", "trial_index": 152, "time_elapsed": 852693, "internal_node_id": "0.0-110.0-6.0"}}, {"uniqueid": "MTK0979:3BV8HQ2ZZX8VVS593PCEU269OHRA6X", "current_trial": 153, "dateTime": 1512946772385, "trialdata": {"rt": -1, "stimulus": "<p id=\"stim\">3</p>", "key_press": -1, "trial_type": "single-stim", "trial_index": 153, "time_elapsed": 853694, "internal_node_id": "0.0-110.0-7.0"}}, {"uniqueid": "MTK0979:3BV8HQ2ZZX8VVS593PCEU269OHRA6X", "current_trial": 154, "dateTime": 1512946773387, "trialdata": {"rt": -1, "stimulus": "<p id=\"stim\">2</p>", "key_press": -1, "trial_type": "single-stim", "trial_index": 154, "time_elapsed": 854695, "internal_node_id": "0.0-110.0-8.0"}}, {"uniqueid": "MTK0979:3BV8HQ2ZZX8VVS593PCEU269OHRA6X", "current_trial": 155, "dateTime": 1512946774388, "trialdata": {"rt": -1, "stimulus": "<p id=\"stim\">1</p>", "key_press": -1, "trial_type": "single-stim", "trial_index": 155, "time_elapsed": 855697, "internal_node_id": "0.0-110.0-9.0"}}, {"uniqueid": "MTK0979:3BV8HQ2ZZX8VVS593PCEU269OHRA6X", "current_trial": 156, "dateTime": 1512946775889, "trialdata": {"rt": -1, "stimulus": "<p id=\"stim\">+</p>", "key_press": -1, "type": "FIXATION", "trial_type": "single-stim", "trial_index": 156, "time_elapsed": 857198, "internal_node_id": "0.0-111.0-0.0"}}, {"uniqueid": "MTK0979:3BV8HQ2ZZX8VVS593PCEU269OHRA6X", "current_trial": 157, "dateTime": 1512946777657, "trialdata": {"rt": -1000, "stimulus": "/static/audio/wordpool/LUNCH.wav", "key_press": -1, "type": "PRES_AUD", "word": "lunch", "wordID": 848, "conditions": [24, 800, "a", 12000], "trial": 4, "serialpos": 0, "trial_type": "single-audio", "trial_index": 157, "time_elapsed": 858966, "internal_node_id": "0.0-112.0"}}, {"uniqueid": "MTK0979:3BV8HQ2ZZX8VVS593PCEU269OHRA6X", "current_trial": 158, "dateTime": 1512946779571, "trialdata": {"rt": -1000, "stimulus": "/static/audio/wordpool/HOSTESS.wav", "key_press": -1, "type": "PRES_AUD", "word": "hostess", "wordID": 722, "conditions": [24, 800, "a", 12000], "trial": 4, "serialpos": 1, "trial_type": "single-audio", "trial_index": 158, "time_elapsed": 860880, "internal_node_id": "0.0-113.0"}}, {"uniqueid": "MTK0979:3BV8HQ2ZZX8VVS593PCEU269OHRA6X", "current_trial": 159, "dateTime": 1512946781291, "trialdata": {"rt": -1000, "stimulus": "/static/audio/wordpool/DRAGON.wav", "key_press": -1, "type": "PRES_AUD", "word": "dragon", "wordID": 491, "conditions": [24, 800, "a", 12000], "trial": 4, "serialpos": 2, "trial_type": "single-audio", "trial_index": 159, "time_elapsed": 862600, "internal_node_id": "0.0-114.0"}}, {"uniqueid": "MTK0979:3BV8HQ2ZZX8VVS593PCEU269OHRA6X", "current_trial": 160, "dateTime": 1512946783046, "trialdata": {"rt": -1000, "stimulus": "/static/audio/wordpool/LODGE.wav", "key_press": -1, "type": "PRES_AUD", "word": "lodge", "wordID": 838, "conditions": [24, 800, "a", 12000], "trial": 4, "serialpos": 3, "trial_type": "single-audio", "trial_index": 160, "time_elapsed": 864355, "internal_node_id": "0.0-115.0"}}, {"uniqueid": "MTK0979:3BV8HQ2ZZX8VVS593PCEU269OHRA6X", "current_trial": 161, "dateTime": 1512946784988, "trialdata": {"rt": -1000, "stimulus": "/static/audio/wordpool/BANK.wav", "key_press": -1, "type": "PRES_AUD", "word": "bank", "wordID": 82, "conditions": [24, 800, "a", 12000], "trial": 4, "serialpos": 4, "trial_type": "single-audio", "trial_index": 161, "time_elapsed": 866297, "internal_node_id": "0.0-116.0"}}, {"uniqueid": "MTK0979:3BV8HQ2ZZX8VVS593PCEU269OHRA6X", "current_trial": 162, "dateTime": 1512946786851, "trialdata": {"rt": -1000, "stimulus": "/static/audio/wordpool/BISON.wav", "key_press": -1, "type": "PRES_AUD", "word": "bison", "wordID": 130, "conditions": [24, 800, "a", 12000], "trial": 4, "serialpos": 5, "trial_type": "single-audio", "trial_index": 162, "time_elapsed": 868160, "internal_node_id": "0.0-117.0"}}, {"uniqueid": "MTK0979:3BV8HQ2ZZX8VVS593PCEU269OHRA6X", "current_trial": 163, "dateTime": 1512946788777, "trialdata": {"rt": -1000, "stimulus": "/static/audio/wordpool/DANCER.wav", "key_press": -1, "type": "PRES_AUD", "word": "dancer", "wordID": 436, "conditions": [24, 800, "a", 12000], "trial": 4, "serialpos": 6, "trial_type": "single-audio", "trial_index": 163, "time_elapsed": 870086, "internal_node_id": "0.0-118.0"}}, {"uniqueid": "MTK0979:3BV8HQ2ZZX8VVS593PCEU269OHRA6X", "current_trial": 164, "dateTime": 1512946790702, "trialdata": {"rt": -1000, "stimulus": "/static/audio/wordpool/GYMNAST.wav", "key_press": -1, "type": "PRES_AUD", "word": "gymnast", "wordID": 674, "conditions": [24, 800, "a", 12000], "trial": 4, "serialpos": 7, "trial_type": "single-audio", "trial_index": 164, "time_elapsed": 872011, "internal_node_id": "0.0-119.0"}}, {"uniqueid": "MTK0979:3BV8HQ2ZZX8VVS593PCEU269OHRA6X", "current_trial": 165, "dateTime": 1512946792593, "trialdata": {"rt": -1000, "stimulus": "/static/audio/wordpool/BASEMENT.wav", "key_press": -1, "type": "PRES_AUD", "word": "basement", "wordID": 93, "conditions": [24, 800, "a", 12000], "trial": 4, "serialpos": 8, "trial_type": "single-audio", "trial_index": 165, "time_elapsed": 873901, "internal_node_id": "0.0-120.0"}}, {"uniqueid": "MTK0979:3BV8HQ2ZZX8VVS593PCEU269OHRA6X", "current_trial": 166, "dateTime": 1512946794299, "trialdata": {"rt": -1000, "stimulus": "/static/audio/wordpool/MOTEL.wav", "key_press": -1, "type": "PRES_AUD", "word": "motel", "wordID": 918, "conditions": [24, 800, "a", 12000], "trial": 4, "serialpos": 9, "trial_type": "single-audio", "trial_index": 166, "time_elapsed": 875608, "internal_node_id": "0.0-121.0"}}, {"uniqueid": "MTK0979:3BV8HQ2ZZX8VVS593PCEU269OHRA6X", "current_trial": 167, "dateTime": 1512946796018, "trialdata": {"rt": -1000, "stimulus": "/static/audio/wordpool/GOBLIN.wav", "key_press": -1, "type": "PRES_AUD", "word": "goblin", "wordID": 644, "conditions": [24, 800, "a", 12000], "trial": 4, "serialpos": 10, "trial_type": "single-audio", "trial_index": 167, "time_elapsed": 877327, "internal_node_id": "0.0-122.0"}}, {"uniqueid": "MTK0979:3BV8HQ2ZZX8VVS593PCEU269OHRA6X", "current_trial": 168, "dateTime": 1512946797851, "trialdata": {"rt": -1000, "stimulus": "/static/audio/wordpool/TAXI.wav", "key_press": -1, "type": "PRES_AUD", "word": "taxi", "wordID": 1437, "conditions": [24, 800, "a", 12000], "trial": 4, "serialpos": 11, "trial_type": "single-audio", "trial_index": 168, "time_elapsed": 879160, "internal_node_id": "0.0-123.0"}}, {"uniqueid": "MTK0979:3BV8HQ2ZZX8VVS593PCEU269OHRA6X", "current_trial": 169, "dateTime": 1512946799621, "trialdata": {"rt": -1000, "stimulus": "/static/audio/wordpool/PIMPLE.wav", "key_press": -1, "type": "PRES_AUD", "word": "pimple", "wordID": 1070, "conditions": [24, 800, "a", 12000], "trial": 4, "serialpos": 12, "trial_type": "single-audio", "trial_index": 169, "time_elapsed": 880929, "internal_node_id": "0.0-124.0"}}, {"uniqueid": "MTK0979:3BV8HQ2ZZX8VVS593PCEU269OHRA6X", "current_trial": 170, "dateTime": 1512946801293, "trialdata": {"rt": -1000, "stimulus": "/static/audio/wordpool/BUNNY.wav", "key_press": -1, "type": "PRES_AUD", "word": "bunny", "wordID": 197, "conditions": [24, 800, "a", 12000], "trial": 4, "serialpos": 13, "trial_type": "single-audio", "trial_index": 170, "time_elapsed": 882602, "internal_node_id": "0.0-125.0"}}, {"uniqueid": "MTK0979:3BV8HQ2ZZX8VVS593PCEU269OHRA6X", "current_trial": 171, "dateTime": 1512946802960, "trialdata": {"rt": -1000, "stimulus": "/static/audio/wordpool/HATCHET.wav", "key_press": -1, "type": "PRES_AUD", "word": "hatchet", "wordID": 690, "conditions": [24, 800, "a", 12000], "trial": 4, "serialpos": 14, "trial_type": "single-audio", "trial_index": 171, "time_elapsed": 884269, "internal_node_id": "0.0-126.0"}}, {"uniqueid": "MTK0979:3BV8HQ2ZZX8VVS593PCEU269OHRA6X", "current_trial": 172, "dateTime": 1512946804693, "trialdata": {"rt": -1000, "stimulus": "/static/audio/wordpool/CUSTARD.wav", "key_press": -1, "type": "PRES_AUD", "word": "custard", "wordID": 428, "conditions": [24, 800, "a", 12000], "trial": 4, "serialpos": 15, "trial_type": "single-audio", "trial_index": 172, "time_elapsed": 886002, "internal_node_id": "0.0-127.0"}}, {"uniqueid": "MTK0979:3BV8HQ2ZZX8VVS593PCEU269OHRA6X", "current_trial": 173, "dateTime": 1512946806418, "trialdata": {"rt": -1000, "stimulus": "/static/audio/wordpool/DORM.wav", "key_press": -1, "type": "PRES_AUD", "word": "dorm", "wordID": 487, "conditions": [24, 800, "a", 12000], "trial": 4, "serialpos": 16, "trial_type": "single-audio", "trial_index": 173, "time_elapsed": 887727, "internal_node_id": "0.0-128.0"}}, {"uniqueid": "MTK0979:3BV8HQ2ZZX8VVS593PCEU269OHRA6X", "current_trial": 174, "dateTime": 1512946808039, "trialdata": {"rt": -1000, "stimulus": "/static/audio/wordpool/OUTDOORS.wav", "key_press": -1, "type": "PRES_AUD", "word": "outdoors", "wordID": 986, "conditions": [24, 800, "a", 12000], "trial": 4, "serialpos": 17, "trial_type": "single-audio", "trial_index": 174, "time_elapsed": 889348, "internal_node_id": "0.0-129.0"}}, {"uniqueid": "MTK0979:3BV8HQ2ZZX8VVS593PCEU269OHRA6X", "current_trial": 175, "dateTime": 1512946809879, "trialdata": {"rt": -1000, "stimulus": "/static/audio/wordpool/CHIPMUNK.wav", "key_press": -1, "type": "PRES_AUD", "word": "chipmunk", "wordID": 303, "conditions": [24, 800, "a", 12000], "trial": 4, "serialpos": 18, "trial_type": "single-audio", "trial_index": 175, "time_elapsed": 891188, "internal_node_id": "0.0-130.0"}}, {"uniqueid": "MTK0979:3BV8HQ2ZZX8VVS593PCEU269OHRA6X", "current_trial": 176, "dateTime": 1512946811645, "trialdata": {"rt": -1000, "stimulus": "/static/audio/wordpool/TRUCK.wav", "key_press": -1, "type": "PRES_AUD", "word": "truck", "wordID": 1511, "conditions": [24, 800, "a", 12000], "trial": 4, "serialpos": 19, "trial_type": "single-audio", "trial_index": 176, "time_elapsed": 892954, "internal_node_id": "0.0-131.0"}}, {"uniqueid": "MTK0979:3BV8HQ2ZZX8VVS593PCEU269OHRA6X", "current_trial": 177, "dateTime": 1512946813447, "trialdata": {"rt": -1000, "stimulus": "/static/audio/wordpool/CLOTHES.wav", "key_press": -1, "type": "PRES_AUD", "word": "clothes", "wordID": 326, "conditions": [24, 800, "a", 12000], "trial": 4, "serialpos": 20, "trial_type": "single-audio", "trial_index": 177, "time_elapsed": 894756, "internal_node_id": "0.0-132.0"}}, {"uniqueid": "MTK0979:3BV8HQ2ZZX8VVS593PCEU269OHRA6X", "current_trial": 178, "dateTime": 1512946815283, "trialdata": {"rt": -1000, "stimulus": "/static/audio/wordpool/TOMBSTONE.wav", "key_press": -1, "type": "PRES_AUD", "word": "tombstone", "wordID": 1477, "conditions": [24, 800, "a", 12000], "trial": 4, "serialpos": 21, "trial_type": "single-audio", "trial_index": 178, "time_elapsed": 896591, "internal_node_id": "0.0-133.0"}}, {"uniqueid": "MTK0979:3BV8HQ2ZZX8VVS593PCEU269OHRA6X", "current_trial": 179, "dateTime": 1512946817119, "trialdata": {"rt": -1000, "stimulus": "/static/audio/wordpool/STATUE.wav", "key_press": -1, "type": "PRES_AUD", "word": "statue", "wordID": 1373, "conditions": [24, 800, "a", 12000], "trial": 4, "serialpos": 22, "trial_type": "single-audio", "trial_index": 179, "time_elapsed": 898428, "internal_node_id": "0.0-134.0"}}, {"uniqueid": "MTK0979:3BV8HQ2ZZX8VVS593PCEU269OHRA6X", "current_trial": 180, "dateTime": 1512946819074, "trialdata": {"rt": -1000, "stimulus": "/static/audio/wordpool/PIZZA.wav", "key_press": -1, "type": "PRES_AUD", "word": "pizza", "wordID": 1078, "conditions": [24, 800, "a", 12000], "trial": 4, "serialpos": 23, "trial_type": "single-audio", "trial_index": 180, "time_elapsed": 900383, "internal_node_id": "0.0-135.0"}}, {"uniqueid": "MTK0979:3BV8HQ2ZZX8VVS593PCEU269OHRA6X", "current_trial": 181, "dateTime": 1512946820297, "trialdata": {"rt": -1, "stimulus": "", "key_press": -1, "type": "PRE_RECALL_DELAY", "trial_type": "single-stim", "trial_index": 181, "time_elapsed": 901606, "internal_node_id": "0.0-136.0-0.0"}}, {"uniqueid": "MTK0979:3BV8HQ2ZZX8VVS593PCEU269OHRA6X", "current_trial": 182, "dateTime": 1512946820798, "trialdata": {"rt": -1000, "stimulus": "/static/audio/400Hz.wav", "key_press": -1, "type": "PRE_RECALL_ALERT", "trial_type": "single-audio", "trial_index": 182, "time_elapsed": 902107, "internal_node_id": "0.0-137.0"}}, {"uniqueid": "MTK0979:3BV8HQ2ZZX8VVS593PCEU269OHRA6X", "current_trial": 183, "dateTime": 1512946880804, "trialdata": {"rt": [6418, 9185, 16257, 21497, 24353, 26722, 29777, 32249, 35633, 42361, 45153], "recwords": ["pizza", "statue", "chipmunk", "outdoors", "dorm", "bank", "dancer", "lunch", "dragon", "goblin", "taxi"], "type": "FREE_RECALL", "conditions": [24, 800, "a", 12000], "trial": 4, "trial_type": "free-recall", "trial_index": 183, "time_elapsed": 962110, "internal_node_id": "0.0-138.0-0.0"}}, {"uniqueid": "MTK0979:3BV8HQ2ZZX8VVS593PCEU269OHRA6X", "current_trial": 184, "dateTime": 1512946884977, "trialdata": {"rt": 2172, "key_press": 32, "type": "INSTRUCTIONS", "trial_type": "text", "trial_index": 184, "time_elapsed": 966286, "internal_node_id": "0.0-139.0"}}, {"uniqueid": "MTK0979:3BV8HQ2ZZX8VVS593PCEU269OHRA6X", "current_trial": 185, "dateTime": 1512946898981, "trialdata": {"rt": [1908, 3388, 5596, 7252, 10268], "responses": ["15", "10", "18", "19", "22"], "num1": [7, 1, 8, 6, 8, 5], "num2": [3, 2, 9, 6, 6, 8], "num3": [5, 7, 1, 7, 8, 3], "type": "DISTRACTOR", "conditions": [12, 800, "v", 12000], "trial": 5, "trial_type": "math-distractor", "trial_index": 185, "time_elapsed": 980290, "internal_node_id": "0.0-140.0"}}, {"uniqueid": "MTK0979:3BV8HQ2ZZX8VVS593PCEU269OHRA6X", "current_trial": 186, "dateTime": 1512946901983, "trialdata": {"rt": -1, "stimulus": "<p id=\"stim\">10</p>", "key_press": -1, "trial_type": "single-stim", "trial_index": 186, "time_elapsed": 983292, "internal_node_id": "0.0-141.0-0.0"}}, {"uniqueid": "MTK0979:3BV8HQ2ZZX8VVS593PCEU269OHRA6X", "current_trial": 187, "dateTime": 1512946902985, "trialdata": {"rt": -1, "stimulus": "<p id=\"stim\">9</p>", "key_press": -1, "trial_type": "single-stim", "trial_index": 187, "time_elapsed": 984294, "internal_node_id": "0.0-141.0-1.0"}}, {"uniqueid": "MTK0979:3BV8HQ2ZZX8VVS593PCEU269OHRA6X", "current_trial": 188, "dateTime": 1512946903987, "trialdata": {"rt": -1, "stimulus": "<p id=\"stim\">8</p>", "key_press": -1, "trial_type": "single-stim", "trial_index": 188, "time_elapsed": 985296, "internal_node_id": "0.0-141.0-2.0"}}, {"uniqueid": "MTK0979:3BV8HQ2ZZX8VVS593PCEU269OHRA6X", "current_trial": 189, "dateTime": 1512946904989, "trialdata": {"rt": -1, "stimulus": "<p id=\"stim\">7</p>", "key_press": -1, "trial_type": "single-stim", "trial_index": 189, "time_elapsed": 986298, "internal_node_id": "0.0-141.0-3.0"}}, {"uniqueid": "MTK0979:3BV8HQ2ZZX8VVS593PCEU269OHRA6X", "current_trial": 190, "dateTime": 1512946905990, "trialdata": {"rt": -1, "stimulus": "<p id=\"stim\">6</p>", "key_press": -1, "trial_type": "single-stim", "trial_index": 190, "time_elapsed": 987299, "internal_node_id": "0.0-141.0-4.0"}}, {"uniqueid": "MTK0979:3BV8HQ2ZZX8VVS593PCEU269OHRA6X", "current_trial": 191, "dateTime": 1512946906991, "trialdata": {"rt": -1, "stimulus": "<p id=\"stim\">5</p>", "key_press": -1, "trial_type": "single-stim", "trial_index": 191, "time_elapsed": 988300, "internal_node_id": "0.0-141.0-5.0"}}, {"uniqueid": "MTK0979:3BV8HQ2ZZX8VVS593PCEU269OHRA6X", "current_trial": 192, "dateTime": 1512946907993, "trialdata": {"rt": -1, "stimulus": "<p id=\"stim\">4</p>", "key_press": -1, "trial_type": "single-stim", "trial_index": 192, "time_elapsed": 989302, "internal_node_id": "0.0-141.0-6.0"}}, {"uniqueid": "MTK0979:3BV8HQ2ZZX8VVS593PCEU269OHRA6X", "current_trial": 193, "dateTime": 1512946908994, "trialdata": {"rt": -1, "stimulus": "<p id=\"stim\">3</p>", "key_press": -1, "trial_type": "single-stim", "trial_index": 193, "time_elapsed": 990303, "internal_node_id": "0.0-141.0-7.0"}}, {"uniqueid": "MTK0979:3BV8HQ2ZZX8VVS593PCEU269OHRA6X", "current_trial": 194, "dateTime": 1512946909995, "trialdata": {"rt": -1, "stimulus": "<p id=\"stim\">2</p>", "key_press": -1, "trial_type": "single-stim", "trial_index": 194, "time_elapsed": 991304, "internal_node_id": "0.0-141.0-8.0"}}, {"uniqueid": "MTK0979:3BV8HQ2ZZX8VVS593PCEU269OHRA6X", "current_trial": 195, "dateTime": 1512946910997, "trialdata": {"rt": -1, "stimulus": "<p id=\"stim\">1</p>", "key_press": -1, "trial_type": "single-stim", "trial_index": 195, "time_elapsed": 992306, "internal_node_id": "0.0-141.0-9.0"}}, {"uniqueid": "MTK0979:3BV8HQ2ZZX8VVS593PCEU269OHRA6X", "current_trial": 196, "dateTime": 1512946912498, "trialdata": {"rt": -1, "stimulus": "<p id=\"stim\">+</p>", "key_press": -1, "type": "FIXATION", "trial_type": "single-stim", "trial_index": 196, "time_elapsed": 993807, "internal_node_id": "0.0-142.0-0.0"}}, {"uniqueid": "MTK0979:3BV8HQ2ZZX8VVS593PCEU269OHRA6X", "current_trial": 197, "dateTime": 1512946913300, "trialdata": {"rt": -1, "stimulus": "<p id=\"stim\">BLADE</p>", "key_press": -1, "type": "PRES_VIS", "word": "blade", "wordID": 133, "conditions": [12, 800, "v", 12000], "trial": 5, "serialpos": 0, "trial_type": "single-stim", "trial_index": 197, "time_elapsed": 994609, "internal_node_id": "0.0-143.0"}}, {"uniqueid": "MTK0979:3BV8HQ2ZZX8VVS593PCEU269OHRA6X", "current_trial": 198, "dateTime": 1512946915058, "trialdata": {"rt": -1, "stimulus": "<p id=\"stim\">CHILD</p>", "key_press": -1, "type": "PRES_VIS", "word": "child", "wordID": 298, "conditions": [12, 800, "v", 12000], "trial": 5, "serialpos": 1, "trial_type": "single-stim", "trial_index": 198, "time_elapsed": 996367, "internal_node_id": "0.0-144.0"}}, {"uniqueid": "MTK0979:3BV8HQ2ZZX8VVS593PCEU269OHRA6X", "current_trial": 199, "dateTime": 1512946916817, "trialdata": {"rt": -1, "stimulus": "<p id=\"stim\">BADGE</p>", "key_press": -1, "type": "PRES_VIS", "word": "badge", "wordID": 67, "conditions": [12, 800, "v", 12000], "trial": 5, "serialpos": 2, "trial_type": "single-stim", "trial_index": 199, "time_elapsed": 998126, "internal_node_id": "0.0-145.0"}}, {"uniqueid": "MTK0979:3BV8HQ2ZZX8VVS593PCEU269OHRA6X", "current_trial": 200, "dateTime": 1512946918782, "trialdata": {"rt": -1, "stimulus": "<p id=\"stim\">MARROW</p>", "key_press": -1, "type": "PRES_VIS", "word": "marrow", "wordID": 871, "conditions": [12, 800, "v", 12000], "trial": 5, "serialpos": 3, "trial_type": "single-stim", "trial_index": 200, "time_elapsed": 1000091, "internal_node_id": "0.0-146.0"}}, {"uniqueid": "MTK0979:3BV8HQ2ZZX8VVS593PCEU269OHRA6X", "current_trial": 201, "dateTime": 1512946920669, "trialdata": {"rt": -1, "stimulus": "<p id=\"stim\">LIVER</p>", "key_press": -1, "type": "PRES_VIS", "word": "liver", "wordID": 832, "conditions": [12, 800, "v", 12000], "trial": 5, "serialpos": 4, "trial_type": "single-stim", "trial_index": 201, "time_elapsed": 1001978, "internal_node_id": "0.0-147.0"}}, {"uniqueid": "MTK0979:3BV8HQ2ZZX8VVS593PCEU269OHRA6X", "current_trial": 202, "dateTime": 1512946922412, "trialdata": {"rt": -1, "stimulus": "<p id=\"stim\">DASHBOARD</p>", "key_press": -1, "type": "PRES_VIS", "word": "dashboard", "wordID": 440, "conditions": [12, 800, "v", 12000], "trial": 5, "serialpos": 5, "trial_type": "single-stim", "trial_index": 202, "time_elapsed": 1003721, "internal_node_id": "0.0-148.0"}}, {"uniqueid": "MTK0979:3BV8HQ2ZZX8VVS593PCEU269OHRA6X", "current_trial": 203, "dateTime": 1512946924335, "trialdata": {"rt": -1, "stimulus": "<p id=\"stim\">SPOOL</p>", "key_press": -1, "type": "PRES_VIS", "word": "spool", "wordID": 1355, "conditions": [12, 800, "v", 12000], "trial": 5, "serialpos": 6, "trial_type": "single-stim", "trial_index": 203, "time_elapsed": 1005644, "internal_node_id": "0.0-149.0"}}, {"uniqueid": "MTK0979:3BV8HQ2ZZX8VVS593PCEU269OHRA6X", "current_trial": 204, "dateTime": 1512946926004, "trialdata": {"rt": -1, "stimulus": "<p id=\"stim\">FLASHLIGHT</p>", "key_press": -1, "type": "PRES_VIS", "word": "flashlight", "wordID": 574, "conditions": [12, 800, "v", 12000], "trial": 5, "serialpos": 7, "trial_type": "single-stim", "trial_index": 204, "time_elapsed": 1007313, "internal_node_id": "0.0-150.0"}}, {"uniqueid": "MTK0979:3BV8HQ2ZZX8VVS593PCEU269OHRA6X", "current_trial": 205, "dateTime": 1512946927820, "trialdata": {"rt": -1, "stimulus": "<p id=\"stim\">KNIFE</p>", "key_press": -1, "type": "PRES_VIS", "word": "knife", "wordID": 784, "conditions": [12, 800, "v", 12000], "trial": 5, "serialpos": 8, "trial_type": "single-stim", "trial_index": 205, "time_elapsed": 1009129, "internal_node_id": "0.0-151.0"}}, {"uniqueid": "MTK0979:3BV8HQ2ZZX8VVS593PCEU269OHRA6X", "current_trial": 206, "dateTime": 1512946929714, "trialdata": {"rt": -1, "stimulus": "<p id=\"stim\">COOKBOOK</p>", "key_press": -1, "type": "PRES_VIS", "word": "cookbook", "wordID": 372, "conditions": [12, 800, "v", 12000], "trial": 5, "serialpos": 9, "trial_type": "single-stim", "trial_index": 206, "time_elapsed": 1011023, "internal_node_id": "0.0-152.0"}}, {"uniqueid": "MTK0979:3BV8HQ2ZZX8VVS593PCEU269OHRA6X", "current_trial": 207, "dateTime": 1512946931325, "trialdata": {"rt": -1, "stimulus": "<p id=\"stim\">SOFTBALL</p>", "key_press": -1, "type": "PRES_VIS", "word": "softball", "wordID": 1342, "conditions": [12, 800, "v", 12000], "trial": 5, "serialpos": 10, "trial_type": "single-stim", "trial_index": 207, "time_elapsed": 1012633, "internal_node_id": "0.0-153.0"}}, {"uniqueid": "MTK0979:3BV8HQ2ZZX8VVS593PCEU269OHRA6X", "current_trial": 208, "dateTime": 1512946933249, "trialdata": {"rt": -1, "stimulus": "<p id=\"stim\">LAMP</p>", "key_press": -1, "type": "PRES_VIS", "word": "lamp", "wordID": 797, "conditions": [12, 800, "v", 12000], "trial": 5, "serialpos": 11, "trial_type": "single-stim", "trial_index": 208, "time_elapsed": 1014558, "internal_node_id": "0.0-154.0"}}, {"uniqueid": "MTK0979:3BV8HQ2ZZX8VVS593PCEU269OHRA6X", "current_trial": 209, "dateTime": 1512946935403, "trialdata": {"rt": -1, "stimulus": "", "key_press": -1, "type": "PRE_RECALL_DELAY", "trial_type": "single-stim", "trial_index": 209, "time_elapsed": 1016712, "internal_node_id": "0.0-155.0-0.0"}}, {"uniqueid": "MTK0979:3BV8HQ2ZZX8VVS593PCEU269OHRA6X", "current_trial": 210, "dateTime": 1512946935905, "trialdata": {"rt": -1000, "stimulus": "/static/audio/400Hz.wav", "key_press": -1, "type": "PRE_RECALL_ALERT", "trial_type": "single-audio", "trial_index": 210, "time_elapsed": 1017214, "internal_node_id": "0.0-156.0"}}, {"uniqueid": "MTK0979:3BV8HQ2ZZX8VVS593PCEU269OHRA6X", "current_trial": 211, "dateTime": 1512946995912, "trialdata": {"rt": [2901, 8781, 12109, 15493, 19357, 22886, 25956, 28845], "recwords": ["lamp", "cookbook", "flashlight", "dashboard", "badge", "chi", "child", "blade"], "type": "FREE_RECALL", "conditions": [12, 800, "v", 12000], "trial": 5, "trial_type": "free-recall", "trial_index": 211, "time_elapsed": 1077217, "internal_node_id": "0.0-157.0-0.0"}}, {"uniqueid": "MTK0979:3BV8HQ2ZZX8VVS593PCEU269OHRA6X", "current_trial": 212, "dateTime": 1512947003760, "trialdata": {"rt": 5846, "key_press": 32, "type": "INSTRUCTIONS", "trial_type": "text", "trial_index": 212, "time_elapsed": 1085069, "internal_node_id": "0.0-158.0"}}, {"uniqueid": "MTK0979:3BV8HQ2ZZX8VVS593PCEU269OHRA6X", "current_trial": 213, "dateTime": 1512947029763, "trialdata": {"rt": [2252, 4812, 7404, 10420, 12684, 15908, 19516, 21532, 23196], "responses": ["12", "20", "18", "15", "16", "12", "18", "17", "17"], "num1": [2, 8, 5, 2, 1, 7, 7, 9, 9, 1], "num2": [4, 3, 4, 4, 9, 4, 4, 7, 1, 6], "num3": [6, 9, 9, 9, 6, 1, 7, 1, 7, 9], "type": "DISTRACTOR", "conditions": [24, 1600, "a", 24000], "trial": 6, "trial_type": "math-distractor", "trial_index": 213, "time_elapsed": 1111072, "internal_node_id": "0.0-159.0"}}, {"uniqueid": "MTK0979:3BV8HQ2ZZX8VVS593PCEU269OHRA6X", "current_trial": 214, "dateTime": 1512947032764, "trialdata": {"rt": -1, "stimulus": "<p id=\"stim\">10</p>", "key_press": -1, "trial_type": "single-stim", "trial_index": 214, "time_elapsed": 1114073, "internal_node_id": "0.0-160.0-0.0"}}, {"uniqueid": "MTK0979:3BV8HQ2ZZX8VVS593PCEU269OHRA6X", "current_trial": 215, "dateTime": 1512947033766, "trialdata": {"rt": -1, "stimulus": "<p id=\"stim\">9</p>", "key_press": -1, "trial_type": "single-stim", "trial_index": 215, "time_elapsed": 1115075, "internal_node_id": "0.0-160.0-1.0"}}, {"uniqueid": "MTK0979:3BV8HQ2ZZX8VVS593PCEU269OHRA6X", "current_trial": 216, "dateTime": 1512947034767, "trialdata": {"rt": -1, "stimulus": "<p id=\"stim\">8</p>", "key_press": -1, "trial_type": "single-stim", "trial_index": 216, "time_elapsed": 1116075, "internal_node_id": "0.0-160.0-2.0"}}, {"uniqueid": "MTK0979:3BV8HQ2ZZX8VVS593PCEU269OHRA6X", "current_trial": 217, "dateTime": 1512947035768, "trialdata": {"rt": -1, "stimulus": "<p id=\"stim\">7</p>", "key_press": -1, "trial_type": "single-stim", "trial_index": 217, "time_elapsed": 1117077, "internal_node_id": "0.0-160.0-3.0"}}, {"uniqueid": "MTK0979:3BV8HQ2ZZX8VVS593PCEU269OHRA6X", "current_trial": 218, "dateTime": 1512947036769, "trialdata": {"rt": -1, "stimulus": "<p id=\"stim\">6</p>", "key_press": -1, "trial_type": "single-stim", "trial_index": 218, "time_elapsed": 1118078, "internal_node_id": "0.0-160.0-4.0"}}, {"uniqueid": "MTK0979:3BV8HQ2ZZX8VVS593PCEU269OHRA6X", "current_trial": 219, "dateTime": 1512947037771, "trialdata": {"rt": -1, "stimulus": "<p id=\"stim\">5</p>", "key_press": -1, "trial_type": "single-stim", "trial_index": 219, "time_elapsed": 1119080, "internal_node_id": "0.0-160.0-5.0"}}, {"uniqueid": "MTK0979:3BV8HQ2ZZX8VVS593PCEU269OHRA6X", "current_trial": 220, "dateTime": 1512947038772, "trialdata": {"rt": -1, "stimulus": "<p id=\"stim\">4</p>", "key_press": -1, "trial_type": "single-stim", "trial_index": 220, "time_elapsed": 1120081, "internal_node_id": "0.0-160.0-6.0"}}, {"uniqueid": "MTK0979:3BV8HQ2ZZX8VVS593PCEU269OHRA6X", "current_trial": 221, "dateTime": 1512947039773, "trialdata": {"rt": -1, "stimulus": "<p id=\"stim\">3</p>", "key_press": -1, "trial_type": "single-stim", "trial_index": 221, "time_elapsed": 1121082, "internal_node_id": "0.0-160.0-7.0"}}, {"uniqueid": "MTK0979:3BV8HQ2ZZX8VVS593PCEU269OHRA6X", "current_trial": 222, "dateTime": 1512947040774, "trialdata": {"rt": -1, "stimulus": "<p id=\"stim\">2</p>", "key_press": -1, "trial_type": "single-stim", "trial_index": 222, "time_elapsed": 1122083, "internal_node_id": "0.0-160.0-8.0"}}, {"uniqueid": "MTK0979:3BV8HQ2ZZX8VVS593PCEU269OHRA6X", "current_trial": 223, "dateTime": 1512947041775, "trialdata": {"rt": -1, "stimulus": "<p id=\"stim\">1</p>", "key_press": -1, "trial_type": "single-stim", "trial_index": 223, "time_elapsed": 1123084, "internal_node_id": "0.0-160.0-9.0"}}, {"uniqueid": "MTK0979:3BV8HQ2ZZX8VVS593PCEU269OHRA6X", "current_trial": 224, "dateTime": 1512947043277, "trialdata": {"rt": -1, "stimulus": "<p id=\"stim\">+</p>", "key_press": -1, "type": "FIXATION", "trial_type": "single-stim", "trial_index": 224, "time_elapsed": 1124586, "internal_node_id": "0.0-161.0-0.0"}}, {"uniqueid": "MTK0979:3BV8HQ2ZZX8VVS593PCEU269OHRA6X", "current_trial": 225, "dateTime": 1512947046003, "trialdata": {"rt": -1000, "stimulus": "/static/audio/wordpool/DENIM.wav", "key_press": -1, "type": "PRES_AUD", "word": "denim", "wordID": 445, "conditions": [24, 1600, "a", 24000], "trial": 6, "serialpos": 0, "trial_type": "single-audio", "trial_index": 225, "time_elapsed": 1127312, "internal_node_id": "0.0-162.0"}}, {"uniqueid": "MTK0979:3BV8HQ2ZZX8VVS593PCEU269OHRA6X", "current_trial": 226, "dateTime": 1512947048537, "trialdata": {"rt": -1000, "stimulus": "/static/audio/wordpool/FLEET.wav", "key_press": -1, "type": "PRES_AUD", "word": "fleet", "wordID": 577, "conditions": [24, 1600, "a", 24000], "trial": 6, "serialpos": 1, "trial_type": "single-audio", "trial_index": 226, "time_elapsed": 1129846, "internal_node_id": "0.0-163.0"}}, {"uniqueid": "MTK0979:3BV8HQ2ZZX8VVS593PCEU269OHRA6X", "current_trial": 227, "dateTime": 1512947051178, "trialdata": {"rt": -1000, "stimulus": "/static/audio/wordpool/ATOM.wav", "key_press": -1, "type": "PRES_AUD", "word": "atom", "wordID": 54, "conditions": [24, 1600, "a", 24000], "trial": 6, "serialpos": 2, "trial_type": "single-audio", "trial_index": 227, "time_elapsed": 1132487, "internal_node_id": "0.0-164.0"}}, {"uniqueid": "MTK0979:3BV8HQ2ZZX8VVS593PCEU269OHRA6X", "current_trial": 228, "dateTime": 1512947053793, "trialdata": {"rt": -1000, "stimulus": "/static/audio/wordpool/CRATER.wav", "key_press": -1, "type": "PRES_AUD", "word": "crater", "wordID": 399, "conditions": [24, 1600, "a", 24000], "trial": 6, "serialpos": 3, "trial_type": "single-audio", "trial_index": 228, "time_elapsed": 1135102, "internal_node_id": "0.0-165.0"}}, {"uniqueid": "MTK0979:3BV8HQ2ZZX8VVS593PCEU269OHRA6X", "current_trial": 229, "dateTime": 1512947056554, "trialdata": {"rt": -1000, "stimulus": "/static/audio/wordpool/WAGON.wav", "key_press": -1, "type": "PRES_AUD", "word": "wagon", "wordID": 1577, "conditions": [24, 1600, "a", 24000], "trial": 6, "serialpos": 4, "trial_type": "single-audio", "trial_index": 229, "time_elapsed": 1137862, "internal_node_id": "0.0-166.0"}}, {"uniqueid": "MTK0979:3BV8HQ2ZZX8VVS593PCEU269OHRA6X", "current_trial": 230, "dateTime": 1512947059228, "trialdata": {"rt": -1000, "stimulus": "/static/audio/wordpool/COLLEGE.wav", "key_press": -1, "type": "PRES_AUD", "word": "college", "wordID": 345, "conditions": [24, 1600, "a", 24000], "trial": 6, "serialpos": 5, "trial_type": "single-audio", "trial_index": 230, "time_elapsed": 1140537, "internal_node_id": "0.0-167.0"}}, {"uniqueid": "MTK0979:3BV8HQ2ZZX8VVS593PCEU269OHRA6X", "current_trial": 231, "dateTime": 1512947061780, "trialdata": {"rt": -1000, "stimulus": "/static/audio/wordpool/YACHT.wav", "key_press": -1, "type": "PRES_AUD", "word": "yacht", "wordID": 1628, "conditions": [24, 1600, "a", 24000], "trial": 6, "serialpos": 6, "trial_type": "single-audio", "trial_index": 231, "time_elapsed": 1143089, "internal_node_id": "0.0-168.0"}}, {"uniqueid": "MTK0979:3BV8HQ2ZZX8VVS593PCEU269OHRA6X", "current_trial": 232, "dateTime": 1512947064236, "trialdata": {"rt": -1000, "stimulus": "/static/audio/wordpool/EGYPT.wav", "key_press": -1, "type": "PRES_AUD", "word": "egypt", "wordID": 518, "conditions": [24, 1600, "a", 24000], "trial": 6, "serialpos": 7, "trial_type": "single-audio", "trial_index": 232, "time_elapsed": 1145544, "internal_node_id": "0.0-169.0"}}, {"uniqueid": "MTK0979:3BV8HQ2ZZX8VVS593PCEU269OHRA6X", "current_trial": 233, "dateTime": 1512947066952, "trialdata": {"rt": -1000, "stimulus": "/static/audio/wordpool/EUROPE.wav", "key_press": -1, "type": "PRES_AUD", "word": "europe", "wordID": 540, "conditions": [24, 1600, "a", 24000], "trial": 6, "serialpos": 8, "trial_type": "single-audio", "trial_index": 233, "time_elapsed": 1148261, "internal_node_id": "0.0-170.0"}}, {"uniqueid": "MTK0979:3BV8HQ2ZZX8VVS593PCEU269OHRA6X", "current_trial": 234, "dateTime": 1512947069656, "trialdata": {"rt": -1000, "stimulus": "/static/audio/wordpool/PENGUIN.wav", "key_press": -1, "type": "PRES_AUD", "word": "penguin", "wordID": 1043, "conditions": [24, 1600, "a", 24000], "trial": 6, "serialpos": 9, "trial_type": "single-audio", "trial_index": 234, "time_elapsed": 1150965, "internal_node_id": "0.0-171.0"}}, {"uniqueid": "MTK0979:3BV8HQ2ZZX8VVS593PCEU269OHRA6X", "current_trial": 235, "dateTime": 1512947072165, "trialdata": {"rt": -1000, "stimulus": "/static/audio/wordpool/SPONGE.wav", "key_press": -1, "type": "PRES_AUD", "word": "sponge", "wordID": 1354, "conditions": [24, 1600, "a", 24000], "trial": 6, "serialpos": 10, "trial_type": "single-audio", "trial_index": 235, "time_elapsed": 1153474, "internal_node_id": "0.0-172.0"}}, {"uniqueid": "MTK0979:3BV8HQ2ZZX8VVS593PCEU269OHRA6X", "current_trial": 236, "dateTime": 1512947074827, "trialdata": {"rt": -1000, "stimulus": "/static/audio/wordpool/STUDENT.wav", "key_press": -1, "type": "PRES_AUD", "word": "student", "wordID": 1394, "conditions": [24, 1600, "a", 24000], "trial": 6, "serialpos": 11, "trial_type": "single-audio", "trial_index": 236, "time_elapsed": 1156135, "internal_node_id": "0.0-173.0"}}, {"uniqueid": "MTK0979:3BV8HQ2ZZX8VVS593PCEU269OHRA6X", "current_trial": 237, "dateTime": 1512947077623, "trialdata": {"rt": -1000, "stimulus": "/static/audio/wordpool/CARRIAGE.wav", "key_press": -1, "type": "PRES_AUD", "word": "carriage", "wordID": 247, "conditions": [24, 1600, "a", 24000], "trial": 6, "serialpos": 12, "trial_type": "single-audio", "trial_index": 237, "time_elapsed": 1158932, "internal_node_id": "0.0-174.0"}}, {"uniqueid": "MTK0979:3BV8HQ2ZZX8VVS593PCEU269OHRA6X", "current_trial": 238, "dateTime": 1512947080332, "trialdata": {"rt": -1000, "stimulus": "/static/audio/wordpool/YARN.wav", "key_press": -1, "type": "PRES_AUD", "word": "yarn", "wordID": 1630, "conditions": [24, 1600, "a", 24000], "trial": 6, "serialpos": 13, "trial_type": "single-audio", "trial_index": 238, "time_elapsed": 1161641, "internal_node_id": "0.0-175.0"}}, {"uniqueid": "MTK0979:3BV8HQ2ZZX8VVS593PCEU269OHRA6X", "current_trial": 239, "dateTime": 1512947082747, "trialdata": {"rt": -1000, "stimulus": "/static/audio/wordpool/PADDLE.wav", "key_press": -1, "type": "PRES_AUD", "word": "paddle", "wordID": 999, "conditions": [24, 1600, "a", 24000], "trial": 6, "serialpos": 14, "trial_type": "single-audio", "trial_index": 239, "time_elapsed": 1164056, "internal_node_id": "0.0-176.0"}}, {"uniqueid": "MTK0979:3BV8HQ2ZZX8VVS593PCEU269OHRA6X", "current_trial": 240, "dateTime": 1512947085357, "trialdata": {"rt": -1000, "stimulus": "/static/audio/wordpool/PASTA.wav", "key_press": -1, "type": "PRES_AUD", "word": "pasta", "wordID": 1020, "conditions": [24, 1600, "a", 24000], "trial": 6, "serialpos": 15, "trial_type": "single-audio", "trial_index": 240, "time_elapsed": 1166666, "internal_node_id": "0.0-177.0"}}, {"uniqueid": "MTK0979:3BV8HQ2ZZX8VVS593PCEU269OHRA6X", "current_trial": 241, "dateTime": 1512947087943, "trialdata": {"rt": -1000, "stimulus": "/static/audio/wordpool/PICTURE.wav", "key_press": -1, "type": "PRES_AUD", "word": "picture", "wordID": 1060, "conditions": [24, 1600, "a", 24000], "trial": 6, "serialpos": 16, "trial_type": "single-audio", "trial_index": 241, "time_elapsed": 1169252, "internal_node_id": "0.0-178.0"}}, {"uniqueid": "MTK0979:3BV8HQ2ZZX8VVS593PCEU269OHRA6X", "current_trial": 242, "dateTime": 1512947090647, "trialdata": {"rt": -1000, "stimulus": "/static/audio/wordpool/FLASK.wav", "key_press": -1, "type": "PRES_AUD", "word": "flask", "wordID": 575, "conditions": [24, 1600, "a", 24000], "trial": 6, "serialpos": 17, "trial_type": "single-audio", "trial_index": 242, "time_elapsed": 1171956, "internal_node_id": "0.0-179.0"}}, {"uniqueid": "MTK0979:3BV8HQ2ZZX8VVS593PCEU269OHRA6X", "current_trial": 243, "dateTime": 1512947093076, "trialdata": {"rt": -1000, "stimulus": "/static/audio/wordpool/WORLD.wav", "key_press": -1, "type": "PRES_AUD", "word": "world", "wordID": 1621, "conditions": [24, 1600, "a", 24000], "trial": 6, "serialpos": 18, "trial_type": "single-audio", "trial_index": 243, "time_elapsed": 1174385, "internal_node_id": "0.0-180.0"}}, {"uniqueid": "MTK0979:3BV8HQ2ZZX8VVS593PCEU269OHRA6X", "current_trial": 244, "dateTime": 1512947095796, "trialdata": {"rt": -1000, "stimulus": "/static/audio/wordpool/COUNTRY.wav", "key_press": -1, "type": "PRES_AUD", "word": "country", "wordID": 387, "conditions": [24, 1600, "a", 24000], "trial": 6, "serialpos": 19, "trial_type": "single-audio", "trial_index": 244, "time_elapsed": 1177104, "internal_node_id": "0.0-181.0"}}, {"uniqueid": "MTK0979:3BV8HQ2ZZX8VVS593PCEU269OHRA6X", "current_trial": 245, "dateTime": 1512947098301, "trialdata": {"rt": -1000, "stimulus": "/static/audio/wordpool/FOOTBALL.wav", "key_press": -1, "type": "PRES_AUD", "word": "football", "wordID": 590, "conditions": [24, 1600, "a", 24000], "trial": 6, "serialpos": 20, "trial_type": "single-audio", "trial_index": 245, "time_elapsed": 1179610, "internal_node_id": "0.0-182.0"}}, {"uniqueid": "MTK0979:3BV8HQ2ZZX8VVS593PCEU269OHRA6X", "current_trial": 246, "dateTime": 1512947100950, "trialdata": {"rt": -1000, "stimulus": "/static/audio/wordpool/RAFT.wav", "key_press": -1, "type": "PRES_AUD", "word": "raft", "wordID": 1158, "conditions": [24, 1600, "a", 24000], "trial": 6, "serialpos": 21, "trial_type": "single-audio", "trial_index": 246, "time_elapsed": 1182259, "internal_node_id": "0.0-183.0"}}, {"uniqueid": "MTK0979:3BV8HQ2ZZX8VVS593PCEU269OHRA6X", "current_trial": 247, "dateTime": 1512947103539, "trialdata": {"rt": -1000, "stimulus": "/static/audio/wordpool/LAGOON.wav", "key_press": -1, "type": "PRES_AUD", "word": "lagoon", "wordID": 794, "conditions": [24, 1600, "a", 24000], "trial": 6, "serialpos": 22, "trial_type": "single-audio", "trial_index": 247, "time_elapsed": 1184848, "internal_node_id": "0.0-184.0"}}, {"uniqueid": "MTK0979:3BV8HQ2ZZX8VVS593PCEU269OHRA6X", "current_trial": 248, "dateTime": 1512947106115, "trialdata": {"rt": -1000, "stimulus": "/static/audio/wordpool/PASTRY.wav", "key_press": -1, "type": "PRES_AUD", "word": "pastry", "wordID": 1021, "conditions": [24, 1600, "a", 24000], "trial": 6, "serialpos": 23, "trial_type": "single-audio", "trial_index": 248, "time_elapsed": 1187424, "internal_node_id": "0.0-185.0"}}, {"uniqueid": "MTK0979:3BV8HQ2ZZX8VVS593PCEU269OHRA6X", "current_trial": 249, "dateTime": 1512947107402, "trialdata": {"rt": -1, "stimulus": "", "key_press": -1, "type": "PRE_RECALL_DELAY", "trial_type": "single-stim", "trial_index": 249, "time_elapsed": 1188710, "internal_node_id": "0.0-186.0-0.0"}}, {"uniqueid": "MTK0979:3BV8HQ2ZZX8VVS593PCEU269OHRA6X", "current_trial": 250, "dateTime": 1512947107903, "trialdata": {"rt": -1000, "stimulus": "/static/audio/400Hz.wav", "key_press": -1, "type": "PRE_RECALL_ALERT", "trial_type": "single-audio", "trial_index": 250, "time_elapsed": 1189212, "internal_node_id": "0.0-187.0"}}, {"uniqueid": "MTK0979:3BV8HQ2ZZX8VVS593PCEU269OHRA6X", "current_trial": 251, "dateTime": 1512947167910, "trialdata": {"rt": [6253, 8237, 11717, 15053, 20101, 23932, 28333, 34500, 39629], "recwords": ["paddle", "yarn", "wagon", "crater", "sleet", "crater", "wagon", "college", "student"], "type": "FREE_RECALL", "conditions": [24, 1600, "a", 24000], "trial": 6, "trial_type": "free-recall", "trial_index": 251, "time_elapsed": 1249215, "internal_node_id": "0.0-188.0-0.0"}}, {"uniqueid": "MTK0979:3BV8HQ2ZZX8VVS593PCEU269OHRA6X", "current_trial": 252, "dateTime": 1512947171749, "trialdata": {"rt": 1839, "key_press": 32, "type": "INSTRUCTIONS", "trial_type": "text", "trial_index": 252, "time_elapsed": 1253058, "internal_node_id": "0.0-189.0"}}, {"uniqueid": "MTK0979:3BV8HQ2ZZX8VVS593PCEU269OHRA6X", "current_trial": 253, "dateTime": 1512947197753, "trialdata": {"rt": [3356, 5396, 7124, 9196, 11684, 13516, 15724, 18580, 20644, 22252], "responses": ["14", "17", "16", "22", "18", "15", "9", "18", "22", "14"], "num1": [3, 2, 2, 9, 2, 1, 7, 4, 9, 8, 8], "num2": [9, 6, 5, 7, 9, 8, 1, 7, 9, 2, 6], "num3": [2, 9, 9, 6, 7, 6, 1, 7, 4, 4, 9], "type": "DISTRACTOR", "conditions": [24, 800, "v", 24000], "trial": 7, "trial_type": "math-distractor", "trial_index": 253, "time_elapsed": 1279062, "internal_node_id": "0.0-190.0"}}, {"uniqueid": "MTK0979:3BV8HQ2ZZX8VVS593PCEU269OHRA6X", "current_trial": 254, "dateTime": 1512947200756, "trialdata": {"rt": -1, "stimulus": "<p id=\"stim\">10</p>", "key_press": -1, "trial_type": "single-stim", "trial_index": 254, "time_elapsed": 1282065, "internal_node_id": "0.0-191.0-0.0"}}, {"uniqueid": "MTK0979:3BV8HQ2ZZX8VVS593PCEU269OHRA6X", "current_trial": 255, "dateTime": 1512947201757, "trialdata": {"rt": -1, "stimulus": "<p id=\"stim\">9</p>", "key_press": -1, "trial_type": "single-stim", "trial_index": 255, "time_elapsed": 1283066, "internal_node_id": "0.0-191.0-1.0"}}, {"uniqueid": "MTK0979:3BV8HQ2ZZX8VVS593PCEU269OHRA6X", "current_trial": 256, "dateTime": 1512947202758, "trialdata": {"rt": -1, "stimulus": "<p id=\"stim\">8</p>", "key_press": -1, "trial_type": "single-stim", "trial_index": 256, "time_elapsed": 1284067, "internal_node_id": "0.0-191.0-2.0"}}, {"uniqueid": "MTK0979:3BV8HQ2ZZX8VVS593PCEU269OHRA6X", "current_trial": 257, "dateTime": 1512947203760, "trialdata": {"rt": -1, "stimulus": "<p id=\"stim\">7</p>", "key_press": -1, "trial_type": "single-stim", "trial_index": 257, "time_elapsed": 1285069, "internal_node_id": "0.0-191.0-3.0"}}, {"uniqueid": "MTK0979:3BV8HQ2ZZX8VVS593PCEU269OHRA6X", "current_trial": 258, "dateTime": 1512947204761, "trialdata": {"rt": -1, "stimulus": "<p id=\"stim\">6</p>", "key_press": -1, "trial_type": "single-stim", "trial_index": 258, "time_elapsed": 1286070, "internal_node_id": "0.0-191.0-4.0"}}, {"uniqueid": "MTK0979:3BV8HQ2ZZX8VVS593PCEU269OHRA6X", "current_trial": 259, "dateTime": 1512947205763, "trialdata": {"rt": -1, "stimulus": "<p id=\"stim\">5</p>", "key_press": -1, "trial_type": "single-stim", "trial_index": 259, "time_elapsed": 1287072, "internal_node_id": "0.0-191.0-5.0"}}, {"uniqueid": "MTK0979:3BV8HQ2ZZX8VVS593PCEU269OHRA6X", "current_trial": 260, "dateTime": 1512947206765, "trialdata": {"rt": -1, "stimulus": "<p id=\"stim\">4</p>", "key_press": -1, "trial_type": "single-stim", "trial_index": 260, "time_elapsed": 1288074, "internal_node_id": "0.0-191.0-6.0"}}, {"uniqueid": "MTK0979:3BV8HQ2ZZX8VVS593PCEU269OHRA6X", "current_trial": 261, "dateTime": 1512947207766, "trialdata": {"rt": -1, "stimulus": "<p id=\"stim\">3</p>", "key_press": -1, "trial_type": "single-stim", "trial_index": 261, "time_elapsed": 1289075, "internal_node_id": "0.0-191.0-7.0"}}, {"uniqueid": "MTK0979:3BV8HQ2ZZX8VVS593PCEU269OHRA6X", "current_trial": 262, "dateTime": 1512947208767, "trialdata": {"rt": -1, "stimulus": "<p id=\"stim\">2</p>", "key_press": -1, "trial_type": "single-stim", "trial_index": 262, "time_elapsed": 1290076, "internal_node_id": "0.0-191.0-8.0"}}, {"uniqueid": "MTK0979:3BV8HQ2ZZX8VVS593PCEU269OHRA6X", "current_trial": 263, "dateTime": 1512947209770, "trialdata": {"rt": -1, "stimulus": "<p id=\"stim\">1</p>", "key_press": -1, "trial_type": "single-stim", "trial_index": 263, "time_elapsed": 1291078, "internal_node_id": "0.0-191.0-9.0"}}, {"uniqueid": "MTK0979:3BV8HQ2ZZX8VVS593PCEU269OHRA6X", "current_trial": 264, "dateTime": 1512947211271, "trialdata": {"rt": -1, "stimulus": "<p id=\"stim\">+</p>", "key_press": -1, "type": "FIXATION", "trial_type": "single-stim", "trial_index": 264, "time_elapsed": 1292580, "internal_node_id": "0.0-192.0-0.0"}}, {"uniqueid": "MTK0979:3BV8HQ2ZZX8VVS593PCEU269OHRA6X", "current_trial": 265, "dateTime": 1512947212073, "trialdata": {"rt": -1, "stimulus": "<p id=\"stim\">THIEF</p>", "key_press": -1, "type": "PRES_VIS", "word": "thief", "wordID": 1455, "conditions": [24, 800, "v", 24000], "trial": 7, "serialpos": 0, "trial_type": "single-stim", "trial_index": 265, "time_elapsed": 1293381, "internal_node_id": "0.0-193.0"}}, {"uniqueid": "MTK0979:3BV8HQ2ZZX8VVS593PCEU269OHRA6X", "current_trial": 266, "dateTime": 1512947213702, "trialdata": {"rt": -1, "stimulus": "<p id=\"stim\">BURGLAR</p>", "key_press": -1, "type": "PRES_VIS", "word": "burglar", "wordID": 199, "conditions": [24, 800, "v", 24000], "trial": 7, "serialpos": 1, "trial_type": "single-stim", "trial_index": 266, "time_elapsed": 1295011, "internal_node_id": "0.0-194.0"}}, {"uniqueid": "MTK0979:3BV8HQ2ZZX8VVS593PCEU269OHRA6X", "current_trial": 267, "dateTime": 1512947215648, "trialdata": {"rt": -1, "stimulus": "<p id=\"stim\">PARENT</p>", "key_press": -1, "type": "PRES_VIS", "word": "parent", "wordID": 1012, "conditions": [24, 800, "v", 24000], "trial": 7, "serialpos": 2, "trial_type": "single-stim", "trial_index": 267, "time_elapsed": 1296957, "internal_node_id": "0.0-195.0"}}, {"uniqueid": "MTK0979:3BV8HQ2ZZX8VVS593PCEU269OHRA6X", "current_trial": 268, "dateTime": 1512947217601, "trialdata": {"rt": -1, "stimulus": "<p id=\"stim\">ARM</p>", "key_press": -1, "type": "PRES_VIS", "word": "arm", "wordID": 37, "conditions": [24, 800, "v", 24000], "trial": 7, "serialpos": 3, "trial_type": "single-stim", "trial_index": 268, "time_elapsed": 1298910, "internal_node_id": "0.0-196.0"}}, {"uniqueid": "MTK0979:3BV8HQ2ZZX8VVS593PCEU269OHRA6X", "current_trial": 269, "dateTime": 1512947219242, "trialdata": {"rt": -1, "stimulus": "<p id=\"stim\">DENTIST</p>", "key_press": -1, "type": "PRES_VIS", "word": "dentist", "wordID": 446, "conditions": [24, 800, "v", 24000], "trial": 7, "serialpos": 4, "trial_type": "single-stim", "trial_index": 269, "time_elapsed": 1300551, "internal_node_id": "0.0-197.0"}}, {"uniqueid": "MTK0979:3BV8HQ2ZZX8VVS593PCEU269OHRA6X", "current_trial": 270, "dateTime": 1512947220953, "trialdata": {"rt": -1, "stimulus": "<p id=\"stim\">ROBIN</p>", "key_press": -1, "type": "PRES_VIS", "word": "robin", "wordID": 1198, "conditions": [24, 800, "v", 24000], "trial": 7, "serialpos": 5, "