{"condition": 0, "counterbalance": 37, "assignmentId": "3U84XHCDIDKIHD93WTZYEXD4ZS04ZB", "workerId": "MTK0515", "hitId": "3VDVA3ILIDMZBDJLTHN568UBYFBG15", "currenttrial": 626, "bonus": 0, "data": [{"uniqueid": "MTK0515:3U84XHCDIDKIHD93WTZYEXD4ZS04ZB", "current_trial": 0, "dateTime": 1511195421142, "trialdata": {"rt": 6495, "key_press": 32, "type": "INSTRUCTIONS", "trial_type": "text", "trial_index": 0, "time_elapsed": 6503, "internal_node_id": "0.0-0.0"}}, {"uniqueid": "MTK0515:3U84XHCDIDKIHD93WTZYEXD4ZS04ZB", "current_trial": 1, "dateTime": 1511195528260, "trialdata": {"rt": 107114, "key_press": 32, "type": "INSTRUCTIONS", "trial_type": "text", "trial_index": 1, "time_elapsed": 113622, "internal_node_id": "0.0-1.0"}}, {"uniqueid": "MTK0515:3U84XHCDIDKIHD93WTZYEXD4ZS04ZB", "current_trial": 2, "dateTime": 1511195539297, "trialdata": {"rt": [10973], "responses": ["ocean"], "type": "AUDIO_TEST", "trial_type": "audio-test", "trial_index": 2, "time_elapsed": 124660, "internal_node_id": "0.0-2.0"}}, {"uniqueid": "MTK0515:3U84XHCDIDKIHD93WTZYEXD4ZS04ZB", "current_trial": 3, "dateTime": 1511195551192, "trialdata": {"rt": [11881], "responses": ["crystal"], "type": "AUDIO_TEST", "trial_type": "audio-test", "trial_index": 3, "time_elapsed": 136555, "internal_node_id": "0.0-3.0"}}, {"uniqueid": "MTK0515:3U84XHCDIDKIHD93WTZYEXD4ZS04ZB", "current_trial": 4, "dateTime": 1511195565561, "trialdata": {"rt": [14357], "responses": ["spice"], "type": "AUDIO_TEST", "trial_type": "audio-test", "trial_index": 4, "time_elapsed": 150924, "internal_node_id": "0.0-4.0"}}, {"uniqueid": "MTK0515:3U84XHCDIDKIHD93WTZYEXD4ZS04ZB", "current_trial": 5, "dateTime": 1511195582517, "trialdata": {"rt": 16196, "responses": "{\"Q0\":\"9\",\"Q1\":\"5\",\"Q2\":\"3\"}", "type": "SLEEP_SURVEY", "trial_type": "survey-text", "trial_index": 5, "time_elapsed": 167880, "internal_node_id": "0.0-5.0"}}, {"uniqueid": "MTK0515:3U84XHCDIDKIHD93WTZYEXD4ZS04ZB", "current_trial": 6, "dateTime": 1511195627629, "trialdata": {"rt": 44109, "key_press": 32, "type": "INSTRUCTIONS", "trial_type": "text", "trial_index": 6, "time_elapsed": 212992, "internal_node_id": "0.0-6.0"}}, {"uniqueid": "MTK0515:3U84XHCDIDKIHD93WTZYEXD4ZS04ZB", "current_trial": 7, "dateTime": 1511195645519, "trialdata": {"rt": 17387, "key_press": 32, "type": "INSTRUCTIONS", "trial_type": "text", "trial_index": 7, "time_elapsed": 230882, "internal_node_id": "0.0-7.0"}}, {"uniqueid": "MTK0515:3U84XHCDIDKIHD93WTZYEXD4ZS04ZB", "current_trial": 8, "dateTime": 1511195669866, "trialdata": {"rt": 23844, "key_press": 32, "type": "INSTRUCTIONS", "trial_type": "text", "trial_index": 8, "time_elapsed": 255229, "internal_node_id": "0.0-8.0"}}, {"uniqueid": "MTK0515:3U84XHCDIDKIHD93WTZYEXD4ZS04ZB", "current_trial": 9, "dateTime": 1511195688897, "trialdata": {"rt": [5062, 8444, 11264, 16331], "responses": ["14", "13", "13", "16"], "num1": [4, 6, 3, 8, 6], "num2": [5, 1, 6, 3, 7], "num3": [5, 6, 4, 5, 8], "type": "DISTRACTOR", "conditions": [18, 1200, "a", 18000], "trial": 0, "trial_type": "math-distractor", "trial_index": 9, "time_elapsed": 274260, "internal_node_id": "0.0-9.0"}}, {"uniqueid": "MTK0515:3U84XHCDIDKIHD93WTZYEXD4ZS04ZB", "current_trial": 10, "dateTime": 1511195691902, "trialdata": {"rt": -1, "stimulus": "<p id=\"stim\">10</p>", "key_press": -1, "trial_type": "single-stim", "trial_index": 10, "time_elapsed": 277265, "internal_node_id": "0.0-10.0-0.0"}}, {"uniqueid": "MTK0515:3U84XHCDIDKIHD93WTZYEXD4ZS04ZB", "current_trial": 11, "dateTime": 1511195692905, "trialdata": {"rt": -1, "stimulus": "<p id=\"stim\">9</p>", "key_press": -1, "trial_type": "single-stim", "trial_index": 11, "time_elapsed": 278267, "internal_node_id": "0.0-10.0-1.0"}}, {"uniqueid": "MTK0515:3U84XHCDIDKIHD93WTZYEXD4ZS04ZB", "current_trial": 12, "dateTime": 1511195693910, "trialdata": {"rt": -1, "stimulus": "<p id=\"stim\">8</p>", "key_press": -1, "trial_type": "single-stim", "trial_index": 12, "time_elapsed": 279272, "internal_node_id": "0.0-10.0-2.0"}}, {"uniqueid": "MTK0515:3U84XHCDIDKIHD93WTZYEXD4ZS04ZB", "current_trial": 13, "dateTime": 1511195694912, "trialdata": {"rt": -1, "stimulus": "<p id=\"stim\">7</p>", "key_press": -1, "trial_type": "single-stim", "trial_index": 13, "time_elapsed": 280275, "internal_node_id": "0.0-10.0-3.0"}}, {"uniqueid": "MTK0515:3U84XHCDIDKIHD93WTZYEXD4ZS04ZB", "current_trial": 14, "dateTime": 1511195695916, "trialdata": {"rt": -1, "stimulus": "<p id=\"stim\">6</p>", "key_press": -1, "trial_type": "single-stim", "trial_index": 14, "time_elapsed": 281278, "internal_node_id": "0.0-10.0-4.0"}}, {"uniqueid": "MTK0515:3U84XHCDIDKIHD93WTZYEXD4ZS04ZB", "current_trial": 15, "dateTime": 1511195696918, "trialdata": {"rt": -1, "stimulus": "<p id=\"stim\">5</p>", "key_press": -1, "trial_type": "single-stim", "trial_index": 15, "time_elapsed": 282281, "internal_node_id": "0.0-10.0-5.0"}}, {"uniqueid": "MTK0515:3U84XHCDIDKIHD93WTZYEXD4ZS04ZB", "current_trial": 16, "dateTime": 1511195697921, "trialdata": {"rt": -1, "stimulus": "<p id=\"stim\">4</p>", "key_press": -1, "trial_type": "single-stim", "trial_index": 16, "time_elapsed": 283284, "internal_node_id": "0.0-10.0-6.0"}}, {"uniqueid": "MTK0515:3U84XHCDIDKIHD93WTZYEXD4ZS04ZB", "current_trial": 17, "dateTime": 1511195698925, "trialdata": {"rt": -1, "stimulus": "<p id=\"stim\">3</p>", "key_press": -1, "trial_type": "single-stim", "trial_index": 17, "time_elapsed": 284288, "internal_node_id": "0.0-10.0-7.0"}}, {"uniqueid": "MTK0515:3U84XHCDIDKIHD93WTZYEXD4ZS04ZB", "current_trial": 18, "dateTime": 1511195699928, "trialdata": {"rt": -1, "stimulus": "<p id=\"stim\">2</p>", "key_press": -1, "trial_type": "single-stim", "trial_index": 18, "time_elapsed": 285290, "internal_node_id": "0.0-10.0-8.0"}}, {"uniqueid": "MTK0515:3U84XHCDIDKIHD93WTZYEXD4ZS04ZB", "current_trial": 19, "dateTime": 1511195700930, "trialdata": {"rt": -1, "stimulus": "<p id=\"stim\">1</p>", "key_press": -1, "trial_type": "single-stim", "trial_index": 19, "time_elapsed": 286293, "internal_node_id": "0.0-10.0-9.0"}}, {"uniqueid": "MTK0515:3U84XHCDIDKIHD93WTZYEXD4ZS04ZB", "current_trial": 20, "dateTime": 1511195702435, "trialdata": {"rt": -1, "stimulus": "<p id=\"stim\">+</p>", "key_press": -1, "type": "FIXATION", "trial_type": "single-stim", "trial_index": 20, "time_elapsed": 287797, "internal_node_id": "0.0-11.0-0.0"}}, {"uniqueid": "MTK0515:3U84XHCDIDKIHD93WTZYEXD4ZS04ZB", "current_trial": 21, "dateTime": 1511195704732, "trialdata": {"rt": -1000, "stimulus": "/static/audio/wordpool/CRIB.wav", "key_press": -1, "type": "PRES_AUD", "word": "crib", "wordID": 406, "conditions": [18, 1200, "a", 18000], "trial": 0, "serialpos": 0, "trial_type": "single-audio", "trial_index": 21, "time_elapsed": 290095, "internal_node_id": "0.0-12.0"}}, {"uniqueid": "MTK0515:3U84XHCDIDKIHD93WTZYEXD4ZS04ZB", "current_trial": 22, "dateTime": 1511195706892, "trialdata": {"rt": -1000, "stimulus": "/static/audio/wordpool/COUSIN.wav", "key_press": -1, "type": "PRES_AUD", "word": "cousin", "wordID": 391, "conditions": [18, 1200, "a", 18000], "trial": 0, "serialpos": 1, "trial_type": "single-audio", "trial_index": 22, "time_elapsed": 292255, "internal_node_id": "0.0-13.0"}}, {"uniqueid": "MTK0515:3U84XHCDIDKIHD93WTZYEXD4ZS04ZB", "current_trial": 23, "dateTime": 1511195709253, "trialdata": {"rt": -1000, "stimulus": "/static/audio/wordpool/GANGSTER.wav", "key_press": -1, "type": "PRES_AUD", "word": "gangster", "wordID": 619, "conditions": [18, 1200, "a", 18000], "trial": 0, "serialpos": 2, "trial_type": "single-audio", "trial_index": 23, "time_elapsed": 294615, "internal_node_id": "0.0-14.0"}}, {"uniqueid": "MTK0515:3U84XHCDIDKIHD93WTZYEXD4ZS04ZB", "current_trial": 24, "dateTime": 1511195711633, "trialdata": {"rt": -1000, "stimulus": "/static/audio/wordpool/WAGON.wav", "key_press": -1, "type": "PRES_AUD", "word": "wagon", "wordID": 1577, "conditions": [18, 1200, "a", 18000], "trial": 0, "serialpos": 3, "trial_type": "single-audio", "trial_index": 24, "time_elapsed": 296996, "internal_node_id": "0.0-15.0"}}, {"uniqueid": "MTK0515:3U84XHCDIDKIHD93WTZYEXD4ZS04ZB", "current_trial": 25, "dateTime": 1511195713690, "trialdata": {"rt": -1000, "stimulus": "/static/audio/wordpool/PIGEON.wav", "key_press": -1, "type": "PRES_AUD", "word": "pigeon", "wordID": 1064, "conditions": [18, 1200, "a", 18000], "trial": 0, "serialpos": 4, "trial_type": "single-audio", "trial_index": 25, "time_elapsed": 299053, "internal_node_id": "0.0-16.0"}}, {"uniqueid": "MTK0515:3U84XHCDIDKIHD93WTZYEXD4ZS04ZB", "current_trial": 26, "dateTime": 1511195715833, "trialdata": {"rt": -1000, "stimulus": "/static/audio/wordpool/HELMET.wav", "key_press": -1, "type": "PRES_AUD", "word": "helmet", "wordID": 701, "conditions": [18, 1200, "a", 18000], "trial": 0, "serialpos": 5, "trial_type": "single-audio", "trial_index": 26, "time_elapsed": 301196, "internal_node_id": "0.0-17.0"}}, {"uniqueid": "MTK0515:3U84XHCDIDKIHD93WTZYEXD4ZS04ZB", "current_trial": 27, "dateTime": 1511195717910, "trialdata": {"rt": -1000, "stimulus": "/static/audio/wordpool/MARROW.wav", "key_press": -1, "type": "PRES_AUD", "word": "marrow", "wordID": 871, "conditions": [18, 1200, "a", 18000], "trial": 0, "serialpos": 6, "trial_type": "single-audio", "trial_index": 27, "time_elapsed": 303273, "internal_node_id": "0.0-18.0"}}, {"uniqueid": "MTK0515:3U84XHCDIDKIHD93WTZYEXD4ZS04ZB", "current_trial": 28, "dateTime": 1511195720047, "trialdata": {"rt": -1000, "stimulus": "/static/audio/wordpool/OX.wav", "key_press": -1, "type": "PRES_AUD", "word": "ox", "wordID": 993, "conditions": [18, 1200, "a", 18000], "trial": 0, "serialpos": 7, "trial_type": "single-audio", "trial_index": 28, "time_elapsed": 305410, "internal_node_id": "0.0-19.0"}}, {"uniqueid": "MTK0515:3U84XHCDIDKIHD93WTZYEXD4ZS04ZB", "current_trial": 29, "dateTime": 1511195722050, "trialdata": {"rt": -1000, "stimulus": "/static/audio/wordpool/DASHBOARD.wav", "key_press": -1, "type": "PRES_AUD", "word": "dashboard", "wordID": 440, "conditions": [18, 1200, "a", 18000], "trial": 0, "serialpos": 8, "trial_type": "single-audio", "trial_index": 29, "time_elapsed": 307412, "internal_node_id": "0.0-20.0"}}, {"uniqueid": "MTK0515:3U84XHCDIDKIHD93WTZYEXD4ZS04ZB", "current_trial": 30, "dateTime": 1511195724217, "trialdata": {"rt": -1000, "stimulus": "/static/audio/wordpool/TERMITE.wav", "key_press": -1, "type": "PRES_AUD", "word": "termite", "wordID": 1450, "conditions": [18, 1200, "a", 18000], "trial": 0, "serialpos": 9, "trial_type": "single-audio", "trial_index": 30, "time_elapsed": 309580, "internal_node_id": "0.0-21.0"}}, {"uniqueid": "MTK0515:3U84XHCDIDKIHD93WTZYEXD4ZS04ZB", "current_trial": 31, "dateTime": 1511195726587, "trialdata": {"rt": -1000, "stimulus": "/static/audio/wordpool/GAVEL.wav", "key_press": -1, "type": "PRES_AUD", "word": "gavel", "wordID": 626, "conditions": [18, 1200, "a", 18000], "trial": 0, "serialpos": 10, "trial_type": "single-audio", "trial_index": 31, "time_elapsed": 311950, "internal_node_id": "0.0-22.0"}}, {"uniqueid": "MTK0515:3U84XHCDIDKIHD93WTZYEXD4ZS04ZB", "current_trial": 32, "dateTime": 1511195728731, "trialdata": {"rt": -1000, "stimulus": "/static/audio/wordpool/BADGE.wav", "key_press": -1, "type": "PRES_AUD", "word": "badge", "wordID": 67, "conditions": [18, 1200, "a", 18000], "trial": 0, "serialpos": 11, "trial_type": "single-audio", "trial_index": 32, "time_elapsed": 314094, "internal_node_id": "0.0-23.0"}}, {"uniqueid": "MTK0515:3U84XHCDIDKIHD93WTZYEXD4ZS04ZB", "current_trial": 33, "dateTime": 1511195730877, "trialdata": {"rt": -1000, "stimulus": "/static/audio/wordpool/SUSPECT.wav", "key_press": -1, "type": "PRES_AUD", "word": "suspect", "wordID": 1414, "conditions": [18, 1200, "a", 18000], "trial": 0, "serialpos": 12, "trial_type": "single-audio", "trial_index": 33, "time_elapsed": 316240, "internal_node_id": "0.0-24.0"}}, {"uniqueid": "MTK0515:3U84XHCDIDKIHD93WTZYEXD4ZS04ZB", "current_trial": 34, "dateTime": 1511195733060, "trialdata": {"rt": -1000, "stimulus": "/static/audio/wordpool/PUDDING.wav", "key_press": -1, "type": "PRES_AUD", "word": "pudding", "wordID": 1138, "conditions": [18, 1200, "a", 18000], "trial": 0, "serialpos": 13, "trial_type": "single-audio", "trial_index": 34, "time_elapsed": 318422, "internal_node_id": "0.0-25.0"}}, {"uniqueid": "MTK0515:3U84XHCDIDKIHD93WTZYEXD4ZS04ZB", "current_trial": 35, "dateTime": 1511195735172, "trialdata": {"rt": -1000, "stimulus": "/static/audio/wordpool/LIPSTICK.wav", "key_press": -1, "type": "PRES_AUD", "word": "lipstick", "wordID": 828, "conditions": [18, 1200, "a", 18000], "trial": 0, "serialpos": 14, "trial_type": "single-audio", "trial_index": 35, "time_elapsed": 320534, "internal_node_id": "0.0-26.0"}}, {"uniqueid": "MTK0515:3U84XHCDIDKIHD93WTZYEXD4ZS04ZB", "current_trial": 36, "dateTime": 1511195737316, "trialdata": {"rt": -1000, "stimulus": "/static/audio/wordpool/DRESSER.wav", "key_press": -1, "type": "PRES_AUD", "word": "dresser", "wordID": 495, "conditions": [18, 1200, "a", 18000], "trial": 0, "serialpos": 15, "trial_type": "single-audio", "trial_index": 36, "time_elapsed": 322678, "internal_node_id": "0.0-27.0"}}, {"uniqueid": "MTK0515:3U84XHCDIDKIHD93WTZYEXD4ZS04ZB", "current_trial": 37, "dateTime": 1511195739589, "trialdata": {"rt": -1000, "stimulus": "/static/audio/wordpool/BOUQUET.wav", "key_press": -1, "type": "PRES_AUD", "word": "bouquet", "wordID": 156, "conditions": [18, 1200, "a", 18000], "trial": 0, "serialpos": 16, "trial_type": "single-audio", "trial_index": 37, "time_elapsed": 324951, "internal_node_id": "0.0-28.0"}}, {"uniqueid": "MTK0515:3U84XHCDIDKIHD93WTZYEXD4ZS04ZB", "current_trial": 38, "dateTime": 1511195741907, "trialdata": {"rt": -1000, "stimulus": "/static/audio/wordpool/FILM.wav", "key_press": -1, "type": "PRES_AUD", "word": "film", "wordID": 564, "conditions": [18, 1200, "a", 18000], "trial": 0, "serialpos": 17, "trial_type": "single-audio", "trial_index": 38, "time_elapsed": 327270, "internal_node_id": "0.0-29.0"}}, {"uniqueid": "MTK0515:3U84XHCDIDKIHD93WTZYEXD4ZS04ZB", "current_trial": 39, "dateTime": 1511195743201, "trialdata": {"rt": -1, "stimulus": "", "key_press": -1, "type": "PRE_RECALL_DELAY", "trial_type": "single-stim", "trial_index": 39, "time_elapsed": 328563, "internal_node_id": "0.0-30.0-0.0"}}, {"uniqueid": "MTK0515:3U84XHCDIDKIHD93WTZYEXD4ZS04ZB", "current_trial": 40, "dateTime": 1511195743703, "trialdata": {"rt": -1000, "stimulus": "/static/audio/400Hz.wav", "key_press": -1, "type": "PRE_RECALL_ALERT", "trial_type": "single-audio", "trial_index": 40, "time_elapsed": 329065, "internal_node_id": "0.0-31.0"}}, {"uniqueid": "MTK0515:3U84XHCDIDKIHD93WTZYEXD4ZS04ZB", "current_trial": 41, "dateTime": 1511195803724, "trialdata": {"rt": [3219, 7344, 10651, 12062, 13111, 22647, 48219, 55780], "recwords": ["crib", "gangster", "lipstick", "pudding", "film", "bouqet", "gavel", ""], "type": "FREE_RECALL", "conditions": [18, 1200, "a", 18000], "trial": 0, "trial_type": "free-recall", "trial_index": 41, "time_elapsed": 389075, "internal_node_id": "0.0-32.0-0.0"}}, {"uniqueid": "MTK0515:3U84XHCDIDKIHD93WTZYEXD4ZS04ZB", "current_trial": 42, "dateTime": 1511195807645, "trialdata": {"rt": 1917, "key_press": 32, "type": "INSTRUCTIONS", "trial_type": "text", "trial_index": 42, "time_elapsed": 393008, "internal_node_id": "0.0-33.0"}}, {"uniqueid": "MTK0515:3U84XHCDIDKIHD93WTZYEXD4ZS04ZB", "current_trial": 43, "dateTime": 1511195827652, "trialdata": {"rt": [6777, 11553, 14329, 17211], "responses": ["21", "17", "17", "18"], "num1": [8, 9, 5, 8, 7], "num2": [7, 2, 4, 4, 2], "num3": [6, 6, 8, 6, 2], "type": "DISTRACTOR", "conditions": [18, 1200, "v", 18000], "trial": 1, "trial_type": "math-distractor", "trial_index": 43, "time_elapsed": 413014, "internal_node_id": "0.0-34.0"}}, {"uniqueid": "MTK0515:3U84XHCDIDKIHD93WTZYEXD4ZS04ZB", "current_trial": 44, "dateTime": 1511195830656, "trialdata": {"rt": -1, "stimulus": "<p id=\"stim\">10</p>", "key_press": -1, "trial_type": "single-stim", "trial_index": 44, "time_elapsed": 416019, "internal_node_id": "0.0-35.0-0.0"}}, {"uniqueid": "MTK0515:3U84XHCDIDKIHD93WTZYEXD4ZS04ZB", "current_trial": 45, "dateTime": 1511195831659, "trialdata": {"rt": -1, "stimulus": "<p id=\"stim\">9</p>", "key_press": -1, "trial_type": "single-stim", "trial_index": 45, "time_elapsed": 417022, "internal_node_id": "0.0-35.0-1.0"}}, {"uniqueid": "MTK0515:3U84XHCDIDKIHD93WTZYEXD4ZS04ZB", "current_trial": 46, "dateTime": 1511195832662, "trialdata": {"rt": -1, "stimulus": "<p id=\"stim\">8</p>", "key_press": -1, "trial_type": "single-stim", "trial_index": 46, "time_elapsed": 418025, "internal_node_id": "0.0-35.0-2.0"}}, {"uniqueid": "MTK0515:3U84XHCDIDKIHD93WTZYEXD4ZS04ZB", "current_trial": 47, "dateTime": 1511195833665, "trialdata": {"rt": -1, "stimulus": "<p id=\"stim\">7</p>", "key_press": -1, "trial_type": "single-stim", "trial_index": 47, "time_elapsed": 419028, "internal_node_id": "0.0-35.0-3.0"}}, {"uniqueid": "MTK0515:3U84XHCDIDKIHD93WTZYEXD4ZS04ZB", "current_trial": 48, "dateTime": 1511195834669, "trialdata": {"rt": -1, "stimulus": "<p id=\"stim\">6</p>", "key_press": -1, "trial_type": "single-stim", "trial_index": 48, "time_elapsed": 420031, "internal_node_id": "0.0-35.0-4.0"}}, {"uniqueid": "MTK0515:3U84XHCDIDKIHD93WTZYEXD4ZS04ZB", "current_trial": 49, "dateTime": 1511195835672, "trialdata": {"rt": -1, "stimulus": "<p id=\"stim\">5</p>", "key_press": -1, "trial_type": "single-stim", "trial_index": 49, "time_elapsed": 421035, "internal_node_id": "0.0-35.0-5.0"}}, {"uniqueid": "MTK0515:3U84XHCDIDKIHD93WTZYEXD4ZS04ZB", "current_trial": 50, "dateTime": 1511195836676, "trialdata": {"rt": -1, "stimulus": "<p id=\"stim\">4</p>", "key_press": -1, "trial_type": "single-stim", "trial_index": 50, "time_elapsed": 422038, "internal_node_id": "0.0-35.0-6.0"}}, {"uniqueid": "MTK0515:3U84XHCDIDKIHD93WTZYEXD4ZS04ZB", "current_trial": 51, "dateTime": 1511195837679, "trialdata": {"rt": -1, "stimulus": "<p id=\"stim\">3</p>", "key_press": -1, "trial_type": "single-stim", "trial_index": 51, "time_elapsed": 423042, "internal_node_id": "0.0-35.0-7.0"}}, {"uniqueid": "MTK0515:3U84XHCDIDKIHD93WTZYEXD4ZS04ZB", "current_trial": 52, "dateTime": 1511195838682, "trialdata": {"rt": -1, "stimulus": "<p id=\"stim\">2</p>", "key_press": -1, "trial_type": "single-stim", "trial_index": 52, "time_elapsed": 424045, "internal_node_id": "0.0-35.0-8.0"}}, {"uniqueid": "MTK0515:3U84XHCDIDKIHD93WTZYEXD4ZS04ZB", "current_trial": 53, "dateTime": 1511195839685, "trialdata": {"rt": -1, "stimulus": "<p id=\"stim\">1</p>", "key_press": -1, "trial_type": "single-stim", "trial_index": 53, "time_elapsed": 425048, "internal_node_id": "0.0-35.0-9.0"}}, {"uniqueid": "MTK0515:3U84XHCDIDKIHD93WTZYEXD4ZS04ZB", "current_trial": 54, "dateTime": 1511195841188, "trialdata": {"rt": -1, "stimulus": "<p id=\"stim\">+</p>", "key_press": -1, "type": "FIXATION", "trial_type": "single-stim", "trial_index": 54, "time_elapsed": 426551, "internal_node_id": "0.0-36.0-0.0"}}, {"uniqueid": "MTK0515:3U84XHCDIDKIHD93WTZYEXD4ZS04ZB", "current_trial": 55, "dateTime": 1511195842391, "trialdata": {"rt": -1, "stimulus": "<p id=\"stim\">PRIMATE</p>", "key_press": -1, "type": "PRES_VIS", "word": "primate", "wordID": 1122, "conditions": [18, 1200, "v", 18000], "trial": 1, "serialpos": 0, "trial_type": "single-stim", "trial_index": 55, "time_elapsed": 427754, "internal_node_id": "0.0-37.0"}}, {"uniqueid": "MTK0515:3U84XHCDIDKIHD93WTZYEXD4ZS04ZB", "current_trial": 56, "dateTime": 1511195844478, "trialdata": {"rt": -1, "stimulus": "<p id=\"stim\">PLAYGROUND</p>", "key_press": -1, "type": "PRES_VIS", "word": "playground", "wordID": 1086, "conditions": [18, 1200, "v", 18000], "trial": 1, "serialpos": 1, "trial_type": "single-stim", "trial_index": 56, "time_elapsed": 429840, "internal_node_id": "0.0-38.0"}}, {"uniqueid": "MTK0515:3U84XHCDIDKIHD93WTZYEXD4ZS04ZB", "current_trial": 57, "dateTime": 1511195846560, "trialdata": {"rt": -1, "stimulus": "<p id=\"stim\">FOOTBALL</p>", "key_press": -1, "type": "PRES_VIS", "word": "football", "wordID": 590, "conditions": [18, 1200, "v", 18000], "trial": 1, "serialpos": 2, "trial_type": "single-stim", "trial_index": 57, "time_elapsed": 431923, "internal_node_id": "0.0-39.0"}}, {"uniqueid": "MTK0515:3U84XHCDIDKIHD93WTZYEXD4ZS04ZB", "current_trial": 58, "dateTime": 1511195848866, "trialdata": {"rt": -1, "stimulus": "<p id=\"stim\">SILK</p>", "key_press": -1, "type": "PRES_VIS", "word": "silk", "wordID": 1306, "conditions": [18, 1200, "v", 18000], "trial": 1, "serialpos": 3, "trial_type": "single-stim", "trial_index": 58, "time_elapsed": 434229, "internal_node_id": "0.0-40.0"}}, {"uniqueid": "MTK0515:3U84XHCDIDKIHD93WTZYEXD4ZS04ZB", "current_trial": 59, "dateTime": 1511195851060, "trialdata": {"rt": -1, "stimulus": "<p id=\"stim\">SCISSORS</p>", "key_press": -1, "type": "PRES_VIS", "word": "scissors", "wordID": 1249, "conditions": [18, 1200, "v", 18000], "trial": 1, "serialpos": 4, "trial_type": "single-stim", "trial_index": 59, "time_elapsed": 436423, "internal_node_id": "0.0-41.0"}}, {"uniqueid": "MTK0515:3U84XHCDIDKIHD93WTZYEXD4ZS04ZB", "current_trial": 60, "dateTime": 1511195853135, "trialdata": {"rt": -1, "stimulus": "<p id=\"stim\">CASKET</p>", "key_press": -1, "type": "PRES_VIS", "word": "casket", "wordID": 254, "conditions": [18, 1200, "v", 18000], "trial": 1, "serialpos": 5, "trial_type": "single-stim", "trial_index": 60, "time_elapsed": 438498, "internal_node_id": "0.0-42.0"}}, {"uniqueid": "MTK0515:3U84XHCDIDKIHD93WTZYEXD4ZS04ZB", "current_trial": 61, "dateTime": 1511195855242, "trialdata": {"rt": -1, "stimulus": "<p id=\"stim\">ZIPPER</p>", "key_press": -1, "type": "PRES_VIS", "word": "zipper", "wordID": 1635, "conditions": [18, 1200, "v", 18000], "trial": 1, "serialpos": 6, "trial_type": "single-stim", "trial_index": 61, "time_elapsed": 440604, "internal_node_id": "0.0-43.0"}}, {"uniqueid": "MTK0515:3U84XHCDIDKIHD93WTZYEXD4ZS04ZB", "current_trial": 62, "dateTime": 1511195857427, "trialdata": {"rt": -1, "stimulus": "<p id=\"stim\">ROOSTER</p>", "key_press": -1, "type": "PRES_VIS", "word": "rooster", "wordID": 1208, "conditions": [18, 1200, "v", 18000], "trial": 1, "serialpos": 7, "trial_type": "single-stim", "trial_index": 62, "time_elapsed": 442790, "internal_node_id": "0.0-44.0"}}, {"uniqueid": "MTK0515:3U84XHCDIDKIHD93WTZYEXD4ZS04ZB", "current_trial": 63, "dateTime": 1511195859639, "trialdata": {"rt": -1, "stimulus": "<p id=\"stim\">SKILLET</p>", "key_press": -1, "type": "PRES_VIS", "word": "skillet", "wordID": 1316, "conditions": [18, 1200, "v", 18000], "trial": 1, "serialpos": 8, "trial_type": "single-stim", "trial_index": 63, "time_elapsed": 445001, "internal_node_id": "0.0-45.0"}}, {"uniqueid": "MTK0515:3U84XHCDIDKIHD93WTZYEXD4ZS04ZB", "current_trial": 64, "dateTime": 1511195862040, "trialdata": {"rt": -1, "stimulus": "<p id=\"stim\">SOFTBALL</p>", "key_press": -1, "type": "PRES_VIS", "word": "softball", "wordID": 1342, "conditions": [18, 1200, "v", 18000], "trial": 1, "serialpos": 9, "trial_type": "single-stim", "trial_index": 64, "time_elapsed": 447402, "internal_node_id": "0.0-46.0"}}, {"uniqueid": "MTK0515:3U84XHCDIDKIHD93WTZYEXD4ZS04ZB", "current_trial": 65, "dateTime": 1511195864232, "trialdata": {"rt": -1, "stimulus": "<p id=\"stim\">EXPERT</p>", "key_press": -1, "type": "PRES_VIS", "word": "expert", "wordID": 542, "conditions": [18, 1200, "v", 18000], "trial": 1, "serialpos": 10, "trial_type": "single-stim", "trial_index": 65, "time_elapsed": 449595, "internal_node_id": "0.0-47.0"}}, {"uniqueid": "MTK0515:3U84XHCDIDKIHD93WTZYEXD4ZS04ZB", "current_trial": 66, "dateTime": 1511195866261, "trialdata": {"rt": -1, "stimulus": "<p id=\"stim\">PREACHER</p>", "key_press": -1, "type": "PRES_VIS", "word": "preacher", "wordID": 1118, "conditions": [18, 1200, "v", 18000], "trial": 1, "serialpos": 11, "trial_type": "single-stim", "trial_index": 66, "time_elapsed": 451624, "internal_node_id": "0.0-48.0"}}, {"uniqueid": "MTK0515:3U84XHCDIDKIHD93WTZYEXD4ZS04ZB", "current_trial": 67, "dateTime": 1511195868367, "trialdata": {"rt": -1, "stimulus": "<p id=\"stim\">HOSTESS</p>", "key_press": -1, "type": "PRES_VIS", "word": "hostess", "wordID": 722, "conditions": [18, 1200, "v", 18000], "trial": 1, "serialpos": 12, "trial_type": "single-stim", "trial_index": 67, "time_elapsed": 453729, "internal_node_id": "0.0-49.0"}}, {"uniqueid": "MTK0515:3U84XHCDIDKIHD93WTZYEXD4ZS04ZB", "current_trial": 68, "dateTime": 1511195870639, "trialdata": {"rt": -1, "stimulus": "<p id=\"stim\">SCOTCH</p>", "key_press": -1, "type": "PRES_VIS", "word": "scotch", "wordID": 1250, "conditions": [18, 1200, "v", 18000], "trial": 1, "serialpos": 13, "trial_type": "single-stim", "trial_index": 68, "time_elapsed": 455990, "internal_node_id": "0.0-50.0"}}, {"uniqueid": "MTK0515:3U84XHCDIDKIHD93WTZYEXD4ZS04ZB", "current_trial": 69, "dateTime": 1511195873000, "trialdata": {"rt": -1, "stimulus": "<p id=\"stim\">AUTHOR</p>", "key_press": -1, "type": "PRES_VIS", "word": "author", "wordID": 60, "conditions": [18, 1200, "v", 18000], "trial": 1, "serialpos": 14, "trial_type": "single-stim", "trial_index": 69, "time_elapsed": 458363, "internal_node_id": "0.0-51.0"}}, {"uniqueid": "MTK0515:3U84XHCDIDKIHD93WTZYEXD4ZS04ZB", "current_trial": 70, "dateTime": 1511195875386, "trialdata": {"rt": -1, "stimulus": "<p id=\"stim\">JELLO</p>", "key_press": -1, "type": "PRES_VIS", "word": "jello", "wordID": 753, "conditions": [18, 1200, "v", 18000], "trial": 1, "serialpos": 15, "trial_type": "single-stim", "trial_index": 70, "time_elapsed": 460749, "internal_node_id": "0.0-52.0"}}, {"uniqueid": "MTK0515:3U84XHCDIDKIHD93WTZYEXD4ZS04ZB", "current_trial": 71, "dateTime": 1511195877635, "trialdata": {"rt": -1, "stimulus": "<p id=\"stim\">PROTON</p>", "key_press": -1, "type": "PRES_VIS", "word": "proton", "wordID": 1131, "conditions": [18, 1200, "v", 18000], "trial": 1, "serialpos": 16, "trial_type": "single-stim", "trial_index": 71, "time_elapsed": 462998, "internal_node_id": "0.0-53.0"}}, {"uniqueid": "MTK0515:3U84XHCDIDKIHD93WTZYEXD4ZS04ZB", "current_trial": 72, "dateTime": 1511195879656, "trialdata": {"rt": -1, "stimulus": "<p id=\"stim\">APRON</p>", "key_press": -1, "type": "PRES_VIS", "word": "apron", "wordID": 34, "conditions": [18, 1200, "v", 18000], "trial": 1, "serialpos": 17, "trial_type": "single-stim", "trial_index": 72, "time_elapsed": 465019, "internal_node_id": "0.0-54.0"}}, {"uniqueid": "MTK0515:3U84XHCDIDKIHD93WTZYEXD4ZS04ZB", "current_trial": 73, "dateTime": 1511195882107, "trialdata": {"rt": -1, "stimulus": "", "key_press": -1, "type": "PRE_RECALL_DELAY", "trial_type": "single-stim", "trial_index": 73, "time_elapsed": 467469, "internal_node_id": "0.0-55.0-0.0"}}, {"uniqueid": "MTK0515:3U84XHCDIDKIHD93WTZYEXD4ZS04ZB", "current_trial": 74, "dateTime": 1511195882610, "trialdata": {"rt": -1000, "stimulus": "/static/audio/400Hz.wav", "key_press": -1, "type": "PRE_RECALL_ALERT", "trial_type": "single-audio", "trial_index": 74, "time_elapsed": 467972, "internal_node_id": "0.0-56.0"}}, {"uniqueid": "MTK0515:3U84XHCDIDKIHD93WTZYEXD4ZS04ZB", "current_trial": 75, "dateTime": 1511195942620, "trialdata": {"rt": [2971, 5010, 6434, 8732, 12785], "recwords": ["apron", "proton", "silk", "playground", "protest"], "type": "FREE_RECALL", "conditions": [18, 1200, "v", 18000], "trial": 1, "trial_type": "free-recall", "trial_index": 75, "time_elapsed": 527979, "internal_node_id": "0.0-57.0-0.0"}}, {"uniqueid": "MTK0515:3U84XHCDIDKIHD93WTZYEXD4ZS04ZB", "current_trial": 76, "dateTime": 1511195947040, "trialdata": {"rt": 2401, "key_press": 32, "type": "INSTRUCTIONS", "trial_type": "text", "trial_index": 76, "time_elapsed": 532387, "internal_node_id": "0.0-58.0"}}, {"uniqueid": "MTK0515:3U84XHCDIDKIHD93WTZYEXD4ZS04ZB", "current_trial": 77, "dateTime": 1511195972046, "trialdata": {"rt": [4720, 7898, 11203, 14533, 16797, 20523], "responses": ["7", "19", "18", "20", "14", "9"], "num1": [2, 7, 4, 6, 1, 3, 7], "num2": [3, 8, 8, 6, 6, 2, 8], "num3": [2, 4, 6, 8, 7, 4, 8], "type": "DISTRACTOR", "conditions": [24, 1600, "v", 24000], "trial": 2, "trial_type": "math-distractor", "trial_index": 77, "time_elapsed": 557409, "internal_node_id": "0.0-59.0"}}, {"uniqueid": "MTK0515:3U84XHCDIDKIHD93WTZYEXD4ZS04ZB", "current_trial": 78, "dateTime": 1511195975049, "trialdata": {"rt": -1, "stimulus": "<p id=\"stim\">10</p>", "key_press": -1, "trial_type": "single-stim", "trial_index": 78, "time_elapsed": 560412, "internal_node_id": "0.0-60.0-0.0"}}, {"uniqueid": "MTK0515:3U84XHCDIDKIHD93WTZYEXD4ZS04ZB", "current_trial": 79, "dateTime": 1511195976052, "trialdata": {"rt": -1, "stimulus": "<p id=\"stim\">9</p>", "key_press": -1, "trial_type": "single-stim", "trial_index": 79, "time_elapsed": 561415, "internal_node_id": "0.0-60.0-1.0"}}, {"uniqueid": "MTK0515:3U84XHCDIDKIHD93WTZYEXD4ZS04ZB", "current_trial": 80, "dateTime": 1511195977054, "trialdata": {"rt": -1, "stimulus": "<p id=\"stim\">8</p>", "key_press": -1, "trial_type": "single-stim", "trial_index": 80, "time_elapsed": 562417, "internal_node_id": "0.0-60.0-2.0"}}, {"uniqueid": "MTK0515:3U84XHCDIDKIHD93WTZYEXD4ZS04ZB", "current_trial": 81, "dateTime": 1511195978057, "trialdata": {"rt": -1, "stimulus": "<p id=\"stim\">7</p>", "key_press": -1, "trial_type": "single-stim", "trial_index": 81, "time_elapsed": 563420, "internal_node_id": "0.0-60.0-3.0"}}, {"uniqueid": "MTK0515:3U84XHCDIDKIHD93WTZYEXD4ZS04ZB", "current_trial": 82, "dateTime": 1511195979059, "trialdata": {"rt": -1, "stimulus": "<p id=\"stim\">6</p>", "key_press": -1, "trial_type": "single-stim", "trial_index": 82, "time_elapsed": 564422, "internal_node_id": "0.0-60.0-4.0"}}, {"uniqueid": "MTK0515:3U84XHCDIDKIHD93WTZYEXD4ZS04ZB", "current_trial": 83, "dateTime": 1511195980062, "trialdata": {"rt": -1, "stimulus": "<p id=\"stim\">5</p>", "key_press": -1, "trial_type": "single-stim", "trial_index": 83, "time_elapsed": 565425, "internal_node_id": "0.0-60.0-5.0"}}, {"uniqueid": "MTK0515:3U84XHCDIDKIHD93WTZYEXD4ZS04ZB", "current_trial": 84, "dateTime": 1511195981064, "trialdata": {"rt": -1, "stimulus": "<p id=\"stim\">4</p>", "key_press": -1, "trial_type": "single-stim", "trial_index": 84, "time_elapsed": 566427, "internal_node_id": "0.0-60.0-6.0"}}, {"uniqueid": "MTK0515:3U84XHCDIDKIHD93WTZYEXD4ZS04ZB", "current_trial": 85, "dateTime": 1511195982067, "trialdata": {"rt": -1, "stimulus": "<p id=\"stim\">3</p>", "key_press": -1, "trial_type": "single-stim", "trial_index": 85, "time_elapsed": 567429, "internal_node_id": "0.0-60.0-7.0"}}, {"uniqueid": "MTK0515:3U84XHCDIDKIHD93WTZYEXD4ZS04ZB", "current_trial": 86, "dateTime": 1511195983069, "trialdata": {"rt": -1, "stimulus": "<p id=\"stim\">2</p>", "key_press": -1, "trial_type": "single-stim", "trial_index": 86, "time_elapsed": 568432, "internal_node_id": "0.0-60.0-8.0"}}, {"uniqueid": "MTK0515:3U84XHCDIDKIHD93WTZYEXD4ZS04ZB", "current_trial": 87, "dateTime": 1511195984072, "trialdata": {"rt": -1, "stimulus": "<p id=\"stim\">1</p>", "key_press": -1, "trial_type": "single-stim", "trial_index": 87, "time_elapsed": 569434, "internal_node_id": "0.0-60.0-9.0"}}, {"uniqueid": "MTK0515:3U84XHCDIDKIHD93WTZYEXD4ZS04ZB", "current_trial": 88, "dateTime": 1511195985575, "trialdata": {"rt": -1, "stimulus": "<p id=\"stim\">+</p>", "key_press": -1, "type": "FIXATION", "trial_type": "single-stim", "trial_index": 88, "time_elapsed": 570938, "internal_node_id": "0.0-61.0-0.0"}}, {"uniqueid": "MTK0515:3U84XHCDIDKIHD93WTZYEXD4ZS04ZB", "current_trial": 89, "dateTime": 1511195987178, "trialdata": {"rt": -1, "stimulus": "<p id=\"stim\">SPOOL</p>", "key_press": -1, "type": "PRES_VIS", "word": "spool", "wordID": 1355, "conditions": [24, 1600, "v", 24000], "trial": 2, "serialpos": 0, "trial_type": "single-stim", "trial_index": 89, "time_elapsed": 572541, "internal_node_id": "0.0-62.0"}}, {"uniqueid": "MTK0515:3U84XHCDIDKIHD93WTZYEXD4ZS04ZB", "current_trial": 90, "dateTime": 1511195989875, "trialdata": {"rt": -1, "stimulus": "<p id=\"stim\">SLUG</p>", "key_press": -1, "type": "PRES_VIS", "word": "slug", "wordID": 1328, "conditions": [24, 1600, "v", 24000], "trial": 2, "serialpos": 1, "trial_type": "single-stim", "trial_index": 90, "time_elapsed": 575237, "internal_node_id": "0.0-63.0"}}, {"uniqueid": "MTK0515:3U84XHCDIDKIHD93WTZYEXD4ZS04ZB", "current_trial": 91, "dateTime": 1511195992317, "trialdata": {"rt": -1, "stimulus": "<p id=\"stim\">TAXI</p>", "key_press": -1, "type": "PRES_VIS", "word": "taxi", "wordID": 1437, "conditions": [24, 1600, "v", 24000], "trial": 2, "serialpos": 2, "trial_type": "single-stim", "trial_index": 91, "time_elapsed": 577679, "internal_node_id": "0.0-64.0"}}, {"uniqueid": "MTK0515:3U84XHCDIDKIHD93WTZYEXD4ZS04ZB", "current_trial": 92, "dateTime": 1511195995076, "trialdata": {"rt": -1, "stimulus": "<p id=\"stim\">ROD</p>", "key_press": -1, "type": "PRES_VIS", "word": "rod", "wordID": 1202, "conditions": [24, 1600, "v", 24000], "trial": 2, "serialpos": 3, "trial_type": "single-stim", "trial_index": 92, "time_elapsed": 580439, "internal_node_id": "0.0-65.0"}}, {"uniqueid": "MTK0515:3U84XHCDIDKIHD93WTZYEXD4ZS04ZB", "current_trial": 93, "dateTime": 1511195997535, "trialdata": {"rt": -1, "stimulus": "<p id=\"stim\">LAKE</p>", "key_press": -1, "type": "PRES_VIS", "word": "lake", "wordID": 795, "conditions": [24, 1600, "v", 24000], "trial": 2, "serialpos": 4, "trial_type": "single-stim", "trial_index": 93, "time_elapsed": 582898, "internal_node_id": "0.0-66.0"}}, {"uniqueid": "MTK0515:3U84XHCDIDKIHD93WTZYEXD4ZS04ZB", "current_trial": 94, "dateTime": 1511196000316, "trialdata": {"rt": -1, "stimulus": "<p id=\"stim\">ARM</p>", "key_press": -1, "type": "PRES_VIS", "word": "arm", "wordID": 37, "conditions": [24, 1600, "v", 24000], "trial": 2, "serialpos": 5, "trial_type": "single-stim", "trial_index": 94, "time_elapsed": 585679, "internal_node_id": "0.0-67.0"}}, {"uniqueid": "MTK0515:3U84XHCDIDKIHD93WTZYEXD4ZS04ZB", "current_trial": 95, "dateTime": 1511196003029, "trialdata": {"rt": -1, "stimulus": "<p id=\"stim\">PENGUIN</p>", "key_press": -1, "type": "PRES_VIS", "word": "penguin", "wordID": 1043, "conditions": [24, 1600, "v", 24000], "trial": 2, "serialpos": 6, "trial_type": "single-stim", "trial_index": 95, "time_elapsed": 588392, "internal_node_id": "0.0-68.0"}}, {"uniqueid": "MTK0515:3U84XHCDIDKIHD93WTZYEXD4ZS04ZB", "current_trial": 96, "dateTime": 1511196005505, "trialdata": {"rt": -1, "stimulus": "<p id=\"stim\">TURKEY</p>", "key_press": -1, "type": "PRES_VIS", "word": "turkey", "wordID": 1519, "conditions": [24, 1600, "v", 24000], "trial": 2, "serialpos": 7, "trial_type": "single-stim", "trial_index": 96, "time_elapsed": 590867, "internal_node_id": "0.0-69.0"}}, {"uniqueid": "MTK0515:3U84XHCDIDKIHD93WTZYEXD4ZS04ZB", "current_trial": 97, "dateTime": 1511196008104, "trialdata": {"rt": -1, "stimulus": "<p id=\"stim\">QUAIL</p>", "key_press": -1, "type": "PRES_VIS", "word": "quail", "wordID": 1146, "conditions": [24, 1600, "v", 24000], "trial": 2, "serialpos": 8, "trial_type": "single-stim", "trial_index": 97, "time_elapsed": 593467, "internal_node_id": "0.0-70.0"}}, {"uniqueid": "MTK0515:3U84XHCDIDKIHD93WTZYEXD4ZS04ZB", "current_trial": 98, "dateTime": 1511196010688, "trialdata": {"rt": -1, "stimulus": "<p id=\"stim\">DONKEY</p>", "key_press": -1, "type": "PRES_VIS", "word": "donkey", "wordID": 483, "conditions": [24, 1600, "v", 24000], "trial": 2, "serialpos": 9, "trial_type": "single-stim", "trial_index": 98, "time_elapsed": 596051, "internal_node_id": "0.0-71.0"}}, {"uniqueid": "MTK0515:3U84XHCDIDKIHD93WTZYEXD4ZS04ZB", "current_trial": 99, "dateTime": 1511196013323, "trialdata": {"rt": -1, "stimulus": "<p id=\"stim\">AIRPLANE</p>", "key_press": -1, "type": "PRES_VIS", "word": "airplane", "wordID": 11, "conditions": [24, 1600, "v", 24000], "trial": 2, "serialpos": 10, "trial_type": "single-stim", "trial_index": 99, "time_elapsed": 598686, "internal_node_id": "0.0-72.0"}}, {"uniqueid": "MTK0515:3U84XHCDIDKIHD93WTZYEXD4ZS04ZB", "current_trial": 100, "dateTime": 1511196015883, "trialdata": {"rt": -1, "stimulus": "<p id=\"stim\">TILE</p>", "key_press": -1, "type": "PRES_VIS", "word": "tile", "wordID": 1467, "conditions": [24, 1600, "v", 24000], "trial": 2, "serialpos": 11, "trial_type": "single-stim", "trial_index": 100, "time_elapsed": 601246, "internal_node_id": "0.0-73.0"}}, {"uniqueid": "MTK0515:3U84XHCDIDKIHD93WTZYEXD4ZS04ZB", "current_trial": 101, "dateTime": 1511196018382, "trialdata": {"rt": -1, "stimulus": "<p id=\"stim\">HERO</p>", "key_press": -1, "type": "PRES_VIS", "word": "hero", "wordID": 705, "conditions": [24, 1600, "v", 24000], "trial": 2, "serialpos": 12, "trial_type": "single-stim", "trial_index": 101, "time_elapsed": 603745, "internal_node_id": "0.0-74.0"}}, {"uniqueid": "MTK0515:3U84XHCDIDKIHD93WTZYEXD4ZS04ZB", "current_trial": 102, "dateTime": 1511196020797, "trialdata": {"rt": -1, "stimulus": "<p id=\"stim\">VIKING</p>", "key_press": -1, "type": "PRES_VIS", "word": "viking", "wordID": 1564, "conditions": [24, 1600, "v", 24000], "trial": 2, "serialpos": 13, "trial_type": "single-stim", "trial_index": 102, "time_elapsed": 606160, "internal_node_id": "0.0-75.0"}}, {"uniqueid": "MTK0515:3U84XHCDIDKIHD93WTZYEXD4ZS04ZB", "current_trial": 103, "dateTime": 1511196023413, "trialdata": {"rt": -1, "stimulus": "<p id=\"stim\">HUSBAND</p>", "key_press": -1, "type": "PRES_VIS", "word": "husband", "wordID": 727, "conditions": [24, 1600, "v", 24000], "trial": 2, "serialpos": 14, "trial_type": "single-stim", "trial_index": 103, "time_elapsed": 608776, "internal_node_id": "0.0-76.0"}}, {"uniqueid": "MTK0515:3U84XHCDIDKIHD93WTZYEXD4ZS04ZB", "current_trial": 104, "dateTime": 1511196025875, "trialdata": {"rt": -1, "stimulus": "<p id=\"stim\">GROUND</p>", "key_press": -1, "type": "PRES_VIS", "word": "ground", "wordID": 665, "conditions": [24, 1600, "v", 24000], "trial": 2, "serialpos": 15, "trial_type": "single-stim", "trial_index": 104, "time_elapsed": 611238, "internal_node_id": "0.0-77.0"}}, {"uniqueid": "MTK0515:3U84XHCDIDKIHD93WTZYEXD4ZS04ZB", "current_trial": 105, "dateTime": 1511196028426, "trialdata": {"rt": -1, "stimulus": "<p id=\"stim\">DINER</p>", "key_press": -1, "type": "PRES_VIS", "word": "diner", "wordID": 466, "conditions": [24, 1600, "v", 24000], "trial": 2, "serialpos": 16, "trial_type": "single-stim", "trial_index": 105, "time_elapsed": 613789, "internal_node_id": "0.0-78.0"}}, {"uniqueid": "MTK0515:3U84XHCDIDKIHD93WTZYEXD4ZS04ZB", "current_trial": 106, "dateTime": 1511196031142, "trialdata": {"rt": -1, "stimulus": "<p id=\"stim\">HIGHWAY</p>", "key_press": -1, "type": "PRES_VIS", "word": "highway", "wordID": 706, "conditions": [24, 1600, "v", 24000], "trial": 2, "serialpos": 17, "trial_type": "single-stim", "trial_index": 106, "time_elapsed": 616505, "internal_node_id": "0.0-79.0"}}, {"uniqueid": "MTK0515:3U84XHCDIDKIHD93WTZYEXD4ZS04ZB", "current_trial": 107, "dateTime": 1511196033563, "trialdata": {"rt": -1, "stimulus": "<p id=\"stim\">FRIEND</p>", "key_press": -1, "type": "PRES_VIS", "word": "friend", "wordID": 605, "conditions": [24, 1600, "v", 24000], "trial": 2, "serialpos": 18, "trial_type": "single-stim", "trial_index": 107, "time_elapsed": 618926, "internal_node_id": "0.0-80.0"}}, {"uniqueid": "MTK0515:3U84XHCDIDKIHD93WTZYEXD4ZS04ZB", "current_trial": 108, "dateTime": 1511196036276, "trialdata": {"rt": -1, "stimulus": "<p id=\"stim\">RUG</p>", "key_press": -1, "type": "PRES_VIS", "word": "rug", "wordID": 1214, "conditions": [24, 1600, "v", 24000], "trial": 2, "serialpos": 19, "trial_type": "single-stim", "trial_index": 108, "time_elapsed": 621639, "internal_node_id": "0.0-81.0"}}, {"uniqueid": "MTK0515:3U84XHCDIDKIHD93WTZYEXD4ZS04ZB", "current_trial": 109, "dateTime": 1511196038994, "trialdata": {"rt": -1, "stimulus": "<p id=\"stim\">GRAPE</p>", "key_press": -1, "type": "PRES_VIS", "word": "grape", "wordID": 653, "conditions": [24, 1600, "v", 24000], "trial": 2, "serialpos": 20, "trial_type": "single-stim", "trial_index": 109, "time_elapsed": 624357, "internal_node_id": "0.0-82.0"}}, {"uniqueid": "MTK0515:3U84XHCDIDKIHD93WTZYEXD4ZS04ZB", "current_trial": 110, "dateTime": 1511196041464, "trialdata": {"rt": -1, "stimulus": "<p id=\"stim\">CITRUS</p>", "key_press": -1, "type": "PRES_VIS", "word": "citrus", "wordID": 312, "conditions": [24, 1600, "v", 24000], "trial": 2, "serialpos": 21, "trial_type": "single-stim", "trial_index": 110, "time_elapsed": 626827, "internal_node_id": "0.0-83.0"}}, {"uniqueid": "MTK0515:3U84XHCDIDKIHD93WTZYEXD4ZS04ZB", "current_trial": 111, "dateTime": 1511196044131, "trialdata": {"rt": -1, "stimulus": "<p id=\"stim\">PASSAGE</p>", "key_press": -1, "type": "PRES_VIS", "word": "passage", "wordID": 1018, "conditions": [24, 1600, "v", 24000], "trial": 2, "serialpos": 22, "trial_type": "single-stim", "trial_index": 111, "time_elapsed": 629493, "internal_node_id": "0.0-84.0"}}, {"uniqueid": "MTK0515:3U84XHCDIDKIHD93WTZYEXD4ZS04ZB", "current_trial": 112, "dateTime": 1511196046863, "trialdata": {"rt": -1, "stimulus": "<p id=\"stim\">LONDON</p>", "key_press": -1, "type": "PRES_VIS", "word": "london", "wordID": 842, "conditions": [24, 1600, "v", 24000], "trial": 2, "serialpos": 23, "trial_type": "single-stim", "trial_index": 112, "time_elapsed": 632226, "internal_node_id": "0.0-85.0"}}, {"uniqueid": "MTK0515:3U84XHCDIDKIHD93WTZYEXD4ZS04ZB", "current_trial": 113, "dateTime": 1511196049213, "trialdata": {"rt": -1, "stimulus": "", "key_press": -1, "type": "PRE_RECALL_DELAY", "trial_type": "single-stim", "trial_index": 113, "time_elapsed": 634576, "internal_node_id": "0.0-86.0-0.0"}}, {"uniqueid": "MTK0515:3U84XHCDIDKIHD93WTZYEXD4ZS04ZB", "current_trial": 114, "dateTime": 1511196049715, "trialdata": {"rt": -1000, "stimulus": "/static/audio/400Hz.wav", "key_press": -1, "type": "PRE_RECALL_ALERT", "trial_type": "single-audio", "trial_index": 114, "time_elapsed": 635078, "internal_node_id": "0.0-87.0"}}, {"uniqueid": "MTK0515:3U84XHCDIDKIHD93WTZYEXD4ZS04ZB", "current_trial": 115, "dateTime": 1511196109725, "trialdata": {"rt": [3398, 5591, 7384, 10431, 14852, 37138, 39134], "recwords": ["london", "citrus", "spool", "slug", "slug", "highway", "diner"], "type": "FREE_RECALL", "conditions": [24, 1600, "v", 24000], "trial": 2, "trial_type": "free-recall", "trial_index": 115, "time_elapsed": 695083, "internal_node_id": "0.0-88.0-0.0"}}, {"uniqueid": "MTK0515:3U84XHCDIDKIHD93WTZYEXD4ZS04ZB", "current_trial": 116, "dateTime": 1511196113290, "trialdata": {"rt": 1562, "key_press": 32, "type": "INSTRUCTIONS", "trial_type": "text", "trial_index": 116, "time_elapsed": 698653, "internal_node_id": "0.0-89.0"}}, {"uniqueid": "MTK0515:3U84XHCDIDKIHD93WTZYEXD4ZS04ZB", "current_trial": 117, "dateTime": 1511196127297, "trialdata": {"rt": [6910, 10832], "responses": ["21", "7"], "num1": [8, 2, 7], "num2": [9, 3, 1], "num3": [4, 2, 8], "type": "DISTRACTOR", "conditions": [24, 800, "a", 12000], "trial": 3, "trial_type": "math-distractor", "trial_index": 117, "time_elapsed": 712660, "internal_node_id": "0.0-90.0"}}, {"uniqueid": "MTK0515:3U84XHCDIDKIHD93WTZYEXD4ZS04ZB", "current_trial": 118, "dateTime": 1511196130302, "trialdata": {"rt": -1, "stimulus": "<p id=\"stim\">10</p>", "key_press": -1, "trial_type": "single-stim", "trial_index": 118, "time_elapsed": 715665, "internal_node_id": "0.0-91.0-0.0"}}, {"uniqueid": "MTK0515:3U84XHCDIDKIHD93WTZYEXD4ZS04ZB", "current_trial": 119, "dateTime": 1511196131304, "trialdata": {"rt": -1, "stimulus": "<p id=\"stim\">9</p>", "key_press": -1, "trial_type": "single-stim", "trial_index": 119, "time_elapsed": 716667, "internal_node_id": "0.0-91.0-1.0"}}, {"uniqueid": "MTK0515:3U84XHCDIDKIHD93WTZYEXD4ZS04ZB", "current_trial": 120, "dateTime": 1511196132306, "trialdata": {"rt": -1, "stimulus": "<p id=\"stim\">8</p>", "key_press": -1, "trial_type": "single-stim", "trial_index": 120, "time_elapsed": 717669, "internal_node_id": "0.0-91.0-2.0"}}, {"uniqueid": "MTK0515:3U84XHCDIDKIHD93WTZYEXD4ZS04ZB", "current_trial": 121, "dateTime": 1511196133309, "trialdata": {"rt": -1, "stimulus": "<p id=\"stim\">7</p>", "key_press": -1, "trial_type": "single-stim", "trial_index": 121, "time_elapsed": 718671, "internal_node_id": "0.0-91.0-3.0"}}, {"uniqueid": "MTK0515:3U84XHCDIDKIHD93WTZYEXD4ZS04ZB", "current_trial": 122, "dateTime": 1511196134312, "trialdata": {"rt": -1, "stimulus": "<p id=\"stim\">6</p>", "key_press": -1, "trial_type": "single-stim", "trial_index": 122, "time_elapsed": 719674, "internal_node_id": "0.0-91.0-4.0"}}, {"uniqueid": "MTK0515:3U84XHCDIDKIHD93WTZYEXD4ZS04ZB", "current_trial": 123, "dateTime": 1511196135314, "trialdata": {"rt": -1, "stimulus": "<p id=\"stim\">5</p>", "key_press": -1, "trial_type": "single-stim", "trial_index": 123, "time_elapsed": 720677, "internal_node_id": "0.0-91.0-5.0"}}, {"uniqueid": "MTK0515:3U84XHCDIDKIHD93WTZYEXD4ZS04ZB", "current_trial": 124, "dateTime": 1511196136317, "trialdata": {"rt": -1, "stimulus": "<p id=\"stim\">4</p>", "key_press": -1, "trial_type": "single-stim", "trial_index": 124, "time_elapsed": 721680, "internal_node_id": "0.0-91.0-6.0"}}, {"uniqueid": "MTK0515:3U84XHCDIDKIHD93WTZYEXD4ZS04ZB", "current_trial": 125, "dateTime": 1511196137320, "trialdata": {"rt": -1, "stimulus": "<p id=\"stim\">3</p>", "key_press": -1, "trial_type": "single-stim", "trial_index": 125, "time_elapsed": 722683, "internal_node_id": "0.0-91.0-7.0"}}, {"uniqueid": "MTK0515:3U84XHCDIDKIHD93WTZYEXD4ZS04ZB", "current_trial": 126, "dateTime": 1511196138323, "trialdata": {"rt": -1, "stimulus": "<p id=\"stim\">2</p>", "key_press": -1, "trial_type": "single-stim", "trial_index": 126, "time_elapsed": 723686, "internal_node_id": "0.0-91.0-8.0"}}, {"uniqueid": "MTK0515:3U84XHCDIDKIHD93WTZYEXD4ZS04ZB", "current_trial": 127, "dateTime": 1511196139325, "trialdata": {"rt": -1, "stimulus": "<p id=\"stim\">1</p>", "key_press": -1, "trial_type": "single-stim", "trial_index": 127, "time_elapsed": 724688, "internal_node_id": "0.0-91.0-9.0"}}, {"uniqueid": "MTK0515:3U84XHCDIDKIHD93WTZYEXD4ZS04ZB", "current_trial": 128, "dateTime": 1511196140827, "trialdata": {"rt": -1, "stimulus": "<p id=\"stim\">+</p>", "key_press": -1, "type": "FIXATION", "trial_type": "single-stim", "trial_index": 128, "time_elapsed": 726190, "internal_node_id": "0.0-92.0-0.0"}}, {"uniqueid": "MTK0515:3U84XHCDIDKIHD93WTZYEXD4ZS04ZB", "current_trial": 129, "dateTime": 1511196142557, "trialdata": {"rt": -1000, "stimulus": "/static/audio/wordpool/PEBBLE.wav", "key_press": -1, "type": "PRES_AUD", "word": "pebble", "wordID": 1034, "conditions": [24, 800, "a", 12000], "trial": 3, "serialpos": 0, "trial_type": "single-audio", "trial_index": 129, "time_elapsed": 727919, "internal_node_id": "0.0-93.0"}}, {"uniqueid": "MTK0515:3U84XHCDIDKIHD93WTZYEXD4ZS04ZB", "current_trial": 130, "dateTime": 1511196144374, "trialdata": {"rt": -1000, "stimulus": "/static/audio/wordpool/SANDWICH.wav", "key_press": -1, "type": "PRES_AUD", "word": "sandwich", "wordID": 1231, "conditions": [24, 800, "a", 12000], "trial": 3, "serialpos": 1, "trial_type": "single-audio", "trial_index": 130, "time_elapsed": 729737, "internal_node_id": "0.0-94.0"}}, {"uniqueid": "MTK0515:3U84XHCDIDKIHD93WTZYEXD4ZS04ZB", "current_trial": 131, "dateTime": 1511196146331, "trialdata": {"rt": -1000, "stimulus": "/static/audio/wordpool/WIFE.wav", "key_press": -1, "type": "PRES_AUD", "word": "wife", "wordID": 1608, "conditions": [24, 800, "a", 12000], "trial": 3, "serialpos": 2, "trial_type": "single-audio", "trial_index": 131, "time_elapsed": 731693, "internal_node_id": "0.0-95.0"}}, {"uniqueid": "MTK0515:3U84XHCDIDKIHD93WTZYEXD4ZS04ZB", "current_trial": 132, "dateTime": 1511196148202, "trialdata": {"rt": -1000, "stimulus": "/static/audio/wordpool/STATUE.wav", "key_press": -1, "type": "PRES_AUD", "word": "statue", "wordID": 1373, "conditions": [24, 800, "a", 12000], "trial": 3, "serialpos": 3, "trial_type": "single-audio", "trial_index": 132, "time_elapsed": 733565, "internal_node_id": "0.0-96.0"}}, {"uniqueid": "MTK0515:3U84XHCDIDKIHD93WTZYEXD4ZS04ZB", "current_trial": 133, "dateTime": 1511196150050, "trialdata": {"rt": -1000, "stimulus": "/static/audio/wordpool/SMOG.wav", "key_press": -1, "type": "PRES_AUD", "word": "smog", "wordID": 1329, "conditions": [24, 800, "a", 12000], "trial": 3, "serialpos": 4, "trial_type": "single-audio", "trial_index": 133, "time_elapsed": 735412, "internal_node_id": "0.0-97.0"}}, {"uniqueid": "MTK0515:3U84XHCDIDKIHD93WTZYEXD4ZS04ZB", "current_trial": 134, "dateTime": 1511196151737, "trialdata": {"rt": -1000, "stimulus": "/static/audio/wordpool/OZONE.wav", "key_press": -1, "type": "PRES_AUD", "word": "ozone", "wordID": 995, "conditions": [24, 800, "a", 12000], "trial": 3, "serialpos": 5, "trial_type": "single-audio", "trial_index": 134, "time_elapsed": 737100, "internal_node_id": "0.0-98.0"}}, {"uniqueid": "MTK0515:3U84XHCDIDKIHD93WTZYEXD4ZS04ZB", "current_trial": 135, "dateTime": 1511196153618, "trialdata": {"rt": -1000, "stimulus": "/static/audio/wordpool/FLUTE.wav", "key_press": -1, "type": "PRES_AUD", "word": "flute", "wordID": 584, "conditions": [24, 800, "a", 12000], "trial": 3, "serialpos": 6, "trial_type": "single-audio", "trial_index": 135, "time_elapsed": 738980, "internal_node_id": "0.0-99.0"}}, {"uniqueid": "MTK0515:3U84XHCDIDKIHD93WTZYEXD4ZS04ZB", "current_trial": 136, "dateTime": 1511196155397, "trialdata": {"rt": -1000, "stimulus": "/static/audio/wordpool/DUST.wav", "key_press": -1, "type": "PRES_AUD", "word": "dust", "wordID": 507, "conditions": [24, 800, "a", 12000], "trial": 3, "serialpos": 7, "trial_type": "single-audio", "trial_index": 136, "time_elapsed": 740760, "internal_node_id": "0.0-100.0"}}, {"uniqueid": "MTK0515:3U84XHCDIDKIHD93WTZYEXD4ZS04ZB", "current_trial": 137, "dateTime": 1511196157170, "trialdata": {"rt": -1000, "stimulus": "/static/audio/wordpool/JUNGLE.wav", "key_press": -1, "type": "PRES_AUD", "word": "jungle", "wordID": 763, "conditions": [24, 800, "a", 12000], "trial": 3, "serialpos": 8, "trial_type": "single-audio", "trial_index": 137, "time_elapsed": 742533, "internal_node_id": "0.0-101.0"}}, {"uniqueid": "MTK0515:3U84XHCDIDKIHD93WTZYEXD4ZS04ZB", "current_trial": 138, "dateTime": 1511196159093, "trialdata": {"rt": -1000, "stimulus": "/static/audio/wordpool/COOKBOOK.wav", "key_press": -1, "type": "PRES_AUD", "word": "cookbook", "wordID": 372, "conditions": [24, 800, "a", 12000], "trial": 3, "serialpos": 9, "trial_type": "single-audio", "trial_index": 138, "time_elapsed": 744456, "internal_node_id": "0.0-102.0"}}, {"uniqueid": "MTK0515:3U84XHCDIDKIHD93WTZYEXD4ZS04ZB", "current_trial": 139, "dateTime": 1511196160918, "trialdata": {"rt": -1000, "stimulus": "/static/audio/wordpool/SCULPTURE.wav", "key_press": -1, "type": "PRES_AUD", "word": "sculpture", "wordID": 1257, "conditions": [24, 800, "a", 12000], "trial": 3, "serialpos": 10, "trial_type": "single-audio", "trial_index": 139, "time_elapsed": 746281, "internal_node_id": "0.0-103.0"}}, {"uniqueid": "MTK0515:3U84XHCDIDKIHD93WTZYEXD4ZS04ZB", "current_trial": 140, "dateTime": 1511196162674, "trialdata": {"rt": -1000, "stimulus": "/static/audio/wordpool/PARSLEY.wav", "key_press": -1, "type": "PRES_AUD", "word": "parsley", "wordID": 1015, "conditions": [24, 800, "a", 12000], "trial": 3, "serialpos": 11, "trial_type": "single-audio", "trial_index": 140, "time_elapsed": 748037, "internal_node_id": "0.0-104.0"}}, {"uniqueid": "MTK0515:3U84XHCDIDKIHD93WTZYEXD4ZS04ZB", "current_trial": 141, "dateTime": 1511196164317, "trialdata": {"rt": -1000, "stimulus": "/static/audio/wordpool/ZEBRA.wav", "key_press": -1, "type": "PRES_AUD", "word": "zebra", "wordID": 1634, "conditions": [24, 800, "a", 12000], "trial": 3, "serialpos": 12, "trial_type": "single-audio", "trial_index": 141, "time_elapsed": 749679, "internal_node_id": "0.0-105.0"}}, {"uniqueid": "MTK0515:3U84XHCDIDKIHD93WTZYEXD4ZS04ZB", "current_trial": 142, "dateTime": 1511196166012, "trialdata": {"rt": -1000, "stimulus": "/static/audio/wordpool/PIMPLE.wav", "key_press": -1, "type": "PRES_AUD", "word": "pimple", "wordID": 1070, "conditions": [24, 800, "a", 12000], "trial": 3, "serialpos": 13, "trial_type": "single-audio", "trial_index": 142, "time_elapsed": 751374, "internal_node_id": "0.0-106.0"}}, {"uniqueid": "MTK0515:3U84XHCDIDKIHD93WTZYEXD4ZS04ZB", "current_trial": 143, "dateTime": 1511196167890, "trialdata": {"rt": -1000, "stimulus": "/static/audio/wordpool/BEEF.wav", "key_press": -1, "type": "PRES_AUD", "word": "beef", "wordID": 112, "conditions": [24, 800, "a", 12000], "trial": 3, "serialpos": 14, "trial_type": "single-audio", "trial_index": 143, "time_elapsed": 753252, "internal_node_id": "0.0-107.0"}}, {"uniqueid": "MTK0515:3U84XHCDIDKIHD93WTZYEXD4ZS04ZB", "current_trial": 144, "dateTime": 1511196169769, "trialdata": {"rt": -1000, "stimulus": "/static/audio/wordpool/LIVER.wav", "key_press": -1, "type": "PRES_AUD", "word": "liver", "wordID": 832, "conditions": [24, 800, "a", 12000], "trial": 3, "serialpos": 15, "trial_type": "single-audio", "trial_index": 144, "time_elapsed": 755132, "internal_node_id": "0.0-108.0"}}, {"uniqueid": "MTK0515:3U84XHCDIDKIHD93WTZYEXD4ZS04ZB", "current_trial": 145, "dateTime": 1511196171392, "trialdata": {"rt": -1000, "stimulus": "/static/audio/wordpool/COFFEE.wav", "key_press": -1, "type": "PRES_AUD", "word": "coffee", "wordID": 340, "conditions": [24, 800, "a", 12000], "trial": 3, "serialpos": 16, "trial_type": "single-audio", "trial_index": 145, "time_elapsed": 756755, "internal_node_id": "0.0-109.0"}}, {"uniqueid": "MTK0515:3U84XHCDIDKIHD93WTZYEXD4ZS04ZB", "current_trial": 146, "dateTime": 1511196173111, "trialdata": {"rt": -1000, "stimulus": "/static/audio/wordpool/COTTAGE.wav", "key_press": -1, "type": "PRES_AUD", "word": "cottage", "wordID": 383, "conditions": [24, 800, "a", 12000], "trial": 3, "serialpos": 17, "trial_type": "single-audio", "trial_index": 146, "time_elapsed": 758474, "internal_node_id": "0.0-110.0"}}, {"uniqueid": "MTK0515:3U84XHCDIDKIHD93WTZYEXD4ZS04ZB", "current_trial": 147, "dateTime": 1511196174840, "trialdata": {"rt": -1000, "stimulus": "/static/audio/wordpool/XEROX.wav", "key_press": -1, "type": "PRES_AUD", "word": "xerox", "wordID": 1627, "conditions": [24, 800, "a", 12000], "trial": 3, "serialpos": 18, "trial_type": "single-audio", "trial_index": 147, "time_elapsed": 760202, "internal_node_id": "0.0-111.0"}}, {"uniqueid": "MTK0515:3U84XHCDIDKIHD93WTZYEXD4ZS04ZB", "current_trial": 148, "dateTime": 1511196176449, "trialdata": {"rt": -1000, "stimulus": "/static/audio/wordpool/KIDNEY.wav", "key_press": -1, "type": "PRES_AUD", "word": "kidney", "wordID": 775, "conditions": [24, 800, "a", 12000], "trial": 3, "serialpos": 19, "trial_type": "single-audio", "trial_index": 148, "time_elapsed": 761812, "internal_node_id": "0.0-112.0"}}, {"uniqueid": "MTK0515:3U84XHCDIDKIHD93WTZYEXD4ZS04ZB", "current_trial": 149, "dateTime": 1511196178336, "trialdata": {"rt": -1000, "stimulus": "/static/audio/wordpool/SIBLING.wav", "key_press": -1, "type": "PRES_AUD", "word": "sibling", "wordID": 1300, "conditions": [24, 800, "a", 12000], "trial": 3, "serialpos": 20, "trial_type": "single-audio", "trial_index": 149, "time_elapsed": 763699, "internal_node_id": "0.0-113.0"}}, {"uniqueid": "MTK0515:3U84XHCDIDKIHD93WTZYEXD4ZS04ZB", "current_trial": 150, "dateTime": 1511196180239, "trialdata": {"rt": -1000, "stimulus": "/static/audio/wordpool/STICKER.wav", "key_press": -1, "type": "PRES_AUD", "word": "sticker", "wordID": 1381, "conditions": [24, 800, "a", 12000], "trial": 3, "serialpos": 21, "trial_type": "single-audio", "trial_index": 150, "time_elapsed": 765602, "internal_node_id": "0.0-114.0"}}, {"uniqueid": "MTK0515:3U84XHCDIDKIHD93WTZYEXD4ZS04ZB", "current_trial": 151, "dateTime": 1511196181936, "trialdata": {"rt": -1000, "stimulus": "/static/audio/wordpool/SUNRISE.wav", "key_press": -1, "type": "PRES_AUD", "word": "sunrise", "wordID": 1406, "conditions": [24, 800, "a", 12000], "trial": 3, "serialpos": 22, "trial_type": "single-audio", "trial_index": 151, "time_elapsed": 767299, "internal_node_id": "0.0-115.0"}}, {"uniqueid": "MTK0515:3U84XHCDIDKIHD93WTZYEXD4ZS04ZB", "current_trial": 152, "dateTime": 1511196183597, "trialdata": {"rt": -1000, "stimulus": "/static/audio/wordpool/SUNSET.wav", "key_press": -1, "type": "PRES_AUD", "word": "sunset", "wordID": 1407, "conditions": [24, 800, "a", 12000], "trial": 3, "serialpos": 23, "trial_type": "single-audio", "trial_index": 152, "time_elapsed": 768960, "internal_node_id": "0.0-116.0"}}, {"uniqueid": "MTK0515:3U84XHCDIDKIHD93WTZYEXD4ZS04ZB", "current_trial": 153, "dateTime": 1511196184941, "trialdata": {"rt": -1, "stimulus": "", "key_press": -1, "type": "PRE_RECALL_DELAY", "trial_type": "single-stim", "trial_index": 153, "time_elapsed": 770304, "internal_node_id": "0.0-117.0-0.0"}}, {"uniqueid": "MTK0515:3U84XHCDIDKIHD93WTZYEXD4ZS04ZB", "current_trial": 154, "dateTime": 1511196185443, "trialdata": {"rt": -1000, "stimulus": "/static/audio/400Hz.wav", "key_press": -1, "type": "PRE_RECALL_ALERT", "trial_type": "single-audio", "trial_index": 154, "time_elapsed": 770806, "internal_node_id": "0.0-118.0"}}, {"uniqueid": "MTK0515:3U84XHCDIDKIHD93WTZYEXD4ZS04ZB", "current_trial": 155, "dateTime": 1511196245453, "trialdata": {"rt": [2848, 4258, 6886, 8144, 9429, 12406, 18106, 31366, 48698], "recwords": ["sunrise", "sunset", "sibling", "beef", "liver", "pebble", "xerox", "cottage", "rice"], "type": "FREE_RECALL", "conditions": [24, 800, "a", 12000], "trial": 3, "trial_type": "free-recall", "trial_index": 155, "time_elapsed": 830812, "internal_node_id": "0.0-119.0-0.0"}}, {"uniqueid": "MTK0515:3U84XHCDIDKIHD93WTZYEXD4ZS04ZB", "current_trial": 156, "dateTime": 1511196249308, "trialdata": {"rt": 1853, "key_press": 32, "type": "INSTRUCTIONS", "trial_type": "text", "trial_index": 156, "time_elapsed": 834671, "internal_node_id": "0.0-120.0"}}, {"uniqueid": "MTK0515:3U84XHCDIDKIHD93WTZYEXD4ZS04ZB", "current_trial": 157, "dateTime": 1511196275314, "trialdata": {"rt": [2916, 6640, 9092, 13962, 16657, 19145, 22291], "responses": ["15", "15", "11", "22", "16", "15", "19"], "num1": [9, 8, 5, 9, 4, 7, 9, 7], "num2": [1, 5, 2, 7, 7, 2, 3, 6], "num3": [5, 2, 4, 6, 5, 6, 7, 1], "type": "DISTRACTOR", "conditions": [24, 800, "a", 24000], "trial": 4, "trial_type": "math-distractor", "trial_index": 157, "time_elapsed": 860677, "internal_node_id": "0.0-121.0"}}, {"uniqueid": "MTK0515:3U84XHCDIDKIHD93WTZYEXD4ZS04ZB", "current_trial": 158, "dateTime": 1511196278317, "trialdata": {"rt": -1, "stimulus": "<p id=\"stim\">10</p>", "key_press": -1, "trial_type": "single-stim", "trial_index": 158, "time_elapsed": 863680, "internal_node_id": "0.0-122.0-0.0"}}, {"uniqueid": "MTK0515:3U84XHCDIDKIHD93WTZYEXD4ZS04ZB", "current_trial": 159, "dateTime": 1511196279319, "trialdata": {"rt": -1, "stimulus": "<p id=\"stim\">9</p>", "key_press": -1, "trial_type": "single-stim", "trial_index": 159, "time_elapsed": 864682, "internal_node_id": "0.0-122.0-1.0"}}, {"uniqueid": "MTK0515:3U84XHCDIDKIHD93WTZYEXD4ZS04ZB", "current_trial": 160, "dateTime": 1511196280320, "trialdata": {"rt": -1, "stimulus": "<p id=\"stim\">8</p>", "key_press": -1, "trial_type": "single-stim", "trial_index": 160, "time_elapsed": 865683, "internal_node_id": "0.0-122.0-2.0"}}, {"uniqueid": "MTK0515:3U84XHCDIDKIHD93WTZYEXD4ZS04ZB", "current_trial": 161, "dateTime": 1511196281322, "trialdata": {"rt": -1, "stimulus": "<p id=\"stim\">7</p>", "key_press": -1, "trial_type": "single-stim", "trial_index": 161, "time_elapsed": 866685, "internal_node_id": "0.0-122.0-3.0"}}, {"uniqueid": "MTK0515:3U84XHCDIDKIHD93WTZYEXD4ZS04ZB", "current_trial": 162, "dateTime": 1511196282324, "trialdata": {"rt": -1, "stimulus": "<p id=\"stim\">6</p>", "key_press": -1, "trial_type": "single-stim", "trial_index": 162, "time_elapsed": 867687, "internal_node_id": "0.0-122.0-4.0"}}, {"uniqueid": "MTK0515:3U84XHCDIDKIHD93WTZYEXD4ZS04ZB", "current_trial": 163, "dateTime": 1511196283326, "trialdata": {"rt": -1, "stimulus": "<p id=\"stim\">5</p>", "key_press": -1, "trial_type": "single-stim", "trial_index": 163, "time_elapsed": 868689, "internal_node_id": "0.0-122.0-5.0"}}, {"uniqueid": "MTK0515:3U84XHCDIDKIHD93WTZYEXD4ZS04ZB", "current_trial": 164, "dateTime": 1511196284328, "trialdata": {"rt": -1, "stimulus": "<p id=\"stim\">4</p>", "key_press": -1, "trial_type": "single-stim", "trial_index": 164, "time_elapsed": 869691, "internal_node_id": "0.0-122.0-6.0"}}, {"uniqueid": "MTK0515:3U84XHCDIDKIHD93WTZYEXD4ZS04ZB", "current_trial": 165, "dateTime": 1511196285330, "trialdata": {"rt": -1, "stimulus": "<p id=\"stim\">3</p>", "key_press": -1, "trial_type": "single-stim", "trial_index": 165, "time_elapsed": 870693, "internal_node_id": "0.0-122.0-7.0"}}, {"uniqueid": "MTK0515:3U84XHCDIDKIHD93WTZYEXD4ZS04ZB", "current_trial": 166, "dateTime": 1511196286332, "trialdata": {"rt": -1, "stimulus": "<p id=\"stim\">2</p>", "key_press": -1, "trial_type": "single-stim", "trial_index": 166, "time_elapsed": 871695, "internal_node_id": "0.0-122.0-8.0"}}, {"uniqueid": "MTK0515:3U84XHCDIDKIHD93WTZYEXD4ZS04ZB", "current_trial": 167, "dateTime": 1511196287334, "trialdata": {"rt": -1, "stimulus": "<p id=\"stim\">1</p>", "key_press": -1, "trial_type": "single-stim", "trial_index": 167, "time_elapsed": 872697, "internal_node_id": "0.0-122.0-9.0"}}, {"uniqueid": "MTK0515:3U84XHCDIDKIHD93WTZYEXD4ZS04ZB", "current_trial": 168, "dateTime": 1511196288837, "trialdata": {"rt": -1, "stimulus": "<p id=\"stim\">+</p>", "key_press": -1, "type": "FIXATION", "trial_type": "single-stim", "trial_index": 168, "time_elapsed": 874199, "internal_node_id": "0.0-123.0-0.0"}}, {"uniqueid": "MTK0515:3U84XHCDIDKIHD93WTZYEXD4ZS04ZB", "current_trial": 169, "dateTime": 1511196290600, "trialdata": {"rt": -1000, "stimulus": "/static/audio/wordpool/LAGOON.wav", "key_press": -1, "type": "PRES_AUD", "word": "lagoon", "wordID": 794, "conditions": [24, 800, "a", 24000], "trial": 4, "serialpos": 0, "trial_type": "single-audio", "trial_index": 169, "time_elapsed": 875962, "internal_node_id": "0.0-124.0"}}, {"uniqueid": "MTK0515:3U84XHCDIDKIHD93WTZYEXD4ZS04ZB", "current_trial": 170, "dateTime": 1511196292300, "trialdata": {"rt": -1000, "stimulus": "/static/audio/wordpool/ASIA.wav", "key_press": -1, "type": "PRES_AUD", "word": "asia", "wordID": 45, "conditions": [24, 800, "a", 24000], "trial": 4, "serialpos": 1, "trial_type": "single-audio", "trial_index": 170, "time_elapsed": 877663, "internal_node_id": "0.0-125.0"}}, {"uniqueid": "MTK0515:3U84XHCDIDKIHD93WTZYEXD4ZS04ZB", "current_trial": 171, "dateTime": 1511196294160, "trialdata": {"rt": -1000, "stimulus": "/static/audio/wordpool/SNAIL.wav", "key_press": -1, "type": "PRES_AUD", "word": "snail", "wordID": 1331, "conditions": [24, 800, "a", 24000], "trial": 4, "serialpos": 2, "trial_type": "single-audio", "trial_index": 171, "time_elapsed": 879523, "internal_node_id": "0.0-126.0"}}, {"uniqueid": "MTK0515:3U84XHCDIDKIHD93WTZYEXD4ZS04ZB", "current_trial": 172, "dateTime": 1511196295992, "trialdata": {"rt": -1000, "stimulus": "/static/audio/wordpool/ROCKET.wav", "key_press": -1, "type": "PRES_AUD", "word": "rocket", "wordID": 1201, "conditions": [24, 800, "a", 24000], "trial": 4, "serialpos": 3, "trial_type": "single-audio", "trial_index": 172, "time_elapsed": 881355, "internal_node_id": "0.0-127.0"}}, {"uniqueid": "MTK0515:3U84XHCDIDKIHD93WTZYEXD4ZS04ZB", "current_trial": 173, "dateTime": 1511196297727, "trialdata": {"rt": -1000, "stimulus": "/static/audio/wordpool/EGYPT.wav", "key_press": -1, "type": "PRES_AUD", "word": "egypt", "wordID": 518, "conditions": [24, 800, "a", 24000], "trial": 4, "serialpos": 4, "trial_type": "single-audio", "trial_index": 173, "time_elapsed": 883090, "internal_node_id": "0.0-128.0"}}, {"uniqueid": "MTK0515:3U84XHCDIDKIHD93WTZYEXD4ZS04ZB", "current_trial": 174, "dateTime": 1511196299671, "trialdata": {"rt": -1000, "stimulus": "/static/audio/wordpool/WAITRESS.wav", "key_press": -1, "type": "PRES_AUD", "word": "waitress", "wordID": 1580, "conditions": [24, 800, "a", 24000], "trial": 4, "serialpos": 5, "trial_type": "single-audio", "trial_index": 174, "time_elapsed": 885034, "internal_node_id": "0.0-129.0"}}, {"uniqueid": "MTK0515:3U84XHCDIDKIHD93WTZYEXD4ZS04ZB", "current_trial": 175, "dateTime": 1511196301274, "trialdata": {"rt": -1000, "stimulus": "/static/audio/wordpool/JELLY.wav", "key_press": -1, "type": "PRES_AUD", "word": "jelly", "wordID": 754, "conditions": [24, 800, "a", 24000], "trial": 4, "serialpos": 6, "trial_type": "single-audio", "trial_index": 175, "time_elapsed": 886637, "internal_node_id": "0.0-130.0"}}, {"uniqueid": "MTK0515:3U84XHCDIDKIHD93WTZYEXD4ZS04ZB", "current_trial": 176, "dateTime": 1511196302884, "trialdata": {"rt": -1000, "stimulus": "/static/audio/wordpool/STREAM.wav", "key_press": -1, "type": "PRES_AUD", "word": "stream", "wordID": 1391, "conditions": [24, 800, "a", 24000], "trial": 4, "serialpos": 7, "trial_type": "single-audio", "trial_index": 176, "time_elapsed": 888246, "internal_node_id": "0.0-131.0"}}, {"uniqueid": "MTK0515:3U84XHCDIDKIHD93WTZYEXD4ZS04ZB", "current_trial": 177, "dateTime": 1511196304624, "trialdata": {"rt": -1000, "stimulus": "/static/audio/wordpool/RAFT.wav", "key_press": -1, "type": "PRES_AUD", "word": "raft", "wordID": 1158, "conditions": [24, 800, "a", 24000], "trial": 4, "serialpos": 8, "trial_type": "single-audio", "trial_index": 177, "time_elapsed": 889987, "internal_node_id": "0.0-132.0"}}, {"uniqueid": "MTK0515:3U84XHCDIDKIHD93WTZYEXD4ZS04ZB", "current_trial": 178, "dateTime": 1511196306461, "trialdata": {"rt": -1000, "stimulus": "/static/audio/wordpool/CASHIER.wav", "key_press": -1, "type": "PRES_AUD", "word": "cashier", "wordID": 253, "conditions": [24, 800, "a", 24000], "trial": 4, "serialpos": 9, "trial_type": "single-audio", "trial_index": 178, "time_elapsed": 891823, "internal_node_id": "0.0-133.0"}}, {"uniqueid": "MTK0515:3U84XHCDIDKIHD93WTZYEXD4ZS04ZB", "current_trial": 179, "dateTime": 1511196308145, "trialdata": {"rt": -1000, "stimulus": "/static/audio/wordpool/CLOTHES.wav", "key_press": -1, "type": "PRES_AUD", "word": "clothes", "wordID": 326, "conditions": [24, 800, "a", 24000], "trial": 4, "serialpos": 10, "trial_type": "single-audio", "trial_index": 179, "time_elapsed": 893508, "internal_node_id": "0.0-134.0"}}, {"uniqueid": "MTK0515:3U84XHCDIDKIHD93WTZYEXD4ZS04ZB", "current_trial": 180, "dateTime": 1511196309825, "trialdata": {"rt": -1000, "stimulus": "/static/audio/wordpool/DENIM.wav", "key_press": -1, "type": "PRES_AUD", "word": "denim", "wordID": 445, "conditions": [24, 800, "a", 24000], "trial": 4, "serialpos": 11, "trial_type": "single-audio", "trial_index": 180, "time_elapsed": 895188, "internal_node_id": "0.0-135.0"}}, {"uniqueid": "MTK0515:3U84XHCDIDKIHD93WTZYEXD4ZS04ZB", "current_trial": 181, "dateTime": 1511196311731, "trialdata": {"rt": -1000, "stimulus": "/static/audio/wordpool/FLESH.wav", "key_press": -1, "type": "PRES_AUD", "word": "flesh", "wordID": 578, "conditions": [24, 800, "a", 24000], "trial": 4, "serialpos": 12, "trial_type": "single-audio", "trial_index": 181, "time_elapsed": 897094, "internal_node_id": "0.0-136.0"}}, {"uniqueid": "MTK0515:3U84XHCDIDKIHD93WTZYEXD4ZS04ZB", "current_trial": 182, "dateTime": 1511196313660, "trialdata": {"rt": -1000, "stimulus": "/static/audio/wordpool/FRECKLE.wav", "key_press": -1, "type": "PRES_AUD", "word": "freckle", "wordID": 601, "conditions": [24, 800, "a", 24000], "trial": 4, "serialpos": 13, "trial_type": "single-audio", "trial_index": 182, "time_elapsed": 899023, "internal_node_id": "0.0-137.0"}}, {"uniqueid": "MTK0515:3U84XHCDIDKIHD93WTZYEXD4ZS04ZB", "current_trial": 183, "dateTime": 1511196315339, "trialdata": {"rt": -1000, "stimulus": "/static/audio/wordpool/BATHTUB.wav", "key_press": -1, "type": "PRES_AUD", "word": "bathtub", "wordID": 99, "conditions": [24, 800, "a", 24000], "trial": 4, "serialpos": 14, "trial_type": "single-audio", "trial_index": 183, "time_elapsed": 900701, "internal_node_id": "0.0-138.0"}}, {"uniqueid": "MTK0515:3U84XHCDIDKIHD93WTZYEXD4ZS04ZB", "current_trial": 184, "dateTime": 1511196317191, "trialdata": {"rt": -1000, "stimulus": "/static/audio/wordpool/FUNGUS.wav", "key_press": -1, "type": "PRES_AUD", "word": "fungus", "wordID": 613, "conditions": [24, 800, "a", 24000], "trial": 4, "serialpos": 15, "trial_type": "single-audio", "trial_index": 184, "time_elapsed": 902554, "internal_node_id": "0.0-139.0"}}, {"uniqueid": "MTK0515:3U84XHCDIDKIHD93WTZYEXD4ZS04ZB", "current_trial": 185, "dateTime": 1511196319155, "trialdata": {"rt": -1000, "stimulus": "/static/audio/wordpool/WASP.wav", "key_press": -1, "type": "PRES_AUD", "word": "wasp", "wordID": 1592, "conditions": [24, 800, "a", 24000], "trial": 4, "serialpos": 16, "trial_type": "single-audio", "trial_index": 185, "time_elapsed": 904517, "internal_node_id": "0.0-140.0"}}, {"uniqueid": "MTK0515:3U84XHCDIDKIHD93WTZYEXD4ZS04ZB", "current_trial": 186, "dateTime": 1511196321060, "trialdata": {"rt": -1000, "stimulus": "/static/audio/wordpool/JOURNAL.wav", "key_press": -1, "type": "PRES_AUD", "word": "journal", "wordID": 759, "conditions": [24, 800, "a", 24000], "trial": 4, "serialpos": 17, "trial_type": "single-audio", "trial_index": 186, "time_elapsed": 906421, "internal_node_id": "0.0-141.0"}}, {"uniqueid": "MTK0515:3U84XHCDIDKIHD93WTZYEXD4ZS04ZB", "current_trial": 187, "dateTime": 1511196322902, "trialdata": {"rt": -1000, "stimulus": "/static/audio/wordpool/SERVANT.wav", "key_press": -1, "type": "PRES_AUD", "word": "servant", "wordID": 1270, "conditions": [24, 800, "a", 24000], "trial": 4, "serialpos": 18, "trial_type": "single-audio", "trial_index": 187, "time_elapsed": 908264, "internal_node_id": "0.0-142.0"}}, {"uniqueid": "MTK0515:3U84XHCDIDKIHD93WTZYEXD4ZS04ZB", "current_trial": 188, "dateTime": 1511196324699, "trialdata": {"rt": -1000, "stimulus": "/static/audio/wordpool/CHAPEL.wav", "key_press": -1, "type": "PRES_AUD", "word": "chapel", "wordID": 279, "conditions": [24, 800, "a", 24000], "trial": 4, "serialpos": 19, "trial_type": "single-audio", "trial_index": 188, "time_elapsed": 910062, "internal_node_id": "0.0-143.0"}}, {"uniqueid": "MTK0515:3U84XHCDIDKIHD93WTZYEXD4ZS04ZB", "current_trial": 189, "dateTime": 1511196326531, "trialdata": {"rt": -1000, "stimulus": "/static/audio/wordpool/WORKER.wav", "key_press": -1, "type": "PRES_AUD", "word": "worker", "wordID": 1620, "conditions": [24, 800, "a", 24000], "trial": 4, "serialpos": 20, "trial_type": "single-audio", "trial_index": 189, "time_elapsed": 911893, "internal_node_id": "0.0-144.0"}}, {"uniqueid": "MTK0515:3U84XHCDIDKIHD93WTZYEXD4ZS04ZB", "current_trial": 190, "dateTime": 1511196328482, "trialdata": {"rt": -1000, "stimulus": "/static/audio/wordpool/FLASK.wav", "key_press": -1, "type": "PRES_AUD", "word": "flask", "wordID": 575, "conditions": [24, 800, "a", 24000], "trial": 4, "serialpos": 21, "trial_type": "single-audio", "trial_index": 190, "time_elapsed": 913845, "internal_node_id": "0.0-145.0"}}, {"uniqueid": "MTK0515:3U84XHCDIDKIHD93WTZYEXD4ZS04ZB", "current_trial": 191, "dateTime": 1511196330384, "trialdata": {"rt": -1000, "stimulus": "/static/audio/wordpool/CHURCH.wav", "key_press": -1, "type": "PRES_AUD", "word": "church", "wordID": 306, "conditions": [24, 800, "a", 24000], "trial": 4, "serialpos": 22, "trial_type": "single-audio", "trial_index": 191, "time_elapsed": 915746, "internal_node_id": "0.0-146.0"}}, {"uniqueid": "MTK0515:3U84XHCDIDKIHD93WTZYEXD4ZS04ZB", "current_trial": 192, "dateTime": 1511196332147, "trialdata": {"rt": -1000, "stimulus": "/static/audio/wordpool/TURNIP.wav", "key_press": -1, "type": "PRES_AUD", "word": "turnip", "wordID": 1520, "conditions": [24, 800, "a", 24000], "trial": 4, "serialpos": 23, "trial_type": "single-audio", "trial_index": 192, "time_elapsed": 917510, "internal_node_id": "0.0-147.0"}}, {"uniqueid": "MTK0515:3U84XHCDIDKIHD93WTZYEXD4ZS04ZB", "current_trial": 193, "dateTime": 1511196333540, "trialdata": {"rt": -1, "stimulus": "", "key_press": -1, "type": "PRE_RECALL_DELAY", "trial_type": "single-stim", "trial_index": 193, "time_elapsed": 918903, "internal_node_id": "0.0-148.0-0.0"}}, {"uniqueid": "MTK0515:3U84XHCDIDKIHD93WTZYEXD4ZS04ZB", "current_trial": 194, "dateTime": 1511196334043, "trialdata": {"rt": -1000, "stimulus": "/static/audio/400Hz.wav", "key_press": -1, "type": "PRE_RECALL_ALERT", "trial_type": "single-audio", "trial_index": 194, "time_elapsed": 919405, "internal_node_id": "0.0-149.0"}}, {"uniqueid": "MTK0515:3U84XHCDIDKIHD93WTZYEXD4ZS04ZB", "current_trial": 195, "dateTime": 1511196394053, "trialdata": {"rt": [2362, 4573, 7945, 11205, 15678, 17811, 20104, 26995, 28390, 34332, 44636, 46158], "recwords": ["flask", "church", "turnip", "chapel", "bathtub", "fungus", "servant", "waitress", "cashier", "journal", "freckle", "flesh"], "type": "FREE_RECALL", "conditions": [24, 800, "a", 24000], "trial": 4, "trial_type": "free-recall", "trial_index": 195, "time_elapsed": 979411, "internal_node_id": "0.0-150.0-0.0"}}, {"uniqueid": "MTK0515:3U84XHCDIDKIHD93WTZYEXD4ZS04ZB", "current_trial": 196, "dateTime": 1511196440005, "trialdata": {"rt": 43949, "key_press": 32, "type": "INSTRUCTIONS", "trial_type": "text", "trial_index": 196, "time_elapsed": 1025367, "internal_node_id": "0.0-151.0"}}, {"uniqueid": "MTK0515:3U84XHCDIDKIHD93WTZYEXD4ZS04ZB", "current_trial": 197, "dateTime": 1511196454012, "trialdata": {"rt": [3798, 6510, 10290], "responses": ["15", "10", "20"], "num1": [2, 1, 9, 3], "num2": [6, 7, 8, 4], "num3": [7, 2, 3, 7], "type": "DISTRACTOR", "conditions": [24, 1600, "a", 12000], "trial": 5, "trial_type": "math-distractor", "trial_index": 197, "time_elapsed": 1039375, "internal_node_id": "0.0-152.0"}}, {"uniqueid": "MTK0515:3U84XHCDIDKIHD93WTZYEXD4ZS04ZB", "current_trial": 198, "dateTime": 1511196457016, "trialdata": {"rt": -1, "stimulus": "<p id=\"stim\">10</p>", "key_press": -1, "trial_type": "single-stim", "trial_index": 198, "time_elapsed": 1042379, "internal_node_id": "0.0-153.0-0.0"}}, {"uniqueid": "MTK0515:3U84XHCDIDKIHD93WTZYEXD4ZS04ZB", "current_trial": 199, "dateTime": 1511196458018, "trialdata": {"rt": -1, "stimulus": "<p id=\"stim\">9</p>", "key_press": -1, "trial_type": "single-stim", "trial_index": 199, "time_elapsed": 1043381, "internal_node_id": "0.0-153.0-1.0"}}, {"uniqueid": "MTK0515:3U84XHCDIDKIHD93WTZYEXD4ZS04ZB", "current_trial": 200, "dateTime": 1511196459021, "trialdata": {"rt": -1, "stimulus": "<p id=\"stim\">8</p>", "key_press": -1, "trial_type": "single-stim", "trial_index": 200, "time_elapsed": 1044384, "internal_node_id": "0.0-153.0-2.0"}}, {"uniqueid": "MTK0515:3U84XHCDIDKIHD93WTZYEXD4ZS04ZB", "current_trial": 201, "dateTime": 1511196460028, "trialdata": {"rt": -1, "stimulus": "<p id=\"stim\">7</p>", "key_press": -1, "trial_type": "single-stim", "trial_index": 201, "time_elapsed": 1045387, "internal_node_id": "0.0-153.0-3.0"}}, {"uniqueid": "MTK0515:3U84XHCDIDKIHD93WTZYEXD4ZS04ZB", "current_trial": 202, "dateTime": 1511196461033, "trialdata": {"rt": -1, "stimulus": "<p id=\"stim\">6</p>", "key_press": -1, "trial_type": "single-stim", "trial_index": 202, "time_elapsed": 1046395, "internal_node_id": "0.0-153.0-4.0"}}, {"uniqueid": "MTK0515:3U84XHCDIDKIHD93WTZYEXD4ZS04ZB", "current_trial": 203, "dateTime": 1511196462036, "trialdata": {"rt": -1, "stimulus": "<p id=\"stim\">5</p>", "key_press": -1, "trial_type": "single-stim", "trial_index": 203, "time_elapsed": 1047399, "internal_node_id": "0.0-153.0-5.0"}}, {"uniqueid": "MTK0515:3U84XHCDIDKIHD93WTZYEXD4ZS04ZB", "current_trial": 204, "dateTime": 1511196463039, "trialdata": {"rt": -1, "stimulus": "<p id=\"stim\">4</p>", "key_press": -1, "trial_type": "single-stim", "trial_index": 204, "time_elapsed": 1048402, "internal_node_id": "0.0-153.0-6.0"}}, {"uniqueid": "MTK0515:3U84XHCDIDKIHD93WTZYEXD4ZS04ZB", "current_trial": 205, "dateTime": 1511196464042, "trialdata": {"rt": -1, "stimulus": "<p id=\"stim\">3</p>", "key_press": -1, "trial_type": "single-stim", "trial_index": 205, "time_elapsed": 1049405, "internal_node_id": "0.0-153.0-7.0"}}, {"uniqueid": "MTK0515:3U84XHCDIDKIHD93WTZYEXD4ZS04ZB", "current_trial": 206, "dateTime": 1511196465045, "trialdata": {"rt": -1, "stimulus": "<p id=\"stim\">2</p>", "key_press": -1, "trial_type": "single-stim", "trial_index": 206, "time_elapsed": 1050408, "internal_node_id": "0.0-153.0-8.0"}}, {"uniqueid": "MTK0515:3U84XHCDIDKIHD93WTZYEXD4ZS04ZB", "current_trial": 207, "dateTime": 1511196466048, "trialdata": {"rt": -1, "stimulus": "<p id=\"stim\">1</p>", "key_press": -1, "trial_type": "single-stim", "trial_index": 207, "time_elapsed": 1051411, "internal_node_id": "0.0-153.0-9.0"}}, {"uniqueid": "MTK0515:3U84XHCDIDKIHD93WTZYEXD4ZS04ZB", "current_trial": 208, "dateTime": 1511196467551, "trialdata": {"rt": -1, "stimulus": "<p id=\"stim\">+</p>", "key_press": -1, "type": "FIXATION", "trial_type": "single-stim", "trial_index": 208, "time_elapsed": 1052914, "internal_node_id": "0.0-154.0-0.0"}}, {"uniqueid": "MTK0515:3U84XHCDIDKIHD93WTZYEXD4ZS04ZB", "current_trial": 209, "dateTime": 1511196470176, "trialdata": {"rt": -1000, "stimulus": "/static/audio/wordpool/NECKLACE.wav", "key_press": -1, "type": "PRES_AUD", "word": "necklace", "wordID": 939, "conditions": [24, 1600, "a", 12000], "trial": 5, "serialpos": 0, "trial_type": "single-audio", "trial_index": 209, "time_elapsed": 1055539, "internal_node_id": "0.0-155.0"}}, {"uniqueid": "MTK0515:3U84XHCDIDKIHD93WTZYEXD4ZS04ZB", "current_trial": 210, "dateTime": 1511196472689, "trialdata": {"rt": -1000, "stimulus": "/static/audio/wordpool/BALLOON.wav", "key_press": -1, "type": "PRES_AUD", "word": "balloon", "wordID": 74, "conditions": [24, 1600, "a", 12000], "trial": 5, "serialpos": 1, "trial_type": "single-audio", "trial_index": 210, "time_elapsed": 1058052, "internal_node_id": "0.0-156.0"}}, {"uniqueid": "MTK0515:3U84XHCDIDKIHD93WTZYEXD4ZS04ZB", "current_trial": 211, "dateTime": 1511196475462, "trialdata": {"rt": -1000, "stimulus": "/static/audio/wordpool/CRITIC.wav", "key_press": -1, "type": "PRES_AUD", "word": "critic", "wordID": 409, "conditions": [24, 1600, "a", 12000], "trial": 5, "serialpos": 2, "trial_type": "single-audio", "trial_index": 211, "time_elapsed": 1060825, "internal_node_id": "0.0-157.0"}}, {"uniqueid": "MTK0515:3U84XHCDIDKIHD93WTZYEXD4ZS04ZB", "current_trial": 212, "dateTime": 1511196478055, "trialdata": {"rt": -1000, "stimulus": "/static/audio/wordpool/BREAST.wav", "key_press": -1, "type": "PRES_AUD", "word": "breast", "wordID": 170, "conditions": [24, 1600, "a", 12000], "trial": 5, "serialpos": 3, "trial_type": "single-audio", "trial_index": 212, "time_elapsed": 1063418, "internal_node_id": "0.0-158.0"}}, {"uniqueid": "MTK0515:3U84XHCDIDKIHD93WTZYEXD4ZS04ZB", "current_trial": 213, "dateTime": 1511196480766, "trialdata": {"rt": -1000, "stimulus": "/static/audio/wordpool/COOK.wav", "key_press": -1, "type": "PRES_AUD", "word": "cook", "wordID": 371, "conditions": [24, 1600, "a", 12000], "trial": 5, "serialpos": 4, "trial_type": "single-audio", "trial_index": 213, "time_elapsed": 1066129, "internal_node_id": "0.0-159.0"}}, {"uniqueid": "MTK0515:3U84XHCDIDKIHD93WTZYEXD4ZS04ZB", "current_trial": 214, "dateTime": 1511196483311, "trialdata": {"rt": -1000, "stimulus": "/static/audio/wordpool/MONSTER.wav", "key_press": -1, "type": "PRES_AUD", "word": "monster", "wordID": 911, "conditions": [24, 1600, "a", 12000], "trial": 5, "serialpos": 5, "trial_type": "single-audio", "trial_index": 214, "time_elapsed": 1068673, "internal_node_id": "0.0-160.0"}}, {"uniqueid": "MTK0515:3U84XHCDIDKIHD93WTZYEXD4ZS04ZB", "current_trial": 215, "dateTime": 1511196485847, "trialdata": {"rt": -1000, "stimulus": "/static/audio/wordpool/BEAST.wav", "key_press": -1, "type": "PRES_AUD", "word": "beast", "wordID": 107, "conditions": [24, 1600, "a", 12000], "trial": 5, "serialpos": 6, "trial_type": "single-audio", "trial_index": 215, "time_elapsed": 1071210, "internal_node_id": "0.0-161.0"}}, {"uniqueid": "MTK0515:3U84XHCDIDKIHD93WTZYEXD4ZS04ZB", "current_trial": 216, "dateTime": 1511196488413, "trialdata": {"rt": -1000, "stimulus": "/static/audio/wordpool/CHEST.wav", "key_press": -1, "type": "PRES_AUD", "word": "chest", "wordID": 294, "conditions": [24, 1600, "a", 12000], "trial": 5, "serialpos": 7, "trial_type": "single-audio", "trial_index": 216, "time_elapsed": 1073776, "internal_node_id": "0.0-162.0"}}, {"uniqueid": "MTK0515:3U84XHCDIDKIHD93WTZYEXD4ZS04ZB", "current_trial": 217, "dateTime": 1511196491043, "trialdata": {"rt": -1000, "stimulus": "/static/audio/wordpool/DIME.wav", "key_press": -1, "type": "PRES_AUD", "word": "dime", "wordID": 465, "conditions": [24, 1600, "a", 12000], "trial": 5, "serialpos": 8, "trial_type": "single-audio", "trial_index": 217, "time_elapsed": 1076405, "internal_node_id": "0.0-163.0"}}, {"uniqueid": "MTK0515:3U84XHCDIDKIHD93WTZYEXD4ZS04ZB", "current_trial": 218, "dateTime": 1511196493686, "trialdata": {"rt": -1000, "stimulus": "/static/audio/wordpool/KLEENEX.wav", "key_press": -1, "type": "PRES_AUD", "word": "kleenex", "wordID": 781, "conditions": [24, 1600, "a", 12000], "trial": 5, "serialpos": 9, "trial_type": "single-audio", "trial_index": 218, "time_elapsed": 1079049, "internal_node_id": "0.0-164.0"}}, {"uniqueid": "MTK0515:3U84XHCDIDKIHD93WTZYEXD4ZS04ZB", "current_trial": 219, "dateTime": 1511196496303, "trialdata": {"rt": -1000, "stimulus": "/static/audio/wordpool/ONION.wav", "key_press": -1, "type": "PRES_AUD", "word": "onion", "wordID": 976, "conditions": [24, 1600, "a", 12000], "trial": 5, "serialpos": 10, "trial_type": "single-audio", "trial_index": 219, "time_elapsed": 1081666, "internal_node_id": "0.0-165.0"}}, {"uniqueid": "MTK0515:3U84XHCDIDKIHD93WTZYEXD4ZS04ZB", "current_trial": 220, "dateTime": 1511196498781, "trialdata": {"rt": -1000, "stimulus": "/static/audio/wordpool/KITCHEN.wav", "key_press": -1, "type": "PRES_AUD", "word": "kitchen", "wordID": 777, "conditions": [24, 1600, "a", 12000], "trial": 5, "serialpos": 11, "trial_type": "single-audio", "trial_index": 220, "time_elapsed": 1084144, "internal_node_id": "0.0-166.0"}}, {"uniqueid": "MTK0515:3U84XHCDIDKIHD93WTZYEXD4ZS04ZB", "current_trial": 221, "dateTime": 1511196501333, "trialdata": {"rt": -1000, "stimulus": "/static/audio/wordpool/CHILD.wav", "key_press": -1, "type": "PRES_AUD", "word": "child", "wordID": 298, "conditions": [24, 1600, "a", 12000], "trial": 5, "serialpos": 12, "trial_type": "single-audio", "trial_index": 221, "time_elapsed": 1086695, "internal_node_id": "0.0-167.0"}}, {"uniqueid": "MTK0515:3U84XHCDIDKIHD93WTZYEXD4ZS04ZB", "current_trial": 222, "dateTime": 1511196503767, "trialdata": {"rt": -1000, "stimulus": "/static/audio/wordpool/CONTRACT.wav", "key_press": -1, "type": "PRES_AUD", "word": "contract", "wordID": 367, "conditions": [24, 1600, "a", 12000], "trial": 5, "serialpos": 13, "trial_type": "single-audio", "trial_index": 222, "time_elapsed": 1089129, "internal_node_id": "0.0-168.0"}}, {"uniqueid": "MTK0515:3U84XHCDIDKIHD93WTZYEXD4ZS04ZB", "current_trial": 223, "dateTime": 1511196506529, "trialdata": {"rt": -1000, "stimulus": "/static/audio/wordpool/PERMIT.wav", "key_press": -1, "type": "PRES_AUD", "word": "permit", "wordID": 1050, "conditions": [24, 1600, "a", 12000], "trial": 5, "serialpos": 14, "trial_type": "single-audio", "trial_index": 223, "time_elapsed": 1091892, "internal_node_id": "0.0-169.0"}}, {"uniqueid": "MTK0515:3U84XHCDIDKIHD93WTZYEXD4ZS04ZB", "current_trial": 224, "dateTime": 1511196509120, "trialdata": {"rt": -1000, "stimulus": "/static/audio/wordpool/OMELET.wav", "key_press": -1, "type": "PRES_AUD", "word": "omelet", "wordID": 975, "conditions": [24, 1600, "a", 12000], "trial": 5, "serialpos": 15, "trial_type": "single-audio", "trial_index": 224, "time_elapsed": 1094483, "internal_node_id": "0.0-170.0"}}, {"uniqueid": "MTK0515:3U84XHCDIDKIHD93WTZYEXD4ZS04ZB", "current_trial": 225, "dateTime": 1511196511593, "trialdata": {"rt": -1000, "stimulus": "/static/audio/wordpool/DOLPHIN.wav", "key_press": -1, "type": "PRES_AUD", "word": "dolphin", "wordID": 482, "conditions": [24, 1600, "a", 12000], "trial": 5, "serialpos": 16, "trial_type": "single-audio", "trial_index": 225, "time_elapsed": 1096956, "internal_node_id": "0.0-171.0"}}, {"uniqueid": "MTK0515:3U84XHCDIDKIHD93WTZYEXD4ZS04ZB", "current_trial": 226, "dateTime": 1511196514051, "trialdata": {"rt": -1000, "stimulus": "/static/audio/wordpool/SKIRT.wav", "key_press": -1, "type": "PRES_AUD", "word": "skirt", "wordID": 1318, "conditions": [24, 1600, "a", 12000], "trial": 5, "serialpos": 17, "trial_type": "single-audio", "trial_index": 226, "time_elapsed": 1099413, "internal_node_id": "0.0-172.0"}}, {"uniqueid": "MTK0515:3U84XHCDIDKIHD93WTZYEXD4ZS04ZB", "current_trial": 227, "dateTime": 1511196516536, "trialdata": {"rt": -1000, "stimulus": "/static/audio/wordpool/BACON.wav", "key_press": -1, "type": "PRES_AUD", "word": "bacon", "wordID": 66, "conditions": [24, 1600, "a", 12000], "trial": 5, "serialpos": 18, "trial_type": "single-audio", "trial_index": 227, "time_elapsed": 1101898, "internal_node_id": "0.0-173.0"}}, {"uniqueid": "MTK0515:3U84XHCDIDKIHD93WTZYEXD4ZS04ZB", "current_trial": 228, "dateTime": 1511196519241, "trialdata": {"rt": -1000, "stimulus": "/static/audio/wordpool/CHEMIST.wav", "key_press": -1, "type": "PRES_AUD", "word": "chemist", "wordID": 291, "conditions": [24, 1600, "a", 12000], "trial": 5, "serialpos": 19, "trial_type": "single-audio", "trial_index": 228, "time_elapsed": 1104604, "internal_node_id": "0.0-174.0"}}, {"uniqueid": "MTK0515:3U84XHCDIDKIHD93WTZYEXD4ZS04ZB", "current_trial": 229, "dateTime": 1511196521812, "trialdata": {"rt": -1000, "stimulus": "/static/audio/wordpool/SPHINX.wav", "key_press": -1, "type": "PRES_AUD", "word": "sphinx", "wordID": 1348, "conditions": [24, 1600, "a", 12000], "trial": 5, "serialpos": 20, "trial_type": "single-audio", "trial_index": 229, "time_elapsed": 1107175, "internal_node_id": "0.0-175.0"}}, {"uniqueid": "MTK0515:3U84XHCDIDKIHD93WTZYEXD4ZS04ZB", "current_trial": 230, "dateTime": 1511196524284, "trialdata": {"rt": -1000, "stimulus": "/static/audio/wordpool/SISTER.wav", "key_press": -1, "type": "PRES_AUD", "word": "sister", "wordID": 1311, "conditions": [24, 1600, "a", 12000], "trial": 5, "serialpos": 21, "trial_type": "single-audio", "trial_index": 230, "time_elapsed": 1109647, "internal_node_id": "0.0-176.0"}}, {"uniqueid": "MTK0515:3U84XHCDIDKIHD93WTZYEXD4ZS04ZB", "current_trial": 231, "dateTime": 1511196526894, "trialdata": {"rt": -1000, "stimulus": "/static/audio/wordpool/PECAN.wav", "key_press": -1, "type": "PRES_AUD", "word": "pecan", "wordID": 1035, "conditions": [24, 1600, "a", 12000], "trial": 5, "serialpos": 22, "trial_type": "single-audio", "trial_index": 231, "time_elapsed": 1112257, "internal_node_id": "0.0-177.0"}}, {"uniqueid": "MTK0515:3U84XHCDIDKIHD93WTZYEXD4ZS04ZB", "current_trial": 232, "dateTime": 1511196529564, "trialdata": {"rt": -1000, "stimulus": "/static/audio/wordpool/PEACH.wav", "key_press": -1, "type": "PRES_AUD", "word": "peach", "wordID": 1030, "conditions": [24, 1600, "a", 12000], "trial": 5, "serialpos": 23, "trial_type": "single-audio", "trial_index": 232, "time_elapsed": 1114927, "internal_node_id": "0.0-178.0"}}, {"uniqueid": "MTK0515:3U84XHCDIDKIHD93WTZYEXD4ZS04ZB", "current_trial": 233, "dateTime": 1511196530939, "trialdata": {"rt": -1, "stimulus": "", "key_press": -1, "type": "PRE_RECALL_DELAY", "trial_type": "single-stim", "trial_index": 233, "time_elapsed": 1116302, "internal_node_id": "0.0-179.0-0.0"}}, {"uniqueid": "MTK0515:3U84XHCDIDKIHD93WTZYEXD4ZS04ZB", "current_trial": 234, "dateTime": 1511196531441, "trialdata": {"rt": -1000, "stimulus": "/static/audio/400Hz.wav", "key_press": -1, "type": "PRE_RECALL_ALERT", "trial_type": "single-audio", "trial_index": 234, "time_elapsed": 1116804, "internal_node_id": "0.0-180.0"}}, {"uniqueid": "MTK0515:3U84XHCDIDKIHD93WTZYEXD4ZS04ZB", "current_trial": 235, "dateTime": 1511196591454, "trialdata": {"rt": [1810, 3514, 5501, 24954, 26770], "recwords": ["peach", "pecan", "sister", "kleenex", "onion"], "type": "FREE_RECALL", "conditions": [24, 1600, "a", 12000], "trial": 5, "trial_type": "free-recall", "trial_index": 235, "time_elapsed": 1176809, "internal_node_id": "0.0-181.0-0.0"}}, {"uniqueid": "MTK0515:3U84XHCDIDKIHD93WTZYEXD4ZS04ZB", "current_trial": 236, "dateTime": 1511196623420, "trialdata": {"rt": 29963, "key_press": 32, "type": "INSTRUCTIONS", "trial_type": "text", "trial_index": 236, "time_elapsed": 1208782, "internal_node_id": "0.0-182.0"}}, {"uniqueid": "MTK0515:3U84XHCDIDKIHD93WTZYEXD4ZS04ZB", "current_trial": 237, "dateTime": 1511196637427, "trialdata": {"rt": [3179, 6500, 10738], "responses": ["19", "23", "12"], "num1": [9, 7, 8, 9], "num2": [2, 9, 3, 8], "num3": [8, 7, 1, 8], "type": "DISTRACTOR", "conditions": [12, 800, "v", 12000], "trial": 6, "trial_type": "math-distractor", "trial_index": 237, "time_elapsed": 1222789, "internal_node_id": "0.0-183.0"}}, {"uniqueid": "MTK0515:3U84XHCDIDKIHD93WTZYEXD4ZS04ZB", "current_trial": 238, "dateTime": 1511196640430, "trialdata": {"rt": -1, "stimulus": "<p id=\"stim\">10</p>", "key_press": -1, "trial_type": "single-stim", "trial_index": 238, "time_elapsed": 1225793, "internal_node_id": "0.0-184.0-0.0"}}, {"uniqueid": "MTK0515:3U84XHCDIDKIHD93WTZYEXD4ZS04ZB", "current_trial": 239, "dateTime": 1511196641432, "trialdata": {"rt": -1, "stimulus": "<p id=\"stim\">9</p>", "key_press": -1, "trial_type": "single-stim", "trial_index": 239, "time_elapsed": 1226795, "internal_node_id": "0.0-184.0-1.0"}}, {"uniqueid": "MTK0515:3U84XHCDIDKIHD93WTZYEXD4ZS04ZB", "current_trial": 240, "dateTime": 1511196642435, "trialdata": {"rt": -1, "stimulus": "<p id=\"stim\">8</p>", "key_press": -1, "trial_type": "single-stim", "trial_index": 240, "time_elapsed": 1227798, "internal_node_id": "0.0-184.0-2.0"}}, {"uniqueid": "MTK0515:3U84XHCDIDKIHD93WTZYEXD4ZS04ZB", "current_trial": 241, "dateTime": 1511196643439, "trialdata": {"rt": -1, "stimulus": "<p id=\"stim\">7</p>", "key_press": -1, "trial_type": "single-stim", "trial_index": 241, "time_elapsed": 1228802, "internal_node_id": "0.0-184.0-3.0"}}, {"uniqueid": "MTK0515:3U84XHCDIDKIHD93WTZYEXD4ZS04ZB", "current_trial": 242, "dateTime": 1511196644441, "trialdata": {"rt": -1, "stimulus": "<p id=\"stim\">6</p>", "key_press": -1, "trial_type": "single-stim", "trial_index": 242, "time_elapsed": 1229804, "internal_node_id": "0.0-184.0-4.0"}}, {"uniqueid": "MTK0515:3U84XHCDIDKIHD93WTZYEXD4ZS04ZB", "current_trial": 243, "dateTime": 1511196645443, "trialdata": {"rt": -1, "stimulus": "<p id=\"stim\">5</p>", "key_press": -1, "trial_type": "single-stim", "trial_index": 243, "time_elapsed": 1230806, "internal_node_id": "0.0-184.0-5.0"}}, {"uniqueid": "MTK0515:3U84XHCDIDKIHD93WTZYEXD4ZS04ZB", "current_trial": 244, "dateTime": 1511196646448, "trialdata": {"rt": -1, "stimulus": "<p id=\"stim\">4</p>", "key_press": -1, "trial_type": "single-stim", "trial_index": 244, "time_elapsed": 1231810, "internal_node_id": "0.0-184.0-6.0"}}, {"uniqueid": "MTK0515:3U84XHCDIDKIHD93WTZYEXD4ZS04ZB", "current_trial": 245, "dateTime": 1511196647450, "trialdata": {"rt": -1, "stimulus": "<p id=\"stim\">3</p>", "key_press": -1, "trial_type": "single-stim", "trial_index": 245, "time_elapsed": 1232813, "internal_node_id": "0.0-184.0-7.0"}}, {"uniqueid": "MTK0515:3U84XHCDIDKIHD93WTZYEXD4ZS04ZB", "current_trial": 246, "dateTime": 1511196648453, "trialdata": {"rt": -1, "stimulus": "<p id=\"stim\">2</p>", "key_press": -1, "trial_type": "single-stim", "trial_index": 246, "time_elapsed": 1233816, "internal_node_id": "0.0-184.0-8.0"}}, {"uniqueid": "MTK0515:3U84XHCDIDKIHD93WTZYEXD4ZS04ZB", "current_trial": 247, "dateTime": 1511196649456, "trialdata": {"rt": -1, "stimulus": "<p id=\"stim\">1</p>", "key_press": -1, "trial_type": "single-stim", "trial_index": 247, "time_elapsed": 1234819, "internal_node_id": "0.0-184.0-9.0"}}, {"uniqueid": "MTK0515:3U84XHCDIDKIHD93WTZYEXD4ZS04ZB", "current_trial": 248, "dateTime": 1511196650960, "trialdata": {"rt": -1, "stimulus": "<p id=\"stim\">+</p>", "key_press": -1, "type": "FIXATION", "trial_type": "single-stim", "trial_index": 248, "time_elapsed": 1236322, "internal_node_id": "0.0-185.0-0.0"}}, {"uniqueid": "MTK0515:3U84XHCDIDKIHD93WTZYEXD4ZS04ZB", "current_trial": 249, "dateTime": 1511196651763, "trialdata": {"rt": -1, "stimulus": "<p id=\"stim\">BLOCKADE</p>", "key_press": -1, "type": "PRES_VIS", "word": "blockade", "wordID": 136, "conditions": [12, 800, "v", 12000], "trial": 6, "serialpos": 0, "trial_type": "single-stim", "trial_index": 249, "time_elapsed": 1237126, "internal_node_id": "0.0-186.0"}}, {"uniqueid": "MTK0515:3U84XHCDIDKIHD93WTZYEXD4ZS04ZB", "current_trial": 250, "dateTime": 1511196653413, "trialdata": {"rt": -1, "stimulus": "<p id=\"stim\">BANQUET</p>", "key_press": -1, "type": "PRES_VIS", "word": "banquet", "wordID": 85, "conditions": [12, 800, "v", 12000], "trial": 6, "serialpos": 1, "trial_type": "single-stim", "trial_index": 250, "time_elapsed": 1238776, "internal_node_id": "0.0-187.0"}}, {"uniqueid": "MTK0515:3U84XHCDIDKIHD93WTZYEXD4ZS04ZB", "current_trial": 251, "dateTime": 1511196655066, "trialdata": {"rt": -1, "stimulus": "<p id=\"stim\">POPCORN</p>", "key_press": -1, "type": "PRES_VIS", "word": "popcorn", "wordID": 1103, "conditions": [12, 800, "v", 12000], "trial": 6, "serialpos": 2, "trial_type": "single-stim", "trial_index": 251, "time_elapsed": 1240428, "internal_node_id": "0.0-188.0"}}, {"uniqueid": "MTK0515:3U84XHCDIDKIHD93WTZYEXD4ZS04ZB", "current_trial": 252, "dateTime": 1511196656712, "trialdata": {"rt": -1, "stimulus": "<p id=\"stim\">FREEZER</p>", "key_press": -1, "type": "PRES_VIS", "word": "freezer", "wordID": 603, "conditions": [12, 800, "v", 12000], "trial": 6, "serialpos": 3, "trial_type": "single-stim", "trial_index": 252, "time_elapsed": 1242075, "internal_node_id": "0.0-189.0"}}, {"uniqueid": "MTK0515:3U84XHCDIDKIHD93WTZYEXD4ZS04ZB", "current_trial": 253, "dateTime": 1511196658517, "trialdata": {"rt": -1, "stimulus": "<p id=\"stim\">TWISTER</p>", "key_press": -1, "type": "PRES_VIS", "word": "twister", "wordID": 1529, "conditions": [12, 800, "v", 12000], "trial": 6, "serialpos": 4, "trial_type": "single-stim", "trial_index": 253, "time_elapsed": 1243880, "internal_node_id": "0.0-190.0"}}, {"uniqueid": "MTK0515:3U84XHCDIDKIHD93WTZYEXD4ZS04ZB", "current_trial": 254, "dateTime": 1511196660287, "trialdata": {"rt": -1, "stimulus": "<p id=\"stim\">NURSE</p>", "key_press": -1, "type": "PRES_VIS", "word": "nurse", "wordID": 962, "conditions": [12, 800, "v", 12000], "trial": 6, "serialpos": 5, "trial_type": "single-stim", "trial_index": 254, "time_elapsed": 1245649, "internal_node_id": "0.0-191.0"}}, {"uniqueid": "MTK0515:3U84XHCDIDKIHD93WTZYEXD4ZS04ZB", "current_trial": 255, "dateTime": 1511196662278, "trialdata": {"rt": -1, "stimulus": "<p id=\"stim\">BOX</p>", "key_press": -1, "type": "PRES_VIS", "word": "box", "wordID": 158, "conditions": [12, 800, "v", 12000], "trial": 6, "serialpos": 6, "trial_type": "single-stim", "trial_index": 255, "time_elapsed": 1247640, "internal_node_id": "0.0-192.0"}}, {"uniqueid": "MTK0515:3U84XHCDIDKIHD93WTZYEXD4ZS04ZB", "current_trial": 256, "dateTime": 1511196663975, "trialdata": {"rt": -1, "stimulus": "<p id=\"stim\">PATROL</p>", "key_press": -1, "type": "PRES_VIS", "word": "patrol", "wordID": 1026, "conditions": [12, 800, "v", 12000], "trial": 6, "serialpos": 7, "trial_type": "single-stim", "trial_index": 256, "time_elapsed": 1249337, "internal_node_id": "0.0-193.0"}}, {"uniqueid": "MTK0515:3U84XHCDIDKIHD93WTZYEXD4ZS04ZB", "current_trial": 257, "dateTime": 1511196665927, "trialdata": {"rt": -1, "stimulus": "<p id=\"stim\">PATIENT</p>", "key_press": -1, "type": "PRES_VIS", "word": "patient", "wordID": 1023, "conditions": [12, 800, "v", 12000], "trial": 6, "serialpos": 8, "trial_type": "single-stim", "trial_index": 257, "time_elapsed": 1251290, "internal_node_id": "0.0-194.0"}}, {"uniqueid": "MTK0515:3U84XHCDIDKIHD93WTZYEXD4ZS04ZB", "current_trial": 258, "dateTime": 1511196667797, "trialdata": {"rt": -1, "stimulus": "<p id=\"stim\">SHELF</p>", "key_press": -1, "type": "PRES_VIS", "word": "shelf", "wordID": 1279, "conditions": [12, 800, "v", 12000], "trial": 6, "serialpos": 9, "trial_type": "single-stim", "trial_index": 258, "time_elapsed": 1253160, "internal_node_id": "0.0-195.0"}}, {"uniqueid": "MTK0515:3U84XHCDIDKIHD93WTZYEXD4ZS04ZB", "current_trial": 259, "dateTime": 1511196669432, "trialdata": {"rt": -1, "stimulus": "<p id=\"stim\">PORK</p>", "key_press": -1, "type": "PRES_VIS", "word": "pork", "wordID": 1107, "conditions": [12, 800, "v", 12000], "trial": 6, "serialpos": 10, "trial_type": "single-stim", "trial_index": 259, "time_elapsed": 1254794, "internal_node_id": "0.0-196.0"}}, {"uniqueid": "MTK0515:3U84XHCDIDKIHD93WTZYEXD4ZS04ZB", "current_trial": 260, "dateTime": 1511196671256, "trialdata": {"rt": -1, "stimulus": "<p id=\"stim\">SAUSAGE</p>", "key_press": -1, "type": "PRES_VIS", "word": "sausage", "wordID": 1237, "conditions": [12, 800, "v", 12000], "trial": 6, "serialpos": 11, "trial_type": "single-stim", "trial_index": 260, "time_elapsed": 1256619, "internal_node_id": "0.0-197.0"}}, {"uniqueid": "MTK0515:3U84XHCDIDKIHD93WTZYEXD4ZS04ZB", "current_trial": 261, "dateTime": 1511196673554, "trialdata": {"rt": -1, "stimulus": "", "key_press": -1, "type": "PRE_RECALL_DELAY", "trial_type": "single-stim", "trial_index": 261, "time_elapsed": 1258916, "internal_node_id": "0.0-198.0-0.0"}}, {"uniqueid": "MTK0515:3U84XHCDIDKIHD93WTZYEXD4ZS04ZB", "current_trial": 262, "dateTime": 1511196674056, "trialdata": {"rt": -1000, "stimulus": "/static/audio/400Hz.wav", "key_press": -1, "type": "PRE_RECALL_ALERT", "trial_type": "single-audio", "trial_index": 262, "time_elapsed": 1259419, "internal_node_id": "0.0-199.0"}}, {"uniqueid": "MTK0515:3U84XHCDIDKIHD93WTZYEXD4ZS04ZB", "current_trial": 263, "dateTime": 1511196734080, "trialdata": {"rt": [2916, 4546, 6006, 8032, 9683, 11260, 15681, 23578], "recwords": ["pork", "sausage", "shelf", "patrol", "nurse", "patient", "blockade", "twister"], "type": "FREE_RECALL", "conditions": [12, 800, "v", 12000], "trial": 6, "trial_type": "free-recall", "trial_index": 263, "time_elapsed": 1319429, "internal_node_id": "0.0-200.0-0.0"}}, {"uniqueid": "MTK0515:3U84XHCDIDKIHD93WTZYEXD4ZS04ZB", "current_trial": 264, "dateTime": 1511196738396, "trialdata": {"rt": 2313, "key_press": 32, "type": "INSTRUCTIONS", "trial_type": "text", "trial_index": 264, "time_elapsed": 1323758, "internal_node_id": "0.0-201.0"}}, {"uniqueid": "MTK0515:3U84XHCDIDKIHD93WTZYEXD4ZS04ZB", "current_trial": 265, "dateTime": 1511196764403, "trialdata": {"rt": [2532, 5766, 8442, 11541, 13924, 18785, 21272], "responses": ["12", "16", "12", "18", "10", "21", "23"], "num1": [6, 8, 6, 9, 1, 7, 9, 7], "num2": [1, 3, 5, 7, 2, 6, 7, 6], "num3": [5, 5, 1, 2, 7, 9, 7, 9], "type": "DISTRACTOR", "conditions": [24, 1600, "a", 24000], "trial": 7, "trial_type": "math-distractor", "trial_index": 265, "time_elapsed": 1349766, "internal_node_id": "0.0-202.0"}}, {"uniqueid": "MTK0515:3U84XHCDIDKIHD93WTZYEXD4ZS04ZB", "current_trial": 266, "dateTime": 1511196767407, "trialdata": {"rt": -1, "stimulus": "<p id=\"stim\">10</p>", "key_press": -1, "trial_type": "single-stim", "trial_index": 266, "time_elapsed": 1352770, "internal_node_id": "0.0-203.0-0.0"}}, {"uniqueid": "MTK0515:3U84XHCDIDKIHD93WTZYEXD4ZS04ZB", "current_trial": 267, "dateTime": 1511196768409, "trialdata": {"rt": -1, "stimulus": "<p id=\"stim\">9</p>", "key_press": -1, "trial_type": "single-stim", "trial_index": 267, "time_elapsed": 1353772, "internal_node_id": "0.0-203.0-1.0"}}, {"uniqueid": "MTK0515:3U84XHCDIDKIHD93WTZYEXD4ZS04ZB", "current_trial": 268, "dateTime": 1511196769411, "trialdata": {"rt": -1, "stimulus": "<p id=\"stim\">8</p>", "key_press": -1, "trial_type": "single-stim", "trial_index": 268, "time_elapsed": 1354774, "internal_node_id": "0.0-203.0-2.0"}}, {"uniqueid": "MTK0515:3U84XHCDIDKIHD93WTZYEXD4ZS04ZB", "current_trial": 269, "dateTime": 1511196770413, "trialdata": {"rt": -1, "stimulus": "<p id=\"stim\">7</p>", "key_press": -1, "trial_type": "single-stim", "trial_index": 269, "time_elapsed": 