{"condition": 0, "counterbalance": 453, "assignmentId": "3OVHNO1VE78VH9SWP40RH17AAYRDZF", "workerId": "MTK0144", "hitId": "3FSEU3P2NR7ET8RG7MWWB3QV3XIRRV", "currenttrial": 625, "bonus": 0, "data": [{"uniqueid": "MTK0144:3OVHNO1VE78VH9SWP40RH17AAYRDZF", "current_trial": 0, "dateTime": 1509289846786, "trialdata": {"rt": 9278, "key_press": 32, "type": "INSTRUCTIONS", "trial_type": "text", "trial_index": 0, "time_elapsed": 9281, "internal_node_id": "0.0-0.0"}}, {"uniqueid": "MTK0144:3OVHNO1VE78VH9SWP40RH17AAYRDZF", "current_trial": 1, "dateTime": 1509290077070, "trialdata": {"rt": 230282, "key_press": 32, "type": "INSTRUCTIONS", "trial_type": "text", "trial_index": 1, "time_elapsed": 239565, "internal_node_id": "0.0-1.0"}}, {"uniqueid": "MTK0144:3OVHNO1VE78VH9SWP40RH17AAYRDZF", "current_trial": 2, "dateTime": 1509290152199, "trialdata": {"rt": [75056], "responses": ["ocean"], "type": "AUDIO_TEST", "trial_type": "audio-test", "trial_index": 2, "time_elapsed": 314694, "internal_node_id": "0.0-2.0"}}, {"uniqueid": "MTK0144:3OVHNO1VE78VH9SWP40RH17AAYRDZF", "current_trial": 3, "dateTime": 1509290162829, "trialdata": {"rt": [10626], "responses": ["crystal"], "type": "AUDIO_TEST", "trial_type": "audio-test", "trial_index": 3, "time_elapsed": 325324, "internal_node_id": "0.0-3.0"}}, {"uniqueid": "MTK0144:3OVHNO1VE78VH9SWP40RH17AAYRDZF", "current_trial": 4, "dateTime": 1509290171169, "trialdata": {"rt": [8334], "responses": ["spice"], "type": "AUDIO_TEST", "trial_type": "audio-test", "trial_index": 4, "time_elapsed": 333664, "internal_node_id": "0.0-4.0"}}, {"uniqueid": "MTK0144:3OVHNO1VE78VH9SWP40RH17AAYRDZF", "current_trial": 5, "dateTime": 1509290177719, "trialdata": {"rt": 5799, "key_press": 32, "type": "INSTRUCTIONS", "trial_type": "text", "trial_index": 5, "time_elapsed": 340214, "internal_node_id": "0.0-5.0"}}, {"uniqueid": "MTK0144:3OVHNO1VE78VH9SWP40RH17AAYRDZF", "current_trial": 6, "dateTime": 1509290289736, "trialdata": {"rt": 112016, "key_press": 32, "type": "INSTRUCTIONS", "trial_type": "text", "trial_index": 6, "time_elapsed": 452231, "internal_node_id": "0.0-6.0"}}, {"uniqueid": "MTK0144:3OVHNO1VE78VH9SWP40RH17AAYRDZF", "current_trial": 7, "dateTime": 1509290312839, "trialdata": {"rt": 23101, "key_press": 32, "type": "INSTRUCTIONS", "trial_type": "text", "trial_index": 7, "time_elapsed": 475334, "internal_node_id": "0.0-7.0"}}, {"uniqueid": "MTK0144:3OVHNO1VE78VH9SWP40RH17AAYRDZF", "current_trial": 8, "dateTime": 1509290323208, "trialdata": {"rt": 10368, "key_press": 32, "type": "INSTRUCTIONS", "trial_type": "text", "trial_index": 8, "time_elapsed": 485703, "internal_node_id": "0.0-8.0"}}, {"uniqueid": "MTK0144:3OVHNO1VE78VH9SWP40RH17AAYRDZF", "current_trial": 9, "dateTime": 1509290342219, "trialdata": {"rt": [5474, 9197, 11835], "responses": ["21", "17", "13"], "num1": [4, 4, 8, 8], "num2": [9, 8, 4, 7], "num3": [8, 5, 1, 9], "type": "DISTRACTOR", "conditions": [18, 1200, "v", 18000], "trial": 0, "trial_type": "math-distractor", "trial_index": 9, "time_elapsed": 504714, "internal_node_id": "0.0-9.0"}}, {"uniqueid": "MTK0144:3OVHNO1VE78VH9SWP40RH17AAYRDZF", "current_trial": 10, "dateTime": 1509290345224, "trialdata": {"rt": -1, "stimulus": "<p id=\"stim\">10</p>", "key_press": -1, "trial_type": "single-stim", "trial_index": 10, "time_elapsed": 507719, "internal_node_id": "0.0-10.0-0.0"}}, {"uniqueid": "MTK0144:3OVHNO1VE78VH9SWP40RH17AAYRDZF", "current_trial": 11, "dateTime": 1509290346227, "trialdata": {"rt": -1, "stimulus": "<p id=\"stim\">9</p>", "key_press": -1, "trial_type": "single-stim", "trial_index": 11, "time_elapsed": 508722, "internal_node_id": "0.0-10.0-1.0"}}, {"uniqueid": "MTK0144:3OVHNO1VE78VH9SWP40RH17AAYRDZF", "current_trial": 12, "dateTime": 1509290347241, "trialdata": {"rt": -1, "stimulus": "<p id=\"stim\">8</p>", "key_press": -1, "trial_type": "single-stim", "trial_index": 12, "time_elapsed": 509736, "internal_node_id": "0.0-10.0-2.0"}}, {"uniqueid": "MTK0144:3OVHNO1VE78VH9SWP40RH17AAYRDZF", "current_trial": 13, "dateTime": 1509290348243, "trialdata": {"rt": -1, "stimulus": "<p id=\"stim\">7</p>", "key_press": -1, "trial_type": "single-stim", "trial_index": 13, "time_elapsed": 510738, "internal_node_id": "0.0-10.0-3.0"}}, {"uniqueid": "MTK0144:3OVHNO1VE78VH9SWP40RH17AAYRDZF", "current_trial": 14, "dateTime": 1509290349244, "trialdata": {"rt": -1, "stimulus": "<p id=\"stim\">6</p>", "key_press": -1, "trial_type": "single-stim", "trial_index": 14, "time_elapsed": 511739, "internal_node_id": "0.0-10.0-4.0"}}, {"uniqueid": "MTK0144:3OVHNO1VE78VH9SWP40RH17AAYRDZF", "current_trial": 15, "dateTime": 1509290350246, "trialdata": {"rt": -1, "stimulus": "<p id=\"stim\">5</p>", "key_press": -1, "trial_type": "single-stim", "trial_index": 15, "time_elapsed": 512740, "internal_node_id": "0.0-10.0-5.0"}}, {"uniqueid": "MTK0144:3OVHNO1VE78VH9SWP40RH17AAYRDZF", "current_trial": 16, "dateTime": 1509290351247, "trialdata": {"rt": -1, "stimulus": "<p id=\"stim\">4</p>", "key_press": -1, "trial_type": "single-stim", "trial_index": 16, "time_elapsed": 513742, "internal_node_id": "0.0-10.0-6.0"}}, {"uniqueid": "MTK0144:3OVHNO1VE78VH9SWP40RH17AAYRDZF", "current_trial": 17, "dateTime": 1509290352249, "trialdata": {"rt": -1, "stimulus": "<p id=\"stim\">3</p>", "key_press": -1, "trial_type": "single-stim", "trial_index": 17, "time_elapsed": 514744, "internal_node_id": "0.0-10.0-7.0"}}, {"uniqueid": "MTK0144:3OVHNO1VE78VH9SWP40RH17AAYRDZF", "current_trial": 18, "dateTime": 1509290353251, "trialdata": {"rt": -1, "stimulus": "<p id=\"stim\">2</p>", "key_press": -1, "trial_type": "single-stim", "trial_index": 18, "time_elapsed": 515746, "internal_node_id": "0.0-10.0-8.0"}}, {"uniqueid": "MTK0144:3OVHNO1VE78VH9SWP40RH17AAYRDZF", "current_trial": 19, "dateTime": 1509290354253, "trialdata": {"rt": -1, "stimulus": "<p id=\"stim\">1</p>", "key_press": -1, "trial_type": "single-stim", "trial_index": 19, "time_elapsed": 516748, "internal_node_id": "0.0-10.0-9.0"}}, {"uniqueid": "MTK0144:3OVHNO1VE78VH9SWP40RH17AAYRDZF", "current_trial": 20, "dateTime": 1509290355754, "trialdata": {"rt": -1, "stimulus": "<p id=\"stim\">+</p>", "key_press": -1, "type": "FIXATION", "trial_type": "single-stim", "trial_index": 20, "time_elapsed": 518249, "internal_node_id": "0.0-11.0-0.0"}}, {"uniqueid": "MTK0144:3OVHNO1VE78VH9SWP40RH17AAYRDZF", "current_trial": 21, "dateTime": 1509290356955, "trialdata": {"rt": -1, "stimulus": "<p id=\"stim\">LODGE</p>", "key_press": -1, "type": "PRES_VIS", "word": "lodge", "wordID": 838, "conditions": [18, 1200, "v", 18000], "trial": 0, "serialpos": 0, "trial_type": "single-stim", "trial_index": 21, "time_elapsed": 519450, "internal_node_id": "0.0-12.0"}}, {"uniqueid": "MTK0144:3OVHNO1VE78VH9SWP40RH17AAYRDZF", "current_trial": 22, "dateTime": 1509290359219, "trialdata": {"rt": -1, "stimulus": "<p id=\"stim\">LION</p>", "key_press": -1, "type": "PRES_VIS", "word": "lion", "wordID": 826, "conditions": [18, 1200, "v", 18000], "trial": 0, "serialpos": 1, "trial_type": "single-stim", "trial_index": 22, "time_elapsed": 521714, "internal_node_id": "0.0-13.0"}}, {"uniqueid": "MTK0144:3OVHNO1VE78VH9SWP40RH17AAYRDZF", "current_trial": 23, "dateTime": 1509290361295, "trialdata": {"rt": -1, "stimulus": "<p id=\"stim\">APRON</p>", "key_press": -1, "type": "PRES_VIS", "word": "apron", "wordID": 34, "conditions": [18, 1200, "v", 18000], "trial": 0, "serialpos": 2, "trial_type": "single-stim", "trial_index": 23, "time_elapsed": 523790, "internal_node_id": "0.0-14.0"}}, {"uniqueid": "MTK0144:3OVHNO1VE78VH9SWP40RH17AAYRDZF", "current_trial": 24, "dateTime": 1509290363469, "trialdata": {"rt": -1, "stimulus": "<p id=\"stim\">ZEBRA</p>", "key_press": -1, "type": "PRES_VIS", "word": "zebra", "wordID": 1634, "conditions": [18, 1200, "v", 18000], "trial": 0, "serialpos": 3, "trial_type": "single-stim", "trial_index": 24, "time_elapsed": 525964, "internal_node_id": "0.0-15.0"}}, {"uniqueid": "MTK0144:3OVHNO1VE78VH9SWP40RH17AAYRDZF", "current_trial": 25, "dateTime": 1509290365787, "trialdata": {"rt": -1, "stimulus": "<p id=\"stim\">OYSTER</p>", "key_press": -1, "type": "PRES_VIS", "word": "oyster", "wordID": 994, "conditions": [18, 1200, "v", 18000], "trial": 0, "serialpos": 4, "trial_type": "single-stim", "trial_index": 25, "time_elapsed": 528282, "internal_node_id": "0.0-16.0"}}, {"uniqueid": "MTK0144:3OVHNO1VE78VH9SWP40RH17AAYRDZF", "current_trial": 26, "dateTime": 1509290368044, "trialdata": {"rt": -1, "stimulus": "<p id=\"stim\">TOASTER</p>", "key_press": -1, "type": "PRES_VIS", "word": "toaster", "wordID": 1471, "conditions": [18, 1200, "v", 18000], "trial": 0, "serialpos": 5, "trial_type": "single-stim", "trial_index": 26, "time_elapsed": 530539, "internal_node_id": "0.0-17.0"}}, {"uniqueid": "MTK0144:3OVHNO1VE78VH9SWP40RH17AAYRDZF", "current_trial": 27, "dateTime": 1509290370349, "trialdata": {"rt": -1, "stimulus": "<p id=\"stim\">LEOPARD</p>", "key_press": -1, "type": "PRES_VIS", "word": "leopard", "wordID": 811, "conditions": [18, 1200, "v", 18000], "trial": 0, "serialpos": 6, "trial_type": "single-stim", "trial_index": 27, "time_elapsed": 532844, "internal_node_id": "0.0-18.0"}}, {"uniqueid": "MTK0144:3OVHNO1VE78VH9SWP40RH17AAYRDZF", "current_trial": 28, "dateTime": 1509290372721, "trialdata": {"rt": -1, "stimulus": "<p id=\"stim\">HAWK</p>", "key_press": -1, "type": "PRES_VIS", "word": "hawk", "wordID": 691, "conditions": [18, 1200, "v", 18000], "trial": 0, "serialpos": 7, "trial_type": "single-stim", "trial_index": 28, "time_elapsed": 535216, "internal_node_id": "0.0-19.0"}}, {"uniqueid": "MTK0144:3OVHNO1VE78VH9SWP40RH17AAYRDZF", "current_trial": 29, "dateTime": 1509290374931, "trialdata": {"rt": -1, "stimulus": "<p id=\"stim\">GUITAR</p>", "key_press": -1, "type": "PRES_VIS", "word": "guitar", "wordID": 669, "conditions": [18, 1200, "v", 18000], "trial": 0, "serialpos": 8, "trial_type": "single-stim", "trial_index": 29, "time_elapsed": 537426, "internal_node_id": "0.0-20.0"}}, {"uniqueid": "MTK0144:3OVHNO1VE78VH9SWP40RH17AAYRDZF", "current_trial": 30, "dateTime": 1509290377101, "trialdata": {"rt": -1, "stimulus": "<p id=\"stim\">PEANUT</p>", "key_press": -1, "type": "PRES_VIS", "word": "peanut", "wordID": 1031, "conditions": [18, 1200, "v", 18000], "trial": 0, "serialpos": 9, "trial_type": "single-stim", "trial_index": 30, "time_elapsed": 539596, "internal_node_id": "0.0-21.0"}}, {"uniqueid": "MTK0144:3OVHNO1VE78VH9SWP40RH17AAYRDZF", "current_trial": 31, "dateTime": 1509290379158, "trialdata": {"rt": -1, "stimulus": "<p id=\"stim\">CAMEL</p>", "key_press": -1, "type": "PRES_VIS", "word": "camel", "wordID": 222, "conditions": [18, 1200, "v", 18000], "trial": 0, "serialpos": 10, "trial_type": "single-stim", "trial_index": 31, "time_elapsed": 541653, "internal_node_id": "0.0-22.0"}}, {"uniqueid": "MTK0144:3OVHNO1VE78VH9SWP40RH17AAYRDZF", "current_trial": 32, "dateTime": 1509290381161, "trialdata": {"rt": -1, "stimulus": "<p id=\"stim\">CURTAIN</p>", "key_press": -1, "type": "PRES_VIS", "word": "curtain", "wordID": 426, "conditions": [18, 1200, "v", 18000], "trial": 0, "serialpos": 11, "trial_type": "single-stim", "trial_index": 32, "time_elapsed": 543656, "internal_node_id": "0.0-23.0"}}, {"uniqueid": "MTK0144:3OVHNO1VE78VH9SWP40RH17AAYRDZF", "current_trial": 33, "dateTime": 1509290383562, "trialdata": {"rt": -1, "stimulus": "<p id=\"stim\">BULLET</p>", "key_press": -1, "type": "PRES_VIS", "word": "bullet", "wordID": 193, "conditions": [18, 1200, "v", 18000], "trial": 0, "serialpos": 12, "trial_type": "single-stim", "trial_index": 33, "time_elapsed": 546057, "internal_node_id": "0.0-24.0"}}, {"uniqueid": "MTK0144:3OVHNO1VE78VH9SWP40RH17AAYRDZF", "current_trial": 34, "dateTime": 1509290385664, "trialdata": {"rt": -1, "stimulus": "<p id=\"stim\">MASK</p>", "key_press": -1, "type": "PRES_VIS", "word": "mask", "wordID": 875, "conditions": [18, 1200, "v", 18000], "trial": 0, "serialpos": 13, "trial_type": "single-stim", "trial_index": 34, "time_elapsed": 548159, "internal_node_id": "0.0-25.0"}}, {"uniqueid": "MTK0144:3OVHNO1VE78VH9SWP40RH17AAYRDZF", "current_trial": 35, "dateTime": 1509290387932, "trialdata": {"rt": -1, "stimulus": "<p id=\"stim\">RECORD</p>", "key_press": -1, "type": "PRES_VIS", "word": "record", "wordID": 1175, "conditions": [18, 1200, "v", 18000], "trial": 0, "serialpos": 14, "trial_type": "single-stim", "trial_index": 35, "time_elapsed": 550427, "internal_node_id": "0.0-26.0"}}, {"uniqueid": "MTK0144:3OVHNO1VE78VH9SWP40RH17AAYRDZF", "current_trial": 36, "dateTime": 1509290390298, "trialdata": {"rt": -1, "stimulus": "<p id=\"stim\">FIDDLE</p>", "key_press": -1, "type": "PRES_VIS", "word": "fiddle", "wordID": 560, "conditions": [18, 1200, "v", 18000], "trial": 0, "serialpos": 15, "trial_type": "single-stim", "trial_index": 36, "time_elapsed": 552793, "internal_node_id": "0.0-27.0"}}, {"uniqueid": "MTK0144:3OVHNO1VE78VH9SWP40RH17AAYRDZF", "current_trial": 37, "dateTime": 1509290392312, "trialdata": {"rt": -1, "stimulus": "<p id=\"stim\">NOTEBOOK</p>", "key_press": -1, "type": "PRES_VIS", "word": "notebook", "wordID": 958, "conditions": [18, 1200, "v", 18000], "trial": 0, "serialpos": 16, "trial_type": "single-stim", "trial_index": 37, "time_elapsed": 554807, "internal_node_id": "0.0-28.0"}}, {"uniqueid": "MTK0144:3OVHNO1VE78VH9SWP40RH17AAYRDZF", "current_trial": 38, "dateTime": 1509290394393, "trialdata": {"rt": -1, "stimulus": "<p id=\"stim\">BATHTUB</p>", "key_press": -1, "type": "PRES_VIS", "word": "bathtub", "wordID": 99, "conditions": [18, 1200, "v", 18000], "trial": 0, "serialpos": 17, "trial_type": "single-stim", "trial_index": 38, "time_elapsed": 556888, "internal_node_id": "0.0-29.0"}}, {"uniqueid": "MTK0144:3OVHNO1VE78VH9SWP40RH17AAYRDZF", "current_trial": 39, "dateTime": 1509290396709, "trialdata": {"rt": -1, "stimulus": "", "key_press": -1, "type": "PRE_RECALL_DELAY", "trial_type": "single-stim", "trial_index": 39, "time_elapsed": 559204, "internal_node_id": "0.0-30.0-0.0"}}, {"uniqueid": "MTK0144:3OVHNO1VE78VH9SWP40RH17AAYRDZF", "current_trial": 40, "dateTime": 1509290397295, "trialdata": {"rt": -1000, "stimulus": "/static/audio/400Hz.wav", "key_press": -1, "type": "PRE_RECALL_ALERT", "trial_type": "single-audio", "trial_index": 40, "time_elapsed": 559790, "internal_node_id": "0.0-31.0"}}, {"uniqueid": "MTK0144:3OVHNO1VE78VH9SWP40RH17AAYRDZF", "current_trial": 41, "dateTime": 1509290457299, "trialdata": {"rt": [4721, 7296, 9327, 12653, 14564, 16030, 55813], "recwords": ["bathtub", "notebook", "lion", "hawk", "zebra", "fiddle", "cheeta"], "type": "FREE_RECALL", "conditions": [18, 1200, "v", 18000], "trial": 0, "trial_type": "free-recall", "trial_index": 41, "time_elapsed": 619792, "internal_node_id": "0.0-32.0-0.0"}}, {"uniqueid": "MTK0144:3OVHNO1VE78VH9SWP40RH17AAYRDZF", "current_trial": 42, "dateTime": 1509290461086, "trialdata": {"rt": 1785, "key_press": 13, "type": "INSTRUCTIONS", "trial_type": "text", "trial_index": 42, "time_elapsed": 623581, "internal_node_id": "0.0-33.0"}}, {"uniqueid": "MTK0144:3OVHNO1VE78VH9SWP40RH17AAYRDZF", "current_trial": 43, "dateTime": 1509290481089, "trialdata": {"rt": [4057, 6351, 9716, 15985], "responses": ["13", "11", "11", "20"], "num1": [4, 1, 5, 6, 2], "num2": [7, 9, 2, 5, 3], "num3": [2, 1, 4, 9, 5], "type": "DISTRACTOR", "conditions": [18, 1200, "a", 18000], "trial": 1, "trial_type": "math-distractor", "trial_index": 43, "time_elapsed": 643584, "internal_node_id": "0.0-34.0"}}, {"uniqueid": "MTK0144:3OVHNO1VE78VH9SWP40RH17AAYRDZF", "current_trial": 44, "dateTime": 1509290484090, "trialdata": {"rt": -1, "stimulus": "<p id=\"stim\">10</p>", "key_press": -1, "trial_type": "single-stim", "trial_index": 44, "time_elapsed": 646585, "internal_node_id": "0.0-35.0-0.0"}}, {"uniqueid": "MTK0144:3OVHNO1VE78VH9SWP40RH17AAYRDZF", "current_trial": 45, "dateTime": 1509290485092, "trialdata": {"rt": -1, "stimulus": "<p id=\"stim\">9</p>", "key_press": -1, "trial_type": "single-stim", "trial_index": 45, "time_elapsed": 647587, "internal_node_id": "0.0-35.0-1.0"}}, {"uniqueid": "MTK0144:3OVHNO1VE78VH9SWP40RH17AAYRDZF", "current_trial": 46, "dateTime": 1509290486094, "trialdata": {"rt": -1, "stimulus": "<p id=\"stim\">8</p>", "key_press": -1, "trial_type": "single-stim", "trial_index": 46, "time_elapsed": 648589, "internal_node_id": "0.0-35.0-2.0"}}, {"uniqueid": "MTK0144:3OVHNO1VE78VH9SWP40RH17AAYRDZF", "current_trial": 47, "dateTime": 1509290487095, "trialdata": {"rt": -1, "stimulus": "<p id=\"stim\">7</p>", "key_press": -1, "trial_type": "single-stim", "trial_index": 47, "time_elapsed": 649590, "internal_node_id": "0.0-35.0-3.0"}}, {"uniqueid": "MTK0144:3OVHNO1VE78VH9SWP40RH17AAYRDZF", "current_trial": 48, "dateTime": 1509290488096, "trialdata": {"rt": -1, "stimulus": "<p id=\"stim\">6</p>", "key_press": -1, "trial_type": "single-stim", "trial_index": 48, "time_elapsed": 650591, "internal_node_id": "0.0-35.0-4.0"}}, {"uniqueid": "MTK0144:3OVHNO1VE78VH9SWP40RH17AAYRDZF", "current_trial": 49, "dateTime": 1509290489099, "trialdata": {"rt": -1, "stimulus": "<p id=\"stim\">5</p>", "key_press": -1, "trial_type": "single-stim", "trial_index": 49, "time_elapsed": 651594, "internal_node_id": "0.0-35.0-5.0"}}, {"uniqueid": "MTK0144:3OVHNO1VE78VH9SWP40RH17AAYRDZF", "current_trial": 50, "dateTime": 1509290490100, "trialdata": {"rt": -1, "stimulus": "<p id=\"stim\">4</p>", "key_press": -1, "trial_type": "single-stim", "trial_index": 50, "time_elapsed": 652595, "internal_node_id": "0.0-35.0-6.0"}}, {"uniqueid": "MTK0144:3OVHNO1VE78VH9SWP40RH17AAYRDZF", "current_trial": 51, "dateTime": 1509290491101, "trialdata": {"rt": -1, "stimulus": "<p id=\"stim\">3</p>", "key_press": -1, "trial_type": "single-stim", "trial_index": 51, "time_elapsed": 653596, "internal_node_id": "0.0-35.0-7.0"}}, {"uniqueid": "MTK0144:3OVHNO1VE78VH9SWP40RH17AAYRDZF", "current_trial": 52, "dateTime": 1509290492102, "trialdata": {"rt": -1, "stimulus": "<p id=\"stim\">2</p>", "key_press": -1, "trial_type": "single-stim", "trial_index": 52, "time_elapsed": 654597, "internal_node_id": "0.0-35.0-8.0"}}, {"uniqueid": "MTK0144:3OVHNO1VE78VH9SWP40RH17AAYRDZF", "current_trial": 53, "dateTime": 1509290493103, "trialdata": {"rt": -1, "stimulus": "<p id=\"stim\">1</p>", "key_press": -1, "trial_type": "single-stim", "trial_index": 53, "time_elapsed": 655598, "internal_node_id": "0.0-35.0-9.0"}}, {"uniqueid": "MTK0144:3OVHNO1VE78VH9SWP40RH17AAYRDZF", "current_trial": 54, "dateTime": 1509290494605, "trialdata": {"rt": -1, "stimulus": "<p id=\"stim\">+</p>", "key_press": -1, "type": "FIXATION", "trial_type": "single-stim", "trial_index": 54, "time_elapsed": 657100, "internal_node_id": "0.0-36.0-0.0"}}, {"uniqueid": "MTK0144:3OVHNO1VE78VH9SWP40RH17AAYRDZF", "current_trial": 55, "dateTime": 1509290496727, "trialdata": {"rt": -1000, "stimulus": "/static/audio/wordpool/TURTLE.wav", "key_press": -1, "type": "PRES_AUD", "word": "turtle", "wordID": 1521, "conditions": [18, 1200, "a", 18000], "trial": 1, "serialpos": 0, "trial_type": "single-audio", "trial_index": 55, "time_elapsed": 659222, "internal_node_id": "0.0-37.0"}}, {"uniqueid": "MTK0144:3OVHNO1VE78VH9SWP40RH17AAYRDZF", "current_trial": 56, "dateTime": 1509290499023, "trialdata": {"rt": -1000, "stimulus": "/static/audio/wordpool/TART.wav", "key_press": -1, "type": "PRES_AUD", "word": "tart", "wordID": 1435, "conditions": [18, 1200, "a", 18000], "trial": 1, "serialpos": 1, "trial_type": "single-audio", "trial_index": 56, "time_elapsed": 661518, "internal_node_id": "0.0-38.0"}}, {"uniqueid": "MTK0144:3OVHNO1VE78VH9SWP40RH17AAYRDZF", "current_trial": 57, "dateTime": 1509290501247, "trialdata": {"rt": -1000, "stimulus": "/static/audio/wordpool/GLASS.wav", "key_press": -1, "type": "PRES_AUD", "word": "glass", "wordID": 638, "conditions": [18, 1200, "a", 18000], "trial": 1, "serialpos": 2, "trial_type": "single-audio", "trial_index": 57, "time_elapsed": 663742, "internal_node_id": "0.0-39.0"}}, {"uniqueid": "MTK0144:3OVHNO1VE78VH9SWP40RH17AAYRDZF", "current_trial": 58, "dateTime": 1509290503532, "trialdata": {"rt": -1000, "stimulus": "/static/audio/wordpool/VALLEY.wav", "key_press": -1, "type": "PRES_AUD", "word": "valley", "wordID": 1544, "conditions": [18, 1200, "a", 18000], "trial": 1, "serialpos": 3, "trial_type": "single-audio", "trial_index": 58, "time_elapsed": 666027, "internal_node_id": "0.0-40.0"}}, {"uniqueid": "MTK0144:3OVHNO1VE78VH9SWP40RH17AAYRDZF", "current_trial": 59, "dateTime": 1509290505664, "trialdata": {"rt": -1000, "stimulus": "/static/audio/wordpool/AIRPLANE.wav", "key_press": -1, "type": "PRES_AUD", "word": "airplane", "wordID": 11, "conditions": [18, 1200, "a", 18000], "trial": 1, "serialpos": 4, "trial_type": "single-audio", "trial_index": 59, "time_elapsed": 668159, "internal_node_id": "0.0-41.0"}}, {"uniqueid": "MTK0144:3OVHNO1VE78VH9SWP40RH17AAYRDZF", "current_trial": 60, "dateTime": 1509290507831, "trialdata": {"rt": -1000, "stimulus": "/static/audio/wordpool/HOUND.wav", "key_press": -1, "type": "PRES_AUD", "word": "hound", "wordID": 723, "conditions": [18, 1200, "a", 18000], "trial": 1, "serialpos": 5, "trial_type": "single-audio", "trial_index": 60, "time_elapsed": 670326, "internal_node_id": "0.0-42.0"}}, {"uniqueid": "MTK0144:3OVHNO1VE78VH9SWP40RH17AAYRDZF", "current_trial": 61, "dateTime": 1509290510072, "trialdata": {"rt": -1000, "stimulus": "/static/audio/wordpool/BREAST.wav", "key_press": -1, "type": "PRES_AUD", "word": "breast", "wordID": 170, "conditions": [18, 1200, "a", 18000], "trial": 1, "serialpos": 6, "trial_type": "single-audio", "trial_index": 61, "time_elapsed": 672567, "internal_node_id": "0.0-43.0"}}, {"uniqueid": "MTK0144:3OVHNO1VE78VH9SWP40RH17AAYRDZF", "current_trial": 62, "dateTime": 1509290512406, "trialdata": {"rt": -1000, "stimulus": "/static/audio/wordpool/PLAYGROUND.wav", "key_press": -1, "type": "PRES_AUD", "word": "playground", "wordID": 1086, "conditions": [18, 1200, "a", 18000], "trial": 1, "serialpos": 7, "trial_type": "single-audio", "trial_index": 62, "time_elapsed": 674901, "internal_node_id": "0.0-44.0"}}, {"uniqueid": "MTK0144:3OVHNO1VE78VH9SWP40RH17AAYRDZF", "current_trial": 63, "dateTime": 1509290514674, "trialdata": {"rt": -1000, "stimulus": "/static/audio/wordpool/SPONGE.wav", "key_press": -1, "type": "PRES_AUD", "word": "sponge", "wordID": 1354, "conditions": [18, 1200, "a", 18000], "trial": 1, "serialpos": 8, "trial_type": "single-audio", "trial_index": 63, "time_elapsed": 677169, "internal_node_id": "0.0-45.0"}}, {"uniqueid": "MTK0144:3OVHNO1VE78VH9SWP40RH17AAYRDZF", "current_trial": 64, "dateTime": 1509290516853, "trialdata": {"rt": -1000, "stimulus": "/static/audio/wordpool/POISON.wav", "key_press": -1, "type": "PRES_AUD", "word": "poison", "wordID": 1095, "conditions": [18, 1200, "a", 18000], "trial": 1, "serialpos": 9, "trial_type": "single-audio", "trial_index": 64, "time_elapsed": 679348, "internal_node_id": "0.0-46.0"}}, {"uniqueid": "MTK0144:3OVHNO1VE78VH9SWP40RH17AAYRDZF", "current_trial": 65, "dateTime": 1509290518892, "trialdata": {"rt": -1000, "stimulus": "/static/audio/wordpool/RECEIPT.wav", "key_press": -1, "type": "PRES_AUD", "word": "receipt", "wordID": 1172, "conditions": [18, 1200, "a", 18000], "trial": 1, "serialpos": 10, "trial_type": "single-audio", "trial_index": 65, "time_elapsed": 681387, "internal_node_id": "0.0-47.0"}}, {"uniqueid": "MTK0144:3OVHNO1VE78VH9SWP40RH17AAYRDZF", "current_trial": 66, "dateTime": 1509290520981, "trialdata": {"rt": -1000, "stimulus": "/static/audio/wordpool/ONION.wav", "key_press": -1, "type": "PRES_AUD", "word": "onion", "wordID": 976, "conditions": [18, 1200, "a", 18000], "trial": 1, "serialpos": 11, "trial_type": "single-audio", "trial_index": 66, "time_elapsed": 683475, "internal_node_id": "0.0-48.0"}}, {"uniqueid": "MTK0144:3OVHNO1VE78VH9SWP40RH17AAYRDZF", "current_trial": 67, "dateTime": 1509290523149, "trialdata": {"rt": -1000, "stimulus": "/static/audio/wordpool/CASKET.wav", "key_press": -1, "type": "PRES_AUD", "word": "casket", "wordID": 254, "conditions": [18, 1200, "a", 18000], "trial": 1, "serialpos": 12, "trial_type": "single-audio", "trial_index": 67, "time_elapsed": 685644, "internal_node_id": "0.0-49.0"}}, {"uniqueid": "MTK0144:3OVHNO1VE78VH9SWP40RH17AAYRDZF", "current_trial": 68, "dateTime": 1509290525184, "trialdata": {"rt": -1000, "stimulus": "/static/audio/wordpool/MARINE.wav", "key_press": -1, "type": "PRES_AUD", "word": "marine", "wordID": 868, "conditions": [18, 1200, "a", 18000], "trial": 1, "serialpos": 13, "trial_type": "single-audio", "trial_index": 68, "time_elapsed": 687678, "internal_node_id": "0.0-50.0"}}, {"uniqueid": "MTK0144:3OVHNO1VE78VH9SWP40RH17AAYRDZF", "current_trial": 69, "dateTime": 1509290527272, "trialdata": {"rt": -1000, "stimulus": "/static/audio/wordpool/BUG.wav", "key_press": -1, "type": "PRES_AUD", "word": "bug", "wordID": 186, "conditions": [18, 1200, "a", 18000], "trial": 1, "serialpos": 14, "trial_type": "single-audio", "trial_index": 69, "time_elapsed": 689766, "internal_node_id": "0.0-51.0"}}, {"uniqueid": "MTK0144:3OVHNO1VE78VH9SWP40RH17AAYRDZF", "current_trial": 70, "dateTime": 1509290529488, "trialdata": {"rt": -1000, "stimulus": "/static/audio/wordpool/GRILL.wav", "key_press": -1, "type": "PRES_AUD", "word": "grill", "wordID": 660, "conditions": [18, 1200, "a", 18000], "trial": 1, "serialpos": 15, "trial_type": "single-audio", "trial_index": 70, "time_elapsed": 691983, "internal_node_id": "0.0-52.0"}}, {"uniqueid": "MTK0144:3OVHNO1VE78VH9SWP40RH17AAYRDZF", "current_trial": 71, "dateTime": 1509290531707, "trialdata": {"rt": -1000, "stimulus": "/static/audio/wordpool/SHORTS.wav", "key_press": -1, "type": "PRES_AUD", "word": "shorts", "wordID": 1292, "conditions": [18, 1200, "a", 18000], "trial": 1, "serialpos": 16, "trial_type": "single-audio", "trial_index": 71, "time_elapsed": 694202, "internal_node_id": "0.0-53.0"}}, {"uniqueid": "MTK0144:3OVHNO1VE78VH9SWP40RH17AAYRDZF", "current_trial": 72, "dateTime": 1509290534104, "trialdata": {"rt": -1000, "stimulus": "/static/audio/wordpool/THIEF.wav", "key_press": -1, "type": "PRES_AUD", "word": "thief", "wordID": 1455, "conditions": [18, 1200, "a", 18000], "trial": 1, "serialpos": 17, "trial_type": "single-audio", "trial_index": 72, "time_elapsed": 696599, "internal_node_id": "0.0-54.0"}}, {"uniqueid": "MTK0144:3OVHNO1VE78VH9SWP40RH17AAYRDZF", "current_trial": 73, "dateTime": 1509290535326, "trialdata": {"rt": -1, "stimulus": "", "key_press": -1, "type": "PRE_RECALL_DELAY", "trial_type": "single-stim", "trial_index": 73, "time_elapsed": 697820, "internal_node_id": "0.0-55.0-0.0"}}, {"uniqueid": "MTK0144:3OVHNO1VE78VH9SWP40RH17AAYRDZF", "current_trial": 74, "dateTime": 1509290535827, "trialdata": {"rt": -1000, "stimulus": "/static/audio/400Hz.wav", "key_press": -1, "type": "PRE_RECALL_ALERT", "trial_type": "single-audio", "trial_index": 74, "time_elapsed": 698322, "internal_node_id": "0.0-56.0"}}, {"uniqueid": "MTK0144:3OVHNO1VE78VH9SWP40RH17AAYRDZF", "current_trial": 75, "dateTime": 1509290595832, "trialdata": {"rt": [2415, 6961, 7927, 19513, 24680, 32952], "recwords": ["marine", "playground", "bug", "grass", "valley", "shrub"], "type": "FREE_RECALL", "conditions": [18, 1200, "a", 18000], "trial": 1, "trial_type": "free-recall", "trial_index": 75, "time_elapsed": 758324, "internal_node_id": "0.0-57.0-0.0"}}, {"uniqueid": "MTK0144:3OVHNO1VE78VH9SWP40RH17AAYRDZF", "current_trial": 76, "dateTime": 1509290615821, "trialdata": {"rt": 17987, "key_press": 13, "type": "INSTRUCTIONS", "trial_type": "text", "trial_index": 76, "time_elapsed": 778316, "internal_node_id": "0.0-58.0"}}, {"uniqueid": "MTK0144:3OVHNO1VE78VH9SWP40RH17AAYRDZF", "current_trial": 77, "dateTime": 1509290640824, "trialdata": {"rt": [4939, 8878, 12609, 15637, 19701, 22355], "responses": ["13", "15", "15", "17", "12", "10"], "num1": [9, 9, 3, 7, 1, 1, 1], "num2": [1, 4, 8, 7, 3, 5, 2], "num3": [3, 2, 4, 3, 8, 4, 5], "type": "DISTRACTOR", "conditions": [12, 1600, "v", 24000], "trial": 2, "trial_type": "math-distractor", "trial_index": 77, "time_elapsed": 803319, "internal_node_id": "0.0-59.0"}}, {"uniqueid": "MTK0144:3OVHNO1VE78VH9SWP40RH17AAYRDZF", "current_trial": 78, "dateTime": 1509290643827, "trialdata": {"rt": -1, "stimulus": "<p id=\"stim\">10</p>", "key_press": -1, "trial_type": "single-stim", "trial_index": 78, "time_elapsed": 806322, "internal_node_id": "0.0-60.0-0.0"}}, {"uniqueid": "MTK0144:3OVHNO1VE78VH9SWP40RH17AAYRDZF", "current_trial": 79, "dateTime": 1509290644830, "trialdata": {"rt": -1, "stimulus": "<p id=\"stim\">9</p>", "key_press": -1, "trial_type": "single-stim", "trial_index": 79, "time_elapsed": 807325, "internal_node_id": "0.0-60.0-1.0"}}, {"uniqueid": "MTK0144:3OVHNO1VE78VH9SWP40RH17AAYRDZF", "current_trial": 80, "dateTime": 1509290645831, "trialdata": {"rt": -1, "stimulus": "<p id=\"stim\">8</p>", "key_press": -1, "trial_type": "single-stim", "trial_index": 80, "time_elapsed": 808326, "internal_node_id": "0.0-60.0-2.0"}}, {"uniqueid": "MTK0144:3OVHNO1VE78VH9SWP40RH17AAYRDZF", "current_trial": 81, "dateTime": 1509290646833, "trialdata": {"rt": -1, "stimulus": "<p id=\"stim\">7</p>", "key_press": -1, "trial_type": "single-stim", "trial_index": 81, "time_elapsed": 809328, "internal_node_id": "0.0-60.0-3.0"}}, {"uniqueid": "MTK0144:3OVHNO1VE78VH9SWP40RH17AAYRDZF", "current_trial": 82, "dateTime": 1509290647834, "trialdata": {"rt": -1, "stimulus": "<p id=\"stim\">6</p>", "key_press": -1, "trial_type": "single-stim", "trial_index": 82, "time_elapsed": 810329, "internal_node_id": "0.0-60.0-4.0"}}, {"uniqueid": "MTK0144:3OVHNO1VE78VH9SWP40RH17AAYRDZF", "current_trial": 83, "dateTime": 1509290648835, "trialdata": {"rt": -1, "stimulus": "<p id=\"stim\">5</p>", "key_press": -1, "trial_type": "single-stim", "trial_index": 83, "time_elapsed": 811330, "internal_node_id": "0.0-60.0-5.0"}}, {"uniqueid": "MTK0144:3OVHNO1VE78VH9SWP40RH17AAYRDZF", "current_trial": 84, "dateTime": 1509290649836, "trialdata": {"rt": -1, "stimulus": "<p id=\"stim\">4</p>", "key_press": -1, "trial_type": "single-stim", "trial_index": 84, "time_elapsed": 812331, "internal_node_id": "0.0-60.0-6.0"}}, {"uniqueid": "MTK0144:3OVHNO1VE78VH9SWP40RH17AAYRDZF", "current_trial": 85, "dateTime": 1509290650838, "trialdata": {"rt": -1, "stimulus": "<p id=\"stim\">3</p>", "key_press": -1, "trial_type": "single-stim", "trial_index": 85, "time_elapsed": 813333, "internal_node_id": "0.0-60.0-7.0"}}, {"uniqueid": "MTK0144:3OVHNO1VE78VH9SWP40RH17AAYRDZF", "current_trial": 86, "dateTime": 1509290651839, "trialdata": {"rt": -1, "stimulus": "<p id=\"stim\">2</p>", "key_press": -1, "trial_type": "single-stim", "trial_index": 86, "time_elapsed": 814334, "internal_node_id": "0.0-60.0-8.0"}}, {"uniqueid": "MTK0144:3OVHNO1VE78VH9SWP40RH17AAYRDZF", "current_trial": 87, "dateTime": 1509290652840, "trialdata": {"rt": -1, "stimulus": "<p id=\"stim\">1</p>", "key_press": -1, "trial_type": "single-stim", "trial_index": 87, "time_elapsed": 815335, "internal_node_id": "0.0-60.0-9.0"}}, {"uniqueid": "MTK0144:3OVHNO1VE78VH9SWP40RH17AAYRDZF", "current_trial": 88, "dateTime": 1509290654341, "trialdata": {"rt": -1, "stimulus": "<p id=\"stim\">+</p>", "key_press": -1, "type": "FIXATION", "trial_type": "single-stim", "trial_index": 88, "time_elapsed": 816836, "internal_node_id": "0.0-61.0-0.0"}}, {"uniqueid": "MTK0144:3OVHNO1VE78VH9SWP40RH17AAYRDZF", "current_trial": 89, "dateTime": 1509290655943, "trialdata": {"rt": -1, "stimulus": "<p id=\"stim\">PERFUME</p>", "key_press": -1, "type": "PRES_VIS", "word": "perfume", "wordID": 1048, "conditions": [12, 1600, "v", 24000], "trial": 2, "serialpos": 0, "trial_type": "single-stim", "trial_index": 89, "time_elapsed": 818438, "internal_node_id": "0.0-62.0"}}, {"uniqueid": "MTK0144:3OVHNO1VE78VH9SWP40RH17AAYRDZF", "current_trial": 90, "dateTime": 1509290658400, "trialdata": {"rt": -1, "stimulus": "<p id=\"stim\">COUNTY</p>", "key_press": -1, "type": "PRES_VIS", "word": "county", "wordID": 388, "conditions": [12, 1600, "v", 24000], "trial": 2, "serialpos": 1, "trial_type": "single-stim", "trial_index": 90, "time_elapsed": 820895, "internal_node_id": "0.0-63.0"}}, {"uniqueid": "MTK0144:3OVHNO1VE78VH9SWP40RH17AAYRDZF", "current_trial": 91, "dateTime": 1509290660879, "trialdata": {"rt": -1, "stimulus": "<p id=\"stim\">COOKBOOK</p>", "key_press": -1, "type": "PRES_VIS", "word": "cookbook", "wordID": 372, "conditions": [12, 1600, "v", 24000], "trial": 2, "serialpos": 2, "trial_type": "single-stim", "trial_index": 91, "time_elapsed": 823374, "internal_node_id": "0.0-64.0"}}, {"uniqueid": "MTK0144:3OVHNO1VE78VH9SWP40RH17AAYRDZF", "current_trial": 92, "dateTime": 1509290663415, "trialdata": {"rt": -1, "stimulus": "<p id=\"stim\">CELLAR</p>", "key_press": -1, "type": "PRES_VIS", "word": "cellar", "wordID": 266, "conditions": [12, 1600, "v", 24000], "trial": 2, "serialpos": 3, "trial_type": "single-stim", "trial_index": 92, "time_elapsed": 825910, "internal_node_id": "0.0-65.0"}}, {"uniqueid": "MTK0144:3OVHNO1VE78VH9SWP40RH17AAYRDZF", "current_trial": 93, "dateTime": 1509290666184, "trialdata": {"rt": -1, "stimulus": "<p id=\"stim\">SHERIFF</p>", "key_press": -1, "type": "PRES_VIS", "word": "sheriff", "wordID": 1283, "conditions": [12, 1600, "v", 24000], "trial": 2, "serialpos": 4, "trial_type": "single-stim", "trial_index": 93, "time_elapsed": 828679, "internal_node_id": "0.0-66.0"}}, {"uniqueid": "MTK0144:3OVHNO1VE78VH9SWP40RH17AAYRDZF", "current_trial": 94, "dateTime": 1509290668641, "trialdata": {"rt": -1, "stimulus": "<p id=\"stim\">POLICE</p>", "key_press": -1, "type": "PRES_VIS", "word": "police", "wordID": 1097, "conditions": [12, 1600, "v", 24000], "trial": 2, "serialpos": 5, "trial_type": "single-stim", "trial_index": 94, "time_elapsed": 831136, "internal_node_id": "0.0-67.0"}}, {"uniqueid": "MTK0144:3OVHNO1VE78VH9SWP40RH17AAYRDZF", "current_trial": 95, "dateTime": 1509290671176, "trialdata": {"rt": -1, "stimulus": "<p id=\"stim\">WRIST</p>", "key_press": -1, "type": "PRES_VIS", "word": "wrist", "wordID": 1625, "conditions": [12, 1600, "v", 24000], "trial": 2, "serialpos": 6, "trial_type": "single-stim", "trial_index": 95, "time_elapsed": 833671, "internal_node_id": "0.0-68.0"}}, {"uniqueid": "MTK0144:3OVHNO1VE78VH9SWP40RH17AAYRDZF", "current_trial": 96, "dateTime": 1509290673726, "trialdata": {"rt": -1, "stimulus": "<p id=\"stim\">HELMET</p>", "key_press": -1, "type": "PRES_VIS", "word": "helmet", "wordID": 701, "conditions": [12, 1600, "v", 24000], "trial": 2, "serialpos": 7, "trial_type": "single-stim", "trial_index": 96, "time_elapsed": 836221, "internal_node_id": "0.0-69.0"}}, {"uniqueid": "MTK0144:3OVHNO1VE78VH9SWP40RH17AAYRDZF", "current_trial": 97, "dateTime": 1509290676507, "trialdata": {"rt": -1, "stimulus": "<p id=\"stim\">PANTHER</p>", "key_press": -1, "type": "PRES_VIS", "word": "panther", "wordID": 1008, "conditions": [12, 1600, "v", 24000], "trial": 2, "serialpos": 8, "trial_type": "single-stim", "trial_index": 97, "time_elapsed": 839002, "internal_node_id": "0.0-70.0"}}, {"uniqueid": "MTK0144:3OVHNO1VE78VH9SWP40RH17AAYRDZF", "current_trial": 98, "dateTime": 1509290679108, "trialdata": {"rt": -1, "stimulus": "<p id=\"stim\">GALLON</p>", "key_press": -1, "type": "PRES_VIS", "word": "gallon", "wordID": 617, "conditions": [12, 1600, "v", 24000], "trial": 2, "serialpos": 9, "trial_type": "single-stim", "trial_index": 98, "time_elapsed": 841603, "internal_node_id": "0.0-71.0"}}, {"uniqueid": "MTK0144:3OVHNO1VE78VH9SWP40RH17AAYRDZF", "current_trial": 99, "dateTime": 1509290681563, "trialdata": {"rt": -1, "stimulus": "<p id=\"stim\">BARREL</p>", "key_press": -1, "type": "PRES_VIS", "word": "barrel", "wordID": 90, "conditions": [12, 1600, "v", 24000], "trial": 2, "serialpos": 10, "trial_type": "single-stim", "trial_index": 99, "time_elapsed": 844058, "internal_node_id": "0.0-72.0"}}, {"uniqueid": "MTK0144:3OVHNO1VE78VH9SWP40RH17AAYRDZF", "current_trial": 100, "dateTime": 1509290684304, "trialdata": {"rt": -1, "stimulus": "<p id=\"stim\">DRUG</p>", "key_press": -1, "type": "PRES_VIS", "word": "drug", "wordID": 500, "conditions": [12, 1600, "v", 24000], "trial": 2, "serialpos": 11, "trial_type": "single-stim", "trial_index": 100, "time_elapsed": 846799, "internal_node_id": "0.0-73.0"}}, {"uniqueid": "MTK0144:3OVHNO1VE78VH9SWP40RH17AAYRDZF", "current_trial": 101, "dateTime": 1509290686681, "trialdata": {"rt": -1, "stimulus": "", "key_press": -1, "type": "PRE_RECALL_DELAY", "trial_type": "single-stim", "trial_index": 101, "time_elapsed": 849176, "internal_node_id": "0.0-74.0-0.0"}}, {"uniqueid": "MTK0144:3OVHNO1VE78VH9SWP40RH17AAYRDZF", "current_trial": 102, "dateTime": 1509290687192, "trialdata": {"rt": -1000, "stimulus": "/static/audio/400Hz.wav", "key_press": -1, "type": "PRE_RECALL_ALERT", "trial_type": "single-audio", "trial_index": 102, "time_elapsed": 849687, "internal_node_id": "0.0-75.0"}}, {"uniqueid": "MTK0144:3OVHNO1VE78VH9SWP40RH17AAYRDZF", "current_trial": 103, "dateTime": 1509290747197, "trialdata": {"rt": [1636, 4416, 6012, 8468, 10345, 12757, 15116], "recwords": ["drug", "barrel", "gallon", "sherrif", "police", "cookbook", "wrist"], "type": "FREE_RECALL", "conditions": [12, 1600, "v", 24000], "trial": 2, "trial_type": "free-recall", "trial_index": 103, "time_elapsed": 909690, "internal_node_id": "0.0-76.0-0.0"}}, {"uniqueid": "MTK0144:3OVHNO1VE78VH9SWP40RH17AAYRDZF", "current_trial": 104, "dateTime": 1509290752401, "trialdata": {"rt": 3203, "key_press": 32, "type": "INSTRUCTIONS", "trial_type": "text", "trial_index": 104, "time_elapsed": 914896, "internal_node_id": "0.0-77.0"}}, {"uniqueid": "MTK0144:3OVHNO1VE78VH9SWP40RH17AAYRDZF", "current_trial": 105, "dateTime": 1509290778403, "trialdata": {"rt": [5374, 6979, 13266, 18119, 23867], "responses": ["19", "13", "13", "14", "19"], "num1": [7, 5, 5, 2, 9, 9], "num2": [8, 5, 4, 5, 4, 5], "num3": [4, 3, 4, 7, 6, 8], "type": "DISTRACTOR", "conditions": [24, 1600, "v", 24000], "trial": 3, "trial_type": "math-distractor", "trial_index": 105, "time_elapsed": 940898, "internal_node_id": "0.0-78.0"}}, {"uniqueid": "MTK0144:3OVHNO1VE78VH9SWP40RH17AAYRDZF", "current_trial": 106, "dateTime": 1509290781406, "trialdata": {"rt": -1, "stimulus": "<p id=\"stim\">10</p>", "key_press": -1, "trial_type": "single-stim", "trial_index": 106, "time_elapsed": 943901, "internal_node_id": "0.0-79.0-0.0"}}, {"uniqueid": "MTK0144:3OVHNO1VE78VH9SWP40RH17AAYRDZF", "current_trial": 107, "dateTime": 1509290782407, "trialdata": {"rt": -1, "stimulus": "<p id=\"stim\">9</p>", "key_press": -1, "trial_type": "single-stim", "trial_index": 107, "time_elapsed": 944902, "internal_node_id": "0.0-79.0-1.0"}}, {"uniqueid": "MTK0144:3OVHNO1VE78VH9SWP40RH17AAYRDZF", "current_trial": 108, "dateTime": 1509290783408, "trialdata": {"rt": -1, "stimulus": "<p id=\"stim\">8</p>", "key_press": -1, "trial_type": "single-stim", "trial_index": 108, "time_elapsed": 945903, "internal_node_id": "0.0-79.0-2.0"}}, {"uniqueid": "MTK0144:3OVHNO1VE78VH9SWP40RH17AAYRDZF", "current_trial": 109, "dateTime": 1509290784409, "trialdata": {"rt": -1, "stimulus": "<p id=\"stim\">7</p>", "key_press": -1, "trial_type": "single-stim", "trial_index": 109, "time_elapsed": 946904, "internal_node_id": "0.0-79.0-3.0"}}, {"uniqueid": "MTK0144:3OVHNO1VE78VH9SWP40RH17AAYRDZF", "current_trial": 110, "dateTime": 1509290785410, "trialdata": {"rt": -1, "stimulus": "<p id=\"stim\">6</p>", "key_press": -1, "trial_type": "single-stim", "trial_index": 110, "time_elapsed": 947905, "internal_node_id": "0.0-79.0-4.0"}}, {"uniqueid": "MTK0144:3OVHNO1VE78VH9SWP40RH17AAYRDZF", "current_trial": 111, "dateTime": 1509290786411, "trialdata": {"rt": -1, "stimulus": "<p id=\"stim\">5</p>", "key_press": -1, "trial_type": "single-stim", "trial_index": 111, "time_elapsed": 948906, "internal_node_id": "0.0-79.0-5.0"}}, {"uniqueid": "MTK0144:3OVHNO1VE78VH9SWP40RH17AAYRDZF", "current_trial": 112, "dateTime": 1509290787412, "trialdata": {"rt": -1, "stimulus": "<p id=\"stim\">4</p>", "key_press": -1, "trial_type": "single-stim", "trial_index": 112, "time_elapsed": 949907, "internal_node_id": "0.0-79.0-6.0"}}, {"uniqueid": "MTK0144:3OVHNO1VE78VH9SWP40RH17AAYRDZF", "current_trial": 113, "dateTime": 1509290788414, "trialdata": {"rt": -1, "stimulus": "<p id=\"stim\">3</p>", "key_press": -1, "trial_type": "single-stim", "trial_index": 113, "time_elapsed": 950909, "internal_node_id": "0.0-79.0-7.0"}}, {"uniqueid": "MTK0144:3OVHNO1VE78VH9SWP40RH17AAYRDZF", "current_trial": 114, "dateTime": 1509290789415, "trialdata": {"rt": -1, "stimulus": "<p id=\"stim\">2</p>", "key_press": -1, "trial_type": "single-stim", "trial_index": 114, "time_elapsed": 951910, "internal_node_id": "0.0-79.0-8.0"}}, {"uniqueid": "MTK0144:3OVHNO1VE78VH9SWP40RH17AAYRDZF", "current_trial": 115, "dateTime": 1509290790416, "trialdata": {"rt": -1, "stimulus": "<p id=\"stim\">1</p>", "key_press": -1, "trial_type": "single-stim", "trial_index": 115, "time_elapsed": 952911, "internal_node_id": "0.0-79.0-9.0"}}, {"uniqueid": "MTK0144:3OVHNO1VE78VH9SWP40RH17AAYRDZF", "current_trial": 116, "dateTime": 1509290791918, "trialdata": {"rt": -1, "stimulus": "<p id=\"stim\">+</p>", "key_press": -1, "type": "FIXATION", "trial_type": "single-stim", "trial_index": 116, "time_elapsed": 954413, "internal_node_id": "0.0-80.0-0.0"}}, {"uniqueid": "MTK0144:3OVHNO1VE78VH9SWP40RH17AAYRDZF", "current_trial": 117, "dateTime": 1509290793519, "trialdata": {"rt": -1, "stimulus": "<p id=\"stim\">DASHBOARD</p>", "key_press": -1, "type": "PRES_VIS", "word": "dashboard", "wordID": 440, "conditions": [24, 1600, "v", 24000], "trial": 3, "serialpos": 0, "trial_type": "single-stim", "trial_index": 117, "time_elapsed": 956014, "internal_node_id": "0.0-81.0"}}, {"uniqueid": "MTK0144:3OVHNO1VE78VH9SWP40RH17AAYRDZF", "current_trial": 118, "dateTime": 1509290795986, "trialdata": {"rt": -1, "stimulus": "<p id=\"stim\">GARBAGE</p>", "key_press": -1, "type": "PRES_VIS", "word": "garbage", "wordID": 621, "conditions": [24, 1600, "v", 24000], "trial": 3, "serialpos": 1, "trial_type": "single-stim", "trial_index": 118, "time_elapsed": 958481, "internal_node_id": "0.0-82.0"}}, {"uniqueid": "MTK0144:3OVHNO1VE78VH9SWP40RH17AAYRDZF", "current_trial": 119, "dateTime": 1509290798452, "trialdata": {"rt": -1, "stimulus": "<p id=\"stim\">CITRUS</p>", "key_press": -1, "type": "PRES_VIS", "word": "citrus", "wordID": 312, "conditions": [24, 1600, "v", 24000], "trial": 3, "serialpos": 2, "trial_type": "single-stim", "trial_index": 119, "time_elapsed": 960947, "internal_node_id": "0.0-83.0"}}, {"uniqueid": "MTK0144:3OVHNO1VE78VH9SWP40RH17AAYRDZF", "current_trial": 120, "dateTime": 1509290800956, "trialdata": {"rt": -1, "stimulus": "<p id=\"stim\">HONEY</p>", "key_press": -1, "type": "PRES_VIS", "word": "honey", "wordID": 712, "conditions": [24, 1600, "v", 24000], "trial": 3, "serialpos": 3, "trial_type": "single-stim", "trial_index": 120, "time_elapsed": 963451, "internal_node_id": "0.0-84.0"}}, {"uniqueid": "MTK0144:3OVHNO1VE78VH9SWP40RH17AAYRDZF", "current_trial": 121, "dateTime": 1509290803578, "trialdata": {"rt": -1, "stimulus": "<p id=\"stim\">DRESS</p>", "key_press": -1, "type": "PRES_VIS", "word": "dress", "wordID": 494, "conditions": [24, 1600, "v", 24000], "trial": 3, "serialpos": 4, "trial_type": "single-stim", "trial_index": 121, "time_elapsed": 966073, "internal_node_id": "0.0-85.0"}}, {"uniqueid": "MTK0144:3OVHNO1VE78VH9SWP40RH17AAYRDZF", "current_trial": 122, "dateTime": 1509290806283, "trialdata": {"rt": -1, "stimulus": "<p id=\"stim\">WARDROBE</p>", "key_press": -1, "type": "PRES_VIS", "word": "wardrobe", "wordID": 1586, "conditions": [24, 1600, "v", 24000], "trial": 3, "serialpos": 5, "trial_type": "single-stim", "trial_index": 122, "time_elapsed": 968778, "internal_node_id": "0.0-86.0"}}, {"uniqueid": "MTK0144:3OVHNO1VE78VH9SWP40RH17AAYRDZF", "current_trial": 123, "dateTime": 1509290808978, "trialdata": {"rt": -1, "stimulus": "<p id=\"stim\">LIZARD</p>", "key_press": -1, "type": "PRES_VIS", "word": "lizard", "wordID": 833, "conditions": [24, 1600, "v", 24000], "trial": 3, "serialpos": 6, "trial_type": "single-stim", "trial_index": 123, "time_elapsed": 971473, "internal_node_id": "0.0-87.0"}}, {"uniqueid": "MTK0144:3OVHNO1VE78VH9SWP40RH17AAYRDZF", "current_trial": 124, "dateTime": 1509290811415, "trialdata": {"rt": -1, "stimulus": "<p id=\"stim\">BEAVER</p>", "key_press": -1, "type": "PRES_VIS", "word": "beaver", "wordID": 108, "conditions": [24, 1600, "v", 24000], "trial": 3, "serialpos": 7, "trial_type": "single-stim", "trial_index": 124, "time_elapsed": 973910, "internal_node_id": "0.0-88.0"}}, {"uniqueid": "MTK0144:3OVHNO1VE78VH9SWP40RH17AAYRDZF", "current_trial": 125, "dateTime": 1509290814197, "trialdata": {"rt": -1, "stimulus": "<p id=\"stim\">DINER</p>", "key_press": -1, "type": "PRES_VIS", "word": "diner", "wordID": 466, "conditions": [24, 1600, "v", 24000], "trial": 3, "serialpos": 8, "trial_type": "single-stim", "trial_index": 125, "time_elapsed": 976692, "internal_node_id": "0.0-89.0"}}, {"uniqueid": "MTK0144:3OVHNO1VE78VH9SWP40RH17AAYRDZF", "current_trial": 126, "dateTime": 1509290816941, "trialdata": {"rt": -1, "stimulus": "<p id=\"stim\">PEPPER</p>", "key_press": -1, "type": "PRES_VIS", "word": "pepper", "wordID": 1046, "conditions": [24, 1600, "v", 24000], "trial": 3, "serialpos": 9, "trial_type": "single-stim", "trial_index": 126, "time_elapsed": 979436, "internal_node_id": "0.0-90.0"}}, {"uniqueid": "MTK0144:3OVHNO1VE78VH9SWP40RH17AAYRDZF", "current_trial": 127, "dateTime": 1509290819345, "trialdata": {"rt": -1, "stimulus": "<p id=\"stim\">PECAN</p>", "key_press": -1, "type": "PRES_VIS", "word": "pecan", "wordID": 1035, "conditions": [24, 1600, "v", 24000], "trial": 3, "serialpos": 10, "trial_type": "single-stim", "trial_index": 127, "time_elapsed": 981840, "internal_node_id": "0.0-91.0"}}, {"uniqueid": "MTK0144:3OVHNO1VE78VH9SWP40RH17AAYRDZF", "current_trial": 128, "dateTime": 1509290821885, "trialdata": {"rt": -1, "stimulus": "<p id=\"stim\">MONEY</p>", "key_press": -1, "type": "PRES_VIS", "word": "money", "wordID": 907, "conditions": [24, 1600, "v", 24000], "trial": 3, "serialpos": 11, "trial_type": "single-stim", "trial_index": 128, "time_elapsed": 984380, "internal_node_id": "0.0-92.0"}}, {"uniqueid": "MTK0144:3OVHNO1VE78VH9SWP40RH17AAYRDZF", "current_trial": 129, "dateTime": 1509290824637, "trialdata": {"rt": -1, "stimulus": "<p id=\"stim\">FRECKLE</p>", "key_press": -1, "type": "PRES_VIS", "word": "freckle", "wordID": 601, "conditions": [24, 1600, "v", 24000], "trial": 3, "serialpos": 12, "trial_type": "single-stim", "trial_index": 129, "time_elapsed": 987132, "internal_node_id": "0.0-93.0"}}, {"uniqueid": "MTK0144:3OVHNO1VE78VH9SWP40RH17AAYRDZF", "current_trial": 130, "dateTime": 1509290827192, "trialdata": {"rt": -1, "stimulus": "<p id=\"stim\">LOFT</p>", "key_press": -1, "type": "PRES_VIS", "word": "loft", "wordID": 839, "conditions": [24, 1600, "v", 24000], "trial": 3, "serialpos": 13, "trial_type": "single-stim", "trial_index": 130, "time_elapsed": 989686, "internal_node_id": "0.0-94.0"}}, {"uniqueid": "MTK0144:3OVHNO1VE78VH9SWP40RH17AAYRDZF", "current_trial": 131, "dateTime": 1509290829749, "trialdata": {"rt": -1, "stimulus": "<p id=\"stim\">ULCER</p>", "key_press": -1, "type": "PRES_VIS", "word": "ulcer", "wordID": 1532, "conditions": [24, 1600, "v", 24000], "trial": 3, "serialpos": 14, "trial_type": "single-stim", "trial_index": 131, "time_elapsed": 992244, "internal_node_id": "0.0-95.0"}}, {"uniqueid": "MTK0144:3OVHNO1VE78VH9SWP40RH17AAYRDZF", "current_trial": 132, "dateTime": 1509290832458, "trialdata": {"rt": -1, "stimulus": "<p id=\"stim\">PERMIT</p>", "key_press": -1, "type": "PRES_VIS", "word": "permit", "wordID": 1050, "conditions": [24, 1600, "v", 24000], "trial": 3, "serialpos": 15, "trial_type": "single-stim", "trial_index": 132, "time_elapsed": 994953, "internal_node_id": "0.0-96.0"}}, {"uniqueid": "MTK0144:3OVHNO1VE78VH9SWP40RH17AAYRDZF", "current_trial": 133, "dateTime": 1509290834964, "trialdata": {"rt": -1, "stimulus": "<p id=\"stim\">WASP</p>", "key_press": -1, "type": "PRES_VIS", "word": "wasp", "wordID": 1592, "conditions": [24, 1600, "v", 24000], "trial": 3, "serialpos": 16, "trial_type": "single-stim", "trial_index": 133, "time_elapsed": 997459, "internal_node_id": "0.0-97.0"}}, {"uniqueid": "MTK0144:3OVHNO1VE78VH9SWP40RH17AAYRDZF", "current_trial": 134, "dateTime": 1509290837512, "trialdata": {"rt": -1, "stimulus": "<p id=\"stim\">SHIRT</p>", "key_press": -1, "type": "PRES_VIS", "word": "shirt", "wordID": 1286, "conditions": [24, 1600, "v", 24000], "trial": 3, "serialpos": 17, "trial_type": "single-stim", "trial_index": 134, "time_elapsed": 1000007, "internal_node_id": "0.0-98.0"}}, {"uniqueid": "MTK0144:3OVHNO1VE78VH9SWP40RH17AAYRDZF", "current_trial": 135, "dateTime": 1509290840116, "trialdata": {"rt": -1, "stimulus": "<p id=\"stim\">WHISKERS</p>", "key_press": -1, "type": "PRES_VIS", "word": "whiskers", "wordID": 1604, "conditions": [24, 1600, "v", 24000], "trial": 3, "serialpos": 18, "trial_type": "single-stim", "trial_index": 135, "time_elapsed": 1002611, "internal_node_id": "0.0-99.0"}}, {"uniqueid": "MTK0144:3OVHNO1VE78VH9SWP40RH17AAYRDZF", "current_trial": 136, "dateTime": 1509290842820, "trialdata": {"rt": -1, "stimulus": "<p id=\"stim\">MILDEW</p>", "key_press": -1, "type": "PRES_VIS", "word": "mildew", "wordID": 892, "conditions": [24, 1600, "v", 24000], "trial": 3, "serialpos": 19, "trial_type": "single-stim", "trial_index": 136, "time_elapsed": 1005315, "internal_node_id": "0.0-100.0"}}, {"uniqueid": "MTK0144:3OVHNO1VE78VH9SWP40RH17AAYRDZF", "current_trial": 137, "dateTime": 1509290845250, "trialdata": {"rt": -1, "stimulus": "<p id=\"stim\">FUNGUS</p>", "key_press": -1, "type": "PRES_VIS", "word": "fungus", "wordID": 613, "conditions": [24, 1600, "v", 24000], "trial": 3, "serialpos": 20, "trial_type": "single-stim", "trial_index": 137, "time_elapsed": 1007745, "internal_node_id": "0.0-101.0"}}, {"uniqueid": "MTK0144:3OVHNO1VE78VH9SWP40RH17AAYRDZF", "current_trial": 138, "dateTime": 1509290847737, "trialdata": {"rt": -1, "stimulus": "<p id=\"stim\">SODA</p>", "key_press": -1, "type": "PRES_VIS", "word": "soda", "wordID": 1340, "conditions": [24, 1600, "v", 24000], "trial": 3, "serialpos": 21, "trial_type": "single-stim", "trial_index": 138, "time_elapsed": 1010232, "internal_node_id": "0.0-102.0"}}, {"uniqueid": "MTK0144:3OVHNO1VE78VH9SWP40RH17AAYRDZF", "current_trial": 139, "dateTime": 1509290850384, "trialdata": {"rt": -1, "stimulus": "<p id=\"stim\">JELLY</p>", "key_press": -1, "type": "PRES_VIS", "word": "jelly", "wordID": 754, "conditions": [24, 1600, "v", 24000], "trial": 3, "serialpos": 22, "trial_type": "single-stim", "trial_index": 139, "time_elapsed": 1012879, "internal_node_id": "0.0-103.0"}}, {"uniqueid": "MTK0144:3OVHNO1VE78VH9SWP40RH17AAYRDZF", "current_trial": 140, "dateTime": 1509290852851, "trialdata": {"rt": -1, "stimulus": "<p id=\"stim\">HORNET</p>", "key_press": -1, "type": "PRES_VIS", "word": "hornet", "wordID": 717, "conditions": [24, 1600, "v", 24000], "trial": 3, "serialpos": 23, "trial_type": "single-stim", "trial_index": 140, "time_elapsed": 1015346, "internal_node_id": "0.0-104.0"}}, {"uniqueid": "MTK0144:3OVHNO1VE78VH9SWP40RH17AAYRDZF", "current_trial": 141, "dateTime": 1509290855280, "trialdata": {"rt": -1, "stimulus": "", "key_press": -1, "type": "PRE_RECALL_DELAY", "trial_type": "single-stim", "trial_index": 141, "time_elapsed": 1017775, "internal_node_id": "0.0-105.0-0.0"}}, {"uniqueid": "MTK0144:3OVHNO1VE78VH9SWP40RH17AAYRDZF", "current_trial": 142, "dateTime": 1509290855788, "trialdata": {"rt": -1000, "stimulus": "/static/audio/400Hz.wav", "key_press": -1, "type": "PRE_RECALL_ALERT", "trial_type": "single-audio", "trial_index": 142, "time_elapsed": 1018283, "internal_node_id": "0.0-106.0"}}, {"uniqueid": "MTK0144:3OVHNO1VE78VH9SWP40RH17AAYRDZF", "current_trial": 143, "dateTime": 1509290915794, "trialdata": {"rt": [8015, 9683, 14930, 16700, 18191, 22016, 23958, 31451, 32859, 40302], "recwords": ["honey", "horne", "hornet", "wasp", "honey", "wardrobe", "dress", "dashboard", "permit", "garbage"], "type": "FREE_RECALL", "conditions": [24, 1600, "v", 24000], "trial": 3, "trial_type": "free-recall", "trial_index": 143, "time_elapsed": 1078286, "internal_node_id": "0.0-107.0-0.0"}}, {"uniqueid": "MTK0144:3OVHNO1VE78VH9SWP40RH17AAYRDZF", "current_trial": 144, "dateTime": 1509290919384, "trialdata": {"rt": 1587, "key_press": 32, "type": "INSTRUCTIONS", "trial_type": "text", "trial_index": 144, "time_elapsed": 1081879, "internal_node_id": "0.0-108.0"}}, {"uniqueid": "MTK0144:3OVHNO1VE78VH9SWP40RH17AAYRDZF", "current_trial": 145, "dateTime": 1509290945387, "trialdata": {"rt": [4174, 7895, 12414, 15710, 21178], "responses": ["15", "14", "17", "15", "17"], "num1": [2, 8, 9, 2, 5, 9], "num2": [7, 2, 2, 9, 6, 1], "num3": [6, 4, 6, 4, 6, 4], "type": "DISTRACTOR", "conditions": [12, 800, "a", 24000], "trial": 4, "trial_type": "math-distractor", "trial_index": 145, "time_elapsed": 1107882, "internal_node_id": "0.0-109.0"}}, {"uniqueid": "MTK0144:3OVHNO1VE78VH9SWP40RH17AAYRDZF", "current_trial": 146, "dateTime": 1509290948389, "trialdata": {"rt": -1, "stimulus": "<p id=\"stim\">10</p>", "key_press": -1, "trial_type": "single-stim", "trial_index": 146, "time_elapsed": 1110884, "internal_node_id": "0.0-110.0-0.0"}}, {"uniqueid": "MTK0144:3OVHNO1VE78VH9SWP40RH17AAYRDZF", "current_trial": 147, "dateTime": 1509290949391, "trialdata": {"rt": -1, "stimulus": "<p id=\"stim\">9</p>", "key_press": -1, "trial_type": "single-stim", "trial_index": 147, "time_elapsed": 1111886, "internal_node_id": "0.0-110.0-1.0"}}, {"uniqueid": "MTK0144:3OVHNO1VE78VH9SWP40RH17AAYRDZF", "current_trial": 148, "dateTime": 1509290950392, "trialdata": {"rt": -1, "stimulus": "<p id=\"stim\">8</p>", "key_press": -1, "trial_type": "single-stim", "trial_index": 148, "time_elapsed": 1112887, "internal_node_id": "0.0-110.0-2.0"}}, {"uniqueid": "MTK0144:3OVHNO1VE78VH9SWP40RH17AAYRDZF", "current_trial": 149, "dateTime": 1509290951393, "trialdata": {"rt": -1, "stimulus": "<p id=\"stim\">7</p>", "key_press": -1, "trial_type": "single-stim", "trial_index": 149, "time_elapsed": 1113888, "internal_node_id": "0.0-110.0-3.0"}}, {"uniqueid": "MTK0144:3OVHNO1VE78VH9SWP40RH17AAYRDZF", "current_trial": 150, "dateTime": 1509290952394, "trialdata": {"rt": -1, "stimulus": "<p id=\"stim\">6</p>", "key_press": -1, "trial_type": "single-stim", "trial_index": 150, "time_elapsed": 1114889, "internal_node_id": "0.0-110.0-4.0"}}, {"uniqueid": "MTK0144:3OVHNO1VE78VH9SWP40RH17AAYRDZF", "current_trial": 151, "dateTime": 1509290953395, "trialdata": {"rt": -1, "stimulus": "<p id=\"stim\">5</p>", "key_press": -1, "trial_type": "single-stim", "trial_index": 151, "time_elapsed": 1115890, "internal_node_id": "0.0-110.0-5.0"}}, {"uniqueid": "MTK0144:3OVHNO1VE78VH9SWP40RH17AAYRDZF", "current_trial": 152, "dateTime": 1509290954397, "trialdata": {"rt": -1, "stimulus": "<p id=\"stim\">4</p>", "key_press": -1, "trial_type": "single-stim", "trial_index": 152, "time_elapsed": 1116892, "internal_node_id": "0.0-110.0-6.0"}}, {"uniqueid": "MTK0144:3OVHNO1VE78VH9SWP40RH17AAYRDZF", "current_trial": 153, "dateTime": 1509290955399, "trialdata": {"rt": -1, "stimulus": "<p id=\"stim\">3</p>", "key_press": -1, "trial_type": "single-stim", "trial_index": 153, "time_elapsed": 1117894, "internal_node_id": "0.0-110.0-7.0"}}, {"uniqueid": "MTK0144:3OVHNO1VE78VH9SWP40RH17AAYRDZF", "current_trial": 154, "dateTime": 1509290956401, "trialdata": {"rt": -1, "stimulus": "<p id=\"stim\">2</p>", "key_press": -1, "trial_type": "single-stim", "trial_index": 154, "time_elapsed": 1118896, "internal_node_id": "0.0-110.0-8.0"}}, {"uniqueid": "MTK0144:3OVHNO1VE78VH9SWP40RH17AAYRDZF", "current_trial": 155, "dateTime": 1509290957401, "trialdata": {"rt": -1, "stimulus": "<p id=\"stim\">1</p>", "key_press": -1, "trial_type": "single-stim", "trial_index": 155, "time_elapsed": 1119896, "internal_node_id": "0.0-110.0-9.0"}}, {"uniqueid": "MTK0144:3OVHNO1VE78VH9SWP40RH17AAYRDZF", "current_trial": 156, "dateTime": 1509290958903, "trialdata": {"rt": -1, "stimulus": "<p id=\"stim\">+</p>", "key_press": -1, "type": "FIXATION", "trial_type": "single-stim", "trial_index": 156, "time_elapsed": 1121398, "internal_node_id": "0.0-111.0-0.0"}}, {"uniqueid": "MTK0144:3OVHNO1VE78VH9SWP40RH17AAYRDZF", "current_trial": 157, "dateTime": 1509290960610, "trialdata": {"rt": -1000, "stimulus": "/static/audio/wordpool/FLUTE.wav", "key_press": -1, "type": "PRES_AUD", "word": "flute", "wordID": 584, "conditions": [12, 800, "a", 24000], "trial": 4, "serialpos": 0, "trial_type": "single-audio", "trial_index": 157, "time_elapsed": 1123105, "internal_node_id": "0.0-112.0"}}, {"uniqueid": "MTK0144:3OVHNO1VE78VH9SWP40RH17AAYRDZF", "current_trial": 158, "dateTime": 1509290962412, "trialdata": {"rt": -1000, "stimulus": "/static/audio/wordpool/DORM.wav", "key_press": -1, "type": "PRES_AUD", "word": "dorm", "wordID": 487, "conditions": [12, 800, "a", 24000], "trial": 4, "serialpos": 1, "trial_type": "single-audio", "trial_index": 158, "time_elapsed": 1124907, "internal_node_id": "0.0-113.0"}}, {"uniqueid": "MTK0144:3OVHNO1VE78VH9SWP40RH17AAYRDZF", "current_trial": 159, "dateTime": 1509290964130, "trialdata": {"rt": -1000, "stimulus": "/static/audio/wordpool/DRILL.wav", "key_press": -1, "type": "PRES_AUD", "word": "drill", "wordID": 496, "conditions": [12, 800, "a", 24000], "trial": 4, "serialpos": 2, "trial_type": "single-audio", "trial_index": 159, "time_elapsed": 1126625, "internal_node_id": "0.0-114.0"}}, {"uniqueid": "MTK0144:3OVHNO1VE78VH9SWP40RH17AAYRDZF", "current_trial": 160, "dateTime": 1509290965800, "trialdata": {"rt": -1000, "stimulus": "/static/audio/wordpool/DANCER.wav", "key_press": -1, "type": "PRES_AUD", "word": "dancer", "wordID": 436, "conditions": [12, 800, "a", 24000], "trial": 4, "serialpos": 3, "trial_type": "single-audio", "trial_index": 160, "time_elapsed": 1128294, "internal_node_id": "0.0-115.0"}}, {"uniqueid": "MTK0144:3OVHNO1VE78VH9SWP40RH17AAYRDZF", "current_trial": 161, "dateTime": 1509290967661, "trialdata": {"rt": -1000, "stimulus": "/static/audio/wordpool/LIGHTNING.wav", "key_press": -1, "type": "PRES_AUD", "word": "lightning", "wordID": 819, "conditions": [12, 800, "a", 24000], "trial": 4, "serialpos": 4, "trial_type": "single-audio", "trial_index": 161, "time_elapsed": 1130156, "internal_node_id": "0.0-116.0"}}, {"uniqueid": "MTK0144:3OVHNO1VE78VH9SWP40RH17AAYRDZF", "current_trial": 162, "dateTime": 1509290969604, "trialdata": {"rt": -1000, "stimulus": "/static/audio/wordpool/DONKEY.wav", "key_press": -1, "type": "PRES_AUD", "word": "donkey", "wordID": 483, "conditions": [12, 800, "a", 24000], "trial": 4, "serialpos": 5, "trial_type": "single-audio", "trial_index": 162, "time_elapsed": 1132099, "internal_node_id": "0.0-117.0"}}, {"uniqueid": "MTK0144:3OVHNO1VE78VH9SWP40RH17AAYRDZF", "current_trial": 163, "dateTime": 1509290971587, "trialdata": {"rt": -1000, "stimulus": "/static/audio/wordpool/VALVE.wav", "key_press": -1, "type": "PRES_AUD", "word": "valve", "wordID": 1545, "conditions": [12, 800, "a", 24000], "trial": 4, "serialpos": 6, "trial_type": "single-audio", "trial_index": 163, "time_elapsed": 1134082, "internal_node_id": "0.0-118.0"}}, {"uniqueid": "MTK0144:3OVHNO1VE78VH9SWP40RH17AAYRDZF", "current_trial": 164, "dateTime": 1509290973372, "trialdata": {"rt": -1000, "stimulus": "/static/audio/wordpool/MACHINE.wav", "key_press": -1, "type": "PRES_AUD", "word": "machine", "wordID": 851, "conditions": [12, 800, "a", 24000], "trial": 4, "serialpos": 7, "trial_type": "single-audio", "trial_index": 164, "time_elapsed": 1135867, "internal_node_id": "0.0-119.0"}}, {"uniqueid": "MTK0144:3OVHNO1VE78VH9SWP40RH17AAYRDZF", "current_trial": 165, "dateTime": 1509290975137, "trialdata": {"rt": -1000, "stimulus": "/static/audio/wordpool/MAMMAL.wav", "key_press": -1, "type": "PRES_AUD", "word": "mammal", "wordID": 860, "conditions": [12, 800, "a", 24000], "trial": 4, "serialpos": 8, "trial_type": "single-audio", "trial_index": 165, "time_elapsed": 1137632, "internal_node_id": "0.0-120.0"}}, {"uniqueid": "MTK0144:3OVHNO1VE78VH9SWP40RH17AAYRDZF", "current_trial": 166, "dateTime": 1509290976941, "trialdata": {"rt": -1000, "stimulus": "/static/audio/wordpool/HANDBAG.wav", "key_press": -1, "type": "PRES_AUD", "word": "handbag", "wordID": 683, "conditions": [12, 800, "a", 24000], "trial": 4, "serialpos": 9, "trial_type": "single-audio", "trial_index": 166, "time_elapsed": 1139436, "internal_node_id": "0.0-121.0"}}, {"uniqueid": "MTK0144:3OVHNO1VE78VH9SWP40RH17AAYRDZF", "current_trial": 167, "dateTime": 1509290978690, "trialdata": {"rt": -1000, "stimulus": "/static/audio/wordpool/BRIEFCASE.wav", "key_press": -1, "type": "PRES_AUD", "word": "briefcase", "wordID": 174, "conditions": [12, 800, "a", 24000], "trial": 4, "serialpos": 10, "trial_type": "single-audio", "trial_index": 167, "time_elapsed": 1141185, "internal_node_id": "0.0-122.0"}}, {"uniqueid": "MTK0144:3OVHNO1VE78VH9SWP40RH17AAYRDZF", "current_trial": 168, "dateTime": 1509290980428, "trialdata": {"rt": -1000, "stimulus": "/static/audio/wordpool/STUDENT.wav", "key_press": -1, "type": "PRES_AUD", "word": "student", "wordID": 1394, "conditions": [12, 800, "a", 24000], "trial": 4, "serialpos": 11, "trial_type": "single-audio", "trial_index": 168, "time_elapsed": 1142923, "internal_node_id": "0.0-123.0"}}, {"uniqueid": "MTK0144:3OVHNO1VE78VH9SWP40RH17AAYRDZF", "current_trial": 169, "dateTime": 1509290981747, "trialdata": {"rt": -1, "stimulus": "", "key_press": -1, "type": "PRE_RECALL_DELAY", "trial_type": "single-stim", "trial_index": 169, "time_elapsed": 1144242, "internal_node_id": "0.0-124.0-0.0"}}, {"uniqueid": "MTK0144:3OVHNO1VE78VH9SWP40RH17AAYRDZF", "current_trial": 170, "dateTime": 1509290982251, "trialdata": {"rt": -1000, "stimulus": "/static/audio/400Hz.wav", "key_press": -1, "type": "PRE_RECALL_ALERT", "trial_type": "single-audio", "trial_index": 170, "time_elapsed": 1144746, "internal_node_id": "0.0-125.0"}}, {"uniqueid": "MTK0144:3OVHNO1VE78VH9SWP40RH17AAYRDZF", "current_trial": 171, "dateTime": 1509291042254, "trialdata": {"rt": [1893, 4580, 7104, 11568, 14138, 23605, 57539], "recwords": ["studen", "dowm", "dorm", "briefcase", "drill", "handbag", "student"], "type": "FREE_RECALL", "conditions": [12, 800, "a", 24000], "trial": 4, "trial_type": "free-recall", "trial_index": 171, "time_elapsed": 1204747, "internal_node_id": "0.0-126.0-0.0"}}, {"uniqueid": "MTK0144:3OVHNO1VE78VH9SWP40RH17AAYRDZF", "current_trial": 172, "dateTime": 1509291044973, "trialdata": {"rt": 718, "key_press": 32, "type": "INSTRUCTIONS", "trial_type": "text", "trial_index": 172, "time_elapsed": 1207468, "internal_node_id": "0.0-127.0"}}, {"uniqueid": "MTK0144:3OVHNO1VE78VH9SWP40RH17AAYRDZF", "current_trial": 173, "dateTime": 1509291058978, "trialdata": {"rt": [3438, 6071, 11178], "responses": ["10", "10", "24"], "num1": [8, 1, 9, 2], "num2": [1, 8, 6, 6], "num3": [1, 1, 9, 2], "type": "DISTRACTOR", "conditions": [24, 800, "v", 12000], "trial": 5, "trial_type": "math-distractor", "trial_index": 173, "time_elapsed": 1221473, "internal_node_id": "0.0-128.0"}}, {"uniqueid": "MTK0144:3OVHNO1VE78VH9SWP40RH17AAYRDZF", "current_trial": 174, "dateTime": 1509291061980, "trialdata": {"rt": -1, "stimulus": "<p id=\"stim\">10</p>", "key_press": -1, "trial_type": "single-stim", "trial_index": 174, "time_elapsed": 1224475, "internal_node_id": "0.0-129.0-0.0"}}, {"uniqueid": "MTK0144:3OVHNO1VE78VH9SWP40RH17AAYRDZF", "current_trial": 175, "dateTime": 1509291062982, "trialdata": {"rt": -1, "stimulus": "<p id=\"stim\">9</p>", "key_press": -1, "trial_type": "single-stim", "trial_index": 175, "time_elapsed": 1225477, "internal_node_id": "0.0-129.0-1.0"}}, {"uniqueid": "MTK0144:3OVHNO1VE78VH9SWP40RH17AAYRDZF", "current_trial": 176, "dateTime": 1509291063983, "trialdata": {"rt": -1, "stimulus": "<p id=\"stim\">8</p>", "key_press": -1, "trial_type": "single-stim", "trial_index": 176, "time_elapsed": 1226478, "internal_node_id": "0.0-129.0-2.0"}}, {"uniqueid": "MTK0144:3OVHNO1VE78VH9SWP40RH17AAYRDZF", "current_trial": 177, "dateTime": 1509291064985, "trialdata": {"rt": -1, "stimulus": "<p id=\"stim\">7</p>", "key_press": -1, "trial_type": "single-stim", "trial_index": 177, "time_elapsed": 1227480, "internal_node_id": "0.0-129.0-3.0"}}, {"uniqueid": "MTK0144:3OVHNO1VE78VH9SWP40RH17AAYRDZF", "current_trial": 178, "dateTime": 1509291065985, "trialdata": {"rt": -1, "stimulus": "<p id=\"stim\">6</p>", "key_press": -1, "trial_type": "single-stim", "trial_index": 178, "time_elapsed": 1228480, "internal_node_id": "0.0-129.0-4.0"}}, {"uniqueid": "MTK0144:3OVHNO1VE78VH9SWP40RH17AAYRDZF", "current_trial": 179, "dateTime": 1509291066988, "trialdata": {"rt": -1, "stimulus": "<p id=\"stim\">5</p>", "key_press": -1, "trial_type": "single-stim", "trial_index": 179, "time_elapsed": 1229483, "internal_node_id": "0.0-129.0-5.0"}}, {"uniqueid": "MTK0144:3OVHNO1VE78VH9SWP40RH17AAYRDZF", "current_trial": 180, "dateTime": 1509291067989, "trialdata": {"rt": -1, "stimulus": "<p id=\"stim\">4</p>", "key_press": -1, "trial_type": "single-stim", "trial_index": 180, "time_elapsed": 1230484, "internal_node_id": "0.0-129.0-6.0"}}, {"uniqueid": "MTK0144:3OVHNO1VE78VH9SWP40RH17AAYRDZF", "current_trial": 181, "dateTime": 1509291068991, "trialdata": {"rt": -1, "stimulus": "<p id=\"stim\">3</p>", "key_press": -1, "trial_type": "single-stim", "trial_index": 181, "time_elapsed": 1231486, "internal_node_id": "0.0-129.0-7.0"}}, {"uniqueid": "MTK0144:3OVHNO1VE78VH9SWP40RH17AAYRDZF", "current_trial": 182, "dateTime": 1509291069993, "trialdata": {"rt": -1, "stimulus": "<p id=\"stim\">2</p>", "key_press": -1, "trial_type": "single-stim", "trial_index": 182, "time_elapsed": 1232488, "internal_node_id": "0.0-129.0-8.0"}}, {"uniqueid": "MTK0144:3OVHNO1VE78VH9SWP40RH17AAYRDZF", "current_trial": 183, "dateTime": 1509291070994, "trialdata": {"rt": -1, "stimulus": "<p id=\"stim\">1</p>", "key_press": -1, "trial_type": "single-stim", "trial_index": 183, "time_elapsed": 1233489, "internal_node_id": "0.0-129.0-9.0"}}, {"uniqueid": "MTK0144:3OVHNO1VE78VH9SWP40RH17AAYRDZF", "current_trial": 184, "dateTime": 1509291072496, "trialdata": {"rt": -1, "stimulus": "<p id=\"stim\">+</p>", "key_press": -1, "type": "FIXATION", "trial_type": "single-stim", "trial_index": 184, "time_elapsed": 1234991, "internal_node_id": "0.0-130.0-0.0"}}, {"uniqueid": "MTK0144:3OVHNO1VE78VH9SWP40RH17AAYRDZF", "current_trial": 185, "dateTime": 1509291073297, "trialdata": {"rt": -1, "stimulus": "<p id=\"stim\">DUSTPAN</p>", "key_press": -1, "type": "PRES_VIS", "word": "dustpan", "wordID": 508, "conditions": [24, 800, "v", 12000], "trial": 5, "serialpos": 0, "trial_type": "single-stim", "trial_index": 185, "time_elapsed": 1235792, "internal_node_id": "0.0-131.0"}}, {"uniqueid": "MTK0144:3OVHNO1VE78VH9SWP40RH17AAYRDZF", "current_trial": 186, "dateTime": 1509291074943, "trialdata": {"rt": -1, "stimulus": "<p id=\"stim\">TYPIST</p>", "key_press": -1, "type": "PRES_VIS", "word": "typist", "wordID": 1531, "conditions": [24, 800, "v", 12000], "trial": 5, "serialpos": 1, "trial_type": "single-stim", "trial_index": 186, "time_elapsed": 1237438, "internal_node_id": "0.0-132.0"}}, {"uniqueid": "MTK0144:3OVHNO1VE78VH9SWP40RH17AAYRDZF", "current_trial": 187, "dateTime": 1509291076636, "trialdata": {"rt": -1, "stimulus": "<p id=\"stim\">PIANO</p>", "key_press": -1, "type": "PRES_VIS", "word": "piano", "wordID": 1056, "conditions": [24, 800, "v", 12000], "trial": 5, "serialpos": 2, "trial_type": "single-stim", "trial_index": 187, "time_elapsed": 1239131, "internal_node_id": "0.0-133.0"}}, {"uniqueid": "MTK0144:3OVHNO1VE78VH9SWP40RH17AAYRDZF", "current_trial": 188, "dateTime": 1509291078470, "trialdata": {"rt": -1, "stimulus": "<p id=\"stim\">PADDLE</p>", "key_press": -1, "type": "PRES_VIS", "word": "paddle", "wordID": 999, "conditions": [24, 800, "v", 12000], "trial": 5, "serialpos": 3, "trial_type": "single-stim", "trial_index": 188, "time_elapsed": 1240965, "internal_node_id": "0.0-134.0"}}, {"uniqueid": "MTK0144:3OVHNO1VE78VH9SWP40RH17AAYRDZF", "current_trial": 189, "dateTime": 1509291080384, "trialdata": {"rt": -1, "stimulus": "<p id=\"stim\">SHORTCAKE</p>", "key_press": -1, "type": "PRES_VIS", "word": "shortcake", "wordID": 1291, "conditions": [24, 800, "v", 12000], "trial": 5, "serialpos": 4, "trial_type": "single-stim", "trial_index": 189, "time_elapsed": 1242879, "internal_node_id": "0.0-135.0"}}, {"uniqueid": "MTK0144:3OVHNO1VE78VH9SWP40RH17AAYRDZF", "current_trial": 190, "dateTime": 1509291082296, "trialdata": {"rt": -1, "stimulus": "<p id=\"stim\">PASTA</p>", "key_press": -1, "type": "PRES_VIS", "word": "pasta", "wordID": 1020, "conditions": [24, 800, "v", 12000], "trial": 5, "serialpos": 5, "trial_type": "single-stim", "trial_index": 190, "time_elapsed": 1244791, "internal_node_id": "0.0-136.0"}}, {"uniqueid": "MTK0144:3OVHNO1VE78VH9SWP40RH17AAYRDZF", "current_trial": 191, "dateTime": 1509291084208, "trialdata": {"rt": -1, "stimulus": "<p id=\"stim\">VELVET</p>", "key_press": -1, "type": "PRES_VIS", "word": "velvet", "wordID": 1554, "conditions": [24, 800, "v", 12000], "trial": 5, "serialpos": 6, "trial_type": "single-stim", "trial_index": 191, "time_elapsed": 1246703, "internal_node_id": "0.0-137.0"}}, {"uniqueid": "MTK0144:3OVHNO1VE78VH9SWP40RH17AAYRDZF", "current_trial": 192, "dateTime": 1509291085855, "trialdata": {"rt": -1, "stimulus": "<p id=\"stim\">MISSILE</p>", "key_press": -1, "type": "PRES_VIS", "word": "missile", "wordID": 899, "conditions": [24, 800, "v", 12000], "trial": 5, "serialpos": 7, "trial_type": "single-stim", "trial_index": 192, "time_elapsed": 1248350, "internal_node_id": "0.0-138.0"}}, {"uniqueid": "MTK0144:3OVHNO1VE78VH9SWP40RH17AAYRDZF", "current_trial": 193, "dateTime": 1509291087503, "trialdata": {"rt": -1, "stimulus": "<p id=\"stim\">HOOD</p>", "key_press": -1, "type": "PRES_VIS", "word": "hood", "wordID": 713, "conditions": [24, 800, "v", 12000], "trial": 5, "serialpos": 8, "trial_type": "single-stim", "trial_index": 193, "time_elapsed": 1249998, "internal_node_id": "0.0-139.0"}}, {"uniqueid": "MTK0144:3OVHNO1VE78VH9SWP40RH17AAYRDZF", "current_trial": 194, "dateTime": 1509291089494, "trialdata": {"rt": -1, "stimulus": "<p id=\"stim\">CRICKET</p>", "key_press": -1, "type": "PRES_VIS", "word": "cricket", "wordID": 407, "conditions": [24, 800, "v", 12000], "trial": 5, "serialpos": 9, "trial_type": "single-stim", "trial_index": 194, "time_elapsed": 1251989, "internal_node_id": "0.0-140.0"}}, {"uniqueid": "MTK0144:3OVHNO1VE78VH9SWP40RH17AAYRDZF", "current_trial": 195, "dateTime": 1509291091461, "trialdata": {"rt": -1, "stimulus": "<p id=\"stim\">KNIFE</p>", "key_press": -1, "type": "PRES_VIS", "word": "knife", "wordID": 784, "conditions": [24, 800, "v", 12000], "trial": 5, "serialpos": 10, "trial_type": "single-stim", "trial_index": 195, "time_elapsed": 1253956, "internal_node_id": "0.0-141.0"}}, {"uniqueid": "MTK0144:3OVHNO1VE78VH9SWP40RH17AAYRDZF", "current_trial": 196, "dateTime": 1509291093147, "trialdata": {"rt": -1, "stimulus": "<p id=\"stim\">ROCKET</p>", "key_press": -1, "type": "PRES_VIS", "word": "rocket", "wordID": 1201, "conditions": [24, 800, "v", 12000], "trial": 5, "serialpos": 11, "trial_type": "single-stim", "trial_index": 196, "time_elapsed": 1255642, "internal_node_id": "0.0-142.0"}}, {"uniqueid": "MTK0144:3OVHNO1VE78VH9SWP40RH17AAYRDZF", "current_trial": 197, "dateTime": 1509291095050, "trialdata": {"rt": -1, "stimulus": "<p id=\"stim\">GIRL</p>", "key_press": -1, "type": "PRES_VIS", "word": "girl", "wordID": 636, "conditions": [24, 800, "v", 12000], "trial": 5, "serialpos": 12, "trial_type": "single-stim", "trial_index": 197, "time_elapsed": 1257545, "internal_node_id": "0.0-143.0"}}, {"uniqueid": "MTK0144:3OVHNO1VE78VH9SWP40RH17AAYRDZF", "current_trial": 198, "dateTime": 1509291096685, "trialdata": {"rt": -1, "stimulus": "<p id=\"stim\">COSTUME</p>", "key_press": -1, "type": "PRES_VIS", "word": "costume", "wordID": 382, "conditions": [24, 800, "v", 12000], "trial": 5, "serialpos": 13, "trial_type": "single-stim", "trial_index": 198, "time_elapsed": 1259180, "internal_node_id": "0.0-144.0"}}, {"uniqueid": "MTK0144:3OVHNO1VE78VH9SWP40RH17AAYRDZF", "current_trial": 199, "dateTime": 1509291098358, "trialdata": {"rt": -1, "stimulus": "<p id=\"stim\">PIZZA</p>", "key_press": -1, "type": "PRES_VIS", "word": "pizza", "wordID": 1078, "conditions": [24, 800, "v", 12000], "trial": 5, "serialpos": 14, "trial_type": "single-stim", "trial_index": 199, "time_elapsed": 1260853, "internal_node_id": "0.0-145.0"}}, {"uniqueid": "MTK0144:3OVHNO1VE78VH9SWP40RH17AAYRDZF", "current_trial": 200, "dateTime": 1509291100158, "trialdata": {"rt": -1, "stimulus": "<p id=\"stim\">EAGLE</p>", "key_press": -1, "type": "PRES_VIS", "word": "eagle", "wordID": 511, "conditions": [24, 800, "v", 12000], "trial": 5, "serialpos": 15, "trial_type": "single-stim", "trial_index": 200, "time_elapsed": 1262653, "internal_node_id": "0.0-146.0"}}, {"uniqueid": "MTK0144:3OVHNO1VE78VH9SWP40RH17AAYRDZF", "current_trial": 201, "dateTime": 1509291101959, "trialdata": {"rt": -1, "stimulus": "<p id=\"stim\">COFFEE</p>", "key_press": -1, "type": "PRES_VIS", "word": "coffee", "wordID": 340, "conditions": [24, 800, "v", 12000], "trial": 5, "serialpos": 16, "trial_type": "single-stim", "trial_index": 201, "time_elapsed": 1264454, "internal_node_id": "0.0-147.0"}}, {"uniqueid": "MTK0144:3OVHNO1VE78VH9SWP40RH17AAYRDZF", "current_trial": 202, "dateTime": 1509291103753, "trialdata": {"rt": -1, "stimulus": "<p id=\"stim\">BLENDER</p>", "key_press": -1, "type": "PRES_VIS", "word": "blender", "wordID": 135, "conditions": [24, 800, "v", 12000], "trial": 5, "serialpos": 17, "trial_type": "single-stim", "trial_index": 202, "time_elapsed": 1266248, "internal_node_id": "0.0-148.0"}}, {"uniqueid": "MTK0144:3OVHNO1VE78VH9SWP40RH17AAYRDZF", "current_trial": 203, "dateTime": 1509291105502, "trialdata": {"rt": -1, "stimulus": "<p id=\"stim\">SCARECROW</p>", "key_press": -1, "type": "PRES_VIS", "word": "scarecrow", "wordID": 1244, "conditions": [24, 800, "v", 12000], "trial": 5, "serialpos": 18, "trial_type": "single-stim", "trial_index": 203, "time_elapsed": 1267997, "internal_node_id": "0.0-149.0"}}, {"uniqueid": "MTK0144:3OVHNO1VE78VH9SWP40RH17AAYRDZF", "current_trial": 204, "dateTime": 1509291107254, "trialdata": {"rt": -1, "stimulus": "<p id=\"stim\">CARROT</p>", "key_press": -1, "type": "PRES_VIS", "word": "carrot", "wordID": 248, "conditions": [24, 800, "v", 12000], "trial": 5, "serialpos": 19, "trial_type": "single-stim", "trial_index": 204, "time_elapsed": 1269749, "internal_node_id": "0.0-150.0"}}, {"uniqueid": "MTK0144:3OVHNO1VE78VH9SWP40RH17AAYRDZF", "current_trial": 205, "dateTime": 1509291108954, "trialdata": {"rt": -1, "stimulus": "<p id=\"stim\">SKILLET</p>", "key_press": -1, "type": "PRES_VIS", "word": "skillet", "wordID": 1316, "conditions": [24, 800, "v", 12000], "trial": 5, "serialpos": 20, "trial_type": "single-stim", "trial_index": 205, "time_elapsed": 1271449, "internal_node_id": "0.0-151.0"}}, {"uniqueid": "MTK0144:3OVHNO1VE78VH9SWP40RH17AAYRDZF", "current_trial": 206, "dateTime": 1509291110861, "trialdata": {"rt": -1, "stimulus": "<p id=\"stim\">HEADBAND</p>", "key_press": -1, "type": "PRES_VIS", "word": "headband", "wordID": 695, "conditions": [24, 800, "v", 12000], "trial": 5, "serialpos": 21, "trial_type": "single-stim", "trial_index": 206, "time_elapsed": 1273356, "internal_node_id": "0.0-152.0"}}, {"uniqueid": "MTK0144:3OVHNO1VE78VH9SWP40RH17AAYRDZF", "current_trial": 207, "dateTime": 1509291112676, "trialdata": {"rt": -1, "stimulus": "<p id=\"stim\">BRICK</p>", "key_press": -1, "type": "PRES_VIS", "word": "brick", "wordID": 171, "conditions": [24, 800, "v", 12000], "trial": 5, "serialpos": 22, "trial_type": "single-stim", "trial_index": 207, "time_elapsed": 1275171, "internal_node_id": "0.0-153.0"}}, {"uniqueid": "MTK0144:3OVHNO1VE78VH9SWP40RH17AAYRDZF", "current_trial": 208, "dateTime": 1509291114629, "trialdata": {"rt": -1, "stimulus": "<p id=\"stim\">STONE</p>", "key_press": -1, "type": "PRES_VIS", "word": "stone", "wordID": 1384, "conditions": [24, 800, "v", 12000], "trial": 5, "serialpos": 23, "trial_type": "single-stim", "trial_index": 208, "time_elapsed": 1277124, "internal_node_id": "0.0-154.0"}}, {"uniqueid": "MTK0144:3OVHNO1VE78VH9SWP40RH17AAYRDZF", "current_trial": 209, "dateTime": 1509291116999, "trialdata": {"rt": -1, "stimulus": "", "key_press": -1, "type": "PRE_RECALL_DELAY", "trial_type": "single-stim", "trial_index": 209, "time_elapsed": 1279494, "internal_node_id": "0.0-155.0-0.0"}}, {"uniqueid": "MTK0144:3OVHNO1VE78VH9SWP40RH17AAYRDZF", "current_trial": 210, "dateTime": 1509291117500, "trialdata": {"rt": -1000, "stimulus": "/static/audio/400Hz.wav", "key_press": -1, "type": "PRE_RECALL_ALERT", "trial_type": "single-audio", "trial_index": 210, "time_elapsed": 1279995, "internal_node_id": "0.0-156.0"}}, {"uniqueid": "MTK0144:3OVHNO1VE78VH9SWP40RH17AAYRDZF", "current_trial": 211, "dateTime": 1509291177507, "trialdata": {"rt": [1822, 3294, 4701, 6654, 11545, 13083, 17756, 24031], "recwords": ["brick", "stone", "girl", "headband", "knife", "pizza", "piano", "typist"], "type": "FREE_RECALL", "conditions": [24, 800, "v", 12000], "trial": 5, "trial_type": "free-recall", "trial_index": 211, "time_elapsed": 1339997, "internal_node_id": "0.0-157.0-0.0"}}, {"uniqueid": "MTK0144:3OVHNO1VE78VH9SWP40RH17AAYRDZF", "current_trial": 212, "dateTime": 1509291180310, "trialdata": {"rt": 801, "key_press": 32, "type": "INSTRUCTIONS", "trial_type": "text", "trial_index": 212, "time_elapsed": 1342805, "internal_node_id": "0.0-158.0"}}, {"uniqueid": "MTK0144:3OVHNO1VE78VH9SWP40RH17AAYRDZF", "current_trial": 213, "dateTime": 1509291206313, "trialdata": {"rt": [4506, 7381, 10809, 13571, 17242, 19026, 23432], "responses": ["15", "17", "10", "10", "14", "10", "17"], "num1": [3, 4, 2, 2, 4, 1, 4, 7], "num2": [8, 4, 1, 1, 7, 8, 8, 5], "num3": [4, 9, 7, 7, 3, 1, 5, 1], "type": "DISTRACTOR", "conditions": [12, 1600, "a", 24000], "trial": 6, "trial_type": "math-distractor", "trial_index": 213, "time_elapsed": 1368808, "internal_node_id": "0.0-159.0"}}, {"uniqueid": "MTK0144:3OVHNO1VE78VH9SWP40RH17AAYRDZF", "current_trial": 214, "dateTime": 1509291209315, "trialdata": {"rt": -1, "stimulus": "<p id=\"stim\">10</p>", "key_press": -1, "trial_type": "single-stim", "trial_index": 214, "time_elapsed": 1371810, "internal_node_id": "0.0-160.0-0.0"}}, {"uniqueid": "MTK0144:3OVHNO1VE78VH9SWP40RH17AAYRDZF", "current_trial": 215, "dateTime": 1509291210316, "trialdata": {"rt": -1, "stimulus": "<p id=\"stim\">9</p>", "key_press": -1, "trial_type": "single-stim", "trial_index": 215, "time_elapsed": 1372811, "internal_node_id": "0.0-160.0-1.0"}}, {"uniqueid": "MTK0144:3OVHNO1VE78VH9SWP40RH17AAYRDZF", "current_trial": 216, "dateTime": 1509291211318, "trialdata": {"rt": -1, "stimulus": "<p id=\"stim\">8</p>", "key_press": -1, "trial_type": "single-stim", "trial_index": 216, "time_elapsed": 1373813, "internal_node_id": "0.0-160.0-2.0"}}, {"uniqueid": "MTK0144:3OVHNO1VE78VH9SWP40RH17AAYRDZF", "current_trial": 217, "dateTime": 1509291212320, "trialdata": {"rt": -1, "stimulus": "<p id=\"stim\">7</p>", "key_press": -1, "trial_type": "single-stim", "trial_index": 217, "time_elapsed": 1374815, "internal_node_id": "0.0-160.0-3.0"}}, {"uniqueid": "MTK0144:3OVHNO1VE78VH9SWP40RH17AAYRDZF", "current_trial": 218, "dateTime": 1509291213321, "trialdata": {"rt": -1, "stimulus": "<p id=\"stim\">6</p>", "key_press": -1, "trial_type": "single-stim", "trial_index": 218, "time_elapsed": 1375816, "internal_node_id": "0.0-160.0-4.0"}}, {"uniqueid": "MTK0144:3OVHNO1VE78VH9SWP40RH17AAYRDZF", "current_trial": 219, "dateTime": 1509291214322, "trialdata": {"rt": -1, "stimulus": "<p id=\"stim\">5</p>", "key_press": -1, "trial_type": "single-stim", "trial_index": 219, "time_elapsed": 1376817, "internal_node_id": "0.0-160.0-5.0"}}, {"uniqueid": "MTK0144:3OVHNO1VE78VH9SWP40RH17AAYRDZF", "current_trial": 220, "dateTime": 1509291215323, "trialdata": {"rt": -1, "stimulus": "<p id=\"stim\">4</p>", "key_press": -1, "trial_type": "single-stim", "trial_index": 220, "time_elapsed": 1377818, "internal_node_id": "0.0-160.0-6.0"}}, {"uniqueid": "MTK0144:3OVHNO1VE78VH9SWP40RH17AAYRDZF", "current_trial": 221, "dateTime": 1509291216324, "trialdata": {"rt": -1, "stimulus": "<p id=\"stim\">3</p>", "key_press": -1, "trial_type": "single-stim", "trial_index": 221, "time_elapsed": 1378819, "internal_node_id": "0.0-160.0-7.0"}}, {"uniqueid": "MTK0144:3OVHNO1VE78VH9SWP40RH17AAYRDZF", "current_trial": 222, "dateTime": 1509291217326, "trialdata": {"rt": -1, "stimulus": "<p id=\"stim\">2</p>", "key_press": -1, "trial_type": "single-stim", "trial_index": 222, "time_elapsed": 1379821, "internal_node_id": "0.0-160.0-8.0"}}, {"uniqueid": "MTK0144:3OVHNO1VE78VH9SWP40RH17AAYRDZF", "current_trial": 223, "dateTime": 1509291218327, "trialdata": {"rt": -1, "stimulus": "<p id=\"stim\">1</p>", "key_press": -1, "trial_type": "single-stim", "trial_index": 223, "time_elapsed": 1380822, "internal_node_id": "0.0-160.0-9.0"}}, {"uniqueid": "MTK0144:3OVHNO1VE78VH9SWP40RH17AAYRDZF", "current_trial": 224, "dateTime": 1509291219828, "trialdata": {"rt": -1, "stimulus": "<p id=\"stim\">+</p>", "key_press": -1, "type": "FIXATION", "trial_type": "single-stim", "trial_index": 224, "time_elapsed": 1382323, "internal_node_id": "0.0-161.0-0.0"}}, {"uniqueid": "MTK0144:3OVHNO1VE78VH9SWP40RH17AAYRDZF", "current_trial": 225, "dateTime": 1509291222559, "trialdata": {"rt": -1000, "stimulus": "/static/audio/wordpool/AIRPORT.wav", "key_press": -1, "type": "PRES_AUD", "word": "airport", "wordID": 12, "conditions": [12, 1600, "a", 24000], "trial": 6, "serialpos": 0, "trial_type": "single-audio", "trial_index": 225, "time_elapsed": 1385054, "internal_node_id": "0.0-162.0"}}, {"uniqueid": "MTK0144:3OVHNO1VE78VH9SWP40RH17AAYRDZF", "current_trial": 226, "dateTime": 1509291225006, "trialdata": {"rt": -1000, "stimulus": "/static/audio/wordpool/COOK.wav", "key_press": -1, "type": "PRES_AUD", "word": "cook", "wordID": 371, "conditions": [12, 1600, "a", 24000], "trial": 6, "serialpos": 1, "trial_type": "single-audio", "trial_index": 226, "time_elapsed": 1387501, "internal_node_id": "0.0-163.0"}}, {"uniqueid": "MTK0144:3OVHNO1VE78VH9SWP40RH17AAYRDZF", "current_trial": 227, "dateTime": 1509291227489, "trialdata": {"rt": -1000, "stimulus": "/static/audio/wordpool/SWORD.wav", "key_press": -1, "type": "PRES_AUD", "word": "sword", "wordID": 1422, "conditions": [12, 1600, "a", 24000], "trial": 6, "serialpos": 2, "trial_type": "single-audio", "trial_index": 227, "time_elapsed": 1389984, "internal_node_id": "0.0-164.0"}}, {"uniqueid": "MTK0144:3OVHNO1VE78VH9SWP40RH17AAYRDZF", "current_trial": 228, "dateTime": 1509291230024, "trialdata": {"rt": -1000, "stimulus": "/static/audio/wordpool/BLOCKADE.wav", "key_press": -1, "type": "PRES_AUD", "word": "blockade", "wordID": 136, "conditions": [12, 1600, "a", 24000], "trial": 6, "serialpos": 3, "trial_type": "single-audio", "trial_index": 228, "time_elapsed": 1392519, "internal_node_id": "0.0-165.0"}}, {"uniqueid": "MTK0144:3OVHNO1VE78VH9SWP40RH17AAYRDZF", "current_trial": 229, "dateTime": 1509291232653, "trialdata": {"rt": -1000, "stimulus": "/static/audio/wordpool/KITCHEN.wav", "key_press": -1, "type": "PRES_AUD", "word": "kitchen", "wordID": 777, "conditions": [12, 1600, "a", 24000], "trial": 6, "serialpos": 4, "trial_type": "single-audio", "trial_index": 229, "time_elapsed": 1395148, "internal_node_id": "0.0-166.0"}}, {"uniqueid": "MTK0144:3OVHNO1VE78VH9SWP40RH17AAYRDZF", "current_trial": 230, "dateTime": 1509291235358, "trialdata": {"rt": -1000, "stimulus": "/static/audio/wordpool/FOOT.wav", "key_press": -1, "type": "PRES_AUD", "word": "foot", "wordID": 589, "conditions": [12, 1600, "a", 24000], "trial": 6, "serialpos": 5, "trial_type": "single-audio", "trial_index": 230, "time_elapsed": 1397852, "internal_node_id": "0.0-167.0"}}, {"uniqueid": "MTK0144:3OVHNO1VE78VH9SWP40RH17AAYRDZF", "current_trial": 231, "dateTime": 1509291238137, "trialdata": {"rt": -1000, "stimulus": "/static/audio/wordpool/PATIENT.wav", "key_press": -1, "type": "PRES_AUD", "word": "patient", "wordID": 1023, "conditions": [12, 1600, "a", 24000], "trial": 6, "serialpos": 6, "trial_type": "single-audio", "trial_index": 231, "time_elapsed": 1400632, "internal_node_id": "0.0-168.0"}}, {"uniqueid": "MTK0144:3OVHNO1VE78VH9SWP40RH17AAYRDZF", "current_trial": 232, "dateTime": 1509291240844, "trialdata": {"rt": -1000, "stimulus": "/static/audio/wordpool/NURSE.wav", "key_press": -1, "type": "PRES_AUD", "word": "nurse", "wordID": 962, "conditions": [12, 1600, "a", 24000], "trial": 6, "serialpos": 7, "trial_type": "single-audio", "trial_index": 232, "time_elapsed": 1403339, "internal_node_id": "0.0-169.0"}}, {"uniqueid": "MTK0144:3OVHNO1VE78VH9SWP40RH17AAYRDZF", "current_trial": 233, "dateTime": 1509291243253, "trialdata": {"rt": -1000, "stimulus": "/static/audio/wordpool/CONVICT.wav", "key_press": -1, "type": "PRES_AUD", "word": "convict", "wordID": 370, "conditions": [12, 1600, "a", 24000], "trial": 6, "serialpos": 8, "trial_type": "single-audio", "trial_index": 233, "time_elapsed": 1405748, "internal_node_id": "0.0-170.0"}}, {"uniqueid": "MTK0144:3OVHNO1VE78VH9SWP40RH17AAYRDZF", "current_trial": 234, "dateTime": 1509291245925, "trialdata": {"rt": -1000, "stimulus": "/static/audio/wordpool/FINGER.wav", "key_press": -1, "type": "PRES_AUD", "word": "finger", "wordID": 566, "conditions": [12, 1600, "a", 24000], "trial": 6, "serialpos": 9, "trial_type": "single-audio", "trial_index": 234, "time_elapsed": 1408420, "internal_node_id": "0.0-171.0"}}, {"uniqueid": "MTK0144:3OVHNO1VE78VH9SWP40RH17AAYRDZF", "current_trial": 235, "dateTime": 1509291248548, "trialdata": {"rt": -1000, "stimulus": "/static/audio/wordpool/DAUGHTER.wav", "key_press": -1, "type": "PRES_AUD", "word": "daughter", "wordID": 441, "conditions": [12, 1600, "a", 24000], "trial": 6, "serialpos": 10, "trial_type": "single-audio", "trial_index": 235, "time_elapsed": 1411043, "internal_node_id": "0.0-172.0"}}, {"uniqueid": "MTK0144:3OVHNO1VE78VH9SWP40RH17AAYRDZF", "current_trial": 236, "dateTime": 1509291251324, "trialdata": {"rt": -1000, "stimulus": "/static/audio/wordpool/SUSPECT.wav", "key_press": -1, "type": "PRES_AUD", "word": "suspect", "wordID": 1414, "conditions": [12, 1600, "a", 24000], "trial": 6, "serialpos": 11, "trial_type": "single-audio", "trial_index": 236, "time_elapsed": 1413819, "internal_node_id": "0.0-173.0"}}, {"uniqueid": "MTK0144:3OVHNO1VE78VH9SWP40RH17AAYRDZF", "current_trial": 237, "dateTime": 1509291252537, "trialdata": {"rt": -1, "stimulus": "", "key_press": -1, "type": "PRE_RECALL_DELAY", "trial_type": "single-stim", "trial_index": 237, "time_elapsed": 1415032, "internal_node_id": "0.0-174.0-0.0"}}, {"uniqueid": "MTK0144:3OVHNO1VE78VH9SWP40RH17AAYRDZF", "current_trial": 238, "dateTime": 1509291253041, "trialdata": {"rt": -1000, "stimulus": "/static/audio/400Hz.wav", "key_press": -1, "type": "PRE_RECALL_ALERT", "trial_type": "single-audio", "trial_index": 238, "time_elapsed": 1415536, "internal_node_id": "0.0-175.0"}}, {"uniqueid": "MTK0144:3OVHNO1VE78VH9SWP40RH17AAYRDZF", "current_trial": 239, "dateTime": 1509291313047, "trialdata": {"rt": [2279, 4693, 6000, 7620, 11851, 19421, 21524, 27401, 34945, 40261, 48028], "recwords": ["suspect", "airplane", "finger", "daughter", "cook", "blockaide", "foot", "sword", "prisoner", "convict", "nurse"], "type": "FREE_RECALL", "conditions": [12, 1600, "a", 24000], "trial": 6, "trial_type": "free-recall", "trial_index": 239, "time_elapsed": 1475539, "internal_node_id": "0.0-176.0-0.0"}}, {"uniqueid": "MTK0144:3OVHNO1VE78VH9SWP40RH17AAYRDZF", "current_trial": 240, "dateTime": 1509291316284, "trialdata": {"rt": 1236, "key_press": 32, "type": "INSTRUCTIONS", "trial_type": "text", "trial_index": 240, "time_elapsed": 1478779, "internal_node_id": "0.0-177.0"}}, {"uniqueid": "MTK0144:3OVHNO1VE78VH9SWP40RH17AAYRDZF", "current_trial": 241, "dateTime": 1509291342288, "trialdata": {"rt": [3292, 6157, 9265, 11651, 14800, 20214], "responses": ["8", "9", "15", "11", "15", "16"], "num1": [4, 1, 7, 4, 3, 7, 2], "num2": [2, 5, 5, 6, 3, 4, 7], "num3": [2, 3, 3, 1, 9, 4, 4], "type": "DISTRACTOR", "conditions": [24, 1600, "a", 24000], "trial": 7, "trial_type": "math-distractor", "trial_index": 241, "time_elapsed": 1504783, "internal_node_id": "0.0-178.0"}}, {"uniqueid": "MTK0144:3OVHNO1VE78VH9SWP40RH17AAYRDZF", "current_trial": 242, "dateTime": 1509291345290, "trialdata": {"rt": -1, "stimulus": "<p id=\"stim\">10</p>", "key_press": -1, "trial_type": "single-stim", "trial_index": 242, "time_elapsed": 1507785, "internal_node_id": "0.0-179.0-0.0"}}, {"uniqueid": "MTK0144:3OVHNO1VE78VH9SWP40RH17AAYRDZF", "current_trial": 243, "dateTime": 1509291346292, "trialdata": {"rt": -1, "stimulus": "<p id=\"stim\">9</p>", "key_press": -1, "trial_type": "single-stim", "trial_index": 243, "time_elapsed": 1508787, "internal_node_id": "0.0-179.0-1.0"}}, {"uniqueid": "MTK0144:3OVHNO1VE78VH9SWP40RH17AAYRDZF", "current_trial": 244, "dateTime": 1509291347293, "trialdata": {"rt": -1, "stimulus": "<p id=\"stim\">8</p>", "key_press": -1, "trial_type": "single-stim", "trial_index": 244, "time_elapsed": 1509788, "internal_node_id": "0.0-179.0-2.0"}}, {"uniqueid": "MTK0144:3OVHNO1VE78VH9SWP40RH17AAYRDZF", "current_trial": 245, "dateTime": 1509291348294, "trialdata": {"rt": -1, "stimulus": "<p id=\"stim\">7</p>", "key_press": -1, "trial_type": "single-stim", "trial_index": 245, "time_elapsed": 1510789, "internal_node_id": "0.0-179.0-3.0"}}, {"uniqueid": "MTK0144:3OVHNO1VE78VH9SWP40RH17AAYRDZF", "current_trial": 246, "dateTime": 1509291349295, "trialdata": {"rt": -1, "stimulus": "<p id=\"stim\">6</p>", "key_press": -1, "trial_type": "single-stim", "trial_index": 246, "time_elapsed": 1511790, "internal_node_id": "0.0-179.0-4.0"}}, {"uniqueid": "MTK0144:3OVHNO1VE78VH9SWP40RH17AAYRDZF", "current_trial": 247, "dateTime": 1509291350297, "trialdata": {"rt": -1, "stimulus": "<p id=\"stim\">5</p>", "key_press": -1, "trial_type": "single-stim", "trial_index": 247, "time_elapsed": 1512792, "internal_node_id": "0.0-179.0-5.0"}}, {"uniqueid": "MTK0144:3OVHNO1VE78VH9SWP40RH17AAYRDZF", "current_trial": 248, "dateTime": 1509291351299, "trialdata": {"rt": -1, "stimulus": "<p id=\"stim\">4</p>", "key_press": -1, "trial_type": "single-stim", "trial_index": 248, "time_elapsed": 1513794, "internal_node_id": "0.0-179.0-6.0"}}, {"uniqueid": "MTK0144:3OVHNO1VE78VH9SWP40RH17AAYRDZF", "current_trial": 249, "dateTime": 1509291352300, "trialdata": {"rt": -1, "stimulus": "<p id=\"stim\">3</p>", "key_press": -1, "trial_type": "single-stim", "trial_index": 249, "time_elapsed": 1514795, "internal_node_id": "0.0-179.0-7.0"}}, {"uniqueid": "MTK0144:3OVHNO1VE78VH9SWP40RH17AAYRDZF", "current_trial": 250, "dateTime": 1509291353301, "trialdata": {"rt": -1, "stimulus": "<p id=\"stim\">2</p>", "key_press": -1, "trial_type": "single-stim", "trial_index": 250, "time_elapsed": 1515796, "internal_node_id": "0.0-179.0-8.0"}}, {"uniqueid": "MTK0144:3OVHNO1VE78VH9SWP40RH17AAYRDZF", "current_trial": 251, "dateTime": 1509291354302, "trialdata": {"rt": -1, "stimulus": "<p id=\"stim\">1</p>", "key_press": -1, "trial_type": "single-stim", "trial_index": 251, "time_elapsed": 1516797, "internal_node_id": "0.0-179.0-9.0"}}, {"uniqueid": "MTK0144:3OVHNO1VE78VH9SWP40RH17AAYRDZF", "current_trial": 252, "dateTime": 1509291355803, "trialdata": {"rt": -1, "stimulus": "<p id=\"stim\">+</p>", "key_press": -1, "type": "FIXATION", "trial_type": "single-stim", "trial_index": 252, "time_elapsed": 1518298, "internal_node_id": "0.0-180.0-0.0"}}, {"uniqueid": "MTK0144:3OVHNO1VE78VH9SWP40RH17AAYRDZF", "current_trial": 253, "dateTime": 1509291358434, "trialdata": {"rt": -1000, "stimulus": "/static/audio/wordpool/BUREAU.wav", "key_press": -1, "type": "PRES_AUD", "word": "bureau", "wordID": 198, "conditions": [24, 1600, "a", 24000], "trial": 7, "serialpos": 0, "trial_type": "single-audio", "trial_index": 253, "time_elapsed": 1520929, "internal_node_id": "0.0-181.0"}}, {"uniqueid": "MTK0144:3OVHNO1VE78VH9SWP40RH17AAYRDZF", "current_trial": 254, "dateTime": 1509291361056, "trialdata": {"rt": -1000, "stimulus": "/static/audio/wordpool/PALACE.wav", "key_press": -1, "type": "PRES_AUD", "word": "palace", "wordID": 1005, "conditions": [24, 1600, "a", 24000], "trial": 7, "serialpos": 1, "trial_type": "single-audio", "trial_index": 254, "time_elapsed": 1523550, "internal_node_id": "0.0-182.0"}}, {"uniqueid": "MTK0144:3OVHNO1VE78VH9SWP40RH17AAYRDZF", "current_trial": 255, "dateTime": 1509291363550, "trialdata": {"rt": -1000, "stimulus": "/static/audio/wordpool/VAGRANT.wav", "key_press": -1, "type": "PRES_AUD", "word": "vagrant", "wordID": 1543, "conditions": [24, 1600, "a", 24000], "trial": 7, "serialpos": 2, "trial_type": "single-audio", "trial_index": 255, "time_elapsed": 1526045, "internal_node_id": "0.0-183.0"}}, {"uniqueid": "MTK0144:3OVHNO1VE78VH9SWP40RH17AAYRDZF", "current_trial": 256, "dateTime": 1509291366235, "trialdata": {"rt": -1000, "stimulus": "/static/audio/wordpool/ROBBER.wav", "key_press": -1, "type": "PRES_AUD", "word": "robber", "wordID": 1196, "conditions": [24, 1600, "a", 24000], "trial": 7, "serialpos": 3, "trial_type": "single-audio", "trial_index": 256, "time_elapsed": 1528730, "internal_node_id": "0.0-184.0"}}, {"uniqueid": "MTK0144:3OVHNO1VE78VH9SWP40RH17AAYRDZF", "current_trial": 257, "dateTime": 1509291368687, "trialdata": {"rt": -1000, "stimulus": "/static/audio/wordpool/BURGLAR.wav", "key_press": -1, "type": "PRES_AUD", "word": "burglar", "wordID": 199, "conditions": [24, 1600, "a", 24000], "trial": 7, "serialpos": 4, "trial_type": "single-audio", "trial_index": 257, "time_elapsed": 1531182, "internal_node_id": "0.0-185.0"}}, {"uniqueid": "MTK0144:3OVHNO1VE78VH9SWP40RH17AAYRDZF", "current_trial": 258, "dateTime": 1509291371221, "trialdata": {"rt": -1000, "stimulus": "/static/audio/wordpool/APPLE.wav", "key_press": -1, "type": "PRES_AUD", "word": "apple", "wordID": 32, "conditions": [24, 1600, "a", 24000], "trial": 7, "serialpos": 5, "trial_type": "single-audio", "trial_index": 258, "time_elapsed": 1533716, "internal_node_id": "0.0-186.0"}}, {"uniqueid": "MTK0144:3OVHNO1VE78VH9SWP40RH17AAYRDZF", "current_trial": 259, "dateTime": 1509291373936, "trialdata": {"rt": -1000, "stimulus": "/static/audio/wordpool/BISON.wav", "key_press": -1, "type": "PRES_AUD", "word": "bison", "wordID": 130, "conditions": [24, 1600, "a", 24000], "trial": 7, "serialpos": 6, "trial_type": "single-audio", "trial_index": 259, "time_elapsed": 1536431, "internal_node_id": "0.0-187.0"}}, {"uniqueid": "MTK0144:3OVHNO1VE78VH9SWP40RH17AAYRDZF", "current_trial": 260, "dateTime": 1509291376452, "trialdata": {"rt": -1000, "stimulus": "/static/audio/wordpool/GLOBE.wav", "key_press": -1, "type": "PRES_AUD", "word": "globe", "wordID": 640, "conditions": [24, 1600, "a", 24000], "trial": 7, "serialpos": 7, "trial_type": "single-audio", "trial_index": 260, "time_elapsed": 1538947, "internal_node_id": "0.0-188.0"}}, {"uniqueid": "MTK0144:3OVHNO1VE78VH9SWP40RH17AAYRDZF", "current_trial": 261, "dateTime": 1509291379127, "trialdata": {"rt": -1000, "stimulus": "/static/audio/wordpool/TWEEZERS.wav", "key_press": -1, "type": "PRES_AUD", "word": "tweezers", "wordID": 1525, "conditions": [24, 1600, "a", 24000], "trial": 7, "serialpos": 8, "trial_type": "single-audio", "trial_index": 261, "time_elapsed": 1541621, "internal_node_id": "0.0-189.0"}}, {"uniqueid": "MTK0144:3OVHNO1VE78VH9SWP40RH17AAYRDZF", "current_trial": 262, "dateTime": 1509291381931, "trialdata": {"rt": -1000, "stimulus": "/static/audio/wordpool/STAR.wav", "key_press": -1, "type": "PRES_AUD", "word": "star", "wordID": 1372, "conditions": [24, 1600, "a", 24000], "trial": 7, "serialpos": 9, "trial_type": "single-audio", "trial_index": 262, "time_elapsed": 1544426, "internal_node_id": "0.0-190.0"}}, {"uniqueid": "MTK0144:3OVHNO1VE78VH9SWP40RH17AAYRDZF", "current_trial": 263, "dateTime": 1509291384444, "trialdata": {"rt": -1000, "stimulus": "/static/audio/wordpool/SWAMP.wav", "key_press": -1, "type": "PRES_AUD", "word": "swamp", "wordID": 1415, "conditions": [24, 1600, "a", 24000], "trial": 7, "serialpos": 10, "trial_type": "single-audio", "trial_index": 263, "time_elapsed": 1546939, "internal_node_id": "0.0-191.0"}}, {"uniqueid": "MTK0144:3OVHNO1VE78VH9SWP40RH17AAYRDZF", "current_trial": 264, "dateTime": 1509291387136, "trialdata": {"rt": -1000, "stimulus": "/static/audio/wordpool/FRUIT.wav", "key_press": -1, "type": "PRES_AUD", "word": "fruit", "wordID": 609, "conditions": [24, 1600, "a", 24000], "trial": 7, "serialpos": 11, "trial_type": "single-audio", "trial_index": 264, "time_elapsed": 1549630, "internal_node_id": "0.0-192.0"}}, {"uniqueid": "MTK0144:3OVHNO1VE78VH9SWP40RH17AAYRDZF", "current_trial": 265, "dateTime": 1509291389795, "trialdata": {"rt": -1000, "stimulus": "/static/audio/wordpool/BEEF.wav", "key_press": -1, "type": "PRES_AUD", "word": "beef", "wordID": 112, "conditions": [24, 1600, "a", 24000], "trial": 7, "serialpos": 12, "trial_type": "single-audio", "trial_index": 265, "time_elapsed": 1552290, "internal_node_id": "0.0-193.0"}}, {"uniqueid": "MTK0144:3OVHNO1VE78VH9SWP40RH17AAYRDZF", "current_trial": 266, "dateTime": 1509291392417, "trialdata": {"rt": -1000, "stimulus": "/static/audio/wordpool/VICTIM.wav", "key_press": -1, "type": "PRES_AUD", "word": "victim", "wordID": 1561, "conditions": [24, 1600, "a", 24000], "trial": 7, "serialpos": 13, "trial_type": "single-audio", "trial_index": 266, "time_elapsed": 1554912, "internal_node_id": "0.0-194.0"}}, {"uniqueid": "MTK0144:3OVHNO1VE78VH9SWP40RH17AAYRDZF", "current_trial": 267, "dateTime": 1509291394908, "trialdata": {"rt": -1000, "stimulus": "/static/audio/wordpool/TRUCK.wav", "key_press": -1, "type": "PRES_AUD", "word": "truck", "wordID": 1511, "conditions": [24, 1600, "a", 24000], "trial": 7, "serialpos": 14, "trial_type": "single-audio", "trial_index": 267, "time_elapsed": 1557403, "internal_node_id": "0.0-195.0"}}, {"uniqueid": "MTK0144:3OVHNO1VE78VH9SWP40RH17AAYRDZF", "current_trial": 268, "dateTime": 1509291397359, "trialdata": {"rt": -1000, "stimulus": "/static/audio/wordpool/TRACTOR.wav", "key_press": -1, "type": "PRES_AUD", "word": "tractor", "wordID": 1492, "conditions": [24, 1600, "a", 24000], "trial": 7, "serialpos": 15, "trial_type": "single-audio", "trial_index": 268, "time_elapsed": 1559853, "internal_node_id": "0.0-196.0"}}, {"uniqueid": "MTK0144:3OVHNO1VE78VH9SWP40RH17AAYRDZF", "current_trial": 269, "dateTime": 1509291400058, "trialdata": {"rt": -1000, "stimulus": "/static/audio/wordpool/SERVER.wav", "key_press": -1, "type": "PRES_AUD", "word": "server", "wordID": 1271, "conditions": [24, 1600, "a", 24000], "trial": 7, "serialpos": 16, "trial_type": "single-audio", "trial_index": 269, "time_elapsed": 1562553, "internal_node_id": "0.0-197.0"}}, {"uniqueid": "MTK0144:3OVHNO1VE78VH9SWP40RH17AAYRDZF", "current_trial": 270, "dateTime": 1509291402654, "trialdata": {"rt": -1000, "stimulus": "/static/audio/wordpool/COLLEGE.wav", "key_press": -1, "type": "PRES_AUD", "word": "college", "wordID": 345, "conditions": [24, 1600, "a", 24000], "trial": 7, "serialpos": 17, "trial_type": "single-audio", "trial_index": 270, "time_elapsed": 1565149, "internal_node_id": "0.0-198.0"}}, {"uniqueid": "MTK0144:3OVHNO1VE78VH9SWP40RH17AAYRDZF", "current_trial": 271, "dateTime": 1509291405319, "trialdata": {"rt": -1000, "stimulus": "/static/audio/wordpool/GAVEL.wav", "key_press": -1, "type": "PRES_AUD", "word": "gavel", "wordID": 626, "conditions": [24, 1600, "a", 24000], "trial": 7, "serialpos": 18, "trial_type": "single-audio", "trial_index": 271, "time_elapsed": 1567812, "internal_node_id": "0.0-199.0"}}, {"uniqueid": "MTK0144:3OVHNO1VE78VH9SWP40RH17AAYRDZF", "current_trial": 272, "dateTime": 1509291407818, "trialdata": {"rt": -1000, "stimulus": "/static/audio/wo