{"condition": 0, "counterbalance": 1782, "assignmentId": "3PMBY0YE28A66Q45LABHK7NZEIK9C3", "workerId": "MTK0796", "hitId": "3C8QQOM6JP8QXBTKCF5RBZG5BB7ILU", "currenttrial": 626, "bonus": 0, "data": [{"uniqueid": "MTK0796:3PMBY0YE28A66Q45LABHK7NZEIK9C3", "current_trial": 0, "dateTime": 1512759608123, "trialdata": {"rt": 179754, "key_press": 32, "type": "INSTRUCTIONS", "trial_type": "text", "trial_index": 0, "time_elapsed": 179758, "internal_node_id": "0.0-0.0"}}, {"uniqueid": "MTK0796:3PMBY0YE28A66Q45LABHK7NZEIK9C3", "current_trial": 1, "dateTime": 1512759608132, "trialdata": {"rt": 6, "key_press": 86, "type": "INSTRUCTIONS", "trial_type": "text", "trial_index": 1, "time_elapsed": 179769, "internal_node_id": "0.0-1.0"}}, {"uniqueid": "MTK0796:3PMBY0YE28A66Q45LABHK7NZEIK9C3", "current_trial": 2, "dateTime": 1512759637524, "trialdata": {"rt": [29371], "responses": ["ocean"], "type": "AUDIO_TEST", "trial_type": "audio-test", "trial_index": 2, "time_elapsed": 209160, "internal_node_id": "0.0-2.0"}}, {"uniqueid": "MTK0796:3PMBY0YE28A66Q45LABHK7NZEIK9C3", "current_trial": 3, "dateTime": 1512759650917, "trialdata": {"rt": [13389], "responses": ["crystal"], "type": "AUDIO_TEST", "trial_type": "audio-test", "trial_index": 3, "time_elapsed": 222554, "internal_node_id": "0.0-3.0"}}, {"uniqueid": "MTK0796:3PMBY0YE28A66Q45LABHK7NZEIK9C3", "current_trial": 4, "dateTime": 1512759655702, "trialdata": {"rt": [4782], "responses": ["spice"], "type": "AUDIO_TEST", "trial_type": "audio-test", "trial_index": 4, "time_elapsed": 227339, "internal_node_id": "0.0-4.0"}}, {"uniqueid": "MTK0796:3PMBY0YE28A66Q45LABHK7NZEIK9C3", "current_trial": 5, "dateTime": 1512759680419, "trialdata": {"rt": 23961, "responses": "{\"Q0\":\"8:30\",\"Q1\":\"6:30\",\"Q2\":\"5\\n5\"}", "type": "SLEEP_SURVEY", "trial_type": "survey-text", "trial_index": 5, "time_elapsed": 252056, "internal_node_id": "0.0-5.0"}}, {"uniqueid": "MTK0796:3PMBY0YE28A66Q45LABHK7NZEIK9C3", "current_trial": 6, "dateTime": 1512759682689, "trialdata": {"rt": 1267, "key_press": 40, "type": "INSTRUCTIONS", "trial_type": "text", "trial_index": 6, "time_elapsed": 254326, "internal_node_id": "0.0-6.0"}}, {"uniqueid": "MTK0796:3PMBY0YE28A66Q45LABHK7NZEIK9C3", "current_trial": 7, "dateTime": 1512759804601, "trialdata": {"rt": 121408, "key_press": 32, "type": "INSTRUCTIONS", "trial_type": "text", "trial_index": 7, "time_elapsed": 376237, "internal_node_id": "0.0-7.0"}}, {"uniqueid": "MTK0796:3PMBY0YE28A66Q45LABHK7NZEIK9C3", "current_trial": 8, "dateTime": 1512759814425, "trialdata": {"rt": 9322, "key_press": 13, "type": "INSTRUCTIONS", "trial_type": "text", "trial_index": 8, "time_elapsed": 386062, "internal_node_id": "0.0-8.0"}}, {"uniqueid": "MTK0796:3PMBY0YE28A66Q45LABHK7NZEIK9C3", "current_trial": 9, "dateTime": 1512759833436, "trialdata": {"rt": [7234, 12841, 15449, 17185], "responses": ["23", "13", "14", "10"], "num1": [6, 7, 5, 4, 4], "num2": [9, 1, 4, 5, 5], "num3": [8, 5, 5, 1, 2], "type": "DISTRACTOR", "conditions": [18, 1200, "a", 18000], "trial": 0, "trial_type": "math-distractor", "trial_index": 9, "time_elapsed": 405073, "internal_node_id": "0.0-9.0"}}, {"uniqueid": "MTK0796:3PMBY0YE28A66Q45LABHK7NZEIK9C3", "current_trial": 10, "dateTime": 1512759836438, "trialdata": {"rt": -1, "stimulus": "<p id=\"stim\">10</p>", "key_press": -1, "trial_type": "single-stim", "trial_index": 10, "time_elapsed": 408075, "internal_node_id": "0.0-10.0-0.0"}}, {"uniqueid": "MTK0796:3PMBY0YE28A66Q45LABHK7NZEIK9C3", "current_trial": 11, "dateTime": 1512759837440, "trialdata": {"rt": -1, "stimulus": "<p id=\"stim\">9</p>", "key_press": -1, "trial_type": "single-stim", "trial_index": 11, "time_elapsed": 409077, "internal_node_id": "0.0-10.0-1.0"}}, {"uniqueid": "MTK0796:3PMBY0YE28A66Q45LABHK7NZEIK9C3", "current_trial": 12, "dateTime": 1512759838442, "trialdata": {"rt": -1, "stimulus": "<p id=\"stim\">8</p>", "key_press": -1, "trial_type": "single-stim", "trial_index": 12, "time_elapsed": 410079, "internal_node_id": "0.0-10.0-2.0"}}, {"uniqueid": "MTK0796:3PMBY0YE28A66Q45LABHK7NZEIK9C3", "current_trial": 13, "dateTime": 1512759839446, "trialdata": {"rt": -1, "stimulus": "<p id=\"stim\">7</p>", "key_press": -1, "trial_type": "single-stim", "trial_index": 13, "time_elapsed": 411082, "internal_node_id": "0.0-10.0-3.0"}}, {"uniqueid": "MTK0796:3PMBY0YE28A66Q45LABHK7NZEIK9C3", "current_trial": 14, "dateTime": 1512759840448, "trialdata": {"rt": -1, "stimulus": "<p id=\"stim\">6</p>", "key_press": -1, "trial_type": "single-stim", "trial_index": 14, "time_elapsed": 412085, "internal_node_id": "0.0-10.0-4.0"}}, {"uniqueid": "MTK0796:3PMBY0YE28A66Q45LABHK7NZEIK9C3", "current_trial": 15, "dateTime": 1512759841463, "trialdata": {"rt": -1, "stimulus": "<p id=\"stim\">5</p>", "key_press": -1, "trial_type": "single-stim", "trial_index": 15, "time_elapsed": 413100, "internal_node_id": "0.0-10.0-5.0"}}, {"uniqueid": "MTK0796:3PMBY0YE28A66Q45LABHK7NZEIK9C3", "current_trial": 16, "dateTime": 1512759842467, "trialdata": {"rt": -1, "stimulus": "<p id=\"stim\">4</p>", "key_press": -1, "trial_type": "single-stim", "trial_index": 16, "time_elapsed": 414104, "internal_node_id": "0.0-10.0-6.0"}}, {"uniqueid": "MTK0796:3PMBY0YE28A66Q45LABHK7NZEIK9C3", "current_trial": 17, "dateTime": 1512759843471, "trialdata": {"rt": -1, "stimulus": "<p id=\"stim\">3</p>", "key_press": -1, "trial_type": "single-stim", "trial_index": 17, "time_elapsed": 415107, "internal_node_id": "0.0-10.0-7.0"}}, {"uniqueid": "MTK0796:3PMBY0YE28A66Q45LABHK7NZEIK9C3", "current_trial": 18, "dateTime": 1512759844473, "trialdata": {"rt": -1, "stimulus": "<p id=\"stim\">2</p>", "key_press": -1, "trial_type": "single-stim", "trial_index": 18, "time_elapsed": 416110, "internal_node_id": "0.0-10.0-8.0"}}, {"uniqueid": "MTK0796:3PMBY0YE28A66Q45LABHK7NZEIK9C3", "current_trial": 19, "dateTime": 1512759845476, "trialdata": {"rt": -1, "stimulus": "<p id=\"stim\">1</p>", "key_press": -1, "trial_type": "single-stim", "trial_index": 19, "time_elapsed": 417113, "internal_node_id": "0.0-10.0-9.0"}}, {"uniqueid": "MTK0796:3PMBY0YE28A66Q45LABHK7NZEIK9C3", "current_trial": 20, "dateTime": 1512759846978, "trialdata": {"rt": -1, "stimulus": "<p id=\"stim\">+</p>", "key_press": -1, "type": "FIXATION", "trial_type": "single-stim", "trial_index": 20, "time_elapsed": 418615, "internal_node_id": "0.0-11.0-0.0"}}, {"uniqueid": "MTK0796:3PMBY0YE28A66Q45LABHK7NZEIK9C3", "current_trial": 21, "dateTime": 1512759849142, "trialdata": {"rt": -1000, "stimulus": "/static/audio/wordpool/QUAIL.wav", "key_press": -1, "type": "PRES_AUD", "word": "quail", "wordID": 1146, "conditions": [18, 1200, "a", 18000], "trial": 0, "serialpos": 0, "trial_type": "single-audio", "trial_index": 21, "time_elapsed": 420779, "internal_node_id": "0.0-12.0"}}, {"uniqueid": "MTK0796:3PMBY0YE28A66Q45LABHK7NZEIK9C3", "current_trial": 22, "dateTime": 1512759851291, "trialdata": {"rt": -1000, "stimulus": "/static/audio/wordpool/POET.wav", "key_press": -1, "type": "PRES_AUD", "word": "poet", "wordID": 1094, "conditions": [18, 1200, "a", 18000], "trial": 0, "serialpos": 1, "trial_type": "single-audio", "trial_index": 22, "time_elapsed": 422928, "internal_node_id": "0.0-13.0"}}, {"uniqueid": "MTK0796:3PMBY0YE28A66Q45LABHK7NZEIK9C3", "current_trial": 23, "dateTime": 1512759853492, "trialdata": {"rt": -1000, "stimulus": "/static/audio/wordpool/TABLET.wav", "key_press": -1, "type": "PRES_AUD", "word": "tablet", "wordID": 1426, "conditions": [18, 1200, "a", 18000], "trial": 0, "serialpos": 2, "trial_type": "single-audio", "trial_index": 23, "time_elapsed": 425128, "internal_node_id": "0.0-14.0"}}, {"uniqueid": "MTK0796:3PMBY0YE28A66Q45LABHK7NZEIK9C3", "current_trial": 24, "dateTime": 1512759855683, "trialdata": {"rt": -1000, "stimulus": "/static/audio/wordpool/SUSPECT.wav", "key_press": -1, "type": "PRES_AUD", "word": "suspect", "wordID": 1414, "conditions": [18, 1200, "a", 18000], "trial": 0, "serialpos": 3, "trial_type": "single-audio", "trial_index": 24, "time_elapsed": 427320, "internal_node_id": "0.0-15.0"}}, {"uniqueid": "MTK0796:3PMBY0YE28A66Q45LABHK7NZEIK9C3", "current_trial": 25, "dateTime": 1512759857971, "trialdata": {"rt": -1000, "stimulus": "/static/audio/wordpool/SPACE.wav", "key_press": -1, "type": "PRES_AUD", "word": "space", "wordID": 1344, "conditions": [18, 1200, "a", 18000], "trial": 0, "serialpos": 4, "trial_type": "single-audio", "trial_index": 25, "time_elapsed": 429608, "internal_node_id": "0.0-16.0"}}, {"uniqueid": "MTK0796:3PMBY0YE28A66Q45LABHK7NZEIK9C3", "current_trial": 26, "dateTime": 1512759860099, "trialdata": {"rt": -1000, "stimulus": "/static/audio/wordpool/SADDLE.wav", "key_press": -1, "type": "PRES_AUD", "word": "saddle", "wordID": 1220, "conditions": [18, 1200, "a", 18000], "trial": 0, "serialpos": 5, "trial_type": "single-audio", "trial_index": 26, "time_elapsed": 431736, "internal_node_id": "0.0-17.0"}}, {"uniqueid": "MTK0796:3PMBY0YE28A66Q45LABHK7NZEIK9C3", "current_trial": 27, "dateTime": 1512759862114, "trialdata": {"rt": -1000, "stimulus": "/static/audio/wordpool/SISTER.wav", "key_press": -1, "type": "PRES_AUD", "word": "sister", "wordID": 1311, "conditions": [18, 1200, "a", 18000], "trial": 0, "serialpos": 6, "trial_type": "single-audio", "trial_index": 27, "time_elapsed": 433751, "internal_node_id": "0.0-18.0"}}, {"uniqueid": "MTK0796:3PMBY0YE28A66Q45LABHK7NZEIK9C3", "current_trial": 28, "dateTime": 1512759864299, "trialdata": {"rt": -1000, "stimulus": "/static/audio/wordpool/SHORTCAKE.wav", "key_press": -1, "type": "PRES_AUD", "word": "shortcake", "wordID": 1291, "conditions": [18, 1200, "a", 18000], "trial": 0, "serialpos": 7, "trial_type": "single-audio", "trial_index": 28, "time_elapsed": 435936, "internal_node_id": "0.0-19.0"}}, {"uniqueid": "MTK0796:3PMBY0YE28A66Q45LABHK7NZEIK9C3", "current_trial": 29, "dateTime": 1512759866589, "trialdata": {"rt": -1000, "stimulus": "/static/audio/wordpool/CHILD.wav", "key_press": -1, "type": "PRES_AUD", "word": "child", "wordID": 298, "conditions": [18, 1200, "a", 18000], "trial": 0, "serialpos": 8, "trial_type": "single-audio", "trial_index": 29, "time_elapsed": 438226, "internal_node_id": "0.0-20.0"}}, {"uniqueid": "MTK0796:3PMBY0YE28A66Q45LABHK7NZEIK9C3", "current_trial": 30, "dateTime": 1512759868614, "trialdata": {"rt": -1000, "stimulus": "/static/audio/wordpool/BACON.wav", "key_press": -1, "type": "PRES_AUD", "word": "bacon", "wordID": 66, "conditions": [18, 1200, "a", 18000], "trial": 0, "serialpos": 9, "trial_type": "single-audio", "trial_index": 30, "time_elapsed": 440251, "internal_node_id": "0.0-21.0"}}, {"uniqueid": "MTK0796:3PMBY0YE28A66Q45LABHK7NZEIK9C3", "current_trial": 31, "dateTime": 1512759870790, "trialdata": {"rt": -1000, "stimulus": "/static/audio/wordpool/DIME.wav", "key_press": -1, "type": "PRES_AUD", "word": "dime", "wordID": 465, "conditions": [18, 1200, "a", 18000], "trial": 0, "serialpos": 10, "trial_type": "single-audio", "trial_index": 31, "time_elapsed": 442427, "internal_node_id": "0.0-22.0"}}, {"uniqueid": "MTK0796:3PMBY0YE28A66Q45LABHK7NZEIK9C3", "current_trial": 32, "dateTime": 1512759872892, "trialdata": {"rt": -1000, "stimulus": "/static/audio/wordpool/MAMMAL.wav", "key_press": -1, "type": "PRES_AUD", "word": "mammal", "wordID": 860, "conditions": [18, 1200, "a", 18000], "trial": 0, "serialpos": 11, "trial_type": "single-audio", "trial_index": 32, "time_elapsed": 444529, "internal_node_id": "0.0-23.0"}}, {"uniqueid": "MTK0796:3PMBY0YE28A66Q45LABHK7NZEIK9C3", "current_trial": 33, "dateTime": 1512759874962, "trialdata": {"rt": -1000, "stimulus": "/static/audio/wordpool/REPORT.wav", "key_press": -1, "type": "PRES_AUD", "word": "report", "wordID": 1183, "conditions": [18, 1200, "a", 18000], "trial": 0, "serialpos": 12, "trial_type": "single-audio", "trial_index": 33, "time_elapsed": 446599, "internal_node_id": "0.0-24.0"}}, {"uniqueid": "MTK0796:3PMBY0YE28A66Q45LABHK7NZEIK9C3", "current_trial": 34, "dateTime": 1512759877086, "trialdata": {"rt": -1000, "stimulus": "/static/audio/wordpool/CASHEW.wav", "key_press": -1, "type": "PRES_AUD", "word": "cashew", "wordID": 252, "conditions": [18, 1200, "a", 18000], "trial": 0, "serialpos": 13, "trial_type": "single-audio", "trial_index": 34, "time_elapsed": 448723, "internal_node_id": "0.0-25.0"}}, {"uniqueid": "MTK0796:3PMBY0YE28A66Q45LABHK7NZEIK9C3", "current_trial": 35, "dateTime": 1512759879407, "trialdata": {"rt": -1000, "stimulus": "/static/audio/wordpool/BATHTUB.wav", "key_press": -1, "type": "PRES_AUD", "word": "bathtub", "wordID": 99, "conditions": [18, 1200, "a", 18000], "trial": 0, "serialpos": 14, "trial_type": "single-audio", "trial_index": 35, "time_elapsed": 451044, "internal_node_id": "0.0-26.0"}}, {"uniqueid": "MTK0796:3PMBY0YE28A66Q45LABHK7NZEIK9C3", "current_trial": 36, "dateTime": 1512759881650, "trialdata": {"rt": -1000, "stimulus": "/static/audio/wordpool/SCISSORS.wav", "key_press": -1, "type": "PRES_AUD", "word": "scissors", "wordID": 1249, "conditions": [18, 1200, "a", 18000], "trial": 0, "serialpos": 15, "trial_type": "single-audio", "trial_index": 36, "time_elapsed": 453287, "internal_node_id": "0.0-27.0"}}, {"uniqueid": "MTK0796:3PMBY0YE28A66Q45LABHK7NZEIK9C3", "current_trial": 37, "dateTime": 1512759883999, "trialdata": {"rt": -1000, "stimulus": "/static/audio/wordpool/SLIME.wav", "key_press": -1, "type": "PRES_AUD", "word": "slime", "wordID": 1326, "conditions": [18, 1200, "a", 18000], "trial": 0, "serialpos": 16, "trial_type": "single-audio", "trial_index": 37, "time_elapsed": 455636, "internal_node_id": "0.0-28.0"}}, {"uniqueid": "MTK0796:3PMBY0YE28A66Q45LABHK7NZEIK9C3", "current_trial": 38, "dateTime": 1512759886361, "trialdata": {"rt": -1000, "stimulus": "/static/audio/wordpool/GLOVE.wav", "key_press": -1, "type": "PRES_AUD", "word": "glove", "wordID": 641, "conditions": [18, 1200, "a", 18000], "trial": 0, "serialpos": 17, "trial_type": "single-audio", "trial_index": 38, "time_elapsed": 457998, "internal_node_id": "0.0-29.0"}}, {"uniqueid": "MTK0796:3PMBY0YE28A66Q45LABHK7NZEIK9C3", "current_trial": 39, "dateTime": 1512759887661, "trialdata": {"rt": -1, "stimulus": "", "key_press": -1, "type": "PRE_RECALL_DELAY", "trial_type": "single-stim", "trial_index": 39, "time_elapsed": 459298, "internal_node_id": "0.0-30.0-0.0"}}, {"uniqueid": "MTK0796:3PMBY0YE28A66Q45LABHK7NZEIK9C3", "current_trial": 40, "dateTime": 1512759888163, "trialdata": {"rt": -1000, "stimulus": "/static/audio/400Hz.wav", "key_press": -1, "type": "PRE_RECALL_ALERT", "trial_type": "single-audio", "trial_index": 40, "time_elapsed": 459800, "internal_node_id": "0.0-31.0"}}, {"uniqueid": "MTK0796:3PMBY0YE28A66Q45LABHK7NZEIK9C3", "current_trial": 41, "dateTime": 1512759948179, "trialdata": {"rt": [5639, 8869, 11031, 13356, 15277, 17698, 19085, 23013, 25129, 26794, 28759, 31013, 33384, 36432, 40658, 43288, 45179, 46632], "recwords": ["quel", "poet", "tablet", "suspect", "space", "saddle", "sister", "shortcake", "child", "bacon", "dime", "memo", "report", "cashew", "bathtub", "sissors", "slime", "glove"], "type": "FREE_RECALL", "conditions": [18, 1200, "a", 18000], "trial": 0, "trial_type": "free-recall", "trial_index": 41, "time_elapsed": 519812, "internal_node_id": "0.0-32.0-0.0"}}, {"uniqueid": "MTK0796:3PMBY0YE28A66Q45LABHK7NZEIK9C3", "current_trial": 42, "dateTime": 1512759953975, "trialdata": {"rt": 3794, "key_press": 32, "type": "INSTRUCTIONS", "trial_type": "text", "trial_index": 42, "time_elapsed": 525612, "internal_node_id": "0.0-33.0"}}, {"uniqueid": "MTK0796:3PMBY0YE28A66Q45LABHK7NZEIK9C3", "current_trial": 43, "dateTime": 1512759973981, "trialdata": {"rt": [2669, 5655, 7762, 10072, 12239, 14093], "responses": ["12", "11", "20", "14", "8", "10"], "num1": [2, 3, 7, 8, 2, 4, 4], "num2": [7, 1, 8, 2, 4, 4, 9], "num3": [3, 6, 5, 4, 2, 2, 5], "type": "DISTRACTOR", "conditions": [18, 1200, "v", 18000], "trial": 1, "trial_type": "math-distractor", "trial_index": 43, "time_elapsed": 545618, "internal_node_id": "0.0-34.0"}}, {"uniqueid": "MTK0796:3PMBY0YE28A66Q45LABHK7NZEIK9C3", "current_trial": 44, "dateTime": 1512759976984, "trialdata": {"rt": -1, "stimulus": "<p id=\"stim\">10</p>", "key_press": -1, "trial_type": "single-stim", "trial_index": 44, "time_elapsed": 548621, "internal_node_id": "0.0-35.0-0.0"}}, {"uniqueid": "MTK0796:3PMBY0YE28A66Q45LABHK7NZEIK9C3", "current_trial": 45, "dateTime": 1512759977986, "trialdata": {"rt": -1, "stimulus": "<p id=\"stim\">9</p>", "key_press": -1, "trial_type": "single-stim", "trial_index": 45, "time_elapsed": 549623, "internal_node_id": "0.0-35.0-1.0"}}, {"uniqueid": "MTK0796:3PMBY0YE28A66Q45LABHK7NZEIK9C3", "current_trial": 46, "dateTime": 1512759978988, "trialdata": {"rt": -1, "stimulus": "<p id=\"stim\">8</p>", "key_press": -1, "trial_type": "single-stim", "trial_index": 46, "time_elapsed": 550624, "internal_node_id": "0.0-35.0-2.0"}}, {"uniqueid": "MTK0796:3PMBY0YE28A66Q45LABHK7NZEIK9C3", "current_trial": 47, "dateTime": 1512759979989, "trialdata": {"rt": -1, "stimulus": "<p id=\"stim\">7</p>", "key_press": -1, "trial_type": "single-stim", "trial_index": 47, "time_elapsed": 551626, "internal_node_id": "0.0-35.0-3.0"}}, {"uniqueid": "MTK0796:3PMBY0YE28A66Q45LABHK7NZEIK9C3", "current_trial": 48, "dateTime": 1512759980991, "trialdata": {"rt": -1, "stimulus": "<p id=\"stim\">6</p>", "key_press": -1, "trial_type": "single-stim", "trial_index": 48, "time_elapsed": 552627, "internal_node_id": "0.0-35.0-4.0"}}, {"uniqueid": "MTK0796:3PMBY0YE28A66Q45LABHK7NZEIK9C3", "current_trial": 49, "dateTime": 1512759981993, "trialdata": {"rt": -1, "stimulus": "<p id=\"stim\">5</p>", "key_press": -1, "trial_type": "single-stim", "trial_index": 49, "time_elapsed": 553629, "internal_node_id": "0.0-35.0-5.0"}}, {"uniqueid": "MTK0796:3PMBY0YE28A66Q45LABHK7NZEIK9C3", "current_trial": 50, "dateTime": 1512759982995, "trialdata": {"rt": -1, "stimulus": "<p id=\"stim\">4</p>", "key_press": -1, "trial_type": "single-stim", "trial_index": 50, "time_elapsed": 554632, "internal_node_id": "0.0-35.0-6.0"}}, {"uniqueid": "MTK0796:3PMBY0YE28A66Q45LABHK7NZEIK9C3", "current_trial": 51, "dateTime": 1512759983998, "trialdata": {"rt": -1, "stimulus": "<p id=\"stim\">3</p>", "key_press": -1, "trial_type": "single-stim", "trial_index": 51, "time_elapsed": 555635, "internal_node_id": "0.0-35.0-7.0"}}, {"uniqueid": "MTK0796:3PMBY0YE28A66Q45LABHK7NZEIK9C3", "current_trial": 52, "dateTime": 1512759984999, "trialdata": {"rt": -1, "stimulus": "<p id=\"stim\">2</p>", "key_press": -1, "trial_type": "single-stim", "trial_index": 52, "time_elapsed": 556636, "internal_node_id": "0.0-35.0-8.0"}}, {"uniqueid": "MTK0796:3PMBY0YE28A66Q45LABHK7NZEIK9C3", "current_trial": 53, "dateTime": 1512759986002, "trialdata": {"rt": -1, "stimulus": "<p id=\"stim\">1</p>", "key_press": -1, "trial_type": "single-stim", "trial_index": 53, "time_elapsed": 557639, "internal_node_id": "0.0-35.0-9.0"}}, {"uniqueid": "MTK0796:3PMBY0YE28A66Q45LABHK7NZEIK9C3", "current_trial": 54, "dateTime": 1512759987504, "trialdata": {"rt": -1, "stimulus": "<p id=\"stim\">+</p>", "key_press": -1, "type": "FIXATION", "trial_type": "single-stim", "trial_index": 54, "time_elapsed": 559141, "internal_node_id": "0.0-36.0-0.0"}}, {"uniqueid": "MTK0796:3PMBY0YE28A66Q45LABHK7NZEIK9C3", "current_trial": 55, "dateTime": 1512759988707, "trialdata": {"rt": -1, "stimulus": "<p id=\"stim\">QUARTER</p>", "key_press": -1, "type": "PRES_VIS", "word": "quarter", "wordID": 1147, "conditions": [18, 1200, "v", 18000], "trial": 1, "serialpos": 0, "trial_type": "single-stim", "trial_index": 55, "time_elapsed": 560344, "internal_node_id": "0.0-37.0"}}, {"uniqueid": "MTK0796:3PMBY0YE28A66Q45LABHK7NZEIK9C3", "current_trial": 56, "dateTime": 1512759990772, "trialdata": {"rt": -1, "stimulus": "<p id=\"stim\">CARROT</p>", "key_press": -1, "type": "PRES_VIS", "word": "carrot", "wordID": 248, "conditions": [18, 1200, "v", 18000], "trial": 1, "serialpos": 1, "trial_type": "single-stim", "trial_index": 56, "time_elapsed": 562409, "internal_node_id": "0.0-38.0"}}, {"uniqueid": "MTK0796:3PMBY0YE28A66Q45LABHK7NZEIK9C3", "current_trial": 57, "dateTime": 1512759993093, "trialdata": {"rt": -1, "stimulus": "<p id=\"stim\">WAGON</p>", "key_press": -1, "type": "PRES_VIS", "word": "wagon", "wordID": 1577, "conditions": [18, 1200, "v", 18000], "trial": 1, "serialpos": 2, "trial_type": "single-stim", "trial_index": 57, "time_elapsed": 564730, "internal_node_id": "0.0-39.0"}}, {"uniqueid": "MTK0796:3PMBY0YE28A66Q45LABHK7NZEIK9C3", "current_trial": 58, "dateTime": 1512759995468, "trialdata": {"rt": -1, "stimulus": "<p id=\"stim\">FOOT</p>", "key_press": -1, "type": "PRES_VIS", "word": "foot", "wordID": 589, "conditions": [18, 1200, "v", 18000], "trial": 1, "serialpos": 3, "trial_type": "single-stim", "trial_index": 58, "time_elapsed": 567104, "internal_node_id": "0.0-40.0"}}, {"uniqueid": "MTK0796:3PMBY0YE28A66Q45LABHK7NZEIK9C3", "current_trial": 59, "dateTime": 1512759997593, "trialdata": {"rt": -1, "stimulus": "<p id=\"stim\">PLAID</p>", "key_press": -1, "type": "PRES_VIS", "word": "plaid", "wordID": 1079, "conditions": [18, 1200, "v", 18000], "trial": 1, "serialpos": 4, "trial_type": "single-stim", "trial_index": 59, "time_elapsed": 569230, "internal_node_id": "0.0-41.0"}}, {"uniqueid": "MTK0796:3PMBY0YE28A66Q45LABHK7NZEIK9C3", "current_trial": 60, "dateTime": 1512759999880, "trialdata": {"rt": -1, "stimulus": "<p id=\"stim\">HORNET</p>", "key_press": -1, "type": "PRES_VIS", "word": "hornet", "wordID": 717, "conditions": [18, 1200, "v", 18000], "trial": 1, "serialpos": 5, "trial_type": "single-stim", "trial_index": 60, "time_elapsed": 571517, "internal_node_id": "0.0-42.0"}}, {"uniqueid": "MTK0796:3PMBY0YE28A66Q45LABHK7NZEIK9C3", "current_trial": 61, "dateTime": 1512760002160, "trialdata": {"rt": -1, "stimulus": "<p id=\"stim\">BLOUSE</p>", "key_press": -1, "type": "PRES_VIS", "word": "blouse", "wordID": 138, "conditions": [18, 1200, "v", 18000], "trial": 1, "serialpos": 6, "trial_type": "single-stim", "trial_index": 61, "time_elapsed": 573796, "internal_node_id": "0.0-43.0"}}, {"uniqueid": "MTK0796:3PMBY0YE28A66Q45LABHK7NZEIK9C3", "current_trial": 62, "dateTime": 1512760004230, "trialdata": {"rt": -1, "stimulus": "<p id=\"stim\">TOASTER</p>", "key_press": -1, "type": "PRES_VIS", "word": "toaster", "wordID": 1471, "conditions": [18, 1200, "v", 18000], "trial": 1, "serialpos": 7, "trial_type": "single-stim", "trial_index": 62, "time_elapsed": 575867, "internal_node_id": "0.0-44.0"}}, {"uniqueid": "MTK0796:3PMBY0YE28A66Q45LABHK7NZEIK9C3", "current_trial": 63, "dateTime": 1512760006368, "trialdata": {"rt": -1, "stimulus": "<p id=\"stim\">CAMEL</p>", "key_press": -1, "type": "PRES_VIS", "word": "camel", "wordID": 222, "conditions": [18, 1200, "v", 18000], "trial": 1, "serialpos": 8, "trial_type": "single-stim", "trial_index": 63, "time_elapsed": 578004, "internal_node_id": "0.0-45.0"}}, {"uniqueid": "MTK0796:3PMBY0YE28A66Q45LABHK7NZEIK9C3", "current_trial": 64, "dateTime": 1512760008568, "trialdata": {"rt": -1, "stimulus": "<p id=\"stim\">RIVER</p>", "key_press": -1, "type": "PRES_VIS", "word": "river", "wordID": 1193, "conditions": [18, 1200, "v", 18000], "trial": 1, "serialpos": 9, "trial_type": "single-stim", "trial_index": 64, "time_elapsed": 580205, "internal_node_id": "0.0-46.0"}}, {"uniqueid": "MTK0796:3PMBY0YE28A66Q45LABHK7NZEIK9C3", "current_trial": 65, "dateTime": 1512760010912, "trialdata": {"rt": -1, "stimulus": "<p id=\"stim\">COLLEGE</p>", "key_press": -1, "type": "PRES_VIS", "word": "college", "wordID": 345, "conditions": [18, 1200, "v", 18000], "trial": 1, "serialpos": 10, "trial_type": "single-stim", "trial_index": 65, "time_elapsed": 582549, "internal_node_id": "0.0-47.0"}}, {"uniqueid": "MTK0796:3PMBY0YE28A66Q45LABHK7NZEIK9C3", "current_trial": 66, "dateTime": 1512760013037, "trialdata": {"rt": -1, "stimulus": "<p id=\"stim\">MAPLE</p>", "key_press": -1, "type": "PRES_VIS", "word": "maple", "wordID": 865, "conditions": [18, 1200, "v", 18000], "trial": 1, "serialpos": 11, "trial_type": "single-stim", "trial_index": 66, "time_elapsed": 584673, "internal_node_id": "0.0-48.0"}}, {"uniqueid": "MTK0796:3PMBY0YE28A66Q45LABHK7NZEIK9C3", "current_trial": 67, "dateTime": 1512760015375, "trialdata": {"rt": -1, "stimulus": "<p id=\"stim\">HARP</p>", "key_press": -1, "type": "PRES_VIS", "word": "harp", "wordID": 688, "conditions": [18, 1200, "v", 18000], "trial": 1, "serialpos": 12, "trial_type": "single-stim", "trial_index": 67, "time_elapsed": 587012, "internal_node_id": "0.0-49.0"}}, {"uniqueid": "MTK0796:3PMBY0YE28A66Q45LABHK7NZEIK9C3", "current_trial": 68, "dateTime": 1512760017718, "trialdata": {"rt": -1, "stimulus": "<p id=\"stim\">BACKBONE</p>", "key_press": -1, "type": "PRES_VIS", "word": "backbone", "wordID": 65, "conditions": [18, 1200, "v", 18000], "trial": 1, "serialpos": 13, "trial_type": "single-stim", "trial_index": 68, "time_elapsed": 589352, "internal_node_id": "0.0-50.0"}}, {"uniqueid": "MTK0796:3PMBY0YE28A66Q45LABHK7NZEIK9C3", "current_trial": 69, "dateTime": 1512760019960, "trialdata": {"rt": -1, "stimulus": "<p id=\"stim\">JAPAN</p>", "key_press": -1, "type": "PRES_VIS", "word": "japan", "wordID": 748, "conditions": [18, 1200, "v", 18000], "trial": 1, "serialpos": 14, "trial_type": "single-stim", "trial_index": 69, "time_elapsed": 591597, "internal_node_id": "0.0-51.0"}}, {"uniqueid": "MTK0796:3PMBY0YE28A66Q45LABHK7NZEIK9C3", "current_trial": 70, "dateTime": 1512760022253, "trialdata": {"rt": -1, "stimulus": "<p id=\"stim\">BANQUET</p>", "key_press": -1, "type": "PRES_VIS", "word": "banquet", "wordID": 85, "conditions": [18, 1200, "v", 18000], "trial": 1, "serialpos": 15, "trial_type": "single-stim", "trial_index": 70, "time_elapsed": 593890, "internal_node_id": "0.0-52.0"}}, {"uniqueid": "MTK0796:3PMBY0YE28A66Q45LABHK7NZEIK9C3", "current_trial": 71, "dateTime": 1512760024443, "trialdata": {"rt": -1, "stimulus": "<p id=\"stim\">AWARD</p>", "key_press": -1, "type": "PRES_VIS", "word": "award", "wordID": 62, "conditions": [18, 1200, "v", 18000], "trial": 1, "serialpos": 16, "trial_type": "single-stim", "trial_index": 71, "time_elapsed": 596080, "internal_node_id": "0.0-53.0"}}, {"uniqueid": "MTK0796:3PMBY0YE28A66Q45LABHK7NZEIK9C3", "current_trial": 72, "dateTime": 1512760026515, "trialdata": {"rt": -1, "stimulus": "<p id=\"stim\">LIZARD</p>", "key_press": -1, "type": "PRES_VIS", "word": "lizard", "wordID": 833, "conditions": [18, 1200, "v", 18000], "trial": 1, "serialpos": 17, "trial_type": "single-stim", "trial_index": 72, "time_elapsed": 598152, "internal_node_id": "0.0-54.0"}}, {"uniqueid": "MTK0796:3PMBY0YE28A66Q45LABHK7NZEIK9C3", "current_trial": 73, "dateTime": 1512760028852, "trialdata": {"rt": -1, "stimulus": "", "key_press": -1, "type": "PRE_RECALL_DELAY", "trial_type": "single-stim", "trial_index": 73, "time_elapsed": 600489, "internal_node_id": "0.0-55.0-0.0"}}, {"uniqueid": "MTK0796:3PMBY0YE28A66Q45LABHK7NZEIK9C3", "current_trial": 74, "dateTime": 1512760029354, "trialdata": {"rt": -1000, "stimulus": "/static/audio/400Hz.wav", "key_press": -1, "type": "PRE_RECALL_ALERT", "trial_type": "single-audio", "trial_index": 74, "time_elapsed": 600991, "internal_node_id": "0.0-56.0"}}, {"uniqueid": "MTK0796:3PMBY0YE28A66Q45LABHK7NZEIK9C3", "current_trial": 75, "dateTime": 1512760089364, "trialdata": {"rt": [5187, 7630, 9624, 13123, 18613, 21065, 22414, 27372, 31314, 33494, 34869, 36048, 37176, 40876, 46448, 48461, 51961, 54075], "recwords": ["quarter", "carrot", "wagon", "foot", "plaid", "hornet", "blouse", "toaster", "camel", "river", "college", "maple", "harp", "backbone", "japen", "banquet", "reward", "lizard"], "type": "FREE_RECALL", "conditions": [18, 1200, "v", 18000], "trial": 1, "trial_type": "free-recall", "trial_index": 75, "time_elapsed": 660995, "internal_node_id": "0.0-57.0-0.0"}}, {"uniqueid": "MTK0796:3PMBY0YE28A66Q45LABHK7NZEIK9C3", "current_trial": 76, "dateTime": 1512760103700, "trialdata": {"rt": 12325, "key_press": 32, "type": "INSTRUCTIONS", "trial_type": "text", "trial_index": 76, "time_elapsed": 675328, "internal_node_id": "0.0-58.0"}}, {"uniqueid": "MTK0796:3PMBY0YE28A66Q45LABHK7NZEIK9C3", "current_trial": 77, "dateTime": 1512760128704, "trialdata": {"rt": [6702, 8657, 11538, 14163, 17638, 19768], "responses": ["21", "8", "11", "20", "16", "15"], "num1": [5, 2, 4, 7, 4, 4, 8], "num2": [7, 5, 3, 4, 9, 3, 6], "num3": [9, 1, 4, 9, 2, 8, 5], "type": "DISTRACTOR", "conditions": [24, 1600, "a", 24000], "trial": 2, "trial_type": "math-distractor", "trial_index": 77, "time_elapsed": 700341, "internal_node_id": "0.0-59.0"}}, {"uniqueid": "MTK0796:3PMBY0YE28A66Q45LABHK7NZEIK9C3", "current_trial": 78, "dateTime": 1512760131708, "trialdata": {"rt": -1, "stimulus": "<p id=\"stim\">10</p>", "key_press": -1, "trial_type": "single-stim", "trial_index": 78, "time_elapsed": 703345, "internal_node_id": "0.0-60.0-0.0"}}, {"uniqueid": "MTK0796:3PMBY0YE28A66Q45LABHK7NZEIK9C3", "current_trial": 79, "dateTime": 1512760132710, "trialdata": {"rt": -1, "stimulus": "<p id=\"stim\">9</p>", "key_press": -1, "trial_type": "single-stim", "trial_index": 79, "time_elapsed": 704347, "internal_node_id": "0.0-60.0-1.0"}}, {"uniqueid": "MTK0796:3PMBY0YE28A66Q45LABHK7NZEIK9C3", "current_trial": 80, "dateTime": 1512760133712, "trialdata": {"rt": -1, "stimulus": "<p id=\"stim\">8</p>", "key_press": -1, "trial_type": "single-stim", "trial_index": 80, "time_elapsed": 705349, "internal_node_id": "0.0-60.0-2.0"}}, {"uniqueid": "MTK0796:3PMBY0YE28A66Q45LABHK7NZEIK9C3", "current_trial": 81, "dateTime": 1512760134714, "trialdata": {"rt": -1, "stimulus": "<p id=\"stim\">7</p>", "key_press": -1, "trial_type": "single-stim", "trial_index": 81, "time_elapsed": 706351, "internal_node_id": "0.0-60.0-3.0"}}, {"uniqueid": "MTK0796:3PMBY0YE28A66Q45LABHK7NZEIK9C3", "current_trial": 82, "dateTime": 1512760135717, "trialdata": {"rt": -1, "stimulus": "<p id=\"stim\">6</p>", "key_press": -1, "trial_type": "single-stim", "trial_index": 82, "time_elapsed": 707354, "internal_node_id": "0.0-60.0-4.0"}}, {"uniqueid": "MTK0796:3PMBY0YE28A66Q45LABHK7NZEIK9C3", "current_trial": 83, "dateTime": 1512760136719, "trialdata": {"rt": -1, "stimulus": "<p id=\"stim\">5</p>", "key_press": -1, "trial_type": "single-stim", "trial_index": 83, "time_elapsed": 708356, "internal_node_id": "0.0-60.0-5.0"}}, {"uniqueid": "MTK0796:3PMBY0YE28A66Q45LABHK7NZEIK9C3", "current_trial": 84, "dateTime": 1512760137721, "trialdata": {"rt": -1, "stimulus": "<p id=\"stim\">4</p>", "key_press": -1, "trial_type": "single-stim", "trial_index": 84, "time_elapsed": 709358, "internal_node_id": "0.0-60.0-6.0"}}, {"uniqueid": "MTK0796:3PMBY0YE28A66Q45LABHK7NZEIK9C3", "current_trial": 85, "dateTime": 1512760138722, "trialdata": {"rt": -1, "stimulus": "<p id=\"stim\">3</p>", "key_press": -1, "trial_type": "single-stim", "trial_index": 85, "time_elapsed": 710359, "internal_node_id": "0.0-60.0-7.0"}}, {"uniqueid": "MTK0796:3PMBY0YE28A66Q45LABHK7NZEIK9C3", "current_trial": 86, "dateTime": 1512760139725, "trialdata": {"rt": -1, "stimulus": "<p id=\"stim\">2</p>", "key_press": -1, "trial_type": "single-stim", "trial_index": 86, "time_elapsed": 711362, "internal_node_id": "0.0-60.0-8.0"}}, {"uniqueid": "MTK0796:3PMBY0YE28A66Q45LABHK7NZEIK9C3", "current_trial": 87, "dateTime": 1512760140728, "trialdata": {"rt": -1, "stimulus": "<p id=\"stim\">1</p>", "key_press": -1, "trial_type": "single-stim", "trial_index": 87, "time_elapsed": 712365, "internal_node_id": "0.0-60.0-9.0"}}, {"uniqueid": "MTK0796:3PMBY0YE28A66Q45LABHK7NZEIK9C3", "current_trial": 88, "dateTime": 1512760142231, "trialdata": {"rt": -1, "stimulus": "<p id=\"stim\">+</p>", "key_press": -1, "type": "FIXATION", "trial_type": "single-stim", "trial_index": 88, "time_elapsed": 713868, "internal_node_id": "0.0-61.0-0.0"}}, {"uniqueid": "MTK0796:3PMBY0YE28A66Q45LABHK7NZEIK9C3", "current_trial": 89, "dateTime": 1512760144918, "trialdata": {"rt": -1000, "stimulus": "/static/audio/wordpool/GARLIC.wav", "key_press": -1, "type": "PRES_AUD", "word": "garlic", "wordID": 623, "conditions": [24, 1600, "a", 24000], "trial": 2, "serialpos": 0, "trial_type": "single-audio", "trial_index": 89, "time_elapsed": 716555, "internal_node_id": "0.0-62.0"}}, {"uniqueid": "MTK0796:3PMBY0YE28A66Q45LABHK7NZEIK9C3", "current_trial": 90, "dateTime": 1512760147384, "trialdata": {"rt": -1000, "stimulus": "/static/audio/wordpool/CHEST.wav", "key_press": -1, "type": "PRES_AUD", "word": "chest", "wordID": 294, "conditions": [24, 1600, "a", 24000], "trial": 2, "serialpos": 1, "trial_type": "single-audio", "trial_index": 90, "time_elapsed": 719020, "internal_node_id": "0.0-63.0"}}, {"uniqueid": "MTK0796:3PMBY0YE28A66Q45LABHK7NZEIK9C3", "current_trial": 91, "dateTime": 1512760149811, "trialdata": {"rt": -1000, "stimulus": "/static/audio/wordpool/ROD.wav", "key_press": -1, "type": "PRES_AUD", "word": "rod", "wordID": 1202, "conditions": [24, 1600, "a", 24000], "trial": 2, "serialpos": 2, "trial_type": "single-audio", "trial_index": 91, "time_elapsed": 721448, "internal_node_id": "0.0-64.0"}}, {"uniqueid": "MTK0796:3PMBY0YE28A66Q45LABHK7NZEIK9C3", "current_trial": 92, "dateTime": 1512760152498, "trialdata": {"rt": -1000, "stimulus": "/static/audio/wordpool/PIGEON.wav", "key_press": -1, "type": "PRES_AUD", "word": "pigeon", "wordID": 1064, "conditions": [24, 1600, "a", 24000], "trial": 2, "serialpos": 3, "trial_type": "single-audio", "trial_index": 92, "time_elapsed": 724135, "internal_node_id": "0.0-65.0"}}, {"uniqueid": "MTK0796:3PMBY0YE28A66Q45LABHK7NZEIK9C3", "current_trial": 93, "dateTime": 1512760155230, "trialdata": {"rt": -1000, "stimulus": "/static/audio/wordpool/CABBAGE.wav", "key_press": -1, "type": "PRES_AUD", "word": "cabbage", "wordID": 209, "conditions": [24, 1600, "a", 24000], "trial": 2, "serialpos": 4, "trial_type": "single-audio", "trial_index": 93, "time_elapsed": 726867, "internal_node_id": "0.0-66.0"}}, {"uniqueid": "MTK0796:3PMBY0YE28A66Q45LABHK7NZEIK9C3", "current_trial": 94, "dateTime": 1512760157941, "trialdata": {"rt": -1000, "stimulus": "/static/audio/wordpool/CROWN.wav", "key_press": -1, "type": "PRES_AUD", "word": "crown", "wordID": 414, "conditions": [24, 1600, "a", 24000], "trial": 2, "serialpos": 5, "trial_type": "single-audio", "trial_index": 94, "time_elapsed": 729578, "internal_node_id": "0.0-67.0"}}, {"uniqueid": "MTK0796:3PMBY0YE28A66Q45LABHK7NZEIK9C3", "current_trial": 95, "dateTime": 1512760160562, "trialdata": {"rt": -1000, "stimulus": "/static/audio/wordpool/NEUTRON.wav", "key_press": -1, "type": "PRES_AUD", "word": "neutron", "wordID": 946, "conditions": [24, 1600, "a", 24000], "trial": 2, "serialpos": 6, "trial_type": "single-audio", "trial_index": 95, "time_elapsed": 732199, "internal_node_id": "0.0-68.0"}}, {"uniqueid": "MTK0796:3PMBY0YE28A66Q45LABHK7NZEIK9C3", "current_trial": 96, "dateTime": 1512760163055, "trialdata": {"rt": -1000, "stimulus": "/static/audio/wordpool/CHURCH.wav", "key_press": -1, "type": "PRES_AUD", "word": "church", "wordID": 306, "conditions": [24, 1600, "a", 24000], "trial": 2, "serialpos": 7, "trial_type": "single-audio", "trial_index": 96, "time_elapsed": 734692, "internal_node_id": "0.0-69.0"}}, {"uniqueid": "MTK0796:3PMBY0YE28A66Q45LABHK7NZEIK9C3", "current_trial": 97, "dateTime": 1512760165596, "trialdata": {"rt": -1000, "stimulus": "/static/audio/wordpool/CHAPEL.wav", "key_press": -1, "type": "PRES_AUD", "word": "chapel", "wordID": 279, "conditions": [24, 1600, "a", 24000], "trial": 2, "serialpos": 8, "trial_type": "single-audio", "trial_index": 97, "time_elapsed": 737233, "internal_node_id": "0.0-70.0"}}, {"uniqueid": "MTK0796:3PMBY0YE28A66Q45LABHK7NZEIK9C3", "current_trial": 98, "dateTime": 1512760168206, "trialdata": {"rt": -1000, "stimulus": "/static/audio/wordpool/RECORD.wav", "key_press": -1, "type": "PRES_AUD", "word": "record", "wordID": 1175, "conditions": [24, 1600, "a", 24000], "trial": 2, "serialpos": 9, "trial_type": "single-audio", "trial_index": 98, "time_elapsed": 739842, "internal_node_id": "0.0-71.0"}}, {"uniqueid": "MTK0796:3PMBY0YE28A66Q45LABHK7NZEIK9C3", "current_trial": 99, "dateTime": 1512760170712, "trialdata": {"rt": -1000, "stimulus": "/static/audio/wordpool/SWORD.wav", "key_press": -1, "type": "PRES_AUD", "word": "sword", "wordID": 1422, "conditions": [24, 1600, "a", 24000], "trial": 2, "serialpos": 10, "trial_type": "single-audio", "trial_index": 99, "time_elapsed": 742349, "internal_node_id": "0.0-72.0"}}, {"uniqueid": "MTK0796:3PMBY0YE28A66Q45LABHK7NZEIK9C3", "current_trial": 100, "dateTime": 1512760173331, "trialdata": {"rt": -1000, "stimulus": "/static/audio/wordpool/UMPIRE.wav", "key_press": -1, "type": "PRES_AUD", "word": "umpire", "wordID": 1534, "conditions": [24, 1600, "a", 24000], "trial": 2, "serialpos": 11, "trial_type": "single-audio", "trial_index": 100, "time_elapsed": 744968, "internal_node_id": "0.0-73.0"}}, {"uniqueid": "MTK0796:3PMBY0YE28A66Q45LABHK7NZEIK9C3", "current_trial": 101, "dateTime": 1512760175955, "trialdata": {"rt": -1000, "stimulus": "/static/audio/wordpool/LOVER.wav", "key_press": -1, "type": "PRES_AUD", "word": "lover", "wordID": 845, "conditions": [24, 1600, "a", 24000], "trial": 2, "serialpos": 12, "trial_type": "single-audio", "trial_index": 101, "time_elapsed": 747592, "internal_node_id": "0.0-74.0"}}, {"uniqueid": "MTK0796:3PMBY0YE28A66Q45LABHK7NZEIK9C3", "current_trial": 102, "dateTime": 1512760178710, "trialdata": {"rt": -1000, "stimulus": "/static/audio/wordpool/BOYFRIEND.wav", "key_press": -1, "type": "PRES_AUD", "word": "boyfriend", "wordID": 161, "conditions": [24, 1600, "a", 24000], "trial": 2, "serialpos": 13, "trial_type": "single-audio", "trial_index": 102, "time_elapsed": 750347, "internal_node_id": "0.0-75.0"}}, {"uniqueid": "MTK0796:3PMBY0YE28A66Q45LABHK7NZEIK9C3", "current_trial": 103, "dateTime": 1512760181164, "trialdata": {"rt": -1000, "stimulus": "/static/audio/wordpool/ACTOR.wav", "key_press": -1, "type": "PRES_AUD", "word": "actor", "wordID": 4, "conditions": [24, 1600, "a", 24000], "trial": 2, "serialpos": 14, "trial_type": "single-audio", "trial_index": 103, "time_elapsed": 752800, "internal_node_id": "0.0-76.0"}}, {"uniqueid": "MTK0796:3PMBY0YE28A66Q45LABHK7NZEIK9C3", "current_trial": 104, "dateTime": 1512760183827, "trialdata": {"rt": -1000, "stimulus": "/static/audio/wordpool/PARSLEY.wav", "key_press": -1, "type": "PRES_AUD", "word": "parsley", "wordID": 1015, "conditions": [24, 1600, "a", 24000], "trial": 2, "serialpos": 15, "trial_type": "single-audio", "trial_index": 104, "time_elapsed": 755464, "internal_node_id": "0.0-77.0"}}, {"uniqueid": "MTK0796:3PMBY0YE28A66Q45LABHK7NZEIK9C3", "current_trial": 105, "dateTime": 1512760186436, "trialdata": {"rt": -1000, "stimulus": "/static/audio/wordpool/CASKET.wav", "key_press": -1, "type": "PRES_AUD", "word": "casket", "wordID": 254, "conditions": [24, 1600, "a", 24000], "trial": 2, "serialpos": 16, "trial_type": "single-audio", "trial_index": 105, "time_elapsed": 758072, "internal_node_id": "0.0-78.0"}}, {"uniqueid": "MTK0796:3PMBY0YE28A66Q45LABHK7NZEIK9C3", "current_trial": 106, "dateTime": 1512760189194, "trialdata": {"rt": -1000, "stimulus": "/static/audio/wordpool/FRIEND.wav", "key_press": -1, "type": "PRES_AUD", "word": "friend", "wordID": 605, "conditions": [24, 1600, "a", 24000], "trial": 2, "serialpos": 17, "trial_type": "single-audio", "trial_index": 106, "time_elapsed": 760830, "internal_node_id": "0.0-79.0"}}, {"uniqueid": "MTK0796:3PMBY0YE28A66Q45LABHK7NZEIK9C3", "current_trial": 107, "dateTime": 1512760191843, "trialdata": {"rt": -1000, "stimulus": "/static/audio/wordpool/GANGSTER.wav", "key_press": -1, "type": "PRES_AUD", "word": "gangster", "wordID": 619, "conditions": [24, 1600, "a", 24000], "trial": 2, "serialpos": 18, "trial_type": "single-audio", "trial_index": 107, "time_elapsed": 763480, "internal_node_id": "0.0-80.0"}}, {"uniqueid": "MTK0796:3PMBY0YE28A66Q45LABHK7NZEIK9C3", "current_trial": 108, "dateTime": 1512760194250, "trialdata": {"rt": -1000, "stimulus": "/static/audio/wordpool/TOMBSTONE.wav", "key_press": -1, "type": "PRES_AUD", "word": "tombstone", "wordID": 1477, "conditions": [24, 1600, "a", 24000], "trial": 2, "serialpos": 19, "trial_type": "single-audio", "trial_index": 108, "time_elapsed": 765887, "internal_node_id": "0.0-81.0"}}, {"uniqueid": "MTK0796:3PMBY0YE28A66Q45LABHK7NZEIK9C3", "current_trial": 109, "dateTime": 1512760196994, "trialdata": {"rt": -1000, "stimulus": "/static/audio/wordpool/STALLION.wav", "key_press": -1, "type": "PRES_AUD", "word": "stallion", "wordID": 1368, "conditions": [24, 1600, "a", 24000], "trial": 2, "serialpos": 20, "trial_type": "single-audio", "trial_index": 109, "time_elapsed": 768631, "internal_node_id": "0.0-82.0"}}, {"uniqueid": "MTK0796:3PMBY0YE28A66Q45LABHK7NZEIK9C3", "current_trial": 110, "dateTime": 1512760199488, "trialdata": {"rt": -1000, "stimulus": "/static/audio/wordpool/HAWK.wav", "key_press": -1, "type": "PRES_AUD", "word": "hawk", "wordID": 691, "conditions": [24, 1600, "a", 24000], "trial": 2, "serialpos": 21, "trial_type": "single-audio", "trial_index": 110, "time_elapsed": 771124, "internal_node_id": "0.0-83.0"}}, {"uniqueid": "MTK0796:3PMBY0YE28A66Q45LABHK7NZEIK9C3", "current_trial": 111, "dateTime": 1512760201950, "trialdata": {"rt": -1000, "stimulus": "/static/audio/wordpool/TRANSPLANT.wav", "key_press": -1, "type": "PRES_AUD", "word": "transplant", "wordID": 1495, "conditions": [24, 1600, "a", 24000], "trial": 2, "serialpos": 22, "trial_type": "single-audio", "trial_index": 111, "time_elapsed": 773586, "internal_node_id": "0.0-84.0"}}, {"uniqueid": "MTK0796:3PMBY0YE28A66Q45LABHK7NZEIK9C3", "current_trial": 112, "dateTime": 1512760204481, "trialdata": {"rt": -1000, "stimulus": "/static/audio/wordpool/VALVE.wav", "key_press": -1, "type": "PRES_AUD", "word": "valve", "wordID": 1545, "conditions": [24, 1600, "a", 24000], "trial": 2, "serialpos": 23, "trial_type": "single-audio", "trial_index": 112, "time_elapsed": 776118, "internal_node_id": "0.0-85.0"}}, {"uniqueid": "MTK0796:3PMBY0YE28A66Q45LABHK7NZEIK9C3", "current_trial": 113, "dateTime": 1512760205691, "trialdata": {"rt": -1, "stimulus": "", "key_press": -1, "type": "PRE_RECALL_DELAY", "trial_type": "single-stim", "trial_index": 113, "time_elapsed": 777328, "internal_node_id": "0.0-86.0-0.0"}}, {"uniqueid": "MTK0796:3PMBY0YE28A66Q45LABHK7NZEIK9C3", "current_trial": 114, "dateTime": 1512760206193, "trialdata": {"rt": -1000, "stimulus": "/static/audio/400Hz.wav", "key_press": -1, "type": "PRE_RECALL_ALERT", "trial_type": "single-audio", "trial_index": 114, "time_elapsed": 777830, "internal_node_id": "0.0-87.0"}}, {"uniqueid": "MTK0796:3PMBY0YE28A66Q45LABHK7NZEIK9C3", "current_trial": 115, "dateTime": 1512760266199, "trialdata": {"rt": [4242, 4834, 8434, 9470, 11431, 13668, 16397, 18158, 20551, 23074, 27650, 30230, 33955, 36225, 40401, 42987, 45215, 48300, 53098, 56294, 58092], "recwords": ["garlic", "", "garlic", "chest", "rof", "rod", "pigeon", "cabbage", "crown", "cabbage", "neutron", "church", "chapel", "record", "sword", "empire", "lover", "boyfriend", "casket", "actor", "parsley"], "type": "FREE_RECALL", "conditions": [24, 1600, "a", 24000], "trial": 2, "trial_type": "free-recall", "trial_index": 115, "time_elapsed": 837832, "internal_node_id": "0.0-88.0-0.0"}}, {"uniqueid": "MTK0796:3PMBY0YE28A66Q45LABHK7NZEIK9C3", "current_trial": 116, "dateTime": 1512760274371, "trialdata": {"rt": 6170, "key_press": 32, "type": "INSTRUCTIONS", "trial_type": "text", "trial_index": 116, "time_elapsed": 846008, "internal_node_id": "0.0-89.0"}}, {"uniqueid": "MTK0796:3PMBY0YE28A66Q45LABHK7NZEIK9C3", "current_trial": 117, "dateTime": 1512760288375, "trialdata": {"rt": [3547, 5294, 8408, 9794, 11511], "responses": ["19", "14", "13", "11", "17"], "num1": [8, 2, 1, 5, 7, 5], "num2": [2, 6, 8, 5, 8, 6], "num3": [9, 6, 4, 1, 2, 1], "type": "DISTRACTOR", "conditions": [12, 800, "a", 12000], "trial": 3, "trial_type": "math-distractor", "trial_index": 117, "time_elapsed": 860011, "internal_node_id": "0.0-90.0"}}, {"uniqueid": "MTK0796:3PMBY0YE28A66Q45LABHK7NZEIK9C3", "current_trial": 118, "dateTime": 1512760291378, "trialdata": {"rt": -1, "stimulus": "<p id=\"stim\">10</p>", "key_press": -1, "trial_type": "single-stim", "trial_index": 118, "time_elapsed": 863015, "internal_node_id": "0.0-91.0-0.0"}}, {"uniqueid": "MTK0796:3PMBY0YE28A66Q45LABHK7NZEIK9C3", "current_trial": 119, "dateTime": 1512760292381, "trialdata": {"rt": -1, "stimulus": "<p id=\"stim\">9</p>", "key_press": -1, "trial_type": "single-stim", "trial_index": 119, "time_elapsed": 864018, "internal_node_id": "0.0-91.0-1.0"}}, {"uniqueid": "MTK0796:3PMBY0YE28A66Q45LABHK7NZEIK9C3", "current_trial": 120, "dateTime": 1512760293382, "trialdata": {"rt": -1, "stimulus": "<p id=\"stim\">8</p>", "key_press": -1, "trial_type": "single-stim", "trial_index": 120, "time_elapsed": 865018, "internal_node_id": "0.0-91.0-2.0"}}, {"uniqueid": "MTK0796:3PMBY0YE28A66Q45LABHK7NZEIK9C3", "current_trial": 121, "dateTime": 1512760294385, "trialdata": {"rt": -1, "stimulus": "<p id=\"stim\">7</p>", "key_press": -1, "trial_type": "single-stim", "trial_index": 121, "time_elapsed": 866022, "internal_node_id": "0.0-91.0-3.0"}}, {"uniqueid": "MTK0796:3PMBY0YE28A66Q45LABHK7NZEIK9C3", "current_trial": 122, "dateTime": 1512760295389, "trialdata": {"rt": -1, "stimulus": "<p id=\"stim\">6</p>", "key_press": -1, "trial_type": "single-stim", "trial_index": 122, "time_elapsed": 867026, "internal_node_id": "0.0-91.0-4.0"}}, {"uniqueid": "MTK0796:3PMBY0YE28A66Q45LABHK7NZEIK9C3", "current_trial": 123, "dateTime": 1512760296392, "trialdata": {"rt": -1, "stimulus": "<p id=\"stim\">5</p>", "key_press": -1, "trial_type": "single-stim", "trial_index": 123, "time_elapsed": 868029, "internal_node_id": "0.0-91.0-5.0"}}, {"uniqueid": "MTK0796:3PMBY0YE28A66Q45LABHK7NZEIK9C3", "current_trial": 124, "dateTime": 1512760297394, "trialdata": {"rt": -1, "stimulus": "<p id=\"stim\">4</p>", "key_press": -1, "trial_type": "single-stim", "trial_index": 124, "time_elapsed": 869031, "internal_node_id": "0.0-91.0-6.0"}}, {"uniqueid": "MTK0796:3PMBY0YE28A66Q45LABHK7NZEIK9C3", "current_trial": 125, "dateTime": 1512760298397, "trialdata": {"rt": -1, "stimulus": "<p id=\"stim\">3</p>", "key_press": -1, "trial_type": "single-stim", "trial_index": 125, "time_elapsed": 870034, "internal_node_id": "0.0-91.0-7.0"}}, {"uniqueid": "MTK0796:3PMBY0YE28A66Q45LABHK7NZEIK9C3", "current_trial": 126, "dateTime": 1512760299399, "trialdata": {"rt": -1, "stimulus": "<p id=\"stim\">2</p>", "key_press": -1, "trial_type": "single-stim", "trial_index": 126, "time_elapsed": 871035, "internal_node_id": "0.0-91.0-8.0"}}, {"uniqueid": "MTK0796:3PMBY0YE28A66Q45LABHK7NZEIK9C3", "current_trial": 127, "dateTime": 1512760300401, "trialdata": {"rt": -1, "stimulus": "<p id=\"stim\">1</p>", "key_press": -1, "trial_type": "single-stim", "trial_index": 127, "time_elapsed": 872038, "internal_node_id": "0.0-91.0-9.0"}}, {"uniqueid": "MTK0796:3PMBY0YE28A66Q45LABHK7NZEIK9C3", "current_trial": 128, "dateTime": 1512760301908, "trialdata": {"rt": -1, "stimulus": "<p id=\"stim\">+</p>", "key_press": -1, "type": "FIXATION", "trial_type": "single-stim", "trial_index": 128, "time_elapsed": 873544, "internal_node_id": "0.0-92.0-0.0"}}, {"uniqueid": "MTK0796:3PMBY0YE28A66Q45LABHK7NZEIK9C3", "current_trial": 129, "dateTime": 1512760303578, "trialdata": {"rt": -1000, "stimulus": "/static/audio/wordpool/BRANCH.wav", "key_press": -1, "type": "PRES_AUD", "word": "branch", "wordID": 167, "conditions": [12, 800, "a", 12000], "trial": 3, "serialpos": 0, "trial_type": "single-audio", "trial_index": 129, "time_elapsed": 875215, "internal_node_id": "0.0-93.0"}}, {"uniqueid": "MTK0796:3PMBY0YE28A66Q45LABHK7NZEIK9C3", "current_trial": 130, "dateTime": 1512760305236, "trialdata": {"rt": -1000, "stimulus": "/static/audio/wordpool/WOMAN.wav", "key_press": -1, "type": "PRES_AUD", "word": "woman", "wordID": 1619, "conditions": [12, 800, "a", 12000], "trial": 3, "serialpos": 1, "trial_type": "single-audio", "trial_index": 130, "time_elapsed": 876872, "internal_node_id": "0.0-94.0"}}, {"uniqueid": "MTK0796:3PMBY0YE28A66Q45LABHK7NZEIK9C3", "current_trial": 131, "dateTime": 1512760306927, "trialdata": {"rt": -1000, "stimulus": "/static/audio/wordpool/PREACHER.wav", "key_press": -1, "type": "PRES_AUD", "word": "preacher", "wordID": 1118, "conditions": [12, 800, "a", 12000], "trial": 3, "serialpos": 2, "trial_type": "single-audio", "trial_index": 131, "time_elapsed": 878564, "internal_node_id": "0.0-95.0"}}, {"uniqueid": "MTK0796:3PMBY0YE28A66Q45LABHK7NZEIK9C3", "current_trial": 132, "dateTime": 1512760308802, "trialdata": {"rt": -1000, "stimulus": "/static/audio/wordpool/CRATER.wav", "key_press": -1, "type": "PRES_AUD", "word": "crater", "wordID": 399, "conditions": [12, 800, "a", 12000], "trial": 3, "serialpos": 3, "trial_type": "single-audio", "trial_index": 132, "time_elapsed": 880439, "internal_node_id": "0.0-96.0"}}, {"uniqueid": "MTK0796:3PMBY0YE28A66Q45LABHK7NZEIK9C3", "current_trial": 133, "dateTime": 1512760310691, "trialdata": {"rt": -1000, "stimulus": "/static/audio/wordpool/GALLON.wav", "key_press": -1, "type": "PRES_AUD", "word": "gallon", "wordID": 617, "conditions": [12, 800, "a", 12000], "trial": 3, "serialpos": 4, "trial_type": "single-audio", "trial_index": 133, "time_elapsed": 882328, "internal_node_id": "0.0-97.0"}}, {"uniqueid": "MTK0796:3PMBY0YE28A66Q45LABHK7NZEIK9C3", "current_trial": 134, "dateTime": 1512760312489, "trialdata": {"rt": -1000, "stimulus": "/static/audio/wordpool/BARREL.wav", "key_press": -1, "type": "PRES_AUD", "word": "barrel", "wordID": 90, "conditions": [12, 800, "a", 12000], "trial": 3, "serialpos": 5, "trial_type": "single-audio", "trial_index": 134, "time_elapsed": 884126, "internal_node_id": "0.0-98.0"}}, {"uniqueid": "MTK0796:3PMBY0YE28A66Q45LABHK7NZEIK9C3", "current_trial": 135, "dateTime": 1512760314137, "trialdata": {"rt": -1000, "stimulus": "/static/audio/wordpool/MACHINE.wav", "key_press": -1, "type": "PRES_AUD", "word": "machine", "wordID": 851, "conditions": [12, 800, "a", 12000], "trial": 3, "serialpos": 6, "trial_type": "single-audio", "trial_index": 135, "time_elapsed": 885774, "internal_node_id": "0.0-99.0"}}, {"uniqueid": "MTK0796:3PMBY0YE28A66Q45LABHK7NZEIK9C3", "current_trial": 136, "dateTime": 1512760315808, "trialdata": {"rt": -1000, "stimulus": "/static/audio/wordpool/WINDOW.wav", "key_press": -1, "type": "PRES_AUD", "word": "window", "wordID": 1610, "conditions": [12, 800, "a", 12000], "trial": 3, "serialpos": 7, "trial_type": "single-audio", "trial_index": 136, "time_elapsed": 887445, "internal_node_id": "0.0-100.0"}}, {"uniqueid": "MTK0796:3PMBY0YE28A66Q45LABHK7NZEIK9C3", "current_trial": 137, "dateTime": 1512760317650, "trialdata": {"rt": -1000, "stimulus": "/static/audio/wordpool/LAVA.wav", "key_press": -1, "type": "PRES_AUD", "word": "lava", "wordID": 803, "conditions": [12, 800, "a", 12000], "trial": 3, "serialpos": 8, "trial_type": "single-audio", "trial_index": 137, "time_elapsed": 889287, "internal_node_id": "0.0-101.0"}}, {"uniqueid": "MTK0796:3PMBY0YE28A66Q45LABHK7NZEIK9C3", "current_trial": 138, "dateTime": 1512760319508, "trialdata": {"rt": -1000, "stimulus": "/static/audio/wordpool/STAMP.wav", "key_press": -1, "type": "PRES_AUD", "word": "stamp", "wordID": 1369, "conditions": [12, 800, "a", 12000], "trial": 3, "serialpos": 9, "trial_type": "single-audio", "trial_index": 138, "time_elapsed": 891145, "internal_node_id": "0.0-102.0"}}, {"uniqueid": "MTK0796:3PMBY0YE28A66Q45LABHK7NZEIK9C3", "current_trial": 139, "dateTime": 1512760321296, "trialdata": {"rt": -1000, "stimulus": "/static/audio/wordpool/ATLAS.wav", "key_press": -1, "type": "PRES_AUD", "word": "atlas", "wordID": 52, "conditions": [12, 800, "a", 12000], "trial": 3, "serialpos": 10, "trial_type": "single-audio", "trial_index": 139, "time_elapsed": 892933, "internal_node_id": "0.0-103.0"}}, {"uniqueid": "MTK0796:3PMBY0YE28A66Q45LABHK7NZEIK9C3", "current_trial": 140, "dateTime": 1512760322922, "trialdata": {"rt": -1000, "stimulus": "/static/audio/wordpool/HEDGE.wav", "key_press": -1, "type": "PRES_AUD", "word": "hedge", "wordID": 698, "conditions": [12, 800, "a", 12000], "trial": 3, "serialpos": 11, "trial_type": "single-audio", "trial_index": 140, "time_elapsed": 894559, "internal_node_id": "0.0-104.0"}}, {"uniqueid": "MTK0796:3PMBY0YE28A66Q45LABHK7NZEIK9C3", "current_trial": 141, "dateTime": 1512760324263, "trialdata": {"rt": -1, "stimulus": "", "key_press": -1, "type": "PRE_RECALL_DELAY", "trial_type": "single-stim", "trial_index": 141, "time_elapsed": 895900, "internal_node_id": "0.0-105.0-0.0"}}, {"uniqueid": "MTK0796:3PMBY0YE28A66Q45LABHK7NZEIK9C3", "current_trial": 142, "dateTime": 1512760324765, "trialdata": {"rt": -1000, "stimulus": "/static/audio/400Hz.wav", "key_press": -1, "type": "PRE_RECALL_ALERT", "trial_type": "single-audio", "trial_index": 142, "time_elapsed": 896402, "internal_node_id": "0.0-106.0"}}, {"uniqueid": "MTK0796:3PMBY0YE28A66Q45LABHK7NZEIK9C3", "current_trial": 143, "dateTime": 1512760384776, "trialdata": {"rt": [4898, 6390, 12075, 15065, 17377, 19865, 21124, 22880, 24602, 26654, 29427, 30693], "recwords": ["branch", "women", "preachor", "gallon", "machine", "lava", "stamp", "window", "stamp", "atlas", "edge", "hedge"], "type": "FREE_RECALL", "conditions": [12, 800, "a", 12000], "trial": 3, "trial_type": "free-recall", "trial_index": 143, "time_elapsed": 956406, "internal_node_id": "0.0-107.0-0.0"}}, {"uniqueid": "MTK0796:3PMBY0YE28A66Q45LABHK7NZEIK9C3", "current_trial": 144, "dateTime": 1512760390771, "trialdata": {"rt": 3993, "key_press": 32, "type": "INSTRUCTIONS", "trial_type": "text", "trial_index": 144, "time_elapsed": 962407, "internal_node_id": "0.0-108.0"}}, {"uniqueid": "MTK0796:3PMBY0YE28A66Q45LABHK7NZEIK9C3", "current_trial": 145, "dateTime": 1512760416776, "trialdata": {"rt": [4294, 6390, 10216, 14100, 18043, 21114], "responses": ["13", "17", "16", "11", "20", "23"], "num1": [5, 7, 5, 9, 4, 9, 4], "num2": [7, 9, 5, 6, 9, 9, 7], "num3": [2, 1, 6, 6, 7, 5, 3], "type": "DISTRACTOR", "conditions": [24, 800, "a", 24000], "trial": 4, "trial_type": "math-distractor", "trial_index": 145, "time_elapsed": 988412, "internal_node_id": "0.0-109.0"}}, {"uniqueid": "MTK0796:3PMBY0YE28A66Q45LABHK7NZEIK9C3", "current_trial": 146, "dateTime": 1512760419777, "trialdata": {"rt": -1, "stimulus": "<p id=\"stim\">10</p>", "key_press": -1, "trial_type": "single-stim", "trial_index": 146, "time_elapsed": 991414, "internal_node_id": "0.0-110.0-0.0"}}, {"uniqueid": "MTK0796:3PMBY0YE28A66Q45LABHK7NZEIK9C3", "current_trial": 147, "dateTime": 1512760420779, "trialdata": {"rt": -1, "stimulus": "<p id=\"stim\">9</p>", "key_press": -1, "trial_type": "single-stim", "trial_index": 147, "time_elapsed": 992416, "internal_node_id": "0.0-110.0-1.0"}}, {"uniqueid": "MTK0796:3PMBY0YE28A66Q45LABHK7NZEIK9C3", "current_trial": 148, "dateTime": 1512760421781, "trialdata": {"rt": -1, "stimulus": "<p id=\"stim\">8</p>", "key_press": -1, "trial_type": "single-stim", "trial_index": 148, "time_elapsed": 993418, "internal_node_id": "0.0-110.0-2.0"}}, {"uniqueid": "MTK0796:3PMBY0YE28A66Q45LABHK7NZEIK9C3", "current_trial": 149, "dateTime": 1512760422783, "trialdata": {"rt": -1, "stimulus": "<p id=\"stim\">7</p>", "key_press": -1, "trial_type": "single-stim", "trial_index": 149, "time_elapsed": 994419, "internal_node_id": "0.0-110.0-3.0"}}, {"uniqueid": "MTK0796:3PMBY0YE28A66Q45LABHK7NZEIK9C3", "current_trial": 150, "dateTime": 1512760423785, "trialdata": {"rt": -1, "stimulus": "<p id=\"stim\">6</p>", "key_press": -1, "trial_type": "single-stim", "trial_index": 150, "time_elapsed": 995421, "internal_node_id": "0.0-110.0-4.0"}}, {"uniqueid": "MTK0796:3PMBY0YE28A66Q45LABHK7NZEIK9C3", "current_trial": 151, "dateTime": 1512760424786, "trialdata": {"rt": -1, "stimulus": "<p id=\"stim\">5</p>", "key_press": -1, "trial_type": "single-stim", "trial_index": 151, "time_elapsed": 996423, "internal_node_id": "0.0-110.0-5.0"}}, {"uniqueid": "MTK0796:3PMBY0YE28A66Q45LABHK7NZEIK9C3", "current_trial": 152, "dateTime": 1512760425789, "trialdata": {"rt": -1, "stimulus": "<p id=\"stim\">4</p>", "key_press": -1, "trial_type": "single-stim", "trial_index": 152, "time_elapsed": 997425, "internal_node_id": "0.0-110.0-6.0"}}, {"uniqueid": "MTK0796:3PMBY0YE28A66Q45LABHK7NZEIK9C3", "current_trial": 153, "dateTime": 1512760426792, "trialdata": {"rt": -1, "stimulus": "<p id=\"stim\">3</p>", "key_press": -1, "trial_type": "single-stim", "trial_index": 153, "time_elapsed": 998428, "internal_node_id": "0.0-110.0-7.0"}}, {"uniqueid": "MTK0796:3PMBY0YE28A66Q45LABHK7NZEIK9C3", "current_trial": 154, "dateTime": 1512760427793, "trialdata": {"rt": -1, "stimulus": "<p id=\"stim\">2</p>", "key_press": -1, "trial_type": "single-stim", "trial_index": 154, "time_elapsed": 999430, "internal_node_id": "0.0-110.0-8.0"}}, {"uniqueid": "MTK0796:3PMBY0YE28A66Q45LABHK7NZEIK9C3", "current_trial": 155, "dateTime": 1512760428796, "trialdata": {"rt": -1, "stimulus": "<p id=\"stim\">1</p>", "key_press": -1, "trial_type": "single-stim", "trial_index": 155, "time_elapsed": 1000433, "internal_node_id": "0.0-110.0-9.0"}}, {"uniqueid": "MTK0796:3PMBY0YE28A66Q45LABHK7NZEIK9C3", "current_trial": 156, "dateTime": 1512760430298, "trialdata": {"rt": -1, "stimulus": "<p id=\"stim\">+</p>", "key_press": -1, "type": "FIXATION", "trial_type": "single-stim", "trial_index": 156, "time_elapsed": 1001935, "internal_node_id": "0.0-111.0-0.0"}}, {"uniqueid": "MTK0796:3PMBY0YE28A66Q45LABHK7NZEIK9C3", "current_trial": 157, "dateTime": 1512760432087, "trialdata": {"rt": -1000, "stimulus": "/static/audio/wordpool/KIDNEY.wav", "key_press": -1, "type": "PRES_AUD", "word": "kidney", "wordID": 775, "conditions": [24, 800, "a", 24000], "trial": 4, "serialpos": 0, "trial_type": "single-audio", "trial_index": 157, "time_elapsed": 1003724, "internal_node_id": "0.0-112.0"}}, {"uniqueid": "MTK0796:3PMBY0YE28A66Q45LABHK7NZEIK9C3", "current_trial": 158, "dateTime": 1512760434026, "trialdata": {"rt": -1000, "stimulus": "/static/audio/wordpool/PUDDING.wav", "key_press": -1, "type": "PRES_AUD", "word": "pudding", "wordID": 1138, "conditions": [24, 800, "a", 24000], "trial": 4, "serialpos": 1, "trial_type": "single-audio", "trial_index": 158, "time_elapsed": 1005663, "internal_node_id": "0.0-113.0"}}, {"uniqueid": "MTK0796:3PMBY0YE28A66Q45LABHK7NZEIK9C3", "current_trial": 159, "dateTime": 1512760435634, "trialdata": {"rt": -1000, "stimulus": "/static/audio/wordpool/FRUIT.wav", "key_press": -1, "type": "PRES_AUD", "word": "fruit", "wordID": 609, "conditions": [24, 800, "a", 24000], "trial": 4, "serialpos": 2, "trial_type": "single-audio", "trial_index": 159, "time_elapsed": 1007271, "internal_node_id": "0.0-114.0"}}, {"uniqueid": "MTK0796:3PMBY0YE28A66Q45LABHK7NZEIK9C3", "current_trial": 160, "dateTime": 1512760437537, "trialdata": {"rt": -1000, "stimulus": "/static/audio/wordpool/LION.wav", "key_press": -1, "type": "PRES_AUD", "word": "lion", "wordID": 826, "conditions": [24, 800, "a", 24000], "trial": 4, "serialpos": 3, "trial_type": "single-audio", "trial_index": 160, "time_elapsed": 1009174, "internal_node_id": "0.0-115.0"}}, {"uniqueid": "MTK0796:3PMBY0YE28A66Q45LABHK7NZEIK9C3", "current_trial": 161, "dateTime": 1512760439381, "trialdata": {"rt": -1000, "stimulus": "/static/audio/wordpool/SWIMMER.wav", "key_press": -1, "type": "PRES_AUD", "word": "swimmer", "wordID": 1419, "conditions": [24, 800, "a", 24000], "trial": 4, "serialpos": 4, "trial_type": "single-audio", "trial_index": 161, "time_elapsed": 1011017, "internal_node_id": "0.0-116.0"}}, {"uniqueid": "MTK0796:3PMBY0YE28A66Q45LABHK7NZEIK9C3", "current_trial": 162, "dateTime": 1512760441050, "trialdata": {"rt": -1000, "stimulus": "/static/audio/wordpool/DIVER.wav", "key_press": -1, "type": "PRES_AUD", "word": "diver", "wordID": 475, "conditions": [24, 800, "a", 24000], "trial": 4, "serialpos": 5, "trial_type": "single-audio", "trial_index": 162, "time_elapsed": 1012687, "internal_node_id": "0.0-117.0"}}, {"uniqueid": "MTK0796:3PMBY0YE28A66Q45LABHK7NZEIK9C3", "current_trial": 163, "dateTime": 1512760442862, "trialdata": {"rt": -1000, "stimulus": "/static/audio/wordpool/CREVICE.wav", "key_press": -1, "type": "PRES_AUD", "word": "crevice", "wordID": 404, "conditions": [24, 800, "a", 24000], "trial": 4, "serialpos": 6, "trial_type": "single-audio", "trial_index": 163, "time_elapsed": 1014499, "internal_node_id": "0.0-118.0"}}, {"uniqueid": "MTK0796:3PMBY0YE28A66Q45LABHK7NZEIK9C3", "current_trial": 164, "dateTime": 1512760444700, "trialdata": {"rt": -1000, "stimulus": "/static/audio/wordpool/HEART.wav", "key_press": -1, "type": "PRES_AUD", "word": "heart", "wordID": 696, "conditions": [24, 800, "a", 24000], "trial": 4, "serialpos": 7, "trial_type": "single-audio", "trial_index": 164, "time_elapsed": 1016337, "internal_node_id": "0.0-119.0"}}, {"uniqueid": "MTK0796:3PMBY0YE28A66Q45LABHK7NZEIK9C3", "current_trial": 165, "dateTime": 1512760446610, "trialdata": {"rt": -1000, "stimulus": "/static/audio/wordpool/SCOTCH.wav", "key_press": -1, "type": "PRES_AUD", "word": "scotch", "wordID": 1250, "conditions": [24, 800, "a", 24000], "trial": 4, "serialpos": 8, "trial_type": "single-audio", "trial_index": 165, "time_elapsed": 1018247, "internal_node_id": "0.0-120.0"}}, {"uniqueid": "MTK0796:3PMBY0YE28A66Q45LABHK7NZEIK9C3", "current_trial": 166, "dateTime": 1512760448447, "trialdata": {"rt": -1000, "stimulus": "/static/audio/wordpool/MUMMY.wav", "key_press": -1, "type": "PRES_AUD", "word": "mummy", "wordID": 931, "conditions": [24, 800, "a", 24000], "trial": 4, "serialpos": 9, "trial_type": "single-audio", "trial_index": 166, "time_elapsed": 1020084, "internal_node_id": "0.0-121.0"}}, {"uniqueid": "MTK0796:3PMBY0YE28A66Q45LABHK7NZEIK9C3", "current_trial": 167, "dateTime": 1512760450299, "trialdata": {"rt": -1000, "stimulus": "/static/audio/wordpool/CAFE.wav", "key_press": -1, "type": "PRES_AUD", "word": "cafe", "wordID": 215, "conditions": [24, 800, "a", 24000], "trial": 4, "serialpos": 10, "trial_type": "single-audio", "trial_index": 167, "time_elapsed": 1021936, "internal_node_id": "0.0-122.0"}}, {"uniqueid": "MTK0796:3PMBY0YE28A66Q45LABHK7NZEIK9C3", "current_trial": 168, "dateTime": 1512760452082, "trialdata": {"rt": -1000, "stimulus": "/static/audio/wordpool/MARROW.wav", "key_press": -1, "type": "PRES_AUD", "word": "marrow", "wordID": 871, "conditions": [24, 800, "a", 24000], "trial": 4, "serialpos": 11, "trial_type": "single-audio", "trial_index": 168, "time_elapsed": 1023718, "internal_node_id": "0.0-123.0"}}, {"uniqueid": "MTK0796:3PMBY0YE28A66Q45LABHK7NZEIK9C3", "current_trial": 169, "dateTime": 1512760453871, "trialdata": {"rt": -1000, "stimulus": "/static/audio/wordpool/STOMACH.wav", "key_press": -1, "type": "PRES_AUD", "word": "stomach", "wordID": 1383, "conditions": [24, 800, "a", 24000], "trial": 4, "serialpos": 12, "trial_type": "single-audio", "trial_index": 169, "time_elapsed": 1025508, "internal_node_id": "0.0-124.0"}}, {"uniqueid": "MTK0796:3PMBY0YE28A66Q45LABHK7NZEIK9C3", "current_trial": 170, "dateTime": 1512760455826, "trialdata": {"rt": -1000, "stimulus": "/static/audio/wordpool/HELMET.wav", "key_press": -1, "type": "PRES_AUD", "word": "helmet", "wordID": 701, "conditions": [24, 800, "a", 24000], "trial": 4, "serialpos": 13, "trial_type": "single-audio", "trial_index": 170, "time_elapsed": 1027463, "internal_node_id": "0.0-125.0"}}, {"uniqueid": "MTK0796:3PMBY0YE28A66Q45LABHK7NZEIK9C3", "current_trial": 171, "dateTime": 1512760457724, "trialdata": {"rt": -1000, "stimulus": "/static/audio/wordpool/BANK.wav", "key_press": -1, "type": "PRES_AUD", "word": "bank", "wordID": 82, "conditions": [24, 800, "a", 24000], "trial": 4, "serialpos": 14, "trial_type": "single-audio", "trial_index": 171, "time_elapsed": 1029361, "internal_node_id": "0.0-126.0"}}, {"uniqueid": "MTK0796:3PMBY0YE28A66Q45LABHK7NZEIK9C3", "current_trial": 172, "dateTime": 1512760459338, "trialdata": {"rt": -1000, "stimulus": "/static/audio/wordpool/ULCER.wav", "key_press": -1, "type": "PRES_AUD", "word": "ulcer", "wordID": 1532, "conditions": [24, 800, "a", 24000], "trial": 4, "serialpos": 15, "trial_type": "single-audio", "trial_index": 172, "time_elapsed": 1030975, "internal_node_id": "0.0-127.0"}}, {"uniqueid": "MTK0796:3PMBY0YE28A66Q45LABHK7NZEIK9C3", "current_trial": 173, "dateTime": 1512760461269, "trialdata": {"rt": -1000, "stimulus": "/static/audio/wordpool/POLICE.wav", "key_press": -1, "type": "PRES_AUD", "word": "police", "wordID": 1097, "conditions": [24, 800, "a", 24000], "trial": 4, "serialpos": 16, "trial_type": "single-audio", "trial_index": 173, "time_elapsed": 1032906, "internal_node_id": "0.0-128.0"}}, {"uniqueid": "MTK0796:3PMBY0YE28A66Q45LABHK7NZEIK9C3", "current_trial": 174, "dateTime": 1512760462878, "trialdata": {"rt": -1000, "stimulus": "/static/audio/wordpool/FOREST.wav", "key_press": -1, "type": "PRES_AUD", "word": "forest", "wordID": 592, "conditions": [24, 800, "a", 24000], "trial": 4, "serialpos": 17, "trial_type": "single-audio", "trial_index": 174, "time_elapsed": 1034515, "internal_node_id": "0.0-129.0"}}, {"uniqueid": "MTK0796:3PMBY0YE28A66Q45LABHK7NZEIK9C3", "current_trial": 175, "dateTime": 1512760464664, "trialdata": {"rt": -1000, "stimulus": "/static/audio/wordpool/OZONE.wav", "key_press": -1, "type": "PRES_AUD", "word": "ozone", "wordID": 995, "conditions": [24, 800, "a", 24000], "trial": 4, "serialpos": 18, "trial_type": "single-audio", "trial_index": 175, "time_elapsed": 1036301, "internal_node_id": "0.0-130.0"}}, {"uniqueid": "MTK0796:3PMBY0YE28A66Q45LABHK7NZEIK9C3", "current_trial": 176, "dateTime": 1512760466416, "trialdata": {"rt": -1000, "stimulus": "/static/audio/wordpool/CASHIER.wav", "key_press": -1, "type": "PRES_AUD", "word": "cashier", "wordID": 253, "conditions": [24, 800, "a", 24000], "trial": 4, "serialpos": 19, "trial_type": "single-audio", "trial_index": 176, "time_elapsed": 1038053, "internal_node_id": "0.0-131.0"}}, {"uniqueid": "MTK0796:3PMBY0YE28A66Q45LABHK7NZEIK9C3", "current_trial": 177, "dateTime": 1512760468399, "trialdata": {"rt": -1000, "stimulus": "/static/audio/wordpool/WAITRESS.wav", "key_press": -1, "type": "PRES_AUD", "word": "waitress", "wordID": 1580, "conditions": [24, 800, "a", 24000], "trial": 4, "serialpos": 20, "trial_type": "single-audio", "trial_index": 177, "time_elapsed": 1040035, "internal_node_id": "0.0-132.0"}}, {"uniqueid": "MTK0796:3PMBY0YE28A66Q45LABHK7NZEIK9C3", "current_trial": 178, "dateTime": 1512760470205, "trialdata": {"rt": -1000, "stimulus": "/static/audio/wordpool/PLATE.wav", "key_press": -1, "type": "PRES_AUD", "word": "plate", "wordID": 1085, "conditions": [24, 800, "a", 24000], "trial": 4, "serialpos": 21, "trial_type": "single-audio", "trial_index": 178, "time_elapsed": 1041841, "internal_node_id": "0.0-133.0"}}, {"uniqueid": "MTK0796:3PMBY0YE28A66Q45LABHK7NZEIK9C3", "current_trial": 179, "dateTime": 1512760472184, "trialdata": {"rt": -1000, "stimulus": "/static/audio/wordpool/SMOG.wav", "key_press": -1, "type": "PRES_AUD", "word": "smog", "wordID": 1329, "conditions": [24, 800, "a", 24000], "trial": 4, "serialpos": 22, "trial_type": "single-audio", "trial_index": 179, "time_elapsed": 1043820, "internal_node_id": "0.0-134.0"}}, {"uniqueid": "MTK0796:3PMBY0YE28A66Q45LABHK7NZEIK9C3", "current_trial": 180, "dateTime": 1512760473959, "trialdata": {"rt": -1000, "stimulus": "/static/audio/wordpool/LEG.wav", "key_press": -1, "type": "PRES_AUD", "word": "leg", "wordID": 808, "conditions": [24, 800, "a", 24000], "trial": 4, "serialpos": 23, "trial_type": "single-audio", "trial_index": 180, "time_elapsed": 1045596, "internal_node_id": "0.0-135.0"}}, {"uniqueid": "MTK0796:3PMBY0YE28A66Q45LABHK7NZEIK9C3", "current_trial": 181, "dateTime": 1512760475284, "trialdata": {"rt": -1, "stimulus": "", "key_press": -1, "type": "PRE_RECALL_DELAY", "trial_type": "single-stim", "trial_index": 181, "time_elapsed": 1046921, "internal_node_id": "0.0-136.0-0.0"}}, {"uniqueid": "MTK0796:3PMBY0YE28A66Q45LABHK7NZEIK9C3", "current_trial": 182, "dateTime": 1512760475787, "trialdata": {"rt": -1000, "stimulus": "/static/audio/400Hz.wav", "key_press": -1, "type": "PRE_RECALL_ALERT", "trial_type": "single-audio", "trial_index": 182, "time_elapsed": 1047423, "internal_node_id": "0.0-137.0"}}, {"uniqueid": "MTK0796:3PMBY0YE28A66Q45LABHK7NZEIK9C3", "current_trial": 183, "dateTime": 1512760535798, "trialdata": {"rt": [2356, 4554, 7892, 9087, 11746, 12776, 14712, 16787, 18078, 19622, 22752, 26722, 29242, 31395, 33154, 35322, 38750, 40995, 42500], "recwords": ["kidney", "pudding", "fruit", "lion", "swimmer", "diver", "heart", "mummy", "cafe", "marrow", "stomach", "helmot", "bank", "police", "forest", "cashier", "waitress", "plate", "leg"], "type": "FREE_RECALL", "conditions": [24, 800, "a", 24000], "trial": 4, "trial_type": "free-recall", "trial_index": 183, "time_elapsed": 1107427, "internal_node_id": "0.0-138.0-0.0"}}, {"uniqueid": "MTK0796:3PMBY0YE28A66Q45LABHK7NZEIK9C3", "current_trial": 184, "dateTime": 1512760538725, "trialdata": {"rt": 924, "key_press": 32, "type": "INSTRUCTIONS", "trial_type": "text", "trial_index": 184, "time_elapsed": 1110362, "internal_node_id": "0.0-139.0"}}, {"uniqueid": "MTK0796:3PMBY0YE28A66Q45LABHK7NZEIK9C3", "current_trial": 185, "dateTime": 1512760552731, "trialdata": {"rt": [4149, 5550, 8178, 9426], "responses": ["25", "19", "19", "9"], "num1": [9, 5, 7, 3, 5], "num2": [9, 5, 3, 3, 4], "num3": [7, 9, 9, 3, 4], "type": "DISTRACTOR", "conditions": [24, 1600, "a", 12000], "trial": 5, "trial_type": "math-distractor", "trial_index": 185, "time_elapsed": 1124367, "internal_node_id": "0.0-140.0"}}, {"uniqueid": "MTK0796:3PMBY0YE28A66Q45LABHK7NZEIK9C3", "current_trial": 186, "dateTime": 1512760555734, "trialdata": {"rt": -1, "stimulus": "<p id=\"stim\">10</p>", "key_press": -1, "trial_type": "single-stim", "trial_index": 186, "time_elapsed": 1127371, "internal_node_id": "0.0-141.0-0.0"}}, {"uniqueid": "MTK0796:3PMBY0YE28A66Q45LABHK7NZEIK9C3", "current_trial": 187, "dateTime": 1512760556737, "trialdata": {"rt": -1, "stimulus": "<p id=\"stim\">9</p>", "key_press": -1, "trial_type": "single-stim", "trial_index": 187, "time_elapsed": 1128374, "internal_node_id": "0.0-141.0-1.0"}}, {"uniqueid": "MTK0796:3PMBY0YE28A66Q45LABHK7NZEIK9C3", "current_trial": 188, "dateTime": 1512760557739, "trialdata": {"rt": -1, "stimulus": "<p id=\"stim\">8</p>", "key_press": -1, "trial_type": "single-stim", "trial_index": 188, "time_elapsed": 1129376, "internal_node_id": "0.0-141.0-2.0"}}, {"uniqueid": "MTK0796:3PMBY0YE28A66Q45LABHK7NZEIK9C3", "current_trial": 189, "dateTime": 1512760558741, "trialdata": {"rt": -1, "stimulus": "<p id=\"stim\">7</p>", "key_press": -1, "trial_type": "single-stim", "trial_index": 189, "time_elapsed": 1130378, "internal_node_id": "0.0-141.0-3.0"}}, {"uniqueid": "MTK0796:3PMBY0YE28A66Q45LABHK7NZEIK9C3", "current_trial": 190, "dateTime": 1512760559744, "trialdata": {"rt": -1, "stimulus": "<p id=\"stim\">6</p>", "key_press": -1, "trial_type": "single-stim", "trial_index": 190, "time_elapsed": 1131380, "internal_node_id": "0.0-141.0-4.0"}}, {"uniqueid": "MTK0796:3PMBY0YE28A66Q45LABHK7NZEIK9C3", "current_trial": 191, "dateTime": 1512760560746, "trialdata": {"rt": -1, "stimulus": "<p id=\"stim\">5</p>", "key_press": -1, "trial_type": "single-stim", "trial_index": 191, "time_elapsed": 1132383, "internal_node_id": "0.0-141.0-5.0"}}, {"uniqueid": "MTK0796:3PMBY0YE28A66Q45LABHK7NZEIK9C3", "current_trial": 192, "dateTime": 1512760561749, "trialdata": {"rt": -1, "stimulus": "<p id=\"stim\">4</p>", "key_press": -1, "trial_type": "single-stim", "trial_index": 192, "time_elapsed": 1133385, "internal_node_id": "0.0-141.0-6.0"}}, {"uniqueid": "MTK0796:3PMBY0YE28A66Q45LABHK7NZEIK9C3", "current_trial": 193, "dateTime": 1512760562752, "trialdata": {"rt": -1, "stimulus": "<p id=\"stim\">3</p>", "key_press": -1, "trial_type": "single-stim", "trial_index": 193, "time_elapsed": 1134389, "internal_node_id": "0.0-141.0-7.0"}}, {"uniqueid": "MTK0796:3PMBY0YE28A66Q45LABHK7NZEIK9C3", "current_trial": 194, "dateTime": 1512760563754, "trialdata": {"rt": -1, "stimulus": "<p id=\"stim\">2</p>", "key_press": -1, "trial_type": "single-stim", "trial_index": 194, "time_elapsed": 1135391, "internal_node_id": "0.0-141.0-8.0"}}, {"uniqueid": "MTK0796:3PMBY0YE28A66Q45LABHK7NZEIK9C3", "current_trial": 195, "dateTime": 1512760564756, "trialdata": {"rt": -1, "stimulus": "<p id=\"stim\">1</p>", "key_press": -1, "trial_type": "single-stim", "trial_index": 195, "time_elapsed": 1136393, "internal_node_id": "0.0-141.0-9.0"}}, {"uniqueid": "MTK0796:3PMBY0YE28A66Q45LABHK7NZEIK9C3", "current_trial": 196, "dateTime": 1512760566258, "trialdata": {"rt": -1, "stimulus": "<p id=\"stim\">+</p>", "key_press": -1, "type": "FIXATION", "trial_type": "single-stim", "trial_index": 196, "time_elapsed": 1137895, "internal_node_id": "0.0-142.0-0.0"}}, {"uniqueid": "MTK0796:3PMBY0YE28A66Q45LABHK7NZEIK9C3", "current_trial": 197, "dateTime": 1512760568879, "trialdata": {"rt": -1000, "stimulus": "/static/audio/wordpool/SPARROW.wav", "key_press": -1, "type": "PRES_AUD", "word": "sparrow", "wordID": 1346, "conditions": [24, 1600, "a", 12000], "trial": 5, "serialpos": 0, "trial_type": "single-audio", "trial_index": 197, "time_elapsed": 1140516, "internal_node_id": "0.0-143.0"}}, {"uniqueid": "MTK0796:3PMBY0YE28A66Q45LABHK7NZEIK9C3", "current_trial": 198, "dateTime": 1512760571680, "trialdata": {"rt": -1000, "stimulus": "/static/audio/wordpool/PLIERS.wav", "key_press": -1, "type": "PRES_AUD", "word": "pliers", "wordID": 1088, "conditions": [24, 1600, "a", 12000], "trial": 5, "serialpos": 1, "trial_type": "single-audio", "trial_index": 198, "time_elapsed": 1143317, "internal_node_id": "0.0-144.0"}}, {"uniqueid": "MTK0796:3PMBY0YE28A66Q45LABHK7NZEIK9C3", "current_trial": 199, "dateTime": 1512760574200, "trialdata": {"rt": -1000, "stimulus": "/static/audio/wordpool/HEADBAND.wav", "key_press": -1, "type": "PRES_AUD", "word": "headband", "wordID": 695, "conditions": [24, 1600, "a", 12000], "trial": 5, "serialpos": 2, "trial_type": "single-audio", "trial_index": 199, "time_elapsed": 1145836, "internal_node_id": "0.0-145.0"}}, {"uniqueid": "MTK0796:3PMBY0YE28A66Q45LABHK7NZEIK9C3", "current_trial": 200, "dateTime": 1512760576967, "trialdata": {"rt": -1000, "stimulus": "/static/audio/wordpool/BLADE.wav", "key_press": -1, "type": "PRES_AUD", "word": "blade", "wordID": 133, "conditions": [24, 1600, "a", 12000], "trial": 5, "serialpos": 3, "trial_type": "single-audio", "trial_index": 200, "time_elapsed": 1148604, "internal_node_id": "0.0-146.0"}}, {"uniqueid": "MTK0796:3PMBY0YE28A66Q45LABHK7NZEIK9C3", "current_trial": 201, "dateTime": 1512760579423, "trialdata": {"rt": -1000, "stimulus": "/static/audio/wordpool/KNIFE.wav", "key_press": -1, "type": "PRES_AUD", "word": "knife", "wordID": 784, "conditions": [24, 1600, "a", 12000], "trial": 5, "serialpos": 4, "trial_type": "single-audio", "trial_index": 201, "time_elapsed": 1151060, "internal_node_id": "0.0-147.0"}}, {"uniqueid": "MTK0796:3PMBY0YE28A66Q45LABHK7NZEIK9C3", "current_trial": 202, "dateTime": 1512760582135, "trialdata": {"rt": -1000, "stimulus": "/static/audio/wordpool/CHAUFFEUR.wav", "key_press": -1, "type": "PRES_AUD", "word": "chauffeur", "wordID": 282, "conditions": [24, 1600, "a", 12000], "trial": 5, "serialpos": 5, "trial_type": "single-audio", "trial_index": 202, "time_elapsed": 1153772, "internal_node_id": "0.0-148.0"}}, {"uniqueid": "MTK0796:3PMBY0YE28A66Q45LABHK7NZEIK9C3", "current_trial": 203, "dateTime": 1512760584694, "trialdata": {"rt": -1000, "stimulus": "/static/audio/wordpool/RAZOR.wav", "key_press": -1, "type": "PRES_AUD", "word": "razor", "wordID": 1170, "conditions": [24, 1600, "a", 12000], "trial": 5, "serialpos": 6, "trial_type": "single-audio", "trial_index": 203, "time_elapsed": 1156331, "internal_node_id": "0.0-149.0"}}, {"uniqueid": "MTK0796:3PMBY0YE28A66Q45LABHK7NZEIK9C3", "current_trial": 204, "dateTime": 1512760587345, "trialdata": {"rt": -1000, "stimulus": "/static/audio/wordpool/VENUS.wav", "key_press": -1, "type": "PRES_AUD", "word": "venus", "wordID": 1556, "conditions": [24, 1600, "a", 12000], "trial": 5, "serialpos": 7, "trial_type": "single-audio", "trial_index": 204, "time_elapsed": 1158982, "internal_node_id": "0.0-150.0"}}, {"uniqueid": "MTK0796:3PMBY0YE28A66Q45LABHK7NZEIK9C3", "current_trial": 205, "dateTime": 1512760589771, "trialdata": {"rt": -1000, "stimulus": "/static/audio/wordpool/RABBIT.wav", "key_press": -1, "type": "PRES_AUD", "word": "rabbit", "wordID": 1151, "conditions": [24, 1600, "a", 12000], "trial": 5, "serialpos": 8, "trial_type": "single-audio", "trial_index": 205, "time_elapsed": 1161408, "internal_node_id": "0.0-151.0"}}, {"uniqueid": "MTK0796:3PMBY0YE28A66Q45LABHK7NZEIK9C3", "current_trial": 206, "dateTime": 1512760592555, "trialdata": {"rt": -1000, "stimulus": "/static/audio/wordpool/TORTOISE.wav", "key_press": -1, "type": "PRES_AUD", "word": "tortoise", "wordID": 1485, "conditions": [24, 1600, "a", 12000], "trial": 5, "serialpos": 9, "trial_type": "single-audio", "trial_index": 206, "time_elapsed": 1164192, "internal_node_id": "0.0-152.0"}}, {"uniqueid": "MTK0796:3PMBY0YE28A66Q45LABHK7NZEIK9C3", "current_trial": 207, "dateTime": 1512760595264, "trialdata": {"rt": -1000, "stimulus": "/static/audio/wordpool/DOLPHIN.wav", "key_press": -1, "type": "PRES_AUD", "word": "dolphin", "wordID": 482, "conditions": [24, 1600, "a", 12000], "trial": 5, "serialpos": 10, "trial_type": "single-audio", "trial_index": 207, "time_elapsed": 1166900, "internal_node_id": "0.0-153.0"}}, {"uniqueid": "MTK0796:3PMBY0YE28A66Q45LABHK7NZEIK9C3", "current_trial": 208, "dateTime": 1512760597919, "trialdata": {"rt": -1000, "stimulus": "/static/audio/wordpool/SHOVEL.wav", "key_press": -1, "type": "PRES_AUD", "word": "shovel", "wordID": 1294, "conditions": [24, 1600, "a", 12000], "trial": 5, "serialpos": 11, "trial_type": "single-audio", "trial_index": 208, "time_elapsed": 1169556, "internal_node_id": "0.0-154.0"}}, {"uniqueid": "MTK0796:3PMBY0YE28A66Q45LABHK7NZEIK9C3", "current_trial": 209, "dateTime": 1512760600584, "trialdata": {"rt": -1000, "stimulus": "/static/audio/wordpool/SUNRISE.wav", "key_press": -1, "type": "PRES_AUD", "word": "sunrise", "wordID": 1406, "conditions": [24, 1600, "a", 12000], "trial": 5, "serialpos": 12, "trial_type": "single-audio", "trial_index": 209, "time_elapsed": 1172221, "internal_node_id": "0.0-155.0"}}, {"uniqueid": "MTK0796:3PMBY0YE28A66Q45LABHK7NZEIK9C3", "current_trial": 210, "dateTime": 1512760603218, "trialdata": {"rt": -1000, "stimulus": "/static/audio/wordpool/SUNSET.wav", "key_press": -1, "type": "PRES_AUD", "word": "sunset", "wordID": 1407, "conditions": [24, 1600, "a", 12000], "trial": 5, "serialpos": 13, "trial_type": "single-audio", "trial_index": 210, "time_elapsed": 1174855, "internal_node_id": "0.0-156.0"}}, {"uniqueid": "MTK0796:3PMBY0YE28A66Q45LABHK7NZEIK9C3", "current_trial": 211, "dateTime": 1512760605933, "trialdata": {"rt": -1000, "stimulus": "/static/audio/wordpool/FLASK.wav", "key_press": -1, "type": "PRES_AUD", "word": "flask", "wordID": 575, "conditions": [24, 1600, "a", 12000], "trial": 5, "serialpos": 14, "trial_type": "single-audio", "trial_index": 211, "time_elapsed": 1177569, "internal_node_id": "0.0-157.0"}}, {"uniqueid": "MTK0796:3PMBY0YE28A66Q45LABHK7NZEIK9C3", "current_trial": 212, "dateTime": 1512760608386, "trialdata": {"rt": -1000, "stimulus": "/static/audio/wordpool/WASP.wav", "key_press": -1, "type": "PRES_AUD", "word": "wasp", "wordID": 1592, "conditions": [24, 1600, "a", 12000], "trial": 5, "serialpos": 15, "trial_type": "single-audio", "trial_index": 212, "time_elapsed": 1180023, "internal_node_id": "0.0-158.0"}}, {"uniqueid": "MTK0796:3PMBY0YE28A66Q45LABHK7NZEIK9C3", "current_trial": 213, "dateTime": 1512760611151, "trialdata": {"rt": -1000, "stimulus": "/static/audio/wordpool/SILK.wav", "key_press": -1, "type": "PRES_AUD", "word": "silk", "wordID": 1306, "conditions": [24, 1600, "a", 12000], "trial": 5, "serialpos": 16, "trial_type": "single-audio", "trial_index": 213, "time_elapsed": 1182788, "internal_node_id": "0.0-159.0"}}, {"uniqueid": "MTK0796:3PMBY0YE28A66Q45LABHK7NZEIK9C3", "current_trial": 214, "dateTime": 1512760613886, "trialdata": {"rt": -1000, "stimulus": "/static/audio/wordpool/FRAME.wav", "key_press": -1, "type": "PRES_AUD", "word": "frame", "wordID": 599, "conditions": [24, 1600, "a", 12000], "trial": 5, "serialpos": 17, "trial_type": "single-audio", "trial_index": 214, "time_elapsed": 1185522, "internal_node_id": "0.0-160.0"}}, {"uniqueid": "MTK0796:3PMBY0YE28A66Q45LABHK7NZEIK9C3", "current_trial": 215, "dateTime": 1512760616434, "trialdata": {"rt": -1000, "stimulus": "/static/audio/wordpool/LEOPARD.wav", "key_press": -1, "type": "PRES_AUD", "word": "leopard", "wordID": 811, "conditions": [24, 1600, "a", 12000], "trial": 5, "serialpos": 18, "trial_type": "single-audio", "trial_index": 215, "time_elapsed": 1188071, "internal_node_id": "0.0-161.0"}}, {"uniqueid": "MTK0796:3PMBY0YE28A66Q45LABHK7NZEIK9C3", "current_trial": 216, "dateTime": 1512760619103, "trialdata": {"rt": -1000, "stimulus": "/static/audio/wordpool/VELVET.wav", "key_press": -1, "type": "PRES_AUD", "word": "velvet", "wordID": 1554, "conditions": [24, 1600, "a", 12000], "trial": 5, "serialpos": 19, "trial_type": "single-audio", "trial_index": 216, "time_elapsed": 1190740, "internal_node_id": "0.0-162.0"}}, {"uniqueid": "MTK0796:3PMBY0YE28A66Q45LABHK7NZEIK9C3", "current_trial": 217, "dateTime": 1512760621662, "trialdata": {"rt": -1000, "stimulus": "/static/audio/wordpool/PUPPY.wav", "key_press": -1, "type": "PRES_AUD", "word": "puppy", "wordID": 1143, "conditions": [24, 1600, "a", 12000], "trial": 5, "serialpos": 20, "trial_type": "single-audio", "trial_index": 217, "time_elapsed": 1193299, "internal_node_id": "0.0-163.0"}}, {"uniqueid": "MTK0796:3PMBY0YE28A66Q45LABHK7NZEIK9C3", "current_trial": 218, "dateTime": 1512760624290, "trialdata": {"rt": -1000, "stimulus": "/static/audio/wordpool/GRAPE.wav", "key_press": -1, "type": "PRES_AUD", "word": "grape", "wordID": 653, "conditions": [24, 1600, "a", 12000], "trial": 5, "serialpos": 21, "trial_type": "single-audio", "trial_index": 218, "time_elapsed": 1195927, "internal_node_id": "0.0-164.0"}}, {"uniqueid": "MTK0796:3PMBY0YE28A66Q45LABHK7NZEIK9C3", "current_trial": 219, "dateTime": 1512760627010, "trialdata": {"rt": -1000, "stimulus": "/static/audio/wordpool/BABY.wav", "key_press": -1, "type": "PRES_AUD", "word": "baby", "wordID": 63, "conditions": [24, 1600, "a", 12000], "trial": 5, "serialpos": 22, "trial_type": "single-audio", "trial_index": 219, "time_elapsed": 1198647, "internal_node_id": "0.0-165.0"}}, {"uniqueid": "MTK0796:3PMBY0YE28A66Q45LABHK7NZEIK9C3", "current_trial": 220, "dateTime": 1512760629667, "trialdata": {"rt": -1000, "stimulus": "/static/audio/wordpool/LETTUCE.wav", "key_press": -1, "type": "PRES_AUD", "word": "lettuce", "wordID": 813, "conditions": [24, 1600, "a", 12000], "trial": 5, "serialpos": 23, "trial_type": "single-audio", "trial_index": 220, "time_elapsed": 1201303, "internal_node_id": "0.0-166.0"}}, {"uniqueid": "MTK0796:3PMBY0YE28A66Q45LABHK7NZEIK9C3", "current_trial": 221, "dateTime": 1512760630870, "trialdata": {"rt": -1, "stimulus": "", "key_press": -1, "type": "PRE_RECALL_DELAY", "trial_type": "single-stim", "trial_index": 221, "time_elapsed": 1202507, "internal_node_id": "0.0-167.0-0.0"}}, {"uniqueid": "MTK0796:3PMBY0YE28A66Q45LABHK7NZEIK9C3", "current_trial": 222, "dateTime": 1512760631372, "trialdata": {"rt": -1000, "stimulus": "/static/audio/400Hz.wav", "key_press": -1, "type": "PRE_RECALL_ALERT", "trial_type": "single-audio", "trial_index": 222, "time_elapsed": 1203009, "internal_node_id": "0.0-168.0"}}, {"uniqueid": "MTK0796:3PMBY0YE28A66Q45LABHK7NZEIK9C3", "current_trial": 223, "dateTime": 1512760691382, "trialdata": {"rt": [2994, 19000, 23874, 33025, 37266, 39238, 40954, 45600, 48782, 49915, 51234, 52838, 54792, 56566, 58612, 59648], "recwords": ["sparrow", "headband", "blade", "knife", "razior", "venus", "ravvit", "tortous", "dolphin", "shovel", "sunrise", "sunset", "flask", "wasp", "silk", "frame"], "type": "FREE_RECALL", "conditions": [24, 1600, "a", 12000], "trial": 5, "trial_type": "free-recall", "trial_index": 223, "time_elapsed": 1263011, "internal_node_id": "0.0-169.0-0.0"}}, {"uniqueid": "MTK0796:3PMBY0YE28A66Q45LABHK7NZEIK9C3", "current_trial": 224, "dateTime": 1512760711713, "trialdata": {"rt": 18328, "key_press": 32, "type": "INSTRUCTIONS", "trial_type": "text", "trial_index": 224, "time_elapsed": 1283350, "internal_node_id": "0.0-170.0"}}, {"uniqueid": "MTK0796:3PMBY0YE28A66Q45LABHK7NZEIK9C3", "current_trial": 225, "dateTime": 1512760737721, "trialdata": {"rt": [2628, 3916, 5758, 8531, 10223, 11771, 13061, 16215, 19556, 21198], "responses": ["16", "9", "11", "18", "11", "16", "12", "8", "14", "14"], "num1": [6, 4, 1, 6, 4, 1, 4, 4, 3, 9, 6], "num2": [6, 4, 1, 4, 5, 9, 4, 1, 5, 1, 2], "num3": [4, 1, 9, 8, 2, 6, 4, 3, 7, 4, 8], "type": "DISTRACTOR", "conditions": [24, 1600, "v", 24000], "trial": 6, "trial_type": "math-distractor", "trial_index": 225, "time_elapsed": 1309358, "internal_node_id": "0.0-171.0"}}, {"uniqueid": "MTK0796:3PMBY0YE28A66Q45LABHK7NZEIK9C3", "current_trial": 226, "dateTime": 1512760740724, "trialdata": {"rt": -1, "stimulus": "<p id=\"stim\">10</p>", "key_press": -1, "trial_type": "single-stim", "trial_index": 226, "time_elapsed": 1312361, "internal_node_id": "0.0-172.0-0.0"}}, {"uniqueid": "MTK0796:3PMBY0YE28A66Q45LABHK7NZEIK9C3", "current_trial": 227, "dateTime": 1512760741726, "trialdata": {"rt": -1, "stimulus": "<p id=\"stim\">9</p>", "key_press": -1, "trial_type": "single-stim", "trial_index": 227, "time_elapsed": 1313363, "internal_node_id": "0.0-172.0-1.0"}}, {"uniqueid": "MTK0796:3PMBY0YE28A66Q45LABHK7NZEIK9C3", "current_trial": 228, "dateTime": 1512760742728, "trialdata": {"rt": -1, "stimulus": "<p id=\"stim\">8</p>", "key_press": -1, "trial_type": "single-stim", "trial_index": 228, "time_elapsed": 1314365, "internal_node_id": "0.0-172.0-2.0"}}, {"uniqueid": "MTK0796:3PMBY0YE28A66Q45LABHK7NZEIK9C3", "current_trial": 229, "dateTime": 1512760743729, "trialdata": {"rt": -1, "stimulus": "<p id=\"stim\">7</p>", "key_press": -1, "trial_type": "single-stim", "trial_index": 229, "time_elapsed": 1315366, "internal_node_id": "0.0-172.0-3.0"}}, {"uniqueid": "MTK0796:3PMBY0YE28A66Q45LABHK7NZEIK9C3", "current_trial": 230, "dateTime": 1512760744731, "trialdata": {"rt": -1, "stimulus": "<p id=\"stim\">6</p>", "key_press": -1, "trial_type": "single-stim", "trial_index": 230, "time_elapsed": 1316368, "internal_node_id": "0.0-172.0-4.0"}}, {"uniqueid": "MTK0796:3PMBY0YE28A66Q45LABHK7NZEIK9C3", "current_trial": 231, "dateTime": 1512760745733, "trialdata": {"rt": -1, "stimulus": "<p id=\"stim\">5</p>", "key_press": -1, "trial_type": "single-stim", "trial_index": 231, "time_elapsed": 1317369, "internal_node_id": "0.0-172.0-5.0"}}, {"uniqueid": "MTK0796:3PMBY0YE28A66Q45LABHK7NZEIK9C3", "current_trial": 232, "dateTime": 1512760746733, "trialdata": {"rt": -1, "stimulus": "<p id=\"stim\">4</p>", "key_press": -1, "trial_type": "single-stim", "trial_index": 232, "time_elapsed": 1318370, "internal_node_id": "0.0-172.0-6.0"}}, {"uniqueid": "MTK0796:3PMBY0YE28A66Q45LABHK7NZEIK9C3", "current_trial": 233, "dateTime": 1512760747734, "trialdata": {"rt": -1, "stimulus": "<p id=\"stim\">3</p>", "key_press": -1, "trial_type": "single-stim", "trial_index": 233, "time_elapsed": 1319371, "internal_node_id": "0.0-172.0-7.0"}}, {"uniqueid": "MTK0796:3PMBY0YE28A66Q45LABHK7NZEIK9C3", "current_trial": 234, "dateTime": 1512760748736, "trialdata": {"rt": -1, "stimulus": "<p id=\"stim\">2</p>", "key_press": -1, "trial_type": "single-stim", "trial_index": 234, "time_elapsed": 1320373, "internal_node_id": "0.0-172.0-8.0"}}, {"uniqueid": "MTK0796:3PMBY0YE28A66Q45LABHK7NZEIK9C3", "current_trial": 235, "dateTime": 1512760749738, "trialdata": {"rt": -1, "stimulus": "<p id=\"stim\">1</p>", "key_press": -1, "trial_type": "single-stim", "trial_index": 235, "time_elapsed": 1321375, "internal_node_id": "0.0-172.0-9.0"}}, {"uniqueid": "MTK0796:3PMBY0YE28A66Q45LABHK7NZEIK9C3", "current_trial": 236, "dateTime": 1512760751240, "trialdata": {"rt": -1, "stimulus": "<p id=\"stim\">+</p>", "key_press": -1, "type": "FIXATION", "trial_type": "single-stim", "trial_index": 236, "time_elapsed": 1322876, "internal_node_id": "0.0-173.0-0.0"}}, {"uniqueid": "MTK0796:3PMBY0YE28A66Q45LABHK7NZEIK9C3", "current_trial": 237, "dateTime": 1512760752844, "trialdata": {"rt": -1, "stimulus": "<p id=\"stim\">DRINK</p>", "key_press": -1, "type": "PRES_VIS", "word": "drink", "wordID": 497, "conditions": [24, 1600, "v", 24000], "trial": 6, "serialpos": 0, "trial_type": "single-stim", "trial_index": 237, "time_elapsed": 1324479, "internal_node_id": "0.0-174.0"}}, {"uniqueid": "MTK0796:3PMBY0YE28A66Q45LABHK7NZEIK9C3", "current_trial": 238, "dateTime": 1512760755462, "trialdata": {"rt": -1, "stimulus": "<p id=\"stim\">OYSTER</p>", "key_press": -1, "type": "PRES_VIS", "word": "oyster", "wordID": 994, "conditions": [24, 1600, "v", 24000], "trial": 6, "serialpos": 1, "trial_type": "single-stim", "trial_index": 238, "time_elapsed": 1327099, "internal_node_id": "0.0-175.0"}}, {"uniqueid": "MTK0796:3PMBY0YE28A66Q45LABHK7NZEIK9C3", "current_trial": 239, "dateTime": 1512760758033, "trialdata": {"rt": -1, "stimulus": "<p id=\"stim\">FLAG</p>", "key_press": -1, "type": "PRES_VIS", "word": "flag", "wordID": 572, "conditions": [24, 1600, "v", 24000], "trial": 6, "serialpos": 2, "trial_type": "single-stim", "trial_index": 239, "time_elapsed": 1329669, "internal_node_id": "0.0-176.0"}}, {"uniqueid": "MTK0796:3PMBY0YE28A66Q45LABHK7NZEIK9C3", "current_trial": 240, "dateTime": 1512760760568, "trialdata": {"rt": -1, "stimulus": "<p id=\"stim\">REBEL</p>", "key_press": -1, "type": "PRES_VIS", "word": "rebel", "wordID": 1171, "conditions": [24, 1600, "v", 24000], "trial": 6, "serialpos": 3, "trial_type": "single-stim", "trial_index": 240, "time_elapsed": 1332205, "internal_node_id": "0.0-177.0"}}, {"uniqueid": "MTK0796:3PMBY0YE28A66Q45LABHK7NZEIK9C3", "current_trial": 241, "dateTime": 1512760763233, "trialdata": {"rt": -1, "stimulus": "<p id=\"stim\">PEBBLE</p>", "key_press": -1, "type": "PRES_VIS", "word": "pebble", "wordID": 1034, "conditions": [24, 1600, "v", 24000], "trial": 6, "serialpos": 4, "trial_type": "single-stim", "trial_index": 241, "time_elapsed": 1334870, "internal_node_id": "0.0-178.0"}}, {"uniqueid": "MTK0796:3PMBY0YE28A66Q45LABHK7NZEIK9C3", "current_trial": 242, "dateTime": 1512760765947, "trialdata": {"rt": -1, "stimulus": "<p id=\"stim\">COD</p>", "key_press": -1, "type": "PRES_VIS", "word": "cod", "wordID": 339, "conditions": [24, 1600, "v", 24000], "trial": 6, "serialpos": 5, "trial_type": "single-stim", "trial_index": 242, "time_elapsed": 1337584, "internal_node_id": "0.0-179.0"}}, {"uniqueid": "MTK0796:3PMBY0YE28A66Q45LABHK7NZEIK9C3", "current_trial": 243, "dateTime": 1512760768470, "trialdata": {"rt": -1, "stimulus": "<p id=\"stim\">SCALLOP</p>", "key_press": -1, "type": "PRES_VIS", "word": "scallop", "wordID": 1241, "conditions": [24, 1600, "v", 24000], "trial": 6, "serialpos": 6, "trial_type": "single-stim", "trial_index": 243, "time_elapsed": 1340106, "internal_node_id": "0.0-180.0"}}, {"uniqueid": "MTK0796:3PMBY0YE28A66Q45LABHK7NZEIK9C3", "current_trial": 244, "dateTime": 1512760771216, "trialdata": {"rt": -1, "stimulus": "<p id=\"stim\">SALMON</p>", "key_press": -1, "type": "PRES_VIS", "word": "salmon", "wordID": 1226, "conditions": [24, 1600, "v", 24000], "trial": 6, "serialpos": 7, "trial_type": "single-stim", "trial_index": 244, "time_elapsed": 1342853, "internal_node_id": "0.0-181.0"}}, {"uniqueid": "MTK0796:3PMBY0YE28A66Q45LABHK7NZEIK9C3", "current_trial": 245, "dateTime": 1512760773694, "trialdata": {"rt": -1, "stimulus": "<p id=\"stim\">MUFFIN</p>", "key_press": -1, "type": "PRES_VIS", "word": "muffin", "wordID": 928, "conditions": [24, 1600, "v", 24000], "trial": 6, "serialpos": 8, "trial_type": "single-stim", "trial_index": 245, "time_elapsed": 1345331, "internal_node_id": "0.0-182.0"}}, {"uniqueid": "MTK0796:3PMBY0YE28A66Q45LABHK7NZEIK9C3", "current_trial": 246, "dateTime": 1512760776408, "trialdata": {"rt": -1, "stimulus": "<p id=\"stim\">LUGGAGE</p>", "key_press": -1, "type": "PRES_VIS", "word": "luggage", "wordID": 846, "conditions": [24, 1600, "v", 24000], "trial": 6, "serialpos": 9, "trial_type": "single-stim", "trial_index": 246, "time_elapsed": 1348044, "internal_node_id": "0.0-183.0"}}, {"uniqueid": "MTK0796:3PMBY0YE28A66Q45LABHK7NZEIK9C3", "current_trial": 247, "dateTime": 1512760779023, "trialdata": {"rt": -1, "stimulus": "<p id=\"stim\">POCKET</p>", "key_press": -1, "type": "PRES_VIS", "word": "pocket", "wordID": 1092, "conditions": [24, 1600, "v", 24000], "trial": 6, "serialpos": 10, "trial_type": "single-stim", "trial_index": 247, "time_elapsed": 1350660, "internal_node_id": "0.0-184.0"}}, {"uniqueid": "MTK0796:3PMBY0YE28A66Q45LABHK7NZEIK9C3", "current_trial": 248, "dateTime": 1512760781512, "trialdata": {"rt": -1, "stimulus": "<p id=\"stim\">LILY</p>", "key_press": -1, "type": "PRES_VIS", "word": "lily", "wordID": 820, "conditions": [24, 1600, "v", 24000], "trial": 6, "serialpos": 11, "trial_type": "single-stim", "trial_index": 248, "time_elapsed": 1353149, "internal_node_id": "0.0-185.0"}}, {"uniqueid": "MTK0796:3PMBY0YE28A66Q45LABHK7NZEIK9C3", "current_trial": 249, "dateTime": 1512760784124, "trialdata": {"rt": -1, "stimulus": "<p id=\"stim\">CABIN</p>", "key_press": -1, "type": "PRES_VIS", "word": "cabin", "wordID": 210, "conditions": [24, 1600, "v", 24000], "trial": 6, "serialpos": 12, "trial_type": "single-stim", "trial_index": 249, "time_elapsed": 1355761, "internal_node_id": "0.0-186.0"}}, {"uniqueid": "MTK0796:3PMBY0YE28A66Q45LABHK7NZEIK9C3", "current_trial": 250, "dateTime": 1512760786856, "trialdata": {"rt": -1, "stimulus": "<p id=\"stim\">HUSBAND</p>", "key_press": -1, "type": "PRES_VIS", "word": "husband", "wordID": 727, "conditions": [24, 1600, "v", 24000], "trial": 6, "serialpos": 13, "trial_type": "single-stim", "trial_index": 250, "time_elapsed": 1358493, "internal_node_id": "0.0-187.0"}}, {"uniqueid": "MTK0796:3PMBY0YE28A66Q45LABHK7NZEIK9C3", "current_trial": 251, "dateTime": 1512760789444, "trialdata": {"rt": -1, "stimulus": "<p id=\"stim\">GAVEL</p>", "key_press": -1, "type": "PRES_VIS", "word": "gavel", "wordID": 626, "conditions": [24, 1600, "v", 24000], "trial": 6, "serialpos": 14, "trial_type": "single-stim", "trial_index": 251, "time_elapsed": 1361081, "internal_node_id": "0.0-188.0"}}, {"uniqueid": "MTK0796:3PMBY0YE28A66Q45LABHK7NZEIK9C3", "current_trial": 252, "dateTime": 1512760791911, "trialdata": {"rt": -1, "stimulus": "<p id=\"stim\">JELLY</p>", "key_press": -1, "type": "PRES_VIS", "word": "jelly", "wordID": 754, "conditions": [24, 1600, "v", 24000], "trial": 6, "serialpos": 15, "trial_type": "single-stim", "trial_index": 252, "time_elapsed": 1363547, "internal_node_id": "0.0-189.0"}}, {"uniqueid": "MTK0796:3PMBY0YE28A66Q45LABHK7NZEIK9C3", "current_trial": 253, "dateTime": 1512760794441, "trialdata": {"rt": -1, "stimulus": "<p id=\"stim\">NAPKIN</p>", "key_press": -1, "type": "PRES_VIS", "word": "napkin", "wordID": 936, "conditions": [24, 1600, "v", 24000], "trial": 6, "serialpos": 16, "trial_type": "single-stim", "trial_index": 253, "time_elapsed": 1366078, "internal_node_id": "0.0-190.0"}}, {"uniqueid": "MTK0796:3PMBY0YE28A66Q45LABHK7NZEIK9C3", "current_trial": 254, "dateTime": 1512760796987, "trialdata": {"rt": -1, "stimulus": "<p id=\"stim\">GUITAR</p>", "key_press": -1, "type": "PRES_VIS", "word": "guitar", "wordID": 669, "conditions": [24, 1600, "v", 24000], "trial": 6, "serialpos": 17, "trial_type": "single-stim", "trial_index": 254, "time_elapsed": 1368624, "internal_node_id": "0.0-191.0"}}, {"uniqueid": "MTK0796:3PMBY0YE28A66Q45LABHK7NZEIK9C3", "current_trial": 255, "dateTime": 1512760799720, "trialdata": {"rt": -1, "stimulus": "<p id=\"stim\">SWAMP</p>", "key_press": -1, "type": "PRES_VIS", "word": "swamp", "wordID": 1415, "conditions": [24, 1600, "v", 24000], "trial": 6, "serialpos": 18, "trial_type": "single-stim", "trial_index": 255, "time_elapsed": 1371357, "internal_node_id": "0.0-192.0"}}, {"uniqueid": "MTK0796:3PMBY0YE28A66Q45LABHK7NZEIK9C3", "current_trial": 256, "dateTime": 1512760802522, "trialdata": {"rt": -1, "stimulus": "<p id=\"stim\">ZEBRA</p>", "key_press": -1, "type": "PRES_VIS", "word": "zebra", "wordID": 1634, "conditions": [24, 1600, "v", 24000], "trial": 6, "serialpos": 19, "trial_type": "single-stim", "trial_index": 256, "time_elapsed": 1374159, "internal_node_id": "0.0-193.0"}}, {"uniqueid": "MTK0796:3PMBY0YE28A66Q45LABHK7NZEIK9C3", "current_trial": 257, "dateTime": 1512760805289, "trialdata": {"rt": -1, "stimulus": "<p id=\"stim\">PANTHER</p>", "key_press": -1, "type": "PRES_VIS", "word": "panther", "wordID": 1008, "conditions": [24, 1600, "v", 24000], "trial": 6, "serialpos": 20, "trial_type": "single-stim", "trial_index": 257, "time_elapsed": 1376924, "internal_node_id": "0.0-194.0"}}, {"uniqueid": "MTK0796:3PMBY0YE28A66Q45LABHK7NZEIK9C3", "current_trial": 258, "dateTime": 1512760807718, "trialdata": {"rt": -1, "stimulus": "<p id=\"stim\">PADDLE</p>", "key_press": -1, "type": "PRES_VIS", "word": "paddle", "wordID": 999, "conditions": [24, 1600, "v", 24000], "trial": 6, "serialpos": 21, "trial_type": "single-stim", "trial_index": 258, "time_elapsed": 1379355, "internal_node_id": "0.0-195.0"}}, {"uniqueid": "MTK0796:3PMBY0YE28A66Q45LABHK7NZEIK9C3", "current_trial": 259, "dateTime": 1512760810480, "trialdata": {"rt": -1, "stimulus": "<p id=\"stim\">AUTHOR</p>", "key_press": -1, "type": "PRES_VIS", "word": "author", "wordID": 60, "conditions": [24, 1600, "v", 24000], "trial": 6, "serialpos": 22, "trial_type": "single-stim", "trial_index": 259, "time_elapsed": 1382117, "internal_node_id": "0.0-196.0"}}, {"uniqueid": "MTK0796:3PMBY0YE28A66Q45LABHK7NZEIK9C3", "current_trial": 260, "dateTime": 1512760813288, "trialdata": {"rt": -1, "stimulus": "<p id=\"stim\">BROTHER</p>", "key_press": -1, "type": "PRES_VIS", "word": "brother", "wordID": 178, "conditions": [24, 1600, "v", 24000], "trial": 6, "serialpos": 23, "trial_type": "single-stim", "trial_index": 260, "time_elapsed": 1384925, "internal_node_id": "0.0-197.0"}}, {"uniqueid": "MTK0796:3PMBY0YE28A66Q45LABHK7NZEIK9C3", "current_trial": 261, "dateTime": 1512760815466, "trialdata": {"rt": -1, "stimulus": "", "key_press": -1, "type": "PRE_RECALL_DELAY", "trial_type": "single-stim", "trial_index": 261, "time_elapsed": 1387103, "internal_node_id": "0.0-198.0-0.0"}}, {"uniqueid": "MTK0796:3PMBY0YE28A66Q45LABHK7NZEIK9C3", "current_trial": 262, "dateTime": 1512760815968, "trialdata": {"rt": -1000, "stimulus": "/static/audio/400Hz.wav", "key_press": -1, "type": "PRE_RECALL_ALERT", "trial_type": "single-audio", "trial_index": 262, "time_elapsed": 1387604, "internal_node_id": "0.0-199.0"}}, {"uniqueid": "MTK0796:3PMBY0YE28A66Q45LABHK7NZEIK9C3", "current_trial": 263, "dateTime": 1512760875983, "trialdata": {"rt": [4675, 6292, 7684, 9057, 11847, 13457, 15808, 17053, 19626, 21966, 23564, 24991, 26696, 29308, 31751, 33911, 35972, 39620, 42043, 44689, 46335, 48310, 50293, 52009], "recwords": ["drink", "oyster", "flag", "rebel", "pebble", "cod", "scallop", "salmon", "muffin", "luggage", "pocket", "lily", "cabin", "husband", "cavel", "jelly", "napkin", "guitar", "swamp", "panther", "paddle", "authpr", "brother", "author"], "type": "FREE_RECALL", "conditions": [24, 1600, "v", 24000], "trial": 6, "trial_type": "free-recall", "trial_index": 263, "time_elapsed": 1447611, "internal_node_id": "0.0-200.0-0.0"}}, {"uniqueid": "MTK0796:3PMBY0YE28A66Q45LABHK7NZEIK9C3", "current_trial": 264, "dateTime": 1512760886266, "trialdata": {"rt": 8280, "key_press": 13, "type": "INSTRUCTIONS", "trial_type": "text", "trial_index": 264, "time_elapsed": 1457902, "internal_node_id": 