{"condition": 0, "counterbalance": 2638, "assignmentId": "3GU1KF0O4J88O8S6OZBJVDHW144BP1", "workerId": "MTK0985", "hitId": "3ZQA3IO31BYN3Q0JH00DBH3DPFV1OY", "currenttrial": 626, "bonus": 0, "data": [{"uniqueid": "MTK0985:3GU1KF0O4J88O8S6OZBJVDHW144BP1", "current_trial": 0, "dateTime": 1512949354542, "trialdata": {"rt": 7570, "key_press": 72, "type": "INSTRUCTIONS", "trial_type": "text", "trial_index": 0, "time_elapsed": 7572, "internal_node_id": "0.0-0.0"}}, {"uniqueid": "MTK0985:3GU1KF0O4J88O8S6OZBJVDHW144BP1", "current_trial": 1, "dateTime": 1512949354546, "trialdata": {"rt": 3, "key_press": 74, "type": "INSTRUCTIONS", "trial_type": "text", "trial_index": 1, "time_elapsed": 7577, "internal_node_id": "0.0-1.0"}}, {"uniqueid": "MTK0985:3GU1KF0O4J88O8S6OZBJVDHW144BP1", "current_trial": 2, "dateTime": 1512949367933, "trialdata": {"rt": [13378], "responses": ["ocean"], "type": "AUDIO_TEST", "trial_type": "audio-test", "trial_index": 2, "time_elapsed": 20964, "internal_node_id": "0.0-2.0"}}, {"uniqueid": "MTK0985:3GU1KF0O4J88O8S6OZBJVDHW144BP1", "current_trial": 3, "dateTime": 1512949373421, "trialdata": {"rt": [5483], "responses": ["crystal"], "type": "AUDIO_TEST", "trial_type": "audio-test", "trial_index": 3, "time_elapsed": 26452, "internal_node_id": "0.0-3.0"}}, {"uniqueid": "MTK0985:3GU1KF0O4J88O8S6OZBJVDHW144BP1", "current_trial": 4, "dateTime": 1512949385108, "trialdata": {"rt": [11683], "responses": ["spice"], "type": "AUDIO_TEST", "trial_type": "audio-test", "trial_index": 4, "time_elapsed": 38139, "internal_node_id": "0.0-4.0"}}, {"uniqueid": "MTK0985:3GU1KF0O4J88O8S6OZBJVDHW144BP1", "current_trial": 5, "dateTime": 1512949417203, "trialdata": {"rt": 31343, "responses": "{\"Q0\":\"11pm\",\"Q1\":\"7am\",\"Q2\":\"5\"}", "type": "SLEEP_SURVEY", "trial_type": "survey-text", "trial_index": 5, "time_elapsed": 70234, "internal_node_id": "0.0-5.0"}}, {"uniqueid": "MTK0985:3GU1KF0O4J88O8S6OZBJVDHW144BP1", "current_trial": 6, "dateTime": 1512949453308, "trialdata": {"rt": 35104, "key_press": 75, "type": "INSTRUCTIONS", "trial_type": "text", "trial_index": 6, "time_elapsed": 106339, "internal_node_id": "0.0-6.0"}}, {"uniqueid": "MTK0985:3GU1KF0O4J88O8S6OZBJVDHW144BP1", "current_trial": 7, "dateTime": 1512949476203, "trialdata": {"rt": 22394, "key_press": 74, "type": "INSTRUCTIONS", "trial_type": "text", "trial_index": 7, "time_elapsed": 129234, "internal_node_id": "0.0-7.0"}}, {"uniqueid": "MTK0985:3GU1KF0O4J88O8S6OZBJVDHW144BP1", "current_trial": 8, "dateTime": 1512949511700, "trialdata": {"rt": 34996, "key_press": 74, "type": "INSTRUCTIONS", "trial_type": "text", "trial_index": 8, "time_elapsed": 164730, "internal_node_id": "0.0-8.0"}}, {"uniqueid": "MTK0985:3GU1KF0O4J88O8S6OZBJVDHW144BP1", "current_trial": 9, "dateTime": 1512949530705, "trialdata": {"rt": [5084, 8211, 11747, 17340], "responses": ["14", "8", "15", "18"], "num1": [3, 1, 6, 6, 4], "num2": [6, 3, 8, 9, 1], "num3": [5, 4, 1, 3, 2], "type": "DISTRACTOR", "conditions": [18, 1200, "v", 18000], "trial": 0, "trial_type": "math-distractor", "trial_index": 9, "time_elapsed": 183736, "internal_node_id": "0.0-9.0"}}, {"uniqueid": "MTK0985:3GU1KF0O4J88O8S6OZBJVDHW144BP1", "current_trial": 10, "dateTime": 1512949533707, "trialdata": {"rt": -1, "stimulus": "<p id=\"stim\">10</p>", "key_press": -1, "trial_type": "single-stim", "trial_index": 10, "time_elapsed": 186737, "internal_node_id": "0.0-10.0-0.0"}}, {"uniqueid": "MTK0985:3GU1KF0O4J88O8S6OZBJVDHW144BP1", "current_trial": 11, "dateTime": 1512949534708, "trialdata": {"rt": -1, "stimulus": "<p id=\"stim\">9</p>", "key_press": -1, "trial_type": "single-stim", "trial_index": 11, "time_elapsed": 187739, "internal_node_id": "0.0-10.0-1.0"}}, {"uniqueid": "MTK0985:3GU1KF0O4J88O8S6OZBJVDHW144BP1", "current_trial": 12, "dateTime": 1512949535709, "trialdata": {"rt": -1, "stimulus": "<p id=\"stim\">8</p>", "key_press": -1, "trial_type": "single-stim", "trial_index": 12, "time_elapsed": 188740, "internal_node_id": "0.0-10.0-2.0"}}, {"uniqueid": "MTK0985:3GU1KF0O4J88O8S6OZBJVDHW144BP1", "current_trial": 13, "dateTime": 1512949536710, "trialdata": {"rt": -1, "stimulus": "<p id=\"stim\">7</p>", "key_press": -1, "trial_type": "single-stim", "trial_index": 13, "time_elapsed": 189741, "internal_node_id": "0.0-10.0-3.0"}}, {"uniqueid": "MTK0985:3GU1KF0O4J88O8S6OZBJVDHW144BP1", "current_trial": 14, "dateTime": 1512949537710, "trialdata": {"rt": -1, "stimulus": "<p id=\"stim\">6</p>", "key_press": -1, "trial_type": "single-stim", "trial_index": 14, "time_elapsed": 190741, "internal_node_id": "0.0-10.0-4.0"}}, {"uniqueid": "MTK0985:3GU1KF0O4J88O8S6OZBJVDHW144BP1", "current_trial": 15, "dateTime": 1512949538711, "trialdata": {"rt": -1, "stimulus": "<p id=\"stim\">5</p>", "key_press": -1, "trial_type": "single-stim", "trial_index": 15, "time_elapsed": 191742, "internal_node_id": "0.0-10.0-5.0"}}, {"uniqueid": "MTK0985:3GU1KF0O4J88O8S6OZBJVDHW144BP1", "current_trial": 16, "dateTime": 1512949539711, "trialdata": {"rt": -1, "stimulus": "<p id=\"stim\">4</p>", "key_press": -1, "trial_type": "single-stim", "trial_index": 16, "time_elapsed": 192742, "internal_node_id": "0.0-10.0-6.0"}}, {"uniqueid": "MTK0985:3GU1KF0O4J88O8S6OZBJVDHW144BP1", "current_trial": 17, "dateTime": 1512949540711, "trialdata": {"rt": -1, "stimulus": "<p id=\"stim\">3</p>", "key_press": -1, "trial_type": "single-stim", "trial_index": 17, "time_elapsed": 193742, "internal_node_id": "0.0-10.0-7.0"}}, {"uniqueid": "MTK0985:3GU1KF0O4J88O8S6OZBJVDHW144BP1", "current_trial": 18, "dateTime": 1512949541711, "trialdata": {"rt": -1, "stimulus": "<p id=\"stim\">2</p>", "key_press": -1, "trial_type": "single-stim", "trial_index": 18, "time_elapsed": 194742, "internal_node_id": "0.0-10.0-8.0"}}, {"uniqueid": "MTK0985:3GU1KF0O4J88O8S6OZBJVDHW144BP1", "current_trial": 19, "dateTime": 1512949542711, "trialdata": {"rt": -1, "stimulus": "<p id=\"stim\">1</p>", "key_press": -1, "trial_type": "single-stim", "trial_index": 19, "time_elapsed": 195742, "internal_node_id": "0.0-10.0-9.0"}}, {"uniqueid": "MTK0985:3GU1KF0O4J88O8S6OZBJVDHW144BP1", "current_trial": 20, "dateTime": 1512949544211, "trialdata": {"rt": -1, "stimulus": "<p id=\"stim\">+</p>", "key_press": -1, "type": "FIXATION", "trial_type": "single-stim", "trial_index": 20, "time_elapsed": 197242, "internal_node_id": "0.0-11.0-0.0"}}, {"uniqueid": "MTK0985:3GU1KF0O4J88O8S6OZBJVDHW144BP1", "current_trial": 21, "dateTime": 1512949545413, "trialdata": {"rt": -1, "stimulus": "<p id=\"stim\">JUDGE</p>", "key_press": -1, "type": "PRES_VIS", "word": "judge", "wordID": 760, "conditions": [18, 1200, "v", 18000], "trial": 0, "serialpos": 0, "trial_type": "single-stim", "trial_index": 21, "time_elapsed": 198444, "internal_node_id": "0.0-12.0"}}, {"uniqueid": "MTK0985:3GU1KF0O4J88O8S6OZBJVDHW144BP1", "current_trial": 22, "dateTime": 1512949547805, "trialdata": {"rt": -1, "stimulus": "<p id=\"stim\">SHORTCAKE</p>", "key_press": -1, "type": "PRES_VIS", "word": "shortcake", "wordID": 1291, "conditions": [18, 1200, "v", 18000], "trial": 0, "serialpos": 1, "trial_type": "single-stim", "trial_index": 22, "time_elapsed": 200836, "internal_node_id": "0.0-13.0"}}, {"uniqueid": "MTK0985:3GU1KF0O4J88O8S6OZBJVDHW144BP1", "current_trial": 23, "dateTime": 1512949549952, "trialdata": {"rt": -1, "stimulus": "<p id=\"stim\">CANAL</p>", "key_press": -1, "type": "PRES_VIS", "word": "canal", "wordID": 225, "conditions": [18, 1200, "v", 18000], "trial": 0, "serialpos": 2, "trial_type": "single-stim", "trial_index": 23, "time_elapsed": 202983, "internal_node_id": "0.0-14.0"}}, {"uniqueid": "MTK0985:3GU1KF0O4J88O8S6OZBJVDHW144BP1", "current_trial": 24, "dateTime": 1512949552006, "trialdata": {"rt": -1, "stimulus": "<p id=\"stim\">BACKBONE</p>", "key_press": -1, "type": "PRES_VIS", "word": "backbone", "wordID": 65, "conditions": [18, 1200, "v", 18000], "trial": 0, "serialpos": 3, "trial_type": "single-stim", "trial_index": 24, "time_elapsed": 205037, "internal_node_id": "0.0-15.0"}}, {"uniqueid": "MTK0985:3GU1KF0O4J88O8S6OZBJVDHW144BP1", "current_trial": 25, "dateTime": 1512949554127, "trialdata": {"rt": -1, "stimulus": "<p id=\"stim\">PISTON</p>", "key_press": -1, "type": "PRES_VIS", "word": "piston", "wordID": 1075, "conditions": [18, 1200, "v", 18000], "trial": 0, "serialpos": 4, "trial_type": "single-stim", "trial_index": 25, "time_elapsed": 207158, "internal_node_id": "0.0-16.0"}}, {"uniqueid": "MTK0985:3GU1KF0O4J88O8S6OZBJVDHW144BP1", "current_trial": 26, "dateTime": 1512949556366, "trialdata": {"rt": -1, "stimulus": "<p id=\"stim\">APRON</p>", "key_press": -1, "type": "PRES_VIS", "word": "apron", "wordID": 34, "conditions": [18, 1200, "v", 18000], "trial": 0, "serialpos": 5, "trial_type": "single-stim", "trial_index": 26, "time_elapsed": 209397, "internal_node_id": "0.0-17.0"}}, {"uniqueid": "MTK0985:3GU1KF0O4J88O8S6OZBJVDHW144BP1", "current_trial": 27, "dateTime": 1512949558631, "trialdata": {"rt": -1, "stimulus": "<p id=\"stim\">KEEPER</p>", "key_press": -1, "type": "PRES_VIS", "word": "keeper", "wordID": 768, "conditions": [18, 1200, "v", 18000], "trial": 0, "serialpos": 6, "trial_type": "single-stim", "trial_index": 27, "time_elapsed": 211662, "internal_node_id": "0.0-18.0"}}, {"uniqueid": "MTK0985:3GU1KF0O4J88O8S6OZBJVDHW144BP1", "current_trial": 28, "dateTime": 1512949561002, "trialdata": {"rt": -1, "stimulus": "<p id=\"stim\">COTTAGE</p>", "key_press": -1, "type": "PRES_VIS", "word": "cottage", "wordID": 383, "conditions": [18, 1200, "v", 18000], "trial": 0, "serialpos": 7, "trial_type": "single-stim", "trial_index": 28, "time_elapsed": 214033, "internal_node_id": "0.0-19.0"}}, {"uniqueid": "MTK0985:3GU1KF0O4J88O8S6OZBJVDHW144BP1", "current_trial": 29, "dateTime": 1512949563020, "trialdata": {"rt": -1, "stimulus": "<p id=\"stim\">SUNSET</p>", "key_press": -1, "type": "PRES_VIS", "word": "sunset", "wordID": 1407, "conditions": [18, 1200, "v", 18000], "trial": 0, "serialpos": 8, "trial_type": "single-stim", "trial_index": 29, "time_elapsed": 216051, "internal_node_id": "0.0-20.0"}}, {"uniqueid": "MTK0985:3GU1KF0O4J88O8S6OZBJVDHW144BP1", "current_trial": 30, "dateTime": 1512949565265, "trialdata": {"rt": -1, "stimulus": "<p id=\"stim\">TRACTOR</p>", "key_press": -1, "type": "PRES_VIS", "word": "tractor", "wordID": 1492, "conditions": [18, 1200, "v", 18000], "trial": 0, "serialpos": 9, "trial_type": "single-stim", "trial_index": 30, "time_elapsed": 218296, "internal_node_id": "0.0-21.0"}}, {"uniqueid": "MTK0985:3GU1KF0O4J88O8S6OZBJVDHW144BP1", "current_trial": 31, "dateTime": 1512949567578, "trialdata": {"rt": -1, "stimulus": "<p id=\"stim\">BLOCKADE</p>", "key_press": -1, "type": "PRES_VIS", "word": "blockade", "wordID": 136, "conditions": [18, 1200, "v", 18000], "trial": 0, "serialpos": 10, "trial_type": "single-stim", "trial_index": 31, "time_elapsed": 220609, "internal_node_id": "0.0-22.0"}}, {"uniqueid": "MTK0985:3GU1KF0O4J88O8S6OZBJVDHW144BP1", "current_trial": 32, "dateTime": 1512949569673, "trialdata": {"rt": -1, "stimulus": "<p id=\"stim\">NIGHTGOWN</p>", "key_press": -1, "type": "PRES_VIS", "word": "nightgown", "wordID": 952, "conditions": [18, 1200, "v", 18000], "trial": 0, "serialpos": 11, "trial_type": "single-stim", "trial_index": 32, "time_elapsed": 222704, "internal_node_id": "0.0-23.0"}}, {"uniqueid": "MTK0985:3GU1KF0O4J88O8S6OZBJVDHW144BP1", "current_trial": 33, "dateTime": 1512949571701, "trialdata": {"rt": -1, "stimulus": "<p id=\"stim\">HUSBAND</p>", "key_press": -1, "type": "PRES_VIS", "word": "husband", "wordID": 727, "conditions": [18, 1200, "v", 18000], "trial": 0, "serialpos": 12, "trial_type": "single-stim", "trial_index": 33, "time_elapsed": 224731, "internal_node_id": "0.0-24.0"}}, {"uniqueid": "MTK0985:3GU1KF0O4J88O8S6OZBJVDHW144BP1", "current_trial": 34, "dateTime": 1512949573916, "trialdata": {"rt": -1, "stimulus": "<p id=\"stim\">PIMPLE</p>", "key_press": -1, "type": "PRES_VIS", "word": "pimple", "wordID": 1070, "conditions": [18, 1200, "v", 18000], "trial": 0, "serialpos": 13, "trial_type": "single-stim", "trial_index": 34, "time_elapsed": 226947, "internal_node_id": "0.0-25.0"}}, {"uniqueid": "MTK0985:3GU1KF0O4J88O8S6OZBJVDHW144BP1", "current_trial": 35, "dateTime": 1512949576015, "trialdata": {"rt": -1, "stimulus": "<p id=\"stim\">DIVER</p>", "key_press": -1, "type": "PRES_VIS", "word": "diver", "wordID": 475, "conditions": [18, 1200, "v", 18000], "trial": 0, "serialpos": 14, "trial_type": "single-stim", "trial_index": 35, "time_elapsed": 229046, "internal_node_id": "0.0-26.0"}}, {"uniqueid": "MTK0985:3GU1KF0O4J88O8S6OZBJVDHW144BP1", "current_trial": 36, "dateTime": 1512949578275, "trialdata": {"rt": -1, "stimulus": "<p id=\"stim\">TABLET</p>", "key_press": -1, "type": "PRES_VIS", "word": "tablet", "wordID": 1426, "conditions": [18, 1200, "v", 18000], "trial": 0, "serialpos": 15, "trial_type": "single-stim", "trial_index": 36, "time_elapsed": 231306, "internal_node_id": "0.0-27.0"}}, {"uniqueid": "MTK0985:3GU1KF0O4J88O8S6OZBJVDHW144BP1", "current_trial": 37, "dateTime": 1512949580549, "trialdata": {"rt": -1, "stimulus": "<p id=\"stim\">ORANGE</p>", "key_press": -1, "type": "PRES_VIS", "word": "orange", "wordID": 979, "conditions": [18, 1200, "v", 18000], "trial": 0, "serialpos": 16, "trial_type": "single-stim", "trial_index": 37, "time_elapsed": 233580, "internal_node_id": "0.0-28.0"}}, {"uniqueid": "MTK0985:3GU1KF0O4J88O8S6OZBJVDHW144BP1", "current_trial": 38, "dateTime": 1512949582695, "trialdata": {"rt": -1, "stimulus": "<p id=\"stim\">RATTLE</p>", "key_press": -1, "type": "PRES_VIS", "word": "rattle", "wordID": 1169, "conditions": [18, 1200, "v", 18000], "trial": 0, "serialpos": 17, "trial_type": "single-stim", "trial_index": 38, "time_elapsed": 235726, "internal_node_id": "0.0-29.0"}}, {"uniqueid": "MTK0985:3GU1KF0O4J88O8S6OZBJVDHW144BP1", "current_trial": 39, "dateTime": 1512949584838, "trialdata": {"rt": -1, "stimulus": "", "key_press": -1, "type": "PRE_RECALL_DELAY", "trial_type": "single-stim", "trial_index": 39, "time_elapsed": 237869, "internal_node_id": "0.0-30.0-0.0"}}, {"uniqueid": "MTK0985:3GU1KF0O4J88O8S6OZBJVDHW144BP1", "current_trial": 40, "dateTime": 1512949585340, "trialdata": {"rt": -1000, "stimulus": "/static/audio/400Hz.wav", "key_press": -1, "type": "PRE_RECALL_ALERT", "trial_type": "single-audio", "trial_index": 40, "time_elapsed": 238371, "internal_node_id": "0.0-31.0"}}, {"uniqueid": "MTK0985:3GU1KF0O4J88O8S6OZBJVDHW144BP1", "current_trial": 41, "dateTime": 1512949645344, "trialdata": {"rt": [2535, 3782, 4870, 5950, 7342, 8630, 9662, 12446, 22830, 24006, 25958, 33870, 45518, 52741], "recwords": ["rattle", "orange", "tractor", "husband", "pimple", "piston", "apron", "judge", "canal", "shortcake", "diver", "keeper", "", "kettle"], "type": "FREE_RECALL", "conditions": [18, 1200, "v", 18000], "trial": 0, "trial_type": "free-recall", "trial_index": 41, "time_elapsed": 298373, "internal_node_id": "0.0-32.0-0.0"}}, {"uniqueid": "MTK0985:3GU1KF0O4J88O8S6OZBJVDHW144BP1", "current_trial": 42, "dateTime": 1512949649053, "trialdata": {"rt": 1708, "key_press": 75, "type": "INSTRUCTIONS", "trial_type": "text", "trial_index": 42, "time_elapsed": 302084, "internal_node_id": "0.0-33.0"}}, {"uniqueid": "MTK0985:3GU1KF0O4J88O8S6OZBJVDHW144BP1", "current_trial": 43, "dateTime": 1512949669055, "trialdata": {"rt": [3525, 10301, 13045, 15125, 17205], "responses": ["24", "23", "14", "18", "12"], "num1": [9, 6, 6, 7, 7, 1], "num2": [9, 9, 3, 7, 3, 8], "num3": [6, 8, 5, 4, 2, 1], "type": "DISTRACTOR", "conditions": [18, 1200, "a", 18000], "trial": 1, "trial_type": "math-distractor", "trial_index": 43, "time_elapsed": 322085, "internal_node_id": "0.0-34.0"}}, {"uniqueid": "MTK0985:3GU1KF0O4J88O8S6OZBJVDHW144BP1", "current_trial": 44, "dateTime": 1512949672055, "trialdata": {"rt": -1, "stimulus": "<p id=\"stim\">10</p>", "key_press": -1, "trial_type": "single-stim", "trial_index": 44, "time_elapsed": 325086, "internal_node_id": "0.0-35.0-0.0"}}, {"uniqueid": "MTK0985:3GU1KF0O4J88O8S6OZBJVDHW144BP1", "current_trial": 45, "dateTime": 1512949673055, "trialdata": {"rt": -1, "stimulus": "<p id=\"stim\">9</p>", "key_press": -1, "trial_type": "single-stim", "trial_index": 45, "time_elapsed": 326086, "internal_node_id": "0.0-35.0-1.0"}}, {"uniqueid": "MTK0985:3GU1KF0O4J88O8S6OZBJVDHW144BP1", "current_trial": 46, "dateTime": 1512949674056, "trialdata": {"rt": -1, "stimulus": "<p id=\"stim\">8</p>", "key_press": -1, "trial_type": "single-stim", "trial_index": 46, "time_elapsed": 327087, "internal_node_id": "0.0-35.0-2.0"}}, {"uniqueid": "MTK0985:3GU1KF0O4J88O8S6OZBJVDHW144BP1", "current_trial": 47, "dateTime": 1512949675058, "trialdata": {"rt": -1, "stimulus": "<p id=\"stim\">7</p>", "key_press": -1, "trial_type": "single-stim", "trial_index": 47, "time_elapsed": 328089, "internal_node_id": "0.0-35.0-3.0"}}, {"uniqueid": "MTK0985:3GU1KF0O4J88O8S6OZBJVDHW144BP1", "current_trial": 48, "dateTime": 1512949676059, "trialdata": {"rt": -1, "stimulus": "<p id=\"stim\">6</p>", "key_press": -1, "trial_type": "single-stim", "trial_index": 48, "time_elapsed": 329090, "internal_node_id": "0.0-35.0-4.0"}}, {"uniqueid": "MTK0985:3GU1KF0O4J88O8S6OZBJVDHW144BP1", "current_trial": 49, "dateTime": 1512949677060, "trialdata": {"rt": -1, "stimulus": "<p id=\"stim\">5</p>", "key_press": -1, "trial_type": "single-stim", "trial_index": 49, "time_elapsed": 330091, "internal_node_id": "0.0-35.0-5.0"}}, {"uniqueid": "MTK0985:3GU1KF0O4J88O8S6OZBJVDHW144BP1", "current_trial": 50, "dateTime": 1512949678061, "trialdata": {"rt": -1, "stimulus": "<p id=\"stim\">4</p>", "key_press": -1, "trial_type": "single-stim", "trial_index": 50, "time_elapsed": 331092, "internal_node_id": "0.0-35.0-6.0"}}, {"uniqueid": "MTK0985:3GU1KF0O4J88O8S6OZBJVDHW144BP1", "current_trial": 51, "dateTime": 1512949679061, "trialdata": {"rt": -1, "stimulus": "<p id=\"stim\">3</p>", "key_press": -1, "trial_type": "single-stim", "trial_index": 51, "time_elapsed": 332092, "internal_node_id": "0.0-35.0-7.0"}}, {"uniqueid": "MTK0985:3GU1KF0O4J88O8S6OZBJVDHW144BP1", "current_trial": 52, "dateTime": 1512949680062, "trialdata": {"rt": -1, "stimulus": "<p id=\"stim\">2</p>", "key_press": -1, "trial_type": "single-stim", "trial_index": 52, "time_elapsed": 333093, "internal_node_id": "0.0-35.0-8.0"}}, {"uniqueid": "MTK0985:3GU1KF0O4J88O8S6OZBJVDHW144BP1", "current_trial": 53, "dateTime": 1512949681063, "trialdata": {"rt": -1, "stimulus": "<p id=\"stim\">1</p>", "key_press": -1, "trial_type": "single-stim", "trial_index": 53, "time_elapsed": 334094, "internal_node_id": "0.0-35.0-9.0"}}, {"uniqueid": "MTK0985:3GU1KF0O4J88O8S6OZBJVDHW144BP1", "current_trial": 54, "dateTime": 1512949682564, "trialdata": {"rt": -1, "stimulus": "<p id=\"stim\">+</p>", "key_press": -1, "type": "FIXATION", "trial_type": "single-stim", "trial_index": 54, "time_elapsed": 335595, "internal_node_id": "0.0-36.0-0.0"}}, {"uniqueid": "MTK0985:3GU1KF0O4J88O8S6OZBJVDHW144BP1", "current_trial": 55, "dateTime": 1512949684730, "trialdata": {"rt": -1000, "stimulus": "/static/audio/wordpool/SCOTCH.wav", "key_press": -1, "type": "PRES_AUD", "word": "scotch", "wordID": 1250, "conditions": [18, 1200, "a", 18000], "trial": 1, "serialpos": 0, "trial_type": "single-audio", "trial_index": 55, "time_elapsed": 337761, "internal_node_id": "0.0-37.0"}}, {"uniqueid": "MTK0985:3GU1KF0O4J88O8S6OZBJVDHW144BP1", "current_trial": 56, "dateTime": 1512949686804, "trialdata": {"rt": -1000, "stimulus": "/static/audio/wordpool/PUPPY.wav", "key_press": -1, "type": "PRES_AUD", "word": "puppy", "wordID": 1143, "conditions": [18, 1200, "a", 18000], "trial": 1, "serialpos": 1, "trial_type": "single-audio", "trial_index": 56, "time_elapsed": 339835, "internal_node_id": "0.0-38.0"}}, {"uniqueid": "MTK0985:3GU1KF0O4J88O8S6OZBJVDHW144BP1", "current_trial": 57, "dateTime": 1512949688830, "trialdata": {"rt": -1000, "stimulus": "/static/audio/wordpool/TEACHER.wav", "key_press": -1, "type": "PRES_AUD", "word": "teacher", "wordID": 1439, "conditions": [18, 1200, "a", 18000], "trial": 1, "serialpos": 2, "trial_type": "single-audio", "trial_index": 57, "time_elapsed": 341861, "internal_node_id": "0.0-39.0"}}, {"uniqueid": "MTK0985:3GU1KF0O4J88O8S6OZBJVDHW144BP1", "current_trial": 58, "dateTime": 1512949691094, "trialdata": {"rt": -1000, "stimulus": "/static/audio/wordpool/DUSTPAN.wav", "key_press": -1, "type": "PRES_AUD", "word": "dustpan", "wordID": 508, "conditions": [18, 1200, "a", 18000], "trial": 1, "serialpos": 3, "trial_type": "single-audio", "trial_index": 58, "time_elapsed": 344124, "internal_node_id": "0.0-40.0"}}, {"uniqueid": "MTK0985:3GU1KF0O4J88O8S6OZBJVDHW144BP1", "current_trial": 59, "dateTime": 1512949693466, "trialdata": {"rt": -1000, "stimulus": "/static/audio/wordpool/WORLD.wav", "key_press": -1, "type": "PRES_AUD", "word": "world", "wordID": 1621, "conditions": [18, 1200, "a", 18000], "trial": 1, "serialpos": 4, "trial_type": "single-audio", "trial_index": 59, "time_elapsed": 346497, "internal_node_id": "0.0-41.0"}}, {"uniqueid": "MTK0985:3GU1KF0O4J88O8S6OZBJVDHW144BP1", "current_trial": 60, "dateTime": 1512949695664, "trialdata": {"rt": -1000, "stimulus": "/static/audio/wordpool/MOP.wav", "key_press": -1, "type": "PRES_AUD", "word": "mop", "wordID": 915, "conditions": [18, 1200, "a", 18000], "trial": 1, "serialpos": 5, "trial_type": "single-audio", "trial_index": 60, "time_elapsed": 348694, "internal_node_id": "0.0-42.0"}}, {"uniqueid": "MTK0985:3GU1KF0O4J88O8S6OZBJVDHW144BP1", "current_trial": 61, "dateTime": 1512949697874, "trialdata": {"rt": -1000, "stimulus": "/static/audio/wordpool/PASTA.wav", "key_press": -1, "type": "PRES_AUD", "word": "pasta", "wordID": 1020, "conditions": [18, 1200, "a", 18000], "trial": 1, "serialpos": 6, "trial_type": "single-audio", "trial_index": 61, "time_elapsed": 350905, "internal_node_id": "0.0-43.0"}}, {"uniqueid": "MTK0985:3GU1KF0O4J88O8S6OZBJVDHW144BP1", "current_trial": 62, "dateTime": 1512949699920, "trialdata": {"rt": -1000, "stimulus": "/static/audio/wordpool/MARSH.wav", "key_press": -1, "type": "PRES_AUD", "word": "marsh", "wordID": 873, "conditions": [18, 1200, "a", 18000], "trial": 1, "serialpos": 7, "trial_type": "single-audio", "trial_index": 62, "time_elapsed": 352951, "internal_node_id": "0.0-44.0"}}, {"uniqueid": "MTK0985:3GU1KF0O4J88O8S6OZBJVDHW144BP1", "current_trial": 63, "dateTime": 1512949702084, "trialdata": {"rt": -1000, "stimulus": "/static/audio/wordpool/CATCHER.wav", "key_press": -1, "type": "PRES_AUD", "word": "catcher", "wordID": 257, "conditions": [18, 1200, "a", 18000], "trial": 1, "serialpos": 8, "trial_type": "single-audio", "trial_index": 63, "time_elapsed": 355115, "internal_node_id": "0.0-45.0"}}, {"uniqueid": "MTK0985:3GU1KF0O4J88O8S6OZBJVDHW144BP1", "current_trial": 64, "dateTime": 1512949704409, "trialdata": {"rt": -1000, "stimulus": "/static/audio/wordpool/QUAIL.wav", "key_press": -1, "type": "PRES_AUD", "word": "quail", "wordID": 1146, "conditions": [18, 1200, "a", 18000], "trial": 1, "serialpos": 9, "trial_type": "single-audio", "trial_index": 64, "time_elapsed": 357440, "internal_node_id": "0.0-46.0"}}, {"uniqueid": "MTK0985:3GU1KF0O4J88O8S6OZBJVDHW144BP1", "current_trial": 65, "dateTime": 1512949706600, "trialdata": {"rt": -1000, "stimulus": "/static/audio/wordpool/DRILL.wav", "key_press": -1, "type": "PRES_AUD", "word": "drill", "wordID": 496, "conditions": [18, 1200, "a", 18000], "trial": 1, "serialpos": 10, "trial_type": "single-audio", "trial_index": 65, "time_elapsed": 359631, "internal_node_id": "0.0-47.0"}}, {"uniqueid": "MTK0985:3GU1KF0O4J88O8S6OZBJVDHW144BP1", "current_trial": 66, "dateTime": 1512949708810, "trialdata": {"rt": -1000, "stimulus": "/static/audio/wordpool/PREACHER.wav", "key_press": -1, "type": "PRES_AUD", "word": "preacher", "wordID": 1118, "conditions": [18, 1200, "a", 18000], "trial": 1, "serialpos": 11, "trial_type": "single-audio", "trial_index": 66, "time_elapsed": 361841, "internal_node_id": "0.0-48.0"}}, {"uniqueid": "MTK0985:3GU1KF0O4J88O8S6OZBJVDHW144BP1", "current_trial": 67, "dateTime": 1512949710913, "trialdata": {"rt": -1000, "stimulus": "/static/audio/wordpool/EXPERT.wav", "key_press": -1, "type": "PRES_AUD", "word": "expert", "wordID": 542, "conditions": [18, 1200, "a", 18000], "trial": 1, "serialpos": 12, "trial_type": "single-audio", "trial_index": 67, "time_elapsed": 363944, "internal_node_id": "0.0-49.0"}}, {"uniqueid": "MTK0985:3GU1KF0O4J88O8S6OZBJVDHW144BP1", "current_trial": 68, "dateTime": 1512949713236, "trialdata": {"rt": -1000, "stimulus": "/static/audio/wordpool/UMPIRE.wav", "key_press": -1, "type": "PRES_AUD", "word": "umpire", "wordID": 1534, "conditions": [18, 1200, "a", 18000], "trial": 1, "serialpos": 13, "trial_type": "single-audio", "trial_index": 68, "time_elapsed": 366266, "internal_node_id": "0.0-50.0"}}, {"uniqueid": "MTK0985:3GU1KF0O4J88O8S6OZBJVDHW144BP1", "current_trial": 69, "dateTime": 1512949715458, "trialdata": {"rt": -1000, "stimulus": "/static/audio/wordpool/PADDLE.wav", "key_press": -1, "type": "PRES_AUD", "word": "paddle", "wordID": 999, "conditions": [18, 1200, "a", 18000], "trial": 1, "serialpos": 14, "trial_type": "single-audio", "trial_index": 69, "time_elapsed": 368489, "internal_node_id": "0.0-51.0"}}, {"uniqueid": "MTK0985:3GU1KF0O4J88O8S6OZBJVDHW144BP1", "current_trial": 70, "dateTime": 1512949717516, "trialdata": {"rt": -1000, "stimulus": "/static/audio/wordpool/FLASHLIGHT.wav", "key_press": -1, "type": "PRES_AUD", "word": "flashlight", "wordID": 574, "conditions": [18, 1200, "a", 18000], "trial": 1, "serialpos": 15, "trial_type": "single-audio", "trial_index": 70, "time_elapsed": 370547, "internal_node_id": "0.0-52.0"}}, {"uniqueid": "MTK0985:3GU1KF0O4J88O8S6OZBJVDHW144BP1", "current_trial": 71, "dateTime": 1512949719744, "trialdata": {"rt": -1000, "stimulus": "/static/audio/wordpool/CLAMP.wav", "key_press": -1, "type": "PRES_AUD", "word": "clamp", "wordID": 315, "conditions": [18, 1200, "a", 18000], "trial": 1, "serialpos": 16, "trial_type": "single-audio", "trial_index": 71, "time_elapsed": 372775, "internal_node_id": "0.0-53.0"}}, {"uniqueid": "MTK0985:3GU1KF0O4J88O8S6OZBJVDHW144BP1", "current_trial": 72, "dateTime": 1512949722053, "trialdata": {"rt": -1000, "stimulus": "/static/audio/wordpool/SUITCASE.wav", "key_press": -1, "type": "PRES_AUD", "word": "suitcase", "wordID": 1402, "conditions": [18, 1200, "a", 18000], "trial": 1, "serialpos": 17, "trial_type": "single-audio", "trial_index": 72, "time_elapsed": 375084, "internal_node_id": "0.0-54.0"}}, {"uniqueid": "MTK0985:3GU1KF0O4J88O8S6OZBJVDHW144BP1", "current_trial": 73, "dateTime": 1512949723381, "trialdata": {"rt": -1, "stimulus": "", "key_press": -1, "type": "PRE_RECALL_DELAY", "trial_type": "single-stim", "trial_index": 73, "time_elapsed": 376412, "internal_node_id": "0.0-55.0-0.0"}}, {"uniqueid": "MTK0985:3GU1KF0O4J88O8S6OZBJVDHW144BP1", "current_trial": 74, "dateTime": 1512949723882, "trialdata": {"rt": -1000, "stimulus": "/static/audio/400Hz.wav", "key_press": -1, "type": "PRE_RECALL_ALERT", "trial_type": "single-audio", "trial_index": 74, "time_elapsed": 376913, "internal_node_id": "0.0-56.0"}}, {"uniqueid": "MTK0985:3GU1KF0O4J88O8S6OZBJVDHW144BP1", "current_trial": 75, "dateTime": 1512949783884, "trialdata": {"rt": [14305, 15640, 20632, 22585, 32744, 33833, 45895, 47695, 50720], "recwords": ["catcher", "umpire", "expert", "mop", "quail", "pasta", "umpire", "expert", "drill"], "type": "FREE_RECALL", "conditions": [18, 1200, "a", 18000], "trial": 1, "trial_type": "free-recall", "trial_index": 75, "time_elapsed": 436914, "internal_node_id": "0.0-57.0-0.0"}}, {"uniqueid": "MTK0985:3GU1KF0O4J88O8S6OZBJVDHW144BP1", "current_trial": 76, "dateTime": 1512949788126, "trialdata": {"rt": 2238, "key_press": 83, "type": "INSTRUCTIONS", "trial_type": "text", "trial_index": 76, "time_elapsed": 441154, "internal_node_id": "0.0-58.0"}}, {"uniqueid": "MTK0985:3GU1KF0O4J88O8S6OZBJVDHW144BP1", "current_trial": 77, "dateTime": 1512949813129, "trialdata": {"rt": [3115, 5394, 7442, 9578, 12858, 16227, 18202, 20306, 22690], "responses": ["14", "19", "12", "10", "9", "21", "13", "17", "14"], "num1": [8, 7, 4, 2, 4, 7, 6, 3, 7, 8], "num2": [3, 6, 4, 6, 2, 8, 4, 7, 1, 1], "num3": [3, 6, 4, 2, 3, 6, 3, 7, 6, 7], "type": "DISTRACTOR", "conditions": [24, 800, "v", 24000], "trial": 2, "trial_type": "math-distractor", "trial_index": 77, "time_elapsed": 466159, "internal_node_id": "0.0-59.0"}}, {"uniqueid": "MTK0985:3GU1KF0O4J88O8S6OZBJVDHW144BP1", "current_trial": 78, "dateTime": 1512949816129, "trialdata": {"rt": -1, "stimulus": "<p id=\"stim\">10</p>", "key_press": -1, "trial_type": "single-stim", "trial_index": 78, "time_elapsed": 469160, "internal_node_id": "0.0-60.0-0.0"}}, {"uniqueid": "MTK0985:3GU1KF0O4J88O8S6OZBJVDHW144BP1", "current_trial": 79, "dateTime": 1512949817129, "trialdata": {"rt": -1, "stimulus": "<p id=\"stim\">9</p>", "key_press": -1, "trial_type": "single-stim", "trial_index": 79, "time_elapsed": 470160, "internal_node_id": "0.0-60.0-1.0"}}, {"uniqueid": "MTK0985:3GU1KF0O4J88O8S6OZBJVDHW144BP1", "current_trial": 80, "dateTime": 1512949818129, "trialdata": {"rt": -1, "stimulus": "<p id=\"stim\">8</p>", "key_press": -1, "trial_type": "single-stim", "trial_index": 80, "time_elapsed": 471160, "internal_node_id": "0.0-60.0-2.0"}}, {"uniqueid": "MTK0985:3GU1KF0O4J88O8S6OZBJVDHW144BP1", "current_trial": 81, "dateTime": 1512949819130, "trialdata": {"rt": -1, "stimulus": "<p id=\"stim\">7</p>", "key_press": -1, "trial_type": "single-stim", "trial_index": 81, "time_elapsed": 472161, "internal_node_id": "0.0-60.0-3.0"}}, {"uniqueid": "MTK0985:3GU1KF0O4J88O8S6OZBJVDHW144BP1", "current_trial": 82, "dateTime": 1512949820131, "trialdata": {"rt": -1, "stimulus": "<p id=\"stim\">6</p>", "key_press": -1, "trial_type": "single-stim", "trial_index": 82, "time_elapsed": 473162, "internal_node_id": "0.0-60.0-4.0"}}, {"uniqueid": "MTK0985:3GU1KF0O4J88O8S6OZBJVDHW144BP1", "current_trial": 83, "dateTime": 1512949821133, "trialdata": {"rt": -1, "stimulus": "<p id=\"stim\">5</p>", "key_press": -1, "trial_type": "single-stim", "trial_index": 83, "time_elapsed": 474164, "internal_node_id": "0.0-60.0-5.0"}}, {"uniqueid": "MTK0985:3GU1KF0O4J88O8S6OZBJVDHW144BP1", "current_trial": 84, "dateTime": 1512949822134, "trialdata": {"rt": -1, "stimulus": "<p id=\"stim\">4</p>", "key_press": -1, "trial_type": "single-stim", "trial_index": 84, "time_elapsed": 475165, "internal_node_id": "0.0-60.0-6.0"}}, {"uniqueid": "MTK0985:3GU1KF0O4J88O8S6OZBJVDHW144BP1", "current_trial": 85, "dateTime": 1512949823134, "trialdata": {"rt": -1, "stimulus": "<p id=\"stim\">3</p>", "key_press": -1, "trial_type": "single-stim", "trial_index": 85, "time_elapsed": 476165, "internal_node_id": "0.0-60.0-7.0"}}, {"uniqueid": "MTK0985:3GU1KF0O4J88O8S6OZBJVDHW144BP1", "current_trial": 86, "dateTime": 1512949824134, "trialdata": {"rt": -1, "stimulus": "<p id=\"stim\">2</p>", "key_press": -1, "trial_type": "single-stim", "trial_index": 86, "time_elapsed": 477165, "internal_node_id": "0.0-60.0-8.0"}}, {"uniqueid": "MTK0985:3GU1KF0O4J88O8S6OZBJVDHW144BP1", "current_trial": 87, "dateTime": 1512949825134, "trialdata": {"rt": -1, "stimulus": "<p id=\"stim\">1</p>", "key_press": -1, "trial_type": "single-stim", "trial_index": 87, "time_elapsed": 478165, "internal_node_id": "0.0-60.0-9.0"}}, {"uniqueid": "MTK0985:3GU1KF0O4J88O8S6OZBJVDHW144BP1", "current_trial": 88, "dateTime": 1512949826635, "trialdata": {"rt": -1, "stimulus": "<p id=\"stim\">+</p>", "key_press": -1, "type": "FIXATION", "trial_type": "single-stim", "trial_index": 88, "time_elapsed": 479666, "internal_node_id": "0.0-61.0-0.0"}}, {"uniqueid": "MTK0985:3GU1KF0O4J88O8S6OZBJVDHW144BP1", "current_trial": 89, "dateTime": 1512949827436, "trialdata": {"rt": -1, "stimulus": "<p id=\"stim\">GRAPE</p>", "key_press": -1, "type": "PRES_VIS", "word": "grape", "wordID": 653, "conditions": [24, 800, "v", 24000], "trial": 2, "serialpos": 0, "trial_type": "single-stim", "trial_index": 89, "time_elapsed": 480467, "internal_node_id": "0.0-62.0"}}, {"uniqueid": "MTK0985:3GU1KF0O4J88O8S6OZBJVDHW144BP1", "current_trial": 90, "dateTime": 1512949829107, "trialdata": {"rt": -1, "stimulus": "<p id=\"stim\">PATROL</p>", "key_press": -1, "type": "PRES_VIS", "word": "patrol", "wordID": 1026, "conditions": [24, 800, "v", 24000], "trial": 2, "serialpos": 1, "trial_type": "single-stim", "trial_index": 90, "time_elapsed": 482138, "internal_node_id": "0.0-63.0"}}, {"uniqueid": "MTK0985:3GU1KF0O4J88O8S6OZBJVDHW144BP1", "current_trial": 91, "dateTime": 1512949831040, "trialdata": {"rt": -1, "stimulus": "<p id=\"stim\">ACTOR</p>", "key_press": -1, "type": "PRES_VIS", "word": "actor", "wordID": 4, "conditions": [24, 800, "v", 24000], "trial": 2, "serialpos": 2, "trial_type": "single-stim", "trial_index": 91, "time_elapsed": 484071, "internal_node_id": "0.0-64.0"}}, {"uniqueid": "MTK0985:3GU1KF0O4J88O8S6OZBJVDHW144BP1", "current_trial": 92, "dateTime": 1512949833028, "trialdata": {"rt": -1, "stimulus": "<p id=\"stim\">TILE</p>", "key_press": -1, "type": "PRES_VIS", "word": "tile", "wordID": 1467, "conditions": [24, 800, "v", 24000], "trial": 2, "serialpos": 3, "trial_type": "single-stim", "trial_index": 92, "time_elapsed": 486059, "internal_node_id": "0.0-65.0"}}, {"uniqueid": "MTK0985:3GU1KF0O4J88O8S6OZBJVDHW144BP1", "current_trial": 93, "dateTime": 1512949834882, "trialdata": {"rt": -1, "stimulus": "<p id=\"stim\">BRICK</p>", "key_press": -1, "type": "PRES_VIS", "word": "brick", "wordID": 171, "conditions": [24, 800, "v", 24000], "trial": 2, "serialpos": 4, "trial_type": "single-stim", "trial_index": 93, "time_elapsed": 487913, "internal_node_id": "0.0-66.0"}}, {"uniqueid": "MTK0985:3GU1KF0O4J88O8S6OZBJVDHW144BP1", "current_trial": 94, "dateTime": 1512949836748, "trialdata": {"rt": -1, "stimulus": "<p id=\"stim\">ACTRESS</p>", "key_press": -1, "type": "PRES_VIS", "word": "actress", "wordID": 5, "conditions": [24, 800, "v", 24000], "trial": 2, "serialpos": 5, "trial_type": "single-stim", "trial_index": 94, "time_elapsed": 489779, "internal_node_id": "0.0-67.0"}}, {"uniqueid": "MTK0985:3GU1KF0O4J88O8S6OZBJVDHW144BP1", "current_trial": 95, "dateTime": 1512949838455, "trialdata": {"rt": -1, "stimulus": "<p id=\"stim\">LAGOON</p>", "key_press": -1, "type": "PRES_VIS", "word": "lagoon", "wordID": 794, "conditions": [24, 800, "v", 24000], "trial": 2, "serialpos": 6, "trial_type": "single-stim", "trial_index": 95, "time_elapsed": 491486, "internal_node_id": "0.0-68.0"}}, {"uniqueid": "MTK0985:3GU1KF0O4J88O8S6OZBJVDHW144BP1", "current_trial": 96, "dateTime": 1512949840426, "trialdata": {"rt": -1, "stimulus": "<p id=\"stim\">MONSTER</p>", "key_press": -1, "type": "PRES_VIS", "word": "monster", "wordID": 911, "conditions": [24, 800, "v", 24000], "trial": 2, "serialpos": 7, "trial_type": "single-stim", "trial_index": 96, "time_elapsed": 493457, "internal_node_id": "0.0-69.0"}}, {"uniqueid": "MTK0985:3GU1KF0O4J88O8S6OZBJVDHW144BP1", "current_trial": 97, "dateTime": 1512949842032, "trialdata": {"rt": -1, "stimulus": "<p id=\"stim\">JURY</p>", "key_press": -1, "type": "PRES_VIS", "word": "jury", "wordID": 765, "conditions": [24, 800, "v", 24000], "trial": 2, "serialpos": 8, "trial_type": "single-stim", "trial_index": 97, "time_elapsed": 495063, "internal_node_id": "0.0-70.0"}}, {"uniqueid": "MTK0985:3GU1KF0O4J88O8S6OZBJVDHW144BP1", "current_trial": 98, "dateTime": 1512949843808, "trialdata": {"rt": -1, "stimulus": "<p id=\"stim\">BASEMENT</p>", "key_press": -1, "type": "PRES_VIS", "word": "basement", "wordID": 93, "conditions": [24, 800, "v", 24000], "trial": 2, "serialpos": 9, "trial_type": "single-stim", "trial_index": 98, "time_elapsed": 496839, "internal_node_id": "0.0-71.0"}}, {"uniqueid": "MTK0985:3GU1KF0O4J88O8S6OZBJVDHW144BP1", "current_trial": 99, "dateTime": 1512949845508, "trialdata": {"rt": -1, "stimulus": "<p id=\"stim\">FIREPLACE</p>", "key_press": -1, "type": "PRES_VIS", "word": "fireplace", "wordID": 569, "conditions": [24, 800, "v", 24000], "trial": 2, "serialpos": 10, "trial_type": "single-stim", "trial_index": 99, "time_elapsed": 498539, "internal_node_id": "0.0-72.0"}}, {"uniqueid": "MTK0985:3GU1KF0O4J88O8S6OZBJVDHW144BP1", "current_trial": 100, "dateTime": 1512949847243, "trialdata": {"rt": -1, "stimulus": "<p id=\"stim\">OX</p>", "key_press": -1, "type": "PRES_VIS", "word": "ox", "wordID": 993, "conditions": [24, 800, "v", 24000], "trial": 2, "serialpos": 11, "trial_type": "single-stim", "trial_index": 100, "time_elapsed": 500274, "internal_node_id": "0.0-73.0"}}, {"uniqueid": "MTK0985:3GU1KF0O4J88O8S6OZBJVDHW144BP1", "current_trial": 101, "dateTime": 1512949849195, "trialdata": {"rt": -1, "stimulus": "<p id=\"stim\">TOURIST</p>", "key_press": -1, "type": "PRES_VIS", "word": "tourist", "wordID": 1487, "conditions": [24, 800, "v", 24000], "trial": 2, "serialpos": 12, "trial_type": "single-stim", "trial_index": 101, "time_elapsed": 502226, "internal_node_id": "0.0-74.0"}}, {"uniqueid": "MTK0985:3GU1KF0O4J88O8S6OZBJVDHW144BP1", "current_trial": 102, "dateTime": 1512949850857, "trialdata": {"rt": -1, "stimulus": "<p id=\"stim\">BEEF</p>", "key_press": -1, "type": "PRES_VIS", "word": "beef", "wordID": 112, "conditions": [24, 800, "v", 24000], "trial": 2, "serialpos": 13, "trial_type": "single-stim", "trial_index": 102, "time_elapsed": 503888, "internal_node_id": "0.0-75.0"}}, {"uniqueid": "MTK0985:3GU1KF0O4J88O8S6OZBJVDHW144BP1", "current_trial": 103, "dateTime": 1512949852828, "trialdata": {"rt": -1, "stimulus": "<p id=\"stim\">NAPKIN</p>", "key_press": -1, "type": "PRES_VIS", "word": "napkin", "wordID": 936, "conditions": [24, 800, "v", 24000], "trial": 2, "serialpos": 14, "trial_type": "single-stim", "trial_index": 103, "time_elapsed": 505859, "internal_node_id": "0.0-76.0"}}, {"uniqueid": "MTK0985:3GU1KF0O4J88O8S6OZBJVDHW144BP1", "current_trial": 104, "dateTime": 1512949854451, "trialdata": {"rt": -1, "stimulus": "<p id=\"stim\">WASHER</p>", "key_press": -1, "type": "PRES_VIS", "word": "washer", "wordID": 1591, "conditions": [24, 800, "v", 24000], "trial": 2, "serialpos": 15, "trial_type": "single-stim", "trial_index": 104, "time_elapsed": 507482, "internal_node_id": "0.0-77.0"}}, {"uniqueid": "MTK0985:3GU1KF0O4J88O8S6OZBJVDHW144BP1", "current_trial": 105, "dateTime": 1512949856364, "trialdata": {"rt": -1, "stimulus": "<p id=\"stim\">BACON</p>", "key_press": -1, "type": "PRES_VIS", "word": "bacon", "wordID": 66, "conditions": [24, 800, "v", 24000], "trial": 2, "serialpos": 16, "trial_type": "single-stim", "trial_index": 105, "time_elapsed": 509395, "internal_node_id": "0.0-78.0"}}, {"uniqueid": "MTK0985:3GU1KF0O4J88O8S6OZBJVDHW144BP1", "current_trial": 106, "dateTime": 1512949858027, "trialdata": {"rt": -1, "stimulus": "<p id=\"stim\">ORCHID</p>", "key_press": -1, "type": "PRES_VIS", "word": "orchid", "wordID": 981, "conditions": [24, 800, "v", 24000], "trial": 2, "serialpos": 17, "trial_type": "single-stim", "trial_index": 106, "time_elapsed": 511058, "internal_node_id": "0.0-79.0"}}, {"uniqueid": "MTK0985:3GU1KF0O4J88O8S6OZBJVDHW144BP1", "current_trial": 107, "dateTime": 1512949859828, "trialdata": {"rt": -1, "stimulus": "<p id=\"stim\">SHRUB</p>", "key_press": -1, "type": "PRES_VIS", "word": "shrub", "wordID": 1298, "conditions": [24, 800, "v", 24000], "trial": 2, "serialpos": 18, "trial_type": "single-stim", "trial_index": 107, "time_elapsed": 512859, "internal_node_id": "0.0-80.0"}}, {"uniqueid": "MTK0985:3GU1KF0O4J88O8S6OZBJVDHW144BP1", "current_trial": 108, "dateTime": 1512949861637, "trialdata": {"rt": -1, "stimulus": "<p id=\"stim\">WAITRESS</p>", "key_press": -1, "type": "PRES_VIS", "word": "waitress", "wordID": 1580, "conditions": [24, 800, "v", 24000], "trial": 2, "serialpos": 19, "trial_type": "single-stim", "trial_index": 108, "time_elapsed": 514666, "internal_node_id": "0.0-81.0"}}, {"uniqueid": "MTK0985:3GU1KF0O4J88O8S6OZBJVDHW144BP1", "current_trial": 109, "dateTime": 1512949863509, "trialdata": {"rt": -1, "stimulus": "<p id=\"stim\">GYMNAST</p>", "key_press": -1, "type": "PRES_VIS", "word": "gymnast", "wordID": 674, "conditions": [24, 800, "v", 24000], "trial": 2, "serialpos": 20, "trial_type": "single-stim", "trial_index": 109, "time_elapsed": 516540, "internal_node_id": "0.0-82.0"}}, {"uniqueid": "MTK0985:3GU1KF0O4J88O8S6OZBJVDHW144BP1", "current_trial": 110, "dateTime": 1512949865218, "trialdata": {"rt": -1, "stimulus": "<p id=\"stim\">MONEY</p>", "key_press": -1, "type": "PRES_VIS", "word": "money", "wordID": 907, "conditions": [24, 800, "v", 24000], "trial": 2, "serialpos": 21, "trial_type": "single-stim", "trial_index": 110, "time_elapsed": 518249, "internal_node_id": "0.0-83.0"}}, {"uniqueid": "MTK0985:3GU1KF0O4J88O8S6OZBJVDHW144BP1", "current_trial": 111, "dateTime": 1512949867113, "trialdata": {"rt": -1, "stimulus": "<p id=\"stim\">HOSTESS</p>", "key_press": -1, "type": "PRES_VIS", "word": "hostess", "wordID": 722, "conditions": [24, 800, "v", 24000], "trial": 2, "serialpos": 22, "trial_type": "single-stim", "trial_index": 111, "time_elapsed": 520144, "internal_node_id": "0.0-84.0"}}, {"uniqueid": "MTK0985:3GU1KF0O4J88O8S6OZBJVDHW144BP1", "current_trial": 112, "dateTime": 1512949869036, "trialdata": {"rt": -1, "stimulus": "<p id=\"stim\">BEAST</p>", "key_press": -1, "type": "PRES_VIS", "word": "beast", "wordID": 107, "conditions": [24, 800, "v", 24000], "trial": 2, "serialpos": 23, "trial_type": "single-stim", "trial_index": 112, "time_elapsed": 522067, "internal_node_id": "0.0-85.0"}}, {"uniqueid": "MTK0985:3GU1KF0O4J88O8S6OZBJVDHW144BP1", "current_trial": 113, "dateTime": 1512949871461, "trialdata": {"rt": -1, "stimulus": "", "key_press": -1, "type": "PRE_RECALL_DELAY", "trial_type": "single-stim", "trial_index": 113, "time_elapsed": 524492, "internal_node_id": "0.0-86.0-0.0"}}, {"uniqueid": "MTK0985:3GU1KF0O4J88O8S6OZBJVDHW144BP1", "current_trial": 114, "dateTime": 1512949871961, "trialdata": {"rt": -1000, "stimulus": "/static/audio/400Hz.wav", "key_press": -1, "type": "PRE_RECALL_ALERT", "trial_type": "single-audio", "trial_index": 114, "time_elapsed": 524992, "internal_node_id": "0.0-87.0"}}, {"uniqueid": "MTK0985:3GU1KF0O4J88O8S6OZBJVDHW144BP1", "current_trial": 115, "dateTime": 1512949931966, "trialdata": {"rt": [1871, 3319, 4591, 5791, 6375, 7647, 9704, 12631, 13895, 15247, 16407, 18408, 19592, 33216], "recwords": ["beast", "hostess", "waitress", "napkin", "ox", "beef", "tile", "drill", "actor", "actress", "lagoon", "shrub", "orchid", "husband"], "type": "FREE_RECALL", "conditions": [24, 800, "v", 24000], "trial": 2, "trial_type": "free-recall", "trial_index": 115, "time_elapsed": 584996, "internal_node_id": "0.0-88.0-0.0"}}, {"uniqueid": "MTK0985:3GU1KF0O4J88O8S6OZBJVDHW144BP1", "current_trial": 116, "dateTime": 1512949935572, "trialdata": {"rt": 1605, "key_press": 75, "type": "INSTRUCTIONS", "trial_type": "text", "trial_index": 116, "time_elapsed": 588603, "internal_node_id": "0.0-89.0"}}, {"uniqueid": "MTK0985:3GU1KF0O4J88O8S6OZBJVDHW144BP1", "current_trial": 117, "dateTime": 1512949961574, "trialdata": {"rt": [3358, 5822, 7838, 10862, 12655, 14014, 16430, 21302, 23278], "responses": ["24", "14", "14", "18", "11", "4", "15", "9", "17"], "num1": [7, 9, 3, 7, 3, 2, 1, 4, 9, 7], "num2": [9, 2, 3, 9, 3, 1, 5, 2, 1, 9], "num3": [8, 3, 8, 2, 5, 1, 9, 3, 7, 1], "type": "DISTRACTOR", "conditions": [12, 800, "a", 24000], "trial": 3, "trial_type": "math-distractor", "trial_index": 117, "time_elapsed": 614604, "internal_node_id": "0.0-90.0"}}, {"uniqueid": "MTK0985:3GU1KF0O4J88O8S6OZBJVDHW144BP1", "current_trial": 118, "dateTime": 1512949964574, "trialdata": {"rt": -1, "stimulus": "<p id=\"stim\">10</p>", "key_press": -1, "trial_type": "single-stim", "trial_index": 118, "time_elapsed": 617605, "internal_node_id": "0.0-91.0-0.0"}}, {"uniqueid": "MTK0985:3GU1KF0O4J88O8S6OZBJVDHW144BP1", "current_trial": 119, "dateTime": 1512949965574, "trialdata": {"rt": -1, "stimulus": "<p id=\"stim\">9</p>", "key_press": -1, "trial_type": "single-stim", "trial_index": 119, "time_elapsed": 618605, "internal_node_id": "0.0-91.0-1.0"}}, {"uniqueid": "MTK0985:3GU1KF0O4J88O8S6OZBJVDHW144BP1", "current_trial": 120, "dateTime": 1512949966574, "trialdata": {"rt": -1, "stimulus": "<p id=\"stim\">8</p>", "key_press": -1, "trial_type": "single-stim", "trial_index": 120, "time_elapsed": 619605, "internal_node_id": "0.0-91.0-2.0"}}, {"uniqueid": "MTK0985:3GU1KF0O4J88O8S6OZBJVDHW144BP1", "current_trial": 121, "dateTime": 1512949967574, "trialdata": {"rt": -1, "stimulus": "<p id=\"stim\">7</p>", "key_press": -1, "trial_type": "single-stim", "trial_index": 121, "time_elapsed": 620605, "internal_node_id": "0.0-91.0-3.0"}}, {"uniqueid": "MTK0985:3GU1KF0O4J88O8S6OZBJVDHW144BP1", "current_trial": 122, "dateTime": 1512949968574, "trialdata": {"rt": -1, "stimulus": "<p id=\"stim\">6</p>", "key_press": -1, "trial_type": "single-stim", "trial_index": 122, "time_elapsed": 621605, "internal_node_id": "0.0-91.0-4.0"}}, {"uniqueid": "MTK0985:3GU1KF0O4J88O8S6OZBJVDHW144BP1", "current_trial": 123, "dateTime": 1512949969574, "trialdata": {"rt": -1, "stimulus": "<p id=\"stim\">5</p>", "key_press": -1, "trial_type": "single-stim", "trial_index": 123, "time_elapsed": 622605, "internal_node_id": "0.0-91.0-5.0"}}, {"uniqueid": "MTK0985:3GU1KF0O4J88O8S6OZBJVDHW144BP1", "current_trial": 124, "dateTime": 1512949970574, "trialdata": {"rt": -1, "stimulus": "<p id=\"stim\">4</p>", "key_press": -1, "trial_type": "single-stim", "trial_index": 124, "time_elapsed": 623605, "internal_node_id": "0.0-91.0-6.0"}}, {"uniqueid": "MTK0985:3GU1KF0O4J88O8S6OZBJVDHW144BP1", "current_trial": 125, "dateTime": 1512949971574, "trialdata": {"rt": -1, "stimulus": "<p id=\"stim\">3</p>", "key_press": -1, "trial_type": "single-stim", "trial_index": 125, "time_elapsed": 624605, "internal_node_id": "0.0-91.0-7.0"}}, {"uniqueid": "MTK0985:3GU1KF0O4J88O8S6OZBJVDHW144BP1", "current_trial": 126, "dateTime": 1512949972574, "trialdata": {"rt": -1, "stimulus": "<p id=\"stim\">2</p>", "key_press": -1, "trial_type": "single-stim", "trial_index": 126, "time_elapsed": 625605, "internal_node_id": "0.0-91.0-8.0"}}, {"uniqueid": "MTK0985:3GU1KF0O4J88O8S6OZBJVDHW144BP1", "current_trial": 127, "dateTime": 1512949973574, "trialdata": {"rt": -1, "stimulus": "<p id=\"stim\">1</p>", "key_press": -1, "trial_type": "single-stim", "trial_index": 127, "time_elapsed": 626605, "internal_node_id": "0.0-91.0-9.0"}}, {"uniqueid": "MTK0985:3GU1KF0O4J88O8S6OZBJVDHW144BP1", "current_trial": 128, "dateTime": 1512949975074, "trialdata": {"rt": -1, "stimulus": "<p id=\"stim\">+</p>", "key_press": -1, "type": "FIXATION", "trial_type": "single-stim", "trial_index": 128, "time_elapsed": 628105, "internal_node_id": "0.0-92.0-0.0"}}, {"uniqueid": "MTK0985:3GU1KF0O4J88O8S6OZBJVDHW144BP1", "current_trial": 129, "dateTime": 1512949976891, "trialdata": {"rt": -1000, "stimulus": "/static/audio/wordpool/SKILLET.wav", "key_press": -1, "type": "PRES_AUD", "word": "skillet", "wordID": 1316, "conditions": [12, 800, "a", 24000], "trial": 3, "serialpos": 0, "trial_type": "single-audio", "trial_index": 129, "time_elapsed": 629922, "internal_node_id": "0.0-93.0"}}, {"uniqueid": "MTK0985:3GU1KF0O4J88O8S6OZBJVDHW144BP1", "current_trial": 130, "dateTime": 1512949978629, "trialdata": {"rt": -1000, "stimulus": "/static/audio/wordpool/BLENDER.wav", "key_press": -1, "type": "PRES_AUD", "word": "blender", "wordID": 135, "conditions": [12, 800, "a", 24000], "trial": 3, "serialpos": 1, "trial_type": "single-audio", "trial_index": 130, "time_elapsed": 631660, "internal_node_id": "0.0-94.0"}}, {"uniqueid": "MTK0985:3GU1KF0O4J88O8S6OZBJVDHW144BP1", "current_trial": 131, "dateTime": 1512949980443, "trialdata": {"rt": -1000, "stimulus": "/static/audio/wordpool/BRANCH.wav", "key_press": -1, "type": "PRES_AUD", "word": "branch", "wordID": 167, "conditions": [12, 800, "a", 24000], "trial": 3, "serialpos": 2, "trial_type": "single-audio", "trial_index": 131, "time_elapsed": 633474, "internal_node_id": "0.0-95.0"}}, {"uniqueid": "MTK0985:3GU1KF0O4J88O8S6OZBJVDHW144BP1", "current_trial": 132, "dateTime": 1512949982116, "trialdata": {"rt": -1000, "stimulus": "/static/audio/wordpool/YACHT.wav", "key_press": -1, "type": "PRES_AUD", "word": "yacht", "wordID": 1628, "conditions": [12, 800, "a", 24000], "trial": 3, "serialpos": 3, "trial_type": "single-audio", "trial_index": 132, "time_elapsed": 635147, "internal_node_id": "0.0-96.0"}}, {"uniqueid": "MTK0985:3GU1KF0O4J88O8S6OZBJVDHW144BP1", "current_trial": 133, "dateTime": 1512949983943, "trialdata": {"rt": -1000, "stimulus": "/static/audio/wordpool/BLADE.wav", "key_press": -1, "type": "PRES_AUD", "word": "blade", "wordID": 133, "conditions": [12, 800, "a", 24000], "trial": 3, "serialpos": 4, "trial_type": "single-audio", "trial_index": 133, "time_elapsed": 636974, "internal_node_id": "0.0-97.0"}}, {"uniqueid": "MTK0985:3GU1KF0O4J88O8S6OZBJVDHW144BP1", "current_trial": 134, "dateTime": 1512949985689, "trialdata": {"rt": -1000, "stimulus": "/static/audio/wordpool/FIDDLE.wav", "key_press": -1, "type": "PRES_AUD", "word": "fiddle", "wordID": 560, "conditions": [12, 800, "a", 24000], "trial": 3, "serialpos": 5, "trial_type": "single-audio", "trial_index": 134, "time_elapsed": 638720, "internal_node_id": "0.0-98.0"}}, {"uniqueid": "MTK0985:3GU1KF0O4J88O8S6OZBJVDHW144BP1", "current_trial": 135, "dateTime": 1512949987485, "trialdata": {"rt": -1000, "stimulus": "/static/audio/wordpool/BOX.wav", "key_press": -1, "type": "PRES_AUD", "word": "box", "wordID": 158, "conditions": [12, 800, "a", 24000], "trial": 3, "serialpos": 6, "trial_type": "single-audio", "trial_index": 135, "time_elapsed": 640516, "internal_node_id": "0.0-99.0"}}, {"uniqueid": "MTK0985:3GU1KF0O4J88O8S6OZBJVDHW144BP1", "current_trial": 136, "dateTime": 1512949989411, "trialdata": {"rt": -1000, "stimulus": "/static/audio/wordpool/GARBAGE.wav", "key_press": -1, "type": "PRES_AUD", "word": "garbage", "wordID": 621, "conditions": [12, 800, "a", 24000], "trial": 3, "serialpos": 7, "trial_type": "single-audio", "trial_index": 136, "time_elapsed": 642441, "internal_node_id": "0.0-100.0"}}, {"uniqueid": "MTK0985:3GU1KF0O4J88O8S6OZBJVDHW144BP1", "current_trial": 137, "dateTime": 1512949991375, "trialdata": {"rt": -1000, "stimulus": "/static/audio/wordpool/POPCORN.wav", "key_press": -1, "type": "PRES_AUD", "word": "popcorn", "wordID": 1103, "conditions": [12, 800, "a", 24000], "trial": 3, "serialpos": 8, "trial_type": "single-audio", "trial_index": 137, "time_elapsed": 644406, "internal_node_id": "0.0-101.0"}}, {"uniqueid": "MTK0985:3GU1KF0O4J88O8S6OZBJVDHW144BP1", "current_trial": 138, "dateTime": 1512949993258, "trialdata": {"rt": -1000, "stimulus": "/static/audio/wordpool/GLASS.wav", "key_press": -1, "type": "PRES_AUD", "word": "glass", "wordID": 638, "conditions": [12, 800, "a", 24000], "trial": 3, "serialpos": 9, "trial_type": "single-audio", "trial_index": 138, "time_elapsed": 646289, "internal_node_id": "0.0-102.0"}}, {"uniqueid": "MTK0985:3GU1KF0O4J88O8S6OZBJVDHW144BP1", "current_trial": 139, "dateTime": 1512949994898, "trialdata": {"rt": -1000, "stimulus": "/static/audio/wordpool/MISSILE.wav", "key_press": -1, "type": "PRES_AUD", "word": "missile", "wordID": 899, "conditions": [12, 800, "a", 24000], "trial": 3, "serialpos": 10, "trial_type": "single-audio", "trial_index": 139, "time_elapsed": 647929, "internal_node_id": "0.0-103.0"}}, {"uniqueid": "MTK0985:3GU1KF0O4J88O8S6OZBJVDHW144BP1", "current_trial": 140, "dateTime": 1512949996741, "trialdata": {"rt": -1000, "stimulus": "/static/audio/wordpool/BANK.wav", "key_press": -1, "type": "PRES_AUD", "word": "bank", "wordID": 82, "conditions": [12, 800, "a", 24000], "trial": 3, "serialpos": 11, "trial_type": "single-audio", "trial_index": 140, "time_elapsed": 649772, "internal_node_id": "0.0-104.0"}}, {"uniqueid": "MTK0985:3GU1KF0O4J88O8S6OZBJVDHW144BP1", "current_trial": 141, "dateTime": 1512949997986, "trialdata": {"rt": -1, "stimulus": "", "key_press": -1, "type": "PRE_RECALL_DELAY", "trial_type": "single-stim", "trial_index": 141, "time_elapsed": 651017, "internal_node_id": "0.0-105.0-0.0"}}, {"uniqueid": "MTK0985:3GU1KF0O4J88O8S6OZBJVDHW144BP1", "current_trial": 142, "dateTime": 1512949998486, "trialdata": {"rt": -1000, "stimulus": "/static/audio/400Hz.wav", "key_press": -1, "type": "PRE_RECALL_ALERT", "trial_type": "single-audio", "trial_index": 142, "time_elapsed": 651517, "internal_node_id": "0.0-106.0"}}, {"uniqueid": "MTK0985:3GU1KF0O4J88O8S6OZBJVDHW144BP1", "current_trial": 143, "dateTime": 1512950058490, "trialdata": {"rt": [1933, 2828, 4108, 5884, 7236, 12541], "recwords": ["bank", "missle", "popcorn", "branch", "fox", "bank"], "type": "FREE_RECALL", "conditions": [12, 800, "a", 24000], "trial": 3, "trial_type": "free-recall", "trial_index": 143, "time_elapsed": 711518, "internal_node_id": "0.0-107.0-0.0"}}, {"uniqueid": "MTK0985:3GU1KF0O4J88O8S6OZBJVDHW144BP1", "current_trial": 144, "dateTime": 1512950075500, "trialdata": {"rt": 15008, "key_press": 13, "type": "INSTRUCTIONS", "trial_type": "text", "trial_index": 144, "time_elapsed": 728531, "internal_node_id": "0.0-108.0"}}, {"uniqueid": "MTK0985:3GU1KF0O4J88O8S6OZBJVDHW144BP1", "current_trial": 145, "dateTime": 1512950089504, "trialdata": {"rt": [2021, 4021, 10181], "responses": ["19", "14", "23"], "num1": [5, 7, 8, 9], "num2": [5, 1, 7, 3], "num3": [9, 6, 8, 4], "type": "DISTRACTOR", "conditions": [24, 800, "v", 12000], "trial": 4, "trial_type": "math-distractor", "trial_index": 145, "time_elapsed": 742534, "internal_node_id": "0.0-109.0"}}, {"uniqueid": "MTK0985:3GU1KF0O4J88O8S6OZBJVDHW144BP1", "current_trial": 146, "dateTime": 1512950092504, "trialdata": {"rt": -1, "stimulus": "<p id=\"stim\">10</p>", "key_press": -1, "trial_type": "single-stim", "trial_index": 146, "time_elapsed": 745535, "internal_node_id": "0.0-110.0-0.0"}}, {"uniqueid": "MTK0985:3GU1KF0O4J88O8S6OZBJVDHW144BP1", "current_trial": 147, "dateTime": 1512950093505, "trialdata": {"rt": -1, "stimulus": "<p id=\"stim\">9</p>", "key_press": -1, "trial_type": "single-stim", "trial_index": 147, "time_elapsed": 746536, "internal_node_id": "0.0-110.0-1.0"}}, {"uniqueid": "MTK0985:3GU1KF0O4J88O8S6OZBJVDHW144BP1", "current_trial": 148, "dateTime": 1512950094505, "trialdata": {"rt": -1, "stimulus": "<p id=\"stim\">8</p>", "key_press": -1, "trial_type": "single-stim", "trial_index": 148, "time_elapsed": 747536, "internal_node_id": "0.0-110.0-2.0"}}, {"uniqueid": "MTK0985:3GU1KF0O4J88O8S6OZBJVDHW144BP1", "current_trial": 149, "dateTime": 1512950095505, "trialdata": {"rt": -1, "stimulus": "<p id=\"stim\">7</p>", "key_press": -1, "trial_type": "single-stim", "trial_index": 149, "time_elapsed": 748536, "internal_node_id": "0.0-110.0-3.0"}}, {"uniqueid": "MTK0985:3GU1KF0O4J88O8S6OZBJVDHW144BP1", "current_trial": 150, "dateTime": 1512950096505, "trialdata": {"rt": -1, "stimulus": "<p id=\"stim\">6</p>", "key_press": -1, "trial_type": "single-stim", "trial_index": 150, "time_elapsed": 749536, "internal_node_id": "0.0-110.0-4.0"}}, {"uniqueid": "MTK0985:3GU1KF0O4J88O8S6OZBJVDHW144BP1", "current_trial": 151, "dateTime": 1512950097505, "trialdata": {"rt": -1, "stimulus": "<p id=\"stim\">5</p>", "key_press": -1, "trial_type": "single-stim", "trial_index": 151, "time_elapsed": 750536, "internal_node_id": "0.0-110.0-5.0"}}, {"uniqueid": "MTK0985:3GU1KF0O4J88O8S6OZBJVDHW144BP1", "current_trial": 152, "dateTime": 1512950098505, "trialdata": {"rt": -1, "stimulus": "<p id=\"stim\">4</p>", "key_press": -1, "trial_type": "single-stim", "trial_index": 152, "time_elapsed": 751536, "internal_node_id": "0.0-110.0-6.0"}}, {"uniqueid": "MTK0985:3GU1KF0O4J88O8S6OZBJVDHW144BP1", "current_trial": 153, "dateTime": 1512950099505, "trialdata": {"rt": -1, "stimulus": "<p id=\"stim\">3</p>", "key_press": -1, "trial_type": "single-stim", "trial_index": 153, "time_elapsed": 752536, "internal_node_id": "0.0-110.0-7.0"}}, {"uniqueid": "MTK0985:3GU1KF0O4J88O8S6OZBJVDHW144BP1", "current_trial": 154, "dateTime": 1512950100505, "trialdata": {"rt": -1, "stimulus": "<p id=\"stim\">2</p>", "key_press": -1, "trial_type": "single-stim", "trial_index": 154, "time_elapsed": 753536, "internal_node_id": "0.0-110.0-8.0"}}, {"uniqueid": "MTK0985:3GU1KF0O4J88O8S6OZBJVDHW144BP1", "current_trial": 155, "dateTime": 1512950101506, "trialdata": {"rt": -1, "stimulus": "<p id=\"stim\">1</p>", "key_press": -1, "trial_type": "single-stim", "trial_index": 155, "time_elapsed": 754537, "internal_node_id": "0.0-110.0-9.0"}}, {"uniqueid": "MTK0985:3GU1KF0O4J88O8S6OZBJVDHW144BP1", "current_trial": 156, "dateTime": 1512950103006, "trialdata": {"rt": -1, "stimulus": "<p id=\"stim\">+</p>", "key_press": -1, "type": "FIXATION", "trial_type": "single-stim", "trial_index": 156, "time_elapsed": 756037, "internal_node_id": "0.0-111.0-0.0"}}, {"uniqueid": "MTK0985:3GU1KF0O4J88O8S6OZBJVDHW144BP1", "current_trial": 157, "dateTime": 1512950103806, "trialdata": {"rt": -1, "stimulus": "<p id=\"stim\">PIGMENT</p>", "key_press": -1, "type": "PRES_VIS", "word": "pigment", "wordID": 1065, "conditions": [24, 800, "v", 12000], "trial": 4, "serialpos": 0, "trial_type": "single-stim", "trial_index": 157, "time_elapsed": 756837, "internal_node_id": "0.0-112.0"}}, {"uniqueid": "MTK0985:3GU1KF0O4J88O8S6OZBJVDHW144BP1", "current_trial": 158, "dateTime": 1512950105423, "trialdata": {"rt": -1, "stimulus": "<p id=\"stim\">ROD</p>", "key_press": -1, "type": "PRES_VIS", "word": "rod", "wordID": 1202, "conditions": [24, 800, "v", 12000], "trial": 4, "serialpos": 1, "trial_type": "single-stim", "trial_index": 158, "time_elapsed": 758454, "internal_node_id": "0.0-113.0"}}, {"uniqueid": "MTK0985:3GU1KF0O4J88O8S6OZBJVDHW144BP1", "current_trial": 159, "dateTime": 1512950107414, "trialdata": {"rt": -1, "stimulus": "<p id=\"stim\">MUFFIN</p>", "key_press": -1, "type": "PRES_VIS", "word": "muffin", "wordID": 928, "conditions": [24, 800, "v", 12000], "trial": 4, "serialpos": 2, "trial_type": "single-stim", "trial_index": 159, "time_elapsed": 760445, "internal_node_id": "0.0-114.0"}}, {"uniqueid": "MTK0985:3GU1KF0O4J88O8S6OZBJVDHW144BP1", "current_trial": 160, "dateTime": 1512950109096, "trialdata": {"rt": -1, "stimulus": "<p id=\"stim\">SWIMMER</p>", "key_press": -1, "type": "PRES_VIS", "word": "swimmer", "wordID": 1419, "conditions": [24, 800, "v", 12000], "trial": 4, "serialpos": 3, "trial_type": "single-stim", "trial_index": 160, "time_elapsed": 762127, "internal_node_id": "0.0-115.0"}}, {"uniqueid": "MTK0985:3GU1KF0O4J88O8S6OZBJVDHW144BP1", "current_trial": 161, "dateTime": 1512950111057, "trialdata": {"rt": -1, "stimulus": "<p id=\"stim\">STUDENT</p>", "key_press": -1, "type": "PRES_VIS", "word": "student", "wordID": 1394, "conditions": [24, 800, "v", 12000], "trial": 4, "serialpos": 4, "trial_type": "single-stim", "trial_index": 161, "time_elapsed": 764088, "internal_node_id": "0.0-116.0"}}, {"uniqueid": "MTK0985:3GU1KF0O4J88O8S6OZBJVDHW144BP1", "current_trial": 162, "dateTime": 1512950113032, "trialdata": {"rt": -1, "stimulus": "<p id=\"stim\">POSSUM</p>", "key_press": -1, "type": "PRES_VIS", "word": "possum", "wordID": 1111, "conditions": [24, 800, "v", 12000], "trial": 4, "serialpos": 5, "trial_type": "single-stim", "trial_index": 162, "time_elapsed": 766063, "internal_node_id": "0.0-117.0"}}, {"uniqueid": "MTK0985:3GU1KF0O4J88O8S6OZBJVDHW144BP1", "current_trial": 163, "dateTime": 1512950115003, "trialdata": {"rt": -1, "stimulus": "<p id=\"stim\">CANYON</p>", "key_press": -1, "type": "PRES_VIS", "word": "canyon", "wordID": 234, "conditions": [24, 800, "v", 12000], "trial": 4, "serialpos": 6, "trial_type": "single-stim", "trial_index": 163, "time_elapsed": 768034, "internal_node_id": "0.0-118.0"}}, {"uniqueid": "MTK0985:3GU1KF0O4J88O8S6OZBJVDHW144BP1", "current_trial": 164, "dateTime": 1512950116933, "trialdata": {"rt": -1, "stimulus": "<p id=\"stim\">PEANUT</p>", "key_press": -1, "type": "PRES_VIS", "word": "peanut", "wordID": 1031, "conditions": [24, 800, "v", 12000], "trial": 4, "serialpos": 7, "trial_type": "single-stim", "trial_index": 164, "time_elapsed": 769964, "internal_node_id": "0.0-119.0"}}, {"uniqueid": "MTK0985:3GU1KF0O4J88O8S6OZBJVDHW144BP1", "current_trial": 165, "dateTime": 1512950118776, "trialdata": {"rt": -1, "stimulus": "<p id=\"stim\">PECAN</p>", "key_press": -1, "type": "PRES_VIS", "word": "pecan", "wordID": 1035, "conditions": [24, 800, "v", 12000], "trial": 4, "serialpos": 8, "trial_type": "single-stim", "trial_index": 165, "time_elapsed": 771807, "internal_node_id": "0.0-120.0"}}, {"uniqueid": "MTK0985:3GU1KF0O4J88O8S6OZBJVDHW144BP1", "current_trial": 166, "dateTime": 1512950120734, "trialdata": {"rt": -1, "stimulus": "<p id=\"stim\">BIKE</p>", "key_press": -1, "type": "PRES_VIS", "word": "bike", "wordID": 124, "conditions": [24, 800, "v", 12000], "trial": 4, "serialpos": 9, "trial_type": "single-stim", "trial_index": 166, "time_elapsed": 773765, "internal_node_id": "0.0-121.0"}}, {"uniqueid": "MTK0985:3GU1KF0O4J88O8S6OZBJVDHW144BP1", "current_trial": 167, "dateTime": 1512950122514, "trialdata": {"rt": -1, "stimulus": "<p id=\"stim\">INMATE</p>", "key_press": -1, "type": "PRES_VIS", "word": "inmate", "wordID": 737, "conditions": [24, 800, "v", 12000], "trial": 4, "serialpos": 10, "trial_type": "single-stim", "trial_index": 167, "time_elapsed": 775545, "internal_node_id": "0.0-122.0"}}, {"uniqueid": "MTK0985:3GU1KF0O4J88O8S6OZBJVDHW144BP1", "current_trial": 168, "dateTime": 1512950124408, "trialdata": {"rt": -1, "stimulus": "<p id=\"stim\">SPOOL</p>", "key_press": -1, "type": "PRES_VIS", "word": "spool", "wordID": 1355, "conditions": [24, 800, "v", 12000], "trial": 4, "serialpos": 11, "trial_type": "single-stim", "trial_index": 168, "time_elapsed": 777439, "internal_node_id": "0.0-123.0"}}, {"uniqueid": "MTK0985:3GU1KF0O4J88O8S6OZBJVDHW144BP1", "current_trial": 169, "dateTime": 1512950126123, "trialdata": {"rt": -1, "stimulus": "<p id=\"stim\">TRIBE</p>", "key_press": -1, "type": "PRES_VIS", "word": "tribe", "wordID": 1504, "conditions": [24, 800, "v", 12000], "trial": 4, "serialpos": 12, "trial_type": "single-stim", "trial_index": 169, "time_elapsed": 779154, "internal_node_id": "0.0-124.0"}}, {"uniqueid": "MTK0985:3GU1KF0O4J88O8S6OZBJVDHW144BP1", "current_trial": 170, "dateTime": 1512950128073, "trialdata": {"rt": -1, "stimulus": "<p id=\"stim\">ARMY</p>", "key_press": -1, "type": "PRES_VIS", "word": "army", "wordID": 38, "conditions": [24, 800, "v", 12000], "trial": 4, "serialpos": 13, "trial_type": "single-stim", "trial_index": 170, "time_elapsed": 781104, "internal_node_id": "0.0-125.0"}}, {"uniqueid": "MTK0985:3GU1KF0O4J88O8S6OZBJVDHW144BP1", "current_trial": 171, "dateTime": 1512950130047, "trialdata": {"rt": -1, "stimulus": "<p id=\"stim\">SAUSAGE</p>", "key_press": -1, "type": "PRES_VIS", "word": "sausage", "wordID": 1237, "conditions": [24, 800, "v", 12000], "trial": 4, "serialpos": 14, "trial_type": "single-stim", "trial_index": 171, "time_elapsed": 783078, "internal_node_id": "0.0-126.0"}}, {"uniqueid": "MTK0985:3GU1KF0O4J88O8S6OZBJVDHW144BP1", "current_trial": 172, "dateTime": 1512950131975, "trialdata": {"rt": -1, "stimulus": "<p id=\"stim\">PORK</p>", "key_press": -1, "type": "PRES_VIS", "word": "pork", "wordID": 1107, "conditions": [24, 800, "v", 12000], "trial": 4, "serialpos": 15, "trial_type": "single-stim", "trial_index": 172, "time_elapsed": 785006, "internal_node_id": "0.0-127.0"}}, {"uniqueid": "MTK0985:3GU1KF0O4J88O8S6OZBJVDHW144BP1", "current_trial": 173, "dateTime": 1512950133654, "trialdata": {"rt": -1, "stimulus": "<p id=\"stim\">TUTU</p>", "key_press": -1, "type": "PRES_VIS", "word": "tutu", "wordID": 1523, "conditions": [24, 800, "v", 12000], "trial": 4, "serialpos": 16, "trial_type": "single-stim", "trial_index": 173, "time_elapsed": 786685, "internal_node_id": "0.0-128.0"}}, {"uniqueid": "MTK0985:3GU1KF0O4J88O8S6OZBJVDHW144BP1", "current_trial": 174, "dateTime": 1512950135436, "trialdata": {"rt": -1, "stimulus": "<p id=\"stim\">FLOWER</p>", "key_press": -1, "type": "PRES_VIS", "word": "flower", "wordID": 583, "conditions": [24, 800, "v", 12000], "trial": 4, "serialpos": 17, "trial_type": "single-stim", "trial_index": 174, "time_elapsed": 788467, "internal_node_id": "0.0-129.0"}}, {"uniqueid": "MTK0985:3GU1KF0O4J88O8S6OZBJVDHW144BP1", "current_trial": 175, "dateTime": 1512950137379, "trialdata": {"rt": -1, "stimulus": "<p id=\"stim\">PAPER</p>", "key_press": -1, "type": "PRES_VIS", "word": "paper", "wordID": 1010, "conditions": [24, 800, "v", 12000], "trial": 4, "serialpos": 18, "trial_type": "single-stim", "trial_index": 175, "time_elapsed": 790410, "internal_node_id": "0.0-130.0"}}, {"uniqueid": "MTK0985:3GU1KF0O4J88O8S6OZBJVDHW144BP1", "current_trial": 176, "dateTime": 1512950139316, "trialdata": {"rt": -1, "stimulus": "<p id=\"stim\">DRESS</p>", "key_press": -1, "type": "PRES_VIS", "word": "dress", "wordID": 494, "conditions": [24, 800, "v", 12000], "trial": 4, "serialpos": 19, "trial_type": "single-stim", "trial_index": 176, "time_elapsed": 792347, "internal_node_id": "0.0-131.0"}}, {"uniqueid": "MTK0985:3GU1KF0O4J88O8S6OZBJVDHW144BP1", "current_trial": 177, "dateTime": 1512950140920, "trialdata": {"rt": -1, "stimulus": "<p id=\"stim\">CHEMIST</p>", "key_press": -1, "type": "PRES_VIS", "word": "chemist", "wordID": 291, "conditions": [24, 800, "v", 12000], "trial": 4, "serialpos": 20, "trial_type": "single-stim", "trial_index": 177, "time_elapsed": 793951, "internal_node_id": "0.0-132.0"}}, {"uniqueid": "MTK0985:3GU1KF0O4J88O8S6OZBJVDHW144BP1", "current_trial": 178, "dateTime": 1512950142613, "trialdata": {"rt": -1, "stimulus": "<p id=\"stim\">FOX</p>", "key_press": -1, "type": "PRES_VIS", "word": "fox", "wordID": 597, "conditions": [24, 800, "v", 12000], "trial": 4, "serialpos": 21, "trial_type": "single-stim", "trial_index": 178, "time_elapsed": 795644, "internal_node_id": "0.0-133.0"}}, {"uniqueid": "MTK0985:3GU1KF0O4J88O8S6OZBJVDHW144BP1", "current_trial": 179, "dateTime": 1512950144303, "trialdata": {"rt": -1, "stimulus": "<p id=\"stim\">MILK</p>", "key_press": -1, "type": "PRES_VIS", "word": "milk", "wordID": 894, "conditions": [24, 800, "v", 12000], "trial": 4, "serialpos": 22, "trial_type": "single-stim", "trial_index": 179, "time_elapsed": 797334, "internal_node_id": "0.0-134.0"}}, {"uniqueid": "MTK0985:3GU1KF0O4J88O8S6OZBJVDHW144BP1", "current_trial": 180, "dateTime": 1512950146019, "trialdata": {"rt": -1, "stimulus": "<p id=\"stim\">CROWN</p>", "key_press": -1, "type": "PRES_VIS", "word": "crown", "wordID": 414, "conditions": [24, 800, "v", 12000], "trial": 4, "serialpos": 23, "trial_type": "single-stim", "trial_index": 180, "time_elapsed": 799050, "internal_node_id": "0.0-135.0"}}, {"uniqueid": "MTK0985:3GU1KF0O4J88O8S6OZBJVDHW144BP1", "current_trial": 181, "dateTime": 1512950148468, "trialdata": {"rt": -1, "stimulus": "", "key_press": -1, "type": "PRE_RECALL_DELAY", "trial_type": "single-stim", "trial_index": 181, "time_elapsed": 801499, "internal_node_id": "0.0-136.0-0.0"}}, {"uniqueid": "MTK0985:3GU1KF0O4J88O8S6OZBJVDHW144BP1", "current_trial": 182, "dateTime": 1512950148970, "trialdata": {"rt": -1000, "stimulus": "/static/audio/400Hz.wav", "key_press": -1, "type": "PRE_RECALL_ALERT", "trial_type": "single-audio", "trial_index": 182, "time_elapsed": 802001, "internal_node_id": "0.0-137.0"}}, {"uniqueid": "MTK0985:3GU1KF0O4J88O8S6OZBJVDHW144BP1", "current_trial": 183, "dateTime": 1512950208974, "trialdata": {"rt": [3616, 4288, 5136, 7312, 9456, 10928, 11616, 12280, 13152, 15960, 16744, 19288, 20224, 22840, 30576, 37688, 41776, 44863], "recwords": ["fox", "milk", "crown", "chemist", "oppossum", "tutu", "dress", "paper", "flower", "sausage", "pork", "bike", "inmate", "fox", "spool", "army", "trive", "tribe"], "type": "FREE_RECALL", "conditions": [24, 800, "v", 12000], "trial": 4, "trial_type": "free-recall", "trial_index": 183, "time_elapsed": 862002, "internal_node_id": "0.0-138.0-0.0"}}, {"uniqueid": "MTK0985:3GU1KF0O4J88O8S6OZBJVDHW144BP1", "current_trial": 184, "dateTime": 1512950296330, "trialdata": {"rt": 85354, "key_press": 72, "type": "INSTRUCTIONS", "trial_type": "text", "trial_index": 184, "time_elapsed": 949361, "internal_node_id": "0.0-139.0"}}, {"uniqueid": "MTK0985:3GU1KF0O4J88O8S6OZBJVDHW144BP1", "current_trial": 185, "dateTime": 1512950322333, "trialdata": {"rt": [3142, 5110, 9350, 12022, 14038, 16151, 17647, 19671, 22231, 23911], "responses": ["15", "15", "20", "18", "24", "7", "12", "17", "11", "24"], "num1": [5, 1, 4, 3, 9, 3, 7, 5, 2, 8, 5], "num2": [3, 9, 9, 8, 9, 2, 3, 5, 2, 8, 7], "num3": [7, 5, 7, 7, 6, 2, 2, 7, 7, 8, 8], "type": "DISTRACTOR", "conditions": [24, 1600, "v", 24000], "trial": 5, "trial_type": "math-distractor", "trial_index": 185, "time_elapsed": 975363, "internal_node_id": "0.0-140.0"}}, {"uniqueid": "MTK0985:3GU1KF0O4J88O8S6OZBJVDHW144BP1", "current_trial": 186, "dateTime": 1512950325335, "trialdata": {"rt": -1, "stimulus": "<p id=\"stim\">10</p>", "key_press": -1, "trial_type": "single-stim", "trial_index": 186, "time_elapsed": 978366, "internal_node_id": "0.0-141.0-0.0"}}, {"uniqueid": "MTK0985:3GU1KF0O4J88O8S6OZBJVDHW144BP1", "current_trial": 187, "dateTime": 1512950326335, "trialdata": {"rt": -1, "stimulus": "<p id=\"stim\">9</p>", "key_press": -1, "trial_type": "single-stim", "trial_index": 187, "time_elapsed": 979366, "internal_node_id": "0.0-141.0-1.0"}}, {"uniqueid": "MTK0985:3GU1KF0O4J88O8S6OZBJVDHW144BP1", "current_trial": 188, "dateTime": 1512950327335, "trialdata": {"rt": -1, "stimulus": "<p id=\"stim\">8</p>", "key_press": -1, "trial_type": "single-stim", "trial_index": 188, "time_elapsed": 980366, "internal_node_id": "0.0-141.0-2.0"}}, {"uniqueid": "MTK0985:3GU1KF0O4J88O8S6OZBJVDHW144BP1", "current_trial": 189, "dateTime": 1512950328335, "trialdata": {"rt": -1, "stimulus": "<p id=\"stim\">7</p>", "key_press": -1, "trial_type": "single-stim", "trial_index": 189, "time_elapsed": 981366, "internal_node_id": "0.0-141.0-3.0"}}, {"uniqueid": "MTK0985:3GU1KF0O4J88O8S6OZBJVDHW144BP1", "current_trial": 190, "dateTime": 1512950329335, "trialdata": {"rt": -1, "stimulus": "<p id=\"stim\">6</p>", "key_press": -1, "trial_type": "single-stim", "trial_index": 190, "time_elapsed": 982366, "internal_node_id": "0.0-141.0-4.0"}}, {"uniqueid": "MTK0985:3GU1KF0O4J88O8S6OZBJVDHW144BP1", "current_trial": 191, "dateTime": 1512950330335, "trialdata": {"rt": -1, "stimulus": "<p id=\"stim\">5</p>", "key_press": -1, "trial_type": "single-stim", "trial_index": 191, "time_elapsed": 983366, "internal_node_id": "0.0-141.0-5.0"}}, {"uniqueid": "MTK0985:3GU1KF0O4J88O8S6OZBJVDHW144BP1", "current_trial": 192, "dateTime": 1512950331335, "trialdata": {"rt": -1, "stimulus": "<p id=\"stim\">4</p>", "key_press": -1, "trial_type": "single-stim", "trial_index": 192, "time_elapsed": 984366, "internal_node_id": "0.0-141.0-6.0"}}, {"uniqueid": "MTK0985:3GU1KF0O4J88O8S6OZBJVDHW144BP1", "current_trial": 193, "dateTime": 1512950332335, "trialdata": {"rt": -1, "stimulus": "<p id=\"stim\">3</p>", "key_press": -1, "trial_type": "single-stim", "trial_index": 193, "time_elapsed": 985366, "internal_node_id": "0.0-141.0-7.0"}}, {"uniqueid": "MTK0985:3GU1KF0O4J88O8S6OZBJVDHW144BP1", "current_trial": 194, "dateTime": 1512950333336, "trialdata": {"rt": -1, "stimulus": "<p id=\"stim\">2</p>", "key_press": -1, "trial_type": "single-stim", "trial_index": 194, "time_elapsed": 986367, "internal_node_id": "0.0-141.0-8.0"}}, {"uniqueid": "MTK0985:3GU1KF0O4J88O8S6OZBJVDHW144BP1", "current_trial": 195, "dateTime": 1512950334336, "trialdata": {"rt": -1, "stimulus": "<p id=\"stim\">1</p>", "key_press": -1, "trial_type": "single-stim", "trial_index": 195, "time_elapsed": 987367, "internal_node_id": "0.0-141.0-9.0"}}, {"uniqueid": "MTK0985:3GU1KF0O4J88O8S6OZBJVDHW144BP1", "current_trial": 196, "dateTime": 1512950335836, "trialdata": {"rt": -1, "stimulus": "<p id=\"stim\">+</p>", "key_press": -1, "type": "FIXATION", "trial_type": "single-stim", "trial_index": 196, "time_elapsed": 988867, "internal_node_id": "0.0-142.0-0.0"}}, {"uniqueid": "MTK0985:3GU1KF0O4J88O8S6OZBJVDHW144BP1", "current_trial": 197, "dateTime": 1512950337436, "trialdata": {"rt": -1, "stimulus": "<p id=\"stim\">COOK</p>", "key_press": -1, "type": "PRES_VIS", "word": "cook", "wordID": 371, "conditions": [24, 1600, "v", 24000], "trial": 5, "serialpos": 0, "trial_type": "single-stim", "trial_index": 197, "time_elapsed": 990467, "internal_node_id": "0.0-143.0"}}, {"uniqueid": "MTK0985:3GU1KF0O4J88O8S6OZBJVDHW144BP1", "current_trial": 198, "dateTime": 1512950339861, "trialdata": {"rt": -1, "stimulus": "<p id=\"stim\">ELBOW</p>", "key_press": -1, "type": "PRES_VIS", "word": "elbow", "wordID": 519, "conditions": [24, 1600, "v", 24000], "trial": 5, "serialpos": 1, "trial_type": "single-stim", "trial_index": 198, "time_elapsed": 992892, "internal_node_id": "0.0-144.0"}}, {"uniqueid": "MTK0985:3GU1KF0O4J88O8S6OZBJVDHW144BP1", "current_trial": 199, "dateTime": 1512950342581, "trialdata": {"rt": -1, "stimulus": "<p id=\"stim\">YARN</p>", "key_press": -1, "type": "PRES_VIS", "word": "yarn", "wordID": 1630, "conditions": [24, 1600, "v", 24000], "trial": 5, "serialpos": 2, "trial_type": "single-stim", "trial_index": 199, "time_elapsed": 995612, "internal_node_id": "0.0-145.0"}}, {"uniqueid": "MTK0985:3GU1KF0O4J88O8S6OZBJVDHW144BP1", "current_trial": 200, "dateTime": 1512950345379, "trialdata": {"rt": -1, "stimulus": "<p id=\"stim\">GALLON</p>", "key_press": -1, "type": "PRES_VIS", "word": "gallon", "wordID": 617, "conditions": [24, 1600, "v", 24000], "trial": 5, "serialpos": 3, "trial_type": "single-stim", "trial_index": 200, "time_elapsed": 998410, "internal_node_id": "0.0-146.0"}}, {"uniqueid": "MTK0985:3GU1KF0O4J88O8S6OZBJVDHW144BP1", "current_trial": 201, "dateTime": 1512950347788, "trialdata": {"rt": -1, "stimulus": "<p id=\"stim\">COUNTRY</p>", "key_press": -1, "type": "PRES_VIS", "word": "country", "wordID": 387, "conditions": [24, 1600, "v", 24000], "trial": 5, "serialpos": 4, "trial_type": "single-stim", "trial_index": 201, "time_elapsed": 1000819, "internal_node_id": "0.0-147.0"}}, {"uniqueid": "MTK0985:3GU1KF0O4J88O8S6OZBJVDHW144BP1", "current_trial": 202, "dateTime": 1512950350545, "trialdata": {"rt": -1, "stimulus": "<p id=\"stim\">EUROPE</p>", "key_press": -1, "type": "PRES_VIS", "word": "europe", "wordID": 540, "conditions": [24, 1600, "v", 24000], "trial": 5, "serialpos": 5, "trial_type": "single-stim", "trial_index": 202, "time_elapsed": 1003576, "internal_node_id": "0.0-148.0"}}, {"uniqueid": "MTK0985:3GU1KF0O4J88O8S6OZBJVDHW144BP1", "current_trial": 203, "dateTime": 1512950353079, "trialdata": {"rt": -1, "stimulus": "<p id=\"stim\">LEG</p>", "key_press": -1, "type": "PRES_VIS", "word": "leg", "wordID": 808, "conditions": [24, 1600, "v", 24000], "trial": 5, "serialpos": 6, "trial_type": "single-stim", "trial_index": 203, "time_elapsed": 1006110, "internal_node_id": "0.0-149.0"}}, {"uniqueid": "MTK0985:3GU1KF0O4J88O8S6OZBJVDHW144BP1", "current_trial": 204, "dateTime": 1512950355657, "trialdata": {"rt": -1, "stimulus": "<p id=\"stim\">SCALLOP</p>", "key_press": -1, "type": "PRES_VIS", "word": "scallop", "wordID": 1241, "conditions": [24, 1600, "v", 24000], "trial": 5, "serialpos": 7, "trial_type": "single-stim", "trial_index": 204, "time_elapsed": 1008688, "internal_node_id": "0.0-150.0"}}, {"uniqueid": "MTK0985:3GU1KF0O4J88O8S6OZBJVDHW144BP1", "current_trial": 205, "dateTime": 1512950358222, "trialdata": {"rt": -1, "stimulus": "<p id=\"stim\">CRAB</p>", "key_press": -1, "type": "PRES_VIS", "word": "crab", "wordID": 396, "conditions": [24, 1600, "v", 24000], "trial": 5, "serialpos": 8, "trial_type": "single-stim", "trial_index": 205, "time_elapsed": 1011253, "internal_node_id": "0.0-151.0"}}, {"uniqueid": "MTK0985:3GU1KF0O4J88O8S6OZBJVDHW144BP1", "current_trial": 206, "dateTime": 1512950360719, "trialdata": {"rt": -1, "stimulus": "<p id=\"stim\">SWAMP</p>", "key_press": -1, "type": "PRES_VIS", "word": "swamp", "wordID": 1415, "conditions": [24, 1600, "v", 24000], "trial": 5, "serialpos": 9, "trial_type": "single-stim", "trial_index": 206, "time_elapsed": 1013750, "internal_node_id": "0.0-152.0"}}, {"uniqueid": "MTK0985:3GU1KF0O4J88O8S6OZBJVDHW144BP1", "current_trial": 207, "dateTime": 1512950363359, "trialdata": {"rt": -1, "stimulus": "<p id=\"stim\">SUSPECT</p>", "key_press": -1, "type": "PRES_VIS", "word": "suspect", "wordID": 1414, "conditions": [24, 1600, "v", 24000], "trial": 5, "serialpos": 10, "trial_type": "single-stim", "trial_index": 207, "time_elapsed": 1016390, "internal_node_id": "0.0-153.0"}}, {"uniqueid": "MTK0985:3GU1KF0O4J88O8S6OZBJVDHW144BP1", "current_trial": 208, "dateTime": 1512950365906, "trialdata": {"rt": -1, "stimulus": "<p id=\"stim\">TWEEZERS</p>", "key_press": -1, "type": "PRES_VIS", "word": "tweezers", "wordID": 1525, "conditions": [24, 1600, "v", 24000], "trial": 5, "serialpos": 11, "trial_type": "single-stim", "trial_index": 208, "time_elapsed": 1018937, "internal_node_id": "0.0-154.0"}}, {"uniqueid": "MTK0985:3GU1KF0O4J88O8S6OZBJVDHW144BP1", "current_trial": 209, "dateTime": 1512950368357, "trialdata": {"rt": -1, "stimulus": "<p id=\"stim\">MARROW</p>", "key_press": -1, "type": "PRES_VIS", "word": "marrow", "wordID": 871, "conditions": [24, 1600, "v", 24000], "trial": 5, "serialpos": 12, "trial_type": "single-stim", "trial_index": 209, "time_elapsed": 1021388, "internal_node_id": "0.0-155.0"}}, {"uniqueid": "MTK0985:3GU1KF0O4J88O8S6OZBJVDHW144BP1", "current_trial": 210, "dateTime": 1512950371021, "trialdata": {"rt": -1, "stimulus": "<p id=\"stim\">LASER</p>", "key_press": -1, "type": "PRES_VIS", "word": "laser", "wordID": 800, "conditions": [24, 1600, "v", 24000], "trial": 5, "serialpos": 13, "trial_type": "single-stim", "trial_index": 210, "time_elapsed": 1024052, "internal_node_id": "0.0-156.0"}}, {"uniqueid": "MTK0985:3GU1KF0O4J88O8S6OZBJVDHW144BP1", "current_trial": 211, "dateTime": 1512950373536, "trialdata": {"rt": -1, "stimulus": "<p id=\"stim\">RABBIT</p>", "key_press": -1, "type": "PRES_VIS", "word": "rabbit", "wordID": 1151, "conditions": [24, 1600, "v", 24000], "trial": 5, "serialpos": 14, "trial_type": "single-stim", "trial_index": 211, "time_elapsed": 1026567, "internal_node_id": "0.0-157.0"}}, {"uniqueid": "MTK0985:3GU1KF0O4J88O8S6OZBJVDHW144BP1", "current_trial": 212, "dateTime": 1512950376193, "trialdata": {"rt": -1, "stimulus": "<p id=\"stim\">CHIPMUNK</p>", "key_press": -1, "type": "PRES_VIS", "word": "chipmunk", "wordID": 303, "conditions": [24, 1600, "v", 24000], "trial": 5, "serialpos": 15, "trial_type": "single-stim", "trial_index": 212, "time_elapsed": 1029224, "internal_node_id": "0.0-158.0"}}, {"uniqueid": "MTK0985:3GU1KF0O4J88O8S6OZBJVDHW144BP1", "current_trial": 213, "dateTime": 1512950378641, "trialdata": {"rt": -1, "stimulus": "<p id=\"stim\">BURGLAR</p>", "key_press": -1, "type": "PRES_VIS", "word": "burglar", "wordID": 199, "conditions": [24, 1600, "v", 24000], "trial": 5, "serialpos": 16, "trial_type": "single-stim", "trial_index": 213, "time_elapsed": 1031672, "internal_node_id": "0.0-159.0"}}, {"uniqueid": "MTK0985:3GU1KF0O4J88O8S6OZBJVDHW144BP1", "current_trial": 214, "dateTime": 1512950381434, "trialdata": {"rt": -1, "stimulus": "<p id=\"stim\">SHIRT</p>", "key_press": -1, "type": "PRES_VIS", "word": "shirt", "wordID": 1286, "conditions": [24, 1600, "v", 24000], "trial": 5, "serialpos": 17, "trial_type": "single-stim", "trial_index": 214, "time_elapsed": 1034465, "internal_node_id": "0.0-160.0"}}, {"uniqueid": "MTK0985:3GU1KF0O4J88O8S6OZBJVDHW144BP1", "current_trial": 215, "dateTime": 1512950384056, "trialdata": {"rt": -1, "stimulus": "<p id=\"stim\">PERMIT</p>", "key_press": -1, "type": "PRES_VIS", "word": "permit", "wordID": 1050, "conditions": [24, 1600, "v", 24000], "trial": 5, "serialpos": 18, "trial_type": "single-stim", "trial_index": 215, "time_elapsed": 1037087, "internal_node_id": "0.0-161.0"}}, {"uniqueid": "MTK0985:3GU1KF0O4J88O8S6OZBJVDHW144BP1", "current_trial": 216, "dateTime": 1512950386468, "trialdata": {"rt": -1, "stimulus": "<p id=\"stim\">TROUT</p>", "key_press": -1, "type": "PRES_VIS", "word": "trout", "wordID": 1510, "conditions": [24, 1600, "v", 24000], "trial": 5, "serialpos": 19, "trial_type": "single-stim", "trial_index": 216, "time_elapsed": 1039499, "internal_node_id": "0.0-162.0"}}, {"uniqueid": "MTK0985:3GU1KF0O4J88O8S6OZBJVDHW144BP1", "current_trial": 217, "dateTime": 1512950389167, "trialdata": {"rt": -1, "stimulus": "<p id=\"stim\">STALLION</p>", "key_press": -1, "type": "PRES_VIS", "word": "stallion", "wordID": 1368, "conditions": [24, 1600, "v", 24000], "trial": 5, "serialpos": 20, "trial_type": "single-stim", "trial_index": 217, "time_elapsed": 1042198, "internal_node_id": "0.0-163.0"}}, {"uniqueid": "MTK0985:3GU1KF0O4J88O8S6OZBJVDHW144BP1", "current_trial": 218, "dateTime": 1512950391737, "trialdata": {"rt": -1, "stimulus": "<p id=\"stim\">TRENCH</p>", "key_press": -1, "type": "PRES_VIS", "word": "trench", "wordID": 1502, "conditions": [24, 1600, "v", 24000], "trial": 5, "serialpos": 21, "trial_type": "single-stim", "trial_index": 218, "time_elapsed": 1044768, "internal_node_id": "0.0-164.0"}}, {"uniqueid": "MTK0985:3GU1KF0O4J88O8S6OZBJVDHW144BP1", "current_trial": 219, "dateTime": 1512950394435, "trialdata": {"rt": -1, "stimulus": "<p id=\"stim\">ROBBER</p>", "key_press": -1, "type": "PRES_VIS", "word": "robber", "wordID": 1196, "conditions": [24, 1600, "v", 24000], "trial": 5, "serialpos": 22, "trial_type": "single-stim", "trial_index": 219, "time_elapsed": 1047466, "internal_node_id": "0.0-165.0"}}, {"uniqueid": "MTK0985:3GU1KF0O4J88O8S6OZBJVDHW144BP1", "current_trial": 220, "dateTime": 1512950397103, "trialdata": {"rt": -1, "stimulus": "<p id=\"stim\">RIFLE</p>", "key_press": -1, "type": "PRES_VIS", "word": "rifle", "wordID": 1191, "conditions": [24, 1600, "v", 24000], "trial": 5, "serialpos": 23, "trial_type": "single-stim", "trial_index": 220, "time_elapsed": 1050134, "internal_node_id": "0.0-166.0"}}, {"uniqueid": "MTK0985:3GU1KF0O4J88O8S6OZBJVDHW144BP1", "current_trial": 221, "dateTime": 1512950399381, "trialdata": {"rt": -1, "stimulus": "", "key_press": -1, "type": "PRE_RECALL_DELAY", "trial_type": "single-stim", "trial_index": 221, "time_elapsed": 1052412, "internal_node_id": "0.0-167.0-0.0"}}, {"uniqueid": "MTK0985:3GU1KF0O4J88O8S6OZBJVDHW144BP1", "current_trial": 222, "dateTime": 1512950399882, "trialdata": {"rt": -1000, "stimulus": "/static/audio/400Hz.wav", "key_press": -1, "type": "PRE_RECALL_ALERT", "trial_type": "single-audio", "trial_index": 222, "time_elapsed": 1052913, "internal_node_id": "0.0-168.0"}}, {"uniqueid": "MTK0985:3GU1KF0O4J88O8S6OZBJVDHW144BP1", "current_trial": 223, "dateTime": 1512950459887, "trialdata": {"rt": [3687, 4671, 6911, 8399, 9679, 13663, 14759, 17935, 20687, 22823, 28255, 29119, 30071, 58143], "recwords": ["perit", "trout", "robber", "burglar", "rifle", "chipmunk", "rabbit", "trout", "stallion", "trench", "elbow", "laser", "marrow", "suspect"], "type": "FREE_RECALL", "conditions": [24, 1600, "v", 24000], "trial": 5, "trial_type": "free-recall", "trial_index": 223, "time_elapsed": 1112915, "internal_node_id": "0.0-169.0-0.0"}}, {"uniqueid": "MTK0985:3GU1KF0O4J88O8S6OZBJVDHW144BP1", "current_trial": 224, "dateTime": 1512950462395, "trialdata": {"rt": 506, "key_press": 75, "type": "INSTRUCTIONS", "trial_type": "text", "trial_index": 224, "time_elapsed": 1115426, "internal_node_id": "0.0-170.0"}}, {"uniqueid": "MTK0985:3GU1KF0O4J88O8S6OZBJVDHW144BP1", "current_trial": 225, "dateTime": 1512950488397, "trialdata": {"rt": [1886, 7662, 10024, 13511, 15478, 18039, 19638, 21494, 23271], "responses": ["14", "18", "213", "14", "14", "18", "18", "19", "17"], "num1": [1, 8, 7, 5, 8, 9, 8, 3, 7, 4], "num2": [9, 8, 9, 7, 1, 8, 5, 9, 9, 3], "num3": [4, 2, 5, 2, 5, 1, 5, 7, 1, 1], "type": "DISTRACTOR", "conditions": [24, 800, "a", 24000], "trial": 6, "trial_type": "math-distractor", "trial_index": 225, "time_elapsed": 1141427, "internal_node_id": "0.0-171.0"}}, {"uniqueid": "MTK0985:3GU1KF0O4J88O8S6OZBJVDHW144BP1", "current_trial": 226, "dateTime": 1512950491397, "trialdata": {"rt": -1, "stimulus": "<p id=\"stim\">10</p>", "key_press": -1, "trial_type": "single-stim", "trial_index": 226, "time_elapsed": 1144428, "internal_node_id": "0.0-172.0-0.0"}}, {"uniqueid": "MTK0985:3GU1KF0O4J88O8S6OZBJVDHW144BP1", "current_trial": 227, "dateTime": 1512950492397, "trialdata": {"rt": -1, "stimulus": "<p id=\"stim\">9</p>", "key_press": -1, "trial_type": "single-stim", "trial_index": 227, "time_elapsed": 1145428, "internal_node_id": "0.0-172.0-1.0"}}, {"uniqueid": "MTK0985:3GU1KF0O4J88O8S6OZBJVDHW144BP1", "current_trial": 228, "dateTime": 1512950493397, "trialdata": {"rt": -1, "stimulus": "<p id=\"stim\">8</p>", "key_press": -1, "trial_type": "single-stim", "trial_index": 228, "time_elapsed": 1146428, "internal_node_id": "0.0-172.0-2.0"}}, {"uniqueid": "MTK0985:3GU1KF0O4J88O8S6OZBJVDHW144BP1", "current_trial": 229, "dateTime": 1512950494397, "trialdata": {"rt": -1, "stimulus": "<p id=\"stim\">7</p>", "key_press": -1, "trial_type": "single-stim", "trial_index": 229, "time_elapsed": 1147428, "internal_node_id": "0.0-172.0-3.0"}}, {"uniqueid": "MTK0985:3GU1KF0O4J88O8S6OZBJVDHW144BP1", "current_trial": 230, "dateTime": 1512950495398, "trialdata": {"rt": -1, "stimulus": "<p id=\"stim\">6</p>", "key_press": -1, "trial_type": "single-stim", "trial_index": 230, "time_elapsed": 1148428, "internal_node_id": "0.0-172.0-4.0"}}, {"uniqueid": "MTK0985:3GU1KF0O4J88O8S6OZBJVDHW144BP1", "current_trial": 231, "dateTime": 1512950496399, "trialdata": {"rt": -1, "stimulus": "<p id=\"stim\">5</p>", "key_press": -1, "trial_type": "single-stim", "trial_index": 231, "time_elapsed": 1149430, "internal_node_id": "0.0-172.0-5.0"}}, {"uniqueid": "MTK0985:3GU1KF0O4J88O8S6OZBJVDHW144BP1", "current_trial": 232, "dateTime": 1512950497399, "trialdata": {"rt": -1, "stimulus": "<p id=\"stim\">4</p>", "key_press": -1, "trial_type": "single-stim", "trial_index": 232, "time_elapsed": 1150430, "internal_node_id": "0.0-172.0-6.0"}}, {"uniqueid": "MTK0985:3GU1KF0O4J88O8S6OZBJVDHW144BP1", "current_trial": 233, "dateTime": 1512950498399, "trialdata": {"rt": -1, "stimulus": "<p id=\"stim\">3</p>", "key_press": -1, "trial_type": "single-stim", "trial_index": 233, "time_elapsed": 1151430, "internal_node_id": "0.0-172.0-7.0"}}, {"uniqueid": "MTK0985:3GU1KF0O4J88O8S6OZBJVDHW144BP1", "current_trial": 234, "dateTime": 1512950499399, "trialdata": {"rt": -1, "stimulus": "<p id=\"stim\">2</p>", "key_press": -1, "trial_type": "single-stim", "trial_index": 234, "time_elapsed": 1152430, "internal_node_id": "0.0-172.0-8.0"}}, {"uniqueid": "MTK0985:3GU1KF0O4J88O8S6OZBJVDHW144BP1", "current_trial": 235, "dateTime": 1512950500400, "trialdata": {"rt": -1, "stimulus": "<p id=\"stim\">1</p>", "key_press": -1, "trial_type": "single-stim", "trial_index": 235, "time_elapsed": 1153431, "internal_node_id": "0.0-172.0-9.0"}}, {"uniqueid": "MTK0985:3GU1KF0O4J88O8S6OZBJVDHW144BP1", "current_trial": 236, "dateTime": 1512950501900, "trialdata": {"rt": -1, "stimulus": "<p id=\"stim\">+</p>", "key_press": -1, "type": "FIXATION", "trial_type": "single-stim", "trial_index": 236, "time_elapsed": 1154931, "internal_node_id": "0.0-173.0-0.0"}}, {"uniqueid": "MTK0985:3GU1KF0O4J88O8S6OZBJVDHW144BP1", "current_trial": 237, "dateTime": 1512950503708, "trialdata": {"rt": -1000, "stimulus": "/static/audio/wordpool/HAWK.wav", "key_press": -1, "type": "PRES_AUD", "word": "hawk", "wordID": 691, "conditions": [24, 800, "a", 24000], "trial": 6, "serialpos": 0, "trial_type": "single-audio", "trial_index": 237, "time_elapsed": 1156739, "internal_node_id": "0.0-174.0"}}, {"uniqueid": "MTK0985:3GU1KF0O4J88O8S6OZBJVDHW144BP1", "current_trial": 238, "dateTime": 1512950505591, "trialdata": {"rt": -1000, "stimulus": "/static/audio/wordpool/RAZOR.wav", "key_press": -1, "type": "PRES_AUD", "word": "razor", "wordID": 1170, "conditions": [24, 800, "a", 24000], "trial": 6, "serialpos": 1, "trial_type": "single-audio", "trial_index": 238, "time_elapsed": 1158622, "internal_node_id": "0.0-175.0"}}, {"uniqueid": "MTK0985:3GU1KF0O4J88O8S6OZBJVDHW144BP1", "current_trial": 239, "dateTime": 1512950507511, "trialdata": {"rt": -1000, "stimulus": "/static/audio/wordpool/SCALPEL.wav", "key_press": -1, "type": "PRES_AUD", "word": "scalpel", "wordID": 1242, "conditions": [24, 800, "a", 24000], "trial": 6, "serialpos": 2, "trial_type": "single-audio", "trial_index": 239, "time_elapsed": 1160542, "internal_node_id": "0.0-176.0"}}, {"uniqueid": "MTK0985:3GU1KF0O4J88O8S6OZBJVDHW144BP1", "current_trial": 240, "dateTime": 1512950509447, "trialdata": {"rt": -1000, "stimulus": "/static/audio/wordpool/ARM.wav", "key_press": -1, "type": "PRES_AUD", "word": "arm", "wordID": 37, "conditions": [24, 800, "a", 24000], "trial": 6, "serialpos": 3, "trial_type": "single-audio", "trial_index": 240, "time_elapsed": 1162478, "internal_node_id": "0.0-177.0"}}, {"uniqueid": "MTK0985:3GU1KF0O4J88O8S6OZBJVDHW144BP1", "current_trial": 241, "dateTime": 1512950511117, "trialdata": {"rt": -1000, "stimulus": "/static/audio/wordpool/SNACK.wav", "key_press": -1, "type": "PRES_AUD", "word": "snack", "wordID": 1330, "conditions": [24, 800, "a", 24000], "trial": 6, "serialpos": 4, "trial_type": "single-audio", "trial_index": 241, "time_elapsed": 1164147, "internal_node_id": "0.0-178.0"}}, {"uniqueid": "MTK0985:3GU1KF0O4J88O8S6OZBJVDHW144BP1", "current_trial": 242, "dateTime": 1512950512732, "trialdata": {"rt": -1000, "stimulus": "/static/audio/wordpool/CITRUS.wav", "key_press": -1, "type": "PRES_AUD", "word": "citrus", "wordID": 312, "conditions": [24, 800, "a", 24000], "trial": 6, "serialpos": 5, "trial_type": "single-audio", "trial_index": 242, "time_elapsed": 1165763, "internal_node_id": "0.0-179.0"}}, {"uniqueid": "MTK0985:3GU1KF0O4J88O8S6OZBJVDHW144BP1", "current_trial": 243, "dateTime": 1512950514499, "trialdata": {"rt": -1000, "stimulus": "/static/audio/wordpool/OYSTER.wav", "key_press": -1, "type": "PRES_AUD", "word": "oyster", "wordID": 994, "conditions": [24, 800, "a", 24000], "trial": 6, "serialpos": 6, "trial_type": "single-audio", "trial_index": 243, "time_elapsed": 1167530, "internal_node_id": "0.0-180.0"}}, {"uniqueid": "MTK0985:3GU1KF0O4J88O8S6OZBJVDHW144BP1", "current_trial": 244, "dateTime": 1512950516479, "trialdata": {"rt": -1000, "stimulus": "/static/audio/wordpool/HIKER.wav", "key_press": -1, "type": "PRES_AUD", "word": "hiker", "wordID": 707, "conditions": [24, 800, "a", 24000], "trial": 6, "serialpos": 7, "trial_type": "single-audio", "trial_index": 244, "time_elapsed": 1169510, "internal_node_id": "0.0-181.0"}}, {"uniqueid": "MTK0985:3GU1KF0O4J88O8S6OZBJVDHW144BP1", "current_trial": 245, "dateTime": 1512950518118, "trialdata": {"rt": -1000, "stimulus": "/static/audio/wordpool/CANDY.wav", "key_press": -1, "type": "PRES_AUD", "word": "candy", "wordID": 229, "conditions": [24, 800, "a", 24000], "trial": 6, "serialpos": 8, "trial_type": "single-audio", "trial_index": 245, "time_elapsed": 1171149, "internal_node_id": "0.0-182.0"}}, {"uniqueid": "MTK0985:3GU1KF0O4J88O8S6OZBJVDHW144BP1", "current_trial": 246, "dateTime": 1512950519889, "trialdata": {"rt": -1000, "stimulus": "/static/audio/wordpool/DONOR.wav", "key_press": -1, "type": "PRES_AUD", "word": "donor", "wordID": 484, "conditions": [24, 800, "a", 24000], "trial": 6, "serialpos": 9, "trial_type": "single-audio", "trial_index": 246, "time_elapsed": 1172920, "internal_node_id": "0.0-183.0"}}, {"uniqueid": "MTK0985:3GU1KF0O4J88O8S6OZBJVDHW144BP1", "current_trial": 247, "dateTime": 1512950521730, "trialdata": {"rt": -1000, "stimulus": "/static/audio/wordpool/LIGHTNING.wav", "key_press": -1, "type": "PRES_AUD", "word": "lightning", "wordID": 819, "conditions": [24, 800, "a", 24000], "trial": 6, "serialpos": 10, "trial_type": "single-audio", "trial_index": 247, "time_elapsed": 1174761, "internal_node_id": "0.0-184.0"}}, {"uniqueid": "MTK0985:3GU1KF0O4J88O8S6OZBJVDHW144BP1", "current_trial": 248, "dateTime": 1512950523391, "trialdata": {"rt": -1000, "stimulus": "/static/audio/wordpool/GOBLIN.wav", "key_press": -1, "type": "PRES_AUD", "word": "goblin", "wordID": 644, "conditions": [24, 800, "a", 24000], "trial": 6, "serialpos": 11, "trial_type": "single-audio", "trial_index": 248, "time_elapsed": 1176422, "internal_node_id": "0.0-185.0"}}, {"uniqueid": "MTK0985:3GU1KF0O4J88O8S6OZBJVDHW144BP1", "current_trial": 249, "dateTime": 1512950525117, "trialdata": {"rt": -1000, "stimulus": "/static/audio/wordpool/GLOVE.wav", "key_press": -1, "type": "PRES_AUD", "word": "glove", "wordID": 641, "conditions": [24, 800, "a", 24000], "trial": 6, "serialpos": 12, "trial_type": "single-audio", "trial_index": 249, "time_elapsed": 1178148, "internal_node_id": "0.0-186.0"}}, {"uniqueid": "MTK0985:3GU1KF0O4J88O8S6OZBJVDHW144BP1", "current_trial": 250, "dateTime": 1512950526784, "trialdata": {"rt": -1000, "stimulus": "/static/audio/wordpool/WASP.wav", "key_press": -1, "type": "PRES_AUD", "word": "wasp", "wordID": 1592, "conditions": [24, 800, "a", 24000], "trial": 6, "serialpos": 13, "trial_type": "single-audio", "trial_index": 250, "time_elapsed": 1179815, "internal_node_id": "0.0-187.0"}}, {"uniqueid": "MTK0985:3GU1KF0O4J88O8S6OZBJVDHW144BP1", "current_trial": 251, "dateTime": 1512950528701, "trialdata": {"rt": -1000, "stimulus": "/static/audio/wordpool/CRICKET.wav", "key_press": -1, "type": "PRES_AUD", "word": "cricket", "wordID": 407, "conditions": [24, 800, "a", 24000], "trial": 6, "serialpos": 14, "trial_type": "single-audio", "trial_index": 251, "time_elapsed": 1181732, "internal_node_id": "0.0-188.0"}}, {"uniqueid": "MTK0985:3GU1KF0O4J88O8S6OZBJVDHW144BP1", "current_trial": 252, "dateTime": 1512950530509, "trialdata": {"rt": -1000, "stimulus": "/static/audio/wordpool/FOOTBALL.wav", "key_press": -1, "type": "PRES_AUD", "word": "football", "wordID": 590, "conditions": [24, 800, "a", 24000], "trial": 6, "serialpos": 15, "trial_type": "single-audio", "trial_index": 252, "time_elapsed": 1183539, "internal_node_id": "0.0-189.0"}}, {"uniqueid": "MTK0985:3GU1KF0O4J88O8S6OZBJVDHW144BP1", "current_trial": 253, "dateTime": 1512950532467, "trialdata": {"rt": -1000, "stimulus": "/static/audio/wordpool/DENTIST.wav", "key_press": -1, "type": "PRES_AUD", "word": "dentist", "wordID": 446, "conditions": [24, 800, "a", 24000], "trial": 6, "serialpos": 16, "trial_type": "single-audio", "trial_index": 253, "time_elapsed": 1185498, "internal_node_id": "0.0-190.0"}}, {"uniqueid": "MTK0985:3GU1KF0O4J88O8S6OZBJVDHW144BP1", "current_trial": 254, "dateTime": 1512950534077, "trialdata": {"rt": -1000, "stimulus": "/static/audio/wordpool/SEAL.wav", "key_press": -1, "type": "PRES_AUD", "word": "seal", "wordID": 1261, "conditions": [24, 800, "a", 24000], "trial": 6, "serialpos": 17, "trial_type": "single-audio", "trial_index": 254, "time_elapsed": 1187108, "internal_node_id": "0.0-191.0"}}, {"uniqueid": "MTK0985:3GU1KF0O4J88O8S6OZBJVDHW144BP1", "current_trial": 255, "dateTime": 1512950535972, "trialdata": {"rt": -1000, "stimulus": "/static/audio/wordpool/MAILBOX.wav", "key_press": -1, "type": "PRES_AUD", "word": "mailbox", "wordID": 856, "conditions": [24, 800, "a", 24000], "trial": 6, "serialpos": 18, "trial_type": "single-audio", "trial_index": 255, "time_elapsed": 1189002, "internal_node_id": "0.0-192.0"}}, {"uniqueid": "MTK0985:3GU1KF0O4J88O8S6OZBJVDHW144BP1", "current_trial": 256, "dateTime": 1512950537942, "trialdata": {"rt": -1000, "stimulus": "/static/audio/wordpool/XEROX.wav", "key_press": -1, "type": "PRES_AUD", "word": "xerox", "wordID": 1627, "conditions": [24, 800, "a", 24000], "trial": 6, "serialpos": 19, "trial_type": "single-audio", "trial_index": 256, "time_elapsed": 1190973, "internal_node_id": "0.0-193.0"}}, {"uniqueid": "MTK0985:3GU1KF0O4J88O8S6OZBJVDHW144BP1", "current_trial": 257, "dateTime": 1512950539824, "trialdata": {"rt": -1000, "stimulus": "/static/audio/wordpool/GAVEL.wav", "key_press": -1, "type": "PRES_AUD", "word": "gavel", "wordID": 626, "conditions": [24, 800, "a", 24000], "trial": 6, "serialpos": 20, "trial_type": "single-audio", "trial_index": 257, "time_elapsed": 1192855, "internal_node_id": "0.0-194.0"}}, {"uniqueid": "MTK0985:3GU1KF0O4J88O8S6OZBJVDHW144BP1", "current_trial": 258, "dateTime": 1512950541639, "trialdata": {"rt": -1000, "stimulus": "/static/audio/wordpool/SPIDER.wav", "key_press": -1, "type": "PRES_AUD", "word": "spider", "wordID": 1350, "conditions": [24, 800, "a", 24000], "trial": 6, "serialpos": 21, "trial_type": "single-audio", "trial_index": 258, "time_elapsed": 1194670, "internal_node_id": "0.0-195.0"}}, {"uniqueid": "MTK0985:3GU1KF0O4J88O8S6OZBJVDHW144BP1", "current_trial": 259, "dateTime": 1512950543570, "trialdata": {"rt": -1000, "stimulus": "/static/audio/wordpool/SILK.wav", "key_press": -1, "type": "PRES_AUD", "word": "silk", "wordID": 1306, "conditions": [24, 800, "a", 24000], "trial": 6, "serialpos": 22, "trial_type": "single-audio", "trial_index": 259, "time_elapsed": 1196601, "internal_node_id": "0.0-196.0"}}, {"uniqueid": "MTK0985:3GU1KF0O4J88O8S6OZBJVDHW144BP1", "current_trial": 260, "dateTime": 1512950545393, "trialdata": {"rt": -1000, "stimulus": "/static/audio/wordpool/LACE.wav", "key_press": -1, "type": "PRES_AUD", "word": "lace", "wordID": 791, "conditions": [24, 800, "a", 24000], "trial": 6, "serialpos": 23, "trial_type": "single-audio", "trial_index": 260, "time_elapsed": 1198424, "internal_node_id": "0.0-197.0"}}, {"uniqueid": "MTK0985:3GU1KF0O4J88O8S6OZBJVDHW144BP1", "current_trial": 261, "dateTime": 1512950546635, "trialdata": {"rt": -1, "stimulus": "", "key_press": -1, "type": "PRE_RECALL_DELAY", "trial_type": "single-stim", "trial_index": 261, "time_elapsed": 1199666, "internal_node_id": "0.0-198.0-0.0"}}, {"uniqueid": "MTK0985:3GU1KF0O4J88O8S6OZBJVDHW144BP1", "current_trial": 262, "dateTime": 1512950547136, "trialdata": {"rt": -1000, "stimulus": "/static/audio/400Hz.wav", "key_press": -1, "type": "PRE_RECALL_ALERT", "trial_type": "single-audio", "trial_index": 262, "time_elapsed": 1200167, "internal_node_id": "0.0-199.0"}}, {"uniqueid": "MTK0985:3GU1KF0O4J88O8S6OZBJVDHW144BP1", "current_trial": 263, "dateTime": 1512950607141, "trialdata": {"rt": [1226, 1994, 3218, 3970, 4642, 6233, 10265, 12817, 16824, 20457, 27353, 30017, 32816, 34584, 39008], "recwords": ["spider", "silk", "lace", "gavel", "arm", "laser", "scalpel", "oyster", "hawk", "glove", "dentist", "hike", "goblin", "lightning", "arm"], "type": "FREE_RECALL", "conditions": [24, 800, "a", 24000], "trial": 6, "trial_type": "free-recall", "trial_index": 263, "time_elapsed": 1260169, "internal_node_id": "0.0-200.0-0.0"}}, {"uniqueid": "MTK0985:3GU1KF0O4J88O8S6OZBJVDHW144BP1", "current_trial": 264, "dateTime": 1512950610610, "trialdata": {"rt": 1468, "key_press": 75, "type": "INSTRUCTIONS", "trial_type": "text", "trial_index": 264, "time_elapsed": 1263641, "internal_node_id": "0.0-201.0"}}, {"uniqueid": "MTK0985:3GU1KF0O4J88O8S6OZBJVDHW144BP1", "current_trial": 265, "dateTime": 1512950624612, "trialdata": {"rt": [3350, 6006, 8286, 10126], "responses": ["11", "16", "17", "17"], "num1": [1, 3, 9, 1, 8], "num2": [3, 9, 3, 9, 5], "num3": [7, 4, 5, 7, 6], "type": "DISTRACTOR", "conditions": [12, 800, "v", 12000], "trial": 7, "trial_type": "math-distractor", "trial_index": 265, "time_elapsed": 1277642, "internal_node_id": "0.0-202.0"}}, {"uniqueid": "MTK0985:3GU1KF0O4J88O8S6OZBJVDHW144BP1", "current_trial": 266, "dateTime": 1512950627613, "trialdata": {"rt": -1, "stimulus": "<p id=\"stim\">10</p>", "key_press": -1, "trial_type": "single-stim", "trial_index": 266, "time_elapsed": 1280644, "internal_node_id": "0.0-203.0-0.0"}}, {"uniqueid": "MTK0985:3GU1KF0O4J88O8S6OZBJVDHW144BP1", "current_trial": 267, "dateTime": 1512950628614, "trialdata": {"rt": -1, "stimulus": "<p id=\"stim\">9</p>", "key_press": -1, "trial_type": "single-stim", "trial_index": 267, "time_elapsed": 1281645, "internal_node_id": "0.0-203.0-1.0"}}, {"uniqueid": "MTK0985:3GU1KF0O4J88O8S6OZBJVDHW144BP1", "current_trial": 268, "dateTime": 1512950629614, "trialdata": {"rt": -1, "stim