{"condition": 0, "counterbalance": 916, "assignmentId": "3Y54SXRO1MSLCZUJ571Y5DAHDBDUTN", "workerId": "MTK0560", "hitId": "3R868ACW4SJW694T1SWXY2ENBU5GZB", "currenttrial": 627, "bonus": 0, "data": [{"uniqueid": "MTK0560:3Y54SXRO1MSLCZUJ571Y5DAHDBDUTN", "current_trial": 0, "dateTime": 1511208912047, "trialdata": {"rt": 11802, "key_press": 32, "type": "INSTRUCTIONS", "trial_type": "text", "trial_index": 0, "time_elapsed": 11812, "internal_node_id": "0.0-0.0"}}, {"uniqueid": "MTK0560:3Y54SXRO1MSLCZUJ571Y5DAHDBDUTN", "current_trial": 1, "dateTime": 1511209076120, "trialdata": {"rt": 164068, "key_press": 122, "type": "INSTRUCTIONS", "trial_type": "text", "trial_index": 1, "time_elapsed": 175885, "internal_node_id": "0.0-1.0"}}, {"uniqueid": "MTK0560:3Y54SXRO1MSLCZUJ571Y5DAHDBDUTN", "current_trial": 2, "dateTime": 1511209087326, "trialdata": {"rt": [11186], "responses": ["ocean"], "type": "AUDIO_TEST", "trial_type": "audio-test", "trial_index": 2, "time_elapsed": 187091, "internal_node_id": "0.0-2.0"}}, {"uniqueid": "MTK0560:3Y54SXRO1MSLCZUJ571Y5DAHDBDUTN", "current_trial": 3, "dateTime": 1511209093972, "trialdata": {"rt": [6637], "responses": ["crystal"], "type": "AUDIO_TEST", "trial_type": "audio-test", "trial_index": 3, "time_elapsed": 193737, "internal_node_id": "0.0-3.0"}}, {"uniqueid": "MTK0560:3Y54SXRO1MSLCZUJ571Y5DAHDBDUTN", "current_trial": 4, "dateTime": 1511209099685, "trialdata": {"rt": [5704], "responses": ["spice"], "type": "AUDIO_TEST", "trial_type": "audio-test", "trial_index": 4, "time_elapsed": 199450, "internal_node_id": "0.0-4.0"}}, {"uniqueid": "MTK0560:3Y54SXRO1MSLCZUJ571Y5DAHDBDUTN", "current_trial": 5, "dateTime": 1511209128187, "trialdata": {"rt": 27748, "responses": "{\"Q0\":\"3:00\",\"Q1\":\"9:00\",\"Q2\":\"3\"}", "type": "SLEEP_SURVEY", "trial_type": "survey-text", "trial_index": 5, "time_elapsed": 227952, "internal_node_id": "0.0-5.0"}}, {"uniqueid": "MTK0560:3Y54SXRO1MSLCZUJ571Y5DAHDBDUTN", "current_trial": 6, "dateTime": 1511209190700, "trialdata": {"rt": 61511, "key_press": 32, "type": "INSTRUCTIONS", "trial_type": "text", "trial_index": 6, "time_elapsed": 290464, "internal_node_id": "0.0-6.0"}}, {"uniqueid": "MTK0560:3Y54SXRO1MSLCZUJ571Y5DAHDBDUTN", "current_trial": 7, "dateTime": 1511209209316, "trialdata": {"rt": 18115, "key_press": 32, "type": "INSTRUCTIONS", "trial_type": "text", "trial_index": 7, "time_elapsed": 309081, "internal_node_id": "0.0-7.0"}}, {"uniqueid": "MTK0560:3Y54SXRO1MSLCZUJ571Y5DAHDBDUTN", "current_trial": 8, "dateTime": 1511209222116, "trialdata": {"rt": 12299, "key_press": 32, "type": "INSTRUCTIONS", "trial_type": "text", "trial_index": 8, "time_elapsed": 321881, "internal_node_id": "0.0-8.0"}}, {"uniqueid": "MTK0560:3Y54SXRO1MSLCZUJ571Y5DAHDBDUTN", "current_trial": 9, "dateTime": 1511209241125, "trialdata": {"rt": [3255, 6135, 8583, 12079, 16551], "responses": ["13", "22", "11", "14", "15"], "num1": [8, 7, 2, 4, 6, 4], "num2": [3, 8, 3, 1, 1, 9], "num3": [2, 7, 6, 9, 8, 5], "type": "DISTRACTOR", "conditions": [18, 1200, "v", 18000], "trial": 0, "trial_type": "math-distractor", "trial_index": 9, "time_elapsed": 340889, "internal_node_id": "0.0-9.0"}}, {"uniqueid": "MTK0560:3Y54SXRO1MSLCZUJ571Y5DAHDBDUTN", "current_trial": 10, "dateTime": 1511209244127, "trialdata": {"rt": -1, "stimulus": "<p id=\"stim\">10</p>", "key_press": -1, "trial_type": "single-stim", "trial_index": 10, "time_elapsed": 343892, "internal_node_id": "0.0-10.0-0.0"}}, {"uniqueid": "MTK0560:3Y54SXRO1MSLCZUJ571Y5DAHDBDUTN", "current_trial": 11, "dateTime": 1511209245129, "trialdata": {"rt": -1, "stimulus": "<p id=\"stim\">9</p>", "key_press": -1, "trial_type": "single-stim", "trial_index": 11, "time_elapsed": 344893, "internal_node_id": "0.0-10.0-1.0"}}, {"uniqueid": "MTK0560:3Y54SXRO1MSLCZUJ571Y5DAHDBDUTN", "current_trial": 12, "dateTime": 1511209246130, "trialdata": {"rt": -1, "stimulus": "<p id=\"stim\">8</p>", "key_press": -1, "trial_type": "single-stim", "trial_index": 12, "time_elapsed": 345894, "internal_node_id": "0.0-10.0-2.0"}}, {"uniqueid": "MTK0560:3Y54SXRO1MSLCZUJ571Y5DAHDBDUTN", "current_trial": 13, "dateTime": 1511209247130, "trialdata": {"rt": -1, "stimulus": "<p id=\"stim\">7</p>", "key_press": -1, "trial_type": "single-stim", "trial_index": 13, "time_elapsed": 346895, "internal_node_id": "0.0-10.0-3.0"}}, {"uniqueid": "MTK0560:3Y54SXRO1MSLCZUJ571Y5DAHDBDUTN", "current_trial": 14, "dateTime": 1511209248132, "trialdata": {"rt": -1, "stimulus": "<p id=\"stim\">6</p>", "key_press": -1, "trial_type": "single-stim", "trial_index": 14, "time_elapsed": 347896, "internal_node_id": "0.0-10.0-4.0"}}, {"uniqueid": "MTK0560:3Y54SXRO1MSLCZUJ571Y5DAHDBDUTN", "current_trial": 15, "dateTime": 1511209249134, "trialdata": {"rt": -1, "stimulus": "<p id=\"stim\">5</p>", "key_press": -1, "trial_type": "single-stim", "trial_index": 15, "time_elapsed": 348899, "internal_node_id": "0.0-10.0-5.0"}}, {"uniqueid": "MTK0560:3Y54SXRO1MSLCZUJ571Y5DAHDBDUTN", "current_trial": 16, "dateTime": 1511209250135, "trialdata": {"rt": -1, "stimulus": "<p id=\"stim\">4</p>", "key_press": -1, "trial_type": "single-stim", "trial_index": 16, "time_elapsed": 349900, "internal_node_id": "0.0-10.0-6.0"}}, {"uniqueid": "MTK0560:3Y54SXRO1MSLCZUJ571Y5DAHDBDUTN", "current_trial": 17, "dateTime": 1511209251136, "trialdata": {"rt": -1, "stimulus": "<p id=\"stim\">3</p>", "key_press": -1, "trial_type": "single-stim", "trial_index": 17, "time_elapsed": 350901, "internal_node_id": "0.0-10.0-7.0"}}, {"uniqueid": "MTK0560:3Y54SXRO1MSLCZUJ571Y5DAHDBDUTN", "current_trial": 18, "dateTime": 1511209252137, "trialdata": {"rt": -1, "stimulus": "<p id=\"stim\">2</p>", "key_press": -1, "trial_type": "single-stim", "trial_index": 18, "time_elapsed": 351901, "internal_node_id": "0.0-10.0-8.0"}}, {"uniqueid": "MTK0560:3Y54SXRO1MSLCZUJ571Y5DAHDBDUTN", "current_trial": 19, "dateTime": 1511209253139, "trialdata": {"rt": -1, "stimulus": "<p id=\"stim\">1</p>", "key_press": -1, "trial_type": "single-stim", "trial_index": 19, "time_elapsed": 352903, "internal_node_id": "0.0-10.0-9.0"}}, {"uniqueid": "MTK0560:3Y54SXRO1MSLCZUJ571Y5DAHDBDUTN", "current_trial": 20, "dateTime": 1511209254640, "trialdata": {"rt": -1, "stimulus": "<p id=\"stim\">+</p>", "key_press": -1, "type": "FIXATION", "trial_type": "single-stim", "trial_index": 20, "time_elapsed": 354405, "internal_node_id": "0.0-11.0-0.0"}}, {"uniqueid": "MTK0560:3Y54SXRO1MSLCZUJ571Y5DAHDBDUTN", "current_trial": 21, "dateTime": 1511209255841, "trialdata": {"rt": -1, "stimulus": "<p id=\"stim\">CROSS</p>", "key_press": -1, "type": "PRES_VIS", "word": "cross", "wordID": 412, "conditions": [18, 1200, "v", 18000], "trial": 0, "serialpos": 0, "trial_type": "single-stim", "trial_index": 21, "time_elapsed": 355605, "internal_node_id": "0.0-12.0"}}, {"uniqueid": "MTK0560:3Y54SXRO1MSLCZUJ571Y5DAHDBDUTN", "current_trial": 22, "dateTime": 1511209258020, "trialdata": {"rt": -1, "stimulus": "<p id=\"stim\">FOX</p>", "key_press": -1, "type": "PRES_VIS", "word": "fox", "wordID": 597, "conditions": [18, 1200, "v", 18000], "trial": 0, "serialpos": 1, "trial_type": "single-stim", "trial_index": 22, "time_elapsed": 357785, "internal_node_id": "0.0-13.0"}}, {"uniqueid": "MTK0560:3Y54SXRO1MSLCZUJ571Y5DAHDBDUTN", "current_trial": 23, "dateTime": 1511209260179, "trialdata": {"rt": -1, "stimulus": "<p id=\"stim\">SAUSAGE</p>", "key_press": -1, "type": "PRES_VIS", "word": "sausage", "wordID": 1237, "conditions": [18, 1200, "v", 18000], "trial": 0, "serialpos": 2, "trial_type": "single-stim", "trial_index": 23, "time_elapsed": 359943, "internal_node_id": "0.0-14.0"}}, {"uniqueid": "MTK0560:3Y54SXRO1MSLCZUJ571Y5DAHDBDUTN", "current_trial": 24, "dateTime": 1511209262274, "trialdata": {"rt": -1, "stimulus": "<p id=\"stim\">SERVER</p>", "key_press": -1, "type": "PRES_VIS", "word": "server", "wordID": 1271, "conditions": [18, 1200, "v", 18000], "trial": 0, "serialpos": 3, "trial_type": "single-stim", "trial_index": 24, "time_elapsed": 362038, "internal_node_id": "0.0-15.0"}}, {"uniqueid": "MTK0560:3Y54SXRO1MSLCZUJ571Y5DAHDBDUTN", "current_trial": 25, "dateTime": 1511209264657, "trialdata": {"rt": -1, "stimulus": "<p id=\"stim\">BRICK</p>", "key_press": -1, "type": "PRES_VIS", "word": "brick", "wordID": 171, "conditions": [18, 1200, "v", 18000], "trial": 0, "serialpos": 4, "trial_type": "single-stim", "trial_index": 25, "time_elapsed": 364421, "internal_node_id": "0.0-16.0"}}, {"uniqueid": "MTK0560:3Y54SXRO1MSLCZUJ571Y5DAHDBDUTN", "current_trial": 26, "dateTime": 1511209266962, "trialdata": {"rt": -1, "stimulus": "<p id=\"stim\">VENUS</p>", "key_press": -1, "type": "PRES_VIS", "word": "venus", "wordID": 1556, "conditions": [18, 1200, "v", 18000], "trial": 0, "serialpos": 5, "trial_type": "single-stim", "trial_index": 26, "time_elapsed": 366726, "internal_node_id": "0.0-17.0"}}, {"uniqueid": "MTK0560:3Y54SXRO1MSLCZUJ571Y5DAHDBDUTN", "current_trial": 27, "dateTime": 1511209269097, "trialdata": {"rt": -1, "stimulus": "<p id=\"stim\">SUNSET</p>", "key_press": -1, "type": "PRES_VIS", "word": "sunset", "wordID": 1407, "conditions": [18, 1200, "v", 18000], "trial": 0, "serialpos": 6, "trial_type": "single-stim", "trial_index": 27, "time_elapsed": 368861, "internal_node_id": "0.0-18.0"}}, {"uniqueid": "MTK0560:3Y54SXRO1MSLCZUJ571Y5DAHDBDUTN", "current_trial": 28, "dateTime": 1511209271149, "trialdata": {"rt": -1, "stimulus": "<p id=\"stim\">MUMMY</p>", "key_press": -1, "type": "PRES_VIS", "word": "mummy", "wordID": 931, "conditions": [18, 1200, "v", 18000], "trial": 0, "serialpos": 7, "trial_type": "single-stim", "trial_index": 28, "time_elapsed": 370913, "internal_node_id": "0.0-19.0"}}, {"uniqueid": "MTK0560:3Y54SXRO1MSLCZUJ571Y5DAHDBDUTN", "current_trial": 29, "dateTime": 1511209273285, "trialdata": {"rt": -1, "stimulus": "<p id=\"stim\">EGYPT</p>", "key_press": -1, "type": "PRES_VIS", "word": "egypt", "wordID": 518, "conditions": [18, 1200, "v", 18000], "trial": 0, "serialpos": 8, "trial_type": "single-stim", "trial_index": 29, "time_elapsed": 373050, "internal_node_id": "0.0-20.0"}}, {"uniqueid": "MTK0560:3Y54SXRO1MSLCZUJ571Y5DAHDBDUTN", "current_trial": 30, "dateTime": 1511209275394, "trialdata": {"rt": -1, "stimulus": "<p id=\"stim\">SLUG</p>", "key_press": -1, "type": "PRES_VIS", "word": "slug", "wordID": 1328, "conditions": [18, 1200, "v", 18000], "trial": 0, "serialpos": 9, "trial_type": "single-stim", "trial_index": 30, "time_elapsed": 375158, "internal_node_id": "0.0-21.0"}}, {"uniqueid": "MTK0560:3Y54SXRO1MSLCZUJ571Y5DAHDBDUTN", "current_trial": 31, "dateTime": 1511209277684, "trialdata": {"rt": -1, "stimulus": "<p id=\"stim\">LUGGAGE</p>", "key_press": -1, "type": "PRES_VIS", "word": "luggage", "wordID": 846, "conditions": [18, 1200, "v", 18000], "trial": 0, "serialpos": 10, "trial_type": "single-stim", "trial_index": 31, "time_elapsed": 377449, "internal_node_id": "0.0-22.0"}}, {"uniqueid": "MTK0560:3Y54SXRO1MSLCZUJ571Y5DAHDBDUTN", "current_trial": 32, "dateTime": 1511209279961, "trialdata": {"rt": -1, "stimulus": "<p id=\"stim\">SPOON</p>", "key_press": -1, "type": "PRES_VIS", "word": "spoon", "wordID": 1356, "conditions": [18, 1200, "v", 18000], "trial": 0, "serialpos": 11, "trial_type": "single-stim", "trial_index": 32, "time_elapsed": 379725, "internal_node_id": "0.0-23.0"}}, {"uniqueid": "MTK0560:3Y54SXRO1MSLCZUJ571Y5DAHDBDUTN", "current_trial": 33, "dateTime": 1511209282296, "trialdata": {"rt": -1, "stimulus": "<p id=\"stim\">SCRIBBLE</p>", "key_press": -1, "type": "PRES_VIS", "word": "scribble", "wordID": 1255, "conditions": [18, 1200, "v", 18000], "trial": 0, "serialpos": 12, "trial_type": "single-stim", "trial_index": 33, "time_elapsed": 382061, "internal_node_id": "0.0-24.0"}}, {"uniqueid": "MTK0560:3Y54SXRO1MSLCZUJ571Y5DAHDBDUTN", "current_trial": 34, "dateTime": 1511209284673, "trialdata": {"rt": -1, "stimulus": "<p id=\"stim\">MUFFIN</p>", "key_press": -1, "type": "PRES_VIS", "word": "muffin", "wordID": 928, "conditions": [18, 1200, "v", 18000], "trial": 0, "serialpos": 13, "trial_type": "single-stim", "trial_index": 34, "time_elapsed": 384437, "internal_node_id": "0.0-25.0"}}, {"uniqueid": "MTK0560:3Y54SXRO1MSLCZUJ571Y5DAHDBDUTN", "current_trial": 35, "dateTime": 1511209286730, "trialdata": {"rt": -1, "stimulus": "<p id=\"stim\">SANDWICH</p>", "key_press": -1, "type": "PRES_VIS", "word": "sandwich", "wordID": 1231, "conditions": [18, 1200, "v", 18000], "trial": 0, "serialpos": 14, "trial_type": "single-stim", "trial_index": 35, "time_elapsed": 386494, "internal_node_id": "0.0-26.0"}}, {"uniqueid": "MTK0560:3Y54SXRO1MSLCZUJ571Y5DAHDBDUTN", "current_trial": 36, "dateTime": 1511209288868, "trialdata": {"rt": -1, "stimulus": "<p id=\"stim\">ROBIN</p>", "key_press": -1, "type": "PRES_VIS", "word": "robin", "wordID": 1198, "conditions": [18, 1200, "v", 18000], "trial": 0, "serialpos": 15, "trial_type": "single-stim", "trial_index": 36, "time_elapsed": 388633, "internal_node_id": "0.0-27.0"}}, {"uniqueid": "MTK0560:3Y54SXRO1MSLCZUJ571Y5DAHDBDUTN", "current_trial": 37, "dateTime": 1511209290942, "trialdata": {"rt": -1, "stimulus": "<p id=\"stim\">RELISH</p>", "key_press": -1, "type": "PRES_VIS", "word": "relish", "wordID": 1182, "conditions": [18, 1200, "v", 18000], "trial": 0, "serialpos": 16, "trial_type": "single-stim", "trial_index": 37, "time_elapsed": 390707, "internal_node_id": "0.0-28.0"}}, {"uniqueid": "MTK0560:3Y54SXRO1MSLCZUJ571Y5DAHDBDUTN", "current_trial": 38, "dateTime": 1511209293219, "trialdata": {"rt": -1, "stimulus": "<p id=\"stim\">QUAIL</p>", "key_press": -1, "type": "PRES_VIS", "word": "quail", "wordID": 1146, "conditions": [18, 1200, "v", 18000], "trial": 0, "serialpos": 17, "trial_type": "single-stim", "trial_index": 38, "time_elapsed": 392983, "internal_node_id": "0.0-29.0"}}, {"uniqueid": "MTK0560:3Y54SXRO1MSLCZUJ571Y5DAHDBDUTN", "current_trial": 39, "dateTime": 1511209295518, "trialdata": {"rt": -1, "stimulus": "", "key_press": -1, "type": "PRE_RECALL_DELAY", "trial_type": "single-stim", "trial_index": 39, "time_elapsed": 395283, "internal_node_id": "0.0-30.0-0.0"}}, {"uniqueid": "MTK0560:3Y54SXRO1MSLCZUJ571Y5DAHDBDUTN", "current_trial": 40, "dateTime": 1511209296025, "trialdata": {"rt": -1000, "stimulus": "/static/audio/400Hz.wav", "key_press": -1, "type": "PRE_RECALL_ALERT", "trial_type": "single-audio", "trial_index": 40, "time_elapsed": 395790, "internal_node_id": "0.0-31.0"}}, {"uniqueid": "MTK0560:3Y54SXRO1MSLCZUJ571Y5DAHDBDUTN", "current_trial": 41, "dateTime": 1511209356031, "trialdata": {"rt": [3511, 5344, 6849, 18383, 25503, 31106, 36681, 38673], "recwords": ["quail", "robin", "relish", "scribble", "fox", "spoon", "slug", "brick"], "type": "FREE_RECALL", "conditions": [18, 1200, "v", 18000], "trial": 0, "trial_type": "free-recall", "trial_index": 41, "time_elapsed": 455791, "internal_node_id": "0.0-32.0-0.0"}}, {"uniqueid": "MTK0560:3Y54SXRO1MSLCZUJ571Y5DAHDBDUTN", "current_trial": 42, "dateTime": 1511209360484, "trialdata": {"rt": 2452, "key_press": 32, "type": "INSTRUCTIONS", "trial_type": "text", "trial_index": 42, "time_elapsed": 460249, "internal_node_id": "0.0-33.0"}}, {"uniqueid": "MTK0560:3Y54SXRO1MSLCZUJ571Y5DAHDBDUTN", "current_trial": 43, "dateTime": 1511209380487, "trialdata": {"rt": [3021, 4917, 10621, 14653], "responses": ["10", "21", "15", "18"], "num1": [4, 7, 1, 8, 9], "num2": [4, 7, 6, 6, 6], "num3": [2, 7, 8, 4, 4], "type": "DISTRACTOR", "conditions": [18, 1200, "a", 18000], "trial": 1, "trial_type": "math-distractor", "trial_index": 43, "time_elapsed": 480252, "internal_node_id": "0.0-34.0"}}, {"uniqueid": "MTK0560:3Y54SXRO1MSLCZUJ571Y5DAHDBDUTN", "current_trial": 44, "dateTime": 1511209383488, "trialdata": {"rt": -1, "stimulus": "<p id=\"stim\">10</p>", "key_press": -1, "trial_type": "single-stim", "trial_index": 44, "time_elapsed": 483252, "internal_node_id": "0.0-35.0-0.0"}}, {"uniqueid": "MTK0560:3Y54SXRO1MSLCZUJ571Y5DAHDBDUTN", "current_trial": 45, "dateTime": 1511209384488, "trialdata": {"rt": -1, "stimulus": "<p id=\"stim\">9</p>", "key_press": -1, "trial_type": "single-stim", "trial_index": 45, "time_elapsed": 484253, "internal_node_id": "0.0-35.0-1.0"}}, {"uniqueid": "MTK0560:3Y54SXRO1MSLCZUJ571Y5DAHDBDUTN", "current_trial": 46, "dateTime": 1511209385490, "trialdata": {"rt": -1, "stimulus": "<p id=\"stim\">8</p>", "key_press": -1, "trial_type": "single-stim", "trial_index": 46, "time_elapsed": 485254, "internal_node_id": "0.0-35.0-2.0"}}, {"uniqueid": "MTK0560:3Y54SXRO1MSLCZUJ571Y5DAHDBDUTN", "current_trial": 47, "dateTime": 1511209386491, "trialdata": {"rt": -1, "stimulus": "<p id=\"stim\">7</p>", "key_press": -1, "trial_type": "single-stim", "trial_index": 47, "time_elapsed": 486255, "internal_node_id": "0.0-35.0-3.0"}}, {"uniqueid": "MTK0560:3Y54SXRO1MSLCZUJ571Y5DAHDBDUTN", "current_trial": 48, "dateTime": 1511209387492, "trialdata": {"rt": -1, "stimulus": "<p id=\"stim\">6</p>", "key_press": -1, "trial_type": "single-stim", "trial_index": 48, "time_elapsed": 487256, "internal_node_id": "0.0-35.0-4.0"}}, {"uniqueid": "MTK0560:3Y54SXRO1MSLCZUJ571Y5DAHDBDUTN", "current_trial": 49, "dateTime": 1511209388495, "trialdata": {"rt": -1, "stimulus": "<p id=\"stim\">5</p>", "key_press": -1, "trial_type": "single-stim", "trial_index": 49, "time_elapsed": 488257, "internal_node_id": "0.0-35.0-5.0"}}, {"uniqueid": "MTK0560:3Y54SXRO1MSLCZUJ571Y5DAHDBDUTN", "current_trial": 50, "dateTime": 1511209389496, "trialdata": {"rt": -1, "stimulus": "<p id=\"stim\">4</p>", "key_press": -1, "trial_type": "single-stim", "trial_index": 50, "time_elapsed": 489260, "internal_node_id": "0.0-35.0-6.0"}}, {"uniqueid": "MTK0560:3Y54SXRO1MSLCZUJ571Y5DAHDBDUTN", "current_trial": 51, "dateTime": 1511209390497, "trialdata": {"rt": -1, "stimulus": "<p id=\"stim\">3</p>", "key_press": -1, "trial_type": "single-stim", "trial_index": 51, "time_elapsed": 490261, "internal_node_id": "0.0-35.0-7.0"}}, {"uniqueid": "MTK0560:3Y54SXRO1MSLCZUJ571Y5DAHDBDUTN", "current_trial": 52, "dateTime": 1511209391498, "trialdata": {"rt": -1, "stimulus": "<p id=\"stim\">2</p>", "key_press": -1, "trial_type": "single-stim", "trial_index": 52, "time_elapsed": 491262, "internal_node_id": "0.0-35.0-8.0"}}, {"uniqueid": "MTK0560:3Y54SXRO1MSLCZUJ571Y5DAHDBDUTN", "current_trial": 53, "dateTime": 1511209392499, "trialdata": {"rt": -1, "stimulus": "<p id=\"stim\">1</p>", "key_press": -1, "trial_type": "single-stim", "trial_index": 53, "time_elapsed": 492263, "internal_node_id": "0.0-35.0-9.0"}}, {"uniqueid": "MTK0560:3Y54SXRO1MSLCZUJ571Y5DAHDBDUTN", "current_trial": 54, "dateTime": 1511209394000, "trialdata": {"rt": -1, "stimulus": "<p id=\"stim\">+</p>", "key_press": -1, "type": "FIXATION", "trial_type": "single-stim", "trial_index": 54, "time_elapsed": 493764, "internal_node_id": "0.0-36.0-0.0"}}, {"uniqueid": "MTK0560:3Y54SXRO1MSLCZUJ571Y5DAHDBDUTN", "current_trial": 55, "dateTime": 1511209396180, "trialdata": {"rt": -1000, "stimulus": "/static/audio/wordpool/PLUTO.wav", "key_press": -1, "type": "PRES_AUD", "word": "pluto", "wordID": 1091, "conditions": [18, 1200, "a", 18000], "trial": 1, "serialpos": 0, "trial_type": "single-audio", "trial_index": 55, "time_elapsed": 495945, "internal_node_id": "0.0-37.0"}}, {"uniqueid": "MTK0560:3Y54SXRO1MSLCZUJ571Y5DAHDBDUTN", "current_trial": 56, "dateTime": 1511209398380, "trialdata": {"rt": -1000, "stimulus": "/static/audio/wordpool/CRAB.wav", "key_press": -1, "type": "PRES_AUD", "word": "crab", "wordID": 396, "conditions": [18, 1200, "a", 18000], "trial": 1, "serialpos": 1, "trial_type": "single-audio", "trial_index": 56, "time_elapsed": 498145, "internal_node_id": "0.0-38.0"}}, {"uniqueid": "MTK0560:3Y54SXRO1MSLCZUJ571Y5DAHDBDUTN", "current_trial": 57, "dateTime": 1511209400770, "trialdata": {"rt": -1000, "stimulus": "/static/audio/wordpool/ICEBERG.wav", "key_press": -1, "type": "PRES_AUD", "word": "iceberg", "wordID": 730, "conditions": [18, 1200, "a", 18000], "trial": 1, "serialpos": 2, "trial_type": "single-audio", "trial_index": 57, "time_elapsed": 500535, "internal_node_id": "0.0-39.0"}}, {"uniqueid": "MTK0560:3Y54SXRO1MSLCZUJ571Y5DAHDBDUTN", "current_trial": 58, "dateTime": 1511209402781, "trialdata": {"rt": -1000, "stimulus": "/static/audio/wordpool/BROOK.wav", "key_press": -1, "type": "PRES_AUD", "word": "brook", "wordID": 176, "conditions": [18, 1200, "a", 18000], "trial": 1, "serialpos": 3, "trial_type": "single-audio", "trial_index": 58, "time_elapsed": 502546, "internal_node_id": "0.0-40.0"}}, {"uniqueid": "MTK0560:3Y54SXRO1MSLCZUJ571Y5DAHDBDUTN", "current_trial": 59, "dateTime": 1511209404863, "trialdata": {"rt": -1000, "stimulus": "/static/audio/wordpool/LAPEL.wav", "key_press": -1, "type": "PRES_AUD", "word": "lapel", "wordID": 799, "conditions": [18, 1200, "a", 18000], "trial": 1, "serialpos": 4, "trial_type": "single-audio", "trial_index": 59, "time_elapsed": 504628, "internal_node_id": "0.0-41.0"}}, {"uniqueid": "MTK0560:3Y54SXRO1MSLCZUJ571Y5DAHDBDUTN", "current_trial": 60, "dateTime": 1511209407166, "trialdata": {"rt": -1000, "stimulus": "/static/audio/wordpool/INFANT.wav", "key_press": -1, "type": "PRES_AUD", "word": "infant", "wordID": 736, "conditions": [18, 1200, "a", 18000], "trial": 1, "serialpos": 5, "trial_type": "single-audio", "trial_index": 60, "time_elapsed": 506931, "internal_node_id": "0.0-42.0"}}, {"uniqueid": "MTK0560:3Y54SXRO1MSLCZUJ571Y5DAHDBDUTN", "current_trial": 61, "dateTime": 1511209409540, "trialdata": {"rt": -1000, "stimulus": "/static/audio/wordpool/WASP.wav", "key_press": -1, "type": "PRES_AUD", "word": "wasp", "wordID": 1592, "conditions": [18, 1200, "a", 18000], "trial": 1, "serialpos": 6, "trial_type": "single-audio", "trial_index": 61, "time_elapsed": 509305, "internal_node_id": "0.0-43.0"}}, {"uniqueid": "MTK0560:3Y54SXRO1MSLCZUJ571Y5DAHDBDUTN", "current_trial": 62, "dateTime": 1511209411920, "trialdata": {"rt": -1000, "stimulus": "/static/audio/wordpool/COUNTY.wav", "key_press": -1, "type": "PRES_AUD", "word": "county", "wordID": 388, "conditions": [18, 1200, "a", 18000], "trial": 1, "serialpos": 7, "trial_type": "single-audio", "trial_index": 62, "time_elapsed": 511685, "internal_node_id": "0.0-44.0"}}, {"uniqueid": "MTK0560:3Y54SXRO1MSLCZUJ571Y5DAHDBDUTN", "current_trial": 63, "dateTime": 1511209414180, "trialdata": {"rt": -1000, "stimulus": "/static/audio/wordpool/CLAM.wav", "key_press": -1, "type": "PRES_AUD", "word": "clam", "wordID": 314, "conditions": [18, 1200, "a", 18000], "trial": 1, "serialpos": 8, "trial_type": "single-audio", "trial_index": 63, "time_elapsed": 513945, "internal_node_id": "0.0-45.0"}}, {"uniqueid": "MTK0560:3Y54SXRO1MSLCZUJ571Y5DAHDBDUTN", "current_trial": 64, "dateTime": 1511209416541, "trialdata": {"rt": -1000, "stimulus": "/static/audio/wordpool/ULCER.wav", "key_press": -1, "type": "PRES_AUD", "word": "ulcer", "wordID": 1532, "conditions": [18, 1200, "a", 18000], "trial": 1, "serialpos": 9, "trial_type": "single-audio", "trial_index": 64, "time_elapsed": 516306, "internal_node_id": "0.0-46.0"}}, {"uniqueid": "MTK0560:3Y54SXRO1MSLCZUJ571Y5DAHDBDUTN", "current_trial": 65, "dateTime": 1511209418591, "trialdata": {"rt": -1000, "stimulus": "/static/audio/wordpool/BALLOON.wav", "key_press": -1, "type": "PRES_AUD", "word": "balloon", "wordID": 74, "conditions": [18, 1200, "a", 18000], "trial": 1, "serialpos": 10, "trial_type": "single-audio", "trial_index": 65, "time_elapsed": 518356, "internal_node_id": "0.0-47.0"}}, {"uniqueid": "MTK0560:3Y54SXRO1MSLCZUJ571Y5DAHDBDUTN", "current_trial": 66, "dateTime": 1511209420891, "trialdata": {"rt": -1000, "stimulus": "/static/audio/wordpool/TEACHER.wav", "key_press": -1, "type": "PRES_AUD", "word": "teacher", "wordID": 1439, "conditions": [18, 1200, "a", 18000], "trial": 1, "serialpos": 11, "trial_type": "single-audio", "trial_index": 66, "time_elapsed": 520656, "internal_node_id": "0.0-48.0"}}, {"uniqueid": "MTK0560:3Y54SXRO1MSLCZUJ571Y5DAHDBDUTN", "current_trial": 67, "dateTime": 1511209422954, "trialdata": {"rt": -1000, "stimulus": "/static/audio/wordpool/WASHER.wav", "key_press": -1, "type": "PRES_AUD", "word": "washer", "wordID": 1591, "conditions": [18, 1200, "a", 18000], "trial": 1, "serialpos": 12, "trial_type": "single-audio", "trial_index": 67, "time_elapsed": 522719, "internal_node_id": "0.0-49.0"}}, {"uniqueid": "MTK0560:3Y54SXRO1MSLCZUJ571Y5DAHDBDUTN", "current_trial": 68, "dateTime": 1511209425234, "trialdata": {"rt": -1000, "stimulus": "/static/audio/wordpool/BRIEFCASE.wav", "key_press": -1, "type": "PRES_AUD", "word": "briefcase", "wordID": 174, "conditions": [18, 1200, "a", 18000], "trial": 1, "serialpos": 13, "trial_type": "single-audio", "trial_index": 68, "time_elapsed": 524999, "internal_node_id": "0.0-50.0"}}, {"uniqueid": "MTK0560:3Y54SXRO1MSLCZUJ571Y5DAHDBDUTN", "current_trial": 69, "dateTime": 1511209427634, "trialdata": {"rt": -1000, "stimulus": "/static/audio/wordpool/RADISH.wav", "key_press": -1, "type": "PRES_AUD", "word": "radish", "wordID": 1157, "conditions": [18, 1200, "a", 18000], "trial": 1, "serialpos": 14, "trial_type": "single-audio", "trial_index": 69, "time_elapsed": 527399, "internal_node_id": "0.0-51.0"}}, {"uniqueid": "MTK0560:3Y54SXRO1MSLCZUJ571Y5DAHDBDUTN", "current_trial": 70, "dateTime": 1511209429840, "trialdata": {"rt": -1000, "stimulus": "/static/audio/wordpool/CLOCK.wav", "key_press": -1, "type": "PRES_AUD", "word": "clock", "wordID": 324, "conditions": [18, 1200, "a", 18000], "trial": 1, "serialpos": 15, "trial_type": "single-audio", "trial_index": 70, "time_elapsed": 529605, "internal_node_id": "0.0-52.0"}}, {"uniqueid": "MTK0560:3Y54SXRO1MSLCZUJ571Y5DAHDBDUTN", "current_trial": 71, "dateTime": 1511209432120, "trialdata": {"rt": -1000, "stimulus": "/static/audio/wordpool/TWEEZERS.wav", "key_press": -1, "type": "PRES_AUD", "word": "tweezers", "wordID": 1525, "conditions": [18, 1200, "a", 18000], "trial": 1, "serialpos": 16, "trial_type": "single-audio", "trial_index": 71, "time_elapsed": 531885, "internal_node_id": "0.0-53.0"}}, {"uniqueid": "MTK0560:3Y54SXRO1MSLCZUJ571Y5DAHDBDUTN", "current_trial": 72, "dateTime": 1511209434500, "trialdata": {"rt": -1000, "stimulus": "/static/audio/wordpool/REPORT.wav", "key_press": -1, "type": "PRES_AUD", "word": "report", "wordID": 1183, "conditions": [18, 1200, "a", 18000], "trial": 1, "serialpos": 17, "trial_type": "single-audio", "trial_index": 72, "time_elapsed": 534265, "internal_node_id": "0.0-54.0"}}, {"uniqueid": "MTK0560:3Y54SXRO1MSLCZUJ571Y5DAHDBDUTN", "current_trial": 73, "dateTime": 1511209435772, "trialdata": {"rt": -1, "stimulus": "", "key_press": -1, "type": "PRE_RECALL_DELAY", "trial_type": "single-stim", "trial_index": 73, "time_elapsed": 535537, "internal_node_id": "0.0-55.0-0.0"}}, {"uniqueid": "MTK0560:3Y54SXRO1MSLCZUJ571Y5DAHDBDUTN", "current_trial": 74, "dateTime": 1511209436273, "trialdata": {"rt": -1000, "stimulus": "/static/audio/400Hz.wav", "key_press": -1, "type": "PRE_RECALL_ALERT", "trial_type": "single-audio", "trial_index": 74, "time_elapsed": 536037, "internal_node_id": "0.0-56.0"}}, {"uniqueid": "MTK0560:3Y54SXRO1MSLCZUJ571Y5DAHDBDUTN", "current_trial": 75, "dateTime": 1511209496280, "trialdata": {"rt": [2698, 4798, 7338, 20614, 36215, 47767, 59672], "recwords": ["report", "tweezers", "clam", "crab", "limur", "clock", "raddish"], "type": "FREE_RECALL", "conditions": [18, 1200, "a", 18000], "trial": 1, "trial_type": "free-recall", "trial_index": 75, "time_elapsed": 596041, "internal_node_id": "0.0-57.0-0.0"}}, {"uniqueid": "MTK0560:3Y54SXRO1MSLCZUJ571Y5DAHDBDUTN", "current_trial": 76, "dateTime": 1511209502298, "trialdata": {"rt": 4010, "key_press": 32, "type": "INSTRUCTIONS", "trial_type": "text", "trial_index": 76, "time_elapsed": 602056, "internal_node_id": "0.0-58.0"}}, {"uniqueid": "MTK0560:3Y54SXRO1MSLCZUJ571Y5DAHDBDUTN", "current_trial": 77, "dateTime": 1511209515302, "trialdata": {"rt": [5047, 8664, 11999], "responses": ["15", "14", "16"], "num1": [5, 7, 8, 6], "num2": [3, 6, 6, 8], "num3": [7, 1, 2, 1], "type": "DISTRACTOR", "conditions": [12, 1600, "v", 12000], "trial": 2, "trial_type": "math-distractor", "trial_index": 77, "time_elapsed": 615067, "internal_node_id": "0.0-59.0"}}, {"uniqueid": "MTK0560:3Y54SXRO1MSLCZUJ571Y5DAHDBDUTN", "current_trial": 78, "dateTime": 1511209518303, "trialdata": {"rt": -1, "stimulus": "<p id=\"stim\">10</p>", "key_press": -1, "trial_type": "single-stim", "trial_index": 78, "time_elapsed": 618068, "internal_node_id": "0.0-60.0-0.0"}}, {"uniqueid": "MTK0560:3Y54SXRO1MSLCZUJ571Y5DAHDBDUTN", "current_trial": 79, "dateTime": 1511209519305, "trialdata": {"rt": -1, "stimulus": "<p id=\"stim\">9</p>", "key_press": -1, "trial_type": "single-stim", "trial_index": 79, "time_elapsed": 619069, "internal_node_id": "0.0-60.0-1.0"}}, {"uniqueid": "MTK0560:3Y54SXRO1MSLCZUJ571Y5DAHDBDUTN", "current_trial": 80, "dateTime": 1511209520306, "trialdata": {"rt": -1, "stimulus": "<p id=\"stim\">8</p>", "key_press": -1, "trial_type": "single-stim", "trial_index": 80, "time_elapsed": 620070, "internal_node_id": "0.0-60.0-2.0"}}, {"uniqueid": "MTK0560:3Y54SXRO1MSLCZUJ571Y5DAHDBDUTN", "current_trial": 81, "dateTime": 1511209521307, "trialdata": {"rt": -1, "stimulus": "<p id=\"stim\">7</p>", "key_press": -1, "trial_type": "single-stim", "trial_index": 81, "time_elapsed": 621071, "internal_node_id": "0.0-60.0-3.0"}}, {"uniqueid": "MTK0560:3Y54SXRO1MSLCZUJ571Y5DAHDBDUTN", "current_trial": 82, "dateTime": 1511209522307, "trialdata": {"rt": -1, "stimulus": "<p id=\"stim\">6</p>", "key_press": -1, "trial_type": "single-stim", "trial_index": 82, "time_elapsed": 622072, "internal_node_id": "0.0-60.0-4.0"}}, {"uniqueid": "MTK0560:3Y54SXRO1MSLCZUJ571Y5DAHDBDUTN", "current_trial": 83, "dateTime": 1511209523309, "trialdata": {"rt": -1, "stimulus": "<p id=\"stim\">5</p>", "key_press": -1, "trial_type": "single-stim", "trial_index": 83, "time_elapsed": 623073, "internal_node_id": "0.0-60.0-5.0"}}, {"uniqueid": "MTK0560:3Y54SXRO1MSLCZUJ571Y5DAHDBDUTN", "current_trial": 84, "dateTime": 1511209524310, "trialdata": {"rt": -1, "stimulus": "<p id=\"stim\">4</p>", "key_press": -1, "trial_type": "single-stim", "trial_index": 84, "time_elapsed": 624074, "internal_node_id": "0.0-60.0-6.0"}}, {"uniqueid": "MTK0560:3Y54SXRO1MSLCZUJ571Y5DAHDBDUTN", "current_trial": 85, "dateTime": 1511209525311, "trialdata": {"rt": -1, "stimulus": "<p id=\"stim\">3</p>", "key_press": -1, "trial_type": "single-stim", "trial_index": 85, "time_elapsed": 625075, "internal_node_id": "0.0-60.0-7.0"}}, {"uniqueid": "MTK0560:3Y54SXRO1MSLCZUJ571Y5DAHDBDUTN", "current_trial": 86, "dateTime": 1511209526311, "trialdata": {"rt": -1, "stimulus": "<p id=\"stim\">2</p>", "key_press": -1, "trial_type": "single-stim", "trial_index": 86, "time_elapsed": 626076, "internal_node_id": "0.0-60.0-8.0"}}, {"uniqueid": "MTK0560:3Y54SXRO1MSLCZUJ571Y5DAHDBDUTN", "current_trial": 87, "dateTime": 1511209527313, "trialdata": {"rt": -1, "stimulus": "<p id=\"stim\">1</p>", "key_press": -1, "trial_type": "single-stim", "trial_index": 87, "time_elapsed": 627077, "internal_node_id": "0.0-60.0-9.0"}}, {"uniqueid": "MTK0560:3Y54SXRO1MSLCZUJ571Y5DAHDBDUTN", "current_trial": 88, "dateTime": 1511209528814, "trialdata": {"rt": -1, "stimulus": "<p id=\"stim\">+</p>", "key_press": -1, "type": "FIXATION", "trial_type": "single-stim", "trial_index": 88, "time_elapsed": 628578, "internal_node_id": "0.0-61.0-0.0"}}, {"uniqueid": "MTK0560:3Y54SXRO1MSLCZUJ571Y5DAHDBDUTN", "current_trial": 89, "dateTime": 1511209530414, "trialdata": {"rt": -1, "stimulus": "<p id=\"stim\">SADDLE</p>", "key_press": -1, "type": "PRES_VIS", "word": "saddle", "wordID": 1220, "conditions": [12, 1600, "v", 12000], "trial": 2, "serialpos": 0, "trial_type": "single-stim", "trial_index": 89, "time_elapsed": 630179, "internal_node_id": "0.0-62.0"}}, {"uniqueid": "MTK0560:3Y54SXRO1MSLCZUJ571Y5DAHDBDUTN", "current_trial": 90, "dateTime": 1511209532868, "trialdata": {"rt": -1, "stimulus": "<p id=\"stim\">SWIMMER</p>", "key_press": -1, "type": "PRES_VIS", "word": "swimmer", "wordID": 1419, "conditions": [12, 1600, "v", 12000], "trial": 2, "serialpos": 1, "trial_type": "single-stim", "trial_index": 90, "time_elapsed": 632632, "internal_node_id": "0.0-63.0"}}, {"uniqueid": "MTK0560:3Y54SXRO1MSLCZUJ571Y5DAHDBDUTN", "current_trial": 91, "dateTime": 1511209535447, "trialdata": {"rt": -1, "stimulus": "<p id=\"stim\">SISTER</p>", "key_press": -1, "type": "PRES_VIS", "word": "sister", "wordID": 1311, "conditions": [12, 1600, "v", 12000], "trial": 2, "serialpos": 2, "trial_type": "single-stim", "trial_index": 91, "time_elapsed": 635211, "internal_node_id": "0.0-64.0"}}, {"uniqueid": "MTK0560:3Y54SXRO1MSLCZUJ571Y5DAHDBDUTN", "current_trial": 92, "dateTime": 1511209537963, "trialdata": {"rt": -1, "stimulus": "<p id=\"stim\">COUSIN</p>", "key_press": -1, "type": "PRES_VIS", "word": "cousin", "wordID": 391, "conditions": [12, 1600, "v", 12000], "trial": 2, "serialpos": 3, "trial_type": "single-stim", "trial_index": 92, "time_elapsed": 637727, "internal_node_id": "0.0-65.0"}}, {"uniqueid": "MTK0560:3Y54SXRO1MSLCZUJ571Y5DAHDBDUTN", "current_trial": 93, "dateTime": 1511209540378, "trialdata": {"rt": -1, "stimulus": "<p id=\"stim\">GYMNAST</p>", "key_press": -1, "type": "PRES_VIS", "word": "gymnast", "wordID": 674, "conditions": [12, 1600, "v", 12000], "trial": 2, "serialpos": 4, "trial_type": "single-stim", "trial_index": 93, "time_elapsed": 640143, "internal_node_id": "0.0-66.0"}}, {"uniqueid": "MTK0560:3Y54SXRO1MSLCZUJ571Y5DAHDBDUTN", "current_trial": 94, "dateTime": 1511209542950, "trialdata": {"rt": -1, "stimulus": "<p id=\"stim\">GRAVE</p>", "key_press": -1, "type": "PRES_VIS", "word": "grave", "wordID": 657, "conditions": [12, 1600, "v", 12000], "trial": 2, "serialpos": 5, "trial_type": "single-stim", "trial_index": 94, "time_elapsed": 642712, "internal_node_id": "0.0-67.0"}}, {"uniqueid": "MTK0560:3Y54SXRO1MSLCZUJ571Y5DAHDBDUTN", "current_trial": 95, "dateTime": 1511209545395, "trialdata": {"rt": -1, "stimulus": "<p id=\"stim\">HATCHET</p>", "key_press": -1, "type": "PRES_VIS", "word": "hatchet", "wordID": 690, "conditions": [12, 1600, "v", 12000], "trial": 2, "serialpos": 6, "trial_type": "single-stim", "trial_index": 95, "time_elapsed": 645159, "internal_node_id": "0.0-68.0"}}, {"uniqueid": "MTK0560:3Y54SXRO1MSLCZUJ571Y5DAHDBDUTN", "current_trial": 96, "dateTime": 1511209548159, "trialdata": {"rt": -1, "stimulus": "<p id=\"stim\">POSTAGE</p>", "key_press": -1, "type": "PRES_VIS", "word": "postage", "wordID": 1112, "conditions": [12, 1600, "v", 12000], "trial": 2, "serialpos": 7, "trial_type": "single-stim", "trial_index": 96, "time_elapsed": 647923, "internal_node_id": "0.0-69.0"}}, {"uniqueid": "MTK0560:3Y54SXRO1MSLCZUJ571Y5DAHDBDUTN", "current_trial": 97, "dateTime": 1511209550914, "trialdata": {"rt": -1, "stimulus": "<p id=\"stim\">PASTRY</p>", "key_press": -1, "type": "PRES_VIS", "word": "pastry", "wordID": 1021, "conditions": [12, 1600, "v", 12000], "trial": 2, "serialpos": 8, "trial_type": "single-stim", "trial_index": 97, "time_elapsed": 650678, "internal_node_id": "0.0-70.0"}}, {"uniqueid": "MTK0560:3Y54SXRO1MSLCZUJ571Y5DAHDBDUTN", "current_trial": 98, "dateTime": 1511209553575, "trialdata": {"rt": -1, "stimulus": "<p id=\"stim\">LOFT</p>", "key_press": -1, "type": "PRES_VIS", "word": "loft", "wordID": 839, "conditions": [12, 1600, "v", 12000], "trial": 2, "serialpos": 9, "trial_type": "single-stim", "trial_index": 98, "time_elapsed": 653339, "internal_node_id": "0.0-71.0"}}, {"uniqueid": "MTK0560:3Y54SXRO1MSLCZUJ571Y5DAHDBDUTN", "current_trial": 99, "dateTime": 1511209556306, "trialdata": {"rt": -1, "stimulus": "<p id=\"stim\">WARDROBE</p>", "key_press": -1, "type": "PRES_VIS", "word": "wardrobe", "wordID": 1586, "conditions": [12, 1600, "v", 12000], "trial": 2, "serialpos": 10, "trial_type": "single-stim", "trial_index": 99, "time_elapsed": 656071, "internal_node_id": "0.0-72.0"}}, {"uniqueid": "MTK0560:3Y54SXRO1MSLCZUJ571Y5DAHDBDUTN", "current_trial": 100, "dateTime": 1511209558708, "trialdata": {"rt": -1, "stimulus": "<p id=\"stim\">GUARD</p>", "key_press": -1, "type": "PRES_VIS", "word": "guard", "wordID": 666, "conditions": [12, 1600, "v", 12000], "trial": 2, "serialpos": 11, "trial_type": "single-stim", "trial_index": 100, "time_elapsed": 658473, "internal_node_id": "0.0-73.0"}}, {"uniqueid": "MTK0560:3Y54SXRO1MSLCZUJ571Y5DAHDBDUTN", "current_trial": 101, "dateTime": 1511209560963, "trialdata": {"rt": -1, "stimulus": "", "key_press": -1, "type": "PRE_RECALL_DELAY", "trial_type": "single-stim", "trial_index": 101, "time_elapsed": 660728, "internal_node_id": "0.0-74.0-0.0"}}, {"uniqueid": "MTK0560:3Y54SXRO1MSLCZUJ571Y5DAHDBDUTN", "current_trial": 102, "dateTime": 1511209561469, "trialdata": {"rt": -1000, "stimulus": "/static/audio/400Hz.wav", "key_press": -1, "type": "PRE_RECALL_ALERT", "trial_type": "single-audio", "trial_index": 102, "time_elapsed": 661234, "internal_node_id": "0.0-75.0"}}, {"uniqueid": "MTK0560:3Y54SXRO1MSLCZUJ571Y5DAHDBDUTN", "current_trial": 103, "dateTime": 1511209621474, "trialdata": {"rt": [2119, 4872, 13582, 17428, 26528, 28528], "recwords": ["guard", "wardbrobe", "cousin", "postage", "sister", "grave"], "type": "FREE_RECALL", "conditions": [12, 1600, "v", 12000], "trial": 2, "trial_type": "free-recall", "trial_index": 103, "time_elapsed": 721235, "internal_node_id": "0.0-76.0-0.0"}}, {"uniqueid": "MTK0560:3Y54SXRO1MSLCZUJ571Y5DAHDBDUTN", "current_trial": 104, "dateTime": 1511209624996, "trialdata": {"rt": 1521, "key_press": 32, "type": "INSTRUCTIONS", "trial_type": "text", "trial_index": 104, "time_elapsed": 724761, "internal_node_id": "0.0-77.0"}}, {"uniqueid": "MTK0560:3Y54SXRO1MSLCZUJ571Y5DAHDBDUTN", "current_trial": 105, "dateTime": 1511209638998, "trialdata": {"rt": [1789, 5037, 8007, 11326], "responses": ["24", "13", "17", "23"], "num1": [8, 7, 6, 5, 4], "num2": [8, 4, 9, 9, 3], "num3": [8, 2, 2, 9, 4], "type": "DISTRACTOR", "conditions": [12, 800, "v", 12000], "trial": 3, "trial_type": "math-distractor", "trial_index": 105, "time_elapsed": 738763, "internal_node_id": "0.0-78.0"}}, {"uniqueid": "MTK0560:3Y54SXRO1MSLCZUJ571Y5DAHDBDUTN", "current_trial": 106, "dateTime": 1511209641998, "trialdata": {"rt": -1, "stimulus": "<p id=\"stim\">10</p>", "key_press": -1, "trial_type": "single-stim", "trial_index": 106, "time_elapsed": 741763, "internal_node_id": "0.0-79.0-0.0"}}, {"uniqueid": "MTK0560:3Y54SXRO1MSLCZUJ571Y5DAHDBDUTN", "current_trial": 107, "dateTime": 1511209642999, "trialdata": {"rt": -1, "stimulus": "<p id=\"stim\">9</p>", "key_press": -1, "trial_type": "single-stim", "trial_index": 107, "time_elapsed": 742764, "internal_node_id": "0.0-79.0-1.0"}}, {"uniqueid": "MTK0560:3Y54SXRO1MSLCZUJ571Y5DAHDBDUTN", "current_trial": 108, "dateTime": 1511209644000, "trialdata": {"rt": -1, "stimulus": "<p id=\"stim\">8</p>", "key_press": -1, "trial_type": "single-stim", "trial_index": 108, "time_elapsed": 743765, "internal_node_id": "0.0-79.0-2.0"}}, {"uniqueid": "MTK0560:3Y54SXRO1MSLCZUJ571Y5DAHDBDUTN", "current_trial": 109, "dateTime": 1511209645001, "trialdata": {"rt": -1, "stimulus": "<p id=\"stim\">7</p>", "key_press": -1, "trial_type": "single-stim", "trial_index": 109, "time_elapsed": 744766, "internal_node_id": "0.0-79.0-3.0"}}, {"uniqueid": "MTK0560:3Y54SXRO1MSLCZUJ571Y5DAHDBDUTN", "current_trial": 110, "dateTime": 1511209646003, "trialdata": {"rt": -1, "stimulus": "<p id=\"stim\">6</p>", "key_press": -1, "trial_type": "single-stim", "trial_index": 110, "time_elapsed": 745768, "internal_node_id": "0.0-79.0-4.0"}}, {"uniqueid": "MTK0560:3Y54SXRO1MSLCZUJ571Y5DAHDBDUTN", "current_trial": 111, "dateTime": 1511209647003, "trialdata": {"rt": -1, "stimulus": "<p id=\"stim\">5</p>", "key_press": -1, "trial_type": "single-stim", "trial_index": 111, "time_elapsed": 746768, "internal_node_id": "0.0-79.0-5.0"}}, {"uniqueid": "MTK0560:3Y54SXRO1MSLCZUJ571Y5DAHDBDUTN", "current_trial": 112, "dateTime": 1511209648005, "trialdata": {"rt": -1, "stimulus": "<p id=\"stim\">4</p>", "key_press": -1, "trial_type": "single-stim", "trial_index": 112, "time_elapsed": 747769, "internal_node_id": "0.0-79.0-6.0"}}, {"uniqueid": "MTK0560:3Y54SXRO1MSLCZUJ571Y5DAHDBDUTN", "current_trial": 113, "dateTime": 1511209649005, "trialdata": {"rt": -1, "stimulus": "<p id=\"stim\">3</p>", "key_press": -1, "trial_type": "single-stim", "trial_index": 113, "time_elapsed": 748770, "internal_node_id": "0.0-79.0-7.0"}}, {"uniqueid": "MTK0560:3Y54SXRO1MSLCZUJ571Y5DAHDBDUTN", "current_trial": 114, "dateTime": 1511209650007, "trialdata": {"rt": -1, "stimulus": "<p id=\"stim\">2</p>", "key_press": -1, "trial_type": "single-stim", "trial_index": 114, "time_elapsed": 749772, "internal_node_id": "0.0-79.0-8.0"}}, {"uniqueid": "MTK0560:3Y54SXRO1MSLCZUJ571Y5DAHDBDUTN", "current_trial": 115, "dateTime": 1511209651007, "trialdata": {"rt": -1, "stimulus": "<p id=\"stim\">1</p>", "key_press": -1, "trial_type": "single-stim", "trial_index": 115, "time_elapsed": 750772, "internal_node_id": "0.0-79.0-9.0"}}, {"uniqueid": "MTK0560:3Y54SXRO1MSLCZUJ571Y5DAHDBDUTN", "current_trial": 116, "dateTime": 1511209652508, "trialdata": {"rt": -1, "stimulus": "<p id=\"stim\">+</p>", "key_press": -1, "type": "FIXATION", "trial_type": "single-stim", "trial_index": 116, "time_elapsed": 752273, "internal_node_id": "0.0-80.0-0.0"}}, {"uniqueid": "MTK0560:3Y54SXRO1MSLCZUJ571Y5DAHDBDUTN", "current_trial": 117, "dateTime": 1511209653308, "trialdata": {"rt": -1, "stimulus": "<p id=\"stim\">MATTRESS</p>", "key_press": -1, "type": "PRES_VIS", "word": "mattress", "wordID": 878, "conditions": [12, 800, "v", 12000], "trial": 3, "serialpos": 0, "trial_type": "single-stim", "trial_index": 117, "time_elapsed": 753073, "internal_node_id": "0.0-81.0"}}, {"uniqueid": "MTK0560:3Y54SXRO1MSLCZUJ571Y5DAHDBDUTN", "current_trial": 118, "dateTime": 1511209654918, "trialdata": {"rt": -1, "stimulus": "<p id=\"stim\">KIDNEY</p>", "key_press": -1, "type": "PRES_VIS", "word": "kidney", "wordID": 775, "conditions": [12, 800, "v", 12000], "trial": 3, "serialpos": 1, "trial_type": "single-stim", "trial_index": 118, "time_elapsed": 754683, "internal_node_id": "0.0-82.0"}}, {"uniqueid": "MTK0560:3Y54SXRO1MSLCZUJ571Y5DAHDBDUTN", "current_trial": 119, "dateTime": 1511209656686, "trialdata": {"rt": -1, "stimulus": "<p id=\"stim\">TRANSPLANT</p>", "key_press": -1, "type": "PRES_VIS", "word": "transplant", "wordID": 1495, "conditions": [12, 800, "v", 12000], "trial": 3, "serialpos": 2, "trial_type": "single-stim", "trial_index": 119, "time_elapsed": 756450, "internal_node_id": "0.0-83.0"}}, {"uniqueid": "MTK0560:3Y54SXRO1MSLCZUJ571Y5DAHDBDUTN", "current_trial": 120, "dateTime": 1511209658369, "trialdata": {"rt": -1, "stimulus": "<p id=\"stim\">FLUTE</p>", "key_press": -1, "type": "PRES_VIS", "word": "flute", "wordID": 584, "conditions": [12, 800, "v", 12000], "trial": 3, "serialpos": 3, "trial_type": "single-stim", "trial_index": 120, "time_elapsed": 758133, "internal_node_id": "0.0-84.0"}}, {"uniqueid": "MTK0560:3Y54SXRO1MSLCZUJ571Y5DAHDBDUTN", "current_trial": 121, "dateTime": 1511209660162, "trialdata": {"rt": -1, "stimulus": "<p id=\"stim\">CHEMIST</p>", "key_press": -1, "type": "PRES_VIS", "word": "chemist", "wordID": 291, "conditions": [12, 800, "v", 12000], "trial": 3, "serialpos": 4, "trial_type": "single-stim", "trial_index": 121, "time_elapsed": 759927, "internal_node_id": "0.0-85.0"}}, {"uniqueid": "MTK0560:3Y54SXRO1MSLCZUJ571Y5DAHDBDUTN", "current_trial": 122, "dateTime": 1511209661985, "trialdata": {"rt": -1, "stimulus": "<p id=\"stim\">POET</p>", "key_press": -1, "type": "PRES_VIS", "word": "poet", "wordID": 1094, "conditions": [12, 800, "v", 12000], "trial": 3, "serialpos": 5, "trial_type": "single-stim", "trial_index": 122, "time_elapsed": 761750, "internal_node_id": "0.0-86.0"}}, {"uniqueid": "MTK0560:3Y54SXRO1MSLCZUJ571Y5DAHDBDUTN", "current_trial": 123, "dateTime": 1511209663802, "trialdata": {"rt": -1, "stimulus": "<p id=\"stim\">COUCH</p>", "key_press": -1, "type": "PRES_VIS", "word": "couch", "wordID": 385, "conditions": [12, 800, "v", 12000], "trial": 3, "serialpos": 6, "trial_type": "single-stim", "trial_index": 123, "time_elapsed": 763566, "internal_node_id": "0.0-87.0"}}, {"uniqueid": "MTK0560:3Y54SXRO1MSLCZUJ571Y5DAHDBDUTN", "current_trial": 124, "dateTime": 1511209665521, "trialdata": {"rt": -1, "stimulus": "<p id=\"stim\">BLENDER</p>", "key_press": -1, "type": "PRES_VIS", "word": "blender", "wordID": 135, "conditions": [12, 800, "v", 12000], "trial": 3, "serialpos": 7, "trial_type": "single-stim", "trial_index": 124, "time_elapsed": 765285, "internal_node_id": "0.0-88.0"}}, {"uniqueid": "MTK0560:3Y54SXRO1MSLCZUJ571Y5DAHDBDUTN", "current_trial": 125, "dateTime": 1511209667429, "trialdata": {"rt": -1, "stimulus": "<p id=\"stim\">FEMALE</p>", "key_press": -1, "type": "PRES_VIS", "word": "female", "wordID": 558, "conditions": [12, 800, "v", 12000], "trial": 3, "serialpos": 8, "trial_type": "single-stim", "trial_index": 125, "time_elapsed": 767193, "internal_node_id": "0.0-89.0"}}, {"uniqueid": "MTK0560:3Y54SXRO1MSLCZUJ571Y5DAHDBDUTN", "current_trial": 126, "dateTime": 1511209669108, "trialdata": {"rt": -1, "stimulus": "<p id=\"stim\">SPACE</p>", "key_press": -1, "type": "PRES_VIS", "word": "space", "wordID": 1344, "conditions": [12, 800, "v", 12000], "trial": 3, "serialpos": 9, "trial_type": "single-stim", "trial_index": 126, "time_elapsed": 768872, "internal_node_id": "0.0-90.0"}}, {"uniqueid": "MTK0560:3Y54SXRO1MSLCZUJ571Y5DAHDBDUTN", "current_trial": 127, "dateTime": 1511209670904, "trialdata": {"rt": -1, "stimulus": "<p id=\"stim\">ANTLER</p>", "key_press": -1, "type": "PRES_VIS", "word": "antler", "wordID": 28, "conditions": [12, 800, "v", 12000], "trial": 3, "serialpos": 10, "trial_type": "single-stim", "trial_index": 127, "time_elapsed": 770669, "internal_node_id": "0.0-91.0"}}, {"uniqueid": "MTK0560:3Y54SXRO1MSLCZUJ571Y5DAHDBDUTN", "current_trial": 128, "dateTime": 1511209672797, "trialdata": {"rt": -1, "stimulus": "<p id=\"stim\">ACTRESS</p>", "key_press": -1, "type": "PRES_VIS", "word": "actress", "wordID": 5, "conditions": [12, 800, "v", 12000], "trial": 3, "serialpos": 11, "trial_type": "single-stim", "trial_index": 128, "time_elapsed": 772561, "internal_node_id": "0.0-92.0"}}, {"uniqueid": "MTK0560:3Y54SXRO1MSLCZUJ571Y5DAHDBDUTN", "current_trial": 129, "dateTime": 1511209675049, "trialdata": {"rt": -1, "stimulus": "", "key_press": -1, "type": "PRE_RECALL_DELAY", "trial_type": "single-stim", "trial_index": 129, "time_elapsed": 774814, "internal_node_id": "0.0-93.0-0.0"}}, {"uniqueid": "MTK0560:3Y54SXRO1MSLCZUJ571Y5DAHDBDUTN", "current_trial": 130, "dateTime": 1511209675550, "trialdata": {"rt": -1000, "stimulus": "/static/audio/400Hz.wav", "key_press": -1, "type": "PRE_RECALL_ALERT", "trial_type": "single-audio", "trial_index": 130, "time_elapsed": 775315, "internal_node_id": "0.0-94.0"}}, {"uniqueid": "MTK0560:3Y54SXRO1MSLCZUJ571Y5DAHDBDUTN", "current_trial": 131, "dateTime": 1511209735554, "trialdata": {"rt": [2603, 4480, 5895, 7740, 12059], "recwords": ["actress", "antler", "couch", "mattress", "antler"], "type": "FREE_RECALL", "conditions": [12, 800, "v", 12000], "trial": 3, "trial_type": "free-recall", "trial_index": 131, "time_elapsed": 835315, "internal_node_id": "0.0-95.0-0.0"}}, {"uniqueid": "MTK0560:3Y54SXRO1MSLCZUJ571Y5DAHDBDUTN", "current_trial": 132, "dateTime": 1511209738491, "trialdata": {"rt": 936, "key_press": 32, "type": "INSTRUCTIONS", "trial_type": "text", "trial_index": 132, "time_elapsed": 838255, "internal_node_id": "0.0-96.0"}}, {"uniqueid": "MTK0560:3Y54SXRO1MSLCZUJ571Y5DAHDBDUTN", "current_trial": 133, "dateTime": 1511209764493, "trialdata": {"rt": [2622, 5262, 7877, 11565, 14301, 16365, 18029, 20078, 23029], "responses": ["14", "14", "7", "14", "19", "11", "4", "19", "16"], "num1": [6, 7, 4, 1, 5, 5, 1, 9, 4, 2], "num2": [2, 5, 1, 8, 7, 1, 2, 7, 7, 1], "num3": [6, 2, 2, 5, 7, 5, 1, 3, 5, 2], "type": "DISTRACTOR", "conditions": [12, 800, "v", 24000], "trial": 4, "trial_type": "math-distractor", "trial_index": 133, "time_elapsed": 864258, "internal_node_id": "0.0-97.0"}}, {"uniqueid": "MTK0560:3Y54SXRO1MSLCZUJ571Y5DAHDBDUTN", "current_trial": 134, "dateTime": 1511209767494, "trialdata": {"rt": -1, "stimulus": "<p id=\"stim\">10</p>", "key_press": -1, "trial_type": "single-stim", "trial_index": 134, "time_elapsed": 867259, "internal_node_id": "0.0-98.0-0.0"}}, {"uniqueid": "MTK0560:3Y54SXRO1MSLCZUJ571Y5DAHDBDUTN", "current_trial": 135, "dateTime": 1511209768496, "trialdata": {"rt": -1, "stimulus": "<p id=\"stim\">9</p>", "key_press": -1, "trial_type": "single-stim", "trial_index": 135, "time_elapsed": 868260, "internal_node_id": "0.0-98.0-1.0"}}, {"uniqueid": "MTK0560:3Y54SXRO1MSLCZUJ571Y5DAHDBDUTN", "current_trial": 136, "dateTime": 1511209769496, "trialdata": {"rt": -1, "stimulus": "<p id=\"stim\">8</p>", "key_press": -1, "trial_type": "single-stim", "trial_index": 136, "time_elapsed": 869261, "internal_node_id": "0.0-98.0-2.0"}}, {"uniqueid": "MTK0560:3Y54SXRO1MSLCZUJ571Y5DAHDBDUTN", "current_trial": 137, "dateTime": 1511209770497, "trialdata": {"rt": -1, "stimulus": "<p id=\"stim\">7</p>", "key_press": -1, "trial_type": "single-stim", "trial_index": 137, "time_elapsed": 870262, "internal_node_id": "0.0-98.0-3.0"}}, {"uniqueid": "MTK0560:3Y54SXRO1MSLCZUJ571Y5DAHDBDUTN", "current_trial": 138, "dateTime": 1511209771499, "trialdata": {"rt": -1, "stimulus": "<p id=\"stim\">6</p>", "key_press": -1, "trial_type": "single-stim", "trial_index": 138, "time_elapsed": 871263, "internal_node_id": "0.0-98.0-4.0"}}, {"uniqueid": "MTK0560:3Y54SXRO1MSLCZUJ571Y5DAHDBDUTN", "current_trial": 139, "dateTime": 1511209772499, "trialdata": {"rt": -1, "stimulus": "<p id=\"stim\">5</p>", "key_press": -1, "trial_type": "single-stim", "trial_index": 139, "time_elapsed": 872264, "internal_node_id": "0.0-98.0-5.0"}}, {"uniqueid": "MTK0560:3Y54SXRO1MSLCZUJ571Y5DAHDBDUTN", "current_trial": 140, "dateTime": 1511209773501, "trialdata": {"rt": -1, "stimulus": "<p id=\"stim\">4</p>", "key_press": -1, "trial_type": "single-stim", "trial_index": 140, "time_elapsed": 873265, "internal_node_id": "0.0-98.0-6.0"}}, {"uniqueid": "MTK0560:3Y54SXRO1MSLCZUJ571Y5DAHDBDUTN", "current_trial": 141, "dateTime": 1511209774501, "trialdata": {"rt": -1, "stimulus": "<p id=\"stim\">3</p>", "key_press": -1, "trial_type": "single-stim", "trial_index": 141, "time_elapsed": 874266, "internal_node_id": "0.0-98.0-7.0"}}, {"uniqueid": "MTK0560:3Y54SXRO1MSLCZUJ571Y5DAHDBDUTN", "current_trial": 142, "dateTime": 1511209775503, "trialdata": {"rt": -1, "stimulus": "<p id=\"stim\">2</p>", "key_press": -1, "trial_type": "single-stim", "trial_index": 142, "time_elapsed": 875267, "internal_node_id": "0.0-98.0-8.0"}}, {"uniqueid": "MTK0560:3Y54SXRO1MSLCZUJ571Y5DAHDBDUTN", "current_trial": 143, "dateTime": 1511209776505, "trialdata": {"rt": -1, "stimulus": "<p id=\"stim\">1</p>", "key_press": -1, "trial_type": "single-stim", "trial_index": 143, "time_elapsed": 876269, "internal_node_id": "0.0-98.0-9.0"}}, {"uniqueid": "MTK0560:3Y54SXRO1MSLCZUJ571Y5DAHDBDUTN", "current_trial": 144, "dateTime": 1511209778006, "trialdata": {"rt": -1, "stimulus": "<p id=\"stim\">+</p>", "key_press": -1, "type": "FIXATION", "trial_type": "single-stim", "trial_index": 144, "time_elapsed": 877770, "internal_node_id": "0.0-99.0-0.0"}}, {"uniqueid": "MTK0560:3Y54SXRO1MSLCZUJ571Y5DAHDBDUTN", "current_trial": 145, "dateTime": 1511209778807, "trialdata": {"rt": -1, "stimulus": "<p id=\"stim\">BISON</p>", "key_press": -1, "type": "PRES_VIS", "word": "bison", "wordID": 130, "conditions": [12, 800, "v", 24000], "trial": 4, "serialpos": 0, "trial_type": "single-stim", "trial_index": 145, "time_elapsed": 878571, "internal_node_id": "0.0-100.0"}}, {"uniqueid": "MTK0560:3Y54SXRO1MSLCZUJ571Y5DAHDBDUTN", "current_trial": 146, "dateTime": 1511209780787, "trialdata": {"rt": -1, "stimulus": "<p id=\"stim\">SMOG</p>", "key_press": -1, "type": "PRES_VIS", "word": "smog", "wordID": 1329, "conditions": [12, 800, "v", 24000], "trial": 4, "serialpos": 1, "trial_type": "single-stim", "trial_index": 146, "time_elapsed": 880551, "internal_node_id": "0.0-101.0"}}, {"uniqueid": "MTK0560:3Y54SXRO1MSLCZUJ571Y5DAHDBDUTN", "current_trial": 147, "dateTime": 1511209782417, "trialdata": {"rt": -1, "stimulus": "<p id=\"stim\">SUMMIT</p>", "key_press": -1, "type": "PRES_VIS", "word": "summit", "wordID": 1404, "conditions": [12, 800, "v", 24000], "trial": 4, "serialpos": 2, "trial_type": "single-stim", "trial_index": 147, "time_elapsed": 882181, "internal_node_id": "0.0-102.0"}}, {"uniqueid": "MTK0560:3Y54SXRO1MSLCZUJ571Y5DAHDBDUTN", "current_trial": 148, "dateTime": 1511209784312, "trialdata": {"rt": -1, "stimulus": "<p id=\"stim\">WORLD</p>", "key_press": -1, "type": "PRES_VIS", "word": "world", "wordID": 1621, "conditions": [12, 800, "v", 24000], "trial": 4, "serialpos": 3, "trial_type": "single-stim", "trial_index": 148, "time_elapsed": 884077, "internal_node_id": "0.0-103.0"}}, {"uniqueid": "MTK0560:3Y54SXRO1MSLCZUJ571Y5DAHDBDUTN", "current_trial": 149, "dateTime": 1511209786010, "trialdata": {"rt": -1, "stimulus": "<p id=\"stim\">COUNTRY</p>", "key_press": -1, "type": "PRES_VIS", "word": "country", "wordID": 387, "conditions": [12, 800, "v", 24000], "trial": 4, "serialpos": 4, "trial_type": "single-stim", "trial_index": 149, "time_elapsed": 885774, "internal_node_id": "0.0-104.0"}}, {"uniqueid": "MTK0560:3Y54SXRO1MSLCZUJ571Y5DAHDBDUTN", "current_trial": 150, "dateTime": 1511209787674, "trialdata": {"rt": -1, "stimulus": "<p id=\"stim\">STAPLE</p>", "key_press": -1, "type": "PRES_VIS", "word": "staple", "wordID": 1370, "conditions": [12, 800, "v", 24000], "trial": 4, "serialpos": 5, "trial_type": "single-stim", "trial_index": 150, "time_elapsed": 887438, "internal_node_id": "0.0-105.0"}}, {"uniqueid": "MTK0560:3Y54SXRO1MSLCZUJ571Y5DAHDBDUTN", "current_trial": 151, "dateTime": 1511209789641, "trialdata": {"rt": -1, "stimulus": "<p id=\"stim\">OZONE</p>", "key_press": -1, "type": "PRES_VIS", "word": "ozone", "wordID": 995, "conditions": [12, 800, "v", 24000], "trial": 4, "serialpos": 6, "trial_type": "single-stim", "trial_index": 151, "time_elapsed": 889405, "internal_node_id": "0.0-106.0"}}, {"uniqueid": "MTK0560:3Y54SXRO1MSLCZUJ571Y5DAHDBDUTN", "current_trial": 152, "dateTime": 1511209791444, "trialdata": {"rt": -1, "stimulus": "<p id=\"stim\">SEAGULL</p>", "key_press": -1, "type": "PRES_VIS", "word": "seagull", "wordID": 1260, "conditions": [12, 800, "v", 24000], "trial": 4, "serialpos": 7, "trial_type": "single-stim", "trial_index": 152, "time_elapsed": 891208, "internal_node_id": "0.0-107.0"}}, {"uniqueid": "MTK0560:3Y54SXRO1MSLCZUJ571Y5DAHDBDUTN", "current_trial": 153, "dateTime": 1511209793196, "trialdata": {"rt": -1, "stimulus": "<p id=\"stim\">COBRA</p>", "key_press": -1, "type": "PRES_VIS", "word": "cobra", "wordID": 335, "conditions": [12, 800, "v", 24000], "trial": 4, "serialpos": 8, "trial_type": "single-stim", "trial_index": 153, "time_elapsed": 892960, "internal_node_id": "0.0-108.0"}}, {"uniqueid": "MTK0560:3Y54SXRO1MSLCZUJ571Y5DAHDBDUTN", "current_trial": 154, "dateTime": 1511209795110, "trialdata": {"rt": -1, "stimulus": "<p id=\"stim\">CONTRACT</p>", "key_press": -1, "type": "PRES_VIS", "word": "contract", "wordID": 367, "conditions": [12, 800, "v", 24000], "trial": 4, "serialpos": 9, "trial_type": "single-stim", "trial_index": 154, "time_elapsed": 894874, "internal_node_id": "0.0-109.0"}}, {"uniqueid": "MTK0560:3Y54SXRO1MSLCZUJ571Y5DAHDBDUTN", "current_trial": 155, "dateTime": 1511209796887, "trialdata": {"rt": -1, "stimulus": "<p id=\"stim\">BODY</p>", "key_press": -1, "type": "PRES_VIS", "word": "body", "wordID": 144, "conditions": [12, 800, "v", 24000], "trial": 4, "serialpos": 10, "trial_type": "single-stim", "trial_index": 155, "time_elapsed": 896651, "internal_node_id": "0.0-110.0"}}, {"uniqueid": "MTK0560:3Y54SXRO1MSLCZUJ571Y5DAHDBDUTN", "current_trial": 156, "dateTime": 1511209798873, "trialdata": {"rt": -1, "stimulus": "<p id=\"stim\">BEEF</p>", "key_press": -1, "type": "PRES_VIS", "word": "beef", "wordID": 112, "conditions": [12, 800, "v", 24000], "trial": 4, "serialpos": 11, "trial_type": "single-stim", "trial_index": 156, "time_elapsed": 898637, "internal_node_id": "0.0-111.0"}}, {"uniqueid": "MTK0560:3Y54SXRO1MSLCZUJ571Y5DAHDBDUTN", "current_trial": 157, "dateTime": 1511209801058, "trialdata": {"rt": -1, "stimulus": "", "key_press": -1, "type": "PRE_RECALL_DELAY", "trial_type": "single-stim", "trial_index": 157, "time_elapsed": 900822, "internal_node_id": "0.0-112.0-0.0"}}, {"uniqueid": "MTK0560:3Y54SXRO1MSLCZUJ571Y5DAHDBDUTN", "current_trial": 158, "dateTime": 1511209801558, "trialdata": {"rt": -1000, "stimulus": "/static/audio/400Hz.wav", "key_press": -1, "type": "PRE_RECALL_ALERT", "trial_type": "single-audio", "trial_index": 158, "time_elapsed": 901323, "internal_node_id": "0.0-113.0"}}, {"uniqueid": "MTK0560:3Y54SXRO1MSLCZUJ571Y5DAHDBDUTN", "current_trial": 159, "dateTime": 1511209861568, "trialdata": {"rt": [2538, 4282, 5851, 7885, 9600, 35001, 40489, 59521], "recwords": ["contract", "body", "beef", "staple", "bison", "world", "ozone", "earth"], "type": "FREE_RECALL", "conditions": [12, 800, "v", 24000], "trial": 4, "trial_type": "free-recall", "trial_index": 159, "time_elapsed": 961326, "internal_node_id": "0.0-114.0-0.0"}}, {"uniqueid": "MTK0560:3Y54SXRO1MSLCZUJ571Y5DAHDBDUTN", "current_trial": 160, "dateTime": 1511209866090, "trialdata": {"rt": 2521, "key_press": 32, "type": "INSTRUCTIONS", "trial_type": "text", "trial_index": 160, "time_elapsed": 965854, "internal_node_id": "0.0-115.0"}}, {"uniqueid": "MTK0560:3Y54SXRO1MSLCZUJ571Y5DAHDBDUTN", "current_trial": 161, "dateTime": 1511209880093, "trialdata": {"rt": [2790, 4958, 6822, 9038], "responses": ["19", "8", "10", "13"], "num1": [8, 2, 7, 3, 9], "num2": [8, 5, 2, 2, 7], "num3": [3, 1, 1, 8, 2], "type": "DISTRACTOR", "conditions": [12, 800, "a", 12000], "trial": 5, "trial_type": "math-distractor", "trial_index": 161, "time_elapsed": 979858, "internal_node_id": "0.0-116.0"}}, {"uniqueid": "MTK0560:3Y54SXRO1MSLCZUJ571Y5DAHDBDUTN", "current_trial": 162, "dateTime": 1511209883094, "trialdata": {"rt": -1, "stimulus": "<p id=\"stim\">10</p>", "key_press": -1, "trial_type": "single-stim", "trial_index": 162, "time_elapsed": 982858, "internal_node_id": "0.0-117.0-0.0"}}, {"uniqueid": "MTK0560:3Y54SXRO1MSLCZUJ571Y5DAHDBDUTN", "current_trial": 163, "dateTime": 1511209884096, "trialdata": {"rt": -1, "stimulus": "<p id=\"stim\">9</p>", "key_press": -1, "trial_type": "single-stim", "trial_index": 163, "time_elapsed": 983860, "internal_node_id": "0.0-117.0-1.0"}}, {"uniqueid": "MTK0560:3Y54SXRO1MSLCZUJ571Y5DAHDBDUTN", "current_trial": 164, "dateTime": 1511209885096, "trialdata": {"rt": -1, "stimulus": "<p id=\"stim\">8</p>", "key_press": -1, "trial_type": "single-stim", "trial_index": 164, "time_elapsed": 984861, "internal_node_id": "0.0-117.0-2.0"}}, {"uniqueid": "MTK0560:3Y54SXRO1MSLCZUJ571Y5DAHDBDUTN", "current_trial": 165, "dateTime": 1511209886098, "trialdata": {"rt": -1, "stimulus": "<p id=\"stim\">7</p>", "key_press": -1, "trial_type": "single-stim", "trial_index": 165, "time_elapsed": 985862, "internal_node_id": "0.0-117.0-3.0"}}, {"uniqueid": "MTK0560:3Y54SXRO1MSLCZUJ571Y5DAHDBDUTN", "current_trial": 166, "dateTime": 1511209887099, "trialdata": {"rt": -1, "stimulus": "<p id=\"stim\">6</p>", "key_press": -1, "trial_type": "single-stim", "trial_index": 166, "time_elapsed": 986863, "internal_node_id": "0.0-117.0-4.0"}}, {"uniqueid": "MTK0560:3Y54SXRO1MSLCZUJ571Y5DAHDBDUTN", "current_trial": 167, "dateTime": 1511209888100, "trialdata": {"rt": -1, "stimulus": "<p id=\"stim\">5</p>", "key_press": -1, "trial_type": "single-stim", "trial_index": 167, "time_elapsed": 987864, "internal_node_id": "0.0-117.0-5.0"}}, {"uniqueid": "MTK0560:3Y54SXRO1MSLCZUJ571Y5DAHDBDUTN", "current_trial": 168, "dateTime": 1511209889101, "trialdata": {"rt": -1, "stimulus": "<p id=\"stim\">4</p>", "key_press": -1, "trial_type": "single-stim", "trial_index": 168, "time_elapsed": 988865, "internal_node_id": "0.0-117.0-6.0"}}, {"uniqueid": "MTK0560:3Y54SXRO1MSLCZUJ571Y5DAHDBDUTN", "current_trial": 169, "dateTime": 1511209890102, "trialdata": {"rt": -1, "stimulus": "<p id=\"stim\">3</p>", "key_press": -1, "trial_type": "single-stim", "trial_index": 169, "time_elapsed": 989866, "internal_node_id": "0.0-117.0-7.0"}}, {"uniqueid": "MTK0560:3Y54SXRO1MSLCZUJ571Y5DAHDBDUTN", "current_trial": 170, "dateTime": 1511209891104, "trialdata": {"rt": -1, "stimulus": "<p id=\"stim\">2</p>", "key_press": -1, "trial_type": "single-stim", "trial_index": 170, "time_elapsed": 990869, "internal_node_id": "0.0-117.0-8.0"}}, {"uniqueid": "MTK0560:3Y54SXRO1MSLCZUJ571Y5DAHDBDUTN", "current_trial": 171, "dateTime": 1511209892105, "trialdata": {"rt": -1, "stimulus": "<p id=\"stim\">1</p>", "key_press": -1, "trial_type": "single-stim", "trial_index": 171, "time_elapsed": 991869, "internal_node_id": "0.0-117.0-9.0"}}, {"uniqueid": "MTK0560:3Y54SXRO1MSLCZUJ571Y5DAHDBDUTN", "current_trial": 172, "dateTime": 1511209893606, "trialdata": {"rt": -1, "stimulus": "<p id=\"stim\">+</p>", "key_press": -1, "type": "FIXATION", "trial_type": "single-stim", "trial_index": 172, "time_elapsed": 993370, "internal_node_id": "0.0-118.0-0.0"}}, {"uniqueid": "MTK0560:3Y54SXRO1MSLCZUJ571Y5DAHDBDUTN", "current_trial": 173, "dateTime": 1511209895464, "trialdata": {"rt": -1000, "stimulus": "/static/audio/wordpool/TEMPLE.wav", "key_press": -1, "type": "PRES_AUD", "word": "temple", "wordID": 1447, "conditions": [12, 800, "a", 12000], "trial": 5, "serialpos": 0, "trial_type": "single-audio", "trial_index": 173, "time_elapsed": 995229, "internal_node_id": "0.0-119.0"}}, {"uniqueid": "MTK0560:3Y54SXRO1MSLCZUJ571Y5DAHDBDUTN", "current_trial": 174, "dateTime": 1511209897184, "trialdata": {"rt": -1000, "stimulus": "/static/audio/wordpool/PIZZA.wav", "key_press": -1, "type": "PRES_AUD", "word": "pizza", "wordID": 1078, "conditions": [12, 800, "a", 12000], "trial": 5, "serialpos": 1, "trial_type": "single-audio", "trial_index": 174, "time_elapsed": 996949, "internal_node_id": "0.0-120.0"}}, {"uniqueid": "MTK0560:3Y54SXRO1MSLCZUJ571Y5DAHDBDUTN", "current_trial": 175, "dateTime": 1511209898995, "trialdata": {"rt": -1000, "stimulus": "/static/audio/wordpool/SLIDE.wav", "key_press": -1, "type": "PRES_AUD", "word": "slide", "wordID": 1325, "conditions": [12, 800, "a", 12000], "trial": 5, "serialpos": 2, "trial_type": "single-audio", "trial_index": 175, "time_elapsed": 998760, "internal_node_id": "0.0-121.0"}}, {"uniqueid": "MTK0560:3Y54SXRO1MSLCZUJ571Y5DAHDBDUTN", "current_trial": 176, "dateTime": 1511209900610, "trialdata": {"rt": -1000, "stimulus": "/static/audio/wordpool/HERO.wav", "key_press": -1, "type": "PRES_AUD", "word": "hero", "wordID": 705, "conditions": [12, 800, "a", 12000], "trial": 5, "serialpos": 3, "trial_type": "single-audio", "trial_index": 176, "time_elapsed": 1000375, "internal_node_id": "0.0-122.0"}}, {"uniqueid": "MTK0560:3Y54SXRO1MSLCZUJ571Y5DAHDBDUTN", "current_trial": 177, "dateTime": 1511209902370, "trialdata": {"rt": -1000, "stimulus": "/static/audio/wordpool/ANKLE.wav", "key_press": -1, "type": "PRES_AUD", "word": "ankle", "wordID": 23, "conditions": [12, 800, "a", 12000], "trial": 5, "serialpos": 4, "trial_type": "single-audio", "trial_index": 177, "time_elapsed": 1002135, "internal_node_id": "0.0-123.0"}}, {"uniqueid": "MTK0560:3Y54SXRO1MSLCZUJ571Y5DAHDBDUTN", "current_trial": 178, "dateTime": 1511209904230, "trialdata": {"rt": -1000, "stimulus": "/static/audio/wordpool/PORTRAIT.wav", "key_press": -1, "type": "PRES_AUD", "word": "portrait", "wordID": 1110, "conditions": [12, 800, "a", 12000], "trial": 5, "serialpos": 5, "trial_type": "single-audio", "trial_index": 178, "time_elapsed": 1003995, "internal_node_id": "0.0-124.0"}}, {"uniqueid": "MTK0560:3Y54SXRO1MSLCZUJ571Y5DAHDBDUTN", "current_trial": 179, "dateTime": 1511209905931, "trialdata": {"rt": -1000, "stimulus": "/static/audio/wordpool/PICTURE.wav", "key_press": -1, "type": "PRES_AUD", "word": "picture", "wordID": 1060, "conditions": [12, 800, "a", 12000], "trial": 5, "serialpos": 6, "trial_type": "single-audio", "trial_index": 179, "time_elapsed": 1005696, "internal_node_id": "0.0-125.0"}}, {"uniqueid": "MTK0560:3Y54SXRO1MSLCZUJ571Y5DAHDBDUTN", "current_trial": 180, "dateTime": 1511209907591, "trialdata": {"rt": -1000, "stimulus": "/static/audio/wordpool/PASTA.wav", "key_press": -1, "type": "PRES_AUD", "word": "pasta", "wordID": 1020, "conditions": [12, 800, "a", 12000], "trial": 5, "serialpos": 7, "trial_type": "single-audio", "trial_index": 180, "time_elapsed": 1007356, "internal_node_id": "0.0-126.0"}}, {"uniqueid": "MTK0560:3Y54SXRO1MSLCZUJ571Y5DAHDBDUTN", "current_trial": 181, "dateTime": 1511209909401, "trialdata": {"rt": -1000, "stimulus": "/static/audio/wordpool/BEAKER.wav", "key_press": -1, "type": "PRES_AUD", "word": "beaker", "wordID": 103, "conditions": [12, 800, "a", 12000], "trial": 5, "serialpos": 8, "trial_type": "single-audio", "trial_index": 181, "time_elapsed": 1009166, "internal_node_id": "0.0-127.0"}}, {"uniqueid": "MTK0560:3Y54SXRO1MSLCZUJ571Y5DAHDBDUTN", "current_trial": 182, "dateTime": 1511209911361, "trialdata": {"rt": -1000, "stimulus": "/static/audio/wordpool/BULLET.wav", "key_press": -1, "type": "PRES_AUD", "word": "bullet", "wordID": 193, "conditions": [12, 800, "a", 12000], "trial": 5, "serialpos": 9, "trial_type": "single-audio", "trial_index": 182, "time_elapsed": 1011126, "internal_node_id": "0.0-128.0"}}, {"uniqueid": "MTK0560:3Y54SXRO1MSLCZUJ571Y5DAHDBDUTN", "current_trial": 183, "dateTime": 1511209913293, "trialdata": {"rt": -1000, "stimulus": "/static/audio/wordpool/CUSTARD.wav", "key_press": -1, "type": "PRES_AUD", "word": "custard", "wordID": 428, "conditions": [12, 800, "a", 12000], "trial": 5, "serialpos": 10, "trial_type": "single-audio", "trial_index": 183, "time_elapsed": 1013058, "internal_node_id": "0.0-129.0"}}, {"uniqueid": "MTK0560:3Y54SXRO1MSLCZUJ571Y5DAHDBDUTN", "current_trial": 184, "dateTime": 1511209915083, "trialdata": {"rt": -1000, "stimulus": "/static/audio/wordpool/SPOOL.wav", "key_press": -1, "type": "PRES_AUD", "word": "spool", "wordID": 1355, "conditions": [12, 800, "a", 12000], "trial": 5, "serialpos": 11, "trial_type": "single-audio", "trial_index": 184, "time_elapsed": 1014848, "internal_node_id": "0.0-130.0"}}, {"uniqueid": "MTK0560:3Y54SXRO1MSLCZUJ571Y5DAHDBDUTN", "current_trial": 185, "dateTime": 1511209916451, "trialdata": {"rt": -1, "stimulus": "", "key_press": -1, "type": "PRE_RECALL_DELAY", "trial_type": "single-stim", "trial_index": 185, "time_elapsed": 1016216, "internal_node_id": "0.0-131.0-0.0"}}, {"uniqueid": "MTK0560:3Y54SXRO1MSLCZUJ571Y5DAHDBDUTN", "current_trial": 186, "dateTime": 1511209916958, "trialdata": {"rt": -1000, "stimulus": "/static/audio/400Hz.wav", "key_press": -1, "type": "PRE_RECALL_ALERT", "trial_type": "single-audio", "trial_index": 186, "time_elapsed": 1016723, "internal_node_id": "0.0-132.0"}}, {"uniqueid": "MTK0560:3Y54SXRO1MSLCZUJ571Y5DAHDBDUTN", "current_trial": 187, "dateTime": 1511209976966, "trialdata": {"rt": [1860, 3109, 4452, 8972, 10602, 14575, 41940], "recwords": ["custard", "spool", "pizza", "portrait", "picture", "pocket", "pasta"], "type": "FREE_RECALL", "conditions": [12, 800, "a", 12000], "trial": 5, "trial_type": "free-recall", "trial_index": 187, "time_elapsed": 1076724, "internal_node_id": "0.0-133.0-0.0"}}, {"uniqueid": "MTK0560:3Y54SXRO1MSLCZUJ571Y5DAHDBDUTN", "current_trial": 188, "dateTime": 1511209980100, "trialdata": {"rt": 1132, "key_press": 32, "type": "INSTRUCTIONS", "trial_type": "text", "trial_index": 188, "time_elapsed": 1079865, "internal_node_id": "0.0-134.0"}}, {"uniqueid": "MTK0560:3Y54SXRO1MSLCZUJ571Y5DAHDBDUTN", "current_trial": 189, "dateTime": 1511210006103, "trialdata": {"rt": [2469, 5413, 8301, 11733, 14670, 16686, 20749], "responses": ["14", "11", "22", "17", "12", "14", "16"], "num1": [7, 4, 8, 3, 7, 2, 5, 6], "num2": [3, 1, 7, 9, 4, 3, 8, 6], "num3": [4, 6, 7, 5, 1, 9, 3, 9], "type": "DISTRACTOR", "conditions": [24, 1600, "v", 24000], "trial": 6, "trial_type": "math-distractor", "trial_index": 189, "time_elapsed": 1105868, "internal_node_id": "0.0-135.0"}}, {"uniqueid": "MTK0560:3Y54SXRO1MSLCZUJ571Y5DAHDBDUTN", "current_trial": 190, "dateTime": 1511210009104, "trialdata": {"rt": -1, "stimulus": "<p id=\"stim\">10</p>", "key_press": -1, "trial_type": "single-stim", "trial_index": 190, "time_elapsed": 1108868, "internal_node_id": "0.0-136.0-0.0"}}, {"uniqueid": "MTK0560:3Y54SXRO1MSLCZUJ571Y5DAHDBDUTN", "current_trial": 191, "dateTime": 1511210010104, "trialdata": {"rt": -1, "stimulus": "<p id=\"stim\">9</p>", "key_press": -1, "trial_type": "single-stim", "trial_index": 191, "time_elapsed": 1109869, "internal_node_id": "0.0-136.0-1.0"}}, {"uniqueid": "MTK0560:3Y54SXRO1MSLCZUJ571Y5DAHDBDUTN", "current_trial": 192, "dateTime": 1511210011105, "trialdata": {"rt": -1, "stimulus": "<p id=\"stim\">8</p>", "key_press": -1, "trial_type": "single-stim", "trial_index": 192, "time_elapsed": 1110870, "internal_node_id": "0.0-136.0-2.0"}}, {"uniqueid": "MTK0560:3Y54SXRO1MSLCZUJ571Y5DAHDBDUTN", "current_trial": 193, "dateTime": 1511210012106, "trialdata": {"rt": -1, "stimulus": "<p id=\"stim\">7</p>", "key_press": -1, "trial_type": "single-stim", "trial_index": 193, "time_elapsed": 1111871, "internal_node_id": "0.0-136.0-3.0"}}, {"uniqueid": "MTK0560:3Y54SXRO1MSLCZUJ571Y5DAHDBDUTN", "current_trial": 194, "dateTime": 1511210013108, "trialdata": {"rt": -1, "stimulus": "<p id=\"stim\">6</p>", "key_press": -1, "trial_type": "single-stim", "trial_index": 194, "time_elapsed": 1112872, "internal_node_id": "0.0-136.0-4.0"}}, {"uniqueid": "MTK0560:3Y54SXRO1MSLCZUJ571Y5DAHDBDUTN", "current_trial": 195, "dateTime": 1511210014109, "trialdata": {"rt": -1, "stimulus": "<p id=\"stim\">5</p>", "key_press": -1, "trial_type": "single-stim", "trial_index": 195, "time_elapsed": 1113873, "internal_node_id": "0.0-136.0-5.0"}}, {"uniqueid": "MTK0560:3Y54SXRO1MSLCZUJ571Y5DAHDBDUTN", "current_trial": 196, "dateTime": 1511210015110, "trialdata": {"rt": -1, "stimulus": "<p id=\"stim\">4</p>", "key_press": -1, "trial_type": "single-stim", "trial_index": 196, "time_elapsed": 1114874, "internal_node_id": "0.0-136.0-6.0"}}, {"uniqueid": "MTK0560:3Y54SXRO1MSLCZUJ571Y5DAHDBDUTN", "current_trial": 197, "dateTime": 1511210016111, "trialdata": {"rt": -1, "stimulus": "<p id=\"stim\">3</p>", "key_press": -1, "trial_type": "single-stim", "trial_index": 197, "time_elapsed": 1115875, "internal_node_id": "0.0-136.0-7.0"}}, {"uniqueid": "MTK0560:3Y54SXRO1MSLCZUJ571Y5DAHDBDUTN", "current_trial": 198, "dateTime": 1511210017112, "trialdata": {"rt": -1, "stimulus": "<p id=\"stim\">2</p>", "key_press": -1, "trial_type": "single-stim", "trial_index": 198, "time_elapsed": 1116876, "internal_node_id": "0.0-136.0-8.0"}}, {"uniqueid": "MTK0560:3Y54SXRO1MSLCZUJ571Y5DAHDBDUTN", "current_trial": 199, "dateTime": 1511210018113, "trialdata": {"rt": -1, "stimulus": "<p id=\"stim\">1</p>", "key_press": -1, "trial_type": "single-stim", "trial_index": 199, "time_elapsed": 1117877, "internal_node_id": "0.0-136.0-9.0"}}, {"uniqueid": "MTK0560:3Y54SXRO1MSLCZUJ571Y5DAHDBDUTN", "current_trial": 200, "dateTime": 1511210019614, "trialdata": {"rt": -1, "stimulus": "<p id=\"stim\">+</p>", "key_press": -1, "type": "FIXATION", "trial_type": "single-stim", "trial_index": 200, "time_elapsed": 1119378, "internal_node_id": "0.0-137.0-0.0"}}, {"uniqueid": "MTK0560:3Y54SXRO1MSLCZUJ571Y5DAHDBDUTN", "current_trial": 201, "dateTime": 1511210021215, "trialdata": {"rt": -1, "stimulus": "<p id=\"stim\">ROOSTER</p>", "key_press": -1, "type": "PRES_VIS", "word": "rooster", "wordID": 1208, "conditions": [24, 1600, "v", 24000], "trial": 6, "serialpos": 0, "trial_type": "single-stim", "trial_index": 201, "time_elapsed": 1120979, "internal_node_id": "0.0-138.0"}}, {"uniqueid": "MTK0560:3Y54SXRO1MSLCZUJ571Y5DAHDBDUTN", "current_trial": 202, "dateTime": 1511210023966, "trialdata": {"rt": -1, "stimulus": "<p id=\"stim\">ORCHID</p>", "key_press": -1, "type": "PRES_VIS", "word": "orchid", "wordID": 981, "conditions": [24, 1600, "v", 24000], "trial": 6, "serialpos": 1, "trial_type": "single-stim", "trial_index": 202, "time_elapsed": 1123730, "internal_node_id": "0.0-139.0"}}, {"uniqueid": "MTK0560:3Y54SXRO1MSLCZUJ571Y5DAHDBDUTN", "current_trial": 203, "dateTime": 1511210026593, "trialdata": {"rt": -1, "stimulus": "<p id=\"stim\">OUTLAW</p>", "key_press": -1, "type": "PRES_VIS", "word": "outlaw", "wordID": 988, "conditions": [24, 1600, "v", 24000], "trial": 6, "serialpos": 2, "trial_type": "single-stim", "trial_index": 203, "time_elapsed": 1126357, "internal_node_id": "0.0-140.0"}}, {"uniqueid": "MTK0560:3Y54SXRO1MSLCZUJ571Y5DAHDBDUTN", "current_trial": 204, "dateTime": 1511210029213, "trialdata": {"rt": -1, "stimulus": "<p id=\"stim\">SCALLOP</p>", "key_press": -1, "type": "PRES_VIS", "word": "scallop", "wordID": 1241, "conditions": [24, 1600, "v", 24000], "trial": 6, "serialpos": 3, "trial_type": "single-stim", "trial_index": 204, "time_elapsed": 1128978, "internal_node_id": "0.0-141.0"}}, {"uniqueid": "MTK0560:3Y54SXRO1MSLCZUJ571Y5DAHDBDUTN", "current_trial": 205, "dateTime": 1511210031890, "trialdata": {"rt": -1, "stimulus": "<p id=\"stim\">DORM</p>", "key_press": -1, "type": "PRES_VIS", "word": "dorm", "wordID": 487, "conditions": [24, 1600, "v", 24000], "trial": 6, "serialpos": 4, "trial_type": "single-stim", "trial_index": 205, "time_elapsed": 1131654, "internal_node_id": "0.0-142.0"}}, {"uniqueid": "MTK0560:3Y54SXRO1MSLCZUJ571Y5DAHDBDUTN", "current_trial": 206, "dateTime": 1511210034292, "trialdata": {"rt": -1, "stimulus": "<p id=\"stim\">SUPPER</p>", "key_press": -1, "type": "PRES_VIS", "word": "supper", "wordID": 1410, "conditions": [24, 1600, "v", 24000], "trial": 6, "serialpos": 5, "trial_type": "single-stim", "trial_index": 206, "time_elapsed": 1134056, "internal_node_id": "0.0-143.0"}}, {"uniqueid": "MTK0560:3Y54SXRO1MSLCZUJ571Y5DAHDBDUTN", "current_trial": 207, "dateTime": 1511210036800, "trialdata": {"rt": -1, "stimulus": "<p id=\"stim\">COOK</p>", "key_press": -1, "type": "PRES_VIS", "word": "cook", "wordID": 371, "conditions": [24, 1600, "v", 24000], "trial": 6, "serialpos": 6, "trial_type": "single-stim", "trial_index": 207, "time_elapsed": 1136564, "internal_node_id": "0.0-144.0"}}, {"uniqueid": "MTK0560:3Y54SXRO1MSLCZUJ571Y5DAHDBDUTN", "current_trial": 208, "dateTime": 1511210039500, "trialdata": {"rt": -1, "stimulus": "<p id=\"stim\">DRINK</p>", "key_press": -1, "type": "PRES_VIS", "word": "drink", "wordID": 497, "conditions": [24, 1600, "v", 24000], "trial": 6, "serialpos": 7, "trial_type": "single-stim", "trial_index": 208, "time_elapsed": 1139264, "internal_node_id": "0.0-145.0"}}, {"uniqueid": "MTK0560:3Y54SXRO1MSLCZUJ571Y5DAHDBDUTN", "current_trial": 209, "dateTime": 1511210042039, "trialdata": {"rt": -1, "stimulus": "<p id=\"stim\">BEAST</p>", "key_press": -1, "type": "PRES_VIS", "word": "beast", "wordID": 107, "conditions": [24, 1600, "v", 24000], "trial": 6, "serialpos": 8, "trial_type": "single-stim", "trial_index": 209, "time_elapsed": 1141803, "internal_node_id": "0.0-146.0"}}, {"uniqueid": "MTK0560:3Y54SXRO1MSLCZUJ571Y5DAHDBDUTN", "current_trial": 210, "dateTime": 1511210044444, "trialdata": {"rt": -1, "stimulus": "<p id=\"stim\">GARDEN</p>", "key_press": -1, "type": "PRES_VIS", "word": "garden", "wordID": 622, "conditions": [24, 1600, "v", 24000], "trial": 6, "serialpos": 9, "trial_type": "single-stim", "trial_index": 210, "time_elapsed": 1144208, "internal_node_id": "0.0-147.0"}}, {"uniqueid": "MTK0560:3Y54SXRO1MSLCZUJ571Y5DAHDBDUTN", "current_trial": 211, "dateTime": 1511210047115, "trialdata": {"rt": -1, "stimulus": "<p id=\"stim\">FLOWER</p>", "key_press": -1, "type": "PRES_VIS", "word": "flower", "wordID": 583, "conditions": [24, 1600, "v", 24000], "trial": 6, "serialpos": 10, "trial_type": "single-stim", "trial_index": 211, "time_elapsed": 1146879, "internal_node_id": "0.0-148.0"}}, {"uniqueid": "MTK0560:3Y54SXRO1MSLCZUJ571Y5DAHDBDUTN", "current_trial": 212, "dateTime": 1511210049833, "trialdata": {"rt": -1, "stimulus": "<p id=\"stim\">SHRUB</p>", "key_press": -1, "type": "PRES_VIS", "word": "shrub", "wordID": 1298, "conditions": [24, 1600, "v", 24000], "trial": 6, "serialpos": 11, "trial_type": "single-stim", "trial_index": 212, "time_elapsed": 1149597, "internal_node_id": "0.0-149.0"}}, {"uniqueid": "MTK0560:3Y54SXRO1MSLCZUJ571Y5DAHDBDUTN", "current_trial": 213, "dateTime": 1511210052604, "trialdata": {"rt": -1, "stimulus": "<p id=\"stim\">FRECKLE</p>", "key_press": -1, "type": "PRES_VIS", "word": "freckle", "wordID": 601, "conditions": [24, 1600, "v", 24000], "trial": 6, "serialpos": 12, "trial_type": "single-stim", "trial_index": 213, "time_elapsed": 1152368, "internal_node_id": "0.0-150.0"}}, {"uniqueid": "MTK0560:3Y54SXRO1MSLCZUJ571Y5DAHDBDUTN", "current_trial": 214, "dateTime": 1511210055254, "trialdata": {"rt": -1, "stimulus": "<p id=\"stim\">JAPAN</p>", "key_press": -1, "type": "PRES_VIS", "word": "japan", "wordID": 748, "conditions": [24, 1600, "v", 24000], "trial": 6, "serialpos": 13, "trial_type": "single-stim", "trial_index": 214, "time_elapsed": 1155019, "internal_node_id": "0.0-151.0"}}, {"uniqueid": "MTK0560:3Y54SXRO1MSLCZUJ571Y5DAHDBDUTN", "current_trial": 215, "dateTime": 1511210058048, "trialdata": {"rt": -1, "stimulus": "<p id=\"stim\">MOTEL</p>", "key_press": -1, "type": "PRES_VIS", "word": "motel", "wordID": 918, "conditions": [24, 1600, "v", 24000], "trial": 6, "serialpos": 14, "trial_type": "single-stim", "trial_index": 215, "time_elapsed": 1157812, "internal_node_id": "0.0-152.0"}}, {"uniqueid": "MTK0560:3Y54SXRO1MSLCZUJ571Y5DAHDBDUTN", "current_trial": 216, "dateTime": 1511210060670, "trialdata": {"rt": -1, "stimulus": "<p id=\"stim\">CHAUFFEUR</p>", "key_press": -1, "type": "PRES_VIS", "word": "chauffeur", "wordID": 282, "conditions": [24, 1600, "v", 24000], "trial": 6, "serialpos": 15, "trial_type": "single-stim", "trial_index": 216, "time_elapsed": 1160434, "internal_node_id": "0.0-153.0"}}, {"uniqueid": "MTK0560:3Y54SXRO1MSLCZUJ571Y5DAHDBDUTN", "current_trial": 217, "dateTime": 1511210063332, "trialdata": {"rt": -1, "stimulus": "<p id=\"stim\">COD</p>", "key_press": -1, "type": "PRES_VIS", "word": "cod", "wordID": 339, "conditions": [24, 1600, "v", 24000], "trial": 6, "serialpos": 16, "trial_type": "single-stim", "trial_index": 217, "time_elapsed": 1163097, "internal_node_id": "0.0-154.0"}}, {"uniqueid": "MTK0560:3Y54SXRO1MSLCZUJ571Y5DAHDBDUTN", "current_trial": 218, "dateTime": 1511210066081, "trialdata": {"rt": -1, "stimulus": "<p id=\"stim\">LAVA</p>", "key_press": -1, "type": "PRES_VIS", "word": "lava", "wordID": 803, "conditions": [24, 1600, "v", 24000], "trial": 6, "serialpos": 17, "trial_type": "single-stim", "trial_index": 218, "time_elapsed": 1165845, "internal_node_id": "0.0-155.0"}}, {"uniqueid": "MTK0560:3Y54SXRO1MSLCZUJ571Y5DAHDBDUTN", "current_trial": 219, "dateTime": 1511210068674, "trialdata": {"rt": -1, "stimulus": "<p id=\"stim\">CRATER</p>", "key_press": -1, "type": "PRES_VIS", "word": "crater", "wordID": 399, "conditions": [24, 1600, "v", 24000], "trial": 6, "serialpos": 18, "trial_type": "single-stim", "trial_index": 219, "time_elapsed": 1168438, "internal_node_id": "0.0-156.0"}}, {"uniqueid": "MTK0560:3Y54SXRO1MSLCZUJ571Y5DAHDBDUTN", "current_trial": 220, "dateTime": 1511210071212, "trialdata": {"rt": -1, "stimulus": "<p id=\"stim\">MARSH</p>", "key_press": -1, "type": "PRES_VIS", "word": "marsh", "wordID": 873, "conditions": [24, 1600, "v", 24000], "trial": 6, "serialpos": 19, "trial_type": "single-stim", "trial_index": 220, "time_elapsed": 1170974, "internal_node_id": "0.0-157.0"}}, {"uniqueid": "MTK0560:3Y54SXRO1MSLCZUJ571Y5DAHDBDUTN", "current_trial": 221, "dateTime": 1511210073932, "trialdata": {"rt": -1, "stimulus": "<p id=\"stim\">DASHBOARD</p>", "key_press": -1, "type": "PRES_VIS", "word": "dashboard", "wordID": 440, "conditions": [24, 1600, "v", 24000], "trial": 6, "serialpos": 20, "trial_type": "single-stim", "trial_index": 221, "time_elapsed": 1173696, "internal_node_id": "0.0-158.0"}}, {"uniqueid": "MTK0560:3Y54SXRO1MSLCZUJ571Y5DAHDBDUTN", "current_trial": 222, "dateTime": 1511210076620, "trialdata": {"rt": -1, "stimulus": "<p id=\"stim\">PERMIT</p>", "key_press": -1, "type": "PRES_VIS", "word": "permit", "wordID": 1050, "conditions": [24, 1600, "v", 24000], "trial": 6, "serialpos": 21, "trial_type": "single-stim", "trial_index": 222, "time_elapsed": 1176384, "internal_node_id": "0.0-159.0"}}, {"uniqueid": "MTK0560:3Y54SXRO1MSLCZUJ571Y5DAHDBDUTN", "current_trial": 223, "dateTime": 1511210079250, "trialdata": {"rt": -1, "stimulus": "<p id=\"stim\">UNCLE</p>", "key_press": -1, "type": "PRES_VIS", "word": "uncle", "wordID": 1535, "conditions": [24, 1600, "v", 24000], "trial": 6, "serialpos": 22, "trial_type": "single-stim", "trial_index": 223, "time_elapsed": 1179014, "internal_node_id": "0.0-160.0"}}, {"uniqueid": "MTK0560:3Y54SXRO1MSLCZUJ571Y5DAHDBDUTN", "current_trial": 224, "dateTime": 1511210081748, "trialdata": {"rt": -1, "stimulus": "<p id=\"stim\">PIMPLE</p>", "key_press": -1, "type": "PRES_VIS", "word": "pimple", "wordID": 1070, "conditions": [24, 1600, "v", 24000], "trial": 6, "serialpos": 23, "trial_type": "single-stim", "trial_index": 224, "time_elapsed": 1181512, "internal_node_id": "0.0-161.0"}}, {"uniqueid": "MTK0560:3Y54SXRO1MSLCZUJ571Y5DAHDBDUTN", "current_trial": 225, "dateTime": 1511210083808, "trialdata": {"rt": -1, "stimulus": "", "key_press": -1, "type": "PRE_RECALL_DELAY", "trial_type": "single-stim", "trial_index": 225, "time_elapsed": 1183572, "internal_node_id": "0.0-162.0-0.0"}}, {"uniqueid": "MTK0560:3Y54SXRO1MSLCZUJ571Y5DAHDBDUTN", "current_trial": 226, "dateTime": 1511210084309, "trialdata": {"rt": -1000, "stimulus": "/static/audio/400Hz.wav", "key_press": -1, "type": "PRE_RECALL_ALERT", "trial_type": "single-audio", "trial_index": 226, "time_elapsed": 1184073, "internal_node_id": "0.0-163.0"}}, {"uniqueid": "MTK0560:3Y54SXRO1MSLCZUJ571Y5DAHDBDUTN", "current_trial": 227, "dateTime": 1511210144319, "trialdata": {"rt": [1724, 3227, 3923, 6420, 12000, 13996, 15276, 17044, 20164, 21988, 27868, 55421], "recwords": ["uncle", "pimple", "sod", "dashboard", "dinner", "garden", "shrub", "flower", "drink", "supper", "marsh", "desert"], "type": "FREE_RECALL", "conditions": [24, 1600, "v", 24000], "trial": 6, "trial_type": "free-recall", "trial_index": 227, "time_elapsed": 1244077, "internal_node_id": "0.0-164.0-0.0"}}, {"uniqueid": "MTK0560:3Y54SXRO1MSLCZUJ571Y5DAHDBDUTN", "current_trial": 228, "dateTime": 1511210147843, "trialdata": {"rt": 1523, "key_press": 32, "type": "INSTRUCTIONS", "trial_type": "text", "trial_index": 228, "time_elapsed": 1247608, "internal_node_id": "0.0-165.0"}}, {"uniqueid": "MTK0560:3Y54SXRO1MSLCZUJ571Y5DAHDBDUTN", "current_trial": 229, "dateTime": 1511210173845, "trialdata": {"rt": [4790, 6575, 9135, 11166, 14430, 17294, 19950, 22342], "responses": ["18", "16", "13", "12", "17", "15", "14", "22"], "num1": [6, 6, 7, 3, 6, 7, 2, 8, 6], "num2": [4, 9, 1, 6, 2, 5, 4, 7, 8], "num3": [8, 1, 5, 3, 9, 3, 8, 7, 3], "type": "DISTRACTOR", "conditions": [24, 800, "a", 24000], "trial": 7, "trial_type": "math-distractor", "trial_index": 229, "time_elapsed": 1273610, "internal_node_id": "0.0-166.0"}}, {"uniqueid": "MTK0560:3Y54SXRO1MSLCZUJ571Y5DAHDBDUTN", "current_trial": 230, "dateTime": 1511210176846, "trialdata": {"rt": -1, "stimulus": "<p id=\"stim\">10</p>", "key_press": -1, "trial_type": "single-stim", "trial_index": 230, "time_elapsed": 1276610, "internal_node_id": "0.0-167.0-0.0"}}, {"uniqueid": "MTK0560:3Y54SXRO1MSLCZUJ571Y5DAHDBDUTN", "current_trial": 231, "dateTime": 1511210177847, "trialdata": {"rt": -1, "stimulus": "<p id=\"stim\">9</p>", "key_press": -1, "trial_type": "single-stim", "trial_index": 231, "time_elapsed": 1277611, "internal_node_id": "0.0-167.0-1.0"}}, {"uniqueid": "MTK0560:3Y54SXRO1MSLCZUJ571Y5DAHDBDUTN", "current_trial": 232, "dateTime": 1511210178847, "trialdata": {"rt": -1, "stimulus": "<p id=\"stim\">8</p>", "key_press": -1, "trial_type": "single-stim", "trial_index": 232, "time_elapsed": 1278612, "internal_node_id": "0.0-167.0-2.0"}}, {"uniqueid": "MTK0560:3Y54SXRO1MSLCZUJ571Y5DAHDBDUTN", "current_trial": 233, "dateTime": 1511210179849, "trialdata": {"rt": -1, "stimulus": "<p id=\"stim\">7</p>", "key_press": -1, "trial_type": "single-stim", "trial_index": 233, "time_elapsed": 1279613, "internal_node_id": "0.0-167.0-3.0"}}, {"uniqueid": "MTK0560:3Y54SXRO1MSLCZUJ571Y5DAHDBDUTN", "current_trial": 234, "dateTime": 1511210180850, "trialdata": {"rt": -1, "stimulus": "<p id=\"stim\">6</p>", "key_press": -1, "trial_type": "single-stim", "trial_index": 234, "time_elapsed": 1280614, "internal_node_id": "0.0-167.0-4.0"}}, {"uniqueid": "MTK0560:3Y54SXRO1MSLCZUJ571Y5DAHDBDUTN", "current_trial": 235, "dateTime": 1511210181851, "trialdata": {"rt": -1, "stimulus": "<p id=\"stim\">5</p>", "key_press": -1, "trial_type": "single-stim", "trial_index": 235, "time_elapsed": 1281615, "internal_node_id": "0.0-167.0-5.0"}}, {"uniqueid": "MTK0560:3Y54SXRO1MSLCZUJ571Y5DAHDBDUTN", "current_trial": 236, "dateTime": 1511210182852, "trialdata": {"rt": -1, "stimulus": "<p id=\"stim\">4</p>", "key_press": -1, "trial_type": "single-stim", "trial_index": 236, "time_elapsed": 1282616, "internal_node_id": "0.0-167.0-6.0"}}, {"uniqueid": "MTK0560:3Y54SXRO1MSLCZUJ571Y5DAHDBDUTN", "current_trial": 237, "dateTime": 1511210183853, "trialdata": {"rt": -1, "stimulus": "<p id=\"stim\">3</p>", "key_press": -1, "trial_type": "single-stim", "trial_index": 237, "time_elapsed": 1283617, "internal_node_id": "0.0-167.0-7.0"}}, {"uniqueid": "MTK0560:3Y54SXRO1MSLCZUJ571Y5DAHDBDUTN", "current_trial": 238, "dateTime": 1511210184854, "trialdata": {"rt": -1, "stimulus": "<p id=\"stim\">2</p>", "key_press": -1, "trial_type": "single-stim", "trial_index": 238, "time_elapsed": 1284618, "internal_node_id": "0.0-167.0-8.0"}}, {"uniqueid": "MTK0560:3Y54SXRO1MSLCZUJ571Y5DAHDBDUTN", "current_trial": 239, "dateTime": 1511210185857, "trialdata": {"rt": -1, "stimulus": "<p id=\"stim\">1</p>", "key_press": -1, "trial_type": "single-stim", "trial_index": 239, "time_elapsed": 1285619, "internal_node_id": "0.0-167.0-9.0"}}, {"uniqueid": "MTK0560:3Y54SXRO1MSLCZUJ571Y5DAHDBDUTN", "current_trial": 240, "dateTime": 1511210187358, "trialdata": {"rt": -1, "stimulus": "<p id=\"stim\">+</p>", "key_press": -1, "type": "FIXATION", "trial_type": "single-stim", "trial_index": 240, "time_elapsed": 1287123, "internal_node_id": "0.0-168.0-0.0"}}, {"uniqueid": "MTK0560:3Y54SXRO1MSLCZUJ571Y5DAHDBDUTN", "current_trial": 241, "dateTime": 1511210189031, "trialdata": {"rt": -1000, "stimulus": "/static/audio/wordpool/PERCH.wav", "key_press": -1, "type": "PRES_AUD", "word": "perch", "wordID": 1047, "conditions": [24, 800, "a", 24000], "trial": 7, "serialpos": 0, "trial_type": "single-audio", "trial_index": 241, "time_elapsed": 1288796, "internal_node_id": "0.0-169.0"}}, {"uniqueid": "MTK0560:3Y54SXRO1MSLCZUJ571Y5DAHDBDUTN", "current_trial": 242, "dateTime": 1511210191001, "trialdata": {"rt": -1000, "stimulus": "/static/audio/wordpool/CATCHER.wav", "key_press": -1, "type": "PRES_AUD", "word": "catcher", "wordID": 257, "conditions": [24, 800, "a", 24000], "trial": 7, "serialpos": 1, "trial_type": "single-audio", "trial_index": 242, "time_elapsed": 1290766, "internal_node_id": "0.0-170.0"}}, {"uniqueid": "MTK0560:3Y54SXRO1MSLCZUJ571Y5DAHDBDUTN", "current_trial": 243, "dateTime": 1511210192782, "trialdata": {"rt": -1000, "stimulus": "/static/audio/wordpool/CASKET.wav", "key_press": -1, "type": "PRES_AUD", "word": "casket", "wordID": 254, "conditions": [24, 800, "a", 24000], "trial": 7, "serialpos": 2, "trial_type": "single-audio", "trial_index": 243, "time_elapsed": 1292547, "internal_node_id": "0.0-171.0"}}, {"uniqueid": "MTK0560:3Y54SXRO1MSLCZUJ571Y5DAHDBDUTN", "current_trial": 244, "dateTime": 1511210194482, "trialdata": {"rt": -1000, "stimulus": "/static/audio/wordpool/GRILL.wav", "key_press": -1, "type": "PRES_AUD", "word": "grill", "wordID": 660, "conditions": [24, 800, "a", 24000], "trial": 7, "serialpos": 3, "trial_type": "single-audio", "trial_index": 244, "time_elapsed": 1294247, "internal_node_id": "0.0-172.0"}}, {"uniqueid": "MTK0560:3Y54SXRO1MSLCZUJ571Y5DAHDBDUTN", "current_trial": 245, "dateTime": 1511210196402, "trialdata": {"rt": -1000, "stimulus": "/static/audio/wordpool/DRESSER.wav", "key_press": -1, "type": "PRES_AUD", "word": "dresser", "wordID": 495, "conditions": [24, 800, "a", 24000], "trial": 7, "serialpos": 4, "trial_type": "single-audio", "trial_index": 245, "time_elapsed": 1296167, "internal_node_id": "0.0-173.0"}}, {"uniqueid": "MTK0560:3Y54SXRO1MSLCZUJ571Y5DAHDBDUTN", "current_trial": 246, "dateTime": 1511210198152, "trialdata": {"rt": -1000, "stimulus": "/static/audio/wordpool/TOMBSTONE.wav", "key_press": -1, "type": "PRES_AUD", "word": "tombstone", "wordID": 1477, "conditions": [24, 800, "a", 24000], "trial": 7, "serialpos": 5, "trial_type": "single-audio", "trial_index": 246, "time_elapsed": 1297917, "internal_node_id": "0.0-174.0"}}, {"uniqueid": "MTK0560:3Y54SXRO1MSLCZUJ571Y5DAHDBDUTN", "current_trial": 247, "dateTime": 1511210200157, "trialdata": {"rt": -1000, "stimulus": "/static/audio/wordpool/PISTON.wav", "key_press": -1, "type": "PRES_AUD", "word": "piston", "wordID": 1075, "conditions": [24, 800, "a", 24000], "trial": 7, "serialpos": 6, "trial_type": "single-audio", "trial_index": 247, "time_elapsed": 1299922, "internal_node_id": "0.0-175.0"}}, {"uniqueid": "MTK0560:3Y54SXRO1MSLCZUJ571Y5DAHDBDUTN", "current_trial": 248, "dateTime": 1511210202164, "trialdata": {"rt": -1000, "stimulus": "/static/audio/wordpool/VALVE.wav", "key_press": -1, "type": "PRES_AUD", "word": "valve", "wordID": 1545, "conditions": [24, 800, "a", 24000], "trial": 7, "serialpos": 7, "trial_type": "single-audio", "trial_index": 248, "time_elapsed": 1301929, "internal_node_id": "0.0-176.0"}}, {"uniqueid": "MTK0560:3Y54SXRO1MSLCZUJ571Y5DAHDBDUTN", "current_trial": 249, "dateTime": 1511210203974, "trialdata": {"rt": -1000, "stimulus": "/static/audio/wordpool/LEOPARD.wav", "key_press": -1, "type": "PRES_AUD", "word": "leopard", "wordID": 811, "conditions": [24, 800, "a", 24000], "trial": 7, "serialpos": 8, "trial_type": "single-audio", "trial_index": 249, "time_elapsed": 1303739, "internal_node_id": "0.0-177.0"}}, {"uniqueid": "MTK0560:3Y54SXRO1MSLCZUJ571Y5DAHDBDUTN", "current_trial": 250, "dateTime": 1511210205955, "trialdata": {"rt": -1000, "stimulus": "/static/audio/wordpool/BUG.wav", "key_press": -1, "type": "PRES_AUD", "word": "bug", "wordID": 186, "conditions": [24, 800, "a", 24000], "trial": 7, "serialpos": 9, "trial_type": "single-audio", "trial_index": 250, "time_elapsed": 1305720, "internal_node_id": "0.0-178.0"}}, {"uniqueid": "MTK0560:3Y54SXRO1MSLCZUJ571Y5DAHDBDUTN", "current_trial": 251, "dateTime": 1511210207930, "trialdata": {"rt": -1000, "stimulus": "/static/audio/wordpool/CAFE.wav", "key_press": -1, "type": "PRES_AUD", "word": "cafe", "wordID": 215, "conditions": [24, 800, "a", 24000], "trial": 7, "serialpos": 10, "trial_type": "single-audio", "trial_index": 251, "time_elapsed": 1307695, "internal_node_id": "0.0-179.0"}}, {"uniqueid": "MTK0560:3Y54SXRO1MSLCZUJ571Y5DAHDBDUTN", "current_trial": 252, "dateTime": 1511210209661, "trialdata": {"rt": -1000, "stimulus": "/static/audio/wordpool/LETTUCE.wav", "key_press": -1, "type": "PRES_AUD", "word": "lettuce", "wordID": 813, "conditions": [24, 800, "a", 24000], "trial": 7, "serialpos": 11, "trial_type": "single-audio", "trial_index": 252, "time_elapsed": 1309426, "internal_node_id": "0.0-180.0"}}, {"uniqueid": "MTK0560:3Y54SXRO1MSLCZUJ571Y5DAHDBDUTN", "current_trial": 253, "dateTime": 1511210211490, "trialdata": {"rt": -1000, "stimulus": "/static/audio/wordpool/KITCHEN.wav", "key_press": -1, "type": "PRES_AUD", "word": "kitchen", "wordID": 777, "conditions": [24, 800, "a", 24000], "trial": 7, "serialpos": 12, "trial_type": "single-audio", "trial_index": 253, "time_elapsed": 1311255, "internal_node_id": "0.0-181.0"}}, {"uniqueid": "MTK0560:3Y54SXRO1MSLCZUJ571Y5DAHDBDUTN", "current_trial": 254, "dateTime": 1511210213230, "trialdata": {"rt": -1000, "stimulus": "/static/audio/wordpool/DAISY.wav", "key_press": -1, "type": "PRES_AUD", "word": "daisy", "wordID": 434, "conditions": [24, 800, "a", 24000], "trial": 7, "serialpos": 13, "trial_type": "single-audio", "trial_index": 254, "time_elapsed": 1312995, "internal_node_id": "0.0-182.0"}}, {"uniqueid": "MTK0560:3Y54SXRO1MSLCZUJ571Y5DAHDBDUTN", "current_trial": 255, "dateTime": 1511210214861, "trialdata": {"rt": -1000, "stimulus": "/static/audio/wordpool/DRIVER.wav", "key_press": -1, "type": "PRES_AUD", "word": "driver", "wordID": 498, "conditions": [24, 800, "a", 24000], "trial": 7, "serialpos": 14, "trial_type": "single-audio", "trial_index": 255, "time_elapsed": 1314626, "internal_node_id": "0.0-183.0"}}, {"uniqueid": "MTK0560:3Y54SXRO1MSLCZUJ571Y5DAHDBDUTN", "current_trial": 256, "dateTime": 1511210216521, "trialdata": {"rt": -1000, "stimulus": "/static/audio/wordpool/NOVEL.wav", "key_press": -1, "type": "PRES_AUD", "word": "novel", "wordID": 959, "conditions": [24, 800, "a", 24000], "trial": 7, "serialpos": 15, "trial_type": "single-audio", "trial_index": 256, "time_elapsed": 1316286, "internal_node_id": "0.0-184.0"}}, {"uniqueid": "MTK0560:3Y54SXRO1MSLCZUJ571Y5DAHDBDUTN", "current_trial": 257, "dateTime": 1511210218333, "trialdata": {"rt": -1000, "stimulus": "/static/audio/wordpool/AUTHOR.wav", "key_press": -1, "type": "PRES_AUD", "word": "author", "wordID": 60, "conditions": [24, 800, "a", 24000], "trial": 7, "serialpos": 16, "trial_type": "single-audio", "trial_index": 257, "time_elapsed": 1318098, "internal_node_id": "0.0-185.0"}}, {"uniqueid": "MTK0560:3Y54SXRO1MSLCZUJ571Y5DAHDBDUTN", "current_trial": 258, "dateTime": 1511210220044, "trialdata": {"rt": -1000, "stimulus": "/static/audio/wordpool/CIGAR.wav", "key_press": -1, "type": "PRES_AUD", "word": "cigar", "wordID": 307, "conditions": [24, 800, "a", 24000], "trial": 7, "serialpos": 17, "trial_type": "single-audio", "trial_index": 258, "time_elapsed": 1319809, "internal_node_id": "0.0-186.0"}}, {"uniqueid": "MTK0560:3Y54SXRO1MSLCZUJ571Y5DAHDBDUTN", "current_trial": 259, "dateTime": 1511210221665, "trialdata": {"rt": -1000, "stimulus": "/static/audio/wordpool/MARKET.wav", "key_press": -1, "type": "PRES_AUD", "word": "market", "wordID": 870, "conditions": [24, 800, "a", 24000], "trial": 7, "serialpos": 18, "trial_type": "single-audio", "trial_index": 259, "time_elapsed": 1321430, "internal_node_id": "0.0-187.0"}}, {"uniqueid": "MTK0560:3Y54SXRO1MSLCZUJ571Y5DAHDBDUTN", "current_trial": 260, "dateTime": 1511210223365, "trialdata": {"rt": -1000, "stimulus": "/static/audio/wordpool/STOVE.wav", "key_press": -1, "type": "PRES_AUD", "word": "stove", "wordID": 1387, "conditions": [24, 800, "a", 24000], "trial": 7, "serialpos": 19, "trial_type": "single-audio", "trial_index": 260, "time_elapsed": 1323130, "internal_node_id": "0.0-188.0"}}, {"uniqueid": "MTK0560:3Y54SXRO1MSLCZUJ571Y5DAHDBDUTN", "current_trial": 261, "dateTime": 1511210225105, "trialdata": {"rt": -1000, "stimulus": "/static/audio/wordpool/FIREPLACE.wav", "key_press": -1, "type": "PRES_AUD", "word": "fireplace", "wordID": 569, "conditions": [24, 800, "a", 24000], "trial": 7, "serialpos": 20, "trial_type": "single-audio", "trial_index": 261, "time_elapsed": 1324870, "internal_node_id": "0.0-189.0"}}, {"uniqueid": "MTK0560:3Y54SXRO1MSLCZUJ571Y5DAHDBDUTN", "current_trial": 262, "dateTime": 1511210226772, "trialdata": {"rt": -1000, "stimulus": "/static/audio/wordpool/HEDGE.wav", "key_press": -1, "type": "PRES_AUD", "word": "hedge", "wordID": 698, "conditions": [24, 800, "a", 24000], "trial": 7, "serialpos": 21, "trial_type": "single-audio", "trial_index": 262, "time_elapsed": 1326537, "internal_node_id": "0.0-190.0"}}, {"uniqueid": "MTK0560:3Y54SXRO1MSLCZUJ571Y5DAHDBDUTN", "current_trial": 263, "dateTime": 1511210228691, "trialdata": {"rt": -1000, "stimulus": "/static/audio/wordpool/TABLET.wav", "key_press": -1, "type": "PRES_AUD", "word": "tablet", "wordID": 1426, "conditions": [24, 800, "a", 24000], "trial": 7, "serialpos": 22, "trial_type": "single-audio", "trial_index": 263, "time_elapsed": 1328456, "internal_node_id": "0.0-191.0"}}, {"uniqueid": "MTK0560:3Y54SXRO1MSLCZUJ571Y5DAHDBDUTN", "current_trial": 264, "dateTime": 1511210230602, "trialdata": {"rt": -1000, "stimulus": "/static/audio/wordpool/LILY.wav", "key_press": -1, "type": "PRES_AUD", "word": "lily", "wordID": 820, "conditions": [24, 800, "a", 24000], "trial": 7, "serialpos": 23, "trial_type": "single-audio", "trial_index": 264, "time_elapsed": 1330367, "internal_node_id": "0.0-192.0"}}, {"uniqueid": "MTK0560:3Y54SXRO1MSLCZUJ571Y5DAHDBDUTN", "current_trial": 265, "dateTime": 1511210231903, "trialdata": {"rt": -1, "stimulus": "", "key_press": -1, "type": "PRE_RECALL_DELAY", "trial_type": "single-stim", "trial_index": 265, "time_elapsed": 1331668, "internal_node_id": "0.0-193.0-0.0"}}, {"uniqueid": "MTK0560:3Y54SXRO1MSLCZUJ571Y5DAHDBDUTN", "current_trial": 266, "dateTime": 1511210232404, "trialdata": {"rt": -1000, "stimulus": "/static/audio/400Hz.wav", "key_press": -1, "type": "PRE_RECALL_ALERT", "trial_type": "single-audio", "trial_index": 266, "time_elapsed": 1332169, "internal_node_id": "0.0-194.0"}}, {"uniqueid": "MTK0560:3Y54SXRO1MSLCZUJ571Y5DAHDBDUTN", "current_trial": 267, "dateTime": 1511210292415, "trialdata": {"rt": [1534, 3009, 3447, 5358, 7157, 8827, 19993, 23680, 40223], "recwords": ["hedge", "tablet", "", "lilly", "dresser", "tablet", "casket", "grave", "table"], "type": "FREE_RECALL", "conditions": [24, 800, "a", 24000], "trial": 7, "trial_type": "free-recall", "trial_index": 267, "time_elapsed": 1392170, "internal_node_id": "0.0-195.0-0.0"}}, {"uniqueid": "MTK0560:3Y54SXRO1MSLCZUJ571Y5DAHDBDUTN", "current_trial": 268, "dateTime": 1511210295188, "trialdata": {"rt": 772, "key_press": 32, "type": "INSTRUCTIONS", "trial_type": "text", "trial_index": 268, "time_elapsed": 1394953, "internal_node_id": "0.0-196.0"}}, {"uniqueid": "MTK0560:3Y54SXRO1MSLCZUJ571Y5DAHDBDUTN", "current_trial": 269, "dateTime": 1511210321191, "trialdata": {"rt": [2900, 5228, 6660, 8549, 11021, 15348, 19372, 23236], "responses": ["16", "15", "6", "10", "11", "22", "13", "20"], "num1": [3, 4, 1, 3, 6, 8, 6, 9, 6], "num2": [8, 9, 4, 1, 1, 9, 2, 3, 6], "num3": [6, 2, 1, 6, 4, 8, 5, 8, 6], "type": "DISTRACTOR", "conditions": [12, 1600, "a", 24000], "trial": 8, "trial_type": "math-distractor", "trial_index": 269, "time_elapsed": 1420956, "internal_node_id": "0.0-197.0"}}, {"uniqueid": "MTK0560:3Y54SXRO1MSLCZUJ571Y5DAHDBDUTN", "current_trial": 270, "dateTime": 1511210324191, "trialdata": {"rt": -1, "stimulus": "<p id=\"stim\">10</p>", "key_press": -1, "trial_type": "single-stim", "trial_index": 270, "time_elapsed": 1423956, "internal_node_id": "0.0-198.0-0.0"}}, {"uniqueid": "MTK0560:3Y54SXRO1MSLCZUJ571Y5DAHDBDUTN", "current_trial": 271, "dateTime": 1511210325193, "trialdata": {"rt": -1, "stimulus": "<p id=\"stim\">9</p>", "key_press": -1, "trial_type": "single-stim", "trial_index": 271, "time_elapsed": 1424957, "internal_node_id": "0.0-198.0-1.0"}}, {"uniqueid": "MTK0560:3Y54SXRO1MSLCZUJ571Y5DAHDBDUTN", "current_trial": 272, "dateTime": 1511210326194, "trialdata": {"rt": -1, "stimulus": "<p id=\"stim\">8</p>", "key_press": -1, "trial_type": "single-stim", "trial_index": 272, "time_elapsed": 1425958, "internal_node_id": "0.0-198.0-2.0"}}, {"uniqueid": "MTK0560:3Y54SXRO1MSLCZUJ571Y5DAHDBDUTN", "current_trial": 273, "dateTime": 1511210327195, "trialdata": {"rt": -1, "stimulus": "<p id=\"stim\">7</p>", "key_press": -1, "trial_type": "single-stim", "trial_index": 273, "time_elapsed": 1426959, "internal_node_id": "0.0-198.0-3.0"}}, {"uniqueid": "MTK0560:3Y54SXRO1MSLCZUJ571Y5DAHDBDUTN", "current_trial": 274, "dateTime": 151121