{"condition": 0, "counterbalance": 940, "assignmentId": "3A7Y0R2P2PVJF0S9YIYHNEMC9S7JX5", "workerId": "MTK0584", "hitId": "3GVPRXWRPH1RIQ4I8L4HSUY4GFT7ID", "currenttrial": 626, "bonus": 0, "data": [{"uniqueid": "MTK0584:3A7Y0R2P2PVJF0S9YIYHNEMC9S7JX5", "current_trial": 0, "dateTime": 1511233281387, "trialdata": {"rt": 2626, "key_press": 32, "type": "INSTRUCTIONS", "trial_type": "text", "trial_index": 0, "time_elapsed": 2636, "internal_node_id": "0.0-0.0"}}, {"uniqueid": "MTK0584:3A7Y0R2P2PVJF0S9YIYHNEMC9S7JX5", "current_trial": 1, "dateTime": 1511233327969, "trialdata": {"rt": 46561, "key_press": 32, "type": "INSTRUCTIONS", "trial_type": "text", "trial_index": 1, "time_elapsed": 49218, "internal_node_id": "0.0-1.0"}}, {"uniqueid": "MTK0584:3A7Y0R2P2PVJF0S9YIYHNEMC9S7JX5", "current_trial": 2, "dateTime": 1511233337777, "trialdata": {"rt": [9783], "responses": ["ocean"], "type": "AUDIO_TEST", "trial_type": "audio-test", "trial_index": 2, "time_elapsed": 59026, "internal_node_id": "0.0-2.0"}}, {"uniqueid": "MTK0584:3A7Y0R2P2PVJF0S9YIYHNEMC9S7JX5", "current_trial": 3, "dateTime": 1511233344296, "trialdata": {"rt": [6505], "responses": ["crystal"], "type": "AUDIO_TEST", "trial_type": "audio-test", "trial_index": 3, "time_elapsed": 65545, "internal_node_id": "0.0-3.0"}}, {"uniqueid": "MTK0584:3A7Y0R2P2PVJF0S9YIYHNEMC9S7JX5", "current_trial": 4, "dateTime": 1511233350450, "trialdata": {"rt": [6139], "responses": ["spice"], "type": "AUDIO_TEST", "trial_type": "audio-test", "trial_index": 4, "time_elapsed": 71699, "internal_node_id": "0.0-4.0"}}, {"uniqueid": "MTK0584:3A7Y0R2P2PVJF0S9YIYHNEMC9S7JX5", "current_trial": 5, "dateTime": 1511233691268, "trialdata": {"rt": 340062, "responses": "{\"Q0\":\"\",\"Q1\":\"\",\"Q2\":\"\"}", "type": "SLEEP_SURVEY", "trial_type": "survey-text", "trial_index": 5, "time_elapsed": 412517, "internal_node_id": "0.0-5.0"}}, {"uniqueid": "MTK0584:3A7Y0R2P2PVJF0S9YIYHNEMC9S7JX5", "current_trial": 6, "dateTime": 1511233757335, "trialdata": {"rt": 65064, "key_press": 32, "type": "INSTRUCTIONS", "trial_type": "text", "trial_index": 6, "time_elapsed": 478584, "internal_node_id": "0.0-6.0"}}, {"uniqueid": "MTK0584:3A7Y0R2P2PVJF0S9YIYHNEMC9S7JX5", "current_trial": 7, "dateTime": 1511233772271, "trialdata": {"rt": 14433, "key_press": 32, "type": "INSTRUCTIONS", "trial_type": "text", "trial_index": 7, "time_elapsed": 493520, "internal_node_id": "0.0-7.0"}}, {"uniqueid": "MTK0584:3A7Y0R2P2PVJF0S9YIYHNEMC9S7JX5", "current_trial": 8, "dateTime": 1511233784479, "trialdata": {"rt": 11706, "key_press": 32, "type": "INSTRUCTIONS", "trial_type": "text", "trial_index": 8, "time_elapsed": 505728, "internal_node_id": "0.0-8.0"}}, {"uniqueid": "MTK0584:3A7Y0R2P2PVJF0S9YIYHNEMC9S7JX5", "current_trial": 9, "dateTime": 1511233803511, "trialdata": {"rt": [3085, 5258, 10058, 12658, 15106, 17234], "responses": ["9", "15", "23", "14", "19", "17"], "num1": [1, 5, 7, 7, 3, 8, 5], "num2": [7, 7, 8, 5, 9, 6, 7], "num3": [1, 3, 8, 2, 7, 3, 9], "type": "DISTRACTOR", "conditions": [18, 1200, "v", 18000], "trial": 0, "trial_type": "math-distractor", "trial_index": 9, "time_elapsed": 524759, "internal_node_id": "0.0-9.0"}}, {"uniqueid": "MTK0584:3A7Y0R2P2PVJF0S9YIYHNEMC9S7JX5", "current_trial": 10, "dateTime": 1511233806515, "trialdata": {"rt": -1, "stimulus": "<p id=\"stim\">10</p>", "key_press": -1, "trial_type": "single-stim", "trial_index": 10, "time_elapsed": 527764, "internal_node_id": "0.0-10.0-0.0"}}, {"uniqueid": "MTK0584:3A7Y0R2P2PVJF0S9YIYHNEMC9S7JX5", "current_trial": 11, "dateTime": 1511233807518, "trialdata": {"rt": -1, "stimulus": "<p id=\"stim\">9</p>", "key_press": -1, "trial_type": "single-stim", "trial_index": 11, "time_elapsed": 528767, "internal_node_id": "0.0-10.0-1.0"}}, {"uniqueid": "MTK0584:3A7Y0R2P2PVJF0S9YIYHNEMC9S7JX5", "current_trial": 12, "dateTime": 1511233808521, "trialdata": {"rt": -1, "stimulus": "<p id=\"stim\">8</p>", "key_press": -1, "trial_type": "single-stim", "trial_index": 12, "time_elapsed": 529769, "internal_node_id": "0.0-10.0-2.0"}}, {"uniqueid": "MTK0584:3A7Y0R2P2PVJF0S9YIYHNEMC9S7JX5", "current_trial": 13, "dateTime": 1511233809522, "trialdata": {"rt": -1, "stimulus": "<p id=\"stim\">7</p>", "key_press": -1, "trial_type": "single-stim", "trial_index": 13, "time_elapsed": 530771, "internal_node_id": "0.0-10.0-3.0"}}, {"uniqueid": "MTK0584:3A7Y0R2P2PVJF0S9YIYHNEMC9S7JX5", "current_trial": 14, "dateTime": 1511233810524, "trialdata": {"rt": -1, "stimulus": "<p id=\"stim\">6</p>", "key_press": -1, "trial_type": "single-stim", "trial_index": 14, "time_elapsed": 531773, "internal_node_id": "0.0-10.0-4.0"}}, {"uniqueid": "MTK0584:3A7Y0R2P2PVJF0S9YIYHNEMC9S7JX5", "current_trial": 15, "dateTime": 1511233811527, "trialdata": {"rt": -1, "stimulus": "<p id=\"stim\">5</p>", "key_press": -1, "trial_type": "single-stim", "trial_index": 15, "time_elapsed": 532775, "internal_node_id": "0.0-10.0-5.0"}}, {"uniqueid": "MTK0584:3A7Y0R2P2PVJF0S9YIYHNEMC9S7JX5", "current_trial": 16, "dateTime": 1511233812529, "trialdata": {"rt": -1, "stimulus": "<p id=\"stim\">4</p>", "key_press": -1, "trial_type": "single-stim", "trial_index": 16, "time_elapsed": 533777, "internal_node_id": "0.0-10.0-6.0"}}, {"uniqueid": "MTK0584:3A7Y0R2P2PVJF0S9YIYHNEMC9S7JX5", "current_trial": 17, "dateTime": 1511233813530, "trialdata": {"rt": -1, "stimulus": "<p id=\"stim\">3</p>", "key_press": -1, "trial_type": "single-stim", "trial_index": 17, "time_elapsed": 534779, "internal_node_id": "0.0-10.0-7.0"}}, {"uniqueid": "MTK0584:3A7Y0R2P2PVJF0S9YIYHNEMC9S7JX5", "current_trial": 18, "dateTime": 1511233814532, "trialdata": {"rt": -1, "stimulus": "<p id=\"stim\">2</p>", "key_press": -1, "trial_type": "single-stim", "trial_index": 18, "time_elapsed": 535781, "internal_node_id": "0.0-10.0-8.0"}}, {"uniqueid": "MTK0584:3A7Y0R2P2PVJF0S9YIYHNEMC9S7JX5", "current_trial": 19, "dateTime": 1511233815534, "trialdata": {"rt": -1, "stimulus": "<p id=\"stim\">1</p>", "key_press": -1, "trial_type": "single-stim", "trial_index": 19, "time_elapsed": 536783, "internal_node_id": "0.0-10.0-9.0"}}, {"uniqueid": "MTK0584:3A7Y0R2P2PVJF0S9YIYHNEMC9S7JX5", "current_trial": 20, "dateTime": 1511233817038, "trialdata": {"rt": -1, "stimulus": "<p id=\"stim\">+</p>", "key_press": -1, "type": "FIXATION", "trial_type": "single-stim", "trial_index": 20, "time_elapsed": 538287, "internal_node_id": "0.0-11.0-0.0"}}, {"uniqueid": "MTK0584:3A7Y0R2P2PVJF0S9YIYHNEMC9S7JX5", "current_trial": 21, "dateTime": 1511233818240, "trialdata": {"rt": -1, "stimulus": "<p id=\"stim\">MATTRESS</p>", "key_press": -1, "type": "PRES_VIS", "word": "mattress", "wordID": 878, "conditions": [18, 1200, "v", 18000], "trial": 0, "serialpos": 0, "trial_type": "single-stim", "trial_index": 21, "time_elapsed": 539489, "internal_node_id": "0.0-12.0"}}, {"uniqueid": "MTK0584:3A7Y0R2P2PVJF0S9YIYHNEMC9S7JX5", "current_trial": 22, "dateTime": 1511233820275, "trialdata": {"rt": -1, "stimulus": "<p id=\"stim\">RIVER</p>", "key_press": -1, "type": "PRES_VIS", "word": "river", "wordID": 1193, "conditions": [18, 1200, "v", 18000], "trial": 0, "serialpos": 1, "trial_type": "single-stim", "trial_index": 22, "time_elapsed": 541524, "internal_node_id": "0.0-13.0"}}, {"uniqueid": "MTK0584:3A7Y0R2P2PVJF0S9YIYHNEMC9S7JX5", "current_trial": 23, "dateTime": 1511233822432, "trialdata": {"rt": -1, "stimulus": "<p id=\"stim\">SCARECROW</p>", "key_press": -1, "type": "PRES_VIS", "word": "scarecrow", "wordID": 1244, "conditions": [18, 1200, "v", 18000], "trial": 0, "serialpos": 2, "trial_type": "single-stim", "trial_index": 23, "time_elapsed": 543680, "internal_node_id": "0.0-14.0"}}, {"uniqueid": "MTK0584:3A7Y0R2P2PVJF0S9YIYHNEMC9S7JX5", "current_trial": 24, "dateTime": 1511233824687, "trialdata": {"rt": -1, "stimulus": "<p id=\"stim\">GARDEN</p>", "key_press": -1, "type": "PRES_VIS", "word": "garden", "wordID": 622, "conditions": [18, 1200, "v", 18000], "trial": 0, "serialpos": 3, "trial_type": "single-stim", "trial_index": 24, "time_elapsed": 545936, "internal_node_id": "0.0-15.0"}}, {"uniqueid": "MTK0584:3A7Y0R2P2PVJF0S9YIYHNEMC9S7JX5", "current_trial": 25, "dateTime": 1511233826793, "trialdata": {"rt": -1, "stimulus": "<p id=\"stim\">LION</p>", "key_press": -1, "type": "PRES_VIS", "word": "lion", "wordID": 826, "conditions": [18, 1200, "v", 18000], "trial": 0, "serialpos": 4, "trial_type": "single-stim", "trial_index": 25, "time_elapsed": 548042, "internal_node_id": "0.0-16.0"}}, {"uniqueid": "MTK0584:3A7Y0R2P2PVJF0S9YIYHNEMC9S7JX5", "current_trial": 26, "dateTime": 1511233828827, "trialdata": {"rt": -1, "stimulus": "<p id=\"stim\">JUDGE</p>", "key_press": -1, "type": "PRES_VIS", "word": "judge", "wordID": 760, "conditions": [18, 1200, "v", 18000], "trial": 0, "serialpos": 5, "trial_type": "single-stim", "trial_index": 26, "time_elapsed": 550076, "internal_node_id": "0.0-17.0"}}, {"uniqueid": "MTK0584:3A7Y0R2P2PVJF0S9YIYHNEMC9S7JX5", "current_trial": 27, "dateTime": 1511233831184, "trialdata": {"rt": -1, "stimulus": "<p id=\"stim\">JELLO</p>", "key_press": -1, "type": "PRES_VIS", "word": "jello", "wordID": 753, "conditions": [18, 1200, "v", 18000], "trial": 0, "serialpos": 6, "trial_type": "single-stim", "trial_index": 27, "time_elapsed": 552433, "internal_node_id": "0.0-18.0"}}, {"uniqueid": "MTK0584:3A7Y0R2P2PVJF0S9YIYHNEMC9S7JX5", "current_trial": 28, "dateTime": 1511233833232, "trialdata": {"rt": -1, "stimulus": "<p id=\"stim\">PECAN</p>", "key_press": -1, "type": "PRES_VIS", "word": "pecan", "wordID": 1035, "conditions": [18, 1200, "v", 18000], "trial": 0, "serialpos": 7, "trial_type": "single-stim", "trial_index": 28, "time_elapsed": 554481, "internal_node_id": "0.0-19.0"}}, {"uniqueid": "MTK0584:3A7Y0R2P2PVJF0S9YIYHNEMC9S7JX5", "current_trial": 29, "dateTime": 1511233835461, "trialdata": {"rt": -1, "stimulus": "<p id=\"stim\">FLEET</p>", "key_press": -1, "type": "PRES_VIS", "word": "fleet", "wordID": 577, "conditions": [18, 1200, "v", 18000], "trial": 0, "serialpos": 8, "trial_type": "single-stim", "trial_index": 29, "time_elapsed": 556709, "internal_node_id": "0.0-20.0"}}, {"uniqueid": "MTK0584:3A7Y0R2P2PVJF0S9YIYHNEMC9S7JX5", "current_trial": 30, "dateTime": 1511233837598, "trialdata": {"rt": -1, "stimulus": "<p id=\"stim\">DONOR</p>", "key_press": -1, "type": "PRES_VIS", "word": "donor", "wordID": 484, "conditions": [18, 1200, "v", 18000], "trial": 0, "serialpos": 9, "trial_type": "single-stim", "trial_index": 30, "time_elapsed": 558847, "internal_node_id": "0.0-21.0"}}, {"uniqueid": "MTK0584:3A7Y0R2P2PVJF0S9YIYHNEMC9S7JX5", "current_trial": 31, "dateTime": 1511233839903, "trialdata": {"rt": -1, "stimulus": "<p id=\"stim\">CLIMBER</p>", "key_press": -1, "type": "PRES_VIS", "word": "climber", "wordID": 322, "conditions": [18, 1200, "v", 18000], "trial": 0, "serialpos": 10, "trial_type": "single-stim", "trial_index": 31, "time_elapsed": 561152, "internal_node_id": "0.0-22.0"}}, {"uniqueid": "MTK0584:3A7Y0R2P2PVJF0S9YIYHNEMC9S7JX5", "current_trial": 32, "dateTime": 1511233842259, "trialdata": {"rt": -1, "stimulus": "<p id=\"stim\">EAGLE</p>", "key_press": -1, "type": "PRES_VIS", "word": "eagle", "wordID": 511, "conditions": [18, 1200, "v", 18000], "trial": 0, "serialpos": 11, "trial_type": "single-stim", "trial_index": 32, "time_elapsed": 563508, "internal_node_id": "0.0-23.0"}}, {"uniqueid": "MTK0584:3A7Y0R2P2PVJF0S9YIYHNEMC9S7JX5", "current_trial": 33, "dateTime": 1511233844629, "trialdata": {"rt": -1, "stimulus": "<p id=\"stim\">ORANGE</p>", "key_press": -1, "type": "PRES_VIS", "word": "orange", "wordID": 979, "conditions": [18, 1200, "v", 18000], "trial": 0, "serialpos": 12, "trial_type": "single-stim", "trial_index": 33, "time_elapsed": 565877, "internal_node_id": "0.0-24.0"}}, {"uniqueid": "MTK0584:3A7Y0R2P2PVJF0S9YIYHNEMC9S7JX5", "current_trial": 34, "dateTime": 1511233846964, "trialdata": {"rt": -1, "stimulus": "<p id=\"stim\">COMPASS</p>", "key_press": -1, "type": "PRES_VIS", "word": "compass", "wordID": 357, "conditions": [18, 1200, "v", 18000], "trial": 0, "serialpos": 13, "trial_type": "single-stim", "trial_index": 34, "time_elapsed": 568213, "internal_node_id": "0.0-25.0"}}, {"uniqueid": "MTK0584:3A7Y0R2P2PVJF0S9YIYHNEMC9S7JX5", "current_trial": 35, "dateTime": 1511233849240, "trialdata": {"rt": -1, "stimulus": "<p id=\"stim\">VIRUS</p>", "key_press": -1, "type": "PRES_VIS", "word": "virus", "wordID": 1571, "conditions": [18, 1200, "v", 18000], "trial": 0, "serialpos": 14, "trial_type": "single-stim", "trial_index": 35, "time_elapsed": 570489, "internal_node_id": "0.0-26.0"}}, {"uniqueid": "MTK0584:3A7Y0R2P2PVJF0S9YIYHNEMC9S7JX5", "current_trial": 36, "dateTime": 1511233851261, "trialdata": {"rt": -1, "stimulus": "<p id=\"stim\">FLASHLIGHT</p>", "key_press": -1, "type": "PRES_VIS", "word": "flashlight", "wordID": 574, "conditions": [18, 1200, "v", 18000], "trial": 0, "serialpos": 15, "trial_type": "single-stim", "trial_index": 36, "time_elapsed": 572510, "internal_node_id": "0.0-27.0"}}, {"uniqueid": "MTK0584:3A7Y0R2P2PVJF0S9YIYHNEMC9S7JX5", "current_trial": 37, "dateTime": 1511233853370, "trialdata": {"rt": -1, "stimulus": "<p id=\"stim\">MAILBOX</p>", "key_press": -1, "type": "PRES_VIS", "word": "mailbox", "wordID": 856, "conditions": [18, 1200, "v", 18000], "trial": 0, "serialpos": 16, "trial_type": "single-stim", "trial_index": 37, "time_elapsed": 574619, "internal_node_id": "0.0-28.0"}}, {"uniqueid": "MTK0584:3A7Y0R2P2PVJF0S9YIYHNEMC9S7JX5", "current_trial": 38, "dateTime": 1511233855603, "trialdata": {"rt": -1, "stimulus": "<p id=\"stim\">STALLION</p>", "key_press": -1, "type": "PRES_VIS", "word": "stallion", "wordID": 1368, "conditions": [18, 1200, "v", 18000], "trial": 0, "serialpos": 17, "trial_type": "single-stim", "trial_index": 38, "time_elapsed": 576847, "internal_node_id": "0.0-29.0"}}, {"uniqueid": "MTK0584:3A7Y0R2P2PVJF0S9YIYHNEMC9S7JX5", "current_trial": 39, "dateTime": 1511233857868, "trialdata": {"rt": -1, "stimulus": "", "key_press": -1, "type": "PRE_RECALL_DELAY", "trial_type": "single-stim", "trial_index": 39, "time_elapsed": 579117, "internal_node_id": "0.0-30.0-0.0"}}, {"uniqueid": "MTK0584:3A7Y0R2P2PVJF0S9YIYHNEMC9S7JX5", "current_trial": 40, "dateTime": 1511233858370, "trialdata": {"rt": -1000, "stimulus": "/static/audio/400Hz.wav", "key_press": -1, "type": "PRE_RECALL_ALERT", "trial_type": "single-audio", "trial_index": 40, "time_elapsed": 579619, "internal_node_id": "0.0-31.0"}}, {"uniqueid": "MTK0584:3A7Y0R2P2PVJF0S9YIYHNEMC9S7JX5", "current_trial": 41, "dateTime": 1511233918397, "trialdata": {"rt": [3356, 7926, 9743, 12310, 14534, 16214, 19870, 22902, 26486, 28070, 30126, 32351, 44782], "recwords": ["flashlight'", "mailbox", "stallion", "scarecrow", "judge", "jello", "river", "scarecrow", "mattress", "climber", "donor", "orange", "river"], "type": "FREE_RECALL", "conditions": [18, 1200, "v", 18000], "trial": 0, "trial_type": "free-recall", "trial_index": 41, "time_elapsed": 639626, "internal_node_id": "0.0-32.0-0.0"}}, {"uniqueid": "MTK0584:3A7Y0R2P2PVJF0S9YIYHNEMC9S7JX5", "current_trial": 42, "dateTime": 1511233921879, "trialdata": {"rt": 1479, "key_press": 32, "type": "INSTRUCTIONS", "trial_type": "text", "trial_index": 42, "time_elapsed": 643127, "internal_node_id": "0.0-33.0"}}, {"uniqueid": "MTK0584:3A7Y0R2P2PVJF0S9YIYHNEMC9S7JX5", "current_trial": 43, "dateTime": 1511233941886, "trialdata": {"rt": [7121, 10049, 11688, 13720, 17688], "responses": ["21", "21", "6", "18", "25"], "num1": [7, 9, 4, 7, 9, 7], "num2": [9, 7, 1, 2, 7, 7], "num3": [5, 5, 1, 9, 9, 4], "type": "DISTRACTOR", "conditions": [18, 1200, "a", 18000], "trial": 1, "trial_type": "math-distractor", "trial_index": 43, "time_elapsed": 663135, "internal_node_id": "0.0-34.0"}}, {"uniqueid": "MTK0584:3A7Y0R2P2PVJF0S9YIYHNEMC9S7JX5", "current_trial": 44, "dateTime": 1511233944888, "trialdata": {"rt": -1, "stimulus": "<p id=\"stim\">10</p>", "key_press": -1, "trial_type": "single-stim", "trial_index": 44, "time_elapsed": 666137, "internal_node_id": "0.0-35.0-0.0"}}, {"uniqueid": "MTK0584:3A7Y0R2P2PVJF0S9YIYHNEMC9S7JX5", "current_trial": 45, "dateTime": 1511233945893, "trialdata": {"rt": -1, "stimulus": "<p id=\"stim\">9</p>", "key_press": -1, "trial_type": "single-stim", "trial_index": 45, "time_elapsed": 667142, "internal_node_id": "0.0-35.0-1.0"}}, {"uniqueid": "MTK0584:3A7Y0R2P2PVJF0S9YIYHNEMC9S7JX5", "current_trial": 46, "dateTime": 1511233946896, "trialdata": {"rt": -1, "stimulus": "<p id=\"stim\">8</p>", "key_press": -1, "trial_type": "single-stim", "trial_index": 46, "time_elapsed": 668144, "internal_node_id": "0.0-35.0-2.0"}}, {"uniqueid": "MTK0584:3A7Y0R2P2PVJF0S9YIYHNEMC9S7JX5", "current_trial": 47, "dateTime": 1511233947905, "trialdata": {"rt": -1, "stimulus": "<p id=\"stim\">7</p>", "key_press": -1, "trial_type": "single-stim", "trial_index": 47, "time_elapsed": 669153, "internal_node_id": "0.0-35.0-3.0"}}, {"uniqueid": "MTK0584:3A7Y0R2P2PVJF0S9YIYHNEMC9S7JX5", "current_trial": 48, "dateTime": 1511233948908, "trialdata": {"rt": -1, "stimulus": "<p id=\"stim\">6</p>", "key_press": -1, "trial_type": "single-stim", "trial_index": 48, "time_elapsed": 670155, "internal_node_id": "0.0-35.0-4.0"}}, {"uniqueid": "MTK0584:3A7Y0R2P2PVJF0S9YIYHNEMC9S7JX5", "current_trial": 49, "dateTime": 1511233949911, "trialdata": {"rt": -1, "stimulus": "<p id=\"stim\">5</p>", "key_press": -1, "trial_type": "single-stim", "trial_index": 49, "time_elapsed": 671159, "internal_node_id": "0.0-35.0-5.0"}}, {"uniqueid": "MTK0584:3A7Y0R2P2PVJF0S9YIYHNEMC9S7JX5", "current_trial": 50, "dateTime": 1511233950913, "trialdata": {"rt": -1, "stimulus": "<p id=\"stim\">4</p>", "key_press": -1, "trial_type": "single-stim", "trial_index": 50, "time_elapsed": 672162, "internal_node_id": "0.0-35.0-6.0"}}, {"uniqueid": "MTK0584:3A7Y0R2P2PVJF0S9YIYHNEMC9S7JX5", "current_trial": 51, "dateTime": 1511233951915, "trialdata": {"rt": -1, "stimulus": "<p id=\"stim\">3</p>", "key_press": -1, "trial_type": "single-stim", "trial_index": 51, "time_elapsed": 673164, "internal_node_id": "0.0-35.0-7.0"}}, {"uniqueid": "MTK0584:3A7Y0R2P2PVJF0S9YIYHNEMC9S7JX5", "current_trial": 52, "dateTime": 1511233952917, "trialdata": {"rt": -1, "stimulus": "<p id=\"stim\">2</p>", "key_press": -1, "trial_type": "single-stim", "trial_index": 52, "time_elapsed": 674165, "internal_node_id": "0.0-35.0-8.0"}}, {"uniqueid": "MTK0584:3A7Y0R2P2PVJF0S9YIYHNEMC9S7JX5", "current_trial": 53, "dateTime": 1511233953919, "trialdata": {"rt": -1, "stimulus": "<p id=\"stim\">1</p>", "key_press": -1, "trial_type": "single-stim", "trial_index": 53, "time_elapsed": 675168, "internal_node_id": "0.0-35.0-9.0"}}, {"uniqueid": "MTK0584:3A7Y0R2P2PVJF0S9YIYHNEMC9S7JX5", "current_trial": 54, "dateTime": 1511233955421, "trialdata": {"rt": -1, "stimulus": "<p id=\"stim\">+</p>", "key_press": -1, "type": "FIXATION", "trial_type": "single-stim", "trial_index": 54, "time_elapsed": 676669, "internal_node_id": "0.0-36.0-0.0"}}, {"uniqueid": "MTK0584:3A7Y0R2P2PVJF0S9YIYHNEMC9S7JX5", "current_trial": 55, "dateTime": 1511233957527, "trialdata": {"rt": -1000, "stimulus": "/static/audio/wordpool/LADY.wav", "key_press": -1, "type": "PRES_AUD", "word": "lady", "wordID": 793, "conditions": [18, 1200, "a", 18000], "trial": 1, "serialpos": 0, "trial_type": "single-audio", "trial_index": 55, "time_elapsed": 678776, "internal_node_id": "0.0-37.0"}}, {"uniqueid": "MTK0584:3A7Y0R2P2PVJF0S9YIYHNEMC9S7JX5", "current_trial": 56, "dateTime": 1511233959580, "trialdata": {"rt": -1000, "stimulus": "/static/audio/wordpool/TROUT.wav", "key_press": -1, "type": "PRES_AUD", "word": "trout", "wordID": 1510, "conditions": [18, 1200, "a", 18000], "trial": 1, "serialpos": 1, "trial_type": "single-audio", "trial_index": 56, "time_elapsed": 680829, "internal_node_id": "0.0-38.0"}}, {"uniqueid": "MTK0584:3A7Y0R2P2PVJF0S9YIYHNEMC9S7JX5", "current_trial": 57, "dateTime": 1511233961874, "trialdata": {"rt": -1000, "stimulus": "/static/audio/wordpool/AGENT.wav", "key_press": -1, "type": "PRES_AUD", "word": "agent", "wordID": 9, "conditions": [18, 1200, "a", 18000], "trial": 1, "serialpos": 2, "trial_type": "single-audio", "trial_index": 57, "time_elapsed": 683123, "internal_node_id": "0.0-39.0"}}, {"uniqueid": "MTK0584:3A7Y0R2P2PVJF0S9YIYHNEMC9S7JX5", "current_trial": 58, "dateTime": 1511233963905, "trialdata": {"rt": -1000, "stimulus": "/static/audio/wordpool/BRICK.wav", "key_press": -1, "type": "PRES_AUD", "word": "brick", "wordID": 171, "conditions": [18, 1200, "a", 18000], "trial": 1, "serialpos": 3, "trial_type": "single-audio", "trial_index": 58, "time_elapsed": 685154, "internal_node_id": "0.0-40.0"}}, {"uniqueid": "MTK0584:3A7Y0R2P2PVJF0S9YIYHNEMC9S7JX5", "current_trial": 59, "dateTime": 1511233965977, "trialdata": {"rt": -1000, "stimulus": "/static/audio/wordpool/CANAL.wav", "key_press": -1, "type": "PRES_AUD", "word": "canal", "wordID": 225, "conditions": [18, 1200, "a", 18000], "trial": 1, "serialpos": 4, "trial_type": "single-audio", "trial_index": 59, "time_elapsed": 687226, "internal_node_id": "0.0-41.0"}}, {"uniqueid": "MTK0584:3A7Y0R2P2PVJF0S9YIYHNEMC9S7JX5", "current_trial": 60, "dateTime": 1511233968234, "trialdata": {"rt": -1000, "stimulus": "/static/audio/wordpool/YARN.wav", "key_press": -1, "type": "PRES_AUD", "word": "yarn", "wordID": 1630, "conditions": [18, 1200, "a", 18000], "trial": 1, "serialpos": 5, "trial_type": "single-audio", "trial_index": 60, "time_elapsed": 689482, "internal_node_id": "0.0-42.0"}}, {"uniqueid": "MTK0584:3A7Y0R2P2PVJF0S9YIYHNEMC9S7JX5", "current_trial": 61, "dateTime": 1511233970629, "trialdata": {"rt": -1000, "stimulus": "/static/audio/wordpool/ASIA.wav", "key_press": -1, "type": "PRES_AUD", "word": "asia", "wordID": 45, "conditions": [18, 1200, "a", 18000], "trial": 1, "serialpos": 6, "trial_type": "single-audio", "trial_index": 61, "time_elapsed": 691878, "internal_node_id": "0.0-43.0"}}, {"uniqueid": "MTK0584:3A7Y0R2P2PVJF0S9YIYHNEMC9S7JX5", "current_trial": 62, "dateTime": 1511233972982, "trialdata": {"rt": -1000, "stimulus": "/static/audio/wordpool/BISON.wav", "key_press": -1, "type": "PRES_AUD", "word": "bison", "wordID": 130, "conditions": [18, 1200, "a", 18000], "trial": 1, "serialpos": 7, "trial_type": "single-audio", "trial_index": 62, "time_elapsed": 694230, "internal_node_id": "0.0-44.0"}}, {"uniqueid": "MTK0584:3A7Y0R2P2PVJF0S9YIYHNEMC9S7JX5", "current_trial": 63, "dateTime": 1511233975320, "trialdata": {"rt": -1000, "stimulus": "/static/audio/wordpool/PORK.wav", "key_press": -1, "type": "PRES_AUD", "word": "pork", "wordID": 1107, "conditions": [18, 1200, "a", 18000], "trial": 1, "serialpos": 8, "trial_type": "single-audio", "trial_index": 63, "time_elapsed": 696569, "internal_node_id": "0.0-45.0"}}, {"uniqueid": "MTK0584:3A7Y0R2P2PVJF0S9YIYHNEMC9S7JX5", "current_trial": 64, "dateTime": 1511233977369, "trialdata": {"rt": -1000, "stimulus": "/static/audio/wordpool/LEG.wav", "key_press": -1, "type": "PRES_AUD", "word": "leg", "wordID": 808, "conditions": [18, 1200, "a", 18000], "trial": 1, "serialpos": 9, "trial_type": "single-audio", "trial_index": 64, "time_elapsed": 698618, "internal_node_id": "0.0-46.0"}}, {"uniqueid": "MTK0584:3A7Y0R2P2PVJF0S9YIYHNEMC9S7JX5", "current_trial": 65, "dateTime": 1511233979690, "trialdata": {"rt": -1000, "stimulus": "/static/audio/wordpool/LAMP.wav", "key_press": -1, "type": "PRES_AUD", "word": "lamp", "wordID": 797, "conditions": [18, 1200, "a", 18000], "trial": 1, "serialpos": 10, "trial_type": "single-audio", "trial_index": 65, "time_elapsed": 700939, "internal_node_id": "0.0-47.0"}}, {"uniqueid": "MTK0584:3A7Y0R2P2PVJF0S9YIYHNEMC9S7JX5", "current_trial": 66, "dateTime": 1511233981700, "trialdata": {"rt": -1000, "stimulus": "/static/audio/wordpool/PADDING.wav", "key_press": -1, "type": "PRES_AUD", "word": "padding", "wordID": 998, "conditions": [18, 1200, "a", 18000], "trial": 1, "serialpos": 11, "trial_type": "single-audio", "trial_index": 66, "time_elapsed": 702949, "internal_node_id": "0.0-48.0"}}, {"uniqueid": "MTK0584:3A7Y0R2P2PVJF0S9YIYHNEMC9S7JX5", "current_trial": 67, "dateTime": 1511233984114, "trialdata": {"rt": -1000, "stimulus": "/static/audio/wordpool/PLIERS.wav", "key_press": -1, "type": "PRES_AUD", "word": "pliers", "wordID": 1088, "conditions": [18, 1200, "a", 18000], "trial": 1, "serialpos": 12, "trial_type": "single-audio", "trial_index": 67, "time_elapsed": 705362, "internal_node_id": "0.0-49.0"}}, {"uniqueid": "MTK0584:3A7Y0R2P2PVJF0S9YIYHNEMC9S7JX5", "current_trial": 68, "dateTime": 1511233986316, "trialdata": {"rt": -1000, "stimulus": "/static/audio/wordpool/HARP.wav", "key_press": -1, "type": "PRES_AUD", "word": "harp", "wordID": 688, "conditions": [18, 1200, "a", 18000], "trial": 1, "serialpos": 13, "trial_type": "single-audio", "trial_index": 68, "time_elapsed": 707525, "internal_node_id": "0.0-50.0"}}, {"uniqueid": "MTK0584:3A7Y0R2P2PVJF0S9YIYHNEMC9S7JX5", "current_trial": 69, "dateTime": 1511233988634, "trialdata": {"rt": -1000, "stimulus": "/static/audio/wordpool/FIDDLE.wav", "key_press": -1, "type": "PRES_AUD", "word": "fiddle", "wordID": 560, "conditions": [18, 1200, "a", 18000], "trial": 1, "serialpos": 14, "trial_type": "single-audio", "trial_index": 69, "time_elapsed": 709882, "internal_node_id": "0.0-51.0"}}, {"uniqueid": "MTK0584:3A7Y0R2P2PVJF0S9YIYHNEMC9S7JX5", "current_trial": 70, "dateTime": 1511233990867, "trialdata": {"rt": -1000, "stimulus": "/static/audio/wordpool/INMATE.wav", "key_press": -1, "type": "PRES_AUD", "word": "inmate", "wordID": 737, "conditions": [18, 1200, "a", 18000], "trial": 1, "serialpos": 15, "trial_type": "single-audio", "trial_index": 70, "time_elapsed": 712116, "internal_node_id": "0.0-52.0"}}, {"uniqueid": "MTK0584:3A7Y0R2P2PVJF0S9YIYHNEMC9S7JX5", "current_trial": 71, "dateTime": 1511233993164, "trialdata": {"rt": -1000, "stimulus": "/static/audio/wordpool/REBEL.wav", "key_press": -1, "type": "PRES_AUD", "word": "rebel", "wordID": 1171, "conditions": [18, 1200, "a", 18000], "trial": 1, "serialpos": 16, "trial_type": "single-audio", "trial_index": 71, "time_elapsed": 714413, "internal_node_id": "0.0-53.0"}}, {"uniqueid": "MTK0584:3A7Y0R2P2PVJF0S9YIYHNEMC9S7JX5", "current_trial": 72, "dateTime": 1511233995171, "trialdata": {"rt": -1000, "stimulus": "/static/audio/wordpool/WINDOW.wav", "key_press": -1, "type": "PRES_AUD", "word": "window", "wordID": 1610, "conditions": [18, 1200, "a", 18000], "trial": 1, "serialpos": 17, "trial_type": "single-audio", "trial_index": 72, "time_elapsed": 716420, "internal_node_id": "0.0-54.0"}}, {"uniqueid": "MTK0584:3A7Y0R2P2PVJF0S9YIYHNEMC9S7JX5", "current_trial": 73, "dateTime": 1511233996426, "trialdata": {"rt": -1, "stimulus": "", "key_press": -1, "type": "PRE_RECALL_DELAY", "trial_type": "single-stim", "trial_index": 73, "time_elapsed": 717675, "internal_node_id": "0.0-55.0-0.0"}}, {"uniqueid": "MTK0584:3A7Y0R2P2PVJF0S9YIYHNEMC9S7JX5", "current_trial": 74, "dateTime": 1511233996928, "trialdata": {"rt": -1000, "stimulus": "/static/audio/400Hz.wav", "key_press": -1, "type": "PRE_RECALL_ALERT", "trial_type": "single-audio", "trial_index": 74, "time_elapsed": 718177, "internal_node_id": "0.0-56.0"}}, {"uniqueid": "MTK0584:3A7Y0R2P2PVJF0S9YIYHNEMC9S7JX5", "current_trial": 75, "dateTime": 1511234056945, "trialdata": {"rt": [5914, 7110, 8586, 9971, 11170, 12451, 15066, 21051, 24163, 28947, 32306], "recwords": ["window", "lady'", "lion", "harp", "fiddle", "window", "trout", "lion", "bison", "fiddle", "leg"], "type": "FREE_RECALL", "conditions": [18, 1200, "a", 18000], "trial": 1, "trial_type": "free-recall", "trial_index": 75, "time_elapsed": 778182, "internal_node_id": "0.0-57.0-0.0"}}, {"uniqueid": "MTK0584:3A7Y0R2P2PVJF0S9YIYHNEMC9S7JX5", "current_trial": 76, "dateTime": 1511234061708, "trialdata": {"rt": 2747, "key_press": 32, "type": "INSTRUCTIONS", "trial_type": "text", "trial_index": 76, "time_elapsed": 782943, "internal_node_id": "0.0-58.0"}}, {"uniqueid": "MTK0584:3A7Y0R2P2PVJF0S9YIYHNEMC9S7JX5", "current_trial": 77, "dateTime": 1511234086715, "trialdata": {"rt": [4307, 8883, 11219, 14547, 18340, 20645, 22540], "responses": ["16", "13", "17", "18", "17", "17", "17"], "num1": [9, 4, 7, 8, 4, 7, 1, 3], "num2": [5, 4, 5, 5, 8, 1, 9, 4], "num3": [2, 5, 5, 5, 5, 9, 7, 7], "type": "DISTRACTOR", "conditions": [12, 800, "a", 24000], "trial": 2, "trial_type": "math-distractor", "trial_index": 77, "time_elapsed": 807964, "internal_node_id": "0.0-59.0"}}, {"uniqueid": "MTK0584:3A7Y0R2P2PVJF0S9YIYHNEMC9S7JX5", "current_trial": 78, "dateTime": 1511234089717, "trialdata": {"rt": -1, "stimulus": "<p id=\"stim\">10</p>", "key_press": -1, "trial_type": "single-stim", "trial_index": 78, "time_elapsed": 810966, "internal_node_id": "0.0-60.0-0.0"}}, {"uniqueid": "MTK0584:3A7Y0R2P2PVJF0S9YIYHNEMC9S7JX5", "current_trial": 79, "dateTime": 1511234090719, "trialdata": {"rt": -1, "stimulus": "<p id=\"stim\">9</p>", "key_press": -1, "trial_type": "single-stim", "trial_index": 79, "time_elapsed": 811968, "internal_node_id": "0.0-60.0-1.0"}}, {"uniqueid": "MTK0584:3A7Y0R2P2PVJF0S9YIYHNEMC9S7JX5", "current_trial": 80, "dateTime": 1511234091721, "trialdata": {"rt": -1, "stimulus": "<p id=\"stim\">8</p>", "key_press": -1, "trial_type": "single-stim", "trial_index": 80, "time_elapsed": 812970, "internal_node_id": "0.0-60.0-2.0"}}, {"uniqueid": "MTK0584:3A7Y0R2P2PVJF0S9YIYHNEMC9S7JX5", "current_trial": 81, "dateTime": 1511234092722, "trialdata": {"rt": -1, "stimulus": "<p id=\"stim\">7</p>", "key_press": -1, "trial_type": "single-stim", "trial_index": 81, "time_elapsed": 813971, "internal_node_id": "0.0-60.0-3.0"}}, {"uniqueid": "MTK0584:3A7Y0R2P2PVJF0S9YIYHNEMC9S7JX5", "current_trial": 82, "dateTime": 1511234093726, "trialdata": {"rt": -1, "stimulus": "<p id=\"stim\">6</p>", "key_press": -1, "trial_type": "single-stim", "trial_index": 82, "time_elapsed": 814975, "internal_node_id": "0.0-60.0-4.0"}}, {"uniqueid": "MTK0584:3A7Y0R2P2PVJF0S9YIYHNEMC9S7JX5", "current_trial": 83, "dateTime": 1511234094728, "trialdata": {"rt": -1, "stimulus": "<p id=\"stim\">5</p>", "key_press": -1, "trial_type": "single-stim", "trial_index": 83, "time_elapsed": 815977, "internal_node_id": "0.0-60.0-5.0"}}, {"uniqueid": "MTK0584:3A7Y0R2P2PVJF0S9YIYHNEMC9S7JX5", "current_trial": 84, "dateTime": 1511234095731, "trialdata": {"rt": -1, "stimulus": "<p id=\"stim\">4</p>", "key_press": -1, "trial_type": "single-stim", "trial_index": 84, "time_elapsed": 816979, "internal_node_id": "0.0-60.0-6.0"}}, {"uniqueid": "MTK0584:3A7Y0R2P2PVJF0S9YIYHNEMC9S7JX5", "current_trial": 85, "dateTime": 1511234096733, "trialdata": {"rt": -1, "stimulus": "<p id=\"stim\">3</p>", "key_press": -1, "trial_type": "single-stim", "trial_index": 85, "time_elapsed": 817982, "internal_node_id": "0.0-60.0-7.0"}}, {"uniqueid": "MTK0584:3A7Y0R2P2PVJF0S9YIYHNEMC9S7JX5", "current_trial": 86, "dateTime": 1511234097735, "trialdata": {"rt": -1, "stimulus": "<p id=\"stim\">2</p>", "key_press": -1, "trial_type": "single-stim", "trial_index": 86, "time_elapsed": 818984, "internal_node_id": "0.0-60.0-8.0"}}, {"uniqueid": "MTK0584:3A7Y0R2P2PVJF0S9YIYHNEMC9S7JX5", "current_trial": 87, "dateTime": 1511234098740, "trialdata": {"rt": -1, "stimulus": "<p id=\"stim\">1</p>", "key_press": -1, "trial_type": "single-stim", "trial_index": 87, "time_elapsed": 819988, "internal_node_id": "0.0-60.0-9.0"}}, {"uniqueid": "MTK0584:3A7Y0R2P2PVJF0S9YIYHNEMC9S7JX5", "current_trial": 88, "dateTime": 1511234100241, "trialdata": {"rt": -1, "stimulus": "<p id=\"stim\">+</p>", "key_press": -1, "type": "FIXATION", "trial_type": "single-stim", "trial_index": 88, "time_elapsed": 821490, "internal_node_id": "0.0-61.0-0.0"}}, {"uniqueid": "MTK0584:3A7Y0R2P2PVJF0S9YIYHNEMC9S7JX5", "current_trial": 89, "dateTime": 1511234102089, "trialdata": {"rt": -1000, "stimulus": "/static/audio/wordpool/SALMON.wav", "key_press": -1, "type": "PRES_AUD", "word": "salmon", "wordID": 1226, "conditions": [12, 800, "a", 24000], "trial": 2, "serialpos": 0, "trial_type": "single-audio", "trial_index": 89, "time_elapsed": 823338, "internal_node_id": "0.0-62.0"}}, {"uniqueid": "MTK0584:3A7Y0R2P2PVJF0S9YIYHNEMC9S7JX5", "current_trial": 90, "dateTime": 1511234103845, "trialdata": {"rt": -1000, "stimulus": "/static/audio/wordpool/ROCKET.wav", "key_press": -1, "type": "PRES_AUD", "word": "rocket", "wordID": 1201, "conditions": [12, 800, "a", 24000], "trial": 2, "serialpos": 1, "trial_type": "single-audio", "trial_index": 90, "time_elapsed": 825093, "internal_node_id": "0.0-63.0"}}, {"uniqueid": "MTK0584:3A7Y0R2P2PVJF0S9YIYHNEMC9S7JX5", "current_trial": 91, "dateTime": 1511234105482, "trialdata": {"rt": -1000, "stimulus": "/static/audio/wordpool/FRANCE.wav", "key_press": -1, "type": "PRES_AUD", "word": "france", "wordID": 600, "conditions": [12, 800, "a", 24000], "trial": 2, "serialpos": 2, "trial_type": "single-audio", "trial_index": 91, "time_elapsed": 826731, "internal_node_id": "0.0-64.0"}}, {"uniqueid": "MTK0584:3A7Y0R2P2PVJF0S9YIYHNEMC9S7JX5", "current_trial": 92, "dateTime": 1511234107315, "trialdata": {"rt": -1000, "stimulus": "/static/audio/wordpool/WAGON.wav", "key_press": -1, "type": "PRES_AUD", "word": "wagon", "wordID": 1577, "conditions": [12, 800, "a", 24000], "trial": 2, "serialpos": 3, "trial_type": "single-audio", "trial_index": 92, "time_elapsed": 828563, "internal_node_id": "0.0-65.0"}}, {"uniqueid": "MTK0584:3A7Y0R2P2PVJF0S9YIYHNEMC9S7JX5", "current_trial": 93, "dateTime": 1511234109000, "trialdata": {"rt": -1000, "stimulus": "/static/audio/wordpool/TRACTOR.wav", "key_press": -1, "type": "PRES_AUD", "word": "tractor", "wordID": 1492, "conditions": [12, 800, "a", 24000], "trial": 2, "serialpos": 4, "trial_type": "single-audio", "trial_index": 93, "time_elapsed": 830249, "internal_node_id": "0.0-66.0"}}, {"uniqueid": "MTK0584:3A7Y0R2P2PVJF0S9YIYHNEMC9S7JX5", "current_trial": 94, "dateTime": 1511234110826, "trialdata": {"rt": -1000, "stimulus": "/static/audio/wordpool/CANDY.wav", "key_press": -1, "type": "PRES_AUD", "word": "candy", "wordID": 229, "conditions": [12, 800, "a", 24000], "trial": 2, "serialpos": 5, "trial_type": "single-audio", "trial_index": 94, "time_elapsed": 832074, "internal_node_id": "0.0-67.0"}}, {"uniqueid": "MTK0584:3A7Y0R2P2PVJF0S9YIYHNEMC9S7JX5", "current_trial": 95, "dateTime": 1511234112747, "trialdata": {"rt": -1000, "stimulus": "/static/audio/wordpool/TART.wav", "key_press": -1, "type": "PRES_AUD", "word": "tart", "wordID": 1435, "conditions": [12, 800, "a", 24000], "trial": 2, "serialpos": 6, "trial_type": "single-audio", "trial_index": 95, "time_elapsed": 833995, "internal_node_id": "0.0-68.0"}}, {"uniqueid": "MTK0584:3A7Y0R2P2PVJF0S9YIYHNEMC9S7JX5", "current_trial": 96, "dateTime": 1511234114621, "trialdata": {"rt": -1000, "stimulus": "/static/audio/wordpool/MARS.wav", "key_press": -1, "type": "PRES_AUD", "word": "mars", "wordID": 872, "conditions": [12, 800, "a", 24000], "trial": 2, "serialpos": 7, "trial_type": "single-audio", "trial_index": 96, "time_elapsed": 835869, "internal_node_id": "0.0-69.0"}}, {"uniqueid": "MTK0584:3A7Y0R2P2PVJF0S9YIYHNEMC9S7JX5", "current_trial": 97, "dateTime": 1511234116491, "trialdata": {"rt": -1000, "stimulus": "/static/audio/wordpool/CHEST.wav", "key_press": -1, "type": "PRES_AUD", "word": "chest", "wordID": 294, "conditions": [12, 800, "a", 24000], "trial": 2, "serialpos": 8, "trial_type": "single-audio", "trial_index": 97, "time_elapsed": 837740, "internal_node_id": "0.0-70.0"}}, {"uniqueid": "MTK0584:3A7Y0R2P2PVJF0S9YIYHNEMC9S7JX5", "current_trial": 98, "dateTime": 1511234118259, "trialdata": {"rt": -1000, "stimulus": "/static/audio/wordpool/MISSILE.wav", "key_press": -1, "type": "PRES_AUD", "word": "missile", "wordID": 899, "conditions": [12, 800, "a", 24000], "trial": 2, "serialpos": 9, "trial_type": "single-audio", "trial_index": 98, "time_elapsed": 839507, "internal_node_id": "0.0-71.0"}}, {"uniqueid": "MTK0584:3A7Y0R2P2PVJF0S9YIYHNEMC9S7JX5", "current_trial": 99, "dateTime": 1511234120139, "trialdata": {"rt": -1000, "stimulus": "/static/audio/wordpool/RATTLE.wav", "key_press": -1, "type": "PRES_AUD", "word": "rattle", "wordID": 1169, "conditions": [12, 800, "a", 24000], "trial": 2, "serialpos": 10, "trial_type": "single-audio", "trial_index": 99, "time_elapsed": 841387, "internal_node_id": "0.0-72.0"}}, {"uniqueid": "MTK0584:3A7Y0R2P2PVJF0S9YIYHNEMC9S7JX5", "current_trial": 100, "dateTime": 1511234121971, "trialdata": {"rt": -1000, "stimulus": "/static/audio/wordpool/CLOTHES.wav", "key_press": -1, "type": "PRES_AUD", "word": "clothes", "wordID": 326, "conditions": [12, 800, "a", 24000], "trial": 2, "serialpos": 11, "trial_type": "single-audio", "trial_index": 100, "time_elapsed": 843220, "internal_node_id": "0.0-73.0"}}, {"uniqueid": "MTK0584:3A7Y0R2P2PVJF0S9YIYHNEMC9S7JX5", "current_trial": 101, "dateTime": 1511234123301, "trialdata": {"rt": -1, "stimulus": "", "key_press": -1, "type": "PRE_RECALL_DELAY", "trial_type": "single-stim", "trial_index": 101, "time_elapsed": 844550, "internal_node_id": "0.0-74.0-0.0"}}, {"uniqueid": "MTK0584:3A7Y0R2P2PVJF0S9YIYHNEMC9S7JX5", "current_trial": 102, "dateTime": 1511234123803, "trialdata": {"rt": -1000, "stimulus": "/static/audio/400Hz.wav", "key_press": -1, "type": "PRE_RECALL_ALERT", "trial_type": "single-audio", "trial_index": 102, "time_elapsed": 845052, "internal_node_id": "0.0-75.0"}}, {"uniqueid": "MTK0584:3A7Y0R2P2PVJF0S9YIYHNEMC9S7JX5", "current_trial": 103, "dateTime": 1511234183843, "trialdata": {"rt": [4303, 5647, 8328, 9828, 13079, 14503, 17263, 19687], "recwords": ["candy", "tart", "missile", "clothes'", "salmon", "rocket", "france", "mars"], "type": "FREE_RECALL", "conditions": [12, 800, "a", 24000], "trial": 2, "trial_type": "free-recall", "trial_index": 103, "time_elapsed": 905082, "internal_node_id": "0.0-76.0-0.0"}}, {"uniqueid": "MTK0584:3A7Y0R2P2PVJF0S9YIYHNEMC9S7JX5", "current_trial": 104, "dateTime": 1511234188863, "trialdata": {"rt": 3017, "key_press": 32, "type": "INSTRUCTIONS", "trial_type": "text", "trial_index": 104, "time_elapsed": 910111, "internal_node_id": "0.0-77.0"}}, {"uniqueid": "MTK0584:3A7Y0R2P2PVJF0S9YIYHNEMC9S7JX5", "current_trial": 105, "dateTime": 1511234214869, "trialdata": {"rt": [5369, 7529, 12321, 16169, 17961, 20113, 22761], "responses": ["21", "10", "22", "18", "8", "21", "17"], "num1": [7, 7, 8, 5, 1, 9, 2, 7], "num2": [6, 2, 9, 7, 5, 9, 7, 3], "num3": [9, 1, 5, 6, 2, 3, 8, 6], "type": "DISTRACTOR", "conditions": [12, 800, "v", 24000], "trial": 3, "trial_type": "math-distractor", "trial_index": 105, "time_elapsed": 936118, "internal_node_id": "0.0-78.0"}}, {"uniqueid": "MTK0584:3A7Y0R2P2PVJF0S9YIYHNEMC9S7JX5", "current_trial": 106, "dateTime": 1511234217872, "trialdata": {"rt": -1, "stimulus": "<p id=\"stim\">10</p>", "key_press": -1, "trial_type": "single-stim", "trial_index": 106, "time_elapsed": 939121, "internal_node_id": "0.0-79.0-0.0"}}, {"uniqueid": "MTK0584:3A7Y0R2P2PVJF0S9YIYHNEMC9S7JX5", "current_trial": 107, "dateTime": 1511234218874, "trialdata": {"rt": -1, "stimulus": "<p id=\"stim\">9</p>", "key_press": -1, "trial_type": "single-stim", "trial_index": 107, "time_elapsed": 940123, "internal_node_id": "0.0-79.0-1.0"}}, {"uniqueid": "MTK0584:3A7Y0R2P2PVJF0S9YIYHNEMC9S7JX5", "current_trial": 108, "dateTime": 1511234219876, "trialdata": {"rt": -1, "stimulus": "<p id=\"stim\">8</p>", "key_press": -1, "trial_type": "single-stim", "trial_index": 108, "time_elapsed": 941125, "internal_node_id": "0.0-79.0-2.0"}}, {"uniqueid": "MTK0584:3A7Y0R2P2PVJF0S9YIYHNEMC9S7JX5", "current_trial": 109, "dateTime": 1511234220881, "trialdata": {"rt": -1, "stimulus": "<p id=\"stim\">7</p>", "key_press": -1, "trial_type": "single-stim", "trial_index": 109, "time_elapsed": 942130, "internal_node_id": "0.0-79.0-3.0"}}, {"uniqueid": "MTK0584:3A7Y0R2P2PVJF0S9YIYHNEMC9S7JX5", "current_trial": 110, "dateTime": 1511234221884, "trialdata": {"rt": -1, "stimulus": "<p id=\"stim\">6</p>", "key_press": -1, "trial_type": "single-stim", "trial_index": 110, "time_elapsed": 943132, "internal_node_id": "0.0-79.0-4.0"}}, {"uniqueid": "MTK0584:3A7Y0R2P2PVJF0S9YIYHNEMC9S7JX5", "current_trial": 111, "dateTime": 1511234222885, "trialdata": {"rt": -1, "stimulus": "<p id=\"stim\">5</p>", "key_press": -1, "trial_type": "single-stim", "trial_index": 111, "time_elapsed": 944134, "internal_node_id": "0.0-79.0-5.0"}}, {"uniqueid": "MTK0584:3A7Y0R2P2PVJF0S9YIYHNEMC9S7JX5", "current_trial": 112, "dateTime": 1511234223888, "trialdata": {"rt": -1, "stimulus": "<p id=\"stim\">4</p>", "key_press": -1, "trial_type": "single-stim", "trial_index": 112, "time_elapsed": 945136, "internal_node_id": "0.0-79.0-6.0"}}, {"uniqueid": "MTK0584:3A7Y0R2P2PVJF0S9YIYHNEMC9S7JX5", "current_trial": 113, "dateTime": 1511234224889, "trialdata": {"rt": -1, "stimulus": "<p id=\"stim\">3</p>", "key_press": -1, "trial_type": "single-stim", "trial_index": 113, "time_elapsed": 946138, "internal_node_id": "0.0-79.0-7.0"}}, {"uniqueid": "MTK0584:3A7Y0R2P2PVJF0S9YIYHNEMC9S7JX5", "current_trial": 114, "dateTime": 1511234225899, "trialdata": {"rt": -1, "stimulus": "<p id=\"stim\">2</p>", "key_press": -1, "trial_type": "single-stim", "trial_index": 114, "time_elapsed": 947148, "internal_node_id": "0.0-79.0-8.0"}}, {"uniqueid": "MTK0584:3A7Y0R2P2PVJF0S9YIYHNEMC9S7JX5", "current_trial": 115, "dateTime": 1511234226900, "trialdata": {"rt": -1, "stimulus": "<p id=\"stim\">1</p>", "key_press": -1, "trial_type": "single-stim", "trial_index": 115, "time_elapsed": 948149, "internal_node_id": "0.0-79.0-9.0"}}, {"uniqueid": "MTK0584:3A7Y0R2P2PVJF0S9YIYHNEMC9S7JX5", "current_trial": 116, "dateTime": 1511234228403, "trialdata": {"rt": -1, "stimulus": "<p id=\"stim\">+</p>", "key_press": -1, "type": "FIXATION", "trial_type": "single-stim", "trial_index": 116, "time_elapsed": 949652, "internal_node_id": "0.0-80.0-0.0"}}, {"uniqueid": "MTK0584:3A7Y0R2P2PVJF0S9YIYHNEMC9S7JX5", "current_trial": 117, "dateTime": 1511234229209, "trialdata": {"rt": -1, "stimulus": "<p id=\"stim\">BRANCH</p>", "key_press": -1, "type": "PRES_VIS", "word": "branch", "wordID": 167, "conditions": [12, 800, "v", 24000], "trial": 3, "serialpos": 0, "trial_type": "single-stim", "trial_index": 117, "time_elapsed": 950454, "internal_node_id": "0.0-81.0"}}, {"uniqueid": "MTK0584:3A7Y0R2P2PVJF0S9YIYHNEMC9S7JX5", "current_trial": 118, "dateTime": 1511234231144, "trialdata": {"rt": -1, "stimulus": "<p id=\"stim\">JAPAN</p>", "key_press": -1, "type": "PRES_VIS", "word": "japan", "wordID": 748, "conditions": [12, 800, "v", 24000], "trial": 3, "serialpos": 1, "trial_type": "single-stim", "trial_index": 118, "time_elapsed": 952393, "internal_node_id": "0.0-82.0"}}, {"uniqueid": "MTK0584:3A7Y0R2P2PVJF0S9YIYHNEMC9S7JX5", "current_trial": 119, "dateTime": 1511234232935, "trialdata": {"rt": -1, "stimulus": "<p id=\"stim\">TROMBONE</p>", "key_press": -1, "type": "PRES_VIS", "word": "trombone", "wordID": 1507, "conditions": [12, 800, "v", 24000], "trial": 3, "serialpos": 2, "trial_type": "single-stim", "trial_index": 119, "time_elapsed": 954184, "internal_node_id": "0.0-83.0"}}, {"uniqueid": "MTK0584:3A7Y0R2P2PVJF0S9YIYHNEMC9S7JX5", "current_trial": 120, "dateTime": 1511234234666, "trialdata": {"rt": -1, "stimulus": "<p id=\"stim\">NURSE</p>", "key_press": -1, "type": "PRES_VIS", "word": "nurse", "wordID": 962, "conditions": [12, 800, "v", 24000], "trial": 3, "serialpos": 3, "trial_type": "single-stim", "trial_index": 120, "time_elapsed": 955915, "internal_node_id": "0.0-84.0"}}, {"uniqueid": "MTK0584:3A7Y0R2P2PVJF0S9YIYHNEMC9S7JX5", "current_trial": 121, "dateTime": 1511234236544, "trialdata": {"rt": -1, "stimulus": "<p id=\"stim\">DASHBOARD</p>", "key_press": -1, "type": "PRES_VIS", "word": "dashboard", "wordID": 440, "conditions": [12, 800, "v", 24000], "trial": 3, "serialpos": 4, "trial_type": "single-stim", "trial_index": 121, "time_elapsed": 957793, "internal_node_id": "0.0-85.0"}}, {"uniqueid": "MTK0584:3A7Y0R2P2PVJF0S9YIYHNEMC9S7JX5", "current_trial": 122, "dateTime": 1511234238410, "trialdata": {"rt": -1, "stimulus": "<p id=\"stim\">SUNSET</p>", "key_press": -1, "type": "PRES_VIS", "word": "sunset", "wordID": 1407, "conditions": [12, 800, "v", 24000], "trial": 3, "serialpos": 5, "trial_type": "single-stim", "trial_index": 122, "time_elapsed": 959659, "internal_node_id": "0.0-86.0"}}, {"uniqueid": "MTK0584:3A7Y0R2P2PVJF0S9YIYHNEMC9S7JX5", "current_trial": 123, "dateTime": 1511234240032, "trialdata": {"rt": -1, "stimulus": "<p id=\"stim\">SUNRISE</p>", "key_press": -1, "type": "PRES_VIS", "word": "sunrise", "wordID": 1406, "conditions": [12, 800, "v", 24000], "trial": 3, "serialpos": 6, "trial_type": "single-stim", "trial_index": 123, "time_elapsed": 961281, "internal_node_id": "0.0-87.0"}}, {"uniqueid": "MTK0584:3A7Y0R2P2PVJF0S9YIYHNEMC9S7JX5", "current_trial": 124, "dateTime": 1511234241892, "trialdata": {"rt": -1, "stimulus": "<p id=\"stim\">CRAYON</p>", "key_press": -1, "type": "PRES_VIS", "word": "crayon", "wordID": 400, "conditions": [12, 800, "v", 24000], "trial": 3, "serialpos": 7, "trial_type": "single-stim", "trial_index": 124, "time_elapsed": 963140, "internal_node_id": "0.0-88.0"}}, {"uniqueid": "MTK0584:3A7Y0R2P2PVJF0S9YIYHNEMC9S7JX5", "current_trial": 125, "dateTime": 1511234243827, "trialdata": {"rt": -1, "stimulus": "<p id=\"stim\">BANK</p>", "key_press": -1, "type": "PRES_VIS", "word": "bank", "wordID": 82, "conditions": [12, 800, "v", 24000], "trial": 3, "serialpos": 8, "trial_type": "single-stim", "trial_index": 125, "time_elapsed": 965075, "internal_node_id": "0.0-89.0"}}, {"uniqueid": "MTK0584:3A7Y0R2P2PVJF0S9YIYHNEMC9S7JX5", "current_trial": 126, "dateTime": 1511234245704, "trialdata": {"rt": -1, "stimulus": "<p id=\"stim\">BABY</p>", "key_press": -1, "type": "PRES_VIS", "word": "baby", "wordID": 63, "conditions": [12, 800, "v", 24000], "trial": 3, "serialpos": 9, "trial_type": "single-stim", "trial_index": 126, "time_elapsed": 966953, "internal_node_id": "0.0-90.0"}}, {"uniqueid": "MTK0584:3A7Y0R2P2PVJF0S9YIYHNEMC9S7JX5", "current_trial": 127, "dateTime": 1511234247358, "trialdata": {"rt": -1, "stimulus": "<p id=\"stim\">SPONGE</p>", "key_press": -1, "type": "PRES_VIS", "word": "sponge", "wordID": 1354, "conditions": [12, 800, "v", 24000], "trial": 3, "serialpos": 10, "trial_type": "single-stim", "trial_index": 127, "time_elapsed": 968607, "internal_node_id": "0.0-91.0"}}, {"uniqueid": "MTK0584:3A7Y0R2P2PVJF0S9YIYHNEMC9S7JX5", "current_trial": 128, "dateTime": 1511234249203, "trialdata": {"rt": -1, "stimulus": "<p id=\"stim\">BEAST</p>", "key_press": -1, "type": "PRES_VIS", "word": "beast", "wordID": 107, "conditions": [12, 800, "v", 24000], "trial": 3, "serialpos": 11, "trial_type": "single-stim", "trial_index": 128, "time_elapsed": 970452, "internal_node_id": "0.0-92.0"}}, {"uniqueid": "MTK0584:3A7Y0R2P2PVJF0S9YIYHNEMC9S7JX5", "current_trial": 129, "dateTime": 1511234251353, "trialdata": {"rt": -1, "stimulus": "", "key_press": -1, "type": "PRE_RECALL_DELAY", "trial_type": "single-stim", "trial_index": 129, "time_elapsed": 972601, "internal_node_id": "0.0-93.0-0.0"}}, {"uniqueid": "MTK0584:3A7Y0R2P2PVJF0S9YIYHNEMC9S7JX5", "current_trial": 130, "dateTime": 1511234251854, "trialdata": {"rt": -1000, "stimulus": "/static/audio/400Hz.wav", "key_press": -1, "type": "PRE_RECALL_ALERT", "trial_type": "single-audio", "trial_index": 130, "time_elapsed": 973103, "internal_node_id": "0.0-94.0"}}, {"uniqueid": "MTK0584:3A7Y0R2P2PVJF0S9YIYHNEMC9S7JX5", "current_trial": 131, "dateTime": 1511234311870, "trialdata": {"rt": [1260, 2604, 4076, 5733, 7533, 8508, 9933, 11684, 17573], "recwords": ["baby", "sponge", "beast", "sunrise", "sunset", "baby", "japan", "trombone", "dashboard"], "type": "FREE_RECALL", "conditions": [12, 800, "v", 24000], "trial": 3, "trial_type": "free-recall", "trial_index": 131, "time_elapsed": 1033107, "internal_node_id": "0.0-95.0-0.0"}}, {"uniqueid": "MTK0584:3A7Y0R2P2PVJF0S9YIYHNEMC9S7JX5", "current_trial": 132, "dateTime": 1511234315311, "trialdata": {"rt": 1439, "key_press": 32, "type": "INSTRUCTIONS", "trial_type": "text", "trial_index": 132, "time_elapsed": 1036560, "internal_node_id": "0.0-96.0"}}, {"uniqueid": "MTK0584:3A7Y0R2P2PVJF0S9YIYHNEMC9S7JX5", "current_trial": 133, "dateTime": 1511234341325, "trialdata": {"rt": [3652, 5827, 7459, 10115, 12780, 15387, 17987, 20123, 22093], "responses": ["22", "13", "13", "16", "12", "10", "10", "14", "11"], "num1": [9, 2, 9, 8, 1, 2, 2, 2, 1, 1], "num2": [8, 3, 1, 2, 4, 6, 6, 6, 7, 2], "num3": [5, 8, 3, 6, 7, 2, 2, 6, 3, 8], "type": "DISTRACTOR", "conditions": [24, 800, "v", 24000], "trial": 4, "trial_type": "math-distractor", "trial_index": 133, "time_elapsed": 1062574, "internal_node_id": "0.0-97.0"}}, {"uniqueid": "MTK0584:3A7Y0R2P2PVJF0S9YIYHNEMC9S7JX5", "current_trial": 134, "dateTime": 1511234344328, "trialdata": {"rt": -1, "stimulus": "<p id=\"stim\">10</p>", "key_press": -1, "trial_type": "single-stim", "trial_index": 134, "time_elapsed": 1065576, "internal_node_id": "0.0-98.0-0.0"}}, {"uniqueid": "MTK0584:3A7Y0R2P2PVJF0S9YIYHNEMC9S7JX5", "current_trial": 135, "dateTime": 1511234345330, "trialdata": {"rt": -1, "stimulus": "<p id=\"stim\">9</p>", "key_press": -1, "trial_type": "single-stim", "trial_index": 135, "time_elapsed": 1066578, "internal_node_id": "0.0-98.0-1.0"}}, {"uniqueid": "MTK0584:3A7Y0R2P2PVJF0S9YIYHNEMC9S7JX5", "current_trial": 136, "dateTime": 1511234346333, "trialdata": {"rt": -1, "stimulus": "<p id=\"stim\">8</p>", "key_press": -1, "trial_type": "single-stim", "trial_index": 136, "time_elapsed": 1067582, "internal_node_id": "0.0-98.0-2.0"}}, {"uniqueid": "MTK0584:3A7Y0R2P2PVJF0S9YIYHNEMC9S7JX5", "current_trial": 137, "dateTime": 1511234347335, "trialdata": {"rt": -1, "stimulus": "<p id=\"stim\">7</p>", "key_press": -1, "trial_type": "single-stim", "trial_index": 137, "time_elapsed": 1068584, "internal_node_id": "0.0-98.0-3.0"}}, {"uniqueid": "MTK0584:3A7Y0R2P2PVJF0S9YIYHNEMC9S7JX5", "current_trial": 138, "dateTime": 1511234348337, "trialdata": {"rt": -1, "stimulus": "<p id=\"stim\">6</p>", "key_press": -1, "trial_type": "single-stim", "trial_index": 138, "time_elapsed": 1069586, "internal_node_id": "0.0-98.0-4.0"}}, {"uniqueid": "MTK0584:3A7Y0R2P2PVJF0S9YIYHNEMC9S7JX5", "current_trial": 139, "dateTime": 1511234349340, "trialdata": {"rt": -1, "stimulus": "<p id=\"stim\">5</p>", "key_press": -1, "trial_type": "single-stim", "trial_index": 139, "time_elapsed": 1070587, "internal_node_id": "0.0-98.0-5.0"}}, {"uniqueid": "MTK0584:3A7Y0R2P2PVJF0S9YIYHNEMC9S7JX5", "current_trial": 140, "dateTime": 1511234350342, "trialdata": {"rt": -1, "stimulus": "<p id=\"stim\">4</p>", "key_press": -1, "trial_type": "single-stim", "trial_index": 140, "time_elapsed": 1071591, "internal_node_id": "0.0-98.0-6.0"}}, {"uniqueid": "MTK0584:3A7Y0R2P2PVJF0S9YIYHNEMC9S7JX5", "current_trial": 141, "dateTime": 1511234351346, "trialdata": {"rt": -1, "stimulus": "<p id=\"stim\">3</p>", "key_press": -1, "trial_type": "single-stim", "trial_index": 141, "time_elapsed": 1072593, "internal_node_id": "0.0-98.0-7.0"}}, {"uniqueid": "MTK0584:3A7Y0R2P2PVJF0S9YIYHNEMC9S7JX5", "current_trial": 142, "dateTime": 1511234352349, "trialdata": {"rt": -1, "stimulus": "<p id=\"stim\">2</p>", "key_press": -1, "trial_type": "single-stim", "trial_index": 142, "time_elapsed": 1073598, "internal_node_id": "0.0-98.0-8.0"}}, {"uniqueid": "MTK0584:3A7Y0R2P2PVJF0S9YIYHNEMC9S7JX5", "current_trial": 143, "dateTime": 1511234353351, "trialdata": {"rt": -1, "stimulus": "<p id=\"stim\">1</p>", "key_press": -1, "trial_type": "single-stim", "trial_index": 143, "time_elapsed": 1074599, "internal_node_id": "0.0-98.0-9.0"}}, {"uniqueid": "MTK0584:3A7Y0R2P2PVJF0S9YIYHNEMC9S7JX5", "current_trial": 144, "dateTime": 1511234354852, "trialdata": {"rt": -1, "stimulus": "<p id=\"stim\">+</p>", "key_press": -1, "type": "FIXATION", "trial_type": "single-stim", "trial_index": 144, "time_elapsed": 1076101, "internal_node_id": "0.0-99.0-0.0"}}, {"uniqueid": "MTK0584:3A7Y0R2P2PVJF0S9YIYHNEMC9S7JX5", "current_trial": 145, "dateTime": 1511234355654, "trialdata": {"rt": -1, "stimulus": "<p id=\"stim\">SCARF</p>", "key_press": -1, "type": "PRES_VIS", "word": "scarf", "wordID": 1245, "conditions": [24, 800, "v", 24000], "trial": 4, "serialpos": 0, "trial_type": "single-stim", "trial_index": 145, "time_elapsed": 1076903, "internal_node_id": "0.0-100.0"}}, {"uniqueid": "MTK0584:3A7Y0R2P2PVJF0S9YIYHNEMC9S7JX5", "current_trial": 146, "dateTime": 1511234357355, "trialdata": {"rt": -1, "stimulus": "<p id=\"stim\">SHIRT</p>", "key_press": -1, "type": "PRES_VIS", "word": "shirt", "wordID": 1286, "conditions": [24, 800, "v", 24000], "trial": 4, "serialpos": 1, "trial_type": "single-stim", "trial_index": 146, "time_elapsed": 1078603, "internal_node_id": "0.0-101.0"}}, {"uniqueid": "MTK0584:3A7Y0R2P2PVJF0S9YIYHNEMC9S7JX5", "current_trial": 147, "dateTime": 1511234359415, "trialdata": {"rt": -1, "stimulus": "<p id=\"stim\">SUSPECT</p>", "key_press": -1, "type": "PRES_VIS", "word": "suspect", "wordID": 1414, "conditions": [24, 800, "v", 24000], "trial": 4, "serialpos": 2, "trial_type": "single-stim", "trial_index": 147, "time_elapsed": 1080664, "internal_node_id": "0.0-102.0"}}, {"uniqueid": "MTK0584:3A7Y0R2P2PVJF0S9YIYHNEMC9S7JX5", "current_trial": 148, "dateTime": 1511234361121, "trialdata": {"rt": -1, "stimulus": "<p id=\"stim\">COD</p>", "key_press": -1, "type": "PRES_VIS", "word": "cod", "wordID": 339, "conditions": [24, 800, "v", 24000], "trial": 4, "serialpos": 3, "trial_type": "single-stim", "trial_index": 148, "time_elapsed": 1082369, "internal_node_id": "0.0-103.0"}}, {"uniqueid": "MTK0584:3A7Y0R2P2PVJF0S9YIYHNEMC9S7JX5", "current_trial": 149, "dateTime": 1511234362813, "trialdata": {"rt": -1, "stimulus": "<p id=\"stim\">NOMAD</p>", "key_press": -1, "type": "PRES_VIS", "word": "nomad", "wordID": 954, "conditions": [24, 800, "v", 24000], "trial": 4, "serialpos": 4, "trial_type": "single-stim", "trial_index": 149, "time_elapsed": 1084057, "internal_node_id": "0.0-104.0"}}, {"uniqueid": "MTK0584:3A7Y0R2P2PVJF0S9YIYHNEMC9S7JX5", "current_trial": 150, "dateTime": 1511234364461, "trialdata": {"rt": -1, "stimulus": "<p id=\"stim\">TRIBE</p>", "key_press": -1, "type": "PRES_VIS", "word": "tribe", "wordID": 1504, "conditions": [24, 800, "v", 24000], "trial": 4, "serialpos": 5, "trial_type": "single-stim", "trial_index": 150, "time_elapsed": 1085709, "internal_node_id": "0.0-105.0"}}, {"uniqueid": "MTK0584:3A7Y0R2P2PVJF0S9YIYHNEMC9S7JX5", "current_trial": 151, "dateTime": 1511234366447, "trialdata": {"rt": -1, "stimulus": "<p id=\"stim\">TILE</p>", "key_press": -1, "type": "PRES_VIS", "word": "tile", "wordID": 1467, "conditions": [24, 800, "v", 24000], "trial": 4, "serialpos": 6, "trial_type": "single-stim", "trial_index": 151, "time_elapsed": 1087695, "internal_node_id": "0.0-106.0"}}, {"uniqueid": "MTK0584:3A7Y0R2P2PVJF0S9YIYHNEMC9S7JX5", "current_trial": 152, "dateTime": 1511234368060, "trialdata": {"rt": -1, "stimulus": "<p id=\"stim\">SKIRT</p>", "key_press": -1, "type": "PRES_VIS", "word": "skirt", "wordID": 1318, "conditions": [24, 800, "v", 24000], "trial": 4, "serialpos": 7, "trial_type": "single-stim", "trial_index": 152, "time_elapsed": 1089309, "internal_node_id": "0.0-107.0"}}, {"uniqueid": "MTK0584:3A7Y0R2P2PVJF0S9YIYHNEMC9S7JX5", "current_trial": 153, "dateTime": 1511234369810, "trialdata": {"rt": -1, "stimulus": "<p id=\"stim\">PUDDLE</p>", "key_press": -1, "type": "PRES_VIS", "word": "puddle", "wordID": 1139, "conditions": [24, 800, "v", 24000], "trial": 4, "serialpos": 8, "trial_type": "single-stim", "trial_index": 153, "time_elapsed": 1091059, "internal_node_id": "0.0-108.0"}}, {"uniqueid": "MTK0584:3A7Y0R2P2PVJF0S9YIYHNEMC9S7JX5", "current_trial": 154, "dateTime": 1511234371564, "trialdata": {"rt": -1, "stimulus": "<p id=\"stim\">VICTIM</p>", "key_press": -1, "type": "PRES_VIS", "word": "victim", "wordID": 1561, "conditions": [24, 800, "v", 24000], "trial": 4, "serialpos": 9, "trial_type": "single-stim", "trial_index": 154, "time_elapsed": 1092812, "internal_node_id": "0.0-109.0"}}, {"uniqueid": "MTK0584:3A7Y0R2P2PVJF0S9YIYHNEMC9S7JX5", "current_trial": 155, "dateTime": 1511234373194, "trialdata": {"rt": -1, "stimulus": "<p id=\"stim\">DIVER</p>", "key_press": -1, "type": "PRES_VIS", "word": "diver", "wordID": 475, "conditions": [24, 800, "v", 24000], "trial": 4, "serialpos": 10, "trial_type": "single-stim", "trial_index": 155, "time_elapsed": 1094443, "internal_node_id": "0.0-110.0"}}, {"uniqueid": "MTK0584:3A7Y0R2P2PVJF0S9YIYHNEMC9S7JX5", "current_trial": 156, "dateTime": 1511234374802, "trialdata": {"rt": -1, "stimulus": "<p id=\"stim\">HUMAN</p>", "key_press": -1, "type": "PRES_VIS", "word": "human", "wordID": 725, "conditions": [24, 800, "v", 24000], "trial": 4, "serialpos": 11, "trial_type": "single-stim", "trial_index": 156, "time_elapsed": 1096050, "internal_node_id": "0.0-111.0"}}, {"uniqueid": "MTK0584:3A7Y0R2P2PVJF0S9YIYHNEMC9S7JX5", "current_trial": 157, "dateTime": 1511234376646, "trialdata": {"rt": -1, "stimulus": "<p id=\"stim\">SEAFOOD</p>", "key_press": -1, "type": "PRES_VIS", "word": "seafood", "wordID": 1259, "conditions": [24, 800, "v", 24000], "trial": 4, "serialpos": 12, "trial_type": "single-stim", "trial_index": 157, "time_elapsed": 1097895, "internal_node_id": "0.0-112.0"}}, {"uniqueid": "MTK0584:3A7Y0R2P2PVJF0S9YIYHNEMC9S7JX5", "current_trial": 158, "dateTime": 1511234378542, "trialdata": {"rt": -1, "stimulus": "<p id=\"stim\">CRAB</p>", "key_press": -1, "type": "PRES_VIS", "word": "crab", "wordID": 396, "conditions": [24, 800, "v", 24000], "trial": 4, "serialpos": 13, "trial_type": "single-stim", "trial_index": 158, "time_elapsed": 1099790, "internal_node_id": "0.0-113.0"}}, {"uniqueid": "MTK0584:3A7Y0R2P2PVJF0S9YIYHNEMC9S7JX5", "current_trial": 159, "dateTime": 1511234380494, "trialdata": {"rt": -1, "stimulus": "<p id=\"stim\">ITEM</p>", "key_press": -1, "type": "PRES_VIS", "word": "item", "wordID": 745, "conditions": [24, 800, "v", 24000], "trial": 4, "serialpos": 14, "trial_type": "single-stim", "trial_index": 159, "time_elapsed": 1101743, "internal_node_id": "0.0-114.0"}}, {"uniqueid": "MTK0584:3A7Y0R2P2PVJF0S9YIYHNEMC9S7JX5", "current_trial": 160, "dateTime": 1511234382161, "trialdata": {"rt": -1, "stimulus": "<p id=\"stim\">CHAPEL</p>", "key_press": -1, "type": "PRES_VIS", "word": "chapel", "wordID": 279, "conditions": [24, 800, "v", 24000], "trial": 4, "serialpos": 15, "trial_type": "single-stim", "trial_index": 160, "time_elapsed": 1103409, "internal_node_id": "0.0-115.0"}}, {"uniqueid": "MTK0584:3A7Y0R2P2PVJF0S9YIYHNEMC9S7JX5", "current_trial": 161, "dateTime": 1511234383862, "trialdata": {"rt": -1, "stimulus": "<p id=\"stim\">BACON</p>", "key_press": -1, "type": "PRES_VIS", "word": "bacon", "wordID": 66, "conditions": [24, 800, "v", 24000], "trial": 4, "serialpos": 16, "trial_type": "single-stim", "trial_index": 161, "time_elapsed": 1105111, "internal_node_id": "0.0-116.0"}}, {"uniqueid": "MTK0584:3A7Y0R2P2PVJF0S9YIYHNEMC9S7JX5", "current_trial": 162, "dateTime": 1511234385469, "trialdata": {"rt": -1, "stimulus": "<p id=\"stim\">TUBA</p>", "key_press": -1, "type": "PRES_VIS", "word": "tuba", "wordID": 1514, "conditions": [24, 800, "v", 24000], "trial": 4, "serialpos": 17, "trial_type": "single-stim", "trial_index": 162, "time_elapsed": 1106717, "internal_node_id": "0.0-117.0"}}, {"uniqueid": "MTK0584:3A7Y0R2P2PVJF0S9YIYHNEMC9S7JX5", "current_trial": 163, "dateTime": 1511234387470, "trialdata": {"rt": -1, "stimulus": "<p id=\"stim\">FLESH</p>", "key_press": -1, "type": "PRES_VIS", "word": "flesh", "wordID": 578, "conditions": [24, 800, "v", 24000], "trial": 4, "serialpos": 18, "trial_type": "single-stim", "trial_index": 163, "time_elapsed": 1108718, "internal_node_id": "0.0-118.0"}}, {"uniqueid": "MTK0584:3A7Y0R2P2PVJF0S9YIYHNEMC9S7JX5", "current_trial": 164, "dateTime": 1511234389257, "trialdata": {"rt": -1, "stimulus": "<p id=\"stim\">MAILMAN</p>", "key_press": -1, "type": "PRES_VIS", "word": "mailman", "wordID": 857, "conditions": [24, 800, "v", 24000], "trial": 4, "serialpos": 19, "trial_type": "single-stim", "trial_index": 164, "time_elapsed": 1110505, "internal_node_id": "0.0-119.0"}}, {"uniqueid": "MTK0584:3A7Y0R2P2PVJF0S9YIYHNEMC9S7JX5", "current_trial": 165, "dateTime": 1511234390912, "trialdata": {"rt": -1, "stimulus": "<p id=\"stim\">ROOSTER</p>", "key_press": -1, "type": "PRES_VIS", "word": "rooster", "wordID": 1208, "conditions": [24, 800, "v", 24000], "trial": 4, "serialpos": 20, "trial_type": "single-stim", "trial_index": 165, "time_elapsed": 1112160, "internal_node_id": "0.0-120.0"}}, {"uniqueid": "MTK0584:3A7Y0R2P2PVJF0S9YIYHNEMC9S7JX5", "current_trial": 166, "dateTime": 1511234392714, "trialdata": {"rt": -1, "stimulus": "<p id=\"stim\">GUITAR</p>", "key_press": -1, "type": "PRES_VIS", "word": "guitar", "wordID": 669, "conditions": [24, 800, "v", 24000], "trial": 4, "serialpos": 21, "trial_type": "single-stim", "trial_index": 166, "time_elapsed": 1113963, "internal_node_id": "0.0-121.0"}}, {"uniqueid": "MTK0584:3A7Y0R2P2PVJF0S9YIYHNEMC9S7JX5", "current_trial": 167, "dateTime": 1511234394529, "trialdata": {"rt": -1, "stimulus": "<p id=\"stim\">BLENDER</p>", "key_press": -1, "type": "PRES_VIS", "word": "blender", "wordID": 135, "conditions": [24, 800, "v", 24000], "trial": 4, "serialpos": 22, "trial_type": "single-stim", "trial_index": 167, "time_elapsed": 1115778, "internal_node_id": "0.0-122.0"}}, {"uniqueid": "MTK0584:3A7Y0R2P2PVJF0S9YIYHNEMC9S7JX5", "current_trial": 168, "dateTime": 1511234396503, "trialdata": {"rt": -1, "stimulus": "<p id=\"stim\">FOREST</p>", "key_press": -1, "type": "PRES_VIS", "word": "forest", "wordID": 592, "conditions": [24, 800, "v", 24000], "trial": 4, "serialpos": 23, "trial_type": "single-stim", "trial_index": 168, "time_elapsed": 1117750, "internal_node_id": "0.0-123.0"}}, {"uniqueid": "MTK0584:3A7Y0R2P2PVJF0S9YIYHNEMC9S7JX5", "current_trial": 169, "dateTime": 1511234398845, "trialdata": {"rt": -1, "stimulus": "", "key_press": -1, "type": "PRE_RECALL_DELAY", "trial_type": "single-stim", "trial_index": 169, "time_elapsed": 1120094, "internal_node_id": "0.0-124.0-0.0"}}, {"uniqueid": "MTK0584:3A7Y0R2P2PVJF0S9YIYHNEMC9S7JX5", "current_trial": 170, "dateTime": 1511234399346, "trialdata": {"rt": -1000, "stimulus": "/static/audio/400Hz.wav", "key_press": -1, "type": "PRE_RECALL_ALERT", "trial_type": "single-audio", "trial_index": 170, "time_elapsed": 1120595, "internal_node_id": "0.0-125.0"}}, {"uniqueid": "MTK0584:3A7Y0R2P2PVJF0S9YIYHNEMC9S7JX5", "current_trial": 171, "dateTime": 1511234459364, "trialdata": {"rt": [3016, 5056, 6866, 8304, 9640, 11728, 12944, 15872, 17064, 18273, 20417, 21944, 24944, 49560], "recwords": ["mailman", "guitar", "forest", "blender", "rooster", "nomad", "tribe", "seafood", "crab", "human", "shirt", "scard", "scarf", "rooster"], "type": "FREE_RECALL", "conditions": [24, 800, "v", 24000], "trial": 4, "trial_type": "free-recall", "trial_index": 171, "time_elapsed": 1180599, "internal_node_id": "0.0-126.0-0.0"}}, {"uniqueid": "MTK0584:3A7Y0R2P2PVJF0S9YIYHNEMC9S7JX5", "current_trial": 172, "dateTime": 1511234462439, "trialdata": {"rt": 1073, "key_press": 32, "type": "INSTRUCTIONS", "trial_type": "text", "trial_index": 172, "time_elapsed": 1183687, "internal_node_id": "0.0-127.0"}}, {"uniqueid": "MTK0584:3A7Y0R2P2PVJF0S9YIYHNEMC9S7JX5", "current_trial": 173, "dateTime": 1511234488443, "trialdata": {"rt": [3986, 6282, 8818, 11744, 14674, 17002, 19178, 21706], "responses": ["12", "10", "14", "9", "18", "16", "12", "16"], "num1": [1, 3, 3, 3, 9, 4, 1, 3, 1], "num2": [5, 4, 5, 3, 5, 5, 4, 9, 7], "num3": [6, 3, 6, 3, 4, 7, 7, 4, 5], "type": "DISTRACTOR", "conditions": [12, 1600, "a", 24000], "trial": 5, "trial_type": "math-distractor", "trial_index": 173, "time_elapsed": 1209692, "internal_node_id": "0.0-128.0"}}, {"uniqueid": "MTK0584:3A7Y0R2P2PVJF0S9YIYHNEMC9S7JX5", "current_trial": 174, "dateTime": 1511234491446, "trialdata": {"rt": -1, "stimulus": "<p id=\"stim\">10</p>", "key_press": -1, "trial_type": "single-stim", "trial_index": 174, "time_elapsed": 1212694, "internal_node_id": "0.0-129.0-0.0"}}, {"uniqueid": "MTK0584:3A7Y0R2P2PVJF0S9YIYHNEMC9S7JX5", "current_trial": 175, "dateTime": 1511234492486, "trialdata": {"rt": -1, "stimulus": "<p id=\"stim\">9</p>", "key_press": -1, "trial_type": "single-stim", "trial_index": 175, "time_elapsed": 1213702, "internal_node_id": "0.0-129.0-1.0"}}, {"uniqueid": "MTK0584:3A7Y0R2P2PVJF0S9YIYHNEMC9S7JX5", "current_trial": 176, "dateTime": 1511234493490, "trialdata": {"rt": -1, "stimulus": "<p id=\"stim\">8</p>", "key_press": -1, "trial_type": "single-stim", "trial_index": 176, "time_elapsed": 1214737, "internal_node_id": "0.0-129.0-2.0"}}, {"uniqueid": "MTK0584:3A7Y0R2P2PVJF0S9YIYHNEMC9S7JX5", "current_trial": 177, "dateTime": 1511234494492, "trialdata": {"rt": -1, "stimulus": "<p id=\"stim\">7</p>", "key_press": -1, "trial_type": "single-stim", "trial_index": 177, "time_elapsed": 1215741, "internal_node_id": "0.0-129.0-3.0"}}, {"uniqueid": "MTK0584:3A7Y0R2P2PVJF0S9YIYHNEMC9S7JX5", "current_trial": 178, "dateTime": 1511234495496, "trialdata": {"rt": -1, "stimulus": "<p id=\"stim\">6</p>", "key_press": -1, "trial_type": "single-stim", "trial_index": 178, "time_elapsed": 1216743, "internal_node_id": "0.0-129.0-4.0"}}, {"uniqueid": "MTK0584:3A7Y0R2P2PVJF0S9YIYHNEMC9S7JX5", "current_trial": 179, "dateTime": 1511234496499, "trialdata": {"rt": -1, "stimulus": "<p id=\"stim\">5</p>", "key_press": -1, "trial_type": "single-stim", "trial_index": 179, "time_elapsed": 1217748, "internal_node_id": "0.0-129.0-5.0"}}, {"uniqueid": "MTK0584:3A7Y0R2P2PVJF0S9YIYHNEMC9S7JX5", "current_trial": 180, "dateTime": 1511234497501, "trialdata": {"rt": -1, "stimulus": "<p id=\"stim\">4</p>", "key_press": -1, "trial_type": "single-stim", "trial_index": 180, "time_elapsed": 1218749, "internal_node_id": "0.0-129.0-6.0"}}, {"uniqueid": "MTK0584:3A7Y0R2P2PVJF0S9YIYHNEMC9S7JX5", "current_trial": 181, "dateTime": 1511234498504, "trialdata": {"rt": -1, "stimulus": "<p id=\"stim\">3</p>", "key_press": -1, "trial_type": "single-stim", "trial_index": 181, "time_elapsed": 1219753, "internal_node_id": "0.0-129.0-7.0"}}, {"uniqueid": "MTK0584:3A7Y0R2P2PVJF0S9YIYHNEMC9S7JX5", "current_trial": 182, "dateTime": 1511234499506, "trialdata": {"rt": -1, "stimulus": "<p id=\"stim\">2</p>", "key_press": -1, "trial_type": "single-stim", "trial_index": 182, "time_elapsed": 1220755, "internal_node_id": "0.0-129.0-8.0"}}, {"uniqueid": "MTK0584:3A7Y0R2P2PVJF0S9YIYHNEMC9S7JX5", "current_trial": 183, "dateTime": 1511234500510, "trialdata": {"rt": -1, "stimulus": "<p id=\"stim\">1</p>", "key_press": -1, "trial_type": "single-stim", "trial_index": 183, "time_elapsed": 1221759, "internal_node_id": "0.0-129.0-9.0"}}, {"uniqueid": "MTK0584:3A7Y0R2P2PVJF0S9YIYHNEMC9S7JX5", "current_trial": 184, "dateTime": 1511234502012, "trialdata": {"rt": -1, "stimulus": "<p id=\"stim\">+</p>", "key_press": -1, "type": "FIXATION", "trial_type": "single-stim", "trial_index": 184, "time_elapsed": 1223261, "internal_node_id": "0.0-130.0-0.0"}}, {"uniqueid": "MTK0584:3A7Y0R2P2PVJF0S9YIYHNEMC9S7JX5", "current_trial": 185, "dateTime": 1511234504452, "trialdata": {"rt": -1000, "stimulus": "/static/audio/wordpool/MILK.wav", "key_press": -1, "type": "PRES_AUD", "word": "milk", "wordID": 894, "conditions": [12, 1600, "a", 24000], "trial": 5, "serialpos": 0, "trial_type": "single-audio", "trial_index": 185, "time_elapsed": 1225701, "internal_node_id": "0.0-131.0"}}, {"uniqueid": "MTK0584:3A7Y0R2P2PVJF0S9YIYHNEMC9S7JX5", "current_trial": 186, "dateTime": 1511234506896, "trialdata": {"rt": -1000, "stimulus": "/static/audio/wordpool/BEAVER.wav", "key_press": -1, "type": "PRES_AUD", "word": "beaver", "wordID": 108, "conditions": [12, 1600, "a", 24000], "trial": 5, "serialpos": 1, "trial_type": "single-audio", "trial_index": 186, "time_elapsed": 1228143, "internal_node_id": "0.0-132.0"}}, {"uniqueid": "MTK0584:3A7Y0R2P2PVJF0S9YIYHNEMC9S7JX5", "current_trial": 187, "dateTime": 1511234509418, "trialdata": {"rt": -1000, "stimulus": "/static/audio/wordpool/FLASK.wav", "key_press": -1, "type": "PRES_AUD", "word": "flask", "wordID": 575, "conditions": [12, 1600, "a", 24000], "trial": 5, "serialpos": 2, "trial_type": "single-audio", "trial_index": 187, "time_elapsed": 1230667, "internal_node_id": "0.0-133.0"}}, {"uniqueid": "MTK0584:3A7Y0R2P2PVJF0S9YIYHNEMC9S7JX5", "current_trial": 188, "dateTime": 1511234512051, "trialdata": {"rt": -1000, "stimulus": "/static/audio/wordpool/GIRL.wav", "key_press": -1, "type": "PRES_AUD", "word": "girl", "wordID": 636, "conditions": [12, 1600, "a", 24000], "trial": 5, "serialpos": 3, "trial_type": "single-audio", "trial_index": 188, "time_elapsed": 1233299, "internal_node_id": "0.0-134.0"}}, {"uniqueid": "MTK0584:3A7Y0R2P2PVJF0S9YIYHNEMC9S7JX5", "current_trial": 189, "dateTime": 1511234514458, "trialdata": {"rt": -1000, "stimulus": "/static/audio/wordpool/BARLEY.wav", "key_press": -1, "type": "PRES_AUD", "word": "barley", "wordID": 87, "conditions": [12, 1600, "a", 24000], "trial": 5, "serialpos": 4, "trial_type": "single-audio", "trial_index": 189, "time_elapsed": 1235707, "internal_node_id": "0.0-135.0"}}, {"uniqueid": "MTK0584:3A7Y0R2P2PVJF0S9YIYHNEMC9S7JX5", "current_trial": 190, "dateTime": 1511234516867, "trialdata": {"rt": -1000, "stimulus": "/static/audio/wordpool/FRIEND.wav", "key_press": -1, "type": "PRES_AUD", "word": "friend", "wordID": 605, "conditions": [12, 1600, "a", 24000], "trial": 5, "serialpos": 5, "trial_type": "single-audio", "trial_index": 190, "time_elapsed": 1238115, "internal_node_id": "0.0-136.0"}}, {"uniqueid": "MTK0584:3A7Y0R2P2PVJF0S9YIYHNEMC9S7JX5", "current_trial": 191, "dateTime": 1511234519589, "trialdata": {"rt": -1000, "stimulus": "/static/audio/wordpool/KITCHEN.wav", "key_press": -1, "type": "PRES_AUD", "word": "kitchen", "wordID": 777, "conditions": [12, 1600, "a", 24000], "trial": 5, "serialpos": 6, "trial_type": "single-audio", "trial_index": 191, "time_elapsed": 1240837, "internal_node_id": "0.0-137.0"}}, {"uniqueid": "MTK0584:3A7Y0R2P2PVJF0S9YIYHNEMC9S7JX5", "current_trial": 192, "dateTime": 1511234522009, "trialdata": {"rt": -1000, "stimulus": "/static/audio/wordpool/CUPBOARD.wav", "key_press": -1, "type": "PRES_AUD", "word": "cupboard", "wordID": 424, "conditions": [12, 1600, "a", 24000], "trial": 5, "serialpos": 7, "trial_type": "single-audio", "trial_index": 192, "time_elapsed": 1243257, "internal_node_id": "0.0-138.0"}}, {"uniqueid": "MTK0584:3A7Y0R2P2PVJF0S9YIYHNEMC9S7JX5", "current_trial": 193, "dateTime": 1511234524544, "trialdata": {"rt": -1000, "stimulus": "/static/audio/wordpool/PRINCESS.wav", "key_press": -1, "type": "PRES_AUD", "word": "princess", "wordID": 1124, "conditions": [12, 1600, "a", 24000], "trial": 5, "serialpos": 8, "trial_type": "single-audio", "trial_index": 193, "time_elapsed": 1245793, "internal_node_id": "0.0-139.0"}}, {"uniqueid": "MTK0584:3A7Y0R2P2PVJF0S9YIYHNEMC9S7JX5", "current_trial": 194, "dateTime": 1511234526989, "trialdata": {"rt": -1000, "stimulus": "/static/audio/wordpool/BACKBONE.wav", "key_press": -1, "type": "PRES_AUD", "word": "backbone", "wordID": 65, "conditions": [12, 1600, "a", 24000], "trial": 5, "serialpos": 9, "trial_type": "single-audio", "trial_index": 194, "time_elapsed": 1248238, "internal_node_id": "0.0-140.0"}}, {"uniqueid": "MTK0584:3A7Y0R2P2PVJF0S9YIYHNEMC9S7JX5", "current_trial": 195, "dateTime": 1511234529581, "trialdata": {"rt": -1000, "stimulus": "/static/audio/wordpool/STAPLE.wav", "key_press": -1, "type": "PRES_AUD", "word": "staple", "wordID": 1370, "conditions": [12, 1600, "a", 24000], "trial": 5, "serialpos": 10, "trial_type": "single-audio", "trial_index": 195, "time_elapsed": 1250830, "internal_node_id": "0.0-141.0"}}, {"uniqueid": "MTK0584:3A7Y0R2P2PVJF0S9YIYHNEMC9S7JX5", "current_trial": 196, "dateTime": 1511234532354, "trialdata": {"rt": -1000, "stimulus": "/static/audio/wordpool/GARLIC.wav", "key_press": -1, "type": "PRES_AUD", "word": "garlic", "wordID": 623, "conditions": [12, 1600, "a", 24000], "trial": 5, "serialpos": 11, "trial_type": "single-audio", "trial_index": 196, "time_elapsed": 1253602, "internal_node_id": "0.0-142.0"}}, {"uniqueid": "MTK0584:3A7Y0R2P2PVJF0S9YIYHNEMC9S7JX5", "current_trial": 197, "dateTime": 1511234533642, "trialdata": {"rt": -1, "stimulus": "", "key_press": -1, "type": "PRE_RECALL_DELAY", "trial_type": "single-stim", "trial_index": 197, "time_elapsed": 1254890, "internal_node_id": "0.0-143.0-0.0"}}, {"uniqueid": "MTK0584:3A7Y0R2P2PVJF0S9YIYHNEMC9S7JX5", "current_trial": 198, "dateTime": 1511234534142, "trialdata": {"rt": -1000, "stimulus": "/static/audio/400Hz.wav", "key_press": -1, "type": "PRE_RECALL_ALERT", "trial_type": "single-audio", "trial_index": 198, "time_elapsed": 1255391, "internal_node_id": "0.0-144.0"}}, {"uniqueid": "MTK0584:3A7Y0R2P2PVJF0S9YIYHNEMC9S7JX5", "current_trial": 199, "dateTime": 1511234594164, "trialdata": {"rt": [2409, 4085, 5709, 8722, 10898, 13038, 15518, 16845, 19933], "recwords": ["staple", "garlic", "gir", "girl", "friend'", "princess", "milk", "beaver", "kitchn"], "type": "FREE_RECALL", "conditions": [12, 1600, "a", 24000], "trial": 5, "trial_type": "free-recall", "trial_index": 199, "time_elapsed": 1315394, "internal_node_id": "0.0-145.0-0.0"}}, {"uniqueid": "MTK0584:3A7Y0R2P2PVJF0S9YIYHNEMC9S7JX5", "current_trial": 200, "dateTime": 1511234597052, "trialdata": {"rt": 888, "key_press": 32, "type": "INSTRUCTIONS", "trial_type": "text", "trial_index": 200, "time_elapsed": 1318301, "internal_node_id": "0.0-146.0"}}, {"uniqueid": "MTK0584:3A7Y0R2P2PVJF0S9YIYHNEMC9S7JX5", "current_trial": 201, "dateTime": 1511234611057, "trialdata": {"rt": [1717, 3286, 5472, 8950, 10302], "responses": ["6", "11", "17", "16", "6"], "num1": [1, 1, 9, 7, 4, 2], "num2": [2, 5, 6, 4, 1, 3], "num3": [3, 5, 2, 5, 1, 6], "type": "DISTRACTOR", "conditions": [24, 1600, "v", 12000], "trial": 6, "trial_type": "math-distractor", "trial_index": 201, "time_elapsed": 1332305, "internal_node_id": "0.0-147.0"}}, {"uniqueid": "MTK0584:3A7Y0R2P2PVJF0S9YIYHNEMC9S7JX5", "current_trial": 202, "dateTime": 1511234614059, "trialdata": {"rt": -1, "stimulus": "<p id=\"stim\">10</p>", "key_press": -1, "trial_type": "single-stim", "trial_index": 202, "time_elapsed": 1335307, "internal_node_id": "0.0-148.0-0.0"}}, {"uniqueid": "MTK0584:3A7Y0R2P2PVJF0S9YIYHNEMC9S7JX5", "current_trial": 203, "dateTime": 1511234615060, "trialdata": {"rt": -1, "stimulus": "<p id=\"stim\">9</p>", "key_press": -1, "trial_type": "single-stim", "trial_index": 203, "time_elapsed": 1336308, "internal_node_id": "0.0-148.0-1.0"}}, {"uniqueid": "MTK0584:3A7Y0R2P2PVJF0S9YIYHNEMC9S7JX5", "current_trial": 204, "dateTime": 1511234616063, "trialdata": {"rt": -1, "stimulus": "<p id=\"stim\">8</p>", "key_press": -1, "trial_type": "single-stim", "trial_index": 204, "time_elapsed": 1337312, "internal_node_id": "0.0-148.0-2.0"}}, {"uniqueid": "MTK0584:3A7Y0R2P2PVJF0S9YIYHNEMC9S7JX5", "current_trial": 205, "dateTime": 1511234617065, "trialdata": {"rt": -1, "stimulus": "<p id=\"stim\">7</p>", "key_press": -1, "trial_type": "single-stim", "trial_index": 205, "time_elapsed": 1338313, "internal_node_id": "0.0-148.0-3.0"}}, {"uniqueid": "MTK0584:3A7Y0R2P2PVJF0S9YIYHNEMC9S7JX5", "current_trial": 206, "dateTime": 1511234618069, "trialdata": {"rt": -1, "stimulus": "<p id=\"stim\">6</p>", "key_press": -1, "trial_type": "single-stim", "trial_index": 206, "time_elapsed": 1339318, "internal_node_id": "0.0-148.0-4.0"}}, {"uniqueid": "MTK0584:3A7Y0R2P2PVJF0S9YIYHNEMC9S7JX5", "current_trial": 207, "dateTime": 1511234619071, "trialdata": {"rt": -1, "stimulus": "<p id=\"stim\">5</p>", "key_press": -1, "trial_type": "single-stim", "trial_index": 207, "time_elapsed": 1340319, "internal_node_id": "0.0-148.0-5.0"}}, {"uniqueid": "MTK0584:3A7Y0R2P2PVJF0S9YIYHNEMC9S7JX5", "current_trial": 208, "dateTime": 1511234620075, "trialdata": {"rt": -1, "stimulus": "<p id=\"stim\">4</p>", "key_press": -1, "trial_type": "single-stim", "trial_index": 208, "time_elapsed": 1341322, "internal_node_id": "0.0-148.0-6.0"}}, {"uniqueid": "MTK0584:3A7Y0R2P2PVJF0S9YIYHNEMC9S7JX5", "current_trial": 209, "dateTime": 1511234621078, "trialdata": {"rt": -1, "stimulus": "<p id=\"stim\">3</p>", "key_press": -1, "trial_type": "single-stim", "trial_index": 209, "time_elapsed": 1342326, "internal_node_id": "0.0-148.0-7.0"}}, {"uniqueid": "MTK0584:3A7Y0R2P2PVJF0S9YIYHNEMC9S7JX5", "current_trial": 210, "dateTime": 1511234622084, "trialdata": {"rt": -1, "stimulus": "<p id=\"stim\">2</p>", "key_press": -1, "trial_type": "single-stim", "trial_index": 210, "time_elapsed": 1343333, "internal_node_id": "0.0-148.0-8.0"}}, {"uniqueid": "MTK0584:3A7Y0R2P2PVJF0S9YIYHNEMC9S7JX5", "current_trial": 211, "dateTime": 1511234623117, "trialdata": {"rt": -1, "stimulus": "<p id=\"stim\">1</p>", "key_press": -1, "trial_type": "single-stim", "trial_index": 211, "time_elapsed": 1344365, "internal_node_id": "0.0-148.0-9.0"}}, {"uniqueid": "MTK0584:3A7Y0R2P2PVJF0S9YIYHNEMC9S7JX5", "current_trial": 212, "dateTime": 1511234624618, "trialdata": {"rt": -1, "stimulus": "<p id=\"stim\">+</p>", "key_press": -1, "type": "FIXATION", "trial_type": "single-stim", "trial_index": 212, "time_elapsed": 1345867, "internal_node_id": "0.0-149.0-0.0"}}, {"uniqueid": "MTK0584:3A7Y0R2P2PVJF0S9YIYHNEMC9S7JX5", "current_trial": 213, "dateTime": 1511234626221, "trialdata": {"rt": -1, "stimulus": "<p id=\"stim\">PISTOL</p>", "key_press": -1, "type": "PRES_VIS", "word": "pistol", "wordID": 1074, "conditions": [24, 1600, "v", 12000], "trial": 6, "serialpos": 0, "trial_type": "single-stim", "trial_index": 213, "time_elapsed": 1347469, "internal_node_id": "0.0-150.0"}}, {"uniqueid": "MTK0584:3A7Y0R2P2PVJF0S9YIYHNEMC9S7JX5", "current_trial": 214, "dateTime": 1511234628758, "trialdata": {"rt": -1, "stimulus": "<p id=\"stim\">HAMPER</p>", "key_press": -1, "type": "PRES_VIS", "word": "hamper", "wordID": 681, "conditions": [24, 1600, "v", 12000], "trial": 6, "serialpos": 1, "trial_type": "single-stim", "trial_index": 214, "time_elapsed": 1350007, "internal_node_id": "0.0-151.0"}}, {"uniqueid": "MTK0584:3A7Y0R2P2PVJF0S9YIYHNEMC9S7JX5", "current_trial": 215, "dateTime": 1511234631288, "trialdata": {"rt": -1, "stimulus": "<p id=\"stim\">COUNTY</p>", "key_press": -1, "type": "PRES_VIS", "word": "county", "wordID": 388, "conditions": [24, 1600, "v", 12000], "trial": 6, "serialpos": 2, "trial_type": "single-stim", "trial_index": 215, "time_elapsed": 1352533, "internal_node_id": "0.0-152.0"}}, {"uniqueid": "MTK0584:3A7Y0R2P2PVJF0S9YIYHNEMC9S7JX5", "current_trial": 216, "dateTime": 1511234633723, "trialdata": {"rt": -1, "stimulus": "<p id=\"stim\">RABBIT</p>", "key_press": -1, "type": "PRES_VIS", "word": "rabbit", "wordID": 1151, "conditions": [24, 1600, "v", 12000], "trial": 6, "serialpos": 3, "trial_type": "single-stim", "trial_index": 216, "time_elapsed": 1354971, "internal_node_id": "0.0-153.0"}}, {"uniqueid": "MTK0584:3A7Y0R2P2PVJF0S9YIYHNEMC9S7JX5", "current_trial": 217, "dateTime": 1511234636319, "trialdata": {"rt": -1, "stimulus": "<p id=\"stim\">KEEPER</p>", "key_press": -1, "type": "PRES_VIS", "word": "keeper", "wordID": 768, "conditions": [24, 1600, "v", 12000], "trial": 6, "serialpos": 4, "trial_type": "single-stim", "trial_index": 217, "time_elapsed": 1357568, "internal_node_id": "0.0-154.0"}}, {"uniqueid": "MTK0584:3A7Y0R2P2PVJF0S9YIYHNEMC9S7JX5", "current_trial": 218, "dateTime": 1511234639067, "trialdata": {"rt": -1, "stimulus": "<p id=\"stim\">POSSUM</p>", "key_press": -1, "type": "PRES_VIS", "word": "possum", "wordID": 1111, "conditions": [24, 1600, "v", 12000], "trial": 6, "serialpos": 5, "trial_type": "single-stim", "trial_index": 218, "time_elapsed": 1360316, "internal_node_id": "0.0-155.0"}}, {"uniqueid": "MTK0584:3A7Y0R2P2PVJF0S9YIYHNEMC9S7JX5", "current_trial": 219, "dateTime": 1511234641593, "trialdata": {"rt": -1, "stimulus": "<p id=\"stim\">DRAGON</p>", "key_press": -1, "type": "PRES_VIS", "word": "dragon", "wordID": 491, "conditions": [24, 1600, "v", 12000], "trial": 6, "serialpos": 6, "trial_type": "single-stim", "trial_index": 219, "time_elapsed": 1362841, "internal_node_id": "0.0-156.0"}}, {"uniqueid": "MTK0584:3A7Y0R2P2PVJF0S9YIYHNEMC9S7JX5", "current_trial": 220, "dateTime": 1511234644273, "trialdata": {"rt": -1, "stimulus": "<p id=\"stim\">CREATURE</p>", "key_press": -1, "type": "PRES_VIS", "word": "creature", "wordID": 402, "conditions": [24, 1600, "v", 12000], "trial": 6, "serialpos": 7, "trial_type": "single-stim", "trial_index": 220, "time_elapsed": 1365522, "internal_node_id": "0.0-157.0"}}, {"uniqueid": "MTK0584:3A7Y0R2P2PVJF0S9YIYHNEMC9S7JX5", "current_trial": 221, "dateTime": 1511234646681, "trialdata": {"rt": -1, "stimulus": "<p id=\"stim\">HELMET</p>", "key_press": -1, "type": "PRES_VIS", "word": "helmet", "wordID": 701, "conditions": [24, 1600, "v", 12000], "trial": 6, "serialpos": 8, "trial_type": "single-stim", "trial_index": 221, "time_elapsed": 1367929, "internal_node_id": "0.0-158.0"}}, {"uniqueid": "MTK0584:3A7Y0R2P2PVJF0S9YIYHNEMC9S7JX5", "current_trial": 222, "dateTime": 1511234649100, "trialdata": {"rt": -1, "stimulus": "<p id=\"stim\">PENGUIN</p>", "key_press": -1, "type": "PRES_VIS", "word": "penguin", "wordID": 1043, "conditions": [24, 1600, "v", 12000], "trial": 6, "serialpos": 9, "trial_type": "single-stim", "trial_index": 222, "time_elapsed": 1370349, "internal_node_id": "0.0-159.0"}}, {"uniqueid": "MTK0584:3A7Y0R2P2PVJF0S9YIYHNEMC9S7JX5", "current_trial": 223, "dateTime": 1511234651817, "trialdata": {"rt": -1, "stimulus": "<p id=\"stim\">QUARTER</p>", "key_press": -1, "type": "PRES_VIS", "word": "quarter", "wordID": 1147, "conditions": [24, 1600, "v", 12000], "trial": 6, "serialpos": 10, "trial_type": "single-stim", "trial_index": 223, "time_elapsed": 1373066, "internal_node_id": "0.0-160.0"}}, {"uniqueid": "MTK0584:3A7Y0R2P2PVJF0S9YIYHNEMC9S7JX5", "current_trial": 224, "dateTime": 1511234654331, "trialdata": {"rt": -1, "stimulus": "<p id=\"stim\">LIZARD</p>", "key_press": -1, "type": "PRES_VIS", "word": "lizard", "wordID": 833, "conditions": [24, 1600, "v", 12000], "trial": 6, "serialpos": 11, "trial_type": "single-stim", "trial_index": 224, "time_elapsed": 1375579, "internal_node_id": "0.0-161.0"}}, {"uniqueid": "MTK0584:3A7Y0R2P2PVJF0S9YIYHNEMC9S7JX5", "current_trial": 225, "dateTime": 1511234656969, "trialdata": {"rt": -1, "stimulus": "<p id=\"stim\">SPARROW</p>", "key_press": -1, "type": "PRES_VIS", "word": "sparrow", "wordID": 1346, "conditions": [24, 1600, "v", 12000], "trial": 6, "serialpos": 12, "trial_type": "single-stim", "trial_index": 225, "time_elapsed": 1378217, "internal_node_id": "0.0-162.0"}}, {"uniqueid": "MTK0584:3A7Y0R2P2PVJF0S9YIYHNEMC9S7JX5", "current_trial": 226, "dateTime": 1511234659766, "trialdata": {"rt": -1, "stimulus": "<p id=\"stim\">DAISY</p>", "key_press": -1, "type": "PRES_VIS", "word": "daisy", "wordID": 434, "conditions": [24, 1600, "v", 12000], "trial": 6, "serialpos": 13, "trial_type": "single-stim", "trial_index": 226, "time_elapsed": 1381015, "internal_node_id": "0.0-163.0"}}, {"uniqueid": "MTK0584:3A7Y0R2P2PVJF0S9YIYHNEMC9S7JX5", "current_trial": 227, "dateTime": 1511234662538, "trialdata": {"rt": -1, "stimulus": "<p id=\"stim\">FREEZER</p>", "key_press": -1, "type": "PRES_VIS", "word": "freezer", "wordID": 603, "conditions": [24, 1600, "v", 12000], "trial": 6, "serialpos": 14, "trial_type": "single-stim", "trial_index": 227, "time_elapsed": 1383787, "internal_node_id": "0.0-164.0"}}, {"uniqueid": "MTK0584:3A7Y0R2P2PVJF0S9YIYHNEMC9S7JX5", "current_trial": 228, "dateTime": 1511234665048, "trialdata": {"rt": -1, "stimulus": "<p id=\"stim\">LAGOON</p>", "key_press": -1, "type": "PRES_VIS", "word": "lagoon", "wordID": 794, "conditions": [24, 1600, "v", 12000], "trial": 6, "serialpos": 15, "trial_type": "single-stim", "trial_index": 228, "time_elapsed": 1386296, "internal_node_id": "0.0-165.0"}}, {"uniqueid": "MTK0584:3A7Y0R2P2PVJF0S9YIYHNEMC9S7JX5", "current_trial": 229, "dateTime": 1511234667660, "trialdata": {"rt": -1, "stimulus": "<p id=\"stim\">MILDEW</p>", "key_press": -1, "type": "PRES_VIS", "word": "mildew", "wordID": 892, "conditions": [24, 1600, "v", 12000], "trial": 6, "serialpos": 16, "trial_type": "single-stim", "trial_index": 229, "time_elapsed": 1388909, "internal_node_id": "0.0-166.0"}}, {"uniqueid": "MTK0584:3A7Y0R2P2PVJF0S9YIYHNEMC9S7JX5", "current_trial": 230, "dateTime": 1511234670216, "trialdata": {"rt": -1, "stimulus": "<p id=\"stim\">DRIVER</p>", "key_press": -1, "type": "PRES_VIS", "word": "driver", "wordID": 498, "conditions": [24, 1600, "v", 12000], "trial": 6, "serialpos": 17, "trial_type": "single-stim", "trial_index": 230, "time_elapsed": 1391464, "internal_node_id": "0.0-167.0"}}, {"uniqueid": "MTK0584:3A7Y0R2P2PVJF0S9YIYHNEMC9S7JX5", "current_trial": 231, "dateTime": 1511234672827, "trialdata": {"rt": -1, "stimulus": "<p id=\"stim\">LAKE</p>", "key_press": -1, "type": "PRES_VIS", "word": "lake", "wordID": 795, "conditions": [24, 1600, "v", 12000], "trial": 6, "serialpos": 18, "trial_type": "single-stim", "trial_index": 231, "time_elapsed": 1394075, "internal_node_id": "0.0-168.0"}}, {"uniqueid": "MTK0584:3A7Y0R2P2PVJF0S9YIYHNEMC9S7JX5", "current_trial": 232, "dateTime": 1511234675488, "trialdata": {"rt": -1, "stimulus": "<p id=\"stim\">BATHTUB</p>", "key_press": -1, "type": "PRES_VIS", "word": "bathtub", "wordID": 99, "conditions": [24, 1600, "v", 12000], "trial": 6, "serialpos": 19, "trial_type": "single-stim", "trial_index": 232, "time_elapsed": 1396736, "internal_node_id": "0.0-169.0"}}, {"uniqueid": "MTK0584:3A7Y0R2P2PVJF0S9YIYHNEMC9S7JX5", "current_trial": 233, "dateTime": 1511234678188, "trialdata": {"rt": -1, "stimulus": "<p id=\"stim\">THREAD</p>", "key_press": -1, "type": "PRES_VIS", "word": "thread", "wordID": 1459, "conditions": [24, 1600, "v", 12000], "trial": 6, "serialpos": 20, "trial_type": "single-stim", "trial_index": 233, "time_elapsed": 1399437, "internal_node_id": "0.0-170.0"}}, {"uniqueid": "MTK0584:3A7Y0R2P2PVJF0S9YIYHNEMC9S7JX5", "current_trial": 234, "dateTime": 1511234680994, "trialdata": {"rt": -1, "stimulus": "<p id=\"stim\">KIDNEY</p>", "key_press": -1, "type": "PRES_VIS", "word": "kidney", "wordID": 775, "conditions": [24, 1600, "v", 12000], "trial": 6, "serialpos": 21, "trial_type": "single-stim", "trial_index": 234, "time_elapsed": 1402239, "internal_node_id": "0.0-171.0"}}, {"uniqueid": "MTK0584:3A7Y0R2P2PVJF0S9YIYHNEMC9S7JX5", "current_trial": 235, "dateTime": 1511234683690, "trialdata": {"rt": -1, "stimulus": "<p id=\"stim\">LIVER</p>", "key_press": -1, "type": "PRES_VIS", "word": "liver", "wordID": 832, "conditions": [24, 1600, "v", 12000], "trial": 6, "serialpos": 22, "trial_type": "single-stim", "trial_index": 235, "time_elapsed": 1404938, "internal_node_id": "0.0-172.0"}}, {"uniqueid": "MTK0584:3A7Y0R2P2PVJF0S9YIYHNEMC9S7JX5", "current_trial": 236, "dateTime": 1511234686437, "trialdata": {"rt": -1, "stimulus": "<p id=\"stim\">ARMY</p>", "key_press": -1, "type": "PRES_VIS", "word": "army", "wordID": 38, "conditions": [24, 1600, "v", 12000], "trial": 6, "serialpos": 23, "trial_type": "single-stim", "trial_index": 236, "time_elapsed": 1407685, "internal_node_id": "0.0-173.0"}}, {"uniqueid": "MTK0584:3A7Y0R2P2PVJF0S9YIYHNEMC9S7JX5", "current_trial": 237, "dateTime": 1511234688762, "trialdata": {"rt": -1, "stimulus": "", "key_press": -1, "type": "PRE_RECALL_DELAY", "trial_type": "single-stim", "trial_index": 237, "time_elapsed": 1410011, "internal_node_id": "0.0-174.0-0.0"}}, {"uniqueid": "MTK0584:3A7Y0R2P2PVJF0S9YIYHNEMC9S7JX5", "current_trial": 238, "dateTime": 1511234689263, "trialdata": {"rt": -1000, "stimulus": "/static/audio/400Hz.wav", "key_press": -1, "type": "PRE_RECALL_ALERT", "trial_type": "single-audio", "trial_index": 238, "time_elapsed": 1410512, "internal_node_id": "0.0-175.0"}}, {"uniqueid": "MTK0584:3A7Y0R2P2PVJF0S9YIYHNEMC9S7JX5", "current_trial": 239, "dateTime": 1511234749291, "trialdata": {"rt": [2715, 5331, 7771, 9962, 12048, 15122, 16602, 19194, 21466, 25675, 27402, 29322, 30891, 33546, 43987, 49058, 51666], "recwords": ["daisy", "lagoon", "mildew", "bathtub", "thread", "mildew", "army", "lagoon", "hamper", "lizard", "sparrow", "rabbit", "lizard", "possum", "driver", "hamper", "pistol"], "type": "FREE_RECALL", "conditions": [24, 1600, "v", 12000], "trial": 6, "trial_type": "free-recall", "trial_index": 239, "time_elapsed": 1470517, "internal_node_id": "0.0-176.0-0.0"}}, {"uniqueid": "MTK0584:3A7Y0R2P2PVJF0S9YIYHNEMC9S7JX5", "current_trial": 240, "dateTime": 1511234752710, "trialdata": {"rt": 1418, "key_press": 32, "type": "INSTRUCTIONS", "trial_type": "text", "trial_index": 240, "time_elapsed": 1473959, "internal_node_id": "0.0-177.0"}}, {"uniqueid": "MTK0584:3A7Y0R2P2PVJF0S9YIYHNEMC9S7JX5", "current_trial": 241, "dateTime": 1511234778718, "trialdata": {"rt": [2513, 5729, 7457, 9985, 12057, 13953, 16505, 18873, 20993, 22625], "responses": ["10", "19", "10", "17", "17", "11", "18", "13", "15", "13"], "num1": [4, 8, 1, 4, 8, 2, 4, 6, 5, 6, 4], "num2": [2, 6, 6, 6, 1, 7, 9, 5, 4, 4, 8], "num3": [4, 5, 3, 7, 8, 2, 5, 2, 6, 3, 2], "type": "DISTRACTOR", "conditions": [24, 1600, "a", 24000], "trial": 7, "trial_type": "math-distractor", "trial_index": 241, "time_elapsed": 1499966, "internal_node_id": "0.0-178.0"}}, {"uniqueid": "MTK0584:3A7Y0R2P2PVJF0S9YIYHNEMC9S7JX5", "current_trial": 242, "dateTime": 1511234781720, "trialdata": {"rt": -1, "stimulus": "<p id=\"stim\">10</p>", "key_press": -1, "trial_type": "single-stim", "trial_index": 242, "time_elapsed": 1502969, "internal_node_id": "0.0-179.0-0.0"}}, {"uniqueid": "MTK0584:3A7Y0R2P2PVJF0S9YIYHNEMC9S7JX5", "current_trial": 243, "dateTime": 1511234782722, "trialdata": {"rt": -1, "stimulus": "<p id=\"stim\">9</p>", "key_press": -1, "trial_type": "single-stim", "trial_index": 243, "time_elapsed": 1503971, "internal_node_id": "0.0-179.0-1.0"}}, {"uniqueid": "MTK0584:3A7Y0R2P2PVJF0S9YIYHNEMC9S7JX5", "current_trial": 244, "dateTime": 1511234783724, "trialdata": {"rt": -1, "stimulus": "<p id=\"stim\">8</p>", "key_press": -1, "trial_type": "single-stim", "trial_index": 244, "time_elapsed": 1504973, "internal_node_id": "0.0-179.0-2.0"}}, {"uniqueid": "MTK0584:3A7Y0R2P2PVJF0S9YIYHNEMC9S7JX5", "current_trial": 245, "dateTime": 1511234784727, "trialdata": {"rt": -1, "stimulus": "<p id=\"stim\">7</p>", "key_press": -1, "trial_type": "single-stim", "trial_index": 245, "time_elapsed": 1505976, "internal_node_id": "0.0-179.0-3.0"}}, {"uniqueid": "MTK0584:3A7Y0R2P2PVJF0S9YIYHNEMC9S7JX5", "current_trial": 246, "dateTime": 1511234785729, "trialdata": {"rt": -1, "stimulus": "<p id=\"stim\">6</p>", "key_press": -1, "trial_type": "single-stim", "trial_index": 246, "time_elapsed": 1506977, "internal_node_id": "0.0-179.0-4.0"}}, {"uniqueid": "MTK0584:3A7Y0R2P2PVJF0S9YIYHNEMC9S7JX5", "current_trial": 247, "dateTime": 1511234786732, "trialdata": {"rt": -1, "stimulus": "<p id=\"stim\">5</p>", "key_press": -1, "trial_type": "single-stim", "trial_index": 247, "time_elapsed": 1507980, "internal_node_id": "0.0-179.0-5.0"}}, {"uniqueid": "MTK0584:3A7Y0R2P2PVJF0S9YIYHNEMC9S7JX5", "current_trial": 248, "dateTime": 1511234787768, "trialdata": {"rt": -1, "stimulus": "<p id=\"stim\">4</p>", "key_press": -1, "trial_type": "single-stim", "trial_index": 248, "time_elapsed": 1508983, "internal_node_id": "0.0-179.0-6.0"}}, {"uniqueid": "MTK0584:3A7Y0R2P2PVJF0S9YIYHNEMC9S7JX5", "current_trial": 249, "dateTime": 1511234788769, "trialdata": {"rt": -1, "stimulus": "<p id=\"stim\">3</p>", "key_press": -1, "trial_type": "single-stim", "trial_index": 249, "time_elapsed": 1510018, "internal_node_id": "0.0-179.0-7.0"}}, {"uniqueid": "MTK0584:3A7Y0R2P2PVJF0S9YIYHNEMC9S7JX5", "current_trial": 250, "dateTime": 1511234789773, "trialdata": {"rt": -1, "stimulus": "<p id=\"stim\">2</p>", "key_press": -1, "trial_type": "single-stim", "trial_index": 250, "time_elapsed": 1511021, "internal_node_id": "0.0-179.0-8.0"}}, {"uniqueid": "MTK0584:3A7Y0R2P2PVJF0S9YIYHNEMC9S7JX5", "current_trial": 251, "dateTime": 1511234790774, "trialdata": {"rt": -1, "stimulus": "<p id=\"stim\">1</p>", "key_press": -1, "trial_type": "single-stim", "trial_index": 251, "time_elapsed": 1512023, "internal_node_id": "0.0-179.0-9.0"}}, {"uniqueid": "MTK0584:3A7Y0R2P2PVJF0S9YIYHNEMC9S7JX5", "current_trial": 252, "dateTime": 1511234792277, "trialdata": {"rt": -1, "stimulus": "<p id=\"stim\">+</p>", "key_press": -1, "type": "FIXATION", "trial_type": "single-stim", "trial_index": 252, "time_elapsed": 1513526, "internal_node_id": "0.0-180.0-0.0"}}, {"uniqueid": "MTK0584:3A7Y0R2P2PVJF0S9YIYHNEMC9S7JX5", "current_trial": 253, "dateTime": 1511234794935, "trialdata": {"rt": -1000, "stimulus": "/static/audio/wordpool/FOOT.wav", "key_press": -1, "type": "PRES_AUD", "word": "foot", "wordID": 589, "conditions": [24, 1600, "a", 24000], "trial": 7, "serialpos": 0, "trial_type": "single-audio", "trial_index": 253, "time_elapsed": 1516184, "internal_node_id": "0.0-181.0"}}, {"uniqueid": "MTK0584:3A7Y0R2P2PVJF0S9YIYHNEMC9S7JX5", "current_trial": 254, "dateTime": 1511234797645, "trialdata": {"rt": -1000, "stimulus": "/static/audio/wordpool/MARKET.wav", "key_press": -1, "type": "PRES_AUD", "word": "market", "wordID": 870, "conditions": [24, 1600, "a", 24000], "trial": 7, "serialpos": 1, "trial_type": "single-audio", "trial_index": 254, "time_elapsed": 1518893, "internal_node_id": "0.0-182.0"}}, {"uniqueid": "MTK0584:3A7Y0R2P2PVJF0S9YIYHNEMC9S7JX5", "current_trial": 255, "dateTime": 1511234800221, "trialdata": {"rt": -1000, "stimulus": "/static/audio/wordpool/PILOT.wav", "key_press": -1, "type": "PRES_AUD", "word": "pilot", "wordID": 1069, "conditions": [24, 1600, "a", 24000], "trial": 7, "serialpos": 2, "trial_type": "single-audio", "trial_index": 255, "time_elapsed": 1521469, "internal_node_id": "0.0-183.0"}}, {"uniqueid": "MTK0584:3A7Y0R2P2PVJF0S9YIYHNEMC9S7JX5", "current_trial": 256, "dateTime": 1511234802982, "trialdata": {"rt": -1000, "stimulus": "/static/audio/wordpool/DINER.wav", "key_press": -1, "type": "PRES_AUD", "word": "diner", "wordID": 466, "conditions": [24, 1600, "a", 24000], "trial": 7, "serialpos": 3, "trial_type": "single-audio", "trial_index": 256, "time_elapsed": 1524231, "internal_node_id": "0.0-184.0"}}, {"uniqueid": "MTK0584:3A7Y0R2P2PVJF0S9YIYHNEMC9S7JX5", "current_trial": 257, "dateTime": 1511234805619, "trialdata": {"rt": -1000, "stimulus": "/static/audio/wordpool/PREACHER.wav", "key_press": -1, "type": "PRES_AUD", "word": "preacher", "wordID": 1118, "conditions": [24, 1600, "a", 24000], "trial": 7, "serialpos": 4, "trial_type": "single-audio", "trial_index": 257, "time_elapsed": 1526868, "internal_node_id": "0.0-185.0"}}, {"uniqueid": "MTK0584:3A7Y0R2P2PVJF0S9YIYHNEMC9S7JX5", "current_trial": 258, "dateTime": 1511234808311, "trialdata": {"rt": -1000, "stimulus": "/static/audio/wordpool/MACHINE.wav", "key_press": -1, "type": "PRES_AUD", "word": "machine", "wordID": 851, "conditions": [24, 1600, "a", 24000], "trial": 7, "serialpos": 5, "trial_type": "single-audio", "trial_index": 258, "time_elapsed": 1529559, "internal_node_id": "0.0-186.0"}}, {"uniqueid": "MTK0584:3A7Y0R2P2PVJF0S9YIYHNEMC9S7JX5", "current_trial": 259, "dateTime": 1511234811037, "trialdata": {"rt": -1000, "stimulus": "/static/audio/wordpool/SLUG.wav", "key_press": -1, "type": "PRES_AUD", "word": "slug", "wordID": 1328, "conditions": [24, 1600, "a", 24000], "trial": 7, "serialpos": 6, "trial_type": "single-audio", "trial_index": 259, "time_elapsed": 1532285, "internal_node_id": "0.0-187.0"}}, {"uniqueid": "MTK0584:3A7Y0R2P2PVJF0S9YIYHNEMC9S7JX5", "current_trial": 260, "dateTime": 1511234813622, "trialdata": {"rt": -1000, "stimulus": "/static/audio/wordpool/WAITRESS.wav", "key_press": -1, "type": "PRES_AUD", "word": "waitress", "wordID": 1580, "conditions": [24, 1600, "a", 24000], "trial": 7, "serialpos": 7, "trial_type": "single-audio", "trial_index": 260, "time_elapsed": 1534870, "internal_node_id": "0.0-188.0"}}, {"uniqueid": "MTK0584:3A7Y0R2P2PVJF0S9YIYHNEMC9S7JX5", "current_trial": 261, "dateTime": 1511234816181, "trialdata": {"rt": -1000, "stimulus": "/static/audio/wordpool/TURKEY.wav", "key_press": -1, "type": "PRES_AUD", "word": "turkey", "wordID": 1519, "conditions": [24, 1600, "a", 24000], "trial": 7, "serialpos": 8, "trial_type": "single-audio", "trial_index": 261, "time_elapsed": 1537429, "internal_node_id": "0.0-189.0"}}, {"uniqueid": "MTK0584:3A7Y0R2P2PVJF0S9YIYHNEMC9S7JX5", "current_trial": 262, "dateTime": 1511234818912, "trialdata": {"rt": -1000, "stimulus": "/static/audio/wordpool/QUAIL.wav", "key_press": -1, "type": "PRES_AUD", "word": "quail", "wordID": 1146, "conditions": [24, 1600, "a", 24000], "trial": 7, "serialpos": 9, "trial_type": "single-audio", "trial_index": 262, "time_elapsed": 1540161, "internal_node_id": "0.0-190.0"}}, {"uniqueid": "MTK0584:3A7Y0R2P2PVJF0S9YIYHNEMC9S7JX5", "current_trial": 263, "dateTime": 1511234821445, "trialdata": {"rt": -1000, "stimulus": "/static/audio/wordpool/MOTOR.wav", "key_press": -1, "type": "PRES_AUD", "word": "motor", "wordID": 921, "conditions": [24, 1600, "a", 24000], "trial": 7, "serialpos": 10, "trial_type": "single-audio", "trial_index": 263, "time_elapsed": 1542693, "internal_node_id": "0.0-191.0"}}, {"uniqueid": "MTK0584:3A7Y0R2P2PVJF0S9YIYHNEMC9S7JX5", "current_trial": 264, "dateTime": 1511234824143, "trialdata": {"rt": -1000, "stimulus": "/static/audio/wordpool/HERO.wav", "key_press": -1, "type": "PRES_AUD", "word": "hero", "wordID": 705, "conditions": [24, 1600, "a", 24000], "trial": 7, "serialpos": 11, "trial_type": "single-audio", "trial_index": 264, "time_elapsed": 1545391, "internal_node_id": "0.0-192.0"}}, {"uniqueid": "MTK0584:3A7Y0R2P2PVJF0S9YIYHNEMC9S7JX5", "current_trial": 265, "dateTime": 1511234826655, "trialdata": {"rt": -1000, "stimulus": "/static/audio/wordpool/BRIEFCASE.wav", "key_press": -1, "type": "PRES_AUD", "word": "briefcase", "wordID": 174, "conditions": [24, 1600, "a", 24000], "trial": 7, "serialpos": 12, "trial_type": "single-audio", "trial_index": 265, "time_elapsed": 1547904, "internal_node_id": "0.0-193.0"}}, {"uniqueid": "MTK0584:3A7Y0R2P2PVJF0S9YIYHNEMC9S7JX5", "current_trial": 266, "dateTime": 1511234829179, "trialdata": {"rt": -1000, "stimulus": "/static/audio/wordpool/MASK.wav", "key_press": -1, "type": "PRES_AUD", "word": "mask", "wordID": 875, "conditions": [24, 1600, "a", 24000], "trial": 7, "serialpos": 13, "trial_type": "single-audio", "trial_index": 266, "time_elapsed": 1550428, "internal_node_id": "0.0-194.0"}}, {"uniqueid": "MTK0584:3A7Y0R2P2PVJF0S9YIYHNEMC9S7JX5", "current_trial": 267, "dateTime": 1511234831840, "trialdata": {"rt": -1000, "stimulus": "/static/audio/wordpool/SUITCASE.wav", "key_press": -1, "type": "PRES_AUD", "word": "suitcase", "wordID": 1402, "conditions": [24, 1600, "a", 24000], "trial": 7, "serialpos": 14, "trial_type": "single-audio", "trial_index": 267, "time_elapsed": 1553089, "internal_node_id": "0.0-195.0"}}, {"uniqueid": "MTK0584:3A7Y0R2P2PVJF0S9YIYHNEMC9S7JX5", "current_trial": 268, "dateTime": 1511234834433, "trialdata": {"rt": -1000, "stimulus": "/static/audio/wordpool/PIANO.wav", "key_press": -1, "type": "PRES_AUD", "word": "piano", "wordID": 1056, "conditions": [24, 1600, "a", 24000], "trial": 7, "serialpos": 15, "trial_type": "single-audio", "trial_index": 268, "time_elapsed": 1555681, "internal_node_id": "0.0-196.0"}}, {"uniqueid": "MTK0584:3A7Y0R2P2PVJF0S9YIYHNEMC9S7JX5", "current_trial": 269, "dateTime": 1511234836860, "trialdata": {"rt": -1000, "stimulus": "/static/audio/wordpool/NIGHTGOWN.wav", "key_press": -1, "type": "PRES_AUD", "word": "nightgown", "wordID": 952, "conditions": [24, 1600, "a", 24000], "trial": 7, "serialpos": 16, "trial_type": "single-audio", "trial_index": 269, "time_elapsed": 1558108, "internal_node_id": "0.0-197.0"}}, {"uniqueid": "MTK0584:3A7Y0R2P2PVJF0S9YIYHNEMC9S7JX5", "current_trial": 270, "dateTime": 1511234839405, "trialdata": {"rt": -1000, "stimulus": "/static/audio/wordpool/LIPSTICK.wav", "key_press": -1, "type": "PRES_AUD", "word": "lipstick", "wordID": 828, "condi