{"condition": 0, "counterbalance": 306, "assignmentId": "3TDXMTX3CC1A1AO7FD4RB0USXV8I6T", "workerId": "MTK0072", "hitId": "322ZSN9Z5GRK8H2A0Z5E3PG3Z3I4TN", "currenttrial": 625, "bonus": 0, "data": [{"uniqueid": "MTK0072:3TDXMTX3CC1A1AO7FD4RB0USXV8I6T", "current_trial": 0, "dateTime": 1509129800244, "trialdata": {"rt": 4086, "key_press": 32, "type": "INSTRUCTIONS", "trial_type": "text", "trial_index": 0, "time_elapsed": 4090, "internal_node_id": "0.0-0.0"}}, {"uniqueid": "MTK0072:3TDXMTX3CC1A1AO7FD4RB0USXV8I6T", "current_trial": 1, "dateTime": 1509129817887, "trialdata": {"rt": 17641, "key_press": 77, "type": "INSTRUCTIONS", "trial_type": "text", "trial_index": 1, "time_elapsed": 21734, "internal_node_id": "0.0-1.0"}}, {"uniqueid": "MTK0072:3TDXMTX3CC1A1AO7FD4RB0USXV8I6T", "current_trial": 2, "dateTime": 1509129837715, "trialdata": {"rt": [19812], "responses": ["ocean"], "type": "AUDIO_TEST", "trial_type": "audio-test", "trial_index": 2, "time_elapsed": 41562, "internal_node_id": "0.0-2.0"}}, {"uniqueid": "MTK0072:3TDXMTX3CC1A1AO7FD4RB0USXV8I6T", "current_trial": 3, "dateTime": 1509129847501, "trialdata": {"rt": [9783], "responses": ["crystal"], "type": "AUDIO_TEST", "trial_type": "audio-test", "trial_index": 3, "time_elapsed": 51348, "internal_node_id": "0.0-3.0"}}, {"uniqueid": "MTK0072:3TDXMTX3CC1A1AO7FD4RB0USXV8I6T", "current_trial": 4, "dateTime": 1509129855731, "trialdata": {"rt": [8227], "responses": ["spice"], "type": "AUDIO_TEST", "trial_type": "audio-test", "trial_index": 4, "time_elapsed": 59578, "internal_node_id": "0.0-4.0"}}, {"uniqueid": "MTK0072:3TDXMTX3CC1A1AO7FD4RB0USXV8I6T", "current_trial": 5, "dateTime": 1509129860338, "trialdata": {"rt": 3855, "key_press": 32, "type": "INSTRUCTIONS", "trial_type": "text", "trial_index": 5, "time_elapsed": 64185, "internal_node_id": "0.0-5.0"}}, {"uniqueid": "MTK0072:3TDXMTX3CC1A1AO7FD4RB0USXV8I6T", "current_trial": 6, "dateTime": 1509129898804, "trialdata": {"rt": 38464, "key_press": 77, "type": "INSTRUCTIONS", "trial_type": "text", "trial_index": 6, "time_elapsed": 102651, "internal_node_id": "0.0-6.0"}}, {"uniqueid": "MTK0072:3TDXMTX3CC1A1AO7FD4RB0USXV8I6T", "current_trial": 7, "dateTime": 1509129911256, "trialdata": {"rt": 12450, "key_press": 32, "type": "INSTRUCTIONS", "trial_type": "text", "trial_index": 7, "time_elapsed": 115103, "internal_node_id": "0.0-7.0"}}, {"uniqueid": "MTK0072:3TDXMTX3CC1A1AO7FD4RB0USXV8I6T", "current_trial": 8, "dateTime": 1509129919569, "trialdata": {"rt": 8310, "key_press": 32, "type": "INSTRUCTIONS", "trial_type": "text", "trial_index": 8, "time_elapsed": 123415, "internal_node_id": "0.0-8.0"}}, {"uniqueid": "MTK0072:3TDXMTX3CC1A1AO7FD4RB0USXV8I6T", "current_trial": 9, "dateTime": 1509129938626, "trialdata": {"rt": [6144, 10473, 13368, 17157], "responses": ["22", "21", "5", "13"], "num1": [7, 9, 1, 4, 9], "num2": [7, 5, 3, 4, 8], "num3": [8, 7, 1, 5, 2], "type": "DISTRACTOR", "conditions": [18, 1200, "a", 18000], "trial": 0, "trial_type": "math-distractor", "trial_index": 9, "time_elapsed": 142472, "internal_node_id": "0.0-9.0"}}, {"uniqueid": "MTK0072:3TDXMTX3CC1A1AO7FD4RB0USXV8I6T", "current_trial": 10, "dateTime": 1509129941628, "trialdata": {"rt": -1, "stimulus": "<p id=\"stim\">10</p>", "key_press": -1, "trial_type": "single-stim", "trial_index": 10, "time_elapsed": 145475, "internal_node_id": "0.0-10.0-0.0"}}, {"uniqueid": "MTK0072:3TDXMTX3CC1A1AO7FD4RB0USXV8I6T", "current_trial": 11, "dateTime": 1509129942630, "trialdata": {"rt": -1, "stimulus": "<p id=\"stim\">9</p>", "key_press": -1, "trial_type": "single-stim", "trial_index": 11, "time_elapsed": 146477, "internal_node_id": "0.0-10.0-1.0"}}, {"uniqueid": "MTK0072:3TDXMTX3CC1A1AO7FD4RB0USXV8I6T", "current_trial": 12, "dateTime": 1509129943631, "trialdata": {"rt": -1, "stimulus": "<p id=\"stim\">8</p>", "key_press": -1, "trial_type": "single-stim", "trial_index": 12, "time_elapsed": 147478, "internal_node_id": "0.0-10.0-2.0"}}, {"uniqueid": "MTK0072:3TDXMTX3CC1A1AO7FD4RB0USXV8I6T", "current_trial": 13, "dateTime": 1509129944632, "trialdata": {"rt": -1, "stimulus": "<p id=\"stim\">7</p>", "key_press": -1, "trial_type": "single-stim", "trial_index": 13, "time_elapsed": 148479, "internal_node_id": "0.0-10.0-3.0"}}, {"uniqueid": "MTK0072:3TDXMTX3CC1A1AO7FD4RB0USXV8I6T", "current_trial": 14, "dateTime": 1509129945634, "trialdata": {"rt": -1, "stimulus": "<p id=\"stim\">6</p>", "key_press": -1, "trial_type": "single-stim", "trial_index": 14, "time_elapsed": 149481, "internal_node_id": "0.0-10.0-4.0"}}, {"uniqueid": "MTK0072:3TDXMTX3CC1A1AO7FD4RB0USXV8I6T", "current_trial": 15, "dateTime": 1509129946636, "trialdata": {"rt": -1, "stimulus": "<p id=\"stim\">5</p>", "key_press": -1, "trial_type": "single-stim", "trial_index": 15, "time_elapsed": 150483, "internal_node_id": "0.0-10.0-5.0"}}, {"uniqueid": "MTK0072:3TDXMTX3CC1A1AO7FD4RB0USXV8I6T", "current_trial": 16, "dateTime": 1509129947638, "trialdata": {"rt": -1, "stimulus": "<p id=\"stim\">4</p>", "key_press": -1, "trial_type": "single-stim", "trial_index": 16, "time_elapsed": 151484, "internal_node_id": "0.0-10.0-6.0"}}, {"uniqueid": "MTK0072:3TDXMTX3CC1A1AO7FD4RB0USXV8I6T", "current_trial": 17, "dateTime": 1509129948638, "trialdata": {"rt": -1, "stimulus": "<p id=\"stim\">3</p>", "key_press": -1, "trial_type": "single-stim", "trial_index": 17, "time_elapsed": 152485, "internal_node_id": "0.0-10.0-7.0"}}, {"uniqueid": "MTK0072:3TDXMTX3CC1A1AO7FD4RB0USXV8I6T", "current_trial": 18, "dateTime": 1509129949640, "trialdata": {"rt": -1, "stimulus": "<p id=\"stim\">2</p>", "key_press": -1, "trial_type": "single-stim", "trial_index": 18, "time_elapsed": 153487, "internal_node_id": "0.0-10.0-8.0"}}, {"uniqueid": "MTK0072:3TDXMTX3CC1A1AO7FD4RB0USXV8I6T", "current_trial": 19, "dateTime": 1509129950641, "trialdata": {"rt": -1, "stimulus": "<p id=\"stim\">1</p>", "key_press": -1, "trial_type": "single-stim", "trial_index": 19, "time_elapsed": 154488, "internal_node_id": "0.0-10.0-9.0"}}, {"uniqueid": "MTK0072:3TDXMTX3CC1A1AO7FD4RB0USXV8I6T", "current_trial": 20, "dateTime": 1509129952141, "trialdata": {"rt": -1, "stimulus": "<p id=\"stim\">+</p>", "key_press": -1, "type": "FIXATION", "trial_type": "single-stim", "trial_index": 20, "time_elapsed": 155988, "internal_node_id": "0.0-11.0-0.0"}}, {"uniqueid": "MTK0072:3TDXMTX3CC1A1AO7FD4RB0USXV8I6T", "current_trial": 21, "dateTime": 1509129954287, "trialdata": {"rt": -1000, "stimulus": "/static/audio/wordpool/PAPER.wav", "key_press": -1, "type": "PRES_AUD", "word": "paper", "wordID": 1010, "conditions": [18, 1200, "a", 18000], "trial": 0, "serialpos": 0, "trial_type": "single-audio", "trial_index": 21, "time_elapsed": 158131, "internal_node_id": "0.0-12.0"}}, {"uniqueid": "MTK0072:3TDXMTX3CC1A1AO7FD4RB0USXV8I6T", "current_trial": 22, "dateTime": 1509129956534, "trialdata": {"rt": -1000, "stimulus": "/static/audio/wordpool/PADDLE.wav", "key_press": -1, "type": "PRES_AUD", "word": "paddle", "wordID": 999, "conditions": [18, 1200, "a", 18000], "trial": 0, "serialpos": 1, "trial_type": "single-audio", "trial_index": 22, "time_elapsed": 160380, "internal_node_id": "0.0-13.0"}}, {"uniqueid": "MTK0072:3TDXMTX3CC1A1AO7FD4RB0USXV8I6T", "current_trial": 23, "dateTime": 1509129958777, "trialdata": {"rt": -1000, "stimulus": "/static/audio/wordpool/POSSUM.wav", "key_press": -1, "type": "PRES_AUD", "word": "possum", "wordID": 1111, "conditions": [18, 1200, "a", 18000], "trial": 0, "serialpos": 2, "trial_type": "single-audio", "trial_index": 23, "time_elapsed": 162624, "internal_node_id": "0.0-14.0"}}, {"uniqueid": "MTK0072:3TDXMTX3CC1A1AO7FD4RB0USXV8I6T", "current_trial": 24, "dateTime": 1509129961083, "trialdata": {"rt": -1000, "stimulus": "/static/audio/wordpool/MISTER.wav", "key_press": -1, "type": "PRES_AUD", "word": "mister", "wordID": 900, "conditions": [18, 1200, "a", 18000], "trial": 0, "serialpos": 3, "trial_type": "single-audio", "trial_index": 24, "time_elapsed": 164929, "internal_node_id": "0.0-15.0"}}, {"uniqueid": "MTK0072:3TDXMTX3CC1A1AO7FD4RB0USXV8I6T", "current_trial": 25, "dateTime": 1509129963307, "trialdata": {"rt": -1000, "stimulus": "/static/audio/wordpool/COUCH.wav", "key_press": -1, "type": "PRES_AUD", "word": "couch", "wordID": 385, "conditions": [18, 1200, "a", 18000], "trial": 0, "serialpos": 4, "trial_type": "single-audio", "trial_index": 25, "time_elapsed": 167153, "internal_node_id": "0.0-16.0"}}, {"uniqueid": "MTK0072:3TDXMTX3CC1A1AO7FD4RB0USXV8I6T", "current_trial": 26, "dateTime": 1509129965392, "trialdata": {"rt": -1000, "stimulus": "/static/audio/wordpool/BODY.wav", "key_press": -1, "type": "PRES_AUD", "word": "body", "wordID": 144, "conditions": [18, 1200, "a", 18000], "trial": 0, "serialpos": 5, "trial_type": "single-audio", "trial_index": 26, "time_elapsed": 169239, "internal_node_id": "0.0-17.0"}}, {"uniqueid": "MTK0072:3TDXMTX3CC1A1AO7FD4RB0USXV8I6T", "current_trial": 27, "dateTime": 1509129967693, "trialdata": {"rt": -1000, "stimulus": "/static/audio/wordpool/TART.wav", "key_press": -1, "type": "PRES_AUD", "word": "tart", "wordID": 1435, "conditions": [18, 1200, "a", 18000], "trial": 0, "serialpos": 6, "trial_type": "single-audio", "trial_index": 27, "time_elapsed": 171539, "internal_node_id": "0.0-18.0"}}, {"uniqueid": "MTK0072:3TDXMTX3CC1A1AO7FD4RB0USXV8I6T", "current_trial": 28, "dateTime": 1509129969911, "trialdata": {"rt": -1000, "stimulus": "/static/audio/wordpool/PUPPY.wav", "key_press": -1, "type": "PRES_AUD", "word": "puppy", "wordID": 1143, "conditions": [18, 1200, "a", 18000], "trial": 0, "serialpos": 7, "trial_type": "single-audio", "trial_index": 28, "time_elapsed": 173758, "internal_node_id": "0.0-19.0"}}, {"uniqueid": "MTK0072:3TDXMTX3CC1A1AO7FD4RB0USXV8I6T", "current_trial": 29, "dateTime": 1509129972097, "trialdata": {"rt": -1000, "stimulus": "/static/audio/wordpool/PATIENT.wav", "key_press": -1, "type": "PRES_AUD", "word": "patient", "wordID": 1023, "conditions": [18, 1200, "a", 18000], "trial": 0, "serialpos": 8, "trial_type": "single-audio", "trial_index": 29, "time_elapsed": 175944, "internal_node_id": "0.0-20.0"}}, {"uniqueid": "MTK0072:3TDXMTX3CC1A1AO7FD4RB0USXV8I6T", "current_trial": 30, "dateTime": 1509129974337, "trialdata": {"rt": -1000, "stimulus": "/static/audio/wordpool/TRUCK.wav", "key_press": -1, "type": "PRES_AUD", "word": "truck", "wordID": 1511, "conditions": [18, 1200, "a", 18000], "trial": 0, "serialpos": 9, "trial_type": "single-audio", "trial_index": 30, "time_elapsed": 178184, "internal_node_id": "0.0-21.0"}}, {"uniqueid": "MTK0072:3TDXMTX3CC1A1AO7FD4RB0USXV8I6T", "current_trial": 31, "dateTime": 1509129976627, "trialdata": {"rt": -1000, "stimulus": "/static/audio/wordpool/PASTA.wav", "key_press": -1, "type": "PRES_AUD", "word": "pasta", "wordID": 1020, "conditions": [18, 1200, "a", 18000], "trial": 0, "serialpos": 10, "trial_type": "single-audio", "trial_index": 31, "time_elapsed": 180474, "internal_node_id": "0.0-22.0"}}, {"uniqueid": "MTK0072:3TDXMTX3CC1A1AO7FD4RB0USXV8I6T", "current_trial": 32, "dateTime": 1509129978858, "trialdata": {"rt": -1000, "stimulus": "/static/audio/wordpool/LUMBER.wav", "key_press": -1, "type": "PRES_AUD", "word": "lumber", "wordID": 847, "conditions": [18, 1200, "a", 18000], "trial": 0, "serialpos": 11, "trial_type": "single-audio", "trial_index": 32, "time_elapsed": 182705, "internal_node_id": "0.0-23.0"}}, {"uniqueid": "MTK0072:3TDXMTX3CC1A1AO7FD4RB0USXV8I6T", "current_trial": 33, "dateTime": 1509129981182, "trialdata": {"rt": -1000, "stimulus": "/static/audio/wordpool/SWITCH.wav", "key_press": -1, "type": "PRES_AUD", "word": "switch", "wordID": 1421, "conditions": [18, 1200, "a", 18000], "trial": 0, "serialpos": 12, "trial_type": "single-audio", "trial_index": 33, "time_elapsed": 185029, "internal_node_id": "0.0-24.0"}}, {"uniqueid": "MTK0072:3TDXMTX3CC1A1AO7FD4RB0USXV8I6T", "current_trial": 34, "dateTime": 1509129983567, "trialdata": {"rt": -1000, "stimulus": "/static/audio/wordpool/WRENCH.wav", "key_press": -1, "type": "PRES_AUD", "word": "wrench", "wordID": 1624, "conditions": [18, 1200, "a", 18000], "trial": 0, "serialpos": 13, "trial_type": "single-audio", "trial_index": 34, "time_elapsed": 187414, "internal_node_id": "0.0-25.0"}}, {"uniqueid": "MTK0072:3TDXMTX3CC1A1AO7FD4RB0USXV8I6T", "current_trial": 35, "dateTime": 1509129985812, "trialdata": {"rt": -1000, "stimulus": "/static/audio/wordpool/CREATURE.wav", "key_press": -1, "type": "PRES_AUD", "word": "creature", "wordID": 402, "conditions": [18, 1200, "a", 18000], "trial": 0, "serialpos": 14, "trial_type": "single-audio", "trial_index": 35, "time_elapsed": 189659, "internal_node_id": "0.0-26.0"}}, {"uniqueid": "MTK0072:3TDXMTX3CC1A1AO7FD4RB0USXV8I6T", "current_trial": 36, "dateTime": 1509129987853, "trialdata": {"rt": -1000, "stimulus": "/static/audio/wordpool/DONOR.wav", "key_press": -1, "type": "PRES_AUD", "word": "donor", "wordID": 484, "conditions": [18, 1200, "a", 18000], "trial": 0, "serialpos": 15, "trial_type": "single-audio", "trial_index": 36, "time_elapsed": 191700, "internal_node_id": "0.0-27.0"}}, {"uniqueid": "MTK0072:3TDXMTX3CC1A1AO7FD4RB0USXV8I6T", "current_trial": 37, "dateTime": 1509129990243, "trialdata": {"rt": -1000, "stimulus": "/static/audio/wordpool/PACKAGE.wav", "key_press": -1, "type": "PRES_AUD", "word": "package", "wordID": 996, "conditions": [18, 1200, "a", 18000], "trial": 0, "serialpos": 16, "trial_type": "single-audio", "trial_index": 37, "time_elapsed": 194089, "internal_node_id": "0.0-28.0"}}, {"uniqueid": "MTK0072:3TDXMTX3CC1A1AO7FD4RB0USXV8I6T", "current_trial": 38, "dateTime": 1509129992653, "trialdata": {"rt": -1000, "stimulus": "/static/audio/wordpool/SNAIL.wav", "key_press": -1, "type": "PRES_AUD", "word": "snail", "wordID": 1331, "conditions": [18, 1200, "a", 18000], "trial": 0, "serialpos": 17, "trial_type": "single-audio", "trial_index": 38, "time_elapsed": 196500, "internal_node_id": "0.0-29.0"}}, {"uniqueid": "MTK0072:3TDXMTX3CC1A1AO7FD4RB0USXV8I6T", "current_trial": 39, "dateTime": 1509129993994, "trialdata": {"rt": -1, "stimulus": "", "key_press": -1, "type": "PRE_RECALL_DELAY", "trial_type": "single-stim", "trial_index": 39, "time_elapsed": 197841, "internal_node_id": "0.0-30.0-0.0"}}, {"uniqueid": "MTK0072:3TDXMTX3CC1A1AO7FD4RB0USXV8I6T", "current_trial": 40, "dateTime": 1509129994500, "trialdata": {"rt": -1000, "stimulus": "/static/audio/400Hz.wav", "key_press": -1, "type": "PRE_RECALL_ALERT", "trial_type": "single-audio", "trial_index": 40, "time_elapsed": 198347, "internal_node_id": "0.0-31.0"}}, {"uniqueid": "MTK0072:3TDXMTX3CC1A1AO7FD4RB0USXV8I6T", "current_trial": 41, "dateTime": 1509130054510, "trialdata": {"rt": [4315, 6846, 11452, 14463, 18667, 34483, 37789], "recwords": ["paper", "snail", "package", "pasta", "", "wrench", ""], "type": "FREE_RECALL", "conditions": [18, 1200, "a", 18000], "trial": 0, "trial_type": "free-recall", "trial_index": 41, "time_elapsed": 258351, "internal_node_id": "0.0-32.0-0.0"}}, {"uniqueid": "MTK0072:3TDXMTX3CC1A1AO7FD4RB0USXV8I6T", "current_trial": 42, "dateTime": 1509130058841, "trialdata": {"rt": 2329, "key_press": 32, "type": "INSTRUCTIONS", "trial_type": "text", "trial_index": 42, "time_elapsed": 262688, "internal_node_id": "0.0-33.0"}}, {"uniqueid": "MTK0072:3TDXMTX3CC1A1AO7FD4RB0USXV8I6T", "current_trial": 43, "dateTime": 1509130078851, "trialdata": {"rt": [3776, 8412, 11470, 15113], "responses": ["13", "15", "11", "17"], "num1": [1, 8, 1, 8, 2], "num2": [8, 6, 6, 7, 4], "num3": [4, 1, 4, 2, 9], "type": "DISTRACTOR", "conditions": [18, 1200, "v", 18000], "trial": 1, "trial_type": "math-distractor", "trial_index": 43, "time_elapsed": 282698, "internal_node_id": "0.0-34.0"}}, {"uniqueid": "MTK0072:3TDXMTX3CC1A1AO7FD4RB0USXV8I6T", "current_trial": 44, "dateTime": 1509130081854, "trialdata": {"rt": -1, "stimulus": "<p id=\"stim\">10</p>", "key_press": -1, "trial_type": "single-stim", "trial_index": 44, "time_elapsed": 285701, "internal_node_id": "0.0-35.0-0.0"}}, {"uniqueid": "MTK0072:3TDXMTX3CC1A1AO7FD4RB0USXV8I6T", "current_trial": 45, "dateTime": 1509130082855, "trialdata": {"rt": -1, "stimulus": "<p id=\"stim\">9</p>", "key_press": -1, "trial_type": "single-stim", "trial_index": 45, "time_elapsed": 286702, "internal_node_id": "0.0-35.0-1.0"}}, {"uniqueid": "MTK0072:3TDXMTX3CC1A1AO7FD4RB0USXV8I6T", "current_trial": 46, "dateTime": 1509130083858, "trialdata": {"rt": -1, "stimulus": "<p id=\"stim\">8</p>", "key_press": -1, "trial_type": "single-stim", "trial_index": 46, "time_elapsed": 287705, "internal_node_id": "0.0-35.0-2.0"}}, {"uniqueid": "MTK0072:3TDXMTX3CC1A1AO7FD4RB0USXV8I6T", "current_trial": 47, "dateTime": 1509130084860, "trialdata": {"rt": -1, "stimulus": "<p id=\"stim\">7</p>", "key_press": -1, "trial_type": "single-stim", "trial_index": 47, "time_elapsed": 288707, "internal_node_id": "0.0-35.0-3.0"}}, {"uniqueid": "MTK0072:3TDXMTX3CC1A1AO7FD4RB0USXV8I6T", "current_trial": 48, "dateTime": 1509130085862, "trialdata": {"rt": -1, "stimulus": "<p id=\"stim\">6</p>", "key_press": -1, "trial_type": "single-stim", "trial_index": 48, "time_elapsed": 289708, "internal_node_id": "0.0-35.0-4.0"}}, {"uniqueid": "MTK0072:3TDXMTX3CC1A1AO7FD4RB0USXV8I6T", "current_trial": 49, "dateTime": 1509130086863, "trialdata": {"rt": -1, "stimulus": "<p id=\"stim\">5</p>", "key_press": -1, "trial_type": "single-stim", "trial_index": 49, "time_elapsed": 290710, "internal_node_id": "0.0-35.0-5.0"}}, {"uniqueid": "MTK0072:3TDXMTX3CC1A1AO7FD4RB0USXV8I6T", "current_trial": 50, "dateTime": 1509130087865, "trialdata": {"rt": -1, "stimulus": "<p id=\"stim\">4</p>", "key_press": -1, "trial_type": "single-stim", "trial_index": 50, "time_elapsed": 291711, "internal_node_id": "0.0-35.0-6.0"}}, {"uniqueid": "MTK0072:3TDXMTX3CC1A1AO7FD4RB0USXV8I6T", "current_trial": 51, "dateTime": 1509130088867, "trialdata": {"rt": -1, "stimulus": "<p id=\"stim\">3</p>", "key_press": -1, "trial_type": "single-stim", "trial_index": 51, "time_elapsed": 292714, "internal_node_id": "0.0-35.0-7.0"}}, {"uniqueid": "MTK0072:3TDXMTX3CC1A1AO7FD4RB0USXV8I6T", "current_trial": 52, "dateTime": 1509130089870, "trialdata": {"rt": -1, "stimulus": "<p id=\"stim\">2</p>", "key_press": -1, "trial_type": "single-stim", "trial_index": 52, "time_elapsed": 293717, "internal_node_id": "0.0-35.0-8.0"}}, {"uniqueid": "MTK0072:3TDXMTX3CC1A1AO7FD4RB0USXV8I6T", "current_trial": 53, "dateTime": 1509130090872, "trialdata": {"rt": -1, "stimulus": "<p id=\"stim\">1</p>", "key_press": -1, "trial_type": "single-stim", "trial_index": 53, "time_elapsed": 294719, "internal_node_id": "0.0-35.0-9.0"}}, {"uniqueid": "MTK0072:3TDXMTX3CC1A1AO7FD4RB0USXV8I6T", "current_trial": 54, "dateTime": 1509130092375, "trialdata": {"rt": -1, "stimulus": "<p id=\"stim\">+</p>", "key_press": -1, "type": "FIXATION", "trial_type": "single-stim", "trial_index": 54, "time_elapsed": 296221, "internal_node_id": "0.0-36.0-0.0"}}, {"uniqueid": "MTK0072:3TDXMTX3CC1A1AO7FD4RB0USXV8I6T", "current_trial": 55, "dateTime": 1509130093580, "trialdata": {"rt": -1, "stimulus": "<p id=\"stim\">STAPLE</p>", "key_press": -1, "type": "PRES_VIS", "word": "staple", "wordID": 1370, "conditions": [18, 1200, "v", 18000], "trial": 1, "serialpos": 0, "trial_type": "single-stim", "trial_index": 55, "time_elapsed": 297427, "internal_node_id": "0.0-37.0"}}, {"uniqueid": "MTK0072:3TDXMTX3CC1A1AO7FD4RB0USXV8I6T", "current_trial": 56, "dateTime": 1509130095693, "trialdata": {"rt": -1, "stimulus": "<p id=\"stim\">HOUND</p>", "key_press": -1, "type": "PRES_VIS", "word": "hound", "wordID": 723, "conditions": [18, 1200, "v", 18000], "trial": 1, "serialpos": 1, "trial_type": "single-stim", "trial_index": 56, "time_elapsed": 299539, "internal_node_id": "0.0-38.0"}}, {"uniqueid": "MTK0072:3TDXMTX3CC1A1AO7FD4RB0USXV8I6T", "current_trial": 57, "dateTime": 1509130097790, "trialdata": {"rt": -1, "stimulus": "<p id=\"stim\">CANDY</p>", "key_press": -1, "type": "PRES_VIS", "word": "candy", "wordID": 229, "conditions": [18, 1200, "v", 18000], "trial": 1, "serialpos": 2, "trial_type": "single-stim", "trial_index": 57, "time_elapsed": 301637, "internal_node_id": "0.0-39.0"}}, {"uniqueid": "MTK0072:3TDXMTX3CC1A1AO7FD4RB0USXV8I6T", "current_trial": 58, "dateTime": 1509130100096, "trialdata": {"rt": -1, "stimulus": "<p id=\"stim\">GUITAR</p>", "key_press": -1, "type": "PRES_VIS", "word": "guitar", "wordID": 669, "conditions": [18, 1200, "v", 18000], "trial": 1, "serialpos": 3, "trial_type": "single-stim", "trial_index": 58, "time_elapsed": 303943, "internal_node_id": "0.0-40.0"}}, {"uniqueid": "MTK0072:3TDXMTX3CC1A1AO7FD4RB0USXV8I6T", "current_trial": 59, "dateTime": 1509130102419, "trialdata": {"rt": -1, "stimulus": "<p id=\"stim\">SCARECROW</p>", "key_press": -1, "type": "PRES_VIS", "word": "scarecrow", "wordID": 1244, "conditions": [18, 1200, "v", 18000], "trial": 1, "serialpos": 4, "trial_type": "single-stim", "trial_index": 59, "time_elapsed": 306265, "internal_node_id": "0.0-41.0"}}, {"uniqueid": "MTK0072:3TDXMTX3CC1A1AO7FD4RB0USXV8I6T", "current_trial": 60, "dateTime": 1509130104585, "trialdata": {"rt": -1, "stimulus": "<p id=\"stim\">GIRL</p>", "key_press": -1, "type": "PRES_VIS", "word": "girl", "wordID": 636, "conditions": [18, 1200, "v", 18000], "trial": 1, "serialpos": 5, "trial_type": "single-stim", "trial_index": 60, "time_elapsed": 308431, "internal_node_id": "0.0-42.0"}}, {"uniqueid": "MTK0072:3TDXMTX3CC1A1AO7FD4RB0USXV8I6T", "current_trial": 61, "dateTime": 1509130106901, "trialdata": {"rt": -1, "stimulus": "<p id=\"stim\">GLOBE</p>", "key_press": -1, "type": "PRES_VIS", "word": "globe", "wordID": 640, "conditions": [18, 1200, "v", 18000], "trial": 1, "serialpos": 6, "trial_type": "single-stim", "trial_index": 61, "time_elapsed": 310747, "internal_node_id": "0.0-43.0"}}, {"uniqueid": "MTK0072:3TDXMTX3CC1A1AO7FD4RB0USXV8I6T", "current_trial": 62, "dateTime": 1509130109227, "trialdata": {"rt": -1, "stimulus": "<p id=\"stim\">EXPERT</p>", "key_press": -1, "type": "PRES_VIS", "word": "expert", "wordID": 542, "conditions": [18, 1200, "v", 18000], "trial": 1, "serialpos": 7, "trial_type": "single-stim", "trial_index": 62, "time_elapsed": 313074, "internal_node_id": "0.0-44.0"}}, {"uniqueid": "MTK0072:3TDXMTX3CC1A1AO7FD4RB0USXV8I6T", "current_trial": 63, "dateTime": 1509130111396, "trialdata": {"rt": -1, "stimulus": "<p id=\"stim\">WAITRESS</p>", "key_press": -1, "type": "PRES_VIS", "word": "waitress", "wordID": 1580, "conditions": [18, 1200, "v", 18000], "trial": 1, "serialpos": 8, "trial_type": "single-stim", "trial_index": 63, "time_elapsed": 315243, "internal_node_id": "0.0-45.0"}}, {"uniqueid": "MTK0072:3TDXMTX3CC1A1AO7FD4RB0USXV8I6T", "current_trial": 64, "dateTime": 1509130113484, "trialdata": {"rt": -1, "stimulus": "<p id=\"stim\">PICNIC</p>", "key_press": -1, "type": "PRES_VIS", "word": "picnic", "wordID": 1059, "conditions": [18, 1200, "v", 18000], "trial": 1, "serialpos": 9, "trial_type": "single-stim", "trial_index": 64, "time_elapsed": 317330, "internal_node_id": "0.0-46.0"}}, {"uniqueid": "MTK0072:3TDXMTX3CC1A1AO7FD4RB0USXV8I6T", "current_trial": 65, "dateTime": 1509130115621, "trialdata": {"rt": -1, "stimulus": "<p id=\"stim\">PLIERS</p>", "key_press": -1, "type": "PRES_VIS", "word": "pliers", "wordID": 1088, "conditions": [18, 1200, "v", 18000], "trial": 1, "serialpos": 10, "trial_type": "single-stim", "trial_index": 65, "time_elapsed": 319468, "internal_node_id": "0.0-47.0"}}, {"uniqueid": "MTK0072:3TDXMTX3CC1A1AO7FD4RB0USXV8I6T", "current_trial": 66, "dateTime": 1509130117639, "trialdata": {"rt": -1, "stimulus": "<p id=\"stim\">CHURCH</p>", "key_press": -1, "type": "PRES_VIS", "word": "church", "wordID": 306, "conditions": [18, 1200, "v", 18000], "trial": 1, "serialpos": 11, "trial_type": "single-stim", "trial_index": 66, "time_elapsed": 321486, "internal_node_id": "0.0-48.0"}}, {"uniqueid": "MTK0072:3TDXMTX3CC1A1AO7FD4RB0USXV8I6T", "current_trial": 67, "dateTime": 1509130119783, "trialdata": {"rt": -1, "stimulus": "<p id=\"stim\">GALLON</p>", "key_press": -1, "type": "PRES_VIS", "word": "gallon", "wordID": 617, "conditions": [18, 1200, "v", 18000], "trial": 1, "serialpos": 12, "trial_type": "single-stim", "trial_index": 67, "time_elapsed": 323630, "internal_node_id": "0.0-49.0"}}, {"uniqueid": "MTK0072:3TDXMTX3CC1A1AO7FD4RB0USXV8I6T", "current_trial": 68, "dateTime": 1509130122081, "trialdata": {"rt": -1, "stimulus": "<p id=\"stim\">CREVICE</p>", "key_press": -1, "type": "PRES_VIS", "word": "crevice", "wordID": 404, "conditions": [18, 1200, "v", 18000], "trial": 1, "serialpos": 13, "trial_type": "single-stim", "trial_index": 68, "time_elapsed": 325926, "internal_node_id": "0.0-50.0"}}, {"uniqueid": "MTK0072:3TDXMTX3CC1A1AO7FD4RB0USXV8I6T", "current_trial": 69, "dateTime": 1509130124341, "trialdata": {"rt": -1, "stimulus": "<p id=\"stim\">NEUTRON</p>", "key_press": -1, "type": "PRES_VIS", "word": "neutron", "wordID": 946, "conditions": [18, 1200, "v", 18000], "trial": 1, "serialpos": 14, "trial_type": "single-stim", "trial_index": 69, "time_elapsed": 328188, "internal_node_id": "0.0-51.0"}}, {"uniqueid": "MTK0072:3TDXMTX3CC1A1AO7FD4RB0USXV8I6T", "current_trial": 70, "dateTime": 1509130126698, "trialdata": {"rt": -1, "stimulus": "<p id=\"stim\">KEEPER</p>", "key_press": -1, "type": "PRES_VIS", "word": "keeper", "wordID": 768, "conditions": [18, 1200, "v", 18000], "trial": 1, "serialpos": 15, "trial_type": "single-stim", "trial_index": 70, "time_elapsed": 330545, "internal_node_id": "0.0-52.0"}}, {"uniqueid": "MTK0072:3TDXMTX3CC1A1AO7FD4RB0USXV8I6T", "current_trial": 71, "dateTime": 1509130129079, "trialdata": {"rt": -1, "stimulus": "<p id=\"stim\">CHAUFFEUR</p>", "key_press": -1, "type": "PRES_VIS", "word": "chauffeur", "wordID": 282, "conditions": [18, 1200, "v", 18000], "trial": 1, "serialpos": 16, "trial_type": "single-stim", "trial_index": 71, "time_elapsed": 332926, "internal_node_id": "0.0-53.0"}}, {"uniqueid": "MTK0072:3TDXMTX3CC1A1AO7FD4RB0USXV8I6T", "current_trial": 72, "dateTime": 1509130131083, "trialdata": {"rt": -1, "stimulus": "<p id=\"stim\">COLLEGE</p>", "key_press": -1, "type": "PRES_VIS", "word": "college", "wordID": 345, "conditions": [18, 1200, "v", 18000], "trial": 1, "serialpos": 17, "trial_type": "single-stim", "trial_index": 72, "time_elapsed": 334930, "internal_node_id": "0.0-54.0"}}, {"uniqueid": "MTK0072:3TDXMTX3CC1A1AO7FD4RB0USXV8I6T", "current_trial": 73, "dateTime": 1509130133340, "trialdata": {"rt": -1, "stimulus": "", "key_press": -1, "type": "PRE_RECALL_DELAY", "trial_type": "single-stim", "trial_index": 73, "time_elapsed": 337187, "internal_node_id": "0.0-55.0-0.0"}}, {"uniqueid": "MTK0072:3TDXMTX3CC1A1AO7FD4RB0USXV8I6T", "current_trial": 74, "dateTime": 1509130133846, "trialdata": {"rt": -1000, "stimulus": "/static/audio/400Hz.wav", "key_press": -1, "type": "PRE_RECALL_ALERT", "trial_type": "single-audio", "trial_index": 74, "time_elapsed": 337693, "internal_node_id": "0.0-56.0"}}, {"uniqueid": "MTK0072:3TDXMTX3CC1A1AO7FD4RB0USXV8I6T", "current_trial": 75, "dateTime": 1509130193855, "trialdata": {"rt": [4324, 8843, 11999, 15794, 27873, 42055, 59171], "recwords": ["girl", "globe", "neutron", "scarecrow", "chauffer", "keeper", "candy"], "type": "FREE_RECALL", "conditions": [18, 1200, "v", 18000], "trial": 1, "trial_type": "free-recall", "trial_index": 75, "time_elapsed": 397698, "internal_node_id": "0.0-57.0-0.0"}}, {"uniqueid": "MTK0072:3TDXMTX3CC1A1AO7FD4RB0USXV8I6T", "current_trial": 76, "dateTime": 1509130198409, "trialdata": {"rt": 2552, "key_press": 32, "type": "INSTRUCTIONS", "trial_type": "text", "trial_index": 76, "time_elapsed": 402256, "internal_node_id": "0.0-58.0"}}, {"uniqueid": "MTK0072:3TDXMTX3CC1A1AO7FD4RB0USXV8I6T", "current_trial": 77, "dateTime": 1509130211414, "trialdata": {"rt": [5495, 8346], "responses": ["22", "8"], "num1": [8, 2, 8], "num2": [9, 5, 7], "num3": [5, 1, 9], "type": "DISTRACTOR", "conditions": [12, 800, "a", 12000], "trial": 2, "trial_type": "math-distractor", "trial_index": 77, "time_elapsed": 415261, "internal_node_id": "0.0-59.0"}}, {"uniqueid": "MTK0072:3TDXMTX3CC1A1AO7FD4RB0USXV8I6T", "current_trial": 78, "dateTime": 1509130214417, "trialdata": {"rt": -1, "stimulus": "<p id=\"stim\">10</p>", "key_press": -1, "trial_type": "single-stim", "trial_index": 78, "time_elapsed": 418263, "internal_node_id": "0.0-60.0-0.0"}}, {"uniqueid": "MTK0072:3TDXMTX3CC1A1AO7FD4RB0USXV8I6T", "current_trial": 79, "dateTime": 1509130215419, "trialdata": {"rt": -1, "stimulus": "<p id=\"stim\">9</p>", "key_press": -1, "trial_type": "single-stim", "trial_index": 79, "time_elapsed": 419265, "internal_node_id": "0.0-60.0-1.0"}}, {"uniqueid": "MTK0072:3TDXMTX3CC1A1AO7FD4RB0USXV8I6T", "current_trial": 80, "dateTime": 1509130216420, "trialdata": {"rt": -1, "stimulus": "<p id=\"stim\">8</p>", "key_press": -1, "trial_type": "single-stim", "trial_index": 80, "time_elapsed": 420266, "internal_node_id": "0.0-60.0-2.0"}}, {"uniqueid": "MTK0072:3TDXMTX3CC1A1AO7FD4RB0USXV8I6T", "current_trial": 81, "dateTime": 1509130217422, "trialdata": {"rt": -1, "stimulus": "<p id=\"stim\">7</p>", "key_press": -1, "trial_type": "single-stim", "trial_index": 81, "time_elapsed": 421269, "internal_node_id": "0.0-60.0-3.0"}}, {"uniqueid": "MTK0072:3TDXMTX3CC1A1AO7FD4RB0USXV8I6T", "current_trial": 82, "dateTime": 1509130218424, "trialdata": {"rt": -1, "stimulus": "<p id=\"stim\">6</p>", "key_press": -1, "trial_type": "single-stim", "trial_index": 82, "time_elapsed": 422271, "internal_node_id": "0.0-60.0-4.0"}}, {"uniqueid": "MTK0072:3TDXMTX3CC1A1AO7FD4RB0USXV8I6T", "current_trial": 83, "dateTime": 1509130219428, "trialdata": {"rt": -1, "stimulus": "<p id=\"stim\">5</p>", "key_press": -1, "trial_type": "single-stim", "trial_index": 83, "time_elapsed": 423275, "internal_node_id": "0.0-60.0-5.0"}}, {"uniqueid": "MTK0072:3TDXMTX3CC1A1AO7FD4RB0USXV8I6T", "current_trial": 84, "dateTime": 1509130220431, "trialdata": {"rt": -1, "stimulus": "<p id=\"stim\">4</p>", "key_press": -1, "trial_type": "single-stim", "trial_index": 84, "time_elapsed": 424277, "internal_node_id": "0.0-60.0-6.0"}}, {"uniqueid": "MTK0072:3TDXMTX3CC1A1AO7FD4RB0USXV8I6T", "current_trial": 85, "dateTime": 1509130221432, "trialdata": {"rt": -1, "stimulus": "<p id=\"stim\">3</p>", "key_press": -1, "trial_type": "single-stim", "trial_index": 85, "time_elapsed": 425279, "internal_node_id": "0.0-60.0-7.0"}}, {"uniqueid": "MTK0072:3TDXMTX3CC1A1AO7FD4RB0USXV8I6T", "current_trial": 86, "dateTime": 1509130222435, "trialdata": {"rt": -1, "stimulus": "<p id=\"stim\">2</p>", "key_press": -1, "trial_type": "single-stim", "trial_index": 86, "time_elapsed": 426281, "internal_node_id": "0.0-60.0-8.0"}}, {"uniqueid": "MTK0072:3TDXMTX3CC1A1AO7FD4RB0USXV8I6T", "current_trial": 87, "dateTime": 1509130223438, "trialdata": {"rt": -1, "stimulus": "<p id=\"stim\">1</p>", "key_press": -1, "trial_type": "single-stim", "trial_index": 87, "time_elapsed": 427284, "internal_node_id": "0.0-60.0-9.0"}}, {"uniqueid": "MTK0072:3TDXMTX3CC1A1AO7FD4RB0USXV8I6T", "current_trial": 88, "dateTime": 1509130224940, "trialdata": {"rt": -1, "stimulus": "<p id=\"stim\">+</p>", "key_press": -1, "type": "FIXATION", "trial_type": "single-stim", "trial_index": 88, "time_elapsed": 428787, "internal_node_id": "0.0-61.0-0.0"}}, {"uniqueid": "MTK0072:3TDXMTX3CC1A1AO7FD4RB0USXV8I6T", "current_trial": 89, "dateTime": 1509130226758, "trialdata": {"rt": -1000, "stimulus": "/static/audio/wordpool/GANGSTER.wav", "key_press": -1, "type": "PRES_AUD", "word": "gangster", "wordID": 619, "conditions": [12, 800, "a", 12000], "trial": 2, "serialpos": 0, "trial_type": "single-audio", "trial_index": 89, "time_elapsed": 430604, "internal_node_id": "0.0-62.0"}}, {"uniqueid": "MTK0072:3TDXMTX3CC1A1AO7FD4RB0USXV8I6T", "current_trial": 90, "dateTime": 1509130228516, "trialdata": {"rt": -1000, "stimulus": "/static/audio/wordpool/DINER.wav", "key_press": -1, "type": "PRES_AUD", "word": "diner", "wordID": 466, "conditions": [12, 800, "a", 12000], "trial": 2, "serialpos": 1, "trial_type": "single-audio", "trial_index": 90, "time_elapsed": 432363, "internal_node_id": "0.0-63.0"}}, {"uniqueid": "MTK0072:3TDXMTX3CC1A1AO7FD4RB0USXV8I6T", "current_trial": 91, "dateTime": 1509130230171, "trialdata": {"rt": -1000, "stimulus": "/static/audio/wordpool/CAMEL.wav", "key_press": -1, "type": "PRES_AUD", "word": "camel", "wordID": 222, "conditions": [12, 800, "a", 12000], "trial": 2, "serialpos": 2, "trial_type": "single-audio", "trial_index": 91, "time_elapsed": 434018, "internal_node_id": "0.0-64.0"}}, {"uniqueid": "MTK0072:3TDXMTX3CC1A1AO7FD4RB0USXV8I6T", "current_trial": 92, "dateTime": 1509130231825, "trialdata": {"rt": -1000, "stimulus": "/static/audio/wordpool/DOUGHNUT.wav", "key_press": -1, "type": "PRES_AUD", "word": "doughnut", "wordID": 489, "conditions": [12, 800, "a", 12000], "trial": 2, "serialpos": 3, "trial_type": "single-audio", "trial_index": 92, "time_elapsed": 435672, "internal_node_id": "0.0-65.0"}}, {"uniqueid": "MTK0072:3TDXMTX3CC1A1AO7FD4RB0USXV8I6T", "current_trial": 93, "dateTime": 1509130233822, "trialdata": {"rt": -1000, "stimulus": "/static/audio/wordpool/CANAL.wav", "key_press": -1, "type": "PRES_AUD", "word": "canal", "wordID": 225, "conditions": [12, 800, "a", 12000], "trial": 2, "serialpos": 4, "trial_type": "single-audio", "trial_index": 93, "time_elapsed": 437669, "internal_node_id": "0.0-66.0"}}, {"uniqueid": "MTK0072:3TDXMTX3CC1A1AO7FD4RB0USXV8I6T", "current_trial": 94, "dateTime": 1509130235657, "trialdata": {"rt": -1000, "stimulus": "/static/audio/wordpool/GUARD.wav", "key_press": -1, "type": "PRES_AUD", "word": "guard", "wordID": 666, "conditions": [12, 800, "a", 12000], "trial": 2, "serialpos": 5, "trial_type": "single-audio", "trial_index": 94, "time_elapsed": 439504, "internal_node_id": "0.0-67.0"}}, {"uniqueid": "MTK0072:3TDXMTX3CC1A1AO7FD4RB0USXV8I6T", "current_trial": 95, "dateTime": 1509130237428, "trialdata": {"rt": -1000, "stimulus": "/static/audio/wordpool/FOOT.wav", "key_press": -1, "type": "PRES_AUD", "word": "foot", "wordID": 589, "conditions": [12, 800, "a", 12000], "trial": 2, "serialpos": 6, "trial_type": "single-audio", "trial_index": 95, "time_elapsed": 441275, "internal_node_id": "0.0-68.0"}}, {"uniqueid": "MTK0072:3TDXMTX3CC1A1AO7FD4RB0USXV8I6T", "current_trial": 96, "dateTime": 1509130239381, "trialdata": {"rt": -1000, "stimulus": "/static/audio/wordpool/PIZZA.wav", "key_press": -1, "type": "PRES_AUD", "word": "pizza", "wordID": 1078, "conditions": [12, 800, "a", 12000], "trial": 2, "serialpos": 7, "trial_type": "single-audio", "trial_index": 96, "time_elapsed": 443228, "internal_node_id": "0.0-69.0"}}, {"uniqueid": "MTK0072:3TDXMTX3CC1A1AO7FD4RB0USXV8I6T", "current_trial": 97, "dateTime": 1509130241305, "trialdata": {"rt": -1000, "stimulus": "/static/audio/wordpool/BURGLAR.wav", "key_press": -1, "type": "PRES_AUD", "word": "burglar", "wordID": 199, "conditions": [12, 800, "a", 12000], "trial": 2, "serialpos": 8, "trial_type": "single-audio", "trial_index": 97, "time_elapsed": 445152, "internal_node_id": "0.0-70.0"}}, {"uniqueid": "MTK0072:3TDXMTX3CC1A1AO7FD4RB0USXV8I6T", "current_trial": 98, "dateTime": 1509130243006, "trialdata": {"rt": -1000, "stimulus": "/static/audio/wordpool/FINGER.wav", "key_press": -1, "type": "PRES_AUD", "word": "finger", "wordID": 566, "conditions": [12, 800, "a", 12000], "trial": 2, "serialpos": 9, "trial_type": "single-audio", "trial_index": 98, "time_elapsed": 446853, "internal_node_id": "0.0-71.0"}}, {"uniqueid": "MTK0072:3TDXMTX3CC1A1AO7FD4RB0USXV8I6T", "current_trial": 99, "dateTime": 1509130244718, "trialdata": {"rt": -1000, "stimulus": "/static/audio/wordpool/TURNIP.wav", "key_press": -1, "type": "PRES_AUD", "word": "turnip", "wordID": 1520, "conditions": [12, 800, "a", 12000], "trial": 2, "serialpos": 10, "trial_type": "single-audio", "trial_index": 99, "time_elapsed": 448564, "internal_node_id": "0.0-72.0"}}, {"uniqueid": "MTK0072:3TDXMTX3CC1A1AO7FD4RB0USXV8I6T", "current_trial": 100, "dateTime": 1509130246676, "trialdata": {"rt": -1000, "stimulus": "/static/audio/wordpool/CABBAGE.wav", "key_press": -1, "type": "PRES_AUD", "word": "cabbage", "wordID": 209, "conditions": [12, 800, "a", 12000], "trial": 2, "serialpos": 11, "trial_type": "single-audio", "trial_index": 100, "time_elapsed": 450523, "internal_node_id": "0.0-73.0"}}, {"uniqueid": "MTK0072:3TDXMTX3CC1A1AO7FD4RB0USXV8I6T", "current_trial": 101, "dateTime": 1509130247943, "trialdata": {"rt": -1, "stimulus": "", "key_press": -1, "type": "PRE_RECALL_DELAY", "trial_type": "single-stim", "trial_index": 101, "time_elapsed": 451790, "internal_node_id": "0.0-74.0-0.0"}}, {"uniqueid": "MTK0072:3TDXMTX3CC1A1AO7FD4RB0USXV8I6T", "current_trial": 102, "dateTime": 1509130248445, "trialdata": {"rt": -1000, "stimulus": "/static/audio/400Hz.wav", "key_press": -1, "type": "PRE_RECALL_ALERT", "trial_type": "single-audio", "trial_index": 102, "time_elapsed": 452291, "internal_node_id": "0.0-75.0"}}, {"uniqueid": "MTK0072:3TDXMTX3CC1A1AO7FD4RB0USXV8I6T", "current_trial": 103, "dateTime": 1509130308457, "trialdata": {"rt": [5006, 9938, 16037, 20106], "recwords": ["gangster", "diner", "turnip", "cabbage"], "type": "FREE_RECALL", "conditions": [12, 800, "a", 12000], "trial": 2, "trial_type": "free-recall", "trial_index": 103, "time_elapsed": 512299, "internal_node_id": "0.0-76.0-0.0"}}, {"uniqueid": "MTK0072:3TDXMTX3CC1A1AO7FD4RB0USXV8I6T", "current_trial": 104, "dateTime": 1509130311617, "trialdata": {"rt": 1159, "key_press": 32, "type": "INSTRUCTIONS", "trial_type": "text", "trial_index": 104, "time_elapsed": 515464, "internal_node_id": "0.0-77.0"}}, {"uniqueid": "MTK0072:3TDXMTX3CC1A1AO7FD4RB0USXV8I6T", "current_trial": 105, "dateTime": 1509130337621, "trialdata": {"rt": [3047, 7618, 9990, 13257, 16987, 19403, 22942], "responses": ["15", "21", "14", "23", "12", "17", "18"], "num1": [5, 6, 7, 7, 2, 5, 5, 7], "num2": [2, 7, 3, 8, 9, 8, 4, 3], "num3": [8, 8, 4, 8, 1, 4, 9, 7], "type": "DISTRACTOR", "conditions": [12, 1600, "a", 24000], "trial": 3, "trial_type": "math-distractor", "trial_index": 105, "time_elapsed": 541467, "internal_node_id": "0.0-78.0"}}, {"uniqueid": "MTK0072:3TDXMTX3CC1A1AO7FD4RB0USXV8I6T", "current_trial": 106, "dateTime": 1509130340624, "trialdata": {"rt": -1, "stimulus": "<p id=\"stim\">10</p>", "key_press": -1, "trial_type": "single-stim", "trial_index": 106, "time_elapsed": 544471, "internal_node_id": "0.0-79.0-0.0"}}, {"uniqueid": "MTK0072:3TDXMTX3CC1A1AO7FD4RB0USXV8I6T", "current_trial": 107, "dateTime": 1509130341625, "trialdata": {"rt": -1, "stimulus": "<p id=\"stim\">9</p>", "key_press": -1, "trial_type": "single-stim", "trial_index": 107, "time_elapsed": 545472, "internal_node_id": "0.0-79.0-1.0"}}, {"uniqueid": "MTK0072:3TDXMTX3CC1A1AO7FD4RB0USXV8I6T", "current_trial": 108, "dateTime": 1509130342629, "trialdata": {"rt": -1, "stimulus": "<p id=\"stim\">8</p>", "key_press": -1, "trial_type": "single-stim", "trial_index": 108, "time_elapsed": 546475, "internal_node_id": "0.0-79.0-2.0"}}, {"uniqueid": "MTK0072:3TDXMTX3CC1A1AO7FD4RB0USXV8I6T", "current_trial": 109, "dateTime": 1509130343630, "trialdata": {"rt": -1, "stimulus": "<p id=\"stim\">7</p>", "key_press": -1, "trial_type": "single-stim", "trial_index": 109, "time_elapsed": 547477, "internal_node_id": "0.0-79.0-3.0"}}, {"uniqueid": "MTK0072:3TDXMTX3CC1A1AO7FD4RB0USXV8I6T", "current_trial": 110, "dateTime": 1509130344632, "trialdata": {"rt": -1, "stimulus": "<p id=\"stim\">6</p>", "key_press": -1, "trial_type": "single-stim", "trial_index": 110, "time_elapsed": 548479, "internal_node_id": "0.0-79.0-4.0"}}, {"uniqueid": "MTK0072:3TDXMTX3CC1A1AO7FD4RB0USXV8I6T", "current_trial": 111, "dateTime": 1509130345634, "trialdata": {"rt": -1, "stimulus": "<p id=\"stim\">5</p>", "key_press": -1, "trial_type": "single-stim", "trial_index": 111, "time_elapsed": 549481, "internal_node_id": "0.0-79.0-5.0"}}, {"uniqueid": "MTK0072:3TDXMTX3CC1A1AO7FD4RB0USXV8I6T", "current_trial": 112, "dateTime": 1509130346634, "trialdata": {"rt": -1, "stimulus": "<p id=\"stim\">4</p>", "key_press": -1, "trial_type": "single-stim", "trial_index": 112, "time_elapsed": 550481, "internal_node_id": "0.0-79.0-6.0"}}, {"uniqueid": "MTK0072:3TDXMTX3CC1A1AO7FD4RB0USXV8I6T", "current_trial": 113, "dateTime": 1509130347636, "trialdata": {"rt": -1, "stimulus": "<p id=\"stim\">3</p>", "key_press": -1, "trial_type": "single-stim", "trial_index": 113, "time_elapsed": 551483, "internal_node_id": "0.0-79.0-7.0"}}, {"uniqueid": "MTK0072:3TDXMTX3CC1A1AO7FD4RB0USXV8I6T", "current_trial": 114, "dateTime": 1509130348637, "trialdata": {"rt": -1, "stimulus": "<p id=\"stim\">2</p>", "key_press": -1, "trial_type": "single-stim", "trial_index": 114, "time_elapsed": 552484, "internal_node_id": "0.0-79.0-8.0"}}, {"uniqueid": "MTK0072:3TDXMTX3CC1A1AO7FD4RB0USXV8I6T", "current_trial": 115, "dateTime": 1509130349640, "trialdata": {"rt": -1, "stimulus": "<p id=\"stim\">1</p>", "key_press": -1, "trial_type": "single-stim", "trial_index": 115, "time_elapsed": 553487, "internal_node_id": "0.0-79.0-9.0"}}, {"uniqueid": "MTK0072:3TDXMTX3CC1A1AO7FD4RB0USXV8I6T", "current_trial": 116, "dateTime": 1509130351143, "trialdata": {"rt": -1, "stimulus": "<p id=\"stim\">+</p>", "key_press": -1, "type": "FIXATION", "trial_type": "single-stim", "trial_index": 116, "time_elapsed": 554989, "internal_node_id": "0.0-80.0-0.0"}}, {"uniqueid": "MTK0072:3TDXMTX3CC1A1AO7FD4RB0USXV8I6T", "current_trial": 117, "dateTime": 1509130353720, "trialdata": {"rt": -1000, "stimulus": "/static/audio/wordpool/PISTON.wav", "key_press": -1, "type": "PRES_AUD", "word": "piston", "wordID": 1075, "conditions": [12, 1600, "a", 24000], "trial": 3, "serialpos": 0, "trial_type": "single-audio", "trial_index": 117, "time_elapsed": 557566, "internal_node_id": "0.0-81.0"}}, {"uniqueid": "MTK0072:3TDXMTX3CC1A1AO7FD4RB0USXV8I6T", "current_trial": 118, "dateTime": 1509130356274, "trialdata": {"rt": -1000, "stimulus": "/static/audio/wordpool/PENGUIN.wav", "key_press": -1, "type": "PRES_AUD", "word": "penguin", "wordID": 1043, "conditions": [12, 1600, "a", 24000], "trial": 3, "serialpos": 1, "trial_type": "single-audio", "trial_index": 118, "time_elapsed": 560121, "internal_node_id": "0.0-82.0"}}, {"uniqueid": "MTK0072:3TDXMTX3CC1A1AO7FD4RB0USXV8I6T", "current_trial": 119, "dateTime": 1509130358850, "trialdata": {"rt": -1000, "stimulus": "/static/audio/wordpool/ROBBER.wav", "key_press": -1, "type": "PRES_AUD", "word": "robber", "wordID": 1196, "conditions": [12, 1600, "a", 24000], "trial": 3, "serialpos": 2, "trial_type": "single-audio", "trial_index": 119, "time_elapsed": 562697, "internal_node_id": "0.0-83.0"}}, {"uniqueid": "MTK0072:3TDXMTX3CC1A1AO7FD4RB0USXV8I6T", "current_trial": 120, "dateTime": 1509130361432, "trialdata": {"rt": -1000, "stimulus": "/static/audio/wordpool/SURVEY.wav", "key_press": -1, "type": "PRES_AUD", "word": "survey", "wordID": 1413, "conditions": [12, 1600, "a", 24000], "trial": 3, "serialpos": 3, "trial_type": "single-audio", "trial_index": 120, "time_elapsed": 565279, "internal_node_id": "0.0-84.0"}}, {"uniqueid": "MTK0072:3TDXMTX3CC1A1AO7FD4RB0USXV8I6T", "current_trial": 121, "dateTime": 1509130364057, "trialdata": {"rt": -1000, "stimulus": "/static/audio/wordpool/REPORT.wav", "key_press": -1, "type": "PRES_AUD", "word": "report", "wordID": 1183, "conditions": [12, 1600, "a", 24000], "trial": 3, "serialpos": 4, "trial_type": "single-audio", "trial_index": 121, "time_elapsed": 567903, "internal_node_id": "0.0-85.0"}}, {"uniqueid": "MTK0072:3TDXMTX3CC1A1AO7FD4RB0USXV8I6T", "current_trial": 122, "dateTime": 1509130366626, "trialdata": {"rt": -1000, "stimulus": "/static/audio/wordpool/PIMPLE.wav", "key_press": -1, "type": "PRES_AUD", "word": "pimple", "wordID": 1070, "conditions": [12, 1600, "a", 24000], "trial": 3, "serialpos": 5, "trial_type": "single-audio", "trial_index": 122, "time_elapsed": 570473, "internal_node_id": "0.0-86.0"}}, {"uniqueid": "MTK0072:3TDXMTX3CC1A1AO7FD4RB0USXV8I6T", "current_trial": 123, "dateTime": 1509130369056, "trialdata": {"rt": -1000, "stimulus": "/static/audio/wordpool/THIEF.wav", "key_press": -1, "type": "PRES_AUD", "word": "thief", "wordID": 1455, "conditions": [12, 1600, "a", 24000], "trial": 3, "serialpos": 6, "trial_type": "single-audio", "trial_index": 123, "time_elapsed": 572903, "internal_node_id": "0.0-87.0"}}, {"uniqueid": "MTK0072:3TDXMTX3CC1A1AO7FD4RB0USXV8I6T", "current_trial": 124, "dateTime": 1509130371650, "trialdata": {"rt": -1000, "stimulus": "/static/audio/wordpool/VICTIM.wav", "key_press": -1, "type": "PRES_AUD", "word": "victim", "wordID": 1561, "conditions": [12, 1600, "a", 24000], "trial": 3, "serialpos": 7, "trial_type": "single-audio", "trial_index": 124, "time_elapsed": 575497, "internal_node_id": "0.0-88.0"}}, {"uniqueid": "MTK0072:3TDXMTX3CC1A1AO7FD4RB0USXV8I6T", "current_trial": 125, "dateTime": 1509130374251, "trialdata": {"rt": -1000, "stimulus": "/static/audio/wordpool/SLIME.wav", "key_press": -1, "type": "PRES_AUD", "word": "slime", "wordID": 1326, "conditions": [12, 1600, "a", 24000], "trial": 3, "serialpos": 8, "trial_type": "single-audio", "trial_index": 125, "time_elapsed": 578098, "internal_node_id": "0.0-89.0"}}, {"uniqueid": "MTK0072:3TDXMTX3CC1A1AO7FD4RB0USXV8I6T", "current_trial": 126, "dateTime": 1509130376694, "trialdata": {"rt": -1000, "stimulus": "/static/audio/wordpool/ROBIN.wav", "key_press": -1, "type": "PRES_AUD", "word": "robin", "wordID": 1198, "conditions": [12, 1600, "a", 24000], "trial": 3, "serialpos": 9, "trial_type": "single-audio", "trial_index": 126, "time_elapsed": 580541, "internal_node_id": "0.0-90.0"}}, {"uniqueid": "MTK0072:3TDXMTX3CC1A1AO7FD4RB0USXV8I6T", "current_trial": 127, "dateTime": 1509130379222, "trialdata": {"rt": -1000, "stimulus": "/static/audio/wordpool/FRECKLE.wav", "key_press": -1, "type": "PRES_AUD", "word": "freckle", "wordID": 601, "conditions": [12, 1600, "a", 24000], "trial": 3, "serialpos": 10, "trial_type": "single-audio", "trial_index": 127, "time_elapsed": 583069, "internal_node_id": "0.0-91.0"}}, {"uniqueid": "MTK0072:3TDXMTX3CC1A1AO7FD4RB0USXV8I6T", "current_trial": 128, "dateTime": 1509130381993, "trialdata": {"rt": -1000, "stimulus": "/static/audio/wordpool/JELLY.wav", "key_press": -1, "type": "PRES_AUD", "word": "jelly", "wordID": 754, "conditions": [12, 1600, "a", 24000], "trial": 3, "serialpos": 11, "trial_type": "single-audio", "trial_index": 128, "time_elapsed": 585840, "internal_node_id": "0.0-92.0"}}, {"uniqueid": "MTK0072:3TDXMTX3CC1A1AO7FD4RB0USXV8I6T", "current_trial": 129, "dateTime": 1509130383250, "trialdata": {"rt": -1, "stimulus": "", "key_press": -1, "type": "PRE_RECALL_DELAY", "trial_type": "single-stim", "trial_index": 129, "time_elapsed": 587097, "internal_node_id": "0.0-93.0-0.0"}}, {"uniqueid": "MTK0072:3TDXMTX3CC1A1AO7FD4RB0USXV8I6T", "current_trial": 130, "dateTime": 1509130383757, "trialdata": {"rt": -1000, "stimulus": "/static/audio/400Hz.wav", "key_press": -1, "type": "PRE_RECALL_ALERT", "trial_type": "single-audio", "trial_index": 130, "time_elapsed": 587604, "internal_node_id": "0.0-94.0"}}, {"uniqueid": "MTK0072:3TDXMTX3CC1A1AO7FD4RB0USXV8I6T", "current_trial": 131, "dateTime": 1509130443764, "trialdata": {"rt": [4112, 7955, 11690, 14886, 17679, 23361, 26931, 46259, 59035], "recwords": ["freckle", "jelly", "penguin", "pencil", "robber", "schedule", "robin", "survey", "pimple"], "type": "FREE_RECALL", "conditions": [12, 1600, "a", 24000], "trial": 3, "trial_type": "free-recall", "trial_index": 131, "time_elapsed": 647609, "internal_node_id": "0.0-95.0-0.0"}}, {"uniqueid": "MTK0072:3TDXMTX3CC1A1AO7FD4RB0USXV8I6T", "current_trial": 132, "dateTime": 1509130446979, "trialdata": {"rt": 1213, "key_press": 32, "type": "INSTRUCTIONS", "trial_type": "text", "trial_index": 132, "time_elapsed": 650826, "internal_node_id": "0.0-96.0"}}, {"uniqueid": "MTK0072:3TDXMTX3CC1A1AO7FD4RB0USXV8I6T", "current_trial": 133, "dateTime": 1509130472984, "trialdata": {"rt": [3597, 6213, 8759, 11366, 13053, 16117, 19038, 21426], "responses": ["23", "20", "17", "18", "11", "13", "13", "8"], "num1": [6, 7, 4, 5, 5, 6, 6, 5, 8], "num2": [8, 6, 5, 4, 3, 5, 6, 2, 9], "num3": [9, 7, 8, 9, 3, 2, 1, 1, 6], "type": "DISTRACTOR", "conditions": [12, 800, "a", 24000], "trial": 4, "trial_type": "math-distractor", "trial_index": 133, "time_elapsed": 676831, "internal_node_id": "0.0-97.0"}}, {"uniqueid": "MTK0072:3TDXMTX3CC1A1AO7FD4RB0USXV8I6T", "current_trial": 134, "dateTime": 1509130475987, "trialdata": {"rt": -1, "stimulus": "<p id=\"stim\">10</p>", "key_press": -1, "trial_type": "single-stim", "trial_index": 134, "time_elapsed": 679834, "internal_node_id": "0.0-98.0-0.0"}}, {"uniqueid": "MTK0072:3TDXMTX3CC1A1AO7FD4RB0USXV8I6T", "current_trial": 135, "dateTime": 1509130476990, "trialdata": {"rt": -1, "stimulus": "<p id=\"stim\">9</p>", "key_press": -1, "trial_type": "single-stim", "trial_index": 135, "time_elapsed": 680837, "internal_node_id": "0.0-98.0-1.0"}}, {"uniqueid": "MTK0072:3TDXMTX3CC1A1AO7FD4RB0USXV8I6T", "current_trial": 136, "dateTime": 1509130477992, "trialdata": {"rt": -1, "stimulus": "<p id=\"stim\">8</p>", "key_press": -1, "trial_type": "single-stim", "trial_index": 136, "time_elapsed": 681839, "internal_node_id": "0.0-98.0-2.0"}}, {"uniqueid": "MTK0072:3TDXMTX3CC1A1AO7FD4RB0USXV8I6T", "current_trial": 137, "dateTime": 1509130478994, "trialdata": {"rt": -1, "stimulus": "<p id=\"stim\">7</p>", "key_press": -1, "trial_type": "single-stim", "trial_index": 137, "time_elapsed": 682841, "internal_node_id": "0.0-98.0-3.0"}}, {"uniqueid": "MTK0072:3TDXMTX3CC1A1AO7FD4RB0USXV8I6T", "current_trial": 138, "dateTime": 1509130479996, "trialdata": {"rt": -1, "stimulus": "<p id=\"stim\">6</p>", "key_press": -1, "trial_type": "single-stim", "trial_index": 138, "time_elapsed": 683842, "internal_node_id": "0.0-98.0-4.0"}}, {"uniqueid": "MTK0072:3TDXMTX3CC1A1AO7FD4RB0USXV8I6T", "current_trial": 139, "dateTime": 1509130480998, "trialdata": {"rt": -1, "stimulus": "<p id=\"stim\">5</p>", "key_press": -1, "trial_type": "single-stim", "trial_index": 139, "time_elapsed": 684845, "internal_node_id": "0.0-98.0-5.0"}}, {"uniqueid": "MTK0072:3TDXMTX3CC1A1AO7FD4RB0USXV8I6T", "current_trial": 140, "dateTime": 1509130482000, "trialdata": {"rt": -1, "stimulus": "<p id=\"stim\">4</p>", "key_press": -1, "trial_type": "single-stim", "trial_index": 140, "time_elapsed": 685846, "internal_node_id": "0.0-98.0-6.0"}}, {"uniqueid": "MTK0072:3TDXMTX3CC1A1AO7FD4RB0USXV8I6T", "current_trial": 141, "dateTime": 1509130483002, "trialdata": {"rt": -1, "stimulus": "<p id=\"stim\">3</p>", "key_press": -1, "trial_type": "single-stim", "trial_index": 141, "time_elapsed": 686848, "internal_node_id": "0.0-98.0-7.0"}}, {"uniqueid": "MTK0072:3TDXMTX3CC1A1AO7FD4RB0USXV8I6T", "current_trial": 142, "dateTime": 1509130484003, "trialdata": {"rt": -1, "stimulus": "<p id=\"stim\">2</p>", "key_press": -1, "trial_type": "single-stim", "trial_index": 142, "time_elapsed": 687850, "internal_node_id": "0.0-98.0-8.0"}}, {"uniqueid": "MTK0072:3TDXMTX3CC1A1AO7FD4RB0USXV8I6T", "current_trial": 143, "dateTime": 1509130485004, "trialdata": {"rt": -1, "stimulus": "<p id=\"stim\">1</p>", "key_press": -1, "trial_type": "single-stim", "trial_index": 143, "time_elapsed": 688851, "internal_node_id": "0.0-98.0-9.0"}}, {"uniqueid": "MTK0072:3TDXMTX3CC1A1AO7FD4RB0USXV8I6T", "current_trial": 144, "dateTime": 1509130486508, "trialdata": {"rt": -1, "stimulus": "<p id=\"stim\">+</p>", "key_press": -1, "type": "FIXATION", "trial_type": "single-stim", "trial_index": 144, "time_elapsed": 690354, "internal_node_id": "0.0-99.0-0.0"}}, {"uniqueid": "MTK0072:3TDXMTX3CC1A1AO7FD4RB0USXV8I6T", "current_trial": 145, "dateTime": 1509130488255, "trialdata": {"rt": -1000, "stimulus": "/static/audio/wordpool/BANK.wav", "key_press": -1, "type": "PRES_AUD", "word": "bank", "wordID": 82, "conditions": [12, 800, "a", 24000], "trial": 4, "serialpos": 0, "trial_type": "single-audio", "trial_index": 145, "time_elapsed": 692102, "internal_node_id": "0.0-100.0"}}, {"uniqueid": "MTK0072:3TDXMTX3CC1A1AO7FD4RB0USXV8I6T", "current_trial": 146, "dateTime": 1509130490086, "trialdata": {"rt": -1000, "stimulus": "/static/audio/wordpool/SISTER.wav", "key_press": -1, "type": "PRES_AUD", "word": "sister", "wordID": 1311, "conditions": [12, 800, "a", 24000], "trial": 4, "serialpos": 1, "trial_type": "single-audio", "trial_index": 146, "time_elapsed": 693933, "internal_node_id": "0.0-101.0"}}, {"uniqueid": "MTK0072:3TDXMTX3CC1A1AO7FD4RB0USXV8I6T", "current_trial": 147, "dateTime": 1509130491806, "trialdata": {"rt": -1000, "stimulus": "/static/audio/wordpool/UNCLE.wav", "key_press": -1, "type": "PRES_AUD", "word": "uncle", "wordID": 1535, "conditions": [12, 800, "a", 24000], "trial": 4, "serialpos": 2, "trial_type": "single-audio", "trial_index": 147, "time_elapsed": 695652, "internal_node_id": "0.0-102.0"}}, {"uniqueid": "MTK0072:3TDXMTX3CC1A1AO7FD4RB0USXV8I6T", "current_trial": 148, "dateTime": 1509130493741, "trialdata": {"rt": -1000, "stimulus": "/static/audio/wordpool/VALVE.wav", "key_press": -1, "type": "PRES_AUD", "word": "valve", "wordID": 1545, "conditions": [12, 800, "a", 24000], "trial": 4, "serialpos": 3, "trial_type": "single-audio", "trial_index": 148, "time_elapsed": 697588, "internal_node_id": "0.0-103.0"}}, {"uniqueid": "MTK0072:3TDXMTX3CC1A1AO7FD4RB0USXV8I6T", "current_trial": 149, "dateTime": 1509130495686, "trialdata": {"rt": -1000, "stimulus": "/static/audio/wordpool/RIVER.wav", "key_press": -1, "type": "PRES_AUD", "word": "river", "wordID": 1193, "conditions": [12, 800, "a", 24000], "trial": 4, "serialpos": 4, "trial_type": "single-audio", "trial_index": 149, "time_elapsed": 699533, "internal_node_id": "0.0-104.0"}}, {"uniqueid": "MTK0072:3TDXMTX3CC1A1AO7FD4RB0USXV8I6T", "current_trial": 150, "dateTime": 1509130497430, "trialdata": {"rt": -1000, "stimulus": "/static/audio/wordpool/LONDON.wav", "key_press": -1, "type": "PRES_AUD", "word": "london", "wordID": 842, "conditions": [12, 800, "a", 24000], "trial": 4, "serialpos": 5, "trial_type": "single-audio", "trial_index": 150, "time_elapsed": 701277, "internal_node_id": "0.0-105.0"}}, {"uniqueid": "MTK0072:3TDXMTX3CC1A1AO7FD4RB0USXV8I6T", "current_trial": 151, "dateTime": 1509130499129, "trialdata": {"rt": -1000, "stimulus": "/static/audio/wordpool/TRIBE.wav", "key_press": -1, "type": "PRES_AUD", "word": "tribe", "wordID": 1504, "conditions": [12, 800, "a", 24000], "trial": 4, "serialpos": 6, "trial_type": "single-audio", "trial_index": 151, "time_elapsed": 702976, "internal_node_id": "0.0-106.0"}}, {"uniqueid": "MTK0072:3TDXMTX3CC1A1AO7FD4RB0USXV8I6T", "current_trial": 152, "dateTime": 1509130500937, "trialdata": {"rt": -1000, "stimulus": "/static/audio/wordpool/BUREAU.wav", "key_press": -1, "type": "PRES_AUD", "word": "bureau", "wordID": 198, "conditions": [12, 800, "a", 24000], "trial": 4, "serialpos": 7, "trial_type": "single-audio", "trial_index": 152, "time_elapsed": 704784, "internal_node_id": "0.0-107.0"}}, {"uniqueid": "MTK0072:3TDXMTX3CC1A1AO7FD4RB0USXV8I6T", "current_trial": 153, "dateTime": 1509130502675, "trialdata": {"rt": -1000, "stimulus": "/static/audio/wordpool/GRAVE.wav", "key_press": -1, "type": "PRES_AUD", "word": "grave", "wordID": 657, "conditions": [12, 800, "a", 24000], "trial": 4, "serialpos": 8, "trial_type": "single-audio", "trial_index": 153, "time_elapsed": 706522, "internal_node_id": "0.0-108.0"}}, {"uniqueid": "MTK0072:3TDXMTX3CC1A1AO7FD4RB0USXV8I6T", "current_trial": 154, "dateTime": 1509130504535, "trialdata": {"rt": -1000, "stimulus": "/static/audio/wordpool/COSTUME.wav", "key_press": -1, "type": "PRES_AUD", "word": "costume", "wordID": 382, "conditions": [12, 800, "a", 24000], "trial": 4, "serialpos": 9, "trial_type": "single-audio", "trial_index": 154, "time_elapsed": 708382, "internal_node_id": "0.0-109.0"}}, {"uniqueid": "MTK0072:3TDXMTX3CC1A1AO7FD4RB0USXV8I6T", "current_trial": 155, "dateTime": 1509130506426, "trialdata": {"rt": -1000, "stimulus": "/static/audio/wordpool/FRANCE.wav", "key_press": -1, "type": "PRES_AUD", "word": "france", "wordID": 600, "conditions": [12, 800, "a", 24000], "trial": 4, "serialpos": 10, "trial_type": "single-audio", "trial_index": 155, "time_elapsed": 710273, "internal_node_id": "0.0-110.0"}}, {"uniqueid": "MTK0072:3TDXMTX3CC1A1AO7FD4RB0USXV8I6T", "current_trial": 156, "dateTime": 1509130508379, "trialdata": {"rt": -1000, "stimulus": "/static/audio/wordpool/SCOTCH.wav", "key_press": -1, "type": "PRES_AUD", "word": "scotch", "wordID": 1250, "conditions": [12, 800, "a", 24000], "trial": 4, "serialpos": 11, "trial_type": "single-audio", "trial_index": 156, "time_elapsed": 712226, "internal_node_id": "0.0-111.0"}}, {"uniqueid": "MTK0072:3TDXMTX3CC1A1AO7FD4RB0USXV8I6T", "current_trial": 157, "dateTime": 1509130509625, "trialdata": {"rt": -1, "stimulus": "", "key_press": -1, "type": "PRE_RECALL_DELAY", "trial_type": "single-stim", "trial_index": 157, "time_elapsed": 713472, "internal_node_id": "0.0-112.0-0.0"}}, {"uniqueid": "MTK0072:3TDXMTX3CC1A1AO7FD4RB0USXV8I6T", "current_trial": 158, "dateTime": 1509130510126, "trialdata": {"rt": -1000, "stimulus": "/static/audio/400Hz.wav", "key_press": -1, "type": "PRE_RECALL_ALERT", "trial_type": "single-audio", "trial_index": 158, "time_elapsed": 713973, "internal_node_id": "0.0-113.0"}}, {"uniqueid": "MTK0072:3TDXMTX3CC1A1AO7FD4RB0USXV8I6T", "current_trial": 159, "dateTime": 1509130570135, "trialdata": {"rt": [3420, 5800, 8665, 11035, 13615, 40896], "recwords": ["london", "france", "scotch", "uncle", "sister", "think"], "type": "FREE_RECALL", "conditions": [12, 800, "a", 24000], "trial": 4, "trial_type": "free-recall", "trial_index": 159, "time_elapsed": 773979, "internal_node_id": "0.0-114.0-0.0"}}, {"uniqueid": "MTK0072:3TDXMTX3CC1A1AO7FD4RB0USXV8I6T", "current_trial": 160, "dateTime": 1509130572656, "trialdata": {"rt": 520, "key_press": 32, "type": "INSTRUCTIONS", "trial_type": "text", "trial_index": 160, "time_elapsed": 776503, "internal_node_id": "0.0-115.0"}}, {"uniqueid": "MTK0072:3TDXMTX3CC1A1AO7FD4RB0USXV8I6T", "current_trial": 161, "dateTime": 1509130598660, "trialdata": {"rt": [3018, 4838, 8840, 11389, 13878, 17937, 21001], "responses": ["15", "11", "20", "17", "21", "15", "11"], "num1": [9, 2, 7, 3, 9, 6, 6, 3], "num2": [1, 5, 6, 8, 8, 1, 1, 1], "num3": [5, 4, 7, 6, 4, 8, 4, 6], "type": "DISTRACTOR", "conditions": [12, 1600, "v", 24000], "trial": 5, "trial_type": "math-distractor", "trial_index": 161, "time_elapsed": 802506, "internal_node_id": "0.0-116.0"}}, {"uniqueid": "MTK0072:3TDXMTX3CC1A1AO7FD4RB0USXV8I6T", "current_trial": 162, "dateTime": 1509130601662, "trialdata": {"rt": -1, "stimulus": "<p id=\"stim\">10</p>", "key_press": -1, "trial_type": "single-stim", "trial_index": 162, "time_elapsed": 805509, "internal_node_id": "0.0-117.0-0.0"}}, {"uniqueid": "MTK0072:3TDXMTX3CC1A1AO7FD4RB0USXV8I6T", "current_trial": 163, "dateTime": 1509130602664, "trialdata": {"rt": -1, "stimulus": "<p id=\"stim\">9</p>", "key_press": -1, "trial_type": "single-stim", "trial_index": 163, "time_elapsed": 806510, "internal_node_id": "0.0-117.0-1.0"}}, {"uniqueid": "MTK0072:3TDXMTX3CC1A1AO7FD4RB0USXV8I6T", "current_trial": 164, "dateTime": 1509130603665, "trialdata": {"rt": -1, "stimulus": "<p id=\"stim\">8</p>", "key_press": -1, "trial_type": "single-stim", "trial_index": 164, "time_elapsed": 807512, "internal_node_id": "0.0-117.0-2.0"}}, {"uniqueid": "MTK0072:3TDXMTX3CC1A1AO7FD4RB0USXV8I6T", "current_trial": 165, "dateTime": 1509130604666, "trialdata": {"rt": -1, "stimulus": "<p id=\"stim\">7</p>", "key_press": -1, "trial_type": "single-stim", "trial_index": 165, "time_elapsed": 808513, "internal_node_id": "0.0-117.0-3.0"}}, {"uniqueid": "MTK0072:3TDXMTX3CC1A1AO7FD4RB0USXV8I6T", "current_trial": 166, "dateTime": 1509130605667, "trialdata": {"rt": -1, "stimulus": "<p id=\"stim\">6</p>", "key_press": -1, "trial_type": "single-stim", "trial_index": 166, "time_elapsed": 809514, "internal_node_id": "0.0-117.0-4.0"}}, {"uniqueid": "MTK0072:3TDXMTX3CC1A1AO7FD4RB0USXV8I6T", "current_trial": 167, "dateTime": 1509130606668, "trialdata": {"rt": -1, "stimulus": "<p id=\"stim\">5</p>", "key_press": -1, "trial_type": "single-stim", "trial_index": 167, "time_elapsed": 810515, "internal_node_id": "0.0-117.0-5.0"}}, {"uniqueid": "MTK0072:3TDXMTX3CC1A1AO7FD4RB0USXV8I6T", "current_trial": 168, "dateTime": 1509130607670, "trialdata": {"rt": -1, "stimulus": "<p id=\"stim\">4</p>", "key_press": -1, "trial_type": "single-stim", "trial_index": 168, "time_elapsed": 811516, "internal_node_id": "0.0-117.0-6.0"}}, {"uniqueid": "MTK0072:3TDXMTX3CC1A1AO7FD4RB0USXV8I6T", "current_trial": 169, "dateTime": 1509130608671, "trialdata": {"rt": -1, "stimulus": "<p id=\"stim\">3</p>", "key_press": -1, "trial_type": "single-stim", "trial_index": 169, "time_elapsed": 812518, "internal_node_id": "0.0-117.0-7.0"}}, {"uniqueid": "MTK0072:3TDXMTX3CC1A1AO7FD4RB0USXV8I6T", "current_trial": 170, "dateTime": 1509130609673, "trialdata": {"rt": -1, "stimulus": "<p id=\"stim\">2</p>", "key_press": -1, "trial_type": "single-stim", "trial_index": 170, "time_elapsed": 813520, "internal_node_id": "0.0-117.0-8.0"}}, {"uniqueid": "MTK0072:3TDXMTX3CC1A1AO7FD4RB0USXV8I6T", "current_trial": 171, "dateTime": 1509130610674, "trialdata": {"rt": -1, "stimulus": "<p id=\"stim\">1</p>", "key_press": -1, "trial_type": "single-stim", "trial_index": 171, "time_elapsed": 814521, "internal_node_id": "0.0-117.0-9.0"}}, {"uniqueid": "MTK0072:3TDXMTX3CC1A1AO7FD4RB0USXV8I6T", "current_trial": 172, "dateTime": 1509130612176, "trialdata": {"rt": -1, "stimulus": "<p id=\"stim\">+</p>", "key_press": -1, "type": "FIXATION", "trial_type": "single-stim", "trial_index": 172, "time_elapsed": 816023, "internal_node_id": "0.0-118.0-0.0"}}, {"uniqueid": "MTK0072:3TDXMTX3CC1A1AO7FD4RB0USXV8I6T", "current_trial": 173, "dateTime": 1509130613778, "trialdata": {"rt": -1, "stimulus": "<p id=\"stim\">VALLEY</p>", "key_press": -1, "type": "PRES_VIS", "word": "valley", "wordID": 1544, "conditions": [12, 1600, "v", 24000], "trial": 5, "serialpos": 0, "trial_type": "single-stim", "trial_index": 173, "time_elapsed": 817624, "internal_node_id": "0.0-119.0"}}, {"uniqueid": "MTK0072:3TDXMTX3CC1A1AO7FD4RB0USXV8I6T", "current_trial": 174, "dateTime": 1509130616201, "trialdata": {"rt": -1, "stimulus": "<p id=\"stim\">SHORTCAKE</p>", "key_press": -1, "type": "PRES_VIS", "word": "shortcake", "wordID": 1291, "conditions": [12, 1600, "v", 24000], "trial": 5, "serialpos": 1, "trial_type": "single-stim", "trial_index": 174, "time_elapsed": 820047, "internal_node_id": "0.0-120.0"}}, {"uniqueid": "MTK0072:3TDXMTX3CC1A1AO7FD4RB0USXV8I6T", "current_trial": 175, "dateTime": 1509130618863, "trialdata": {"rt": -1, "stimulus": "<p id=\"stim\">LAGOON</p>", "key_press": -1, "type": "PRES_VIS", "word": "lagoon", "wordID": 794, "conditions": [12, 1600, "v", 24000], "trial": 5, "serialpos": 2, "trial_type": "single-stim", "trial_index": 175, "time_elapsed": 822710, "internal_node_id": "0.0-121.0"}}, {"uniqueid": "MTK0072:3TDXMTX3CC1A1AO7FD4RB0USXV8I6T", "current_trial": 176, "dateTime": 1509130621289, "trialdata": {"rt": -1, "stimulus": "<p id=\"stim\">LASER</p>", "key_press": -1, "type": "PRES_VIS", "word": "laser", "wordID": 800, "conditions": [12, 1600, "v", 24000], "trial": 5, "serialpos": 3, "trial_type": "single-stim", "trial_index": 176, "time_elapsed": 825136, "internal_node_id": "0.0-122.0"}}, {"uniqueid": "MTK0072:3TDXMTX3CC1A1AO7FD4RB0USXV8I6T", "current_trial": 177, "dateTime": 1509130624066, "trialdata": {"rt": -1, "stimulus": "<p id=\"stim\">CHEST</p>", "key_press": -1, "type": "PRES_VIS", "word": "chest", "wordID": 294, "conditions": [12, 1600, "v", 24000], "trial": 5, "serialpos": 4, "trial_type": "single-stim", "trial_index": 177, "time_elapsed": 827913, "internal_node_id": "0.0-123.0"}}, {"uniqueid": "MTK0072:3TDXMTX3CC1A1AO7FD4RB0USXV8I6T", "current_trial": 178, "dateTime": 1509130626680, "trialdata": {"rt": -1, "stimulus": "<p id=\"stim\">MAILMAN</p>", "key_press": -1, "type": "PRES_VIS", "word": "mailman", "wordID": 857, "conditions": [12, 1600, "v", 24000], "trial": 5, "serialpos": 5, "trial_type": "single-stim", "trial_index": 178, "time_elapsed": 830526, "internal_node_id": "0.0-124.0"}}, {"uniqueid": "MTK0072:3TDXMTX3CC1A1AO7FD4RB0USXV8I6T", "current_trial": 179, "dateTime": 1509130629440, "trialdata": {"rt": -1, "stimulus": "<p id=\"stim\">CANYON</p>", "key_press": -1, "type": "PRES_VIS", "word": "canyon", "wordID": 234, "conditions": [12, 1600, "v", 24000], "trial": 5, "serialpos": 6, "trial_type": "single-stim", "trial_index": 179, "time_elapsed": 833287, "internal_node_id": "0.0-125.0"}}, {"uniqueid": "MTK0072:3TDXMTX3CC1A1AO7FD4RB0USXV8I6T", "current_trial": 180, "dateTime": 1509130631863, "trialdata": {"rt": -1, "stimulus": "<p id=\"stim\">PARROT</p>", "key_press": -1, "type": "PRES_VIS", "word": "parrot", "wordID": 1014, "conditions": [12, 1600, "v", 24000], "trial": 5, "serialpos": 7, "trial_type": "single-stim", "trial_index": 180, "time_elapsed": 835710, "internal_node_id": "0.0-126.0"}}, {"uniqueid": "MTK0072:3TDXMTX3CC1A1AO7FD4RB0USXV8I6T", "current_trial": 181, "dateTime": 1509130634399, "trialdata": {"rt": -1, "stimulus": "<p id=\"stim\">ROOSTER</p>", "key_press": -1, "type": "PRES_VIS", "word": "rooster", "wordID": 1208, "conditions": [12, 1600, "v", 24000], "trial": 5, "serialpos": 8, "trial_type": "single-stim", "trial_index": 181, "time_elapsed": 838246, "internal_node_id": "0.0-127.0"}}, {"uniqueid": "MTK0072:3TDXMTX3CC1A1AO7FD4RB0USXV8I6T", "current_trial": 182, "dateTime": 1509130636895, "trialdata": {"rt": -1, "stimulus": "<p id=\"stim\">OYSTER</p>", "key_press": -1, "type": "PRES_VIS", "word": "oyster", "wordID": 994, "conditions": [12, 1600, "v", 24000], "trial": 5, "serialpos": 9, "trial_type": "single-stim", "trial_index": 182, "time_elapsed": 840741, "internal_node_id": "0.0-128.0"}}, {"uniqueid": "MTK0072:3TDXMTX3CC1A1AO7FD4RB0USXV8I6T", "current_trial": 183, "dateTime": 1509130639686, "trialdata": {"rt": -1, "stimulus": "<p id=\"stim\">DRINK</p>", "key_press": -1, "type": "PRES_VIS", "word": "drink", "wordID": 497, "conditions": [12, 1600, "v", 24000], "trial": 5, "serialpos": 10, "trial_type": "single-stim", "trial_index": 183, "time_elapsed": 843532, "internal_node_id": "0.0-129.0"}}, {"uniqueid": "MTK0072:3TDXMTX3CC1A1AO7FD4RB0USXV8I6T", "current_trial": 184, "dateTime": 1509130642461, "trialdata": {"rt": -1, "stimulus": "<p id=\"stim\">RIFLE</p>", "key_press": -1, "type": "PRES_VIS", "word": "rifle", "wordID": 1191, "conditions": [12, 1600, "v", 24000], "trial": 5, "serialpos": 11, "trial_type": "single-stim", "trial_index": 184, "time_elapsed": 846308, "internal_node_id": "0.0-130.0"}}, {"uniqueid": "MTK0072:3TDXMTX3CC1A1AO7FD4RB0USXV8I6T", "current_trial": 185, "dateTime": 1509130644549, "trialdata": {"rt": -1, "stimulus": "", "key_press": -1, "type": "PRE_RECALL_DELAY", "trial_type": "single-stim", "trial_index": 185, "time_elapsed": 848396, "internal_node_id": "0.0-131.0-0.0"}}, {"uniqueid": "MTK0072:3TDXMTX3CC1A1AO7FD4RB0USXV8I6T", "current_trial": 186, "dateTime": 1509130645052, "trialdata": {"rt": -1000, "stimulus": "/static/audio/400Hz.wav", "key_press": -1, "type": "PRE_RECALL_ALERT", "trial_type": "single-audio", "trial_index": 186, "time_elapsed": 848899, "internal_node_id": "0.0-132.0"}}, {"uniqueid": "MTK0072:3TDXMTX3CC1A1AO7FD4RB0USXV8I6T", "current_trial": 187, "dateTime": 1509130705064, "trialdata": {"rt": [3225, 13675, 26420, 30908, 35214, 40017, 50586], "recwords": ["rifle", "parrot", "valley", "lagoon", "laser", "shortcake", "mailman"], "type": "FREE_RECALL", "conditions": [12, 1600, "v", 24000], "trial": 5, "trial_type": "free-recall", "trial_index": 187, "time_elapsed": 908905, "internal_node_id": "0.0-133.0-0.0"}}, {"uniqueid": "MTK0072:3TDXMTX3CC1A1AO7FD4RB0USXV8I6T", "current_trial": 188, "dateTime": 1509130708158, "trialdata": {"rt": 1092, "key_press": 32, "type": "INSTRUCTIONS", "trial_type": "text", "trial_index": 188, "time_elapsed": 912005, "internal_node_id": "0.0-134.0"}}, {"uniqueid": "MTK0072:3TDXMTX3CC1A1AO7FD4RB0USXV8I6T", "current_trial": 189, "dateTime": 1509130722162, "trialdata": {"rt": [3784, 6407, 9424], "responses": ["22", "16", "13"], "num1": [8, 7, 6, 9], "num2": [5, 8, 6, 9], "num3": [9, 2, 1, 7], "type": "DISTRACTOR", "conditions": [24, 800, "v", 12000], "trial": 6, "trial_type": "math-distractor", "trial_index": 189, "time_elapsed": 926009, "internal_node_id": "0.0-135.0"}}, {"uniqueid": "MTK0072:3TDXMTX3CC1A1AO7FD4RB0USXV8I6T", "current_trial": 190, "dateTime": 1509130725165, "trialdata": {"rt": -1, "stimulus": "<p id=\"stim\">10</p>", "key_press": -1, "trial_type": "single-stim", "trial_index": 190, "time_elapsed": 929012, "internal_node_id": "0.0-136.0-0.0"}}, {"uniqueid": "MTK0072:3TDXMTX3CC1A1AO7FD4RB0USXV8I6T", "current_trial": 191, "dateTime": 1509130726166, "trialdata": {"rt": -1, "stimulus": "<p id=\"stim\">9</p>", "key_press": -1, "trial_type": "single-stim", "trial_index": 191, "time_elapsed": 930013, "internal_node_id": "0.0-136.0-1.0"}}, {"uniqueid": "MTK0072:3TDXMTX3CC1A1AO7FD4RB0USXV8I6T", "current_trial": 192, "dateTime": 1509130727168, "trialdata": {"rt": -1, "stimulus": "<p id=\"stim\">8</p>", "key_press": -1, "trial_type": "single-stim", "trial_index": 192, "time_elapsed": 931014, "internal_node_id": "0.0-136.0-2.0"}}, {"uniqueid": "MTK0072:3TDXMTX3CC1A1AO7FD4RB0USXV8I6T", "current_trial": 193, "dateTime": 1509130728170, "trialdata": {"rt": -1, "stimulus": "<p id=\"stim\">7</p>", "key_press": -1, "trial_type": "single-stim", "trial_index": 193, "time_elapsed": 932017, "internal_node_id": "0.0-136.0-3.0"}}, {"uniqueid": "MTK0072:3TDXMTX3CC1A1AO7FD4RB0USXV8I6T", "current_trial": 194, "dateTime": 1509130729172, "trialdata": {"rt": -1, "stimulus": "<p id=\"stim\">6</p>", "key_press": -1, "trial_type": "single-stim", "trial_index": 194, "time_elapsed": 933018, "internal_node_id": "0.0-136.0-4.0"}}, {"uniqueid": "MTK0072:3TDXMTX3CC1A1AO7FD4RB0USXV8I6T", "current_trial": 195, "dateTime": 1509130730173, "trialdata": {"rt": -1, "stimulus": "<p id=\"stim\">5</p>", "key_press": -1, "trial_type": "single-stim", "trial_index": 195, "time_elapsed": 934020, "internal_node_id": "0.0-136.0-5.0"}}, {"uniqueid": "MTK0072:3TDXMTX3CC1A1AO7FD4RB0USXV8I6T", "current_trial": 196, "dateTime": 1509130731174, "trialdata": {"rt": -1, "stimulus": "<p id=\"stim\">4</p>", "key_press": -1, "trial_type": "single-stim", "trial_index": 196, "time_elapsed": 935021, "internal_node_id": "0.0-136.0-6.0"}}, {"uniqueid": "MTK0072:3TDXMTX3CC1A1AO7FD4RB0USXV8I6T", "current_trial": 197, "dateTime": 1509130732177, "trialdata": {"rt": -1, "stimulus": "<p id=\"stim\">3</p>", "key_press": -1, "trial_type": "single-stim", "trial_index": 197, "time_elapsed": 936024, "internal_node_id": "0.0-136.0-7.0"}}, {"uniqueid": "MTK0072:3TDXMTX3CC1A1AO7FD4RB0USXV8I6T", "current_trial": 198, "dateTime": 1509130733179, "trialdata": {"rt": -1, "stimulus": "<p id=\"stim\">2</p>", "key_press": -1, "trial_type": "single-stim", "trial_index": 198, "time_elapsed": 937026, "internal_node_id": "0.0-136.0-8.0"}}, {"uniqueid": "MTK0072:3TDXMTX3CC1A1AO7FD4RB0USXV8I6T", "current_trial": 199, "dateTime": 1509130734181, "trialdata": {"rt": -1, "stimulus": "<p id=\"stim\">1</p>", "key_press": -1, "trial_type": "single-stim", "trial_index": 199, "time_elapsed": 938028, "internal_node_id": "0.0-136.0-9.0"}}, {"uniqueid": "MTK0072:3TDXMTX3CC1A1AO7FD4RB0USXV8I6T", "current_trial": 200, "dateTime": 1509130735683, "trialdata": {"rt": -1, "stimulus": "<p id=\"stim\">+</p>", "key_press": -1, "type": "FIXATION", "trial_type": "single-stim", "trial_index": 200, "time_elapsed": 939530, "internal_node_id": "0.0-137.0-0.0"}}, {"uniqueid": "MTK0072:3TDXMTX3CC1A1AO7FD4RB0USXV8I6T", "current_trial": 201, "dateTime": 1509130736484, "trialdata": {"rt": -1, "stimulus": "<p id=\"stim\">COOKBOOK</p>", "key_press": -1, "type": "PRES_VIS", "word": "cookbook", "wordID": 372, "conditions": [24, 800, "v", 12000], "trial": 6, "serialpos": 0, "trial_type": "single-stim", "trial_index": 201, "time_elapsed": 940331, "internal_node_id": "0.0-138.0"}}, {"uniqueid": "MTK0072:3TDXMTX3CC1A1AO7FD4RB0USXV8I6T", "current_trial": 202, "dateTime": 1509130738421, "trialdata": {"rt": -1, "stimulus": "<p id=\"stim\">AUTHOR</p>", "key_press": -1, "type": "PRES_VIS", "word": "author", "wordID": 60, "conditions": [24, 800, "v", 12000], "trial": 6, "serialpos": 1, "trial_type": "single-stim", "trial_index": 202, "time_elapsed": 942268, "internal_node_id": "0.0-139.0"}}, {"uniqueid": "MTK0072:3TDXMTX3CC1A1AO7FD4RB0USXV8I6T", "current_trial": 203, "dateTime": 1509130740341, "trialdata": {"rt": -1, "stimulus": "<p id=\"stim\">NOTEBOOK</p>", "key_press": -1, "type": "PRES_VIS", "word": "notebook", "wordID": 958, "conditions": [24, 800, "v", 12000], "trial": 6, "serialpos": 2, "trial_type": "single-stim", "trial_index": 203, "time_elapsed": 944187, "internal_node_id": "0.0-140.0"}}, {"uniqueid": "MTK0072:3TDXMTX3CC1A1AO7FD4RB0USXV8I6T", "current_trial": 204, "dateTime": 1509130742110, "trialdata": {"rt": -1, "stimulus": "<p id=\"stim\">JUNGLE</p>", "key_press": -1, "type": "PRES_VIS", "word": "jungle", "wordID": 763, "conditions": [24, 800, "v", 12000], "trial": 6, "serialpos": 3, "trial_type": "single-stim", "trial_index": 204, "time_elapsed": 945957, "internal_node_id": "0.0-141.0"}}, {"uniqueid": "MTK0072:3TDXMTX3CC1A1AO7FD4RB0USXV8I6T", "current_trial": 205, "dateTime": 1509130743960, "trialdata": {"rt": -1, "stimulus": "<p id=\"stim\">POET</p>", "key_press": -1, "type": "PRES_VIS", "word": "poet", "wordID": 1094, "conditions": [24, 800, "v", 12000], "trial": 6, "serialpos": 4, "trial_type": "single-stim", "trial_index": 205, "time_elapsed": 947806, "internal_node_id": "0.0-142.0"}}, {"uniqueid": "MTK0072:3TDXMTX3CC1A1AO7FD4RB0USXV8I6T", "current_trial": 206, "dateTime": 1509130745930, "trialdata": {"rt": -1, "stimulus": "<p id=\"stim\">FRIEND</p>", "key_press": -1, "type": "PRES_VIS", "word": "friend", "wordID": 605, "conditions": [24, 800, "v", 12000], "trial": 6, "serialpos": 5, "trial_type": "single-stim", "trial_index": 206, "time_elapsed": 949777, "internal_node_id": "0.0-143.0"}}, {"uniqueid": "MTK0072:3TDXMTX3CC1A1AO7FD4RB0USXV8I6T", "current_trial": 207, "dateTime": 1509130747654, "trialdata": {"rt": -1, "stimulus": "<p id=\"stim\">GLOVE</p>", "key_press": -1, "type": "PRES_VIS", "word": "glove", "wordID": 641, "conditions": [24, 800, "v", 12000], "trial": 6, "serialpos": 6, "trial_type": "single-stim", "trial_index": 207, "time_elapsed": 951501, "internal_node_id": "0.0-144.0"}}, {"uniqueid": "MTK0072:3TDXMTX3CC1A1AO7FD4RB0USXV8I6T", "current_trial": 208, "dateTime": 1509130749542, "trialdata": {"rt": -1, "stimulus": "<p id=\"stim\">SHERIFF</p>", "key_press": -1, "type": "PRES_VIS", "word": "sheriff", "wordID": 1283, "conditions": [24, 800, "v", 12000], "trial": 6, "serialpos": 7, "trial_type": "single-stim", "trial_index": 208, "time_elapsed": 953389, "internal_node_id": "0.0-145.0"}}, {"uniqueid": "MTK0072:3TDXMTX3CC1A1AO7FD4RB0USXV8I6T", "current_trial": 209, "dateTime": 1509130751286, "trialdata": {"rt": -1, "stimulus": "<p id=\"stim\">COUNTY</p>", "key_press": -1, "type": "PRES_VIS", "word": "county", "wordID": 388, "conditions": [24, 800, "v", 12000], "trial": 6, "serialpos": 8, "trial_type": "single-stim", "trial_index": 209, "time_elapsed": 955133, "internal_node_id": "0.0-146.0"}}, {"uniqueid": "MTK0072:3TDXMTX3CC1A1AO7FD4RB0USXV8I6T", "current_trial": 210, "dateTime": 1509130752905, "trialdata": {"rt": -1, "stimulus": "<p id=\"stim\">MONSTER</p>", "key_press": -1, "type": "PRES_VIS", "word": "monster", "wordID": 911, "conditions": [24, 800, "v", 12000], "trial": 6, "serialpos": 9, "trial_type": "single-stim", "trial_index": 210, "time_elapsed": 956752, "internal_node_id": "0.0-147.0"}}, {"uniqueid": "MTK0072:3TDXMTX3CC1A1AO7FD4RB0USXV8I6T", "current_trial": 211, "dateTime": 1509130754758, "trialdata": {"rt": -1, "stimulus": "<p id=\"stim\">WIFE</p>", "key_press": -1, "type": "PRES_VIS", "word": "wife", "wordID": 1608, "conditions": [24, 800, "v", 12000], "trial": 6, "serialpos": 10, "trial_type": "single-stim", "trial_index": 211, "time_elapsed": 958605, "internal_node_id": "0.0-148.0"}}, {"uniqueid": "MTK0072:3TDXMTX3CC1A1AO7FD4RB0USXV8I6T", "current_trial": 212, "dateTime": 1509130756467, "trialdata": {"rt": -1, "stimulus": "<p id=\"stim\">NOVEL</p>", "key_press": -1, "type": "PRES_VIS", "word": "novel", "wordID": 959, "conditions": [24, 800, "v", 12000], "trial": 6, "serialpos": 11, "trial_type": "single-stim", "trial_index": 212, "time_elapsed": 960314, "internal_node_id": "0.0-149.0"}}, {"uniqueid": "MTK0072:3TDXMTX3CC1A1AO7FD4RB0USXV8I6T", "current_trial": 213, "dateTime": 1509130758136, "trialdata": {"rt": -1, "stimulus": "<p id=\"stim\">CASHEW</p>", "key_press": -1, "type": "PRES_VIS", "word": "cashew", "wordID": 252, "conditions": [24, 800, "v", 12000], "trial": 6, "serialpos": 12, "trial_type": "single-stim", "trial_index": 213, "time_elapsed": 961982, "internal_node_id": "0.0-150.0"}}, {"uniqueid": "MTK0072:3TDXMTX3CC1A1AO7FD4RB0USXV8I6T", "current_trial": 214, "dateTime": 1509130759741, "trialdata": {"rt": -1, "stimulus": "<p id=\"stim\">STOVE</p>", "key_press": -1, "type": "PRES_VIS", "word": "stove", "wordID": 1387, "conditions": [24, 800, "v", 12000], "trial": 6, "serialpos": 13, "trial_type": "single-stim", "trial_index": 214, "time_elapsed": 963588, "internal_node_id": "0.0-151.0"}}, {"uniqueid": "MTK0072:3TDXMTX3CC1A1AO7FD4RB0USXV8I6T", "current_trial": 215, "dateTime": 1509130761352, "trialdata": {"rt": -1, "stimulus": "<p id=\"stim\">TOASTER</p>", "key_press": -1, "type": "PRES_VIS", "word": "toaster", "wordID": 1471, "conditions": [24, 800, "v", 12000], "trial": 6, "serialpos": 14, "trial_type": "single-stim", "trial_index": 215, "time_elapsed": 965198, "internal_node_id": "0.0-152.0"}}, {"uniqueid": "MTK0072:3TDXMTX3CC1A1AO7FD4RB0USXV8I6T", "current_trial": 216, "dateTime": 1509130762962, "trialdata": {"rt": -1, "stimulus": "<p id=\"stim\">SPOOL</p>", "key_press": -1, "type": "PRES_VIS", "word": "spool", "wordID": 1355, "conditions": [24, 800, "v", 12000], "trial": 6, "serialpos": 15, "trial_type": "single-stim", "trial_index": 216, "time_elapsed": 966809, "internal_node_id": "0.0-153.0"}}, {"uniqueid": "MTK0072:3TDXMTX3CC1A1AO7FD4RB0USXV8I6T", "current_trial": 217, "dateTime": 1509130764686, "trialdata": {"rt": -1, "stimulus": "<p id=\"stim\">CRITIC</p>", "key_press": -1, "type": "PRES_VIS", "word": "critic", "wordID": 409, "conditions": [24, 800, "v", 12000], "trial": 6, "serialpos": 16, "trial_type": "single-stim", "trial_index": 217, "time_elapsed": 968533, "internal_node_id": "0.0-154.0"}}, {"uniqueid": "MTK0072:3TDXMTX3CC1A1AO7FD4RB0USXV8I6T", "current_trial": 218, "dateTime": 1509130766502, "trialdata": {"rt": -1, "stimulus": "<p id=\"stim\">INFANT</p>", "key_press": -1, "type": "PRES_VIS", "word": "infant", "wordID": 736, "conditions": [24, 800, "v", 12000], "trial": 6, "serialpos": 17, "trial_type": "single-stim", "trial_index": 218, "time_elapsed": 970349, "internal_node_id": "0.0-155.0"}}, {"uniqueid": "MTK0072:3TDXMTX3CC1A1AO7FD4RB0USXV8I6T", "current_trial": 219, "dateTime": 1509130768122, "trialdata": {"rt": -1, "stimulus": "<p id=\"stim\">GRAVEL</p>", "key_press": -1, "type": "PRES_VIS", "word": "gravel", "wordID": 658, "conditions": [24, 800, "v", 12000], "trial": 6, "serialpos": 18, "trial_type": "single-stim", "trial_index": 219, "time_elapsed": 971969, "internal_node_id": "0.0-156.0"}}, {"uniqueid": "MTK0072:3TDXMTX3CC1A1AO7FD4RB0USXV8I6T", "current_trial": 220, "dateTime": 1509130770072, "trialdata": {"rt": -1, "stimulus": "<p id=\"stim\">GRAPE</p>", "key_press": -1, "type": "PRES_VIS", "word": "grape", "wordID": 653, "conditions": [24, 800, "v", 12000], "trial": 6, "serialpos": 19, "trial_type": "single-stim", "trial_index": 220, "time_elapsed": 973919, "internal_node_id": "0.0-157.0"}}, {"uniqueid": "MTK0072:3TDXMTX3CC1A1AO7FD4RB0USXV8I6T", "current_trial": 221, "dateTime": 1509130772066, "trialdata": {"rt": -1, "stimulus": "<p id=\"stim\">BEEF</p>", "key_press": -1, "type": "PRES_VIS", "word": "beef", "wordID": 112, "conditions": [24, 800, "v", 12000], "trial": 6, "serialpos": 20, "trial_type": "single-stim", "trial_index": 221, "time_elapsed": 975913, "internal_node_id": "0.0-158.0"}}, {"uniqueid": "MTK0072:3TDXMTX3CC1A1AO7FD4RB0USXV8I6T", "current_trial": 222, "dateTime": 1509130773918, "trialdata": {"rt": -1, "stimulus": "<p id=\"stim\">RAFT</p>", "key_press": -1, "type": "PRES_VIS", "word": "raft", "wordID": 1158, "conditions": [24, 800, "v", 12000], "trial": 6, "serialpos": 21, "trial_type": "single-stim", "trial_index": 222, "time_elapsed": 977765, "internal_node_id": "0.0-159.0"}}, {"uniqueid": "MTK0072:3TDXMTX3CC1A1AO7FD4RB0USXV8I6T", "current_trial": 223, "dateTime": 1509130775526, "trialdata": {"rt": -1, "stimulus": "<p id=\"stim\">ROD</p>", "key_press": -1, "type": "PRES_VIS", "word": "rod", "wordID": 1202, "conditions": [24, 800, "v", 12000], "trial": 6, "serialpos": 22, "trial_type": "single-stim", "trial_index": 223, "time_elapsed": 979373, "internal_node_id": "0.0-160.0"}}, {"uniqueid": "MTK0072:3TDXMTX3CC1A1AO7FD4RB0USXV8I6T", "current_trial": 224, "dateTime": 1509130777370, "trialdata": {"rt": -1, "stimulus": "<p id=\"stim\">STREAM</p>", "key_press": -1, "type": "PRES_VIS", "word": "stream", "wordID": 1391, "conditions": [24, 800, "v", 12000], "trial": 6, "serialpos": 23, "trial_type": "single-stim", "trial_index": 224, "time_elapsed": 981217, "internal_node_id": "0.0-161.0"}}, {"uniqueid": "MTK0072:3TDXMTX3CC1A1AO7FD4RB0USXV8I6T", "current_trial": 225, "dateTime": 1509130779676, "trialdata": {"rt": -1, "stimulus": "", "key_press": -1, "type": "PRE_RECALL_DELAY", "trial_type": "single-stim", "trial_index": 225, "time_elapsed": 983522, "internal_node_id": "0.0-162.0-0.0"}}, {"uniqueid": "MTK0072:3TDXMTX3CC1A1AO7FD4RB0USXV8I6T", "current_trial": 226, "dateTime": 1509130780179, "trialdata": {"rt": -1000, "stimulus": "/static/audio/400Hz.wav", "key_press": -1, "type": "PRE_RECALL_ALERT", "trial_type": "single-audio", "trial_index": 226, "time_elapsed": 984026, "internal_node_id": "0.0-163.0"}}, {"uniqueid": "MTK0072:3TDXMTX3CC1A1AO7FD4RB0USXV8I6T", "current_trial": 227, "dateTime": 1509130840188, "trialdata": {"rt": [5702, 8560, 13052, 20693, 31124, 35904, 38692, 57908], "recwords": ["raft", "rod", "stream", "novel", "notebook", "author", "poet", "scrapbook"], "type": "FREE_RECALL", "conditions": [24, 800, "v", 12000], "trial": 6, "trial_type": "free-recall", "trial_index": 227, "time_elapsed": 1044029, "internal_node_id": "0.0-164.0-0.0"}}, {"uniqueid": "MTK0072:3TDXMTX3CC1A1AO7FD4RB0USXV8I6T", "current_trial": 228, "dateTime": 1509130843583, "trialdata": {"rt": 1393, "key_press": 32, "type": "INSTRUCTIONS", "trial_type": "text", "trial_index": 228, "time_elapsed": 1047430, "internal_node_id": "0.0-165.0"}}, {"uniqueid": "MTK0072:3TDXMTX3CC1A1AO7FD4RB0USXV8I6T", "current_trial": 229, "dateTime": 1509130869591, "trialdata": {"rt": [5812, 8204, 10284, 12437, 14347, 16682, 19081, 22433], "responses": ["14", "12", "15", "11", "15", "12", "12", "18"], "num1": [7, 3, 2, 3, 5, 4, 1, 6, 7], "num2": [4, 1, 7, 5, 5, 7, 9, 8, 3], "num3": [3, 8, 6, 3, 5, 1, 2, 4, 9], "type": "DISTRACTOR", "conditions": [24, 800, "a", 24000], "trial": 7, "trial_type": "math-distractor", "trial_index": 229, "time_elapsed": 1073438, "internal_node_id": "0.0-166.0"}}, {"uniqueid": "MTK0072:3TDXMTX3CC1A1AO7FD4RB0USXV8I6T", "current_trial": 230, "dateTime": 1509130872594, "trialdata": {"rt": -1, "stimulus": "<p id=\"stim\">10</p>", "key_press": -1, "trial_type": "single-stim", "trial_index": 230, "time_elapsed": 1076441, "internal_node_id": "0.0-167.0-0.0"}}, {"uniqueid": "MTK0072:3TDXMTX3CC1A1AO7FD4RB0USXV8I6T", "current_trial": 231, "dateTime": 1509130873596, "trialdata": {"rt": -1, "stimulus": "<p id=\"stim\">9</p>", "key_press": -1, "trial_type": "single-stim", "trial_index": 231, "time_elapsed": 1077443, "internal_node_id": "0.0-167.0-1.0"}}, {"uniqueid": "MTK0072:3TDXMTX3CC1A1AO7FD4RB0USXV8I6T", "current_trial": 232, "dateTime": 1509130874597, "trialdata": {"rt": -1, "stimulus": "<p id=\"stim\">8</p>", "key_press": -1, "trial_type": "single-stim", "trial_index": 232, "time_elapsed": 1078444, "internal_node_id": "0.0-167.0-2.0"}}, {"uniqueid": "MTK0072:3TDXMTX3CC1A1AO7FD4RB0USXV8I6T", "current_trial": 233, "dateTime": 1509130875599, "trialdata": {"rt": -1, "stimulus": "<p id=\"stim\">7</p>", "key_press": -1, "trial_type": "single-stim", "trial_index": 233, "time_elapsed": 1079446, "internal_node_id": "0.0-167.0-3.0"}}, {"uniqueid": "MTK0072:3TDXMTX3CC1A1AO7FD4RB0USXV8I6T", "current_trial": 234, "dateTime": 1509130876600, "trialdata": {"rt": -1, "stimulus": "<p id=\"stim\">6</p>", "key_press": -1, "trial_type": "single-stim", "trial_index": 234, "time_elapsed": 1080447, "internal_node_id": "0.0-167.0-4.0"}}, {"uniqueid": "MTK0072:3TDXMTX3CC1A1AO7FD4RB0USXV8I6T", "current_trial": 235, "dateTime": 1509130877602, "trialdata": {"rt": -1, "stimulus": "<p id=\"stim\">5</p>", "key_press": -1, "trial_type": "single-stim", "trial_index": 235, "time_elapsed": 1081449, "internal_node_id": "0.0-167.0-5.0"}}, {"uniqueid": "MTK0072:3TDXMTX3CC1A1AO7FD4RB0USXV8I6T", "current_trial": 236, "dateTime": 1509130878603, "trialdata": {"rt": -1, "stimulus": "<p id=\"stim\">4</p>", "key_press": -1, "trial_type": "single-stim", "trial_index": 236, "time_elapsed": 1082449, "internal_node_id": "0.0-167.0-6.0"}}, {"uniqueid": "MTK0072:3TDXMTX3CC1A1AO7FD4RB0USXV8I6T", "current_trial": 237, "dateTime": 1509130879604, "trialdata": {"rt": -1, "stimulus": "<p id=\"stim\">3</p>", "key_press": -1, "trial_type": "single-stim", "trial_index": 237, "time_elapsed": 1083451, "internal_node_id": "0.0-167.0-7.0"}}, {"uniqueid": "MTK0072:3TDXMTX3CC1A1AO7FD4RB0USXV8I6T", "current_trial": 238, "dateTime": 1509130880607, "trialdata": {"rt": -1, "stimulus": "<p id=\"stim\">2</p>", "key_press": -1, "trial_type": "single-stim", "trial_index": 238, "time_elapsed": 1084454, "internal_node_id": "0.0-167.0-8.0"}}, {"uniqueid": "MTK0072:3TDXMTX3CC1A1AO7FD4RB0USXV8I6T", "current_trial": 239, "dateTime": 1509130881609, "trialdata": {"rt": -1, "stimulus": "<p id=\"stim\">1</p>", "key_press": -1, "trial_type": "single-stim", "trial_index": 239, "time_elapsed": 1085456, "internal_node_id": "0.0-167.0-9.0"}}, {"uniqueid": "MTK0072:3TDXMTX3CC1A1AO7FD4RB0USXV8I6T", "current_trial": 240, "dateTime": 1509130883110, "trialdata": {"rt": -1, "stimulus": "<p id=\"stim\">+</p>", "key_press": -1, "type": "FIXATION", "trial_type": "single-stim", "trial_index": 240, "time_elapsed": 1086957, "internal_node_id": "0.0-168.0-0.0"}}, {"uniqueid": "MTK0072:3TDXMTX3CC1A1AO7FD4RB0USXV8I6T", "current_trial": 241, "dateTime": 1509130884947, "trialdata": {"rt": -1000, "stimulus": "/static/audio/wordpool/WARDROBE.wav", "key_press": -1, "type": "PRES_AUD", "word": "wardrobe", "wordID": 1586, "conditions": [24, 800, "a", 24000], "trial": 7, "serialpos": 0, "trial_type": "single-audio", "trial_index": 241, "time_elapsed": 1088794, "internal_node_id": "0.0-169.0"}}, {"uniqueid": "MTK0072:3TDXMTX3CC1A1AO7FD4RB0USXV8I6T", "current_trial": 242, "dateTime": 1509130886699, "trialdata": {"rt": -1000, "stimulus": "/static/audio/wordpool/DRESSER.wav", "key_press": -1, "type": "PRES_AUD", "word": "dresser", "wordID": 495, "conditions": [24, 800, "a", 24000], "trial": 7, "serialpos": 1, "trial_type": "single-audio", "trial_index": 242, "time_elapsed": 1090546, "internal_node_id": "0.0-170.0"}}, {"uniqueid": "MTK0072:3TDXMTX3CC1A1AO7FD4RB0USXV8I6T", "current_trial": 243, "dateTime": 1509130888621, "trialdata": {"rt": -1000, "stimulus": "/static/audio/wordpool/BLADE.wav", "key_press": -1, "type": "PRES_AUD", "word": "blade", "wordID": 133, "conditions": [24, 800, "a", 24000], "trial": 7, "serialpos": 2, "trial_type": "single-audio", "trial_index": 243, "time_elapsed": 1092467, "internal_node_id": "0.0-171.0"}}, {"uniqueid": "MTK0072:3TDXMTX3CC1A1AO7FD4RB0USXV8I6T", "current_trial": 244, "dateTime": 1509130890470, "trialdata": {"rt": -1000, "stimulus": "/static/audio/wordpool/WOMAN.wav", "key_press": -1, "type": "PRES_AUD", "word": "woman", "wordID": 1619, "conditions": [24, 800, "a", 24000], "trial": 7, "serialpos": 3, "trial_type": "single-audio", "trial_index": 244, "time_elapsed": 1094317, "internal_node_id": "0.0-172.0"}}, {"uniqueid": "MTK0072:3TDXMTX3CC1A1AO7FD4RB0USXV8I6T", "current_trial": 245, "dateTime": 1509130892237, "trialdata": {"rt": -1000, "stimulus": "/static/audio/wordpool/LAMP.wav", "key_press": -1, "type": "PRES_AUD", "word": "lamp", "wordID": 797, "conditions": [24, 800, "a", 24000], "trial": 7, "serialpos": 4, "trial_type": "single-audio", "trial_index": 245, "time_elapsed": 1096084, "internal_node_id": "0.0-173.0"}}, {"uniqueid": "MTK0072:3TDXMTX3CC1A1AO7FD4RB0USXV8I6T", "current_trial": 246, "dateTime": 1509130894201, "trialdata": {"rt": -1000, "stimulus": "/static/audio/wordpool/BACKBONE.wav", "key_press": -1, "type": "PRES_AUD", "word": "backbone", "wordID": 65, "conditions": [24, 800, "a", 24000], "trial": 7, "serialpos": 5, "trial_type": "single-audio", "trial_index": 246, "time_elapsed": 1098048, "internal_node_id": "0.0-174.0"}}, {"uniqueid": "MTK0072:3TDXMTX3CC1A1AO7FD4RB0USXV8I6T", "current_trial": 247, "dateTime": 1509130895989, "trialdata": {"rt": -1000, "stimulus": "/static/audio/wordpool/COTTAGE.wav", "key_press": -1, "type": "PRES_AUD", "word": "cottage", "wordID": 383, "conditions": [24, 800, "a", 24000], "trial": 7, "serialpos": 6, "trial_type": "single-audio", "trial_index": 247, "time_elapsed": 1099836, "internal_node_id": "0.0-175.0"}}, {"uniqueid": "MTK0072:3TDXMTX3CC1A1AO7FD4RB0USXV8I6T", "current_trial": 248, "dateTime": 1509130897631, "trialdata": {"rt": -1000, "stimulus": "/static/audio/wordpool/SUITCASE.wav", "key_press": -1, "type": "PRES_AUD", "word": "suitcase", "wordID": 1402, "conditions": [24, 800, "a", 24000], "trial": 7, "serialpos": 7, "trial_type": "single-audio", "trial_index": 248, "time_elapsed": 1101478, "internal_node_id": "0.0-176.0"}}, {"uniqueid": "MTK0072:3TDXMTX3CC1A1AO7FD4RB0USXV8I6T", "current_trial": 249, "dateTime": 1509130899610, "trialdata": {"rt": -1000, "stimulus": "/static/audio/wordpool/CITRUS.wav", "key_press": -1, "type": "PRES_AUD", "word": "citrus", "wordID": 312, "conditions": [24, 800, "a", 24000], "trial": 7, "serialpos": 8, "trial_type": "single-audio", "trial_index": 249, "time_elapsed": 1103457, "internal_node_id": "0.0-177.0"}}, {"uniqueid": "MTK0072:3TDXMTX3CC1A1AO7FD4RB0USXV8I6T", "current_trial": 250, "dateTime": 1509130901455, "trialdata": {"rt": -1000, "stimulus": "/static/audio/wordpool/PEACH.wav", "key_press": -1, "type": "PRES_AUD", "word": "peach", "wordID": 1030, "conditions": [24, 800, "a", 24000], "trial": 7, "serialpos": 9, "trial_type": "single-audio", "trial_index": 250, "time_elapsed": 1105302, "internal_node_id": "0.0-178.0"}}, {"uniqueid": "MTK0072:3TDXMTX3CC1A1AO7FD4RB0USXV8I6T", "current_trial": 251, "dateTime": 1509130903082, "trialdata": {"rt": -1000, "stimulus": "/static/audio/wordpool/BRIEFCASE.wav", "key_press": -1, "type": "PRES_AUD", "word": "briefcase", "wordID": 174, "conditions": [24, 800, "a", 24000], "trial": 7, "serialpos": 10, "trial_type": "single-audio", "trial_index": 251, "time_elapsed": 1106929, "internal_node_id": "0.0-179.0"}}, {"uniqueid": "MTK0072:3TDXMTX3CC1A1AO7FD4RB0USXV8I6T", "current_trial": 252, "dateTime": 1509130904957, "trialdata": {"rt": -1000, "stimulus": "/static/audio/wordpool/SEAFOOD.wav", "key_press": -1, "type": "PRES_AUD", "word": "seafood", "wordID": 1259, "conditions": [24, 800, "a", 24000], "trial": 7, "serialpos": 11, "trial_type": "single-audio", "trial_index": 252, "time_elapsed": 1108804, "internal_node_id": "0.0-180.0"}}, {"uniqueid": "MTK0072:3TDXMTX3CC1A1AO7FD4RB0USXV8I6T", "current_trial": 253, "dateTime": 1509130906744, "trialdata": {"rt": -1000, "stimulus": "/static/audio/wordpool/FRUIT.wav", "key_press": -1, "type": "PRES_AUD", "word": "fruit", "wordID": 609, "conditions": [24, 800, "a", 24000], "trial": 7, "serialpos": 12, "trial_type": "single-audio", "trial_index": 253, "time_elapsed": 1110591, "internal_node_id": "0.0-181.0"}}, {"uniqueid": "MTK0072:3TDXMTX3CC1A1AO7FD4RB0USXV8I6T", "current_trial": 254, "dateTime": 1509130908486, "trialdata": {"rt": -1000, "stimulus": "/static/audio/wordpool/SUNSET.wav", "key_press": -1, "type": "PRES_AUD", "word": "sunset", "wordID": 1407, "conditions": [24, 800, "a", 24000], "trial": 7, "serialpos": 13, "trial_type": "single-audio", "trial_index": 254, "time_elapsed": 1112333, "internal_node_id": "0.0-182.0"}}, {"uniqueid": "MTK0072:3TDXMTX3CC1A1AO7FD4RB0USXV8I6T", "current_trial": 255, "dateTime": 1509130910468, "trialdata": {"rt": -1000, "stimulus": "/static/audio/wordpool/FOOTBALL.wav", "key_press": -1, "type": "PRES_AUD", "word": "football", "wordID": 590, "conditions": [24, 800, "a", 24000], "trial": 7, "serialpos": 14, "trial_type": "single-audio", "trial_index": 255, "time_elapsed": 1114315, "internal_node_id": "0.0-183.0"}}, {"uniqueid": "MTK0072:3TDXMTX3CC1A1AO7FD4RB0USXV8I6T", "current_trial": 256, "dateTime": 1509130912421, "trialdata": {"rt": -1000, "stimulus": "/static/audio/wordpool/COCOON.wav", "key_press": -1, "type": "PRES_AUD", "word": "cocoon", "wordID": 338, "conditions": [24, 800, "a", 24000], "trial": 7, "serialpos": 15, "trial_type": "single-audio", "trial_index": 256, "time_elapsed": 1116268, "internal_node_id": "0.0-184.0"}}, {"uniqueid": "MTK0072:3TDXMTX3CC1A1AO7FD4RB0USXV8I6T", "current_trial": 257, "dateTime": 1509130914127, "trialdata": {"rt": -1000, "stimulus": "/static/audio/wordpool/WORLD.wav", "key_press": -1, "type": "PRES_AUD", "word": "world", "wordID": 1621, "conditions": [24, 800, "a", 24000], "trial": 7, "serialpos": 16, "trial_type": "single-audio", "trial_index": 257, "time_elapsed": 1117973, "internal_node_id": "0.0-185.0"}}, {"uniqueid": "MTK0072:3TDXMTX3CC1A1AO7FD4RB0USXV8I6T", "current_trial": 258, "dateTime": 1509130915799, "trialdata": {"rt": -1000, "stimulus": "/static/audio/wordpool/WHISKERS.wav", "key_press": -1, "type": "PRES_AUD", "word": "whiskers", "wordID": 1604, "conditions": [24, 800, "a", 24000], "trial": 7, "serialpos": 17, "trial_type": "single-audio", "trial_index": 258, "time_elapsed": 1119646, "internal_node_id": "0.0-186.0"}}, {"uniqueid": "MTK0072:3TDXMTX3CC1A1AO7FD4RB0USXV8I6T", "current_trial": 259, "dateTime": 1509130917677, "trialdata": {"rt": -1000, "stimulus": "/static/audio/wordpool/SUSPECT.wav", "key_press": -1, "type": "PRES_AUD", "word": "suspect", "wordID": 1414, "conditions": [24, 800, "a", 24000], "trial": 7, "serialpos": 18, "trial_type": "single-audio", "trial_index": 259, "time_elapsed": 1121524, "internal_node_id": "0.0-187.0"}}, {"uniqueid": "MTK0072:3TDXMTX3CC1A1AO7FD4RB0USXV8I6T", "current_trial": 260, "dateTime": 1509130919514, "trialdata": {"rt": -1000, "stimulus": "/static/audio/wordpool/BALLOON.wav", "key_press": -1, "type": "PRES_AUD", "word": "balloon", "wordID": 74, "conditions": [24, 800, "a", 24000], "trial": 7, "serialpos": 19, "trial_type": "single-audio", "trial_index": 260, "time_elapsed": 1123361, "internal_node_id": "0.0-188.0"}}, {"uniqueid": "MTK0072:3TDXMTX3CC1A1AO7FD4RB0USXV8I6T", "current_trial": 261, "dateTime": 1509130921247, "trialdata": {"rt": -1000, "stimulus": "/static/audio/wordpool/LETTUCE.wav", "key_press": -1, "type": "PRES_AUD", "word": "lettuce", "wordID": 813, "conditions": [24, 800, "a", 24000], "trial": 7, "serialpos": 20, "trial_type": "single-audio", "trial_index": 261, "time_elapsed": 1125094, "internal_node_id": "0.0-189.0"}}, {"uniqueid": "MTK0072:3TDXMTX3CC1A1AO7FD4RB0USXV8I6T", "current_trial": 262, "dateTime": 1509130923202, "trialdata": {"rt": -1000, "stimulus": "/static/audio/wordpool/SHARK.wav", "key_press": -1, "type": "PRES_AUD", "word": "shark", "wordID": 1274, "conditions": [24, 800, "a", 24000], "trial": 7, "serialpos": 21, "trial_type": "single-audio", "trial_index": 262, "time_elapsed": 1127048, "internal_node_id": "0.0-190.0"}}, {"uniqueid": "MTK0072:3TDXMTX3CC1A1AO7FD4RB0USXV8I6T", "current_trial": 263, "dateTime": 1509130925156, "trialdata": {"rt": -1000, "stimulus": "/static/audio/wordpool/FRAGRANCE.wav", "key_press": -1, "type": "PRES_AUD", "word": "fragrance", "wordID": 598, "conditions": [24, 800, "a", 24000], "trial": 7, "serialpos": 22, "trial_type": "single-audio", "trial_index": 263, "time_elapsed": 1129003, "internal_node_id": "0.0-191.0"}}, {"uniqueid": "MTK0072:3TDXMTX3CC1A1AO7FD4RB0USXV8I6T", "current_trial": 264, "dateTime": 1509130927040, "trialdata": {"rt": -1000, "stimulus": "/static/audio/wordpool/PERFUME.wav", "key_press": -1, "type": "PRES_AUD", "word": "perfume", "wordID": 1048, "conditions": [24, 800, "a", 24000], "trial": 7, "serialpos": 23, "trial_type": "single-audio", "trial_index": 264, "time_elapsed": 1130887, "internal_node_id": "0.0-192.0"}}, {"uniqueid": "MTK0072:3TDXMTX3CC1A1AO7FD4RB0USXV8I6T", "current_trial": 265, "dateTime": 1509130928276, "trialdata": {"rt": -1, "stimulus": "", "key_press": -1, "type": "PRE_RECALL_DELAY", "trial_type": "single-stim", "trial_index": 265, "time_elapsed": 1132123, "internal_node_id": "0.0-193.0-0.0"}}, {"uniqueid": "MTK0072:3TDXMTX3CC1A1AO7FD4RB0USXV8I6T", "current_trial": 266, "dateTime": 1509130928777, "trialdata": {"rt": -1000, "stimulus": "/static/audio/400Hz.wav", "key_press": -1, "type": "PRE_RECALL_ALERT", "trial_type": "single-audio", "trial_index": 266, "time_elapsed": 1132624, "internal_node_id": "0.0-194.0"}}, {"uniqueid": "MTK0072:3TDXMTX3CC1A1AO7FD4RB0USXV8I6T", "current_trial": 267, "dateTime": 1509130988782, "trialdata": {"rt": [3844, 7130, 15334, 18403, 23007, 27301, 31065, 41769, 44381, 47947, 52367, 58355], "recwords": ["letter", "shark", "fragrance", "perfume", "cottage", "dresser", "suitcase", "wardrobe", "citrus", "peach", "suitcase]", "football"], "type": "FREE_RECALL", "conditions": [24, 800, "a", 24000], "trial": 7, "trial_type": "free-recall", "trial_index": 267, "time_elapsed": 1192625, "internal_node_id": "0.0-195.0-0.0"}}, {"uniqueid": "MTK0072:3TDXMTX3CC1A1AO7FD4RB0USXV8I6T", "current_trial": 268, "dateTime": 1509130991755, "trialdata": {"rt": 972, "key_press": 32, "type": "INSTRUCTIONS", "trial_type": "text", "trial_index": 268, "time_elapsed": 1195602, "internal_node_id": "0.0-196.0"}}, {"uniqueid": "MTK0072:3TDXMTX3CC1A1AO7FD4RB0USXV8I6T", "current_trial": 269, "dateTime": 1509131005761, "trialdata": {"rt": [6538, 10017], "responses": ["14", "17"], "num1": [8, 5, 1], "num2": [4, 8, 3], "num3": [2, 4, 9], "type": "DISTRACTOR", "conditions": [24, 1600, "v", 12000], "trial": 8, "trial_type": "math-distractor", "trial_index": 269, "time_elapsed": 1209608, "internal_node_id": "0.0-197.0"}}, {"uniqueid": "MTK0072:3TDXMTX3CC1A1AO7FD4RB0USXV8I6T", "current_trial": 270, "dateTime": 1509131008764, "trialdata": {"rt": -1, "stimulus": "<p id=\"stim\">10</p>", "key_press": -1, "trial_type": "single-stim", "trial_index": 270, "time_elapsed": 1212611, "internal_node_id": "0.0-198.0-0.0"}}, {"uniqueid": "MTK0072:3TDXMTX3CC1A1AO7FD4RB0USXV8I6T", "current_trial": 271, "dateTime": 1509131009765, "trialdata": {"rt": -1, "stimulus": "<p id=\"stim\">9</p>", "key_press": -1, "trial_type": "single-stim", "trial_index": 271, "time_elapsed": 1213611, "internal_node_id": "0.0-198.0-1.0"}}, {"uniqueid": "MTK0072:3TDXMTX3CC1A1AO7FD4RB0USXV8I6T", "current_trial": 272, "dateTime": 1509131010767, "trialdata": {"rt": -1, "stimulus": "<p id=\"stim\">8</p>", "key_press": -1, "trial_type": "single-stim", "trial_index": 272, "time_elapsed": 1214613, "internal_node_id": "0.0-198.0-2.0"}}, {"uniqueid": "MTK0072:3TDXMTX3CC1A1AO7FD4RB0USXV8I6T", "current_trial": 273, "dateTime": 1509131011770, "trialdata": {"rt": -1, "stimulus": "<p id=\"stim\">7</p>", "key_press": -1, "trial_type": "single-stim", "trial_index": 273, "time_elapsed": 1215617, "internal_node_id": "0.0-198.0-3.0"}}, {"uniqueid": "MTK0072:3T