{"condition": 0, "counterbalance": 2329, "assignmentId": "30BUDKLTXE2221M7EB4VYFI0D1BE5D", "workerId": "MTK0961", "hitId": "3SD15I2WD21TON8U48S2IAWJ2ZG637", "currenttrial": 627, "bonus": 0, "data": [{"uniqueid": "MTK0961:30BUDKLTXE2221M7EB4VYFI0D1BE5D", "current_trial": 0, "dateTime": 1512938425894, "trialdata": {"rt": 4011, "key_press": 90, "type": "INSTRUCTIONS", "trial_type": "text", "trial_index": 0, "time_elapsed": 4017, "internal_node_id": "0.0-0.0"}}, {"uniqueid": "MTK0961:30BUDKLTXE2221M7EB4VYFI0D1BE5D", "current_trial": 1, "dateTime": 1512938460054, "trialdata": {"rt": 34157, "key_press": 90, "type": "INSTRUCTIONS", "trial_type": "text", "trial_index": 1, "time_elapsed": 38179, "internal_node_id": "0.0-1.0"}}, {"uniqueid": "MTK0961:30BUDKLTXE2221M7EB4VYFI0D1BE5D", "current_trial": 2, "dateTime": 1512938565190, "trialdata": {"rt": [105108], "responses": ["ocean"], "type": "AUDIO_TEST", "trial_type": "audio-test", "trial_index": 2, "time_elapsed": 143314, "internal_node_id": "0.0-2.0"}}, {"uniqueid": "MTK0961:30BUDKLTXE2221M7EB4VYFI0D1BE5D", "current_trial": 3, "dateTime": 1512938582144, "trialdata": {"rt": [16944], "responses": ["crystal"], "type": "AUDIO_TEST", "trial_type": "audio-test", "trial_index": 3, "time_elapsed": 160269, "internal_node_id": "0.0-3.0"}}, {"uniqueid": "MTK0961:30BUDKLTXE2221M7EB4VYFI0D1BE5D", "current_trial": 4, "dateTime": 1512938592819, "trialdata": {"rt": [10662], "responses": ["spice"], "type": "AUDIO_TEST", "trial_type": "audio-test", "trial_index": 4, "time_elapsed": 170943, "internal_node_id": "0.0-4.0"}}, {"uniqueid": "MTK0961:30BUDKLTXE2221M7EB4VYFI0D1BE5D", "current_trial": 5, "dateTime": 1512938626377, "trialdata": {"rt": 32801, "responses": "{\"Q0\":\"10:30\",\"Q1\":\"05:00\",\"Q2\":\"4\"}", "type": "SLEEP_SURVEY", "trial_type": "survey-text", "trial_index": 5, "time_elapsed": 204502, "internal_node_id": "0.0-5.0"}}, {"uniqueid": "MTK0961:30BUDKLTXE2221M7EB4VYFI0D1BE5D", "current_trial": 6, "dateTime": 1512938676857, "trialdata": {"rt": 49478, "key_press": 20, "type": "INSTRUCTIONS", "trial_type": "text", "trial_index": 6, "time_elapsed": 254982, "internal_node_id": "0.0-6.0"}}, {"uniqueid": "MTK0961:30BUDKLTXE2221M7EB4VYFI0D1BE5D", "current_trial": 7, "dateTime": 1512938708197, "trialdata": {"rt": 30836, "key_press": 82, "type": "INSTRUCTIONS", "trial_type": "text", "trial_index": 7, "time_elapsed": 286322, "internal_node_id": "0.0-7.0"}}, {"uniqueid": "MTK0961:30BUDKLTXE2221M7EB4VYFI0D1BE5D", "current_trial": 8, "dateTime": 1512938733016, "trialdata": {"rt": 24316, "key_press": 65, "type": "INSTRUCTIONS", "trial_type": "text", "trial_index": 8, "time_elapsed": 311140, "internal_node_id": "0.0-8.0"}}, {"uniqueid": "MTK0961:30BUDKLTXE2221M7EB4VYFI0D1BE5D", "current_trial": 9, "dateTime": 1512938752031, "trialdata": {"rt": [7921, 12164, 15311], "responses": ["10 ", "16", "16"], "num1": [5, 9, 4, 8], "num2": [3, 6, 6, 4], "num3": [2, 1, 6, 7], "type": "DISTRACTOR", "conditions": [18, 1200, "a", 18000], "trial": 0, "trial_type": "math-distractor", "trial_index": 9, "time_elapsed": 330155, "internal_node_id": "0.0-9.0"}}, {"uniqueid": "MTK0961:30BUDKLTXE2221M7EB4VYFI0D1BE5D", "current_trial": 10, "dateTime": 1512938755037, "trialdata": {"rt": -1, "stimulus": "<p id=\"stim\">10</p>", "key_press": -1, "trial_type": "single-stim", "trial_index": 10, "time_elapsed": 333162, "internal_node_id": "0.0-10.0-0.0"}}, {"uniqueid": "MTK0961:30BUDKLTXE2221M7EB4VYFI0D1BE5D", "current_trial": 11, "dateTime": 1512938756039, "trialdata": {"rt": -1, "stimulus": "<p id=\"stim\">9</p>", "key_press": -1, "trial_type": "single-stim", "trial_index": 11, "time_elapsed": 334164, "internal_node_id": "0.0-10.0-1.0"}}, {"uniqueid": "MTK0961:30BUDKLTXE2221M7EB4VYFI0D1BE5D", "current_trial": 12, "dateTime": 1512938757042, "trialdata": {"rt": -1, "stimulus": "<p id=\"stim\">8</p>", "key_press": -1, "trial_type": "single-stim", "trial_index": 12, "time_elapsed": 335167, "internal_node_id": "0.0-10.0-2.0"}}, {"uniqueid": "MTK0961:30BUDKLTXE2221M7EB4VYFI0D1BE5D", "current_trial": 13, "dateTime": 1512938758045, "trialdata": {"rt": -1, "stimulus": "<p id=\"stim\">7</p>", "key_press": -1, "trial_type": "single-stim", "trial_index": 13, "time_elapsed": 336170, "internal_node_id": "0.0-10.0-3.0"}}, {"uniqueid": "MTK0961:30BUDKLTXE2221M7EB4VYFI0D1BE5D", "current_trial": 14, "dateTime": 1512938759048, "trialdata": {"rt": -1, "stimulus": "<p id=\"stim\">6</p>", "key_press": -1, "trial_type": "single-stim", "trial_index": 14, "time_elapsed": 337173, "internal_node_id": "0.0-10.0-4.0"}}, {"uniqueid": "MTK0961:30BUDKLTXE2221M7EB4VYFI0D1BE5D", "current_trial": 15, "dateTime": 1512938760060, "trialdata": {"rt": -1, "stimulus": "<p id=\"stim\">5</p>", "key_press": -1, "trial_type": "single-stim", "trial_index": 15, "time_elapsed": 338184, "internal_node_id": "0.0-10.0-5.0"}}, {"uniqueid": "MTK0961:30BUDKLTXE2221M7EB4VYFI0D1BE5D", "current_trial": 16, "dateTime": 1512938761062, "trialdata": {"rt": -1, "stimulus": "<p id=\"stim\">4</p>", "key_press": -1, "trial_type": "single-stim", "trial_index": 16, "time_elapsed": 339187, "internal_node_id": "0.0-10.0-6.0"}}, {"uniqueid": "MTK0961:30BUDKLTXE2221M7EB4VYFI0D1BE5D", "current_trial": 17, "dateTime": 1512938762065, "trialdata": {"rt": -1, "stimulus": "<p id=\"stim\">3</p>", "key_press": -1, "trial_type": "single-stim", "trial_index": 17, "time_elapsed": 340189, "internal_node_id": "0.0-10.0-7.0"}}, {"uniqueid": "MTK0961:30BUDKLTXE2221M7EB4VYFI0D1BE5D", "current_trial": 18, "dateTime": 1512938763067, "trialdata": {"rt": -1, "stimulus": "<p id=\"stim\">2</p>", "key_press": -1, "trial_type": "single-stim", "trial_index": 18, "time_elapsed": 341192, "internal_node_id": "0.0-10.0-8.0"}}, {"uniqueid": "MTK0961:30BUDKLTXE2221M7EB4VYFI0D1BE5D", "current_trial": 19, "dateTime": 1512938764069, "trialdata": {"rt": -1, "stimulus": "<p id=\"stim\">1</p>", "key_press": -1, "trial_type": "single-stim", "trial_index": 19, "time_elapsed": 342194, "internal_node_id": "0.0-10.0-9.0"}}, {"uniqueid": "MTK0961:30BUDKLTXE2221M7EB4VYFI0D1BE5D", "current_trial": 20, "dateTime": 1512938765572, "trialdata": {"rt": -1, "stimulus": "<p id=\"stim\">+</p>", "key_press": -1, "type": "FIXATION", "trial_type": "single-stim", "trial_index": 20, "time_elapsed": 343697, "internal_node_id": "0.0-11.0-0.0"}}, {"uniqueid": "MTK0961:30BUDKLTXE2221M7EB4VYFI0D1BE5D", "current_trial": 21, "dateTime": 1512938767658, "trialdata": {"rt": 1801.1337868480837, "stimulus": "/static/audio/wordpool/KNIFE.wav", "key_press": 78, "type": "PRES_AUD", "word": "knife", "wordID": 784, "conditions": [18, 1200, "a", 18000], "trial": 0, "serialpos": 0, "trial_type": "single-audio", "trial_index": 21, "time_elapsed": 345783, "internal_node_id": "0.0-12.0"}}, {"uniqueid": "MTK0961:30BUDKLTXE2221M7EB4VYFI0D1BE5D", "current_trial": 22, "dateTime": 1512938769688, "trialdata": {"rt": 123.49206349205133, "stimulus": "/static/audio/wordpool/BLACKBOARD.wav", "key_press": 73, "type": "PRES_AUD", "word": "blackboard", "wordID": 132, "conditions": [18, 1200, "a", 18000], "trial": 0, "serialpos": 1, "trial_type": "single-audio", "trial_index": 22, "time_elapsed": 347812, "internal_node_id": "0.0-13.0"}}, {"uniqueid": "MTK0961:30BUDKLTXE2221M7EB4VYFI0D1BE5D", "current_trial": 23, "dateTime": 1512938771703, "trialdata": {"rt": -1000, "stimulus": "/static/audio/wordpool/GLOVE.wav", "key_press": -1, "type": "PRES_AUD", "word": "glove", "wordID": 641, "conditions": [18, 1200, "a", 18000], "trial": 0, "serialpos": 2, "trial_type": "single-audio", "trial_index": 23, "time_elapsed": 349827, "internal_node_id": "0.0-14.0"}}, {"uniqueid": "MTK0961:30BUDKLTXE2221M7EB4VYFI0D1BE5D", "current_trial": 24, "dateTime": 1512938773970, "trialdata": {"rt": -1000, "stimulus": "/static/audio/wordpool/WITNESS.wav", "key_press": -1, "type": "PRES_AUD", "word": "witness", "wordID": 1617, "conditions": [18, 1200, "a", 18000], "trial": 0, "serialpos": 3, "trial_type": "single-audio", "trial_index": 24, "time_elapsed": 352095, "internal_node_id": "0.0-15.0"}}, {"uniqueid": "MTK0961:30BUDKLTXE2221M7EB4VYFI0D1BE5D", "current_trial": 25, "dateTime": 1512938776240, "trialdata": {"rt": -1000, "stimulus": "/static/audio/wordpool/SUSPECT.wav", "key_press": -1, "type": "PRES_AUD", "word": "suspect", "wordID": 1414, "conditions": [18, 1200, "a", 18000], "trial": 0, "serialpos": 4, "trial_type": "single-audio", "trial_index": 25, "time_elapsed": 354365, "internal_node_id": "0.0-16.0"}}, {"uniqueid": "MTK0961:30BUDKLTXE2221M7EB4VYFI0D1BE5D", "current_trial": 26, "dateTime": 1512938778517, "trialdata": {"rt": -1000, "stimulus": "/static/audio/wordpool/MARROW.wav", "key_press": -1, "type": "PRES_AUD", "word": "marrow", "wordID": 871, "conditions": [18, 1200, "a", 18000], "trial": 0, "serialpos": 5, "trial_type": "single-audio", "trial_index": 26, "time_elapsed": 356642, "internal_node_id": "0.0-17.0"}}, {"uniqueid": "MTK0961:30BUDKLTXE2221M7EB4VYFI0D1BE5D", "current_trial": 27, "dateTime": 1512938780524, "trialdata": {"rt": -1000, "stimulus": "/static/audio/wordpool/DRAGON.wav", "key_press": -1, "type": "PRES_AUD", "word": "dragon", "wordID": 491, "conditions": [18, 1200, "a", 18000], "trial": 0, "serialpos": 6, "trial_type": "single-audio", "trial_index": 27, "time_elapsed": 358649, "internal_node_id": "0.0-18.0"}}, {"uniqueid": "MTK0961:30BUDKLTXE2221M7EB4VYFI0D1BE5D", "current_trial": 28, "dateTime": 1512938782880, "trialdata": {"rt": -1000, "stimulus": "/static/audio/wordpool/PENGUIN.wav", "key_press": -1, "type": "PRES_AUD", "word": "penguin", "wordID": 1043, "conditions": [18, 1200, "a", 18000], "trial": 0, "serialpos": 7, "trial_type": "single-audio", "trial_index": 28, "time_elapsed": 361005, "internal_node_id": "0.0-19.0"}}, {"uniqueid": "MTK0961:30BUDKLTXE2221M7EB4VYFI0D1BE5D", "current_trial": 29, "dateTime": 1512938785001, "trialdata": {"rt": -1000, "stimulus": "/static/audio/wordpool/MAMMAL.wav", "key_press": -1, "type": "PRES_AUD", "word": "mammal", "wordID": 860, "conditions": [18, 1200, "a", 18000], "trial": 0, "serialpos": 8, "trial_type": "single-audio", "trial_index": 29, "time_elapsed": 363126, "internal_node_id": "0.0-20.0"}}, {"uniqueid": "MTK0961:30BUDKLTXE2221M7EB4VYFI0D1BE5D", "current_trial": 30, "dateTime": 1512938787123, "trialdata": {"rt": -1000, "stimulus": "/static/audio/wordpool/JOURNAL.wav", "key_press": -1, "type": "PRES_AUD", "word": "journal", "wordID": 759, "conditions": [18, 1200, "a", 18000], "trial": 0, "serialpos": 9, "trial_type": "single-audio", "trial_index": 30, "time_elapsed": 365247, "internal_node_id": "0.0-21.0"}}, {"uniqueid": "MTK0961:30BUDKLTXE2221M7EB4VYFI0D1BE5D", "current_trial": 31, "dateTime": 1512938789532, "trialdata": {"rt": -1000, "stimulus": "/static/audio/wordpool/POCKET.wav", "key_press": -1, "type": "PRES_AUD", "word": "pocket", "wordID": 1092, "conditions": [18, 1200, "a", 18000], "trial": 0, "serialpos": 10, "trial_type": "single-audio", "trial_index": 31, "time_elapsed": 367657, "internal_node_id": "0.0-22.0"}}, {"uniqueid": "MTK0961:30BUDKLTXE2221M7EB4VYFI0D1BE5D", "current_trial": 32, "dateTime": 1512938791536, "trialdata": {"rt": -1000, "stimulus": "/static/audio/wordpool/RECORD.wav", "key_press": -1, "type": "PRES_AUD", "word": "record", "wordID": 1175, "conditions": [18, 1200, "a", 18000], "trial": 0, "serialpos": 11, "trial_type": "single-audio", "trial_index": 32, "time_elapsed": 369661, "internal_node_id": "0.0-23.0"}}, {"uniqueid": "MTK0961:30BUDKLTXE2221M7EB4VYFI0D1BE5D", "current_trial": 33, "dateTime": 1512938793732, "trialdata": {"rt": -1000, "stimulus": "/static/audio/wordpool/HANDBAG.wav", "key_press": -1, "type": "PRES_AUD", "word": "handbag", "wordID": 683, "conditions": [18, 1200, "a", 18000], "trial": 0, "serialpos": 12, "trial_type": "single-audio", "trial_index": 33, "time_elapsed": 371856, "internal_node_id": "0.0-24.0"}}, {"uniqueid": "MTK0961:30BUDKLTXE2221M7EB4VYFI0D1BE5D", "current_trial": 34, "dateTime": 1512938795922, "trialdata": {"rt": -1000, "stimulus": "/static/audio/wordpool/FRUIT.wav", "key_press": -1, "type": "PRES_AUD", "word": "fruit", "wordID": 609, "conditions": [18, 1200, "a", 18000], "trial": 0, "serialpos": 13, "trial_type": "single-audio", "trial_index": 34, "time_elapsed": 374047, "internal_node_id": "0.0-25.0"}}, {"uniqueid": "MTK0961:30BUDKLTXE2221M7EB4VYFI0D1BE5D", "current_trial": 35, "dateTime": 1512938797966, "trialdata": {"rt": -1000, "stimulus": "/static/audio/wordpool/EXPERT.wav", "key_press": -1, "type": "PRES_AUD", "word": "expert", "wordID": 542, "conditions": [18, 1200, "a", 18000], "trial": 0, "serialpos": 14, "trial_type": "single-audio", "trial_index": 35, "time_elapsed": 376091, "internal_node_id": "0.0-26.0"}}, {"uniqueid": "MTK0961:30BUDKLTXE2221M7EB4VYFI0D1BE5D", "current_trial": 36, "dateTime": 1512938800189, "trialdata": {"rt": -1000, "stimulus": "/static/audio/wordpool/EMPIRE.wav", "key_press": -1, "type": "PRES_AUD", "word": "empire", "wordID": 529, "conditions": [18, 1200, "a", 18000], "trial": 0, "serialpos": 15, "trial_type": "single-audio", "trial_index": 36, "time_elapsed": 378314, "internal_node_id": "0.0-27.0"}}, {"uniqueid": "MTK0961:30BUDKLTXE2221M7EB4VYFI0D1BE5D", "current_trial": 37, "dateTime": 1512938802599, "trialdata": {"rt": -1000, "stimulus": "/static/audio/wordpool/JELLY.wav", "key_press": -1, "type": "PRES_AUD", "word": "jelly", "wordID": 754, "conditions": [18, 1200, "a", 18000], "trial": 0, "serialpos": 16, "trial_type": "single-audio", "trial_index": 37, "time_elapsed": 380724, "internal_node_id": "0.0-28.0"}}, {"uniqueid": "MTK0961:30BUDKLTXE2221M7EB4VYFI0D1BE5D", "current_trial": 38, "dateTime": 1512938804712, "trialdata": {"rt": -1000, "stimulus": "/static/audio/wordpool/OFFICE.wav", "key_press": -1, "type": "PRES_AUD", "word": "office", "wordID": 971, "conditions": [18, 1200, "a", 18000], "trial": 0, "serialpos": 17, "trial_type": "single-audio", "trial_index": 38, "time_elapsed": 382837, "internal_node_id": "0.0-29.0"}}, {"uniqueid": "MTK0961:30BUDKLTXE2221M7EB4VYFI0D1BE5D", "current_trial": 39, "dateTime": 1512938805936, "trialdata": {"rt": -1, "stimulus": "", "key_press": -1, "type": "PRE_RECALL_DELAY", "trial_type": "single-stim", "trial_index": 39, "time_elapsed": 384061, "internal_node_id": "0.0-30.0-0.0"}}, {"uniqueid": "MTK0961:30BUDKLTXE2221M7EB4VYFI0D1BE5D", "current_trial": 40, "dateTime": 1512938806445, "trialdata": {"rt": -1000, "stimulus": "/static/audio/400Hz.wav", "key_press": -1, "type": "PRE_RECALL_ALERT", "trial_type": "single-audio", "trial_index": 40, "time_elapsed": 384570, "internal_node_id": "0.0-31.0"}}, {"uniqueid": "MTK0961:30BUDKLTXE2221M7EB4VYFI0D1BE5D", "current_trial": 41, "dateTime": 1512938866460, "trialdata": {"rt": [5419, 11255, 16723, 24302, 32289, 44273, 47201, 57429], "recwords": ["fruit", "ofice", "empire", "blackboard", "handbag", "witness", "", ""], "type": "FREE_RECALL", "conditions": [18, 1200, "a", 18000], "trial": 0, "trial_type": "free-recall", "trial_index": 41, "time_elapsed": 444579, "internal_node_id": "0.0-32.0-0.0"}}, {"uniqueid": "MTK0961:30BUDKLTXE2221M7EB4VYFI0D1BE5D", "current_trial": 42, "dateTime": 1512938871128, "trialdata": {"rt": 2666, "key_press": 75, "type": "INSTRUCTIONS", "trial_type": "text", "trial_index": 42, "time_elapsed": 449253, "internal_node_id": "0.0-33.0"}}, {"uniqueid": "MTK0961:30BUDKLTXE2221M7EB4VYFI0D1BE5D", "current_trial": 43, "dateTime": 1512938891135, "trialdata": {"rt": [12636], "responses": ["20  "], "num1": [9, 7], "num2": [6, 6], "num3": [5, 7], "type": "DISTRACTOR", "conditions": [18, 1200, "v", 18000], "trial": 1, "trial_type": "math-distractor", "trial_index": 43, "time_elapsed": 469259, "internal_node_id": "0.0-34.0"}}, {"uniqueid": "MTK0961:30BUDKLTXE2221M7EB4VYFI0D1BE5D", "current_trial": 44, "dateTime": 1512938894137, "trialdata": {"rt": -1, "stimulus": "<p id=\"stim\">10</p>", "key_press": -1, "trial_type": "single-stim", "trial_index": 44, "time_elapsed": 472262, "internal_node_id": "0.0-35.0-0.0"}}, {"uniqueid": "MTK0961:30BUDKLTXE2221M7EB4VYFI0D1BE5D", "current_trial": 45, "dateTime": 1512938895139, "trialdata": {"rt": -1, "stimulus": "<p id=\"stim\">9</p>", "key_press": -1, "trial_type": "single-stim", "trial_index": 45, "time_elapsed": 473264, "internal_node_id": "0.0-35.0-1.0"}}, {"uniqueid": "MTK0961:30BUDKLTXE2221M7EB4VYFI0D1BE5D", "current_trial": 46, "dateTime": 1512938896142, "trialdata": {"rt": -1, "stimulus": "<p id=\"stim\">8</p>", "key_press": -1, "trial_type": "single-stim", "trial_index": 46, "time_elapsed": 474266, "internal_node_id": "0.0-35.0-2.0"}}, {"uniqueid": "MTK0961:30BUDKLTXE2221M7EB4VYFI0D1BE5D", "current_trial": 47, "dateTime": 1512938897144, "trialdata": {"rt": -1, "stimulus": "<p id=\"stim\">7</p>", "key_press": -1, "trial_type": "single-stim", "trial_index": 47, "time_elapsed": 475269, "internal_node_id": "0.0-35.0-3.0"}}, {"uniqueid": "MTK0961:30BUDKLTXE2221M7EB4VYFI0D1BE5D", "current_trial": 48, "dateTime": 1512938898146, "trialdata": {"rt": -1, "stimulus": "<p id=\"stim\">6</p>", "key_press": -1, "trial_type": "single-stim", "trial_index": 48, "time_elapsed": 476271, "internal_node_id": "0.0-35.0-4.0"}}, {"uniqueid": "MTK0961:30BUDKLTXE2221M7EB4VYFI0D1BE5D", "current_trial": 49, "dateTime": 1512938899149, "trialdata": {"rt": -1, "stimulus": "<p id=\"stim\">5</p>", "key_press": -1, "trial_type": "single-stim", "trial_index": 49, "time_elapsed": 477273, "internal_node_id": "0.0-35.0-5.0"}}, {"uniqueid": "MTK0961:30BUDKLTXE2221M7EB4VYFI0D1BE5D", "current_trial": 50, "dateTime": 1512938900150, "trialdata": {"rt": -1, "stimulus": "<p id=\"stim\">4</p>", "key_press": -1, "trial_type": "single-stim", "trial_index": 50, "time_elapsed": 478275, "internal_node_id": "0.0-35.0-6.0"}}, {"uniqueid": "MTK0961:30BUDKLTXE2221M7EB4VYFI0D1BE5D", "current_trial": 51, "dateTime": 1512938901153, "trialdata": {"rt": -1, "stimulus": "<p id=\"stim\">3</p>", "key_press": -1, "trial_type": "single-stim", "trial_index": 51, "time_elapsed": 479277, "internal_node_id": "0.0-35.0-7.0"}}, {"uniqueid": "MTK0961:30BUDKLTXE2221M7EB4VYFI0D1BE5D", "current_trial": 52, "dateTime": 1512938902155, "trialdata": {"rt": -1, "stimulus": "<p id=\"stim\">2</p>", "key_press": -1, "trial_type": "single-stim", "trial_index": 52, "time_elapsed": 480279, "internal_node_id": "0.0-35.0-8.0"}}, {"uniqueid": "MTK0961:30BUDKLTXE2221M7EB4VYFI0D1BE5D", "current_trial": 53, "dateTime": 1512938903157, "trialdata": {"rt": -1, "stimulus": "<p id=\"stim\">1</p>", "key_press": -1, "trial_type": "single-stim", "trial_index": 53, "time_elapsed": 481281, "internal_node_id": "0.0-35.0-9.0"}}, {"uniqueid": "MTK0961:30BUDKLTXE2221M7EB4VYFI0D1BE5D", "current_trial": 54, "dateTime": 1512938904659, "trialdata": {"rt": -1, "stimulus": "<p id=\"stim\">+</p>", "key_press": -1, "type": "FIXATION", "trial_type": "single-stim", "trial_index": 54, "time_elapsed": 482783, "internal_node_id": "0.0-36.0-0.0"}}, {"uniqueid": "MTK0961:30BUDKLTXE2221M7EB4VYFI0D1BE5D", "current_trial": 55, "dateTime": 1512938905862, "trialdata": {"rt": -1, "stimulus": "<p id=\"stim\">ORCHID</p>", "key_press": -1, "type": "PRES_VIS", "word": "orchid", "wordID": 981, "conditions": [18, 1200, "v", 18000], "trial": 1, "serialpos": 0, "trial_type": "single-stim", "trial_index": 55, "time_elapsed": 483986, "internal_node_id": "0.0-37.0"}}, {"uniqueid": "MTK0961:30BUDKLTXE2221M7EB4VYFI0D1BE5D", "current_trial": 56, "dateTime": 1512938908264, "trialdata": {"rt": -1, "stimulus": "<p id=\"stim\">SHERIFF</p>", "key_press": -1, "type": "PRES_VIS", "word": "sheriff", "wordID": 1283, "conditions": [18, 1200, "v", 18000], "trial": 1, "serialpos": 1, "trial_type": "single-stim", "trial_index": 56, "time_elapsed": 486382, "internal_node_id": "0.0-38.0"}}, {"uniqueid": "MTK0961:30BUDKLTXE2221M7EB4VYFI0D1BE5D", "current_trial": 57, "dateTime": 1512938910419, "trialdata": {"rt": -1, "stimulus": "<p id=\"stim\">SUPPER</p>", "key_press": -1, "type": "PRES_VIS", "word": "supper", "wordID": 1410, "conditions": [18, 1200, "v", 18000], "trial": 1, "serialpos": 2, "trial_type": "single-stim", "trial_index": 57, "time_elapsed": 488544, "internal_node_id": "0.0-39.0"}}, {"uniqueid": "MTK0961:30BUDKLTXE2221M7EB4VYFI0D1BE5D", "current_trial": 58, "dateTime": 1512938912590, "trialdata": {"rt": -1, "stimulus": "<p id=\"stim\">HELMET</p>", "key_press": -1, "type": "PRES_VIS", "word": "helmet", "wordID": 701, "conditions": [18, 1200, "v", 18000], "trial": 1, "serialpos": 3, "trial_type": "single-stim", "trial_index": 58, "time_elapsed": 490715, "internal_node_id": "0.0-40.0"}}, {"uniqueid": "MTK0961:30BUDKLTXE2221M7EB4VYFI0D1BE5D", "current_trial": 59, "dateTime": 1512938914826, "trialdata": {"rt": -1, "stimulus": "<p id=\"stim\">FLASK</p>", "key_press": -1, "type": "PRES_VIS", "word": "flask", "wordID": 575, "conditions": [18, 1200, "v", 18000], "trial": 1, "serialpos": 4, "trial_type": "single-stim", "trial_index": 59, "time_elapsed": 492950, "internal_node_id": "0.0-41.0"}}, {"uniqueid": "MTK0961:30BUDKLTXE2221M7EB4VYFI0D1BE5D", "current_trial": 60, "dateTime": 1512938917034, "trialdata": {"rt": -1, "stimulus": "<p id=\"stim\">CANDY</p>", "key_press": -1, "type": "PRES_VIS", "word": "candy", "wordID": 229, "conditions": [18, 1200, "v", 18000], "trial": 1, "serialpos": 5, "trial_type": "single-stim", "trial_index": 60, "time_elapsed": 495159, "internal_node_id": "0.0-42.0"}}, {"uniqueid": "MTK0961:30BUDKLTXE2221M7EB4VYFI0D1BE5D", "current_trial": 61, "dateTime": 1512938919047, "trialdata": {"rt": -1, "stimulus": "<p id=\"stim\">RAZOR</p>", "key_press": -1, "type": "PRES_VIS", "word": "razor", "wordID": 1170, "conditions": [18, 1200, "v", 18000], "trial": 1, "serialpos": 6, "trial_type": "single-stim", "trial_index": 61, "time_elapsed": 497172, "internal_node_id": "0.0-43.0"}}, {"uniqueid": "MTK0961:30BUDKLTXE2221M7EB4VYFI0D1BE5D", "current_trial": 62, "dateTime": 1512938921108, "trialdata": {"rt": -1, "stimulus": "<p id=\"stim\">CATCHER</p>", "key_press": -1, "type": "PRES_VIS", "word": "catcher", "wordID": 257, "conditions": [18, 1200, "v", 18000], "trial": 1, "serialpos": 7, "trial_type": "single-stim", "trial_index": 62, "time_elapsed": 499233, "internal_node_id": "0.0-44.0"}}, {"uniqueid": "MTK0961:30BUDKLTXE2221M7EB4VYFI0D1BE5D", "current_trial": 63, "dateTime": 1512938923131, "trialdata": {"rt": -1, "stimulus": "<p id=\"stim\">MESSAGE</p>", "key_press": -1, "type": "PRES_VIS", "word": "message", "wordID": 887, "conditions": [18, 1200, "v", 18000], "trial": 1, "serialpos": 8, "trial_type": "single-stim", "trial_index": 63, "time_elapsed": 501256, "internal_node_id": "0.0-45.0"}}, {"uniqueid": "MTK0961:30BUDKLTXE2221M7EB4VYFI0D1BE5D", "current_trial": 64, "dateTime": 1512938925499, "trialdata": {"rt": -1, "stimulus": "<p id=\"stim\">SMOG</p>", "key_press": -1, "type": "PRES_VIS", "word": "smog", "wordID": 1329, "conditions": [18, 1200, "v", 18000], "trial": 1, "serialpos": 9, "trial_type": "single-stim", "trial_index": 64, "time_elapsed": 503623, "internal_node_id": "0.0-46.0"}}, {"uniqueid": "MTK0961:30BUDKLTXE2221M7EB4VYFI0D1BE5D", "current_trial": 65, "dateTime": 1512938927880, "trialdata": {"rt": -1, "stimulus": "<p id=\"stim\">TUNNEL</p>", "key_press": -1, "type": "PRES_VIS", "word": "tunnel", "wordID": 1518, "conditions": [18, 1200, "v", 18000], "trial": 1, "serialpos": 10, "trial_type": "single-stim", "trial_index": 65, "time_elapsed": 506005, "internal_node_id": "0.0-47.0"}}, {"uniqueid": "MTK0961:30BUDKLTXE2221M7EB4VYFI0D1BE5D", "current_trial": 66, "dateTime": 1512938929991, "trialdata": {"rt": -1, "stimulus": "<p id=\"stim\">ROOSTER</p>", "key_press": -1, "type": "PRES_VIS", "word": "rooster", "wordID": 1208, "conditions": [18, 1200, "v", 18000], "trial": 1, "serialpos": 11, "trial_type": "single-stim", "trial_index": 66, "time_elapsed": 508116, "internal_node_id": "0.0-48.0"}}, {"uniqueid": "MTK0961:30BUDKLTXE2221M7EB4VYFI0D1BE5D", "current_trial": 67, "dateTime": 1512938932093, "trialdata": {"rt": -1, "stimulus": "<p id=\"stim\">SKILLET</p>", "key_press": -1, "type": "PRES_VIS", "word": "skillet", "wordID": 1316, "conditions": [18, 1200, "v", 18000], "trial": 1, "serialpos": 12, "trial_type": "single-stim", "trial_index": 67, "time_elapsed": 510218, "internal_node_id": "0.0-49.0"}}, {"uniqueid": "MTK0961:30BUDKLTXE2221M7EB4VYFI0D1BE5D", "current_trial": 68, "dateTime": 1512938934338, "trialdata": {"rt": -1, "stimulus": "<p id=\"stim\">GLOBE</p>", "key_press": -1, "type": "PRES_VIS", "word": "globe", "wordID": 640, "conditions": [18, 1200, "v", 18000], "trial": 1, "serialpos": 13, "trial_type": "single-stim", "trial_index": 68, "time_elapsed": 512458, "internal_node_id": "0.0-50.0"}}, {"uniqueid": "MTK0961:30BUDKLTXE2221M7EB4VYFI0D1BE5D", "current_trial": 69, "dateTime": 1512938936402, "trialdata": {"rt": -1, "stimulus": "<p id=\"stim\">PADDING</p>", "key_press": -1, "type": "PRES_VIS", "word": "padding", "wordID": 998, "conditions": [18, 1200, "v", 18000], "trial": 1, "serialpos": 14, "trial_type": "single-stim", "trial_index": 69, "time_elapsed": 514527, "internal_node_id": "0.0-51.0"}}, {"uniqueid": "MTK0961:30BUDKLTXE2221M7EB4VYFI0D1BE5D", "current_trial": 70, "dateTime": 1512938938636, "trialdata": {"rt": -1, "stimulus": "<p id=\"stim\">TART</p>", "key_press": -1, "type": "PRES_VIS", "word": "tart", "wordID": 1435, "conditions": [18, 1200, "v", 18000], "trial": 1, "serialpos": 15, "trial_type": "single-stim", "trial_index": 70, "time_elapsed": 516761, "internal_node_id": "0.0-52.0"}}, {"uniqueid": "MTK0961:30BUDKLTXE2221M7EB4VYFI0D1BE5D", "current_trial": 71, "dateTime": 1512938940725, "trialdata": {"rt": -1, "stimulus": "<p id=\"stim\">BANJO</p>", "key_press": -1, "type": "PRES_VIS", "word": "banjo", "wordID": 81, "conditions": [18, 1200, "v", 18000], "trial": 1, "serialpos": 16, "trial_type": "single-stim", "trial_index": 71, "time_elapsed": 518850, "internal_node_id": "0.0-53.0"}}, {"uniqueid": "MTK0961:30BUDKLTXE2221M7EB4VYFI0D1BE5D", "current_trial": 72, "dateTime": 1512938943069, "trialdata": {"rt": -1, "stimulus": "<p id=\"stim\">FRAGRANCE</p>", "key_press": -1, "type": "PRES_VIS", "word": "fragrance", "wordID": 598, "conditions": [18, 1200, "v", 18000], "trial": 1, "serialpos": 17, "trial_type": "single-stim", "trial_index": 72, "time_elapsed": 521194, "internal_node_id": "0.0-54.0"}}, {"uniqueid": "MTK0961:30BUDKLTXE2221M7EB4VYFI0D1BE5D", "current_trial": 73, "dateTime": 1512938945484, "trialdata": {"rt": -1, "stimulus": "", "key_press": -1, "type": "PRE_RECALL_DELAY", "trial_type": "single-stim", "trial_index": 73, "time_elapsed": 523609, "internal_node_id": "0.0-55.0-0.0"}}, {"uniqueid": "MTK0961:30BUDKLTXE2221M7EB4VYFI0D1BE5D", "current_trial": 74, "dateTime": 1512938945986, "trialdata": {"rt": 123.49206349199449, "stimulus": "/static/audio/400Hz.wav", "key_press": 70, "type": "PRE_RECALL_ALERT", "trial_type": "single-audio", "trial_index": 74, "time_elapsed": 524111, "internal_node_id": "0.0-56.0"}}, {"uniqueid": "MTK0961:30BUDKLTXE2221M7EB4VYFI0D1BE5D", "current_trial": 75, "dateTime": 1512939005999, "trialdata": {"rt": [7122, 12153, 16834, 24637, 27984, 55517], "recwords": ["fragrance", "paddle", "flask", "fragrance", "", ""], "type": "FREE_RECALL", "conditions": [18, 1200, "v", 18000], "trial": 1, "trial_type": "free-recall", "trial_index": 75, "time_elapsed": 584119, "internal_node_id": "0.0-57.0-0.0"}}, {"uniqueid": "MTK0961:30BUDKLTXE2221M7EB4VYFI0D1BE5D", "current_trial": 76, "dateTime": 1512939011050, "trialdata": {"rt": 3036, "key_press": 75, "type": "INSTRUCTIONS", "trial_type": "text", "trial_index": 76, "time_elapsed": 589163, "internal_node_id": "0.0-58.0"}}, {"uniqueid": "MTK0961:30BUDKLTXE2221M7EB4VYFI0D1BE5D", "current_trial": 77, "dateTime": 1512939024057, "trialdata": {"rt": [7709, 11704], "responses": ["22 ", "16"], "num1": [5, 1, 2], "num2": [8, 6, 9], "num3": [9, 9, 5], "type": "DISTRACTOR", "conditions": [24, 800, "a", 12000], "trial": 2, "trial_type": "math-distractor", "trial_index": 77, "time_elapsed": 602182, "internal_node_id": "0.0-59.0"}}, {"uniqueid": "MTK0961:30BUDKLTXE2221M7EB4VYFI0D1BE5D", "current_trial": 78, "dateTime": 1512939027061, "trialdata": {"rt": -1, "stimulus": "<p id=\"stim\">10</p>", "key_press": -1, "trial_type": "single-stim", "trial_index": 78, "time_elapsed": 605185, "internal_node_id": "0.0-60.0-0.0"}}, {"uniqueid": "MTK0961:30BUDKLTXE2221M7EB4VYFI0D1BE5D", "current_trial": 79, "dateTime": 1512939028063, "trialdata": {"rt": -1, "stimulus": "<p id=\"stim\">9</p>", "key_press": -1, "trial_type": "single-stim", "trial_index": 79, "time_elapsed": 606188, "internal_node_id": "0.0-60.0-1.0"}}, {"uniqueid": "MTK0961:30BUDKLTXE2221M7EB4VYFI0D1BE5D", "current_trial": 80, "dateTime": 1512939029065, "trialdata": {"rt": -1, "stimulus": "<p id=\"stim\">8</p>", "key_press": -1, "trial_type": "single-stim", "trial_index": 80, "time_elapsed": 607190, "internal_node_id": "0.0-60.0-2.0"}}, {"uniqueid": "MTK0961:30BUDKLTXE2221M7EB4VYFI0D1BE5D", "current_trial": 81, "dateTime": 1512939030069, "trialdata": {"rt": -1, "stimulus": "<p id=\"stim\">7</p>", "key_press": -1, "trial_type": "single-stim", "trial_index": 81, "time_elapsed": 608194, "internal_node_id": "0.0-60.0-3.0"}}, {"uniqueid": "MTK0961:30BUDKLTXE2221M7EB4VYFI0D1BE5D", "current_trial": 82, "dateTime": 1512939031071, "trialdata": {"rt": -1, "stimulus": "<p id=\"stim\">6</p>", "key_press": -1, "trial_type": "single-stim", "trial_index": 82, "time_elapsed": 609196, "internal_node_id": "0.0-60.0-4.0"}}, {"uniqueid": "MTK0961:30BUDKLTXE2221M7EB4VYFI0D1BE5D", "current_trial": 83, "dateTime": 1512939032074, "trialdata": {"rt": -1, "stimulus": "<p id=\"stim\">5</p>", "key_press": -1, "trial_type": "single-stim", "trial_index": 83, "time_elapsed": 610199, "internal_node_id": "0.0-60.0-5.0"}}, {"uniqueid": "MTK0961:30BUDKLTXE2221M7EB4VYFI0D1BE5D", "current_trial": 84, "dateTime": 1512939033076, "trialdata": {"rt": -1, "stimulus": "<p id=\"stim\">4</p>", "key_press": -1, "trial_type": "single-stim", "trial_index": 84, "time_elapsed": 611201, "internal_node_id": "0.0-60.0-6.0"}}, {"uniqueid": "MTK0961:30BUDKLTXE2221M7EB4VYFI0D1BE5D", "current_trial": 85, "dateTime": 1512939034079, "trialdata": {"rt": -1, "stimulus": "<p id=\"stim\">3</p>", "key_press": -1, "trial_type": "single-stim", "trial_index": 85, "time_elapsed": 612203, "internal_node_id": "0.0-60.0-7.0"}}, {"uniqueid": "MTK0961:30BUDKLTXE2221M7EB4VYFI0D1BE5D", "current_trial": 86, "dateTime": 1512939035081, "trialdata": {"rt": -1, "stimulus": "<p id=\"stim\">2</p>", "key_press": -1, "trial_type": "single-stim", "trial_index": 86, "time_elapsed": 613205, "internal_node_id": "0.0-60.0-8.0"}}, {"uniqueid": "MTK0961:30BUDKLTXE2221M7EB4VYFI0D1BE5D", "current_trial": 87, "dateTime": 1512939036083, "trialdata": {"rt": -1, "stimulus": "<p id=\"stim\">1</p>", "key_press": -1, "trial_type": "single-stim", "trial_index": 87, "time_elapsed": 614207, "internal_node_id": "0.0-60.0-9.0"}}, {"uniqueid": "MTK0961:30BUDKLTXE2221M7EB4VYFI0D1BE5D", "current_trial": 88, "dateTime": 1512939037585, "trialdata": {"rt": -1, "stimulus": "<p id=\"stim\">+</p>", "key_press": -1, "type": "FIXATION", "trial_type": "single-stim", "trial_index": 88, "time_elapsed": 615709, "internal_node_id": "0.0-61.0-0.0"}}, {"uniqueid": "MTK0961:30BUDKLTXE2221M7EB4VYFI0D1BE5D", "current_trial": 89, "dateTime": 1512939039457, "trialdata": {"rt": -1000, "stimulus": "/static/audio/wordpool/WINDOW.wav", "key_press": -1, "type": "PRES_AUD", "word": "window", "wordID": 1610, "conditions": [24, 800, "a", 12000], "trial": 2, "serialpos": 0, "trial_type": "single-audio", "trial_index": 89, "time_elapsed": 617582, "internal_node_id": "0.0-62.0"}}, {"uniqueid": "MTK0961:30BUDKLTXE2221M7EB4VYFI0D1BE5D", "current_trial": 90, "dateTime": 1512939041200, "trialdata": {"rt": -1000, "stimulus": "/static/audio/wordpool/HOSTESS.wav", "key_press": -1, "type": "PRES_AUD", "word": "hostess", "wordID": 722, "conditions": [24, 800, "a", 12000], "trial": 2, "serialpos": 1, "trial_type": "single-audio", "trial_index": 90, "time_elapsed": 619325, "internal_node_id": "0.0-63.0"}}, {"uniqueid": "MTK0961:30BUDKLTXE2221M7EB4VYFI0D1BE5D", "current_trial": 91, "dateTime": 1512939042900, "trialdata": {"rt": -1000, "stimulus": "/static/audio/wordpool/MUFFIN.wav", "key_press": -1, "type": "PRES_AUD", "word": "muffin", "wordID": 928, "conditions": [24, 800, "a", 12000], "trial": 2, "serialpos": 2, "trial_type": "single-audio", "trial_index": 91, "time_elapsed": 621025, "internal_node_id": "0.0-64.0"}}, {"uniqueid": "MTK0961:30BUDKLTXE2221M7EB4VYFI0D1BE5D", "current_trial": 92, "dateTime": 1512939044677, "trialdata": {"rt": -1000, "stimulus": "/static/audio/wordpool/NIGHTGOWN.wav", "key_press": -1, "type": "PRES_AUD", "word": "nightgown", "wordID": 952, "conditions": [24, 800, "a", 12000], "trial": 2, "serialpos": 3, "trial_type": "single-audio", "trial_index": 92, "time_elapsed": 622802, "internal_node_id": "0.0-65.0"}}, {"uniqueid": "MTK0961:30BUDKLTXE2221M7EB4VYFI0D1BE5D", "current_trial": 93, "dateTime": 1512939046600, "trialdata": {"rt": -1000, "stimulus": "/static/audio/wordpool/PIZZA.wav", "key_press": -1, "type": "PRES_AUD", "word": "pizza", "wordID": 1078, "conditions": [24, 800, "a", 12000], "trial": 2, "serialpos": 4, "trial_type": "single-audio", "trial_index": 93, "time_elapsed": 624725, "internal_node_id": "0.0-66.0"}}, {"uniqueid": "MTK0961:30BUDKLTXE2221M7EB4VYFI0D1BE5D", "current_trial": 94, "dateTime": 1512939048333, "trialdata": {"rt": -1000, "stimulus": "/static/audio/wordpool/AIRPLANE.wav", "key_press": -1, "type": "PRES_AUD", "word": "airplane", "wordID": 11, "conditions": [24, 800, "a", 12000], "trial": 2, "serialpos": 5, "trial_type": "single-audio", "trial_index": 94, "time_elapsed": 626457, "internal_node_id": "0.0-67.0"}}, {"uniqueid": "MTK0961:30BUDKLTXE2221M7EB4VYFI0D1BE5D", "current_trial": 95, "dateTime": 1512939049993, "trialdata": {"rt": -1000, "stimulus": "/static/audio/wordpool/BOX.wav", "key_press": -1, "type": "PRES_AUD", "word": "box", "wordID": 158, "conditions": [24, 800, "a", 12000], "trial": 2, "serialpos": 6, "trial_type": "single-audio", "trial_index": 95, "time_elapsed": 628117, "internal_node_id": "0.0-68.0"}}, {"uniqueid": "MTK0961:30BUDKLTXE2221M7EB4VYFI0D1BE5D", "current_trial": 96, "dateTime": 1512939051812, "trialdata": {"rt": -1000, "stimulus": "/static/audio/wordpool/PIGEON.wav", "key_press": -1, "type": "PRES_AUD", "word": "pigeon", "wordID": 1064, "conditions": [24, 800, "a", 12000], "trial": 2, "serialpos": 7, "trial_type": "single-audio", "trial_index": 96, "time_elapsed": 629937, "internal_node_id": "0.0-69.0"}}, {"uniqueid": "MTK0961:30BUDKLTXE2221M7EB4VYFI0D1BE5D", "current_trial": 97, "dateTime": 1512939053736, "trialdata": {"rt": -1000, "stimulus": "/static/audio/wordpool/BLOCKADE.wav", "key_press": -1, "type": "PRES_AUD", "word": "blockade", "wordID": 136, "conditions": [24, 800, "a", 12000], "trial": 2, "serialpos": 8, "trial_type": "single-audio", "trial_index": 97, "time_elapsed": 631861, "internal_node_id": "0.0-70.0"}}, {"uniqueid": "MTK0961:30BUDKLTXE2221M7EB4VYFI0D1BE5D", "current_trial": 98, "dateTime": 1512939055389, "trialdata": {"rt": -1000, "stimulus": "/static/audio/wordpool/BOYFRIEND.wav", "key_press": -1, "type": "PRES_AUD", "word": "boyfriend", "wordID": 161, "conditions": [24, 800, "a", 12000], "trial": 2, "serialpos": 9, "trial_type": "single-audio", "trial_index": 98, "time_elapsed": 633514, "internal_node_id": "0.0-71.0"}}, {"uniqueid": "MTK0961:30BUDKLTXE2221M7EB4VYFI0D1BE5D", "current_trial": 99, "dateTime": 1512939057286, "trialdata": {"rt": -1000, "stimulus": "/static/audio/wordpool/COUSIN.wav", "key_press": -1, "type": "PRES_AUD", "word": "cousin", "wordID": 391, "conditions": [24, 800, "a", 12000], "trial": 2, "serialpos": 10, "trial_type": "single-audio", "trial_index": 99, "time_elapsed": 635411, "internal_node_id": "0.0-72.0"}}, {"uniqueid": "MTK0961:30BUDKLTXE2221M7EB4VYFI0D1BE5D", "current_trial": 100, "dateTime": 1512939059163, "trialdata": {"rt": -1000, "stimulus": "/static/audio/wordpool/DINER.wav", "key_press": -1, "type": "PRES_AUD", "word": "diner", "wordID": 466, "conditions": [24, 800, "a", 12000], "trial": 2, "serialpos": 11, "trial_type": "single-audio", "trial_index": 100, "time_elapsed": 637287, "internal_node_id": "0.0-73.0"}}, {"uniqueid": "MTK0961:30BUDKLTXE2221M7EB4VYFI0D1BE5D", "current_trial": 101, "dateTime": 1512939060846, "trialdata": {"rt": -1000, "stimulus": "/static/audio/wordpool/PRINCESS.wav", "key_press": -1, "type": "PRES_AUD", "word": "princess", "wordID": 1124, "conditions": [24, 800, "a", 12000], "trial": 2, "serialpos": 12, "trial_type": "single-audio", "trial_index": 101, "time_elapsed": 638971, "internal_node_id": "0.0-74.0"}}, {"uniqueid": "MTK0961:30BUDKLTXE2221M7EB4VYFI0D1BE5D", "current_trial": 102, "dateTime": 1512939062629, "trialdata": {"rt": -1000, "stimulus": "/static/audio/wordpool/PASTA.wav", "key_press": -1, "type": "PRES_AUD", "word": "pasta", "wordID": 1020, "conditions": [24, 800, "a", 12000], "trial": 2, "serialpos": 13, "trial_type": "single-audio", "trial_index": 102, "time_elapsed": 640754, "internal_node_id": "0.0-75.0"}}, {"uniqueid": "MTK0961:30BUDKLTXE2221M7EB4VYFI0D1BE5D", "current_trial": 103, "dateTime": 1512939064436, "trialdata": {"rt": -1000, "stimulus": "/static/audio/wordpool/SHORTCAKE.wav", "key_press": -1, "type": "PRES_AUD", "word": "shortcake", "wordID": 1291, "conditions": [24, 800, "a", 12000], "trial": 2, "serialpos": 14, "trial_type": "single-audio", "trial_index": 103, "time_elapsed": 642561, "internal_node_id": "0.0-76.0"}}, {"uniqueid": "MTK0961:30BUDKLTXE2221M7EB4VYFI0D1BE5D", "current_trial": 104, "dateTime": 1512939066189, "trialdata": {"rt": -1000, "stimulus": "/static/audio/wordpool/CURTAIN.wav", "key_press": -1, "type": "PRES_AUD", "word": "curtain", "wordID": 426, "conditions": [24, 800, "a", 12000], "trial": 2, "serialpos": 15, "trial_type": "single-audio", "trial_index": 104, "time_elapsed": 644314, "internal_node_id": "0.0-77.0"}}, {"uniqueid": "MTK0961:30BUDKLTXE2221M7EB4VYFI0D1BE5D", "current_trial": 105, "dateTime": 1512939067872, "trialdata": {"rt": -1000, "stimulus": "/static/audio/wordpool/HIGHWAY.wav", "key_press": -1, "type": "PRES_AUD", "word": "highway", "wordID": 706, "conditions": [24, 800, "a", 12000], "trial": 2, "serialpos": 16, "trial_type": "single-audio", "trial_index": 105, "time_elapsed": 645997, "internal_node_id": "0.0-78.0"}}, {"uniqueid": "MTK0961:30BUDKLTXE2221M7EB4VYFI0D1BE5D", "current_trial": 106, "dateTime": 1512939069506, "trialdata": {"rt": -1000, "stimulus": "/static/audio/wordpool/SPIDER.wav", "key_press": -1, "type": "PRES_AUD", "word": "spider", "wordID": 1350, "conditions": [24, 800, "a", 12000], "trial": 2, "serialpos": 17, "trial_type": "single-audio", "trial_index": 106, "time_elapsed": 647631, "internal_node_id": "0.0-79.0"}}, {"uniqueid": "MTK0961:30BUDKLTXE2221M7EB4VYFI0D1BE5D", "current_trial": 107, "dateTime": 1512939071216, "trialdata": {"rt": -1000, "stimulus": "/static/audio/wordpool/RAFT.wav", "key_press": -1, "type": "PRES_AUD", "word": "raft", "wordID": 1158, "conditions": [24, 800, "a", 12000], "trial": 2, "serialpos": 18, "trial_type": "single-audio", "trial_index": 107, "time_elapsed": 649340, "internal_node_id": "0.0-80.0"}}, {"uniqueid": "MTK0961:30BUDKLTXE2221M7EB4VYFI0D1BE5D", "current_trial": 108, "dateTime": 1512939073045, "trialdata": {"rt": -1000, "stimulus": "/static/audio/wordpool/BLOUSE.wav", "key_press": -1, "type": "PRES_AUD", "word": "blouse", "wordID": 138, "conditions": [24, 800, "a", 12000], "trial": 2, "serialpos": 19, "trial_type": "single-audio", "trial_index": 108, "time_elapsed": 651170, "internal_node_id": "0.0-81.0"}}, {"uniqueid": "MTK0961:30BUDKLTXE2221M7EB4VYFI0D1BE5D", "current_trial": 109, "dateTime": 1512939074678, "trialdata": {"rt": -1000, "stimulus": "/static/audio/wordpool/WASP.wav", "key_press": -1, "type": "PRES_AUD", "word": "wasp", "wordID": 1592, "conditions": [24, 800, "a", 12000], "trial": 2, "serialpos": 20, "trial_type": "single-audio", "trial_index": 109, "time_elapsed": 652803, "internal_node_id": "0.0-82.0"}}, {"uniqueid": "MTK0961:30BUDKLTXE2221M7EB4VYFI0D1BE5D", "current_trial": 110, "dateTime": 1512939076538, "trialdata": {"rt": -1000, "stimulus": "/static/audio/wordpool/LAPEL.wav", "key_press": -1, "type": "PRES_AUD", "word": "lapel", "wordID": 799, "conditions": [24, 800, "a", 12000], "trial": 2, "serialpos": 21, "trial_type": "single-audio", "trial_index": 110, "time_elapsed": 654663, "internal_node_id": "0.0-83.0"}}, {"uniqueid": "MTK0961:30BUDKLTXE2221M7EB4VYFI0D1BE5D", "current_trial": 111, "dateTime": 1512939078415, "trialdata": {"rt": -1000, "stimulus": "/static/audio/wordpool/TOMBSTONE.wav", "key_press": -1, "type": "PRES_AUD", "word": "tombstone", "wordID": 1477, "conditions": [24, 800, "a", 12000], "trial": 2, "serialpos": 22, "trial_type": "single-audio", "trial_index": 111, "time_elapsed": 656540, "internal_node_id": "0.0-84.0"}}, {"uniqueid": "MTK0961:30BUDKLTXE2221M7EB4VYFI0D1BE5D", "current_trial": 112, "dateTime": 1512939080388, "trialdata": {"rt": -1000, "stimulus": "/static/audio/wordpool/NOTEBOOK.wav", "key_press": -1, "type": "PRES_AUD", "word": "notebook", "wordID": 958, "conditions": [24, 800, "a", 12000], "trial": 2, "serialpos": 23, "trial_type": "single-audio", "trial_index": 112, "time_elapsed": 658513, "internal_node_id": "0.0-85.0"}}, {"uniqueid": "MTK0961:30BUDKLTXE2221M7EB4VYFI0D1BE5D", "current_trial": 113, "dateTime": 1512939081662, "trialdata": {"rt": -1, "stimulus": "", "key_press": -1, "type": "PRE_RECALL_DELAY", "trial_type": "single-stim", "trial_index": 113, "time_elapsed": 659786, "internal_node_id": "0.0-86.0-0.0"}}, {"uniqueid": "MTK0961:30BUDKLTXE2221M7EB4VYFI0D1BE5D", "current_trial": 114, "dateTime": 1512939082171, "trialdata": {"rt": -1000, "stimulus": "/static/audio/400Hz.wav", "key_press": -1, "type": "PRE_RECALL_ALERT", "trial_type": "single-audio", "trial_index": 114, "time_elapsed": 660296, "internal_node_id": "0.0-87.0"}}, {"uniqueid": "MTK0961:30BUDKLTXE2221M7EB4VYFI0D1BE5D", "current_trial": 115, "dateTime": 1512939142176, "trialdata": {"rt": [6786, 13007, 20996, 25837, 31436, 35949], "recwords": ["blouse", "pizza", "boyfriend", "cousin", "window", "curtain"], "type": "FREE_RECALL", "conditions": [24, 800, "a", 12000], "trial": 2, "trial_type": "free-recall", "trial_index": 115, "time_elapsed": 720296, "internal_node_id": "0.0-88.0-0.0"}}, {"uniqueid": "MTK0961:30BUDKLTXE2221M7EB4VYFI0D1BE5D", "current_trial": 116, "dateTime": 1512939147641, "trialdata": {"rt": 3463, "key_press": 66, "type": "INSTRUCTIONS", "trial_type": "text", "trial_index": 116, "time_elapsed": 725766, "internal_node_id": "0.0-89.0"}}, {"uniqueid": "MTK0961:30BUDKLTXE2221M7EB4VYFI0D1BE5D", "current_trial": 117, "dateTime": 1512939161659, "trialdata": {"rt": [6285, 11575], "responses": ["11", "19"], "num1": [2, 5, 9], "num2": [7, 7, 4], "num3": [2, 7, 6], "type": "DISTRACTOR", "conditions": [24, 1600, "v", 12000], "trial": 3, "trial_type": "math-distractor", "trial_index": 117, "time_elapsed": 739784, "internal_node_id": "0.0-90.0"}}, {"uniqueid": "MTK0961:30BUDKLTXE2221M7EB4VYFI0D1BE5D", "current_trial": 118, "dateTime": 1512939164663, "trialdata": {"rt": -1, "stimulus": "<p id=\"stim\">10</p>", "key_press": -1, "trial_type": "single-stim", "trial_index": 118, "time_elapsed": 742787, "internal_node_id": "0.0-91.0-0.0"}}, {"uniqueid": "MTK0961:30BUDKLTXE2221M7EB4VYFI0D1BE5D", "current_trial": 119, "dateTime": 1512939165665, "trialdata": {"rt": -1, "stimulus": "<p id=\"stim\">9</p>", "key_press": -1, "trial_type": "single-stim", "trial_index": 119, "time_elapsed": 743789, "internal_node_id": "0.0-91.0-1.0"}}, {"uniqueid": "MTK0961:30BUDKLTXE2221M7EB4VYFI0D1BE5D", "current_trial": 120, "dateTime": 1512939166667, "trialdata": {"rt": -1, "stimulus": "<p id=\"stim\">8</p>", "key_press": -1, "trial_type": "single-stim", "trial_index": 120, "time_elapsed": 744791, "internal_node_id": "0.0-91.0-2.0"}}, {"uniqueid": "MTK0961:30BUDKLTXE2221M7EB4VYFI0D1BE5D", "current_trial": 121, "dateTime": 1512939167669, "trialdata": {"rt": -1, "stimulus": "<p id=\"stim\">7</p>", "key_press": -1, "trial_type": "single-stim", "trial_index": 121, "time_elapsed": 745793, "internal_node_id": "0.0-91.0-3.0"}}, {"uniqueid": "MTK0961:30BUDKLTXE2221M7EB4VYFI0D1BE5D", "current_trial": 122, "dateTime": 1512939168671, "trialdata": {"rt": -1, "stimulus": "<p id=\"stim\">6</p>", "key_press": -1, "trial_type": "single-stim", "trial_index": 122, "time_elapsed": 746796, "internal_node_id": "0.0-91.0-4.0"}}, {"uniqueid": "MTK0961:30BUDKLTXE2221M7EB4VYFI0D1BE5D", "current_trial": 123, "dateTime": 1512939169673, "trialdata": {"rt": -1, "stimulus": "<p id=\"stim\">5</p>", "key_press": -1, "trial_type": "single-stim", "trial_index": 123, "time_elapsed": 747797, "internal_node_id": "0.0-91.0-5.0"}}, {"uniqueid": "MTK0961:30BUDKLTXE2221M7EB4VYFI0D1BE5D", "current_trial": 124, "dateTime": 1512939170675, "trialdata": {"rt": -1, "stimulus": "<p id=\"stim\">4</p>", "key_press": -1, "trial_type": "single-stim", "trial_index": 124, "time_elapsed": 748799, "internal_node_id": "0.0-91.0-6.0"}}, {"uniqueid": "MTK0961:30BUDKLTXE2221M7EB4VYFI0D1BE5D", "current_trial": 125, "dateTime": 1512939171677, "trialdata": {"rt": -1, "stimulus": "<p id=\"stim\">3</p>", "key_press": -1, "trial_type": "single-stim", "trial_index": 125, "time_elapsed": 749802, "internal_node_id": "0.0-91.0-7.0"}}, {"uniqueid": "MTK0961:30BUDKLTXE2221M7EB4VYFI0D1BE5D", "current_trial": 126, "dateTime": 1512939172680, "trialdata": {"rt": -1, "stimulus": "<p id=\"stim\">2</p>", "key_press": -1, "trial_type": "single-stim", "trial_index": 126, "time_elapsed": 750805, "internal_node_id": "0.0-91.0-8.0"}}, {"uniqueid": "MTK0961:30BUDKLTXE2221M7EB4VYFI0D1BE5D", "current_trial": 127, "dateTime": 1512939173683, "trialdata": {"rt": -1, "stimulus": "<p id=\"stim\">1</p>", "key_press": -1, "trial_type": "single-stim", "trial_index": 127, "time_elapsed": 751808, "internal_node_id": "0.0-91.0-9.0"}}, {"uniqueid": "MTK0961:30BUDKLTXE2221M7EB4VYFI0D1BE5D", "current_trial": 128, "dateTime": 1512939175185, "trialdata": {"rt": -1, "stimulus": "<p id=\"stim\">+</p>", "key_press": -1, "type": "FIXATION", "trial_type": "single-stim", "trial_index": 128, "time_elapsed": 753310, "internal_node_id": "0.0-92.0-0.0"}}, {"uniqueid": "MTK0961:30BUDKLTXE2221M7EB4VYFI0D1BE5D", "current_trial": 129, "dateTime": 1512939176787, "trialdata": {"rt": -1, "stimulus": "<p id=\"stim\">FLOWER</p>", "key_press": -1, "type": "PRES_VIS", "word": "flower", "wordID": 583, "conditions": [24, 1600, "v", 12000], "trial": 3, "serialpos": 0, "trial_type": "single-stim", "trial_index": 129, "time_elapsed": 754912, "internal_node_id": "0.0-93.0"}}, {"uniqueid": "MTK0961:30BUDKLTXE2221M7EB4VYFI0D1BE5D", "current_trial": 130, "dateTime": 1512939179273, "trialdata": {"rt": -1, "stimulus": "<p id=\"stim\">CITRUS</p>", "key_press": -1, "type": "PRES_VIS", "word": "citrus", "wordID": 312, "conditions": [24, 1600, "v", 12000], "trial": 3, "serialpos": 1, "trial_type": "single-stim", "trial_index": 130, "time_elapsed": 757398, "internal_node_id": "0.0-94.0"}}, {"uniqueid": "MTK0961:30BUDKLTXE2221M7EB4VYFI0D1BE5D", "current_trial": 131, "dateTime": 1512939181916, "trialdata": {"rt": -1, "stimulus": "<p id=\"stim\">MARINE</p>", "key_press": -1, "type": "PRES_VIS", "word": "marine", "wordID": 868, "conditions": [24, 1600, "v", 12000], "trial": 3, "serialpos": 2, "trial_type": "single-stim", "trial_index": 131, "time_elapsed": 760041, "internal_node_id": "0.0-95.0"}}, {"uniqueid": "MTK0961:30BUDKLTXE2221M7EB4VYFI0D1BE5D", "current_trial": 132, "dateTime": 1512939184572, "trialdata": {"rt": -1, "stimulus": "<p id=\"stim\">OUTFIT</p>", "key_press": -1, "type": "PRES_VIS", "word": "outfit", "wordID": 987, "conditions": [24, 1600, "v", 12000], "trial": 3, "serialpos": 3, "trial_type": "single-stim", "trial_index": 132, "time_elapsed": 762697, "internal_node_id": "0.0-96.0"}}, {"uniqueid": "MTK0961:30BUDKLTXE2221M7EB4VYFI0D1BE5D", "current_trial": 133, "dateTime": 1512939187177, "trialdata": {"rt": -1, "stimulus": "<p id=\"stim\">DRESSER</p>", "key_press": -1, "type": "PRES_VIS", "word": "dresser", "wordID": 495, "conditions": [24, 1600, "v", 12000], "trial": 3, "serialpos": 4, "trial_type": "single-stim", "trial_index": 133, "time_elapsed": 765302, "internal_node_id": "0.0-97.0"}}, {"uniqueid": "MTK0961:30BUDKLTXE2221M7EB4VYFI0D1BE5D", "current_trial": 134, "dateTime": 1512939189714, "trialdata": {"rt": -1, "stimulus": "<p id=\"stim\">SCALPEL</p>", "key_press": -1, "type": "PRES_VIS", "word": "scalpel", "wordID": 1242, "conditions": [24, 1600, "v", 12000], "trial": 3, "serialpos": 5, "trial_type": "single-stim", "trial_index": 134, "time_elapsed": 767839, "internal_node_id": "0.0-98.0"}}, {"uniqueid": "MTK0961:30BUDKLTXE2221M7EB4VYFI0D1BE5D", "current_trial": 135, "dateTime": 1512939192129, "trialdata": {"rt": -1, "stimulus": "<p id=\"stim\">SCISSORS</p>", "key_press": -1, "type": "PRES_VIS", "word": "scissors", "wordID": 1249, "conditions": [24, 1600, "v", 12000], "trial": 3, "serialpos": 6, "trial_type": "single-stim", "trial_index": 135, "time_elapsed": 770254, "internal_node_id": "0.0-99.0"}}, {"uniqueid": "MTK0961:30BUDKLTXE2221M7EB4VYFI0D1BE5D", "current_trial": 136, "dateTime": 1512939194608, "trialdata": {"rt": -1, "stimulus": "<p id=\"stim\">SERVER</p>", "key_press": -1, "type": "PRES_VIS", "word": "server", "wordID": 1271, "conditions": [24, 1600, "v", 12000], "trial": 3, "serialpos": 7, "trial_type": "single-stim", "trial_index": 136, "time_elapsed": 772733, "internal_node_id": "0.0-100.0"}}, {"uniqueid": "MTK0961:30BUDKLTXE2221M7EB4VYFI0D1BE5D", "current_trial": 137, "dateTime": 1512939197069, "trialdata": {"rt": -1, "stimulus": "<p id=\"stim\">CUPBOARD</p>", "key_press": -1, "type": "PRES_VIS", "word": "cupboard", "wordID": 424, "conditions": [24, 1600, "v", 12000], "trial": 3, "serialpos": 8, "trial_type": "single-stim", "trial_index": 137, "time_elapsed": 775194, "internal_node_id": "0.0-101.0"}}, {"uniqueid": "MTK0961:30BUDKLTXE2221M7EB4VYFI0D1BE5D", "current_trial": 138, "dateTime": 1512939199852, "trialdata": {"rt": -1, "stimulus": "<p id=\"stim\">HEADBAND</p>", "key_press": -1, "type": "PRES_VIS", "word": "headband", "wordID": 695, "conditions": [24, 1600, "v", 12000], "trial": 3, "serialpos": 9, "trial_type": "single-stim", "trial_index": 138, "time_elapsed": 777977, "internal_node_id": "0.0-102.0"}}, {"uniqueid": "MTK0961:30BUDKLTXE2221M7EB4VYFI0D1BE5D", "current_trial": 139, "dateTime": 1512939202455, "trialdata": {"rt": -1, "stimulus": "<p id=\"stim\">DRAWING</p>", "key_press": -1, "type": "PRES_VIS", "word": "drawing", "wordID": 493, "conditions": [24, 1600, "v", 12000], "trial": 3, "serialpos": 10, "trial_type": "single-stim", "trial_index": 139, "time_elapsed": 780580, "internal_node_id": "0.0-103.0"}}, {"uniqueid": "MTK0961:30BUDKLTXE2221M7EB4VYFI0D1BE5D", "current_trial": 140, "dateTime": 1512939205218, "trialdata": {"rt": -1, "stimulus": "<p id=\"stim\">MISTER</p>", "key_press": -1, "type": "PRES_VIS", "word": "mister", "wordID": 900, "conditions": [24, 1600, "v", 12000], "trial": 3, "serialpos": 11, "trial_type": "single-stim", "trial_index": 140, "time_elapsed": 783343, "internal_node_id": "0.0-104.0"}}, {"uniqueid": "MTK0961:30BUDKLTXE2221M7EB4VYFI0D1BE5D", "current_trial": 141, "dateTime": 1512939207679, "trialdata": {"rt": -1, "stimulus": "<p id=\"stim\">SOFTBALL</p>", "key_press": -1, "type": "PRES_VIS", "word": "softball", "wordID": 1342, "conditions": [24, 1600, "v", 12000], "trial": 3, "serialpos": 12, "trial_type": "single-stim", "trial_index": 141, "time_elapsed": 785804, "internal_node_id": "0.0-105.0"}}, {"uniqueid": "MTK0961:30BUDKLTXE2221M7EB4VYFI0D1BE5D", "current_trial": 142, "dateTime": 1512939210393, "trialdata": {"rt": -1, "stimulus": "<p id=\"stim\">HARP</p>", "key_press": -1, "type": "PRES_VIS", "word": "harp", "wordID": 688, "conditions": [24, 1600, "v", 12000], "trial": 3, "serialpos": 13, "trial_type": "single-stim", "trial_index": 142, "time_elapsed": 788518, "internal_node_id": "0.0-106.0"}}, {"uniqueid": "MTK0961:30BUDKLTXE2221M7EB4VYFI0D1BE5D", "current_trial": 143, "dateTime": 1512939213091, "trialdata": {"rt": -1, "stimulus": "<p id=\"stim\">FLASHLIGHT</p>", "key_press": -1, "type": "PRES_VIS", "word": "flashlight", "wordID": 574, "conditions": [24, 1600, "v", 12000], "trial": 3, "serialpos": 14, "trial_type": "single-stim", "trial_index": 143, "time_elapsed": 791216, "internal_node_id": "0.0-107.0"}}, {"uniqueid": "MTK0961:30BUDKLTXE2221M7EB4VYFI0D1BE5D", "current_trial": 144, "dateTime": 1512939215694, "trialdata": {"rt": -1, "stimulus": "<p id=\"stim\">FIDDLE</p>", "key_press": -1, "type": "PRES_VIS", "word": "fiddle", "wordID": 560, "conditions": [24, 1600, "v", 12000], "trial": 3, "serialpos": 15, "trial_type": "single-stim", "trial_index": 144, "time_elapsed": 793819, "internal_node_id": "0.0-108.0"}}, {"uniqueid": "MTK0961:30BUDKLTXE2221M7EB4VYFI0D1BE5D", "current_trial": 145, "dateTime": 1512939218435, "trialdata": {"rt": -1, "stimulus": "<p id=\"stim\">PORK</p>", "key_press": -1, "type": "PRES_VIS", "word": "pork", "wordID": 1107, "conditions": [24, 1600, "v", 12000], "trial": 3, "serialpos": 16, "trial_type": "single-stim", "trial_index": 145, "time_elapsed": 796560, "internal_node_id": "0.0-109.0"}}, {"uniqueid": "MTK0961:30BUDKLTXE2221M7EB4VYFI0D1BE5D", "current_trial": 146, "dateTime": 1512939221170, "trialdata": {"rt": -1, "stimulus": "<p id=\"stim\">KIDNEY</p>", "key_press": -1, "type": "PRES_VIS", "word": "kidney", "wordID": 775, "conditions": [24, 1600, "v", 12000], "trial": 3, "serialpos": 17, "trial_type": "single-stim", "trial_index": 146, "time_elapsed": 799295, "internal_node_id": "0.0-110.0"}}, {"uniqueid": "MTK0961:30BUDKLTXE2221M7EB4VYFI0D1BE5D", "current_trial": 147, "dateTime": 1512939223719, "trialdata": {"rt": -1, "stimulus": "<p id=\"stim\">TRANSPLANT</p>", "key_press": -1, "type": "PRES_VIS", "word": "transplant", "wordID": 1495, "conditions": [24, 1600, "v", 12000], "trial": 3, "serialpos": 18, "trial_type": "single-stim", "trial_index": 147, "time_elapsed": 801844, "internal_node_id": "0.0-111.0"}}, {"uniqueid": "MTK0961:30BUDKLTXE2221M7EB4VYFI0D1BE5D", "current_trial": 148, "dateTime": 1512939226126, "trialdata": {"rt": -1, "stimulus": "<p id=\"stim\">FLUTE</p>", "key_press": -1, "type": "PRES_VIS", "word": "flute", "wordID": 584, "conditions": [24, 1600, "v", 12000], "trial": 3, "serialpos": 19, "trial_type": "single-stim", "trial_index": 148, "time_elapsed": 804251, "internal_node_id": "0.0-112.0"}}, {"uniqueid": "MTK0961:30BUDKLTXE2221M7EB4VYFI0D1BE5D", "current_trial": 149, "dateTime": 1512939228712, "trialdata": {"rt": -1, "stimulus": "<p id=\"stim\">SALMON</p>", "key_press": -1, "type": "PRES_VIS", "word": "salmon", "wordID": 1226, "conditions": [24, 1600, "v", 12000], "trial": 3, "serialpos": 20, "trial_type": "single-stim", "trial_index": 149, "time_elapsed": 806837, "internal_node_id": "0.0-113.0"}}, {"uniqueid": "MTK0961:30BUDKLTXE2221M7EB4VYFI0D1BE5D", "current_trial": 150, "dateTime": 1512939231436, "trialdata": {"rt": -1, "stimulus": "<p id=\"stim\">COOK</p>", "key_press": -1, "type": "PRES_VIS", "word": "cook", "wordID": 371, "conditions": [24, 1600, "v", 12000], "trial": 3, "serialpos": 21, "trial_type": "single-stim", "trial_index": 150, "time_elapsed": 809561, "internal_node_id": "0.0-114.0"}}, {"uniqueid": "MTK0961:30BUDKLTXE2221M7EB4VYFI0D1BE5D", "current_trial": 151, "dateTime": 1512939234174, "trialdata": {"rt": -1, "stimulus": "<p id=\"stim\">JAPAN</p>", "key_press": -1, "type": "PRES_VIS", "word": "japan", "wordID": 748, "conditions": [24, 1600, "v", 12000], "trial": 3, "serialpos": 22, "trial_type": "single-stim", "trial_index": 151, "time_elapsed": 812299, "internal_node_id": "0.0-115.0"}}, {"uniqueid": "MTK0961:30BUDKLTXE2221M7EB4VYFI0D1BE5D", "current_trial": 152, "dateTime": 1512939236958, "trialdata": {"rt": -1, "stimulus": "<p id=\"stim\">PLUTO</p>", "key_press": -1, "type": "PRES_VIS", "word": "pluto", "wordID": 1091, "conditions": [24, 1600, "v", 12000], "trial": 3, "serialpos": 23, "trial_type": "single-stim", "trial_index": 152, "time_elapsed": 815083, "internal_node_id": "0.0-116.0"}}, {"uniqueid": "MTK0961:30BUDKLTXE2221M7EB4VYFI0D1BE5D", "current_trial": 153, "dateTime": 1512939239375, "trialdata": {"rt": -1, "stimulus": "", "key_press": -1, "type": "PRE_RECALL_DELAY", "trial_type": "single-stim", "trial_index": 153, "time_elapsed": 817500, "internal_node_id": "0.0-117.0-0.0"}}, {"uniqueid": "MTK0961:30BUDKLTXE2221M7EB4VYFI0D1BE5D", "current_trial": 154, "dateTime": 1512939239878, "trialdata": {"rt": -1000, "stimulus": "/static/audio/400Hz.wav", "key_press": -1, "type": "PRE_RECALL_ALERT", "trial_type": "single-audio", "trial_index": 154, "time_elapsed": 818003, "internal_node_id": "0.0-118.0"}}, {"uniqueid": "MTK0961:30BUDKLTXE2221M7EB4VYFI0D1BE5D", "current_trial": 155, "dateTime": 1512939299903, "trialdata": {"rt": [5112, 9953, 13381], "recwords": ["pluto", "softball", "flower"], "type": "FREE_RECALL", "conditions": [24, 1600, "v", 12000], "trial": 3, "trial_type": "free-recall", "trial_index": 155, "time_elapsed": 878012, "internal_node_id": "0.0-119.0-0.0"}}, {"uniqueid": "MTK0961:30BUDKLTXE2221M7EB4VYFI0D1BE5D", "current_trial": 156, "dateTime": 1512939303318, "trialdata": {"rt": 1413, "key_press": 66, "type": "INSTRUCTIONS", "trial_type": "text", "trial_index": 156, "time_elapsed": 881442, "internal_node_id": "0.0-120.0"}}, {"uniqueid": "MTK0961:30BUDKLTXE2221M7EB4VYFI0D1BE5D", "current_trial": 157, "dateTime": 1512939329324, "trialdata": {"rt": [12371, 17432, 20919, 23838], "responses": ["24 ", "17", "16", "11"], "num1": [9, 6, 9, 5, 1], "num2": [9, 8, 2, 2, 6], "num3": [6, 3, 5, 4, 7], "type": "DISTRACTOR", "conditions": [12, 1600, "v", 24000], "trial": 4, "trial_type": "math-distractor", "trial_index": 157, "time_elapsed": 907449, "internal_node_id": "0.0-121.0"}}, {"uniqueid": "MTK0961:30BUDKLTXE2221M7EB4VYFI0D1BE5D", "current_trial": 158, "dateTime": 1512939332327, "trialdata": {"rt": -1, "stimulus": "<p id=\"stim\">10</p>", "key_press": -1, "trial_type": "single-stim", "trial_index": 158, "time_elapsed": 910452, "internal_node_id": "0.0-122.0-0.0"}}, {"uniqueid": "MTK0961:30BUDKLTXE2221M7EB4VYFI0D1BE5D", "current_trial": 159, "dateTime": 1512939333332, "trialdata": {"rt": -1, "stimulus": "<p id=\"stim\">9</p>", "key_press": -1, "trial_type": "single-stim", "trial_index": 159, "time_elapsed": 911457, "internal_node_id": "0.0-122.0-1.0"}}, {"uniqueid": "MTK0961:30BUDKLTXE2221M7EB4VYFI0D1BE5D", "current_trial": 160, "dateTime": 1512939334334, "trialdata": {"rt": -1, "stimulus": "<p id=\"stim\">8</p>", "key_press": -1, "trial_type": "single-stim", "trial_index": 160, "time_elapsed": 912459, "internal_node_id": "0.0-122.0-2.0"}}, {"uniqueid": "MTK0961:30BUDKLTXE2221M7EB4VYFI0D1BE5D", "current_trial": 161, "dateTime": 1512939335336, "trialdata": {"rt": -1, "stimulus": "<p id=\"stim\">7</p>", "key_press": -1, "trial_type": "single-stim", "trial_index": 161, "time_elapsed": 913461, "internal_node_id": "0.0-122.0-3.0"}}, {"uniqueid": "MTK0961:30BUDKLTXE2221M7EB4VYFI0D1BE5D", "current_trial": 162, "dateTime": 1512939336338, "trialdata": {"rt": -1, "stimulus": "<p id=\"stim\">6</p>", "key_press": -1, "trial_type": "single-stim", "trial_index": 162, "time_elapsed": 914463, "internal_node_id": "0.0-122.0-4.0"}}, {"uniqueid": "MTK0961:30BUDKLTXE2221M7EB4VYFI0D1BE5D", "current_trial": 163, "dateTime": 1512939337340, "trialdata": {"rt": -1, "stimulus": "<p id=\"stim\">5</p>", "key_press": -1, "trial_type": "single-stim", "trial_index": 163, "time_elapsed": 915465, "internal_node_id": "0.0-122.0-5.0"}}, {"uniqueid": "MTK0961:30BUDKLTXE2221M7EB4VYFI0D1BE5D", "current_trial": 164, "dateTime": 1512939338342, "trialdata": {"rt": -1, "stimulus": "<p id=\"stim\">4</p>", "key_press": -1, "trial_type": "single-stim", "trial_index": 164, "time_elapsed": 916467, "internal_node_id": "0.0-122.0-6.0"}}, {"uniqueid": "MTK0961:30BUDKLTXE2221M7EB4VYFI0D1BE5D", "current_trial": 165, "dateTime": 1512939339344, "trialdata": {"rt": -1, "stimulus": "<p id=\"stim\">3</p>", "key_press": -1, "trial_type": "single-stim", "trial_index": 165, "time_elapsed": 917469, "internal_node_id": "0.0-122.0-7.0"}}, {"uniqueid": "MTK0961:30BUDKLTXE2221M7EB4VYFI0D1BE5D", "current_trial": 166, "dateTime": 1512939340346, "trialdata": {"rt": -1, "stimulus": "<p id=\"stim\">2</p>", "key_press": -1, "trial_type": "single-stim", "trial_index": 166, "time_elapsed": 918471, "internal_node_id": "0.0-122.0-8.0"}}, {"uniqueid": "MTK0961:30BUDKLTXE2221M7EB4VYFI0D1BE5D", "current_trial": 167, "dateTime": 1512939341348, "trialdata": {"rt": -1, "stimulus": "<p id=\"stim\">1</p>", "key_press": -1, "trial_type": "single-stim", "trial_index": 167, "time_elapsed": 919473, "internal_node_id": "0.0-122.0-9.0"}}, {"uniqueid": "MTK0961:30BUDKLTXE2221M7EB4VYFI0D1BE5D", "current_trial": 168, "dateTime": 1512939342850, "trialdata": {"rt": -1, "stimulus": "<p id=\"stim\">+</p>", "key_press": -1, "type": "FIXATION", "trial_type": "single-stim", "trial_index": 168, "time_elapsed": 920975, "internal_node_id": "0.0-123.0-0.0"}}, {"uniqueid": "MTK0961:30BUDKLTXE2221M7EB4VYFI0D1BE5D", "current_trial": 169, "dateTime": 1512939344452, "trialdata": {"rt": -1, "stimulus": "<p id=\"stim\">BADGE</p>", "key_press": -1, "type": "PRES_VIS", "word": "badge", "wordID": 67, "conditions": [12, 1600, "v", 24000], "trial": 4, "serialpos": 0, "trial_type": "single-stim", "trial_index": 169, "time_elapsed": 922577, "internal_node_id": "0.0-124.0"}}, {"uniqueid": "MTK0961:30BUDKLTXE2221M7EB4VYFI0D1BE5D", "current_trial": 170, "dateTime": 1512939347242, "trialdata": {"rt": -1, "stimulus": "<p id=\"stim\">RECEIPT</p>", "key_press": -1, "type": "PRES_VIS", "word": "receipt", "wordID": 1172, "conditions": [12, 1600, "v", 24000], "trial": 4, "serialpos": 1, "trial_type": "single-stim", "trial_index": 170, "time_elapsed": 925367, "internal_node_id": "0.0-125.0"}}, {"uniqueid": "MTK0961:30BUDKLTXE2221M7EB4VYFI0D1BE5D", "current_trial": 171, "dateTime": 1512939349816, "trialdata": {"rt": -1, "stimulus": "<p id=\"stim\">FREEZER</p>", "key_press": -1, "type": "PRES_VIS", "word": "freezer", "wordID": 603, "conditions": [12, 1600, "v", 24000], "trial": 4, "serialpos": 2, "trial_type": "single-stim", "trial_index": 171, "time_elapsed": 927941, "internal_node_id": "0.0-126.0"}}, {"uniqueid": "MTK0961:30BUDKLTXE2221M7EB4VYFI0D1BE5D", "current_trial": 172, "dateTime": 1512939352224, "trialdata": {"rt": -1, "stimulus": "<p id=\"stim\">LASER</p>", "key_press": -1, "type": "PRES_VIS", "word": "laser", "wordID": 800, "conditions": [12, 1600, "v", 24000], "trial": 4, "serialpos": 3, "trial_type": "single-stim", "trial_index": 172, "time_elapsed": 930349, "internal_node_id": "0.0-127.0"}}, {"uniqueid": "MTK0961:30BUDKLTXE2221M7EB4VYFI0D1BE5D", "current_trial": 173, "dateTime": 1512939354698, "trialdata": {"rt": -1, "stimulus": "<p id=\"stim\">RACKET</p>", "key_press": -1, "type": "PRES_VIS", "word": "racket", "wordID": 1154, "conditions": [12, 1600, "v", 24000], "trial": 4, "serialpos": 4, "trial_type": "single-stim", "trial_index": 173, "time_elapsed": 932823, "internal_node_id": "0.0-128.0"}}, {"uniqueid": "MTK0961:30BUDKLTXE2221M7EB4VYFI0D1BE5D", "current_trial": 174, "dateTime": 1512939357164, "trialdata": {"rt": -1, "stimulus": "<p id=\"stim\">NEUTRON</p>", "key_press": -1, "type": "PRES_VIS", "word": "neutron", "wordID": 946, "conditions": [12, 1600, "v", 24000], "trial": 4, "serialpos": 5, "trial_type": "single-stim", "trial_index": 174, "time_elapsed": 935289, "internal_node_id": "0.0-129.0"}}, {"uniqueid": "MTK0961:30BUDKLTXE2221M7EB4VYFI0D1BE5D", "current_trial": 175, "dateTime": 1512939359713, "trialdata": {"rt": -1, "stimulus": "<p id=\"stim\">PEPPER</p>", "key_press": -1, "type": "PRES_VIS", "word": "pepper", "wordID": 1046, "conditions": [12, 1600, "v", 24000], "trial": 4, "serialpos": 6, "trial_type": "single-stim", "trial_index": 175, "time_elapsed": 937838, "internal_node_id": "0.0-130.0"}}, {"uniqueid": "MTK0961:30BUDKLTXE2221M7EB4VYFI0D1BE5D", "current_trial": 176, "dateTime": 1512939362391, "trialdata": {"rt": -1, "stimulus": "<p id=\"stim\">BARLEY</p>", "key_press": -1, "type": "PRES_VIS", "word": "barley", "wordID": 87, "conditions": [12, 1600, "v", 24000], "trial": 4, "serialpos": 7, "trial_type": "single-stim", "trial_index": 176, "time_elapsed": 940516, "internal_node_id": "0.0-131.0"}}, {"uniqueid": "MTK0961:30BUDKLTXE2221M7EB4VYFI0D1BE5D", "current_trial": 177, "dateTime": 1512939364864, "trialdata": {"rt": -1, "stimulus": "<p id=\"stim\">ROD</p>", "key_press": -1, "type": "PRES_VIS", "word": "rod", "wordID": 1202, "conditions": [12, 1600, "v", 24000], "trial": 4, "serialpos": 8, "trial_type": "single-stim", "trial_index": 177, "time_elapsed": 942989, "internal_node_id": "0.0-132.0"}}, {"uniqueid": "MTK0961:30BUDKLTXE2221M7EB4VYFI0D1BE5D", "current_trial": 178, "dateTime": 1512939367560, "trialdata": {"rt": -1, "stimulus": "<p id=\"stim\">SPOOL</p>", "key_press": -1, "type": "PRES_VIS", "word": "spool", "wordID": 1355, "conditions": [12, 1600, "v", 24000], "trial": 4, "serialpos": 9, "trial_type": "single-stim", "trial_index": 178, "time_elapsed": 945685, "internal_node_id": "0.0-133.0"}}, {"uniqueid": "MTK0961:30BUDKLTXE2221M7EB4VYFI0D1BE5D", "current_trial": 179, "dateTime": 1512939370139, "trialdata": {"rt": -1, "stimulus": "<p id=\"stim\">STICKER</p>", "key_press": -1, "type": "PRES_VIS", "word": "sticker", "wordID": 1381, "conditions": [12, 1600, "v", 24000], "trial": 4, "serialpos": 10, "trial_type": "single-stim", "trial_index": 179, "time_elapsed": 948264, "internal_node_id": "0.0-134.0"}}, {"uniqueid": "MTK0961:30BUDKLTXE2221M7EB4VYFI0D1BE5D", "current_trial": 180, "dateTime": 1512939372545, "trialdata": {"rt": -1, "stimulus": "<p id=\"stim\">FINGER</p>", "key_press": -1, "type": "PRES_VIS", "word": "finger", "wordID": 566, "conditions": [12, 1600, "v", 24000], "trial": 4, "serialpos": 11, "trial_type": "single-stim", "trial_index": 180, "time_elapsed": 950670, "internal_node_id": "0.0-135.0"}}, {"uniqueid": "MTK0961:30BUDKLTXE2221M7EB4VYFI0D1BE5D", "current_trial": 181, "dateTime": 1512939375077, "trialdata": {"rt": -1, "stimulus": "", "key_press": -1, "type": "PRE_RECALL_DELAY", "trial_type": "single-stim", "trial_index": 181, "time_elapsed": 953202, "internal_node_id": "0.0-136.0-0.0"}}, {"uniqueid": "MTK0961:30BUDKLTXE2221M7EB4VYFI0D1BE5D", "current_trial": 182, "dateTime": 1512939375581, "trialdata": {"rt": -1000, "stimulus": "/static/audio/400Hz.wav", "key_press": -1, "type": "PRE_RECALL_ALERT", "trial_type": "single-audio", "trial_index": 182, "time_elapsed": 953706, "internal_node_id": "0.0-137.0"}}, {"uniqueid": "MTK0961:30BUDKLTXE2221M7EB4VYFI0D1BE5D", "current_trial": 183, "dateTime": 1512939435595, "trialdata": {"rt": [5113, 16162, 22582, 25819, 30821], "recwords": ["finger", "pepper", "freezer", "budge", "receipt"], "type": "FREE_RECALL", "conditions": [12, 1600, "v", 24000], "trial": 4, "trial_type": "free-recall", "trial_index": 183, "time_elapsed": 1013714, "internal_node_id": "0.0-138.0-0.0"}}, {"uniqueid": "MTK0961:30BUDKLTXE2221M7EB4VYFI0D1BE5D", "current_trial": 184, "dateTime": 1512939444991, "trialdata": {"rt": 7394, "key_press": 86, "type": "INSTRUCTIONS", "trial_type": "text", "trial_index": 184, "time_elapsed": 1023116, "internal_node_id": "0.0-139.0"}}, {"uniqueid": "MTK0961:30BUDKLTXE2221M7EB4VYFI0D1BE5D", "current_trial": 185, "dateTime": 1512939470999, "trialdata": {"rt": [3933, 7621, 10789, 13538, 16268, 19018, 22923], "responses": ["16", "15", "19", "16", "16", "16", "17"], "num1": [4, 4, 9, 4, 7, 9, 8, 4], "num2": [3, 7, 9, 3, 1, 2, 7, 7], "num3": [9, 4, 1, 9, 8, 5, 2, 7], "type": "DISTRACTOR", "conditions": [24, 800, "a", 24000], "trial": 5, "trial_type": "math-distractor", "trial_index": 185, "time_elapsed": 1049124, "internal_node_id": "0.0-140.0"}}, {"uniqueid": "MTK0961:30BUDKLTXE2221M7EB4VYFI0D1BE5D", "current_trial": 186, "dateTime": 1512939474001, "trialdata": {"rt": -1, "stimulus": "<p id=\"stim\">10</p>", "key_press": -1, "trial_type": "single-stim", "trial_index": 186, "time_elapsed": 1052126, "internal_node_id": "0.0-141.0-0.0"}}, {"uniqueid": "MTK0961:30BUDKLTXE2221M7EB4VYFI0D1BE5D", "current_trial": 187, "dateTime": 1512939475003, "trialdata": {"rt": -1, "stimulus": "<p id=\"stim\">9</p>", "key_press": -1, "trial_type": "single-stim", "trial_index": 187, "time_elapsed": 1053128, "internal_node_id": "0.0-141.0-1.0"}}, {"uniqueid": "MTK0961:30BUDKLTXE2221M7EB4VYFI0D1BE5D", "current_trial": 188, "dateTime": 1512939476005, "trialdata": {"rt": -1, "stimulus": "<p id=\"stim\">8</p>", "key_press": -1, "trial_type": "single-stim", "trial_index": 188, "time_elapsed": 1054130, "internal_node_id": "0.0-141.0-2.0"}}, {"uniqueid": "MTK0961:30BUDKLTXE2221M7EB4VYFI0D1BE5D", "current_trial": 189, "dateTime": 1512939477007, "trialdata": {"rt": -1, "stimulus": "<p id=\"stim\">7</p>", "key_press": -1, "trial_type": "single-stim", "trial_index": 189, "time_elapsed": 1055132, "internal_node_id": "0.0-141.0-3.0"}}, {"uniqueid": "MTK0961:30BUDKLTXE2221M7EB4VYFI0D1BE5D", "current_trial": 190, "dateTime": 1512939478009, "trialdata": {"rt": -1, "stimulus": "<p id=\"stim\">6</p>", "key_press": -1, "trial_type": "single-stim", "trial_index": 190, "time_elapsed": 1056133, "internal_node_id": "0.0-141.0-4.0"}}, {"uniqueid": "MTK0961:30BUDKLTXE2221M7EB4VYFI0D1BE5D", "current_trial": 191, "dateTime": 1512939479011, "trialdata": {"rt": -1, "stimulus": "<p id=\"stim\">5</p>", "key_press": -1, "trial_type": "single-stim", "trial_index": 191, "time_elapsed": 1057136, "internal_node_id": "0.0-141.0-5.0"}}, {"uniqueid": "MTK0961:30BUDKLTXE2221M7EB4VYFI0D1BE5D", "current_trial": 192, "dateTime": 1512939480013, "trialdata": {"rt": -1, "stimulus": "<p id=\"stim\">4</p>", "key_press": -1, "trial_type": "single-stim", "trial_index": 192, "time_elapsed": 1058138, "internal_node_id": "0.0-141.0-6.0"}}, {"uniqueid": "MTK0961:30BUDKLTXE2221M7EB4VYFI0D1BE5D", "current_trial": 193, "dateTime": 1512939481015, "trialdata": {"rt": -1, "stimulus": "<p id=\"stim\">3</p>", "key_press": -1, "trial_type": "single-stim", "trial_index": 193, "time_elapsed": 1059140, "internal_node_id": "0.0-141.0-7.0"}}, {"uniqueid": "MTK0961:30BUDKLTXE2221M7EB4VYFI0D1BE5D", "current_trial": 194, "dateTime": 1512939482017, "trialdata": {"rt": -1, "stimulus": "<p id=\"stim\">2</p>", "key_press": -1, "trial_type": "single-stim", "trial_index": 194, "time_elapsed": 1060142, "internal_node_id": "0.0-141.0-8.0"}}, {"uniqueid": "MTK0961:30BUDKLTXE2221M7EB4VYFI0D1BE5D", "current_trial": 195, "dateTime": 1512939483019, "trialdata": {"rt": -1, "stimulus": "<p id=\"stim\">1</p>", "key_press": -1, "trial_type": "single-stim", "trial_index": 195, "time_elapsed": 1061144, "internal_node_id": "0.0-141.0-9.0"}}, {"uniqueid": "MTK0961:30BUDKLTXE2221M7EB4VYFI0D1BE5D", "current_trial": 196, "dateTime": 1512939484521, "trialdata": {"rt": -1, "stimulus": "<p id=\"stim\">+</p>", "key_press": -1, "type": "FIXATION", "trial_type": "single-stim", "trial_index": 196, "time_elapsed": 1062646, "internal_node_id": "0.0-142.0-0.0"}}, {"uniqueid": "MTK0961:30BUDKLTXE2221M7EB4VYFI0D1BE5D", "current_trial": 197, "dateTime": 1512939486247, "trialdata": {"rt": -1000, "stimulus": "/static/audio/wordpool/GIFT.wav", "key_press": -1, "type": "PRES_AUD", "word": "gift", "wordID": 634, "conditions": [24, 800, "a", 24000], "trial": 5, "serialpos": 0, "trial_type": "single-audio", "trial_index": 197, "time_elapsed": 1064372, "internal_node_id": "0.0-143.0"}}, {"uniqueid": "MTK0961:30BUDKLTXE2221M7EB4VYFI0D1BE5D", "current_trial": 198, "dateTime": 1512939488193, "trialdata": {"rt": -1000, "stimulus": "/static/audio/wordpool/LAGOON.wav", "key_press": -1, "type": "PRES_AUD", "word": "lagoon", "wordID": 794, "conditions": [24, 800, "a", 24000], "trial": 5, "serialpos": 1, "trial_type": "single-audio", "trial_index": 198, "time_elapsed": 1066318, "internal_node_id": "0.0-144.0"}}, {"uniqueid": "MTK0961:30BUDKLTXE2221M7EB4VYFI0D1BE5D", "current_trial": 199, "dateTime": 1512939489857, "trialdata": {"rt": -1000, "stimulus": "/static/audio/wordpool/BREAST.wav", "key_press": -1, "type": "PRES_AUD", "word": "breast", "wordID": 170, "conditions": [24, 800, "a", 24000], "trial": 5, "serialpos": 2, "trial_type": "single-audio", "trial_index": 199, "time_elapsed": 1067982, "internal_node_id": "0.0-145.0"}}, {"uniqueid": "MTK0961:30BUDKLTXE2221M7EB4VYFI0D1BE5D", "current_trial": 200, "dateTime": 1512939491517, "trialdata": {"rt": -1000, "stimulus": "/static/audio/wordpool/SCALLOP.wav", "key_press": -1, "type": "PRES_AUD", "word": "scallop", "wordID": 1241, "conditions": [24, 800, "a", 24000], "trial": 5, "serialpos": 3, "trial_type": "single-audio", "trial_index": 200, "time_elapsed": 1069642, "internal_node_id": "0.0-146.0"}}, {"uniqueid": "MTK0961:30BUDKLTXE2221M7EB4VYFI0D1BE5D", "current_trial": 201, "dateTime": 1512939493273, "trialdata": {"rt": -1000, "stimulus": "/static/audio/wordpool/SEAFOOD.wav", "key_press": -1, "type": "PRES_AUD", "word": "seafood", "wordID": 1259, "conditions": [24, 800, "a", 24000], "trial": 5, "serialpos": 4, "trial_type": "single-audio", "trial_index": 201, "time_elapsed": 1071398, "internal_node_id": "0.0-147.0"}}, {"uniqueid": "MTK0961:30BUDKLTXE2221M7EB4VYFI0D1BE5D", "current_trial": 202, "dateTime": 1512939495004, "trialdata": {"rt": -1000, "stimulus": "/static/audio/wordpool/COD.wav", "key_press": -1, "type": "PRES_AUD", "word": "cod", "wordID": 339, "conditions": [24, 800, "a", 24000], "trial": 5, "serialpos": 5, "trial_type": "single-audio", "trial_index": 202, "time_elapsed": 1073129, "internal_node_id": "0.0-148.0"}}, {"uniqueid": "MTK0961:30BUDKLTXE2221M7EB4VYFI0D1BE5D", "current_trial": 203, "dateTime": 1512939496790, "trialdata": {"rt": -1000, "stimulus": "/static/audio/wordpool/ANKLE.wav", "key_press": -1, "type": "PRES_AUD", "word": "ankle", "wordID": 23, "conditions": [24, 800, "a", 24000], "trial": 5, "serialpos": 6, "trial_type": "single-audio", "trial_index": 203, "time_elapsed": 1074915, "internal_node_id": "0.0-149.0"}}, {"uniqueid": "MTK0961:30BUDKLTXE2221M7EB4VYFI0D1BE5D", "current_trial": 204, "dateTime": 1512939498517, "trialdata": {"rt": -1000, "stimulus": "/static/audio/wordpool/EUROPE.wav", "key_press": -1, "type": "PRES_AUD", "word": "europe", "wordID": 540, "conditions": [24, 800, "a", 24000], "trial": 5, "serialpos": 7, "trial_type": "single-audio", "trial_index": 204, "time_elapsed": 1076642, "internal_node_id": "0.0-150.0"}}, {"uniqueid": "MTK0961:30BUDKLTXE2221M7EB4VYFI0D1BE5D", "current_trial": 205, "dateTime": 1512939500430, "trialdata": {"rt": -1000, "stimulus": "/static/audio/wordpool/XEROX.wav", "key_press": -1, "type": "PRES_AUD", "word": "xerox", "wordID": 1627, "conditions": [24, 800, "a", 24000], "trial": 5, "serialpos": 8, "trial_type": "single-audio", "trial_index": 205, "time_elapsed": 1078554, "internal_node_id": "0.0-151.0"}}, {"uniqueid": "MTK0961:30BUDKLTXE2221M7EB4VYFI0D1BE5D", "current_trial": 206, "dateTime": 1512939502316, "trialdata": {"rt": -1000, "stimulus": "/static/audio/wordpool/MARSH.wav", "key_press": -1, "type": "PRES_AUD", "word": "marsh", "wordID": 873, "conditions": [24, 800, "a", 24000], "trial": 5, "serialpos": 9, "trial_type": "single-audio", "trial_index": 206, "time_elapsed": 1080441, "internal_node_id": "0.0-152.0"}}, {"uniqueid": "MTK0961:30BUDKLTXE2221M7EB4VYFI0D1BE5D", "current_trial": 207, "dateTime": 1512939504019, "trialdata": {"rt": -1000, "stimulus": "/static/audio/wordpool/CASHIER.wav", "key_press": -1, "type": "PRES_AUD", "word": "cashier", "wordID": 253, "conditions": [24, 800, "a", 24000], "trial": 5, "serialpos": 10, "trial_type": "single-audio", "trial_index": 207, "time_elapsed": 1082144, "internal_node_id": "0.0-153.0"}}, {"uniqueid": "MTK0961:30BUDKLTXE2221M7EB4VYFI0D1BE5D", "current_trial": 208, "dateTime": 1512939505999, "trialdata": {"rt": -1000, "stimulus": "/static/audio/wordpool/SHELF.wav", "key_press": -1, "type": "PRES_AUD", "word": "shelf", "wordID": 1279, "conditions": [24, 800, "a", 24000], "trial": 5, "serialpos": 11, "trial_type": "single-audio", "trial_index": 208, "time_elapsed": 1084124, "internal_node_id": "0.0-154.0"}}, {"uniqueid": "MTK0961:30BUDKLTXE2221M7EB4VYFI0D1BE5D", "current_trial": 209, "dateTime": 1512939507902, "trialdata": {"rt": -1000, "stimulus": "/static/audio/wordpool/ROBBER.wav", "key_press": -1, "type": "PRES_AUD", "word": "robber", "wordID": 1196, "conditions": [24, 800, "a", 24000], "trial": 5, "serialpos": 12, "trial_type": "single-audio", "trial_index": 209, "time_elapsed": 1086018, "internal_node_id": "0.0-155.0"}}, {"uniqueid": "MTK0961:30BUDKLTXE2221M7EB4VYFI0D1BE5D", "current_trial": 210, "dateTime": 1512939509796, "trialdata": {"rt": -1000, "stimulus": "/static/audio/wordpool/DUST.wav", "key_press": -1, "type": "PRES_AUD", "word": "dust", "wordID": 507, "conditions": [24, 800, "a", 24000], "trial": 5, "serialpos": 13, "trial_type": "single-audio", "trial_index": 210, "time_elapsed": 1087921, "internal_node_id": "0.0-156.0"}}, {"uniqueid": "MTK0961:30BUDKLTXE2221M7EB4VYFI0D1BE5D", "current_trial": 211, "dateTime": 1512939511406, "trialdata": {"rt": -1000, "stimulus": "/static/audio/wordpool/CANYON.wav", "key_press": -1, "type": "PRES_AUD", "word": "canyon", "wordID": 234, "conditions": [24, 800, "a", 24000], "trial": 5, "serialpos": 14, "trial_type": "single-audio", "trial_index": 211, "time_elapsed": 1089531, "internal_node_id": "0.0-157.0"}}, {"uniqueid": "MTK0961:30BUDKLTXE2221M7EB4VYFI0D1BE5D", "current_trial": 212, "dateTime": 1512939513376, "trialdata": {"rt": -1000, "stimulus": "/static/audio/wordpool/SHOULDER.wav", "key_press": -1, "type": "PRES_AUD", "word": "shoulder", "wordID": 1293, "conditions": [24, 800, "a", 24000], "trial": 5, "serialpos": 15, "trial_type": "single-audio", "trial_index": 212, "time_elapsed": 1091501, "internal_node_id": "0.0-158.0"}}, {"uniqueid": "MTK0961:30BUDKLTXE2221M7EB4VYFI0D1BE5D", "current_trial": 213, "dateTime": 1512939515121, "trialdata": {"rt": -1000, "stimulus": "/static/audio/wordpool/WRIST.wav", "key_press": -1, "type": "PRES_AUD", "word": "wrist", "wordID": 1625, "conditions": [24, 800, "a", 24000], "trial": 5, "serialpos": 16, "trial_type": "single-audio", "trial_index": 213, "time_elapsed": 1093246, "internal_node_id": "0.0-159.0"}}, {"uniqueid": "MTK0961:30BUDKLTXE2221M7EB4VYFI0D1BE5D", "current_trial": 214, "dateTime": 1512939516874, "trialdata": {"rt": -1000, "stimulus": "/static/audio/wordpool/STONE.wav", "key_press": -1, "type": "PRES_AUD", "word": "stone", "wordID": 1384, "conditions": [24, 800, "a", 24000], "trial": 5, "serialpos": 17, "trial_type": "single-audio", "trial_index": 214, "time_elapsed": 1094999, "internal_node_id": "0.0-160.0"}}, {"uniqueid": "MTK0961:30BUDKLTXE2221M7EB4VYFI0D1BE5D", "current_trial": 215, "dateTime": 1512939518510, "trialdata": {"rt": -1000, "stimulus": "/static/audio/wordpool/ICEBERG.wav", "key_press": -1, "type": "PRES_AUD", "word": "iceberg", "wordID": 730, "conditions": [24, 800, "a", 24000], "trial": 5, "serialpos": 18, "trial_type": "single-audio", "trial_index": 215, "time_elapsed": 1096635, "internal_node_id": "0.0-161.0"}}, {"uniqueid": "MTK0961:30BUDKLTXE2221M7EB4VYFI0D1BE5D", "current_trial": 216, "dateTime": 1512939520377, "trialdata": {"rt": -1000, "stimulus": "/static/audio/wordpool/THIEF.wav", "key_press": -1, "type": "PRES_AUD", "word": "thief", "wordID": 1455, "conditions": [24, 800, "a", 24000], "trial": 5, "serialpos": 19, "trial_type": "single-audio", "trial_index": 216, "time_elapsed": 1098502, "internal_node_id": "0.0-162.0"}}, {"uniqueid": "MTK0961:30BUDKLTXE2221M7EB4VYFI0D1BE5D", "current_trial": 217, "dateTime": 1512939522181, "trialdata": {"rt": -1000, "stimulus": "/static/audio/wordpool/LION.wav", "key_press": -1, "type": "PRES_AUD", "word": "lion", "wordID": 826, "conditions": [24, 800, "a", 24000], "trial": 5, "serialpos": 20, "trial_type": "single-audio", "trial_index": 217, "time_elapsed": 1100306, "internal_node_id": "0.0-163.0"}}, {"uniqueid": "MTK0961:30BUDKLTXE2221M7EB4VYFI0D1BE5D", "current_trial": 218, "dateTime": 1512939524157, "trialdata": {"rt": -1000, "stimulus": "/static/audio/wordpool/BRIEFCASE.wav", "key_press": -1, "type": "PRES_AUD", "word": "briefcase", "wordID": 174, "conditions": [24, 800, "a", 24000], "trial": 5, "serialpos": 21, "trial_type": "single-audio", "trial_index": 218, "time_elapsed": 1102281, "internal_node_id": "0.0-164.0"}}, {"uniqueid": "MTK0961:30BUDKLTXE2221M7EB4VYFI0D1BE5D", "current_trial": 219, "dateTime": 1512939525827, "trialdata": {"rt": -1000, "stimulus": "/static/audio/wordpool/CLOTHES.wav", "key_press": -1, "type": "PRES_AUD", "word": "clothes", "wordID": 326, "conditions": [24, 800, "a", 24000], "trial": 5, "serialpos": 22, "trial_type": "single-audio", "trial_index": 219, "time_elapsed": 1103952, "internal_node_id": "0.0-165.0"}}, {"uniqueid": "MTK0961:30BUDKLTXE2221M7EB4VYFI0D1BE5D", "current_trial": 220, "dateTime": 1512939527514, "trialdata": {"rt": -1000, "stimulus": "/static/audio/wordpool/PLIERS.wav", "key_press": -1, "type": "PRES_AUD", "word": "pliers", "wordID": 1088, "conditions": [24, 800, "a", 24000], "trial": 5, "serialpos": 23, "trial_type": "single-audio", "trial_index": 220, "time_elapsed": 1105638, "internal_node_id": "0.0-166.0"}}, {"uniqueid": "MTK0961:30BUDKLTXE2221M7EB4VYFI0D1BE5D", "current_trial": 221, "dateTime": 1512939528915, "trialdata": {"rt": -1, "stimulus": "", "key_press": -1, "type": "PRE_RECALL_DELAY", "trial_type": "single-stim", "trial_index": 221, "time_elapsed": 1107040, "internal_node_id": "0.0-167.0-0.0"}}, {"uniqueid": "MTK0961:30BUDKLTXE2221M7EB4VYFI0D1BE5D", "current_trial": 222, "dateTime": 1512939529418, "trialdata": {"rt": -1000, "stimulus": "/static/audio/400Hz.wav", "key_press": -1, "type": "PRE_RECALL_ALERT", "trial_type": "single-audio", "trial_index": 222, "time_elapsed": 1107542, "internal_node_id": "0.0-168.0"}}, {"uniqueid": "MTK0961:30BUDKLTXE2221M7EB4VYFI0D1BE5D", "current_trial": 223, "dateTime": 1512939589438, "trialdata": {"rt": [3507, 5490, 7871, 13749, 17396, 23055, 28564, 31443, 52422], "recwords": ["brif", "case", "lion", "shelf", "shoulder", "breast", "gift", "dust", ""], "type": "FREE_RECALL", "conditions": [24, 800, "a", 24000], "trial": 5, "trial_type": "free-recall", "trial_index": 223, "time_elapsed": 1167556, "internal_node_id": "0.0-169.0-0.0"}}, {"uniqueid": "MTK0961:30BUDKLTXE2221M7EB4VYFI0D1BE5D", "current_trial": 224, "dateTime": 1512939591814, "trialdata": {"rt": 375, "key_press": 68, "type": "INSTRUCTIONS", "trial_type": "text", "trial_index": 224, "time_elapsed": 1169939, "internal_node_id": "0.0-170.0"}}, {"uniqueid": "MTK0961:30BUDKLTXE2221M7EB4VYFI0D1BE5D", "current_trial": 225, "dateTime": 1512939617821, "trialdata": {"rt": [3604, 10359, 13817, 16915, 20612, 23611], "responses": ["20", "22  ", "8", "11", "16", "17"], "num1": [4, 9, 3, 4, 4, 6, 2], "num2": [8, 5, 4, 2, 4, 8, 2], "num3": [8, 8, 1, 5, 8, 3, 2], "type": "DISTRACTOR", "conditions": [12, 800, "v", 24000], "trial": 6, "trial_type": "math-distractor", "trial_index": 225, "time_elapsed": 1195946, "internal_node_id": "0.0-171.0"}}, {"uniqueid": "MTK0961:30BUDKLTXE2221M7EB4VYFI0D1BE5D", "current_trial": 226, "dateTime": 1512939620824, "trialdata": {"rt": -1, "stimulus": "<p id=\"stim\">10</p>", "key_press": -1, "trial_type": "single-stim", "trial_index": 226, "time_elapsed": 1198949, "internal_node_id": "0.0-172.0-0.0"}}, {"uniqueid": "MTK0961:30BUDKLTXE2221M7EB4VYFI0D1BE5D", "current_trial": 227, "dateTime": 1512939621826, "trialdata": {"rt": -1, "stimulus": "<p id=\"stim\">9</p>", "key_press": -1, "trial_type": "single-stim", "trial_index": 227, "time_elapsed": 1199951, "internal_node_id": "0.0-172.0-1.0"}}, {"uniqueid": "MTK0961:30BUDKLTXE2221M7EB4VYFI0D1BE5D", "current_trial": 228, "dateTime": 1512939622828, "trialdata": {"rt": -1, "stimulus": "<p id=\"stim\">8</p>", "key_press": -1, "trial_type": "single-stim", "trial_index": 228, "time_elapsed": 1200953, "internal_node_id": "0.0-172.0-2.0"}}, {"uniqueid": "MTK0961:30BUDKLTXE2221M7EB4VYFI0D1BE5D", "current_trial": 229, "dateTime": 1512939623830, "trialdata": {"rt": -1, "stimulus": "<p id=\"stim\">7</p>", "key_press": -1, "trial_type": "single-stim", "trial_index": 229, "time_elapsed": 1201955, "internal_node_id": "0.0-172.0-3.0"}}, {"uniqueid": "MTK0961:30BUDKLTXE2221M7EB4VYFI0D1BE5D", "current_trial": 230, "dateTime": 1512939624832, "trialdata": {"rt": -1, "stimulus": "<p id=\"stim\">6</p>", "key_press": -1, "trial_type": "single-stim", "trial_index": 230, "time_elapsed": 1202957, "internal_node_id": "0.0-172.0-4.0"}}, {"uniqueid": "MTK0961:30BUDKLTXE2221M7EB4VYFI0D1BE5D", "current_trial": 231, "dateTime": 1512939625834, "trialdata": {"rt": -1, "stimulus": "<p id=\"stim\">5</p>", "key_press": -1, "trial_type": "single-stim", "trial_index": 231, "time_elapsed": 1203959, "internal_node_id": "0.0-172.0-5.0"}}, {"uniqueid": "MTK0961:30BUDKLTXE2221M7EB4VYFI0D1BE5D", "current_trial": 232, "dateTime": 1512939626836, "trialdata": {"rt": -1, "stimulus": "<p id=\"stim\">4</p>", "key_press": -1, "trial_type": "single-stim", "trial_index": 232, "time_elapsed": 1204961, "internal_node_id": "0.0-172.0-6.0"}}, {"uniqueid": "MTK0961:30BUDKLTXE2221M7EB4VYFI0D1BE5D", "current_trial": 233, "dateTime": 1512939627838, "trialdata": {"rt": -1, "stimulus": "<p id=\"stim\">3</p>", "key_press": -1, "trial_type": "single-stim", "trial_index": 233, "time_elapsed": 1205963, "internal_node_id": "0.0-172.0-7.0"}}, {"uniqueid": "MTK0961:30BUDKLTXE2221M7EB4VYFI0D1BE5D", "current_trial": 234, "dateTime": 1512939628840, "trialdata": {"rt": -1, "stimulus": "<p id=\"stim\">2</p>", "key_press": -1, "trial_type": "single-stim", "trial_index": 234, "time_elapsed": 1206965, "internal_node_id": "0.0-172.0-8.0"}}, {"uniqueid": "MTK0961:30BUDKLTXE2221M7EB4VYFI0D1BE5D", "current_trial": 235, "dateTime": 1512939629842, "trialdata": {"rt": -1, "stimulus": "<p id=\"stim\">1</p>", "key_press": -1, "trial_type": "single-stim", "trial_index": 235, "time_elapsed": 1207967, "internal_node_id": "0.0-172.0-9.0"}}, {"uniqueid": "MTK0961:30BUDKLTXE2221M7EB4VYFI0D1BE5D", "current_trial": 236, "dateTime": 1512939631344, "trialdata": {"rt": -1, "stimulus": "<p id=\"stim\">+</p>", "key_press": -1, "type": "FIXATION", "trial_type": "single-stim", "trial_index": 236, "time_elapsed": 1209469, "internal_node_id": "0.0-173.0-0.0"}}, {"uniqueid": "MTK0961:30BUDKLTXE2221M7EB4VYFI0D1BE5D", "current_trial": 237, "dateTime": 1512939632146, "trialdata": {"rt": -1, "stimulus": "<p id=\"stim\">IGLOO</p>", "key_press": -1, "type": "PRES_VIS", "word": "igloo", "wordID": 733, "conditions": [12, 800, "v", 24000], "trial": 6, "serialpos": 0, "trial_type": "single-stim", "trial_index": 237, "time_elapsed": 1210271, "internal_node_id": "0.0-174.0"}}, {"uniqueid": "MTK0961:30BUDKLTXE2221M7EB4VYFI0D1BE5D", "current_trial": 238, "dateTime": 1512939634004, "trialdata": {"rt": -1, "stimulus": "<p id=\"stim\">JELLO</p>", "key_press": -1, "type": "PRES_VIS", "word": "jello", "wordID": 753, "conditions": [12, 800, "v", 24000], "trial": 6, "serialpos": 1, "trial_type": "single-stim", "trial_index": 238, "time_elapsed": 1212129, "internal_node_id": "0.0-175.0"}}, {"uniqueid": "MTK0961:30BUDKLTXE2221M7EB4VYFI0D1BE5D", "current_trial": 239, "dateTime": 1512939635714, "trialdata": {"rt": -1, "stimulus": "<p id=\"stim\">RATTLE</p>", "key_press": -1, "type": "PRES_VIS", "word": "rattle", "wordID": 1169, "conditions": [12, 800, "v", 24000], "trial": 6, "serialpos": 2, "trial_type": "single-stim", "trial_index": 239, "time_elapsed": 1213839, "internal_node_id": "0.0-176.0"}}, {"uniqueid": "MTK0961:30BUDKLTXE2221M7EB4VYFI0D1BE5D", "current_trial": 240, "dateTime": 1512939637588, "trialdata": {"rt": -1, "stimulus": "<p id=\"stim\">YARN</p>", "key_press": -1, "type": "PRES_VIS", "word": "yarn", "wordID": 1630, "conditions": [12, 800, "v", 24000], "trial": 6, "serialpos": 3, "trial_type": "single-stim", "trial_index": 240, "time_elapsed": 1215713, "internal_node_id": "0.0-177.0"}}, {"uniqueid": "MTK0961:30BUDKLTXE2221M7EB4VYFI0D1BE5D", "current_trial": 241, "dateTime": 1512939639301, "trialdata": {"rt": -1, "stimulus": "<p id=\"stim\">PERCH</p>", "key_press": -1, "type": "PRES_VIS", "word": "perch", "wordID": 1047, "conditions": [12, 800, "v", 24000], "trial": 6, "serialpos": 4, "trial_type": "single-stim", "trial_index": 241, "time_elapsed": 1217426, "internal_node_id": "0.0-178.0"}}, {"uniqueid": "MTK0961:30BUDKLTXE2221M7EB4VYFI0D1BE5D", "current_trial": 242, "dateTime": 1512939641201, "trialdata": {"rt": -1, "stimulus": "<p id=\"stim\">CLIMBER</p>", "key_press": -1, "type": "PRES_VIS", "word": "climber", "wordID": 322, "conditions": [12, 800, "v", 24000], "trial": 6, "serialpos": 5, "trial_type": "single-stim", "trial_index": 242, "time_elapsed": 1219326, "internal_node_id": "0.0-179.0"}}, {"uniqueid": "MTK0961:30BUDKLTXE2221M7EB4VYFI0D1BE5D", "current_trial": 243, "dateTime": 1512939643153, "trialdata": {"rt": -1, "stimulus": "<p id=\"stim\">MILK</p>", "key_press": -1, "type": "PRES_VIS", "word": "milk", "wordID": 894, "conditions": [12, 800, "v", 24000], "trial": 6, "serialpos": 6, "trial_type": "single-stim", "trial_index": 243, "time_elapsed": 1221278, "internal_node_id": "0.0-180.0"}}, {"uniqueid": "MTK0961:30BUDKLTXE2221M7EB4VYFI0D1BE5D", "current_trial": 244, "dateTime": 1512939645024, "trialdata": {"rt": -1, "stimulus": "<p id=\"stim\">CARROT</p>", "key_press": -1, "type": "PRES_VIS", "word": "carrot", "wordID": 248, "conditions": [12, 800, "v", 24000], "trial": 6, "serialpos": 7, "trial_type": "single-stim", "trial_index": 244, "time_elapsed": 1223149, "internal_node_id": "0.0-181.0"}}, {"uniqueid": "MTK0961:30BUDKLTXE2221M7EB4VYFI0D1BE5D", "current_trial": 245, "dateTime": 1512939647011, "trialdata": {"rt": -1, "stimulus": "<p id=\"stim\">LOFT</p>", "key_press": -1, "type": "PRES_VIS", "word": "loft", "wordID": 839, "conditions": [12, 800, "v", 24000], "trial": 6, "serialpos": 8, "trial_type": "single-stim", "trial_index": 245, "time_elapsed": 1225136, "internal_node_id": "0.0-182.0"}}, {"uniqueid": "MTK0961:30BUDKLTXE2221M7EB4VYFI0D1BE5D", "current_trial": 246, "dateTime": 1512939648743, "trialdata": {"rt": -1, "stimulus": "<p id=\"stim\">HIKER</p>", "key_press": -1, "type": "PRES_VIS", "word": "hiker", "wordID": 707, "conditions": [12, 800, "v", 24000], "trial": 6, "serialpos": 9, "trial_type": "single-stim", "trial_index": 246, "time_elapsed": 1226868, "internal_node_id": "0.0-183.0"}}, {"uniqueid": "MTK0961:30BUDKLTXE2221M7EB4VYFI0D1BE5D", "current_trial": 247, "dateTime": 1512939650515, "trialdata": {"rt": -1, "stimulus": "<p id=\"stim\">APPLE</p>", "key_press": -1, "type": "PRES_VIS", "word": "apple", "wordID": 32, "conditions": [12, 800, "v", 24000], "trial": 6, "serialpos": 10, "trial_type": "single-stim", "trial_index": 247, "time_elapsed": 1228640, "internal_node_id": "0.0-184.0"}}, {"uniqueid": "MTK0961:30BUDKLTXE2221M7EB4VYFI0D1BE5D", "current_trial": 248, "dateTime": 1512939652342, "trialdata": {"rt": -1, "stimulus": "<p id=\"stim\">GRAPE</p>", "key_press": -1, "type": "PRES_VIS", "word": "grape", "wordID": 653, "conditions": [12, 800, "v", 24000], "trial": 6, "serialpos": 11, "trial_type": "single-stim", "trial_index": 248, "time_elapsed": 1230467, "internal_node_id": "0.0-185.0"}}, {"uniqueid": "MTK0961:30BUDKLTXE2221M7EB4VYFI0D1BE5D", "current_trial": 249, "dateTime": 1512939654654, "trialdata": {"rt": -1, "stimulus": "", "key_press": -1, "type": "PRE_RECALL_DELAY", "trial_type": "single-stim", "trial_index": 249, "time_elapsed": 1232779, "internal_node_id": "0.0-186.0-0.0"}}, {"uniqueid": "MTK0961:30BUDKLTXE2221M7EB4VYFI0D1BE5D", "current_trial": 250, "dateTime": 1512939655157, "trialdata": {"rt": -1000, "stimulus": "/static/audio/400Hz.wav", "key_press": -1, "type": "PRE_RECALL_ALERT", "trial_type": "single-audio", "trial_index": 250, "time_elapsed": 1233282, "internal_node_id": "0.0-187.0"}}, {"uniqueid": "MTK0961:30BUDKLTXE2221M7EB4VYFI0D1BE5D", "current_trial": 251, "dateTime": 1512939715194, "trialdata": {"rt": [4217, 7106, 10195, 14968, 17938], "recwords": ["milk", "apple", "grape", "igloo", "carrot"], "type": "FREE_RECALL", "conditions": [12, 800, "v", 24000], "trial": 6, "trial_type": "free-recall", "trial_index": 251, "time_elapsed": 1293290, "internal_node_id": "0.0-188.0-0.0"}}, {"uniqueid": "MTK0961:30BUDKLTXE2221M7EB4VYFI0D1BE5D", "current_trial": 252, "dateTime": 1512939718784, "trialdata": {"rt": 1589, "key_press": 88, "type": "INSTRUCTIONS", "trial_type": "text", "trial_index": 252, "time_elapsed": 1296909, "internal_node_id": "0.0-189.0"}}, {"uniqueid": "MTK0961:30BUDKLTXE2221M7EB4VYFI0D1BE5D", "current_trial": 253, "dateTime": 1512939744791, "trialdata": {"rt": [5038, 8347, 13318, 15450, 17891, 21000], "responses": ["16 ", "15", "20", "11", "14", "15"], "num1": [6, 5, 9, 4, 5, 3, 2], "num2": [9, 9, 5, 6, 5, 6, 9], "num3": [1, 1, 6, 1, 4, 6, 7], "type": "DISTRACTOR", "conditions": [24, 1600, "v", 24000], "trial": 7, "trial_type": "math-distractor", "trial_index": 253, "time_elapsed": 1322916, "internal_node_id": "0.0-190.0"}}, {"uniqueid": "MTK0961:30BUDKLTXE2221M7EB4VYFI0D1BE5D", "current_trial": 254, "dateTime": 1512939747794, "trialdata": {"rt": -1, "stimulus": "<p id=\"stim\">10</p>", "key_press": -1, "trial_type": "single-stim", "trial_index": 254, "time_elapsed": 1325919, "internal_node_id": "0.0-191.0-0.0"}}, {"uniqueid": "MTK0961:30BUDKLTXE2221M7EB4VYFI0D1BE5D", "current_trial": 255, "dateTime": 1512939748796, "trialdata": {"rt": -1, "stimulus": "<p id=\"stim\">9</p>", "key_press": -1, "trial_type": "single-stim", "trial_index": 255, "time_elapsed": 1326921, "internal_node_id": "0.0-191.0-1.0"}}, {"uniqueid": "MTK0961:30BUDKLTXE2221M7EB4VYFI0D1BE5D", "current_trial": 256, "dateTime": 1512939749798, "trialdata": {"rt": -1, "stimulus": "<p id=\"stim\">8</p>", "key_press": -1, "trial_type": "single-stim", "trial_index": 256, "time_elapsed": 1327923, "internal_node_id": "0.0-191.0-2.0"}}, {"uniqueid": "MTK0961:30BUDKLTXE2221M7EB4VYFI0D1BE5D", "current_trial": 257, "dateTime": 1512939750800, "trialdata": {"rt": -1, "stimulus": "<p id=\"stim\">7</p>", "key_press": -1, "trial_type": "single-stim", "trial_index": 257, "time_elapsed": 1328925, "internal_node_id": "0.0-191.0-3.0"}}, {"uniqueid": "MTK0961:30BUDKLTXE2221M7EB4VYFI0D1BE5D", "current_trial": 258, "dateTime": 1512939751802, "trialdata": {"rt": -1, "stimulus": "<p id=\"stim\">6</p>", "key_press": -1, "trial_type": "single-stim", "trial_index": 258, "time_elapsed": 1329927, "internal_node_id": "0.0-191.0-4.0"}}, {"uniqueid": "MTK0961:30BUDKLTXE2221M7EB4VYFI0D1BE5D", "current_trial": 259, "dateTime": 1512939752804, "trialdata": {"rt": -1, "stimulus": "<p id=\"stim\">5</p>", "key_press": -1, "trial_type": "single-stim", "trial_index": 259, "time_elapsed": 1330929, "internal_node_id": "0.0-191.0-5.0"}}, {"uniqueid": "MTK0961:30BUDKLTXE2221M7EB4VYFI0D1BE5D", "current_trial": 260, "dateTime": 1512939753806, "trialdata": {"rt": -1, "stimulus": "<p id=\"stim\">4</p>", "key_press": -1, "trial_type": "single-stim", "trial_index": 260, "time_elapsed": 1331931, "internal_node_id": "0.0-191.0-6.0"}}, {"uniqueid": "MTK0961:30BUDKLTXE2221M7EB4VYFI0D1BE5D", "current_trial": 261, "dateTime": 1512939754808, "trialdata": {"rt": -1, "stimulus": "<p id=\"stim\">3</p>", "key_press": -1, "trial_type": "single-stim", "trial_index": 261, "time_elapsed": 1332933, "internal_node_id": "0.0-191.0-7.0"}}, {"uniqueid": "MTK0961:30BUDKLTXE2221M7EB4VYFI0D1BE5D", "current_trial": 262, "dateTime": 1512939755810, "trialdata": {"rt": -1, "stimulus": "<p id=\"stim\">2</p>", "key_press": -1, "trial_type": "single-stim", "trial_index": 262, "time_elapsed": 1333935, "internal_node_id": "0.0-191.0-8.0"}}, {"uniqueid": "MTK0961:30BUDKLTXE2221M7EB4VYFI0D1BE5D", "current_trial": 263, "dateTime": 1512939756812, "trialdata": {"rt": -1, "stimulus": "<p id=\"stim\">1</p>", "key_press": -1, "trial_type": "single-stim", "trial_index": 263, "time_elapsed": 1334937, "internal_node_id": "0.0-191.0-9.0"}}, {"uniqueid": "MTK0961:30BUDKLTXE2221M7EB4VYFI0D1BE5D", "current_trial": 264, "dateTime": 1512939758317, "trialdata": {"rt": -1, "stimulus": "<p id=\"stim\">+</p>", "key_press": -1, "type": "FIXATION", "trial_type": "single-stim", "trial_index": 264, "time_elapsed": 1336442, "internal_node_id": "0.0-192.0-0.0"}}, {"uniqueid": "MTK0961:30BUDKLTXE2221M7EB4VYFI0D1BE5D", "current_trial": 265, "dateTime": 1512939759919, "trialdata": {"rt": -1, "stimulus": "<p id=\"stim\">SADDLE</p>", "key_press": -1, "type": "PRES_VIS", "word": "saddle", "wordID": 1220, "conditions": [24, 1600, "v", 24000], "trial": 7, "serialpos": 0, "trial_type": "single-stim", "trial_index": 265, "time_elapsed": 1338044, "internal_node_id": "0.0-193.0"}}, {"uniqueid": "MTK0961:30BUDKLTXE2221M7EB4VYFI0D1BE5D", "current_trial": 266, "dateTime": 1512939762695, "trialdata": {"rt": -1, "stimulus": "<p id=\"stim\">BACON</p>", "key_press": -1, "type": "PRES_VIS", "word": "bacon", "wordID": 66, "conditions": [24, 1600, "v", 24000], "trial": 7, "serialpos": 1, "trial_type": "single-stim", "trial_index": 266, "time_elapsed": 1340820, "internal_node_id": "0.0-194.0"}}, {"uniqueid": "MTK0961:30BUDKLTXE2221M7EB4VYFI0D1BE5D", "current_trial": 267, "dateTime": 1512939765202, "trialdata": {"rt": -1, "stimulus": "<p id=\"stim\">TURKEY</p>", "key_press": -1, "type": "PRES_VIS", "word": "turkey", "wordID": 1519, "conditions": [24, 1600, "v", 24000], "trial": 7, "serialpos": 2, "trial_type": "single-stim", "trial_index": 267, "time_elapsed": 1343327, "internal_node_id": "0.0-195.0"}}, {"uniqueid": "MTK0961:30BUDKLTXE2221M7EB4VYFI0D1BE5D", "current_trial": 268, "dateTime": 1512939767913, "trialdata": {"rt": -1, "stimulus": "<p id=\"stim\">PIMPLE</p>", "key_press": -1, "type": "PRES_VIS", "word": "pimple", "wordID": 1070, "conditions": [24, 1600, "v", 24000], "trial": 7, "serialpos": 3, "trial_type": "single-stim", "trial_index": 268, "time_elapsed": 1346038, "internal_node_id": "0.0-196.0"}}, {"uniqueid": "MTK0961:30BUDKLTXE2221M7EB4VYFI0D1BE5D", "current_trial": 269, "dateTime": 1512939770619, "trialdata": {"rt": -1, "stimulus": "<p id=\"stim\">DOLPHIN</p>", "key_press": -1, "type": "PRES_VIS", "word": "dolphin", "wordID": 482, "conditions": [24, 1600, "v", 24000], "trial": 7, "serialpos": 4, "trial_type": "single-stim", "trial_index": 269, "time_elapsed": 1348744, "internal_node_id": "0.0-197.0"}}, {"uniqueid": "MTK0961:30BUDKLTXE2221M7EB4VYFI0D1BE5D", "current_trial": 270, "dateTime": 1512939773380, "trialdata": {"rt": -1, "stimulus": "<p id=\"stim\">STALLION</p>", "key_press": -1, "type": "PRES_VIS", "word": "stallion", "wordID": 1368, "conditions": [24, 1600, "v", 24000], "trial": 7, "serialpos": 5, "trial_type": "single-stim", "trial_index": 270, "time_elapsed": 1351505, "internal_node_id": "0.0-198.0"}}, {"uniqueid": "MTK0961:30BUDKLTXE2221M7EB4VYFI0D1BE5D", "current_trial": 271, "dateTime": 1512939775859, "trialdata": {"rt": -1, "stimulus": "<p id=\"stim\">CHAPEL</p>", "key_press": -1, "type": "PRES_VIS", "word": "chapel", "wordID": 279, "conditions": [24, 1600, "v", 24000], "trial": 7, "serialpos": 6, "trial_type": "single-stim", "trial_index": 271, "time_elapsed": 1353984, "internal_node_id": "0.0-199.0"}}, {"uniqueid": "MTK0961:30BUDKLTXE2221M7EB4VYFI0D1BE5D", "current_trial": 272, "dateTime": 1512939778483, "trialdata": {"rt": -1, "stimulus": "<p id=\"stim\">PARSLEY</p>", "key_press": -1, "type": "PRES_VIS", "word": "parsley", "wordID": 1015, "conditions": [24, 1600, "v", 24000], "trial": 7, "serialpos": 7, "trial_type": "single-stim", "trial_index": 272, "time_elapsed": 1356607, "internal_node_id": "0.0-200.0"}}, {"uniqueid": "MTK0961:30BUDKLTXE2221M7E