{"condition": 0, "counterbalance": 407, "assignmentId": "3TUI152ZZCUSBMBTMFXJP6UXG43Q1K", "workerId": "MTK0195", "hitId": "38VTL6WC4AKYLM54OABNGYEWE4Q5YJ", "currenttrial": 625, "bonus": 0, "data": [{"uniqueid": "MTK0195:3TUI152ZZCUSBMBTMFXJP6UXG43Q1K", "current_trial": 0, "dateTime": 1509490605135, "trialdata": {"rt": 2597, "key_press": 32, "type": "INSTRUCTIONS", "trial_type": "text", "trial_index": 0, "time_elapsed": 2601, "internal_node_id": "0.0-0.0"}}, {"uniqueid": "MTK0195:3TUI152ZZCUSBMBTMFXJP6UXG43Q1K", "current_trial": 1, "dateTime": 1509490622293, "trialdata": {"rt": 17155, "key_press": 32, "type": "INSTRUCTIONS", "trial_type": "text", "trial_index": 1, "time_elapsed": 19759, "internal_node_id": "0.0-1.0"}}, {"uniqueid": "MTK0195:3TUI152ZZCUSBMBTMFXJP6UXG43Q1K", "current_trial": 2, "dateTime": 1509490637347, "trialdata": {"rt": [15036], "responses": ["ocean"], "type": "AUDIO_TEST", "trial_type": "audio-test", "trial_index": 2, "time_elapsed": 34814, "internal_node_id": "0.0-2.0"}}, {"uniqueid": "MTK0195:3TUI152ZZCUSBMBTMFXJP6UXG43Q1K", "current_trial": 3, "dateTime": 1509490642851, "trialdata": {"rt": [5501], "responses": ["crystal"], "type": "AUDIO_TEST", "trial_type": "audio-test", "trial_index": 3, "time_elapsed": 40318, "internal_node_id": "0.0-3.0"}}, {"uniqueid": "MTK0195:3TUI152ZZCUSBMBTMFXJP6UXG43Q1K", "current_trial": 4, "dateTime": 1509490646756, "trialdata": {"rt": [3901], "responses": ["spice"], "type": "AUDIO_TEST", "trial_type": "audio-test", "trial_index": 4, "time_elapsed": 44223, "internal_node_id": "0.0-4.0"}}, {"uniqueid": "MTK0195:3TUI152ZZCUSBMBTMFXJP6UXG43Q1K", "current_trial": 5, "dateTime": 1509490650483, "trialdata": {"rt": 2975, "key_press": 32, "type": "INSTRUCTIONS", "trial_type": "text", "trial_index": 5, "time_elapsed": 47949, "internal_node_id": "0.0-5.0"}}, {"uniqueid": "MTK0195:3TUI152ZZCUSBMBTMFXJP6UXG43Q1K", "current_trial": 6, "dateTime": 1509490679787, "trialdata": {"rt": 29303, "key_press": 32, "type": "INSTRUCTIONS", "trial_type": "text", "trial_index": 6, "time_elapsed": 77254, "internal_node_id": "0.0-6.0"}}, {"uniqueid": "MTK0195:3TUI152ZZCUSBMBTMFXJP6UXG43Q1K", "current_trial": 7, "dateTime": 1509490687435, "trialdata": {"rt": 7647, "key_press": 32, "type": "INSTRUCTIONS", "trial_type": "text", "trial_index": 7, "time_elapsed": 84901, "internal_node_id": "0.0-7.0"}}, {"uniqueid": "MTK0195:3TUI152ZZCUSBMBTMFXJP6UXG43Q1K", "current_trial": 8, "dateTime": 1509490698579, "trialdata": {"rt": 11142, "key_press": 32, "type": "INSTRUCTIONS", "trial_type": "text", "trial_index": 8, "time_elapsed": 96045, "internal_node_id": "0.0-8.0"}}, {"uniqueid": "MTK0195:3TUI152ZZCUSBMBTMFXJP6UXG43Q1K", "current_trial": 9, "dateTime": 1509490717587, "trialdata": {"rt": [4089, 6529, 8080, 11512, 13625, 15345], "responses": ["11", "21", "17", "9", "14", "19"], "num1": [2, 8, 7, 3, 8, 7, 3], "num2": [2, 9, 9, 1, 1, 4, 8], "num3": [7, 4, 1, 5, 5, 8, 6], "type": "DISTRACTOR", "conditions": [18, 1200, "a", 18000], "trial": 0, "trial_type": "math-distractor", "trial_index": 9, "time_elapsed": 115054, "internal_node_id": "0.0-9.0"}}, {"uniqueid": "MTK0195:3TUI152ZZCUSBMBTMFXJP6UXG43Q1K", "current_trial": 10, "dateTime": 1509490720589, "trialdata": {"rt": -1, "stimulus": "<p id=\"stim\">10</p>", "key_press": -1, "trial_type": "single-stim", "trial_index": 10, "time_elapsed": 118056, "internal_node_id": "0.0-10.0-0.0"}}, {"uniqueid": "MTK0195:3TUI152ZZCUSBMBTMFXJP6UXG43Q1K", "current_trial": 11, "dateTime": 1509490721592, "trialdata": {"rt": -1, "stimulus": "<p id=\"stim\">9</p>", "key_press": -1, "trial_type": "single-stim", "trial_index": 11, "time_elapsed": 119058, "internal_node_id": "0.0-10.0-1.0"}}, {"uniqueid": "MTK0195:3TUI152ZZCUSBMBTMFXJP6UXG43Q1K", "current_trial": 12, "dateTime": 1509490722593, "trialdata": {"rt": -1, "stimulus": "<p id=\"stim\">8</p>", "key_press": -1, "trial_type": "single-stim", "trial_index": 12, "time_elapsed": 120060, "internal_node_id": "0.0-10.0-2.0"}}, {"uniqueid": "MTK0195:3TUI152ZZCUSBMBTMFXJP6UXG43Q1K", "current_trial": 13, "dateTime": 1509490723595, "trialdata": {"rt": -1, "stimulus": "<p id=\"stim\">7</p>", "key_press": -1, "trial_type": "single-stim", "trial_index": 13, "time_elapsed": 121062, "internal_node_id": "0.0-10.0-3.0"}}, {"uniqueid": "MTK0195:3TUI152ZZCUSBMBTMFXJP6UXG43Q1K", "current_trial": 14, "dateTime": 1509490724597, "trialdata": {"rt": -1, "stimulus": "<p id=\"stim\">6</p>", "key_press": -1, "trial_type": "single-stim", "trial_index": 14, "time_elapsed": 122064, "internal_node_id": "0.0-10.0-4.0"}}, {"uniqueid": "MTK0195:3TUI152ZZCUSBMBTMFXJP6UXG43Q1K", "current_trial": 15, "dateTime": 1509490725599, "trialdata": {"rt": -1, "stimulus": "<p id=\"stim\">5</p>", "key_press": -1, "trial_type": "single-stim", "trial_index": 15, "time_elapsed": 123065, "internal_node_id": "0.0-10.0-5.0"}}, {"uniqueid": "MTK0195:3TUI152ZZCUSBMBTMFXJP6UXG43Q1K", "current_trial": 16, "dateTime": 1509490726601, "trialdata": {"rt": -1, "stimulus": "<p id=\"stim\">4</p>", "key_press": -1, "trial_type": "single-stim", "trial_index": 16, "time_elapsed": 124067, "internal_node_id": "0.0-10.0-6.0"}}, {"uniqueid": "MTK0195:3TUI152ZZCUSBMBTMFXJP6UXG43Q1K", "current_trial": 17, "dateTime": 1509490727608, "trialdata": {"rt": -1, "stimulus": "<p id=\"stim\">3</p>", "key_press": -1, "trial_type": "single-stim", "trial_index": 17, "time_elapsed": 125075, "internal_node_id": "0.0-10.0-7.0"}}, {"uniqueid": "MTK0195:3TUI152ZZCUSBMBTMFXJP6UXG43Q1K", "current_trial": 18, "dateTime": 1509490728613, "trialdata": {"rt": -1, "stimulus": "<p id=\"stim\">2</p>", "key_press": -1, "trial_type": "single-stim", "trial_index": 18, "time_elapsed": 126080, "internal_node_id": "0.0-10.0-8.0"}}, {"uniqueid": "MTK0195:3TUI152ZZCUSBMBTMFXJP6UXG43Q1K", "current_trial": 19, "dateTime": 1509490729614, "trialdata": {"rt": -1, "stimulus": "<p id=\"stim\">1</p>", "key_press": -1, "trial_type": "single-stim", "trial_index": 19, "time_elapsed": 127081, "internal_node_id": "0.0-10.0-9.0"}}, {"uniqueid": "MTK0195:3TUI152ZZCUSBMBTMFXJP6UXG43Q1K", "current_trial": 20, "dateTime": 1509490731117, "trialdata": {"rt": -1, "stimulus": "<p id=\"stim\">+</p>", "key_press": -1, "type": "FIXATION", "trial_type": "single-stim", "trial_index": 20, "time_elapsed": 128584, "internal_node_id": "0.0-11.0-0.0"}}, {"uniqueid": "MTK0195:3TUI152ZZCUSBMBTMFXJP6UXG43Q1K", "current_trial": 21, "dateTime": 1509490733128, "trialdata": {"rt": -1000, "stimulus": "/static/audio/wordpool/SPHINX.wav", "key_press": -1, "type": "PRES_AUD", "word": "sphinx", "wordID": 1348, "conditions": [18, 1200, "a", 18000], "trial": 0, "serialpos": 0, "trial_type": "single-audio", "trial_index": 21, "time_elapsed": 130594, "internal_node_id": "0.0-12.0"}}, {"uniqueid": "MTK0195:3TUI152ZZCUSBMBTMFXJP6UXG43Q1K", "current_trial": 22, "dateTime": 1509490735165, "trialdata": {"rt": -1000, "stimulus": "/static/audio/wordpool/ROBIN.wav", "key_press": -1, "type": "PRES_AUD", "word": "robin", "wordID": 1198, "conditions": [18, 1200, "a", 18000], "trial": 0, "serialpos": 1, "trial_type": "single-audio", "trial_index": 22, "time_elapsed": 132632, "internal_node_id": "0.0-13.0"}}, {"uniqueid": "MTK0195:3TUI152ZZCUSBMBTMFXJP6UXG43Q1K", "current_trial": 23, "dateTime": 1509490737320, "trialdata": {"rt": -1000, "stimulus": "/static/audio/wordpool/PEBBLE.wav", "key_press": -1, "type": "PRES_AUD", "word": "pebble", "wordID": 1034, "conditions": [18, 1200, "a", 18000], "trial": 0, "serialpos": 2, "trial_type": "single-audio", "trial_index": 23, "time_elapsed": 134787, "internal_node_id": "0.0-14.0"}}, {"uniqueid": "MTK0195:3TUI152ZZCUSBMBTMFXJP6UXG43Q1K", "current_trial": 24, "dateTime": 1509490739503, "trialdata": {"rt": -1000, "stimulus": "/static/audio/wordpool/BINDER.wav", "key_press": -1, "type": "PRES_AUD", "word": "binder", "wordID": 126, "conditions": [18, 1200, "a", 18000], "trial": 0, "serialpos": 3, "trial_type": "single-audio", "trial_index": 24, "time_elapsed": 136970, "internal_node_id": "0.0-15.0"}}, {"uniqueid": "MTK0195:3TUI152ZZCUSBMBTMFXJP6UXG43Q1K", "current_trial": 25, "dateTime": 1509490741819, "trialdata": {"rt": -1000, "stimulus": "/static/audio/wordpool/ZEBRA.wav", "key_press": -1, "type": "PRES_AUD", "word": "zebra", "wordID": 1634, "conditions": [18, 1200, "a", 18000], "trial": 0, "serialpos": 4, "trial_type": "single-audio", "trial_index": 25, "time_elapsed": 139286, "internal_node_id": "0.0-16.0"}}, {"uniqueid": "MTK0195:3TUI152ZZCUSBMBTMFXJP6UXG43Q1K", "current_trial": 26, "dateTime": 1509490743825, "trialdata": {"rt": -1000, "stimulus": "/static/audio/wordpool/LAKE.wav", "key_press": -1, "type": "PRES_AUD", "word": "lake", "wordID": 795, "conditions": [18, 1200, "a", 18000], "trial": 0, "serialpos": 5, "trial_type": "single-audio", "trial_index": 26, "time_elapsed": 141291, "internal_node_id": "0.0-17.0"}}, {"uniqueid": "MTK0195:3TUI152ZZCUSBMBTMFXJP6UXG43Q1K", "current_trial": 27, "dateTime": 1509490746015, "trialdata": {"rt": -1000, "stimulus": "/static/audio/wordpool/HUSBAND.wav", "key_press": -1, "type": "PRES_AUD", "word": "husband", "wordID": 727, "conditions": [18, 1200, "a", 18000], "trial": 0, "serialpos": 6, "trial_type": "single-audio", "trial_index": 27, "time_elapsed": 143481, "internal_node_id": "0.0-18.0"}}, {"uniqueid": "MTK0195:3TUI152ZZCUSBMBTMFXJP6UXG43Q1K", "current_trial": 28, "dateTime": 1509490748397, "trialdata": {"rt": -1000, "stimulus": "/static/audio/wordpool/HAMPER.wav", "key_press": -1, "type": "PRES_AUD", "word": "hamper", "wordID": 681, "conditions": [18, 1200, "a", 18000], "trial": 0, "serialpos": 7, "trial_type": "single-audio", "trial_index": 28, "time_elapsed": 145864, "internal_node_id": "0.0-19.0"}}, {"uniqueid": "MTK0195:3TUI152ZZCUSBMBTMFXJP6UXG43Q1K", "current_trial": 29, "dateTime": 1509490750619, "trialdata": {"rt": -1000, "stimulus": "/static/audio/wordpool/LAGOON.wav", "key_press": -1, "type": "PRES_AUD", "word": "lagoon", "wordID": 794, "conditions": [18, 1200, "a", 18000], "trial": 0, "serialpos": 8, "trial_type": "single-audio", "trial_index": 29, "time_elapsed": 148086, "internal_node_id": "0.0-20.0"}}, {"uniqueid": "MTK0195:3TUI152ZZCUSBMBTMFXJP6UXG43Q1K", "current_trial": 30, "dateTime": 1509490752924, "trialdata": {"rt": -1000, "stimulus": "/static/audio/wordpool/LEOPARD.wav", "key_press": -1, "type": "PRES_AUD", "word": "leopard", "wordID": 811, "conditions": [18, 1200, "a", 18000], "trial": 0, "serialpos": 9, "trial_type": "single-audio", "trial_index": 30, "time_elapsed": 150391, "internal_node_id": "0.0-21.0"}}, {"uniqueid": "MTK0195:3TUI152ZZCUSBMBTMFXJP6UXG43Q1K", "current_trial": 31, "dateTime": 1509490754983, "trialdata": {"rt": -1000, "stimulus": "/static/audio/wordpool/PUDDING.wav", "key_press": -1, "type": "PRES_AUD", "word": "pudding", "wordID": 1138, "conditions": [18, 1200, "a", 18000], "trial": 0, "serialpos": 10, "trial_type": "single-audio", "trial_index": 31, "time_elapsed": 152450, "internal_node_id": "0.0-22.0"}}, {"uniqueid": "MTK0195:3TUI152ZZCUSBMBTMFXJP6UXG43Q1K", "current_trial": 32, "dateTime": 1509490757341, "trialdata": {"rt": -1000, "stimulus": "/static/audio/wordpool/CASHEW.wav", "key_press": -1, "type": "PRES_AUD", "word": "cashew", "wordID": 252, "conditions": [18, 1200, "a", 18000], "trial": 0, "serialpos": 11, "trial_type": "single-audio", "trial_index": 32, "time_elapsed": 154808, "internal_node_id": "0.0-23.0"}}, {"uniqueid": "MTK0195:3TUI152ZZCUSBMBTMFXJP6UXG43Q1K", "current_trial": 33, "dateTime": 1509490759363, "trialdata": {"rt": -1000, "stimulus": "/static/audio/wordpool/TRIBE.wav", "key_press": -1, "type": "PRES_AUD", "word": "tribe", "wordID": 1504, "conditions": [18, 1200, "a", 18000], "trial": 0, "serialpos": 12, "trial_type": "single-audio", "trial_index": 33, "time_elapsed": 156830, "internal_node_id": "0.0-24.0"}}, {"uniqueid": "MTK0195:3TUI152ZZCUSBMBTMFXJP6UXG43Q1K", "current_trial": 34, "dateTime": 1509490761640, "trialdata": {"rt": -1000, "stimulus": "/static/audio/wordpool/LAPEL.wav", "key_press": -1, "type": "PRES_AUD", "word": "lapel", "wordID": 799, "conditions": [18, 1200, "a", 18000], "trial": 0, "serialpos": 13, "trial_type": "single-audio", "trial_index": 34, "time_elapsed": 159107, "internal_node_id": "0.0-25.0"}}, {"uniqueid": "MTK0195:3TUI152ZZCUSBMBTMFXJP6UXG43Q1K", "current_trial": 35, "dateTime": 1509490763969, "trialdata": {"rt": -1000, "stimulus": "/static/audio/wordpool/SALAD.wav", "key_press": -1, "type": "PRES_AUD", "word": "salad", "wordID": 1223, "conditions": [18, 1200, "a", 18000], "trial": 0, "serialpos": 14, "trial_type": "single-audio", "trial_index": 35, "time_elapsed": 161436, "internal_node_id": "0.0-26.0"}}, {"uniqueid": "MTK0195:3TUI152ZZCUSBMBTMFXJP6UXG43Q1K", "current_trial": 36, "dateTime": 1509490766292, "trialdata": {"rt": -1000, "stimulus": "/static/audio/wordpool/FLASK.wav", "key_press": -1, "type": "PRES_AUD", "word": "flask", "wordID": 575, "conditions": [18, 1200, "a", 18000], "trial": 0, "serialpos": 15, "trial_type": "single-audio", "trial_index": 36, "time_elapsed": 163758, "internal_node_id": "0.0-27.0"}}, {"uniqueid": "MTK0195:3TUI152ZZCUSBMBTMFXJP6UXG43Q1K", "current_trial": 37, "dateTime": 1509490768647, "trialdata": {"rt": -1000, "stimulus": "/static/audio/wordpool/SODA.wav", "key_press": -1, "type": "PRES_AUD", "word": "soda", "wordID": 1340, "conditions": [18, 1200, "a", 18000], "trial": 0, "serialpos": 16, "trial_type": "single-audio", "trial_index": 37, "time_elapsed": 166114, "internal_node_id": "0.0-28.0"}}, {"uniqueid": "MTK0195:3TUI152ZZCUSBMBTMFXJP6UXG43Q1K", "current_trial": 38, "dateTime": 1509490770852, "trialdata": {"rt": -1000, "stimulus": "/static/audio/wordpool/SPOOL.wav", "key_press": -1, "type": "PRES_AUD", "word": "spool", "wordID": 1355, "conditions": [18, 1200, "a", 18000], "trial": 0, "serialpos": 17, "trial_type": "single-audio", "trial_index": 38, "time_elapsed": 168319, "internal_node_id": "0.0-29.0"}}, {"uniqueid": "MTK0195:3TUI152ZZCUSBMBTMFXJP6UXG43Q1K", "current_trial": 39, "dateTime": 1509490772187, "trialdata": {"rt": -1, "stimulus": "", "key_press": -1, "type": "PRE_RECALL_DELAY", "trial_type": "single-stim", "trial_index": 39, "time_elapsed": 169654, "internal_node_id": "0.0-30.0-0.0"}}, {"uniqueid": "MTK0195:3TUI152ZZCUSBMBTMFXJP6UXG43Q1K", "current_trial": 40, "dateTime": 1509490772689, "trialdata": {"rt": -1000, "stimulus": "/static/audio/400Hz.wav", "key_press": -1, "type": "PRE_RECALL_ALERT", "trial_type": "single-audio", "trial_index": 40, "time_elapsed": 170156, "internal_node_id": "0.0-31.0"}}, {"uniqueid": "MTK0195:3TUI152ZZCUSBMBTMFXJP6UXG43Q1K", "current_trial": 41, "dateTime": 1509490832702, "trialdata": {"rt": [2381, 4740, 11236, 14124, 15668, 16645, 20612, 22964, 23325], "recwords": ["spool", "glass", "sphinx", "salad", "soda", "glass", "lagoon", "", ""], "type": "FREE_RECALL", "conditions": [18, 1200, "a", 18000], "trial": 0, "trial_type": "free-recall", "trial_index": 41, "time_elapsed": 230163, "internal_node_id": "0.0-32.0-0.0"}}, {"uniqueid": "MTK0195:3TUI152ZZCUSBMBTMFXJP6UXG43Q1K", "current_trial": 42, "dateTime": 1509490836579, "trialdata": {"rt": 1875, "key_press": 32, "type": "INSTRUCTIONS", "trial_type": "text", "trial_index": 42, "time_elapsed": 234046, "internal_node_id": "0.0-33.0"}}, {"uniqueid": "MTK0195:3TUI152ZZCUSBMBTMFXJP6UXG43Q1K", "current_trial": 43, "dateTime": 1509490856584, "trialdata": {"rt": [2738, 7395, 9291, 11962, 14403, 17787], "responses": ["15", "22", "14", "19", "15", "14"], "num1": [6, 6, 4, 4, 6, 9, 3], "num2": [7, 7, 2, 7, 7, 3, 6], "num3": [2, 9, 8, 8, 2, 2, 3], "type": "DISTRACTOR", "conditions": [18, 1200, "v", 18000], "trial": 1, "trial_type": "math-distractor", "trial_index": 43, "time_elapsed": 254051, "internal_node_id": "0.0-34.0"}}, {"uniqueid": "MTK0195:3TUI152ZZCUSBMBTMFXJP6UXG43Q1K", "current_trial": 44, "dateTime": 1509490859588, "trialdata": {"rt": -1, "stimulus": "<p id=\"stim\">10</p>", "key_press": -1, "trial_type": "single-stim", "trial_index": 44, "time_elapsed": 257055, "internal_node_id": "0.0-35.0-0.0"}}, {"uniqueid": "MTK0195:3TUI152ZZCUSBMBTMFXJP6UXG43Q1K", "current_trial": 45, "dateTime": 1509490860589, "trialdata": {"rt": -1, "stimulus": "<p id=\"stim\">9</p>", "key_press": -1, "trial_type": "single-stim", "trial_index": 45, "time_elapsed": 258056, "internal_node_id": "0.0-35.0-1.0"}}, {"uniqueid": "MTK0195:3TUI152ZZCUSBMBTMFXJP6UXG43Q1K", "current_trial": 46, "dateTime": 1509490861591, "trialdata": {"rt": -1, "stimulus": "<p id=\"stim\">8</p>", "key_press": -1, "trial_type": "single-stim", "trial_index": 46, "time_elapsed": 259058, "internal_node_id": "0.0-35.0-2.0"}}, {"uniqueid": "MTK0195:3TUI152ZZCUSBMBTMFXJP6UXG43Q1K", "current_trial": 47, "dateTime": 1509490862595, "trialdata": {"rt": -1, "stimulus": "<p id=\"stim\">7</p>", "key_press": -1, "trial_type": "single-stim", "trial_index": 47, "time_elapsed": 260062, "internal_node_id": "0.0-35.0-3.0"}}, {"uniqueid": "MTK0195:3TUI152ZZCUSBMBTMFXJP6UXG43Q1K", "current_trial": 48, "dateTime": 1509490863596, "trialdata": {"rt": -1, "stimulus": "<p id=\"stim\">6</p>", "key_press": -1, "trial_type": "single-stim", "trial_index": 48, "time_elapsed": 261063, "internal_node_id": "0.0-35.0-4.0"}}, {"uniqueid": "MTK0195:3TUI152ZZCUSBMBTMFXJP6UXG43Q1K", "current_trial": 49, "dateTime": 1509490864598, "trialdata": {"rt": -1, "stimulus": "<p id=\"stim\">5</p>", "key_press": -1, "trial_type": "single-stim", "trial_index": 49, "time_elapsed": 262065, "internal_node_id": "0.0-35.0-5.0"}}, {"uniqueid": "MTK0195:3TUI152ZZCUSBMBTMFXJP6UXG43Q1K", "current_trial": 50, "dateTime": 1509490865602, "trialdata": {"rt": -1, "stimulus": "<p id=\"stim\">4</p>", "key_press": -1, "trial_type": "single-stim", "trial_index": 50, "time_elapsed": 263069, "internal_node_id": "0.0-35.0-6.0"}}, {"uniqueid": "MTK0195:3TUI152ZZCUSBMBTMFXJP6UXG43Q1K", "current_trial": 51, "dateTime": 1509490866604, "trialdata": {"rt": -1, "stimulus": "<p id=\"stim\">3</p>", "key_press": -1, "trial_type": "single-stim", "trial_index": 51, "time_elapsed": 264071, "internal_node_id": "0.0-35.0-7.0"}}, {"uniqueid": "MTK0195:3TUI152ZZCUSBMBTMFXJP6UXG43Q1K", "current_trial": 52, "dateTime": 1509490867606, "trialdata": {"rt": -1, "stimulus": "<p id=\"stim\">2</p>", "key_press": -1, "trial_type": "single-stim", "trial_index": 52, "time_elapsed": 265072, "internal_node_id": "0.0-35.0-8.0"}}, {"uniqueid": "MTK0195:3TUI152ZZCUSBMBTMFXJP6UXG43Q1K", "current_trial": 53, "dateTime": 1509490868607, "trialdata": {"rt": -1, "stimulus": "<p id=\"stim\">1</p>", "key_press": -1, "trial_type": "single-stim", "trial_index": 53, "time_elapsed": 266074, "internal_node_id": "0.0-35.0-9.0"}}, {"uniqueid": "MTK0195:3TUI152ZZCUSBMBTMFXJP6UXG43Q1K", "current_trial": 54, "dateTime": 1509490870109, "trialdata": {"rt": -1, "stimulus": "<p id=\"stim\">+</p>", "key_press": -1, "type": "FIXATION", "trial_type": "single-stim", "trial_index": 54, "time_elapsed": 267575, "internal_node_id": "0.0-36.0-0.0"}}, {"uniqueid": "MTK0195:3TUI152ZZCUSBMBTMFXJP6UXG43Q1K", "current_trial": 55, "dateTime": 1509490871311, "trialdata": {"rt": -1, "stimulus": "<p id=\"stim\">STONE</p>", "key_press": -1, "type": "PRES_VIS", "word": "stone", "wordID": 1384, "conditions": [18, 1200, "v", 18000], "trial": 1, "serialpos": 0, "trial_type": "single-stim", "trial_index": 55, "time_elapsed": 268777, "internal_node_id": "0.0-37.0"}}, {"uniqueid": "MTK0195:3TUI152ZZCUSBMBTMFXJP6UXG43Q1K", "current_trial": 56, "dateTime": 1509490873598, "trialdata": {"rt": -1, "stimulus": "<p id=\"stim\">WAITER</p>", "key_press": -1, "type": "PRES_VIS", "word": "waiter", "wordID": 1579, "conditions": [18, 1200, "v", 18000], "trial": 1, "serialpos": 1, "trial_type": "single-stim", "trial_index": 56, "time_elapsed": 271065, "internal_node_id": "0.0-38.0"}}, {"uniqueid": "MTK0195:3TUI152ZZCUSBMBTMFXJP6UXG43Q1K", "current_trial": 57, "dateTime": 1509490875605, "trialdata": {"rt": -1, "stimulus": "<p id=\"stim\">DIVER</p>", "key_press": -1, "type": "PRES_VIS", "word": "diver", "wordID": 475, "conditions": [18, 1200, "v", 18000], "trial": 1, "serialpos": 2, "trial_type": "single-stim", "trial_index": 57, "time_elapsed": 273072, "internal_node_id": "0.0-39.0"}}, {"uniqueid": "MTK0195:3TUI152ZZCUSBMBTMFXJP6UXG43Q1K", "current_trial": 58, "dateTime": 1509490877835, "trialdata": {"rt": -1, "stimulus": "<p id=\"stim\">FRAME</p>", "key_press": -1, "type": "PRES_VIS", "word": "frame", "wordID": 599, "conditions": [18, 1200, "v", 18000], "trial": 1, "serialpos": 3, "trial_type": "single-stim", "trial_index": 58, "time_elapsed": 275301, "internal_node_id": "0.0-40.0"}}, {"uniqueid": "MTK0195:3TUI152ZZCUSBMBTMFXJP6UXG43Q1K", "current_trial": 59, "dateTime": 1509490879915, "trialdata": {"rt": -1, "stimulus": "<p id=\"stim\">SUITCASE</p>", "key_press": -1, "type": "PRES_VIS", "word": "suitcase", "wordID": 1402, "conditions": [18, 1200, "v", 18000], "trial": 1, "serialpos": 4, "trial_type": "single-stim", "trial_index": 59, "time_elapsed": 277382, "internal_node_id": "0.0-41.0"}}, {"uniqueid": "MTK0195:3TUI152ZZCUSBMBTMFXJP6UXG43Q1K", "current_trial": 60, "dateTime": 1509490882093, "trialdata": {"rt": -1, "stimulus": "<p id=\"stim\">PEACH</p>", "key_press": -1, "type": "PRES_VIS", "word": "peach", "wordID": 1030, "conditions": [18, 1200, "v", 18000], "trial": 1, "serialpos": 5, "trial_type": "single-stim", "trial_index": 60, "time_elapsed": 279560, "internal_node_id": "0.0-42.0"}}, {"uniqueid": "MTK0195:3TUI152ZZCUSBMBTMFXJP6UXG43Q1K", "current_trial": 61, "dateTime": 1509490884287, "trialdata": {"rt": -1, "stimulus": "<p id=\"stim\">LUNCH</p>", "key_press": -1, "type": "PRES_VIS", "word": "lunch", "wordID": 848, "conditions": [18, 1200, "v", 18000], "trial": 1, "serialpos": 6, "trial_type": "single-stim", "trial_index": 61, "time_elapsed": 281754, "internal_node_id": "0.0-43.0"}}, {"uniqueid": "MTK0195:3TUI152ZZCUSBMBTMFXJP6UXG43Q1K", "current_trial": 62, "dateTime": 1509490886436, "trialdata": {"rt": -1, "stimulus": "<p id=\"stim\">DRILL</p>", "key_press": -1, "type": "PRES_VIS", "word": "drill", "wordID": 496, "conditions": [18, 1200, "v", 18000], "trial": 1, "serialpos": 7, "trial_type": "single-stim", "trial_index": 62, "time_elapsed": 283903, "internal_node_id": "0.0-44.0"}}, {"uniqueid": "MTK0195:3TUI152ZZCUSBMBTMFXJP6UXG43Q1K", "current_trial": 63, "dateTime": 1509490888661, "trialdata": {"rt": -1, "stimulus": "<p id=\"stim\">DIME</p>", "key_press": -1, "type": "PRES_VIS", "word": "dime", "wordID": 465, "conditions": [18, 1200, "v", 18000], "trial": 1, "serialpos": 8, "trial_type": "single-stim", "trial_index": 63, "time_elapsed": 286128, "internal_node_id": "0.0-45.0"}}, {"uniqueid": "MTK0195:3TUI152ZZCUSBMBTMFXJP6UXG43Q1K", "current_trial": 64, "dateTime": 1509490890794, "trialdata": {"rt": -1, "stimulus": "<p id=\"stim\">CAMEL</p>", "key_press": -1, "type": "PRES_VIS", "word": "camel", "wordID": 222, "conditions": [18, 1200, "v", 18000], "trial": 1, "serialpos": 9, "trial_type": "single-stim", "trial_index": 64, "time_elapsed": 288261, "internal_node_id": "0.0-46.0"}}, {"uniqueid": "MTK0195:3TUI152ZZCUSBMBTMFXJP6UXG43Q1K", "current_trial": 65, "dateTime": 1509490893142, "trialdata": {"rt": -1, "stimulus": "<p id=\"stim\">BRIEFCASE</p>", "key_press": -1, "type": "PRES_VIS", "word": "briefcase", "wordID": 174, "conditions": [18, 1200, "v", 18000], "trial": 1, "serialpos": 10, "trial_type": "single-stim", "trial_index": 65, "time_elapsed": 290609, "internal_node_id": "0.0-47.0"}}, {"uniqueid": "MTK0195:3TUI152ZZCUSBMBTMFXJP6UXG43Q1K", "current_trial": 66, "dateTime": 1509490895511, "trialdata": {"rt": -1, "stimulus": "<p id=\"stim\">GAZELLE</p>", "key_press": -1, "type": "PRES_VIS", "word": "gazelle", "wordID": 627, "conditions": [18, 1200, "v", 18000], "trial": 1, "serialpos": 11, "trial_type": "single-stim", "trial_index": 66, "time_elapsed": 292977, "internal_node_id": "0.0-48.0"}}, {"uniqueid": "MTK0195:3TUI152ZZCUSBMBTMFXJP6UXG43Q1K", "current_trial": 67, "dateTime": 1509490897723, "trialdata": {"rt": -1, "stimulus": "<p id=\"stim\">SHORTS</p>", "key_press": -1, "type": "PRES_VIS", "word": "shorts", "wordID": 1292, "conditions": [18, 1200, "v", 18000], "trial": 1, "serialpos": 12, "trial_type": "single-stim", "trial_index": 67, "time_elapsed": 295190, "internal_node_id": "0.0-49.0"}}, {"uniqueid": "MTK0195:3TUI152ZZCUSBMBTMFXJP6UXG43Q1K", "current_trial": 68, "dateTime": 1509490900093, "trialdata": {"rt": -1, "stimulus": "<p id=\"stim\">CABBAGE</p>", "key_press": -1, "type": "PRES_VIS", "word": "cabbage", "wordID": 209, "conditions": [18, 1200, "v", 18000], "trial": 1, "serialpos": 13, "trial_type": "single-stim", "trial_index": 68, "time_elapsed": 297556, "internal_node_id": "0.0-50.0"}}, {"uniqueid": "MTK0195:3TUI152ZZCUSBMBTMFXJP6UXG43Q1K", "current_trial": 69, "dateTime": 1509490902444, "trialdata": {"rt": -1, "stimulus": "<p id=\"stim\">ACTOR</p>", "key_press": -1, "type": "PRES_VIS", "word": "actor", "wordID": 4, "conditions": [18, 1200, "v", 18000], "trial": 1, "serialpos": 14, "trial_type": "single-stim", "trial_index": 69, "time_elapsed": 299911, "internal_node_id": "0.0-51.0"}}, {"uniqueid": "MTK0195:3TUI152ZZCUSBMBTMFXJP6UXG43Q1K", "current_trial": 70, "dateTime": 1509490904526, "trialdata": {"rt": -1, "stimulus": "<p id=\"stim\">RECEIPT</p>", "key_press": -1, "type": "PRES_VIS", "word": "receipt", "wordID": 1172, "conditions": [18, 1200, "v", 18000], "trial": 1, "serialpos": 15, "trial_type": "single-stim", "trial_index": 70, "time_elapsed": 301993, "internal_node_id": "0.0-52.0"}}, {"uniqueid": "MTK0195:3TUI152ZZCUSBMBTMFXJP6UXG43Q1K", "current_trial": 71, "dateTime": 1509490906805, "trialdata": {"rt": -1, "stimulus": "<p id=\"stim\">CLOCK</p>", "key_press": -1, "type": "PRES_VIS", "word": "clock", "wordID": 324, "conditions": [18, 1200, "v", 18000], "trial": 1, "serialpos": 16, "trial_type": "single-stim", "trial_index": 71, "time_elapsed": 304272, "internal_node_id": "0.0-53.0"}}, {"uniqueid": "MTK0195:3TUI152ZZCUSBMBTMFXJP6UXG43Q1K", "current_trial": 72, "dateTime": 1509490909191, "trialdata": {"rt": -1, "stimulus": "<p id=\"stim\">UMPIRE</p>", "key_press": -1, "type": "PRES_VIS", "word": "umpire", "wordID": 1534, "conditions": [18, 1200, "v", 18000], "trial": 1, "serialpos": 17, "trial_type": "single-stim", "trial_index": 72, "time_elapsed": 306658, "internal_node_id": "0.0-54.0"}}, {"uniqueid": "MTK0195:3TUI152ZZCUSBMBTMFXJP6UXG43Q1K", "current_trial": 73, "dateTime": 1509490911336, "trialdata": {"rt": -1, "stimulus": "", "key_press": -1, "type": "PRE_RECALL_DELAY", "trial_type": "single-stim", "trial_index": 73, "time_elapsed": 308803, "internal_node_id": "0.0-55.0-0.0"}}, {"uniqueid": "MTK0195:3TUI152ZZCUSBMBTMFXJP6UXG43Q1K", "current_trial": 74, "dateTime": 1509490911838, "trialdata": {"rt": -1000, "stimulus": "/static/audio/400Hz.wav", "key_press": -1, "type": "PRE_RECALL_ALERT", "trial_type": "single-audio", "trial_index": 74, "time_elapsed": 309305, "internal_node_id": "0.0-56.0"}}, {"uniqueid": "MTK0195:3TUI152ZZCUSBMBTMFXJP6UXG43Q1K", "current_trial": 75, "dateTime": 1509490971845, "trialdata": {"rt": [2715, 4522, 6146, 10362, 12082, 17274], "recwords": ["umpire", "clock", "reciept", "umpire", "cabbage", "bench"], "type": "FREE_RECALL", "conditions": [18, 1200, "v", 18000], "trial": 1, "trial_type": "free-recall", "trial_index": 75, "time_elapsed": 369309, "internal_node_id": "0.0-57.0-0.0"}}, {"uniqueid": "MTK0195:3TUI152ZZCUSBMBTMFXJP6UXG43Q1K", "current_trial": 76, "dateTime": 1509490976059, "trialdata": {"rt": 2211, "key_press": 32, "type": "INSTRUCTIONS", "trial_type": "text", "trial_index": 76, "time_elapsed": 373526, "internal_node_id": "0.0-58.0"}}, {"uniqueid": "MTK0195:3TUI152ZZCUSBMBTMFXJP6UXG43Q1K", "current_trial": 77, "dateTime": 1509490989064, "trialdata": {"rt": [3220, 5172, 7116, 9612, 11428], "responses": ["23", "10", "13", "20", "14"], "num1": [8, 2, 5, 8, 5, 5], "num2": [7, 2, 6, 4, 3, 7], "num3": [8, 6, 2, 8, 6, 2], "type": "DISTRACTOR", "conditions": [12, 800, "a", 12000], "trial": 2, "trial_type": "math-distractor", "trial_index": 77, "time_elapsed": 386530, "internal_node_id": "0.0-59.0"}}, {"uniqueid": "MTK0195:3TUI152ZZCUSBMBTMFXJP6UXG43Q1K", "current_trial": 78, "dateTime": 1509490992065, "trialdata": {"rt": -1, "stimulus": "<p id=\"stim\">10</p>", "key_press": -1, "trial_type": "single-stim", "trial_index": 78, "time_elapsed": 389532, "internal_node_id": "0.0-60.0-0.0"}}, {"uniqueid": "MTK0195:3TUI152ZZCUSBMBTMFXJP6UXG43Q1K", "current_trial": 79, "dateTime": 1509490993066, "trialdata": {"rt": -1, "stimulus": "<p id=\"stim\">9</p>", "key_press": -1, "trial_type": "single-stim", "trial_index": 79, "time_elapsed": 390533, "internal_node_id": "0.0-60.0-1.0"}}, {"uniqueid": "MTK0195:3TUI152ZZCUSBMBTMFXJP6UXG43Q1K", "current_trial": 80, "dateTime": 1509490994069, "trialdata": {"rt": -1, "stimulus": "<p id=\"stim\">8</p>", "key_press": -1, "trial_type": "single-stim", "trial_index": 80, "time_elapsed": 391535, "internal_node_id": "0.0-60.0-2.0"}}, {"uniqueid": "MTK0195:3TUI152ZZCUSBMBTMFXJP6UXG43Q1K", "current_trial": 81, "dateTime": 1509490995070, "trialdata": {"rt": -1, "stimulus": "<p id=\"stim\">7</p>", "key_press": -1, "trial_type": "single-stim", "trial_index": 81, "time_elapsed": 392537, "internal_node_id": "0.0-60.0-3.0"}}, {"uniqueid": "MTK0195:3TUI152ZZCUSBMBTMFXJP6UXG43Q1K", "current_trial": 82, "dateTime": 1509490996071, "trialdata": {"rt": -1, "stimulus": "<p id=\"stim\">6</p>", "key_press": -1, "trial_type": "single-stim", "trial_index": 82, "time_elapsed": 393538, "internal_node_id": "0.0-60.0-4.0"}}, {"uniqueid": "MTK0195:3TUI152ZZCUSBMBTMFXJP6UXG43Q1K", "current_trial": 83, "dateTime": 1509490997073, "trialdata": {"rt": -1, "stimulus": "<p id=\"stim\">5</p>", "key_press": -1, "trial_type": "single-stim", "trial_index": 83, "time_elapsed": 394539, "internal_node_id": "0.0-60.0-5.0"}}, {"uniqueid": "MTK0195:3TUI152ZZCUSBMBTMFXJP6UXG43Q1K", "current_trial": 84, "dateTime": 1509490998074, "trialdata": {"rt": -1, "stimulus": "<p id=\"stim\">4</p>", "key_press": -1, "trial_type": "single-stim", "trial_index": 84, "time_elapsed": 395541, "internal_node_id": "0.0-60.0-6.0"}}, {"uniqueid": "MTK0195:3TUI152ZZCUSBMBTMFXJP6UXG43Q1K", "current_trial": 85, "dateTime": 1509490999076, "trialdata": {"rt": -1, "stimulus": "<p id=\"stim\">3</p>", "key_press": -1, "trial_type": "single-stim", "trial_index": 85, "time_elapsed": 396543, "internal_node_id": "0.0-60.0-7.0"}}, {"uniqueid": "MTK0195:3TUI152ZZCUSBMBTMFXJP6UXG43Q1K", "current_trial": 86, "dateTime": 1509491000078, "trialdata": {"rt": -1, "stimulus": "<p id=\"stim\">2</p>", "key_press": -1, "trial_type": "single-stim", "trial_index": 86, "time_elapsed": 397545, "internal_node_id": "0.0-60.0-8.0"}}, {"uniqueid": "MTK0195:3TUI152ZZCUSBMBTMFXJP6UXG43Q1K", "current_trial": 87, "dateTime": 1509491001081, "trialdata": {"rt": -1, "stimulus": "<p id=\"stim\">1</p>", "key_press": -1, "trial_type": "single-stim", "trial_index": 87, "time_elapsed": 398547, "internal_node_id": "0.0-60.0-9.0"}}, {"uniqueid": "MTK0195:3TUI152ZZCUSBMBTMFXJP6UXG43Q1K", "current_trial": 88, "dateTime": 1509491002583, "trialdata": {"rt": -1, "stimulus": "<p id=\"stim\">+</p>", "key_press": -1, "type": "FIXATION", "trial_type": "single-stim", "trial_index": 88, "time_elapsed": 400050, "internal_node_id": "0.0-61.0-0.0"}}, {"uniqueid": "MTK0195:3TUI152ZZCUSBMBTMFXJP6UXG43Q1K", "current_trial": 89, "dateTime": 1509491004483, "trialdata": {"rt": -1000, "stimulus": "/static/audio/wordpool/TOURIST.wav", "key_press": -1, "type": "PRES_AUD", "word": "tourist", "wordID": 1487, "conditions": [12, 800, "a", 12000], "trial": 2, "serialpos": 0, "trial_type": "single-audio", "trial_index": 89, "time_elapsed": 401950, "internal_node_id": "0.0-62.0"}}, {"uniqueid": "MTK0195:3TUI152ZZCUSBMBTMFXJP6UXG43Q1K", "current_trial": 90, "dateTime": 1509491006315, "trialdata": {"rt": -1000, "stimulus": "/static/audio/wordpool/SPOUSE.wav", "key_press": -1, "type": "PRES_AUD", "word": "spouse", "wordID": 1357, "conditions": [12, 800, "a", 12000], "trial": 2, "serialpos": 1, "trial_type": "single-audio", "trial_index": 90, "time_elapsed": 403782, "internal_node_id": "0.0-63.0"}}, {"uniqueid": "MTK0195:3TUI152ZZCUSBMBTMFXJP6UXG43Q1K", "current_trial": 91, "dateTime": 1509491008083, "trialdata": {"rt": -1000, "stimulus": "/static/audio/wordpool/WIFE.wav", "key_press": -1, "type": "PRES_AUD", "word": "wife", "wordID": 1608, "conditions": [12, 800, "a", 12000], "trial": 2, "serialpos": 2, "trial_type": "single-audio", "trial_index": 91, "time_elapsed": 405550, "internal_node_id": "0.0-64.0"}}, {"uniqueid": "MTK0195:3TUI152ZZCUSBMBTMFXJP6UXG43Q1K", "current_trial": 92, "dateTime": 1509491010062, "trialdata": {"rt": -1000, "stimulus": "/static/audio/wordpool/ROCKET.wav", "key_press": -1, "type": "PRES_AUD", "word": "rocket", "wordID": 1201, "conditions": [12, 800, "a", 12000], "trial": 2, "serialpos": 3, "trial_type": "single-audio", "trial_index": 92, "time_elapsed": 407528, "internal_node_id": "0.0-65.0"}}, {"uniqueid": "MTK0195:3TUI152ZZCUSBMBTMFXJP6UXG43Q1K", "current_trial": 93, "dateTime": 1509491012052, "trialdata": {"rt": -1000, "stimulus": "/static/audio/wordpool/HUMAN.wav", "key_press": -1, "type": "PRES_AUD", "word": "human", "wordID": 725, "conditions": [12, 800, "a", 12000], "trial": 2, "serialpos": 4, "trial_type": "single-audio", "trial_index": 93, "time_elapsed": 409519, "internal_node_id": "0.0-66.0"}}, {"uniqueid": "MTK0195:3TUI152ZZCUSBMBTMFXJP6UXG43Q1K", "current_trial": 94, "dateTime": 1509491013656, "trialdata": {"rt": -1000, "stimulus": "/static/audio/wordpool/LIVER.wav", "key_press": -1, "type": "PRES_AUD", "word": "liver", "wordID": 832, "conditions": [12, 800, "a", 12000], "trial": 2, "serialpos": 5, "trial_type": "single-audio", "trial_index": 94, "time_elapsed": 411123, "internal_node_id": "0.0-67.0"}}, {"uniqueid": "MTK0195:3TUI152ZZCUSBMBTMFXJP6UXG43Q1K", "current_trial": 95, "dateTime": 1509491015319, "trialdata": {"rt": -1000, "stimulus": "/static/audio/wordpool/KEEPER.wav", "key_press": -1, "type": "PRES_AUD", "word": "keeper", "wordID": 768, "conditions": [12, 800, "a", 12000], "trial": 2, "serialpos": 6, "trial_type": "single-audio", "trial_index": 95, "time_elapsed": 412785, "internal_node_id": "0.0-68.0"}}, {"uniqueid": "MTK0195:3TUI152ZZCUSBMBTMFXJP6UXG43Q1K", "current_trial": 96, "dateTime": 1509491016955, "trialdata": {"rt": -1000, "stimulus": "/static/audio/wordpool/ITEM.wav", "key_press": -1, "type": "PRES_AUD", "word": "item", "wordID": 745, "conditions": [12, 800, "a", 12000], "trial": 2, "serialpos": 7, "trial_type": "single-audio", "trial_index": 96, "time_elapsed": 414422, "internal_node_id": "0.0-69.0"}}, {"uniqueid": "MTK0195:3TUI152ZZCUSBMBTMFXJP6UXG43Q1K", "current_trial": 97, "dateTime": 1509491018739, "trialdata": {"rt": -1000, "stimulus": "/static/audio/wordpool/MISSILE.wav", "key_press": -1, "type": "PRES_AUD", "word": "missile", "wordID": 899, "conditions": [12, 800, "a", 12000], "trial": 2, "serialpos": 8, "trial_type": "single-audio", "trial_index": 97, "time_elapsed": 416206, "internal_node_id": "0.0-70.0"}}, {"uniqueid": "MTK0195:3TUI152ZZCUSBMBTMFXJP6UXG43Q1K", "current_trial": 98, "dateTime": 1509491020342, "trialdata": {"rt": -1000, "stimulus": "/static/audio/wordpool/BUTCHER.wav", "key_press": -1, "type": "PRES_AUD", "word": "butcher", "wordID": 202, "conditions": [12, 800, "a", 12000], "trial": 2, "serialpos": 9, "trial_type": "single-audio", "trial_index": 98, "time_elapsed": 417809, "internal_node_id": "0.0-71.0"}}, {"uniqueid": "MTK0195:3TUI152ZZCUSBMBTMFXJP6UXG43Q1K", "current_trial": 99, "dateTime": 1509491021945, "trialdata": {"rt": -1000, "stimulus": "/static/audio/wordpool/BEAST.wav", "key_press": -1, "type": "PRES_AUD", "word": "beast", "wordID": 107, "conditions": [12, 800, "a", 12000], "trial": 2, "serialpos": 10, "trial_type": "single-audio", "trial_index": 99, "time_elapsed": 419412, "internal_node_id": "0.0-72.0"}}, {"uniqueid": "MTK0195:3TUI152ZZCUSBMBTMFXJP6UXG43Q1K", "current_trial": 100, "dateTime": 1509491023839, "trialdata": {"rt": -1000, "stimulus": "/static/audio/wordpool/POCKET.wav", "key_press": -1, "type": "PRES_AUD", "word": "pocket", "wordID": 1092, "conditions": [12, 800, "a", 12000], "trial": 2, "serialpos": 11, "trial_type": "single-audio", "trial_index": 100, "time_elapsed": 421305, "internal_node_id": "0.0-73.0"}}, {"uniqueid": "MTK0195:3TUI152ZZCUSBMBTMFXJP6UXG43Q1K", "current_trial": 101, "dateTime": 1509491025141, "trialdata": {"rt": -1, "stimulus": "", "key_press": -1, "type": "PRE_RECALL_DELAY", "trial_type": "single-stim", "trial_index": 101, "time_elapsed": 422608, "internal_node_id": "0.0-74.0-0.0"}}, {"uniqueid": "MTK0195:3TUI152ZZCUSBMBTMFXJP6UXG43Q1K", "current_trial": 102, "dateTime": 1509491025643, "trialdata": {"rt": -1000, "stimulus": "/static/audio/400Hz.wav", "key_press": -1, "type": "PRE_RECALL_ALERT", "trial_type": "single-audio", "trial_index": 102, "time_elapsed": 423110, "internal_node_id": "0.0-75.0"}}, {"uniqueid": "MTK0195:3TUI152ZZCUSBMBTMFXJP6UXG43Q1K", "current_trial": 103, "dateTime": 1509491085647, "trialdata": {"rt": [2227, 3587, 4739, 6979, 12571, 59963], "recwords": ["pocket", "butcher", "beast", "item", "pocket", "liver"], "type": "FREE_RECALL", "conditions": [12, 800, "a", 12000], "trial": 2, "trial_type": "free-recall", "trial_index": 103, "time_elapsed": 483113, "internal_node_id": "0.0-76.0-0.0"}}, {"uniqueid": "MTK0195:3TUI152ZZCUSBMBTMFXJP6UXG43Q1K", "current_trial": 104, "dateTime": 1509491088290, "trialdata": {"rt": 641, "key_press": 32, "type": "INSTRUCTIONS", "trial_type": "text", "trial_index": 104, "time_elapsed": 485757, "internal_node_id": "0.0-77.0"}}, {"uniqueid": "MTK0195:3TUI152ZZCUSBMBTMFXJP6UXG43Q1K", "current_trial": 105, "dateTime": 1509491114296, "trialdata": {"rt": [1748, 3084, 5876, 10284, 14100, 16204, 18284, 22557], "responses": ["15", "6", "19", "13", "14", "19", "14", "13"], "num1": [9, 2, 9, 5, 3, 8, 6, 4, 9], "num2": [1, 1, 8, 4, 9, 6, 7, 6, 4], "num3": [5, 3, 2, 4, 2, 5, 1, 3, 1], "type": "DISTRACTOR", "conditions": [24, 1600, "v", 24000], "trial": 3, "trial_type": "math-distractor", "trial_index": 105, "time_elapsed": 511763, "internal_node_id": "0.0-78.0"}}, {"uniqueid": "MTK0195:3TUI152ZZCUSBMBTMFXJP6UXG43Q1K", "current_trial": 106, "dateTime": 1509491117298, "trialdata": {"rt": -1, "stimulus": "<p id=\"stim\">10</p>", "key_press": -1, "trial_type": "single-stim", "trial_index": 106, "time_elapsed": 514765, "internal_node_id": "0.0-79.0-0.0"}}, {"uniqueid": "MTK0195:3TUI152ZZCUSBMBTMFXJP6UXG43Q1K", "current_trial": 107, "dateTime": 1509491118299, "trialdata": {"rt": -1, "stimulus": "<p id=\"stim\">9</p>", "key_press": -1, "trial_type": "single-stim", "trial_index": 107, "time_elapsed": 515766, "internal_node_id": "0.0-79.0-1.0"}}, {"uniqueid": "MTK0195:3TUI152ZZCUSBMBTMFXJP6UXG43Q1K", "current_trial": 108, "dateTime": 1509491119301, "trialdata": {"rt": -1, "stimulus": "<p id=\"stim\">8</p>", "key_press": -1, "trial_type": "single-stim", "trial_index": 108, "time_elapsed": 516768, "internal_node_id": "0.0-79.0-2.0"}}, {"uniqueid": "MTK0195:3TUI152ZZCUSBMBTMFXJP6UXG43Q1K", "current_trial": 109, "dateTime": 1509491120303, "trialdata": {"rt": -1, "stimulus": "<p id=\"stim\">7</p>", "key_press": -1, "trial_type": "single-stim", "trial_index": 109, "time_elapsed": 517769, "internal_node_id": "0.0-79.0-3.0"}}, {"uniqueid": "MTK0195:3TUI152ZZCUSBMBTMFXJP6UXG43Q1K", "current_trial": 110, "dateTime": 1509491121304, "trialdata": {"rt": -1, "stimulus": "<p id=\"stim\">6</p>", "key_press": -1, "trial_type": "single-stim", "trial_index": 110, "time_elapsed": 518771, "internal_node_id": "0.0-79.0-4.0"}}, {"uniqueid": "MTK0195:3TUI152ZZCUSBMBTMFXJP6UXG43Q1K", "current_trial": 111, "dateTime": 1509491122306, "trialdata": {"rt": -1, "stimulus": "<p id=\"stim\">5</p>", "key_press": -1, "trial_type": "single-stim", "trial_index": 111, "time_elapsed": 519773, "internal_node_id": "0.0-79.0-5.0"}}, {"uniqueid": "MTK0195:3TUI152ZZCUSBMBTMFXJP6UXG43Q1K", "current_trial": 112, "dateTime": 1509491123308, "trialdata": {"rt": -1, "stimulus": "<p id=\"stim\">4</p>", "key_press": -1, "trial_type": "single-stim", "trial_index": 112, "time_elapsed": 520775, "internal_node_id": "0.0-79.0-6.0"}}, {"uniqueid": "MTK0195:3TUI152ZZCUSBMBTMFXJP6UXG43Q1K", "current_trial": 113, "dateTime": 1509491124310, "trialdata": {"rt": -1, "stimulus": "<p id=\"stim\">3</p>", "key_press": -1, "trial_type": "single-stim", "trial_index": 113, "time_elapsed": 521777, "internal_node_id": "0.0-79.0-7.0"}}, {"uniqueid": "MTK0195:3TUI152ZZCUSBMBTMFXJP6UXG43Q1K", "current_trial": 114, "dateTime": 1509491125312, "trialdata": {"rt": -1, "stimulus": "<p id=\"stim\">2</p>", "key_press": -1, "trial_type": "single-stim", "trial_index": 114, "time_elapsed": 522779, "internal_node_id": "0.0-79.0-8.0"}}, {"uniqueid": "MTK0195:3TUI152ZZCUSBMBTMFXJP6UXG43Q1K", "current_trial": 115, "dateTime": 1509491126314, "trialdata": {"rt": -1, "stimulus": "<p id=\"stim\">1</p>", "key_press": -1, "trial_type": "single-stim", "trial_index": 115, "time_elapsed": 523780, "internal_node_id": "0.0-79.0-9.0"}}, {"uniqueid": "MTK0195:3TUI152ZZCUSBMBTMFXJP6UXG43Q1K", "current_trial": 116, "dateTime": 1509491127815, "trialdata": {"rt": -1, "stimulus": "<p id=\"stim\">+</p>", "key_press": -1, "type": "FIXATION", "trial_type": "single-stim", "trial_index": 116, "time_elapsed": 525282, "internal_node_id": "0.0-80.0-0.0"}}, {"uniqueid": "MTK0195:3TUI152ZZCUSBMBTMFXJP6UXG43Q1K", "current_trial": 117, "dateTime": 1509491129417, "trialdata": {"rt": -1, "stimulus": "<p id=\"stim\">CARROT</p>", "key_press": -1, "type": "PRES_VIS", "word": "carrot", "wordID": 248, "conditions": [24, 1600, "v", 24000], "trial": 3, "serialpos": 0, "trial_type": "single-stim", "trial_index": 117, "time_elapsed": 526883, "internal_node_id": "0.0-81.0"}}, {"uniqueid": "MTK0195:3TUI152ZZCUSBMBTMFXJP6UXG43Q1K", "current_trial": 118, "dateTime": 1509491131955, "trialdata": {"rt": -1, "stimulus": "<p id=\"stim\">SERVANT</p>", "key_press": -1, "type": "PRES_VIS", "word": "servant", "wordID": 1270, "conditions": [24, 1600, "v", 24000], "trial": 3, "serialpos": 1, "trial_type": "single-stim", "trial_index": 118, "time_elapsed": 529422, "internal_node_id": "0.0-82.0"}}, {"uniqueid": "MTK0195:3TUI152ZZCUSBMBTMFXJP6UXG43Q1K", "current_trial": 119, "dateTime": 1509491134371, "trialdata": {"rt": -1, "stimulus": "<p id=\"stim\">ROOSTER</p>", "key_press": -1, "type": "PRES_VIS", "word": "rooster", "wordID": 1208, "conditions": [24, 1600, "v", 24000], "trial": 3, "serialpos": 2, "trial_type": "single-stim", "trial_index": 119, "time_elapsed": 531838, "internal_node_id": "0.0-83.0"}}, {"uniqueid": "MTK0195:3TUI152ZZCUSBMBTMFXJP6UXG43Q1K", "current_trial": 120, "dateTime": 1509491137011, "trialdata": {"rt": -1, "stimulus": "<p id=\"stim\">RABBIT</p>", "key_press": -1, "type": "PRES_VIS", "word": "rabbit", "wordID": 1151, "conditions": [24, 1600, "v", 24000], "trial": 3, "serialpos": 3, "trial_type": "single-stim", "trial_index": 120, "time_elapsed": 534478, "internal_node_id": "0.0-84.0"}}, {"uniqueid": "MTK0195:3TUI152ZZCUSBMBTMFXJP6UXG43Q1K", "current_trial": 121, "dateTime": 1509491139751, "trialdata": {"rt": -1, "stimulus": "<p id=\"stim\">SAUSAGE</p>", "key_press": -1, "type": "PRES_VIS", "word": "sausage", "wordID": 1237, "conditions": [24, 1600, "v", 24000], "trial": 3, "serialpos": 4, "trial_type": "single-stim", "trial_index": 121, "time_elapsed": 537218, "internal_node_id": "0.0-85.0"}}, {"uniqueid": "MTK0195:3TUI152ZZCUSBMBTMFXJP6UXG43Q1K", "current_trial": 122, "dateTime": 1509491142515, "trialdata": {"rt": -1, "stimulus": "<p id=\"stim\">FRECKLE</p>", "key_press": -1, "type": "PRES_VIS", "word": "freckle", "wordID": 601, "conditions": [24, 1600, "v", 24000], "trial": 3, "serialpos": 5, "trial_type": "single-stim", "trial_index": 122, "time_elapsed": 539982, "internal_node_id": "0.0-86.0"}}, {"uniqueid": "MTK0195:3TUI152ZZCUSBMBTMFXJP6UXG43Q1K", "current_trial": 123, "dateTime": 1509491145016, "trialdata": {"rt": -1, "stimulus": "<p id=\"stim\">SWAMP</p>", "key_press": -1, "type": "PRES_VIS", "word": "swamp", "wordID": 1415, "conditions": [24, 1600, "v", 24000], "trial": 3, "serialpos": 6, "trial_type": "single-stim", "trial_index": 123, "time_elapsed": 542483, "internal_node_id": "0.0-87.0"}}, {"uniqueid": "MTK0195:3TUI152ZZCUSBMBTMFXJP6UXG43Q1K", "current_trial": 124, "dateTime": 1509491147803, "trialdata": {"rt": -1, "stimulus": "<p id=\"stim\">PADDING</p>", "key_press": -1, "type": "PRES_VIS", "word": "padding", "wordID": 998, "conditions": [24, 1600, "v", 24000], "trial": 3, "serialpos": 7, "trial_type": "single-stim", "trial_index": 124, "time_elapsed": 545270, "internal_node_id": "0.0-88.0"}}, {"uniqueid": "MTK0195:3TUI152ZZCUSBMBTMFXJP6UXG43Q1K", "current_trial": 125, "dateTime": 1509491150410, "trialdata": {"rt": -1, "stimulus": "<p id=\"stim\">BLOUSE</p>", "key_press": -1, "type": "PRES_VIS", "word": "blouse", "wordID": 138, "conditions": [24, 1600, "v", 24000], "trial": 3, "serialpos": 8, "trial_type": "single-stim", "trial_index": 125, "time_elapsed": 547876, "internal_node_id": "0.0-89.0"}}, {"uniqueid": "MTK0195:3TUI152ZZCUSBMBTMFXJP6UXG43Q1K", "current_trial": 126, "dateTime": 1509491153157, "trialdata": {"rt": -1, "stimulus": "<p id=\"stim\">BOX</p>", "key_press": -1, "type": "PRES_VIS", "word": "box", "wordID": 158, "conditions": [24, 1600, "v", 24000], "trial": 3, "serialpos": 9, "trial_type": "single-stim", "trial_index": 126, "time_elapsed": 550624, "internal_node_id": "0.0-90.0"}}, {"uniqueid": "MTK0195:3TUI152ZZCUSBMBTMFXJP6UXG43Q1K", "current_trial": 127, "dateTime": 1509491155715, "trialdata": {"rt": -1, "stimulus": "<p id=\"stim\">COUCH</p>", "key_press": -1, "type": "PRES_VIS", "word": "couch", "wordID": 385, "conditions": [24, 1600, "v", 24000], "trial": 3, "serialpos": 10, "trial_type": "single-stim", "trial_index": 127, "time_elapsed": 553182, "internal_node_id": "0.0-91.0"}}, {"uniqueid": "MTK0195:3TUI152ZZCUSBMBTMFXJP6UXG43Q1K", "current_trial": 128, "dateTime": 1509491158329, "trialdata": {"rt": -1, "stimulus": "<p id=\"stim\">DRESS</p>", "key_press": -1, "type": "PRES_VIS", "word": "dress", "wordID": 494, "conditions": [24, 1600, "v", 24000], "trial": 3, "serialpos": 11, "trial_type": "single-stim", "trial_index": 128, "time_elapsed": 555796, "internal_node_id": "0.0-92.0"}}, {"uniqueid": "MTK0195:3TUI152ZZCUSBMBTMFXJP6UXG43Q1K", "current_trial": 129, "dateTime": 1509491160902, "trialdata": {"rt": -1, "stimulus": "<p id=\"stim\">SCARECROW</p>", "key_press": -1, "type": "PRES_VIS", "word": "scarecrow", "wordID": 1244, "conditions": [24, 1600, "v", 24000], "trial": 3, "serialpos": 12, "trial_type": "single-stim", "trial_index": 129, "time_elapsed": 558369, "internal_node_id": "0.0-93.0"}}, {"uniqueid": "MTK0195:3TUI152ZZCUSBMBTMFXJP6UXG43Q1K", "current_trial": 130, "dateTime": 1509491163322, "trialdata": {"rt": -1, "stimulus": "<p id=\"stim\">SCULPTURE</p>", "key_press": -1, "type": "PRES_VIS", "word": "sculpture", "wordID": 1257, "conditions": [24, 1600, "v", 24000], "trial": 3, "serialpos": 13, "trial_type": "single-stim", "trial_index": 130, "time_elapsed": 560789, "internal_node_id": "0.0-94.0"}}, {"uniqueid": "MTK0195:3TUI152ZZCUSBMBTMFXJP6UXG43Q1K", "current_trial": 131, "dateTime": 1509491165834, "trialdata": {"rt": -1, "stimulus": "<p id=\"stim\">PICTURE</p>", "key_press": -1, "type": "PRES_VIS", "word": "picture", "wordID": 1060, "conditions": [24, 1600, "v", 24000], "trial": 3, "serialpos": 14, "trial_type": "single-stim", "trial_index": 131, "time_elapsed": 563301, "internal_node_id": "0.0-95.0"}}, {"uniqueid": "MTK0195:3TUI152ZZCUSBMBTMFXJP6UXG43Q1K", "current_trial": 132, "dateTime": 1509491168463, "trialdata": {"rt": -1, "stimulus": "<p id=\"stim\">WINDOW</p>", "key_press": -1, "type": "PRES_VIS", "word": "window", "wordID": 1610, "conditions": [24, 1600, "v", 24000], "trial": 3, "serialpos": 15, "trial_type": "single-stim", "trial_index": 132, "time_elapsed": 565930, "internal_node_id": "0.0-96.0"}}, {"uniqueid": "MTK0195:3TUI152ZZCUSBMBTMFXJP6UXG43Q1K", "current_trial": 133, "dateTime": 1509491171125, "trialdata": {"rt": -1, "stimulus": "<p id=\"stim\">DINER</p>", "key_press": -1, "type": "PRES_VIS", "word": "diner", "wordID": 466, "conditions": [24, 1600, "v", 24000], "trial": 3, "serialpos": 16, "trial_type": "single-stim", "trial_index": 133, "time_elapsed": 568592, "internal_node_id": "0.0-97.0"}}, {"uniqueid": "MTK0195:3TUI152ZZCUSBMBTMFXJP6UXG43Q1K", "current_trial": 134, "dateTime": 1509491173562, "trialdata": {"rt": -1, "stimulus": "<p id=\"stim\">CAFE</p>", "key_press": -1, "type": "PRES_VIS", "word": "cafe", "wordID": 215, "conditions": [24, 1600, "v", 24000], "trial": 3, "serialpos": 17, "trial_type": "single-stim", "trial_index": 134, "time_elapsed": 571029, "internal_node_id": "0.0-98.0"}}, {"uniqueid": "MTK0195:3TUI152ZZCUSBMBTMFXJP6UXG43Q1K", "current_trial": 135, "dateTime": 1509491176247, "trialdata": {"rt": -1, "stimulus": "<p id=\"stim\">BLACKBOARD</p>", "key_press": -1, "type": "PRES_VIS", "word": "blackboard", "wordID": 132, "conditions": [24, 1600, "v", 24000], "trial": 3, "serialpos": 18, "trial_type": "single-stim", "trial_index": 135, "time_elapsed": 573714, "internal_node_id": "0.0-99.0"}}, {"uniqueid": "MTK0195:3TUI152ZZCUSBMBTMFXJP6UXG43Q1K", "current_trial": 136, "dateTime": 1509491178764, "trialdata": {"rt": -1, "stimulus": "<p id=\"stim\">GROUND</p>", "key_press": -1, "type": "PRES_VIS", "word": "ground", "wordID": 665, "conditions": [24, 1600, "v", 24000], "trial": 3, "serialpos": 19, "trial_type": "single-stim", "trial_index": 136, "time_elapsed": 576231, "internal_node_id": "0.0-100.0"}}, {"uniqueid": "MTK0195:3TUI152ZZCUSBMBTMFXJP6UXG43Q1K", "current_trial": 137, "dateTime": 1509491181246, "trialdata": {"rt": -1, "stimulus": "<p id=\"stim\">LAMP</p>", "key_press": -1, "type": "PRES_VIS", "word": "lamp", "wordID": 797, "conditions": [24, 1600, "v", 24000], "trial": 3, "serialpos": 20, "trial_type": "single-stim", "trial_index": 137, "time_elapsed": 578713, "internal_node_id": "0.0-101.0"}}, {"uniqueid": "MTK0195:3TUI152ZZCUSBMBTMFXJP6UXG43Q1K", "current_trial": 138, "dateTime": 1509491183797, "trialdata": {"rt": -1, "stimulus": "<p id=\"stim\">MARINE</p>", "key_press": -1, "type": "PRES_VIS", "word": "marine", "wordID": 868, "conditions": [24, 1600, "v", 24000], "trial": 3, "serialpos": 21, "trial_type": "single-stim", "trial_index": 138, "time_elapsed": 581264, "internal_node_id": "0.0-102.0"}}, {"uniqueid": "MTK0195:3TUI152ZZCUSBMBTMFXJP6UXG43Q1K", "current_trial": 139, "dateTime": 1509491186526, "trialdata": {"rt": -1, "stimulus": "<p id=\"stim\">COSTUME</p>", "key_press": -1, "type": "PRES_VIS", "word": "costume", "wordID": 382, "conditions": [24, 1600, "v", 24000], "trial": 3, "serialpos": 22, "trial_type": "single-stim", "trial_index": 139, "time_elapsed": 583993, "internal_node_id": "0.0-103.0"}}, {"uniqueid": "MTK0195:3TUI152ZZCUSBMBTMFXJP6UXG43Q1K", "current_trial": 140, "dateTime": 1509491189142, "trialdata": {"rt": -1, "stimulus": "<p id=\"stim\">HEDGE</p>", "key_press": -1, "type": "PRES_VIS", "word": "hedge", "wordID": 698, "conditions": [24, 1600, "v", 24000], "trial": 3, "serialpos": 23, "trial_type": "single-stim", "trial_index": 140, "time_elapsed": 586609, "internal_node_id": "0.0-104.0"}}, {"uniqueid": "MTK0195:3TUI152ZZCUSBMBTMFXJP6UXG43Q1K", "current_trial": 141, "dateTime": 1509491191413, "trialdata": {"rt": -1, "stimulus": "", "key_press": -1, "type": "PRE_RECALL_DELAY", "trial_type": "single-stim", "trial_index": 141, "time_elapsed": 588879, "internal_node_id": "0.0-105.0-0.0"}}, {"uniqueid": "MTK0195:3TUI152ZZCUSBMBTMFXJP6UXG43Q1K", "current_trial": 142, "dateTime": 1509491191924, "trialdata": {"rt": -1000, "stimulus": "/static/audio/400Hz.wav", "key_press": -1, "type": "PRE_RECALL_ALERT", "trial_type": "single-audio", "trial_index": 142, "time_elapsed": 589391, "internal_node_id": "0.0-106.0"}}, {"uniqueid": "MTK0195:3TUI152ZZCUSBMBTMFXJP6UXG43Q1K", "current_trial": 143, "dateTime": 1509491251931, "trialdata": {"rt": [3077, 4524, 5949, 8188], "recwords": ["hedge", "freckle", "sausage", "hedge"], "type": "FREE_RECALL", "conditions": [24, 1600, "v", 24000], "trial": 3, "trial_type": "free-recall", "trial_index": 143, "time_elapsed": 649393, "internal_node_id": "0.0-107.0-0.0"}}, {"uniqueid": "MTK0195:3TUI152ZZCUSBMBTMFXJP6UXG43Q1K", "current_trial": 144, "dateTime": 1509491255027, "trialdata": {"rt": 1094, "key_press": 32, "type": "INSTRUCTIONS", "trial_type": "text", "trial_index": 144, "time_elapsed": 652493, "internal_node_id": "0.0-108.0"}}, {"uniqueid": "MTK0195:3TUI152ZZCUSBMBTMFXJP6UXG43Q1K", "current_trial": 145, "dateTime": 1509491269030, "trialdata": {"rt": [2044, 3364, 5508, 6957, 8436, 9980, 11780], "responses": ["19", "14", "18", "14", "10", "8", "18"], "num1": [9, 4, 9, 1, 4, 2, 3, 9], "num2": [7, 5, 6, 4, 3, 5, 8, 1], "num3": [3, 5, 3, 9, 3, 1, 7, 1], "type": "DISTRACTOR", "conditions": [24, 1600, "v", 12000], "trial": 4, "trial_type": "math-distractor", "trial_index": 145, "time_elapsed": 666497, "internal_node_id": "0.0-109.0"}}, {"uniqueid": "MTK0195:3TUI152ZZCUSBMBTMFXJP6UXG43Q1K", "current_trial": 146, "dateTime": 1509491272033, "trialdata": {"rt": -1, "stimulus": "<p id=\"stim\">10</p>", "key_press": -1, "trial_type": "single-stim", "trial_index": 146, "time_elapsed": 669500, "internal_node_id": "0.0-110.0-0.0"}}, {"uniqueid": "MTK0195:3TUI152ZZCUSBMBTMFXJP6UXG43Q1K", "current_trial": 147, "dateTime": 1509491273034, "trialdata": {"rt": -1, "stimulus": "<p id=\"stim\">9</p>", "key_press": -1, "trial_type": "single-stim", "trial_index": 147, "time_elapsed": 670501, "internal_node_id": "0.0-110.0-1.0"}}, {"uniqueid": "MTK0195:3TUI152ZZCUSBMBTMFXJP6UXG43Q1K", "current_trial": 148, "dateTime": 1509491274035, "trialdata": {"rt": -1, "stimulus": "<p id=\"stim\">8</p>", "key_press": -1, "trial_type": "single-stim", "trial_index": 148, "time_elapsed": 671502, "internal_node_id": "0.0-110.0-2.0"}}, {"uniqueid": "MTK0195:3TUI152ZZCUSBMBTMFXJP6UXG43Q1K", "current_trial": 149, "dateTime": 1509491275038, "trialdata": {"rt": -1, "stimulus": "<p id=\"stim\">7</p>", "key_press": -1, "trial_type": "single-stim", "trial_index": 149, "time_elapsed": 672504, "internal_node_id": "0.0-110.0-3.0"}}, {"uniqueid": "MTK0195:3TUI152ZZCUSBMBTMFXJP6UXG43Q1K", "current_trial": 150, "dateTime": 1509491276039, "trialdata": {"rt": -1, "stimulus": "<p id=\"stim\">6</p>", "key_press": -1, "trial_type": "single-stim", "trial_index": 150, "time_elapsed": 673506, "internal_node_id": "0.0-110.0-4.0"}}, {"uniqueid": "MTK0195:3TUI152ZZCUSBMBTMFXJP6UXG43Q1K", "current_trial": 151, "dateTime": 1509491277041, "trialdata": {"rt": -1, "stimulus": "<p id=\"stim\">5</p>", "key_press": -1, "trial_type": "single-stim", "trial_index": 151, "time_elapsed": 674508, "internal_node_id": "0.0-110.0-5.0"}}, {"uniqueid": "MTK0195:3TUI152ZZCUSBMBTMFXJP6UXG43Q1K", "current_trial": 152, "dateTime": 1509491278044, "trialdata": {"rt": -1, "stimulus": "<p id=\"stim\">4</p>", "key_press": -1, "trial_type": "single-stim", "trial_index": 152, "time_elapsed": 675510, "internal_node_id": "0.0-110.0-6.0"}}, {"uniqueid": "MTK0195:3TUI152ZZCUSBMBTMFXJP6UXG43Q1K", "current_trial": 153, "dateTime": 1509491279047, "trialdata": {"rt": -1, "stimulus": "<p id=\"stim\">3</p>", "key_press": -1, "trial_type": "single-stim", "trial_index": 153, "time_elapsed": 676512, "internal_node_id": "0.0-110.0-7.0"}}, {"uniqueid": "MTK0195:3TUI152ZZCUSBMBTMFXJP6UXG43Q1K", "current_trial": 154, "dateTime": 1509491280049, "trialdata": {"rt": -1, "stimulus": "<p id=\"stim\">2</p>", "key_press": -1, "trial_type": "single-stim", "trial_index": 154, "time_elapsed": 677516, "internal_node_id": "0.0-110.0-8.0"}}, {"uniqueid": "MTK0195:3TUI152ZZCUSBMBTMFXJP6UXG43Q1K", "current_trial": 155, "dateTime": 1509491281051, "trialdata": {"rt": -1, "stimulus": "<p id=\"stim\">1</p>", "key_press": -1, "trial_type": "single-stim", "trial_index": 155, "time_elapsed": 678518, "internal_node_id": "0.0-110.0-9.0"}}, {"uniqueid": "MTK0195:3TUI152ZZCUSBMBTMFXJP6UXG43Q1K", "current_trial": 156, "dateTime": 1509491282552, "trialdata": {"rt": -1, "stimulus": "<p id=\"stim\">+</p>", "key_press": -1, "type": "FIXATION", "trial_type": "single-stim", "trial_index": 156, "time_elapsed": 680019, "internal_node_id": "0.0-111.0-0.0"}}, {"uniqueid": "MTK0195:3TUI152ZZCUSBMBTMFXJP6UXG43Q1K", "current_trial": 157, "dateTime": 1509491284154, "trialdata": {"rt": -1, "stimulus": "<p id=\"stim\">SPIDER</p>", "key_press": -1, "type": "PRES_VIS", "word": "spider", "wordID": 1350, "conditions": [24, 1600, "v", 12000], "trial": 4, "serialpos": 0, "trial_type": "single-stim", "trial_index": 157, "time_elapsed": 681621, "internal_node_id": "0.0-112.0"}}, {"uniqueid": "MTK0195:3TUI152ZZCUSBMBTMFXJP6UXG43Q1K", "current_trial": 158, "dateTime": 1509491286945, "trialdata": {"rt": -1, "stimulus": "<p id=\"stim\">BOYFRIEND</p>", "key_press": -1, "type": "PRES_VIS", "word": "boyfriend", "wordID": 161, "conditions": [24, 1600, "v", 12000], "trial": 4, "serialpos": 1, "trial_type": "single-stim", "trial_index": 158, "time_elapsed": 684411, "internal_node_id": "0.0-113.0"}}, {"uniqueid": "MTK0195:3TUI152ZZCUSBMBTMFXJP6UXG43Q1K", "current_trial": 159, "dateTime": 1509491289428, "trialdata": {"rt": -1, "stimulus": "<p id=\"stim\">POSTAGE</p>", "key_press": -1, "type": "PRES_VIS", "word": "postage", "wordID": 1112, "conditions": [24, 1600, "v", 12000], "trial": 4, "serialpos": 2, "trial_type": "single-stim", "trial_index": 159, "time_elapsed": 686895, "internal_node_id": "0.0-114.0"}}, {"uniqueid": "MTK0195:3TUI152ZZCUSBMBTMFXJP6UXG43Q1K", "current_trial": 160, "dateTime": 1509491292038, "trialdata": {"rt": -1, "stimulus": "<p id=\"stim\">CREATURE</p>", "key_press": -1, "type": "PRES_VIS", "word": "creature", "wordID": 402, "conditions": [24, 1600, "v", 12000], "trial": 4, "serialpos": 3, "trial_type": "single-stim", "trial_index": 160, "time_elapsed": 689505, "internal_node_id": "0.0-115.0"}}, {"uniqueid": "MTK0195:3TUI152ZZCUSBMBTMFXJP6UXG43Q1K", "current_trial": 161, "dateTime": 1509491294705, "trialdata": {"rt": -1, "stimulus": "<p id=\"stim\">GOBLIN</p>", "key_press": -1, "type": "PRES_VIS", "word": "goblin", "wordID": 644, "conditions": [24, 1600, "v", 12000], "trial": 4, "serialpos": 4, "trial_type": "single-stim", "trial_index": 161, "time_elapsed": 692172, "internal_node_id": "0.0-116.0"}}, {"uniqueid": "MTK0195:3TUI152ZZCUSBMBTMFXJP6UXG43Q1K", "current_trial": 162, "dateTime": 1509491297193, "trialdata": {"rt": -1, "stimulus": "<p id=\"stim\">FIREPLACE</p>", "key_press": -1, "type": "PRES_VIS", "word": "fireplace", "wordID": 569, "conditions": [24, 1600, "v", 12000], "trial": 4, "serialpos": 5, "trial_type": "single-stim", "trial_index": 162, "time_elapsed": 694660, "internal_node_id": "0.0-117.0"}}, {"uniqueid": "MTK0195:3TUI152ZZCUSBMBTMFXJP6UXG43Q1K", "current_trial": 163, "dateTime": 1509491299654, "trialdata": {"rt": -1, "stimulus": "<p id=\"stim\">DORM</p>", "key_press": -1, "type": "PRES_VIS", "word": "dorm", "wordID": 487, "conditions": [24, 1600, "v", 12000], "trial": 4, "serialpos": 6, "trial_type": "single-stim", "trial_index": 163, "time_elapsed": 697121, "internal_node_id": "0.0-118.0"}}, {"uniqueid": "MTK0195:3TUI152ZZCUSBMBTMFXJP6UXG43Q1K", "current_trial": 164, "dateTime": 1509491302335, "trialdata": {"rt": -1, "stimulus": "<p id=\"stim\">STUDENT</p>", "key_press": -1, "type": "PRES_VIS", "word": "student", "wordID": 1394, "conditions": [24, 1600, "v", 12000], "trial": 4, "serialpos": 7, "trial_type": "single-stim", "trial_index": 164, "time_elapsed": 699802, "internal_node_id": "0.0-119.0"}}, {"uniqueid": "MTK0195:3TUI152ZZCUSBMBTMFXJP6UXG43Q1K", "current_trial": 165, "dateTime": 1509491305053, "trialdata": {"rt": -1, "stimulus": "<p id=\"stim\">PACKAGE</p>", "key_press": -1, "type": "PRES_VIS", "word": "package", "wordID": 996, "conditions": [24, 1600, "v", 12000], "trial": 4, "serialpos": 8, "trial_type": "single-stim", "trial_index": 165, "time_elapsed": 702520, "internal_node_id": "0.0-120.0"}}, {"uniqueid": "MTK0195:3TUI152ZZCUSBMBTMFXJP6UXG43Q1K", "current_trial": 166, "dateTime": 1509491307627, "trialdata": {"rt": -1, "stimulus": "<p id=\"stim\">ICING</p>", "key_press": -1, "type": "PRES_VIS", "word": "icing", "wordID": 731, "conditions": [24, 1600, "v", 12000], "trial": 4, "serialpos": 9, "trial_type": "single-stim", "trial_index": 166, "time_elapsed": 705094, "internal_node_id": "0.0-121.0"}}, {"uniqueid": "MTK0195:3TUI152ZZCUSBMBTMFXJP6UXG43Q1K", "current_trial": 167, "dateTime": 1509491310142, "trialdata": {"rt": -1, "stimulus": "<p id=\"stim\">TRUCK</p>", "key_press": -1, "type": "PRES_VIS", "word": "truck", "wordID": 1511, "conditions": [24, 1600, "v", 12000], "trial": 4, "serialpos": 10, "trial_type": "single-stim", "trial_index": 167, "time_elapsed": 707609, "internal_node_id": "0.0-122.0"}}, {"uniqueid": "MTK0195:3TUI152ZZCUSBMBTMFXJP6UXG43Q1K", "current_trial": 168, "dateTime": 1509491312566, "trialdata": {"rt": -1, "stimulus": "<p id=\"stim\">FLEET</p>", "key_press": -1, "type": "PRES_VIS", "word": "fleet", "wordID": 577, "conditions": [24, 1600, "v", 12000], "trial": 4, "serialpos": 11, "trial_type": "single-stim", "trial_index": 168, "time_elapsed": 710033, "internal_node_id": "0.0-123.0"}}, {"uniqueid": "MTK0195:3TUI152ZZCUSBMBTMFXJP6UXG43Q1K", "current_trial": 169, "dateTime": 1509491315143, "trialdata": {"rt": -1, "stimulus": "<p id=\"stim\">YARN</p>", "key_press": -1, "type": "PRES_VIS", "word": "yarn", "wordID": 1630, "conditions": [24, 1600, "v", 12000], "trial": 4, "serialpos": 12, "trial_type": "single-stim", "trial_index": 169, "time_elapsed": 712610, "internal_node_id": "0.0-124.0"}}, {"uniqueid": "MTK0195:3TUI152ZZCUSBMBTMFXJP6UXG43Q1K", "current_trial": 170, "dateTime": 1509491317701, "trialdata": {"rt": -1, "stimulus": "<p id=\"stim\">MUFFIN</p>", "key_press": -1, "type": "PRES_VIS", "word": "muffin", "wordID": 928, "conditions": [24, 1600, "v", 12000], "trial": 4, "serialpos": 13, "trial_type": "single-stim", "trial_index": 170, "time_elapsed": 715168, "internal_node_id": "0.0-125.0"}}, {"uniqueid": "MTK0195:3TUI152ZZCUSBMBTMFXJP6UXG43Q1K", "current_trial": 171, "dateTime": 1509491320218, "trialdata": {"rt": -1, "stimulus": "<p id=\"stim\">PORK</p>", "key_press": -1, "type": "PRES_VIS", "word": "pork", "wordID": 1107, "conditions": [24, 1600, "v", 12000], "trial": 4, "serialpos": 14, "trial_type": "single-stim", "trial_index": 171, "time_elapsed": 717685, "internal_node_id": "0.0-126.0"}}, {"uniqueid": "MTK0195:3TUI152ZZCUSBMBTMFXJP6UXG43Q1K", "current_trial": 172, "dateTime": 1509491322636, "trialdata": {"rt": -1, "stimulus": "<p id=\"stim\">ORCHID</p>", "key_press": -1, "type": "PRES_VIS", "word": "orchid", "wordID": 981, "conditions": [24, 1600, "v", 12000], "trial": 4, "serialpos": 15, "trial_type": "single-stim", "trial_index": 172, "time_elapsed": 720103, "internal_node_id": "0.0-127.0"}}, {"uniqueid": "MTK0195:3TUI152ZZCUSBMBTMFXJP6UXG43Q1K", "current_trial": 173, "dateTime": 1509491325105, "trialdata": {"rt": -1, "stimulus": "<p id=\"stim\">GARDEN</p>", "key_press": -1, "type": "PRES_VIS", "word": "garden", "wordID": 622, "conditions": [24, 1600, "v", 12000], "trial": 4, "serialpos": 16, "trial_type": "single-stim", "trial_index": 173, "time_elapsed": 722572, "internal_node_id": "0.0-128.0"}}, {"uniqueid": "MTK0195:3TUI152ZZCUSBMBTMFXJP6UXG43Q1K", "current_trial": 174, "dateTime": 1509491327648, "trialdata": {"rt": -1, "stimulus": "<p id=\"stim\">VIRUS</p>", "key_press": -1, "type": "PRES_VIS", "word": "virus", "wordID": 1571, "conditions": [24, 1600, "v", 12000], "trial": 4, "serialpos": 17, "trial_type": "single-stim", "trial_index": 174, "time_elapsed": 725115, "internal_node_id": "0.0-129.0"}}, {"uniqueid": "MTK0195:3TUI152ZZCUSBMBTMFXJP6UXG43Q1K", "current_trial": 175, "dateTime": 1509491330402, "trialdata": {"rt": -1, "stimulus": "<p id=\"stim\">LODGE</p>", "key_press": -1, "type": "PRES_VIS", "word": "lodge", "wordID": 838, "conditions": [24, 1600, "v", 12000], "trial": 4, "serialpos": 18, "trial_type": "single-stim", "trial_index": 175, "time_elapsed": 727869, "internal_node_id": "0.0-130.0"}}, {"uniqueid": "MTK0195:3TUI152ZZCUSBMBTMFXJP6UXG43Q1K", "current_trial": 176, "dateTime": 1509491332826, "trialdata": {"rt": -1, "stimulus": "<p id=\"stim\">BROTHER</p>", "key_press": -1, "type": "PRES_VIS", "word": "brother", "wordID": 178, "conditions": [24, 1600, "v", 12000], "trial": 4, "serialpos": 19, "trial_type": "single-stim", "trial_index": 176, "time_elapsed": 730293, "internal_node_id": "0.0-131.0"}}, {"uniqueid": "MTK0195:3TUI152ZZCUSBMBTMFXJP6UXG43Q1K", "current_trial": 177, "dateTime": 1509491335325, "trialdata": {"rt": -1, "stimulus": "<p id=\"stim\">BABY</p>", "key_press": -1, "type": "PRES_VIS", "word": "baby", "wordID": 63, "conditions": [24, 1600, "v", 12000], "trial": 4, "serialpos": 20, "trial_type": "single-stim", "trial_index": 177, "time_elapsed": 732792, "internal_node_id": "0.0-132.0"}}, {"uniqueid": "MTK0195:3TUI152ZZCUSBMBTMFXJP6UXG43Q1K", "current_trial": 178, "dateTime": 1509491338005, "trialdata": {"rt": -1, "stimulus": "<p id=\"stim\">TURKEY</p>", "key_press": -1, "type": "PRES_VIS", "word": "turkey", "wordID": 1519, "conditions": [24, 1600, "v", 12000], "trial": 4, "serialpos": 21, "trial_type": "single-stim", "trial_index": 178, "time_elapsed": 735472, "internal_node_id": "0.0-133.0"}}, {"uniqueid": "MTK0195:3TUI152ZZCUSBMBTMFXJP6UXG43Q1K", "current_trial": 179, "dateTime": 1509491340597, "trialdata": {"rt": -1, "stimulus": "<p id=\"stim\">MILDEW</p>", "key_press": -1, "type": "PRES_VIS", "word": "mildew", "wordID": 892, "conditions": [24, 1600, "v", 12000], "trial": 4, "serialpos": 22, "trial_type": "single-stim", "trial_index": 179, "time_elapsed": 738064, "internal_node_id": "0.0-134.0"}}, {"uniqueid": "MTK0195:3TUI152ZZCUSBMBTMFXJP6UXG43Q1K", "current_trial": 180, "dateTime": 1509491343142, "trialdata": {"rt": -1, "stimulus": "<p id=\"stim\">PADDLE</p>", "key_press": -1, "type": "PRES_VIS", "word": "paddle", "wordID": 999, "conditions": [24, 1600, "v", 12000], "trial": 4, "serialpos": 23, "trial_type": "single-stim", "trial_index": 180, "time_elapsed": 740609, "internal_node_id": "0.0-135.0"}}, {"uniqueid": "MTK0195:3TUI152ZZCUSBMBTMFXJP6UXG43Q1K", "current_trial": 181, "dateTime": 1509491345399, "trialdata": {"rt": -1, "stimulus": "", "key_press": -1, "type": "PRE_RECALL_DELAY", "trial_type": "single-stim", "trial_index": 181, "time_elapsed": 742866, "internal_node_id": "0.0-136.0-0.0"}}, {"uniqueid": "MTK0195:3TUI152ZZCUSBMBTMFXJP6UXG43Q1K", "current_trial": 182, "dateTime": 1509491345901, "trialdata": {"rt": -1000, "stimulus": "/static/audio/400Hz.wav", "key_press": -1, "type": "PRE_RECALL_ALERT", "trial_type": "single-audio", "trial_index": 182, "time_elapsed": 743368, "internal_node_id": "0.0-137.0"}}, {"uniqueid": "MTK0195:3TUI152ZZCUSBMBTMFXJP6UXG43Q1K", "current_trial": 183, "dateTime": 1509491405912, "trialdata": {"rt": [2755, 4795, 7187, 17378, 25547, 48275], "recwords": ["brother", "baby", "spider", "tree", "paper", "yarn"], "type": "FREE_RECALL", "conditions": [24, 1600, "v", 12000], "trial": 4, "trial_type": "free-recall", "trial_index": 183, "time_elapsed": 803372, "internal_node_id": "0.0-138.0-0.0"}}, {"uniqueid": "MTK0195:3TUI152ZZCUSBMBTMFXJP6UXG43Q1K", "current_trial": 184, "dateTime": 1509491409059, "trialdata": {"rt": 1145, "key_press": 32, "type": "INSTRUCTIONS", "trial_type": "text", "trial_index": 184, "time_elapsed": 806526, "internal_node_id": "0.0-139.0"}}, {"uniqueid": "MTK0195:3TUI152ZZCUSBMBTMFXJP6UXG43Q1K", "current_trial": 185, "dateTime": 1509491423064, "trialdata": {"rt": [2923, 5339, 10003], "responses": ["19", "12", "24"], "num1": [8, 4, 9, 3], "num2": [6, 7, 7, 9], "num3": [5, 1, 8, 4], "type": "DISTRACTOR", "conditions": [24, 800, "a", 12000], "trial": 5, "trial_type": "math-distractor", "trial_index": 185, "time_elapsed": 820531, "internal_node_id": "0.0-140.0"}}, {"uniqueid": "MTK0195:3TUI152ZZCUSBMBTMFXJP6UXG43Q1K", "current_trial": 186, "dateTime": 1509491426066, "trialdata": {"rt": -1, "stimulus": "<p id=\"stim\">10</p>", "key_press": -1, "trial_type": "single-stim", "trial_index": 186, "time_elapsed": 823533, "internal_node_id": "0.0-141.0-0.0"}}, {"uniqueid": "MTK0195:3TUI152ZZCUSBMBTMFXJP6UXG43Q1K", "current_trial": 187, "dateTime": 1509491427068, "trialdata": {"rt": -1, "stimulus": "<p id=\"stim\">9</p>", "key_press": -1, "trial_type": "single-stim", "trial_index": 187, "time_elapsed": 824535, "internal_node_id": "0.0-141.0-1.0"}}, {"uniqueid": "MTK0195:3TUI152ZZCUSBMBTMFXJP6UXG43Q1K", "current_trial": 188, "dateTime": 1509491428070, "trialdata": {"rt": -1, "stimulus": "<p id=\"stim\">8</p>", "key_press": -1, "trial_type": "single-stim", "trial_index": 188, "time_elapsed": 825537, "internal_node_id": "0.0-141.0-2.0"}}, {"uniqueid": "MTK0195:3TUI152ZZCUSBMBTMFXJP6UXG43Q1K", "current_trial": 189, "dateTime": 1509491429072, "trialdata": {"rt": -1, "stimulus": "<p id=\"stim\">7</p>", "key_press": -1, "trial_type": "single-stim", "trial_index": 189, "time_elapsed": 826539, "internal_node_id": "0.0-141.0-3.0"}}, {"uniqueid": "MTK0195:3TUI152ZZCUSBMBTMFXJP6UXG43Q1K", "current_trial": 190, "dateTime": 1509491430074, "trialdata": {"rt": -1, "stimulus": "<p id=\"stim\">6</p>", "key_press": -1, "trial_type": "single-stim", "trial_index": 190, "time_elapsed": 827541, "internal_node_id": "0.0-141.0-4.0"}}, {"uniqueid": "MTK0195:3TUI152ZZCUSBMBTMFXJP6UXG43Q1K", "current_trial": 191, "dateTime": 1509491431076, "trialdata": {"rt": -1, "stimulus": "<p id=\"stim\">5</p>", "key_press": -1, "trial_type": "single-stim", "trial_index": 191, "time_elapsed": 828543, "internal_node_id": "0.0-141.0-5.0"}}, {"uniqueid": "MTK0195:3TUI152ZZCUSBMBTMFXJP6UXG43Q1K", "current_trial": 192, "dateTime": 1509491432077, "trialdata": {"rt": -1, "stimulus": "<p id=\"stim\">4</p>", "key_press": -1, "trial_type": "single-stim", "trial_index": 192, "time_elapsed": 829544, "internal_node_id": "0.0-141.0-6.0"}}, {"uniqueid": "MTK0195:3TUI152ZZCUSBMBTMFXJP6UXG43Q1K", "current_trial": 193, "dateTime": 1509491433079, "trialdata": {"rt": -1, "stimulus": "<p id=\"stim\">3</p>", "key_press": -1, "trial_type": "single-stim", "trial_index": 193, "time_elapsed": 830546, "internal_node_id": "0.0-141.0-7.0"}}, {"uniqueid": "MTK0195:3TUI152ZZCUSBMBTMFXJP6UXG43Q1K", "current_trial": 194, "dateTime": 1509491434080, "trialdata": {"rt": -1, "stimulus": "<p id=\"stim\">2</p>", "key_press": -1, "trial_type": "single-stim", "trial_index": 194, "time_elapsed": 831547, "internal_node_id": "0.0-141.0-8.0"}}, {"uniqueid": "MTK0195:3TUI152ZZCUSBMBTMFXJP6UXG43Q1K", "current_trial": 195, "dateTime": 1509491435082, "trialdata": {"rt": -1, "stimulus": "<p id=\"stim\">1</p>", "key_press": -1, "trial_type": "single-stim", "trial_index": 195, "time_elapsed": 832549, "internal_node_id": "0.0-141.0-9.0"}}, {"uniqueid": "MTK0195:3TUI152ZZCUSBMBTMFXJP6UXG43Q1K", "current_trial": 196, "dateTime": 1509491436584, "trialdata": {"rt": -1, "stimulus": "<p id=\"stim\">+</p>", "key_press": -1, "type": "FIXATION", "trial_type": "single-stim", "trial_index": 196, "time_elapsed": 834051, "internal_node_id": "0.0-142.0-0.0"}}, {"uniqueid": "MTK0195:3TUI152ZZCUSBMBTMFXJP6UXG43Q1K", "current_trial": 197, "dateTime": 1509491438422, "trialdata": {"rt": -1000, "stimulus": "/static/audio/wordpool/SILK.wav", "key_press": -1, "type": "PRES_AUD", "word": "silk", "wordID": 1306, "conditions": [24, 800, "a", 12000], "trial": 5, "serialpos": 0, "trial_type": "single-audio", "trial_index": 197, "time_elapsed": 835889, "internal_node_id": "0.0-143.0"}}, {"uniqueid": "MTK0195:3TUI152ZZCUSBMBTMFXJP6UXG43Q1K", "current_trial": 198, "dateTime": 1509491440060, "trialdata": {"rt": -1000, "stimulus": "/static/audio/wordpool/APRON.wav", "key_press": -1, "type": "PRES_AUD", "word": "apron", "wordID": 34, "conditions": [24, 800, "a", 12000], "trial": 5, "serialpos": 1, "trial_type": "single-audio", "trial_index": 198, "time_elapsed": 837527, "internal_node_id": "0.0-144.0"}}, {"uniqueid": "MTK0195:3TUI152ZZCUSBMBTMFXJP6UXG43Q1K", "current_trial": 199, "dateTime": 1509491441939, "trialdata": {"rt": -1000, "stimulus": "/static/audio/wordpool/KNAPSACK.wav", "key_press": -1, "type": "PRES_AUD", "word": "knapsack", "wordID": 782, "conditions": [24, 800, "a", 12000], "trial": 5, "serialpos": 2, "trial_type": "single-audio", "trial_index": 199, "time_elapsed": 839406, "internal_node_id": "0.0-145.0"}}, {"uniqueid": "MTK0195:3TUI152ZZCUSBMBTMFXJP6UXG43Q1K", "current_trial": 200, "dateTime": 1509491443703, "trialdata": {"rt": -1000, "stimulus": "/static/audio/wordpool/GRAPE.wav", "key_press": -1, "type": "PRES_AUD", "word": "grape", "wordID": 653, "conditions": [24, 800, "a", 12000], "trial": 5, "serialpos": 3, "trial_type": "single-audio", "trial_index": 200, "time_elapsed": 841170, "internal_node_id": "0.0-146.0"}}, {"uniqueid": "MTK0195:3TUI152ZZCUSBMBTMFXJP6UXG43Q1K", "current_trial": 201, "dateTime": 1509491445363, "trialdata": {"rt": -1000, "stimulus": "/static/audio/wordpool/PERCH.wav", "key_press": -1, "type": "PRES_AUD", "word": "perch", "wordID": 1047, "conditions": [24, 800, "a", 12000], "trial": 5, "serialpos": 4, "trial_type": "single-audio", "trial_index": 201, "time_elapsed": 842829, "internal_node_id": "0.0-147.0"}}, {"uniqueid": "MTK0195:3TUI152ZZCUSBMBTMFXJP6UXG43Q1K", "current_trial": 202, "dateTime": 1509491447241, "trialdata": {"rt": -1000, "stimulus": "/static/audio/wordpool/RIFLE.wav", "key_press": -1, "type": "PRES_AUD", "word": "rifle", "wordID": 1191, "conditions": [24, 800, "a", 12000], "trial": 5, "serialpos": 5, "trial_type": "single-audio", "trial_index": 202, "time_elapsed": 844707, "internal_node_id": "0.0-148.0"}}, {"uniqueid": "MTK0195:3TUI152ZZCUSBMBTMFXJP6UXG43Q1K", "current_trial": 203, "dateTime": 1509491449235, "trialdata": {"rt": -1000, "stimulus": "/static/audio/wordpool/CITRUS.wav", "key_press": -1, "type": "PRES_AUD", "word": "citrus", "wordID": 312, "conditions": [24, 800, "a", 12000], "trial": 5, "serialpos": 6, "trial_type": "single-audio", "trial_index": 203, "time_elapsed": 846701, "internal_node_id": "0.0-149.0"}}, {"uniqueid": "MTK0195:3TUI152ZZCUSBMBTMFXJP6UXG43Q1K", "current_trial": 204, "dateTime": 1509491450945, "trialdata": {"rt": -1000, "stimulus": "/static/audio/wordpool/COOK.wav", "key_press": -1, "type": "PRES_AUD", "word": "cook", "wordID": 371, "conditions": [24, 800, "a", 12000], "trial": 5, "serialpos": 7, "trial_type": "single-audio", "trial_index": 204, "time_elapsed": 848412, "internal_node_id": "0.0-150.0"}}, {"uniqueid": "MTK0195:3TUI152ZZCUSBMBTMFXJP6UXG43Q1K", "current_trial": 205, "dateTime": 1509491452729, "trialdata": {"rt": -1000, "stimulus": "/static/audio/wordpool/GRILL.wav", "key_press": -1, "type": "PRES_AUD", "word": "grill", "wordID": 660, "conditions": [24, 800, "a", 12000], "trial": 5, "serialpos": 8, "trial_type": "single-audio", "trial_index": 205, "time_elapsed": 850196, "internal_node_id": "0.0-151.0"}}, {"uniqueid": "MTK0195:3TUI152ZZCUSBMBTMFXJP6UXG43Q1K", "current_trial": 206, "dateTime": 1509491454406, "trialdata": {"rt": -1000, "stimulus": "/static/audio/wordpool/FOREHEAD.wav", "key_press": -1, "type": "PRES_AUD", "word": "forehead", "wordID": 591, "conditions": [24, 800, "a", 12000], "trial": 5, "serialpos": 9, "trial_type": "single-audio", "trial_index": 206, "time_elapsed": 851873, "internal_node_id": "0.0-152.0"}}, {"uniqueid": "MTK0195:3TUI152ZZCUSBMBTMFXJP6UXG43Q1K", "current_trial": 207, "dateTime": 1509491456176, "trialdata": {"rt": -1000, "stimulus": "/static/audio/wordpool/NOVEL.wav", "key_press": -1, "type": "PRES_AUD", "word": "novel", "wordID": 959, "conditions": [24, 800, "a", 12000], "trial": 5, "serialpos": 10, "trial_type": "single-audio", "trial_index": 207, "time_elapsed": 853643, "internal_node_id": "0.0-153.0"}}, {"uniqueid": "MTK0195:3TUI152ZZCUSBMBTMFXJP6UXG43Q1K", "current_trial": 208, "dateTime": 1509491457895, "trialdata": {"rt": -1000, "stimulus": "/static/audio/wordpool/STOVE.wav", "key_press": -1, "type": "PRES_AUD", "word": "stove", "wordID": 1387, "conditions": [24, 800, "a", 12000], "trial": 5, "serialpos": 11, "trial_type": "single-audio", "trial_index": 208, "time_elapsed": 855361, "internal_node_id": "0.0-154.0"}}, {"uniqueid": "MTK0195:3TUI152ZZCUSBMBTMFXJP6UXG43Q1K", "current_trial": 209, "dateTime": 1509491459673, "trialdata": {"rt": -1000, "stimulus": "/static/audio/wordpool/WAGON.wav", "key_press": -1, "type": "PRES_AUD", "word": "wagon", "wordID": 1577, "conditions": [24, 800, "a", 12000], "trial": 5, "serialpos": 12, "trial_type": "single-audio", "trial_index": 209, "time_elapsed": 857140, "internal_node_id": "0.0-155.0"}}, {"uniqueid": "MTK0195:3TUI152ZZCUSBMBTMFXJP6UXG43Q1K", "current_trial": 210, "dateTime": 1509491461514, "trialdata": {"rt": -1000, "stimulus": "/static/audio/wordpool/TRACTOR.wav", "key_press": -1, "type": "PRES_AUD", "word": "tractor", "wordID": 1492, "conditions": [24, 800, "a", 12000], "trial": 5, "serialpos": 13, "trial_type": "single-audio", "trial_index": 210, "time_elapsed": 858981, "internal_node_id": "0.0-156.0"}}, {"uniqueid": "MTK0195:3TUI152ZZCUSBMBTMFXJP6UXG43Q1K", "current_trial": 211, "dateTime": 1509491463316, "trialdata": {"rt": -1000, "stimulus": "/static/audio/wordpool/SALMON.wav", "key_press": -1, "type": "PRES_AUD", "word": "salmon", "wordID": 1226, "conditions": [24, 800, "a", 12000], "trial": 5, "serialpos": 14, "trial_type": "single-audio", "trial_index": 211, "time_elapsed": 860783, "internal_node_id": "0.0-157.0"}}, {"uniqueid": "MTK0195:3TUI152ZZCUSBMBTMFXJP6UXG43Q1K", "current_trial": 212, "dateTime": 1509491465119, "trialdata": {"rt": -1000, "stimulus": "/static/audio/wordpool/FRIEND.wav", "key_press": -1, "type": "PRES_AUD", "word": "friend", "wordID": 605, "conditions": [24, 800, "a", 12000], "trial": 5, "serialpos": 15, "trial_type": "single-audio", "trial_index": 212, "time_elapsed": 862586, "internal_node_id": "0.0-158.0"}}, {"uniqueid": "MTK0195:3TUI152ZZCUSBMBTMFXJP6UXG43Q1K", "current_trial": 213, "dateTime": 1509491466841, "trialdata": {"rt": -1000, "stimulus": "/static/audio/wordpool/DRESSER.wav", "key_press": -1, "type": "PRES_AUD", "word": "dresser", "wordID": 495, "conditions": [24, 800, "a", 12000], "trial": 5, "serialpos": 16, "trial_type": "single-audio", "trial_index": 213, "time_elapsed": 864308, "internal_node_id": "0.0-159.0"}}, {"uniqueid": "MTK0195:3TUI152ZZCUSBMBTMFXJP6UXG43Q1K", "current_trial": 214, "dateTime": 1509491468503, "trialdata": {"rt": -1000, "stimulus": "/static/audio/wordpool/CASHIER.wav", "key_press": -1, "type": "PRES_AUD", "word": "cashier", "wordID": 253, "conditions": [24, 800, "a", 12000], "trial": 5, "serialpos": 17, "trial_type": "single-audio", "trial_index": 214, "time_elapsed": 865970, "internal_node_id": "0.0-160.0"}}, {"uniqueid": "MTK0195:3TUI152ZZCUSBMBTMFXJP6UXG43Q1K", "current_trial": 215, "dateTime": 1509491470468, "trialdata": {"rt": -1000, "stimulus": "/static/audio/wordpool/ANKLE.wav", "key_press": -1, "type": "PRES_AUD", "word": "ankle", "wordID": 23, "conditions": [24, 800, "a", 12000], "trial": 5, "serialpos": 18, "trial_type": "single-audio", "trial_index": 215, "time_elapsed": 867935, "internal_node_id": "0.0-161.0"}}, {"uniqueid": "MTK0195:3TUI152ZZCUSBMBTMFXJP6UXG43Q1K", "current_trial": 216, "dateTime": 1509491472108, "trialdata": {"rt": -1000, "stimulus": "/static/audio/wordpool/TURTLE.wav", "key_press": -1, "type": "PRES_AUD", "word": "turtle", "wordID": 1521, "conditions": [24, 800, "a", 12000], "trial": 5, "serialpos": 19, "trial_type": "single-audio", "trial_index": 216, "time_elapsed": 869575, "internal_node_id": "0.0-162.0"}}, {"uniqueid": "MTK0195:3TUI152ZZCUSBMBTMFXJP6UXG43Q1K", "current_trial": 217, "dateTime": 1509491474102, "trialdata": {"rt": -1000, "stimulus": "/static/audio/wordpool/EXPERT.wav", "key_press": -1, "type": "PRES_AUD", "word": "expert", "wordID": 542, "conditions": [24, 800, "a", 12000], "trial": 5, "serialpos": 20, "trial_type": "single-audio", "trial_index": 217, "time_elapsed": 871568, "internal_node_id": "0.0-163.0"}}, {"uniqueid": "MTK0195:3TUI152ZZCUSBMBTMFXJP6UXG43Q1K", "current_trial": 218, "dateTime": 1509491475839, "trialdata": {"rt": -1000, "stimulus": "/static/audio/wordpool/ATOM.wav", "key_press": -1, "type": "PRES_AUD", "word": "atom", "wordID": 54, "conditions": [24, 800, "a", 12000], "trial": 5, "serialpos": 21, "trial_type": "single-audio", "trial_index": 218, "time_elapsed": 873305, "internal_node_id": "0.0-164.0"}}, {"uniqueid": "MTK0195:3TUI152ZZCUSBMBTMFXJP6UXG43Q1K", "current_trial": 219, "dateTime": 1509491477509, "trialdata": {"rt": -1000, "stimulus": "/static/audio/wordpool/RUST.wav", "key_press": -1, "type": "PRES_AUD", "word": "rust", "wordID": 1218, "conditions": [24, 800, "a", 12000], "trial": 5, "serialpos": 22, "trial_type": "single-audio", "trial_index": 219, "time_elapsed": 874976, "internal_node_id": "0.0-165.0"}}, {"uniqueid": "MTK0195:3TUI152ZZCUSBMBTMFXJP6UXG43Q1K", "current_trial": 220, "dateTime": 1509491479472, "trialdata": {"rt": -1000, "stimulus": "/static/audio/wordpool/COD.wav", "key_press": -1, "type": "PRES_AUD", "word": "cod", "wordID": 339, "conditions": [24, 800, "a", 12000], "trial": 5, "serialpos": 23, "trial_type": "single-audio", "trial_index": 220, "time_elapsed": 876938, "internal_node_id": "0.0-166.0"}}, {"uniqueid": "MTK0195:3TUI152ZZCUSBMBTMFXJP6UXG43Q1K", "current_trial": 221, "dateTime": 1509491480836, "trialdata": {"rt": -1, "stimulus": "", "key_press": -1, "type": "PRE_RECALL_DELAY", "trial_type": "single-stim", "trial_index": 221, "time_elapsed": 878303, "internal_node_id": "0.0-167.0-0.0"}}, {"uniqueid": "MTK0195:3TUI152ZZCUSBMBTMFXJP6UXG43Q1K", "current_trial": 222, "dateTime": 1509491481340, "trialdata": {"rt": -1000, "stimulus": "/static/audio/400Hz.wav", "key_press": -1, "type": "PRE_RECALL_ALERT", "trial_type": "single-audio", "trial_index": 222, "time_elapsed": 878805, "internal_node_id": "0.0-168.0"}}, {"uniqueid": "MTK0195:3TUI152ZZCUSBMBTMFXJP6UXG43Q1K", "current_trial": 223, "dateTime": 1509491541350, "trialdata": {"rt": [1613, 3070, 7013, 9212, 12101, 40325], "recwords": ["rust", "apron", "tractor", "cashier", "grill", "friend"], "type": "FREE_RECALL", "conditions": [24, 800, "a", 12000], "trial": 5, "trial_type": "free-recall", "trial_index": 223, "time_elapsed": 938811, "internal_node_id": "0.0-169.0-0.0"}}, {"uniqueid": "MTK0195:3TUI152ZZCUSBMBTMFXJP6UXG43Q1K", "current_trial": 224, "dateTime": 1509491545188, "trialdata": {"rt": 1836, "key_press": 32, "type": "INSTRUCTIONS", "trial_type": "text", "trial_index": 224, "time_elapsed": 942654, "internal_node_id": "0.0-170.0"}}, {"uniqueid": "MTK0195:3TUI152ZZCUSBMBTMFXJP6UXG43Q1K", "current_trial": 225, "dateTime": 1509491559193, "trialdata": {"rt": [5115, 6740, 8348, 10124], "responses": ["19", "17", "19", "13"], "num1": [8, 1, 6, 6, 9], "num2": [5, 9, 9, 1, 9], "num3": [9, 7, 4, 6, 7], "type": "DISTRACTOR", "conditions": [24, 800, "v", 12000], "trial": 6, "trial_type": "math-distractor", "trial_index": 225, "time_elapsed": 956660, "internal_node_id": "0.0-171.0"}}, {"uniqueid": "MTK0195:3TUI152ZZCUSBMBTMFXJP6UXG43Q1K", "current_trial": 226, "dateTime": 1509491562196, "trialdata": {"rt": -1, "stimulus": "<p id=\"stim\">10</p>", "key_press": -1, "trial_type": "single-stim", "trial_index": 226, "time_elapsed": 959663, "internal_node_id": "0.0-172.0-0.0"}}, {"uniqueid": "MTK0195:3TUI152ZZCUSBMBTMFXJP6UXG43Q1K", "current_trial": 227, "dateTime": 1509491563198, "trialdata": {"rt": -1, "stimulus": "<p id=\"stim\">9</p>", "key_press": -1, "trial_type": "single-stim", "trial_index": 227, "time_elapsed": 960664, "internal_node_id": "0.0-172.0-1.0"}}, {"uniqueid": "MTK0195:3TUI152ZZCUSBMBTMFXJP6UXG43Q1K", "current_trial": 228, "dateTime": 1509491564199, "trialdata": {"rt": -1, "stimulus": "<p id=\"stim\">8</p>", "key_press": -1, "trial_type": "single-stim", "trial_index": 228, "time_elapsed": 961666, "internal_node_id": "0.0-172.0-2.0"}}, {"uniqueid": "MTK0195:3TUI152ZZCUSBMBTMFXJP6UXG43Q1K", "current_trial": 229, "dateTime": 1509491565199, "trialdata": {"rt": 162, "stimulus": "<p id=\"stim\">7</p>", "key_press": 175, "trial_type": "single-stim", "trial_index": 229, "time_elapsed": 962666, "internal_node_id": "0.0-172.0-3.0"}}, {"uniqueid": "MTK0195:3TUI152ZZCUSBMBTMFXJP6UXG43Q1K", "current_trial": 230, "dateTime": 1509491566202, "trialdata": {"rt": 188, "stimulus": "<p id=\"stim\">6</p>", "key_press": 175, "trial_type": "single-stim", "trial_index": 230, "time_elapsed": 963668, "internal_node_id": "0.0-172.0-4.0"}}, {"uniqueid": "MTK0195:3TUI152ZZCUSBMBTMFXJP6UXG43Q1K", "current_trial": 231, "dateTime": 1509491567203, "trialdata": {"rt": -1, "stimulus": "<p id=\"stim\">5</p>", "key_press": -1, "trial_type": "single-stim", "trial_index": 231, "time_elapsed": 964670, "internal_node_id": "0.0-172.0-5.0"}}, {"uniqueid": "MTK0195:3TUI152ZZCUSBMBTMFXJP6UXG43Q1K", "current_trial": 232, "dateTime": 1509491568205, "trialdata": {"rt": -1, "stimulus": "<p id=\"stim\">4</p>", "key_press": -1, "trial_type": "single-stim", "trial_index": 232, "time_elapsed": 965672, "internal_node_id": "0.0-172.0-6.0"}}, {"uniqueid": "MTK0195:3TUI152ZZCUSBMBTMFXJP6UXG43Q1K", "current_trial": 233, "dateTime": 1509491569207, "trialdata": {"rt": -1, "stimulus": "<p id=\"stim\">3</p>", "key_press": -1, "trial_type": "single-stim", "trial_index": 233, "time_elapsed": 966674, "internal_node_id": "0.0-172.0-7.0"}}, {"uniqueid": "MTK0195:3TUI152ZZCUSBMBTMFXJP6UXG43Q1K", "current_trial": 234, "dateTime": 1509491570209, "trialdata": {"rt": -1, "stimulus": "<p id=\"stim\">2</p>", "key_press": -1, "trial_type": "single-stim", "trial_index": 234, "time_elapsed": 967676, "internal_node_id": "0.0-172.0-8.0"}}, {"uniqueid": "MTK0195:3TUI152ZZCUSBMBTMFXJP6UXG43Q1K", "current_trial": 235, "dateTime": 1509491571212, "trialdata": {"rt": -1, "stimulus": "<p id=\"stim\">1</p>", "key_press": -1, "trial_type": "single-stim", "trial_index": 235, "time_elapsed": 968679, "internal_node_id": "0.0-172.0-9.0"}}, {"uniqueid": "MTK0195:3TUI152ZZCUSBMBTMFXJP6UXG43Q1K", "current_trial": 236, "dateTime": 1509491572716, "trialdata": {"rt": -1, "stimulus": "<p id=\"stim\">+</p>", "key_press": -1, "type": "FIXATION", "trial_type": "single-stim", "trial_index": 236, "time_elapsed": 970181, "internal_node_id": "0.0-173.0-0.0"}}, {"uniqueid": "MTK0195:3TUI152ZZCUSBMBTMFXJP6UXG43Q1K", "current_trial": 237, "dateTime": 1509491573517, "trialdata": {"rt": -1, "stimulus": "<p id=\"stim\">MAILMAN</p>", "key_press": -1, "type": "PRES_VIS", "word": "mailman", "wordID": 857, "conditions": [24, 800, "v", 12000], "trial": 6, "serialpos": 0, "trial_type": "single-stim", "trial_index": 237, "time_elapsed": 970984, "internal_node_id": "0.0-174.0"}}, {"uniqueid": "MTK0195:3TUI152ZZCUSBMBTMFXJP6UXG43Q1K", "current_trial": 238, "dateTime": 1509491575373, "trialdata": {"rt": -1, "stimulus": "<p id=\"stim\">ACTRESS</p>", "key_press": -1, "type": "PRES_VIS", "word": "actress", "wordID": 5, "conditions": [24, 800, "v", 12000], "trial": 6, "serialpos": 1, "trial_type": "single-stim", "trial_index": 238, "time_elapsed": 972840, "internal_node_id": "0.0-175.0"}}, {"uniqueid": "MTK0195:3TUI152ZZCUSBMBTMFXJP6UXG43Q1K", "current_trial": 239, "dateTime": 1509491577167, "trialdata": {"rt": -1, "stimulus": "<p id=\"stim\">GARLIC</p>", "key_press": -1, "type": "PRES_VIS", "word": "garlic", "wordID": 623, "conditions": [24, 800, "v", 12000], "trial": 6, "serialpos": 2, "trial_type": "single-stim", "trial_index": 239, "time_elapsed": 974634, "internal_node_id": "0.0-176.0"}}, {"uniqueid": "MTK0195:3TUI152ZZCUSBMBTMFXJP6UXG43Q1K", "current_trial": 240, "dateTime": 1509491578862, "trialdata": {"rt": -1, "stimulus": "<p id=\"stim\">SHRUB</p>", "key_press": -1, "type": "PRES_VIS", "word": "shrub", "wordID": 1298, "conditions": [24, 800, "v", 12000], "trial": 6, "serialpos": 3, "trial_type": "single-stim", "trial_index": 240, "time_elapsed": 976329, "internal_node_id": "0.0-177.0"}}, {"uniqueid": "MTK0195:3TUI152ZZCUSBMBTMFXJP6UXG43Q1K", "current_trial": 241, "dateTime": 1509491580778, "trialdata": {"rt": -1, "stimulus": "<p id=\"stim\">CATTLE</p>", "key_press": -1, "type": "PRES_VIS", "word": "cattle", "wordID": 260, "conditions": [24, 800, "v", 12000], "trial": 6, "serialpos": 4, "trial_type": "single-stim", "trial_index": 241, "time_elapsed": 978245, "internal_node_id": "0.0-178.0"}}, {"uniqueid": "MTK0195:3TUI152ZZCUSBMBTMFXJP6UXG43Q1K", "current_trial": 242, "dateTime": 1509491582538, "trialdata": {"rt": -1, "stimulus": "<p id=\"stim\">ZIPPER</p>", "key_press": -1, "type": "PRES_VIS", "word": "zipper", "wordID": 1635, "conditions": [24, 800, "v", 12000], "trial": 6, "serialpos": 5, "trial_type": "single-stim", "trial_index": 242, "time_elapsed": 980005, "internal_node_id": "0.0-179.0"}}, {"uniqueid": "MTK0195:3TUI152ZZCUSBMBTMFXJP6UXG43Q1K", "current_trial": 243, "dateTime": 1509491584391, "trialdata": {"rt": -1, "stimulus": "<p id=\"stim\">KETCHUP</p>", "key_press": -1, "type": "PRES_VIS", "word": "ketchup", "wordID": 770, "conditions": [24, 800, "v", 12000], "trial": 6, "serialpos": 6, "trial_type": "single-stim", "trial_index": 243, "time_elapsed": 981858, "internal_node_id": "0.0-180.0"}}, {"uniqueid": "MTK0195:3TUI152ZZCUSBMBTMFXJP6UXG43Q1K", "current_trial": 244, "dateTime": 1509491586253, "trialdata": {"rt": -1, "stimulus": "<p id=\"stim\">DENIM</p>", "key_press": -1, "type": "PRES_VIS", "word": "denim", "wordID": 445, "conditions": [24, 800, "v", 12000], "trial": 6, "serialpos": 7, "trial_type": "single-stim", "trial_index": 244, "time_elapsed": 983720, "internal_node_id": "0.0-181.0"}}, {"uniqueid": "MTK0195:3TUI152ZZCUSBMBTMFXJP6UXG43Q1K", "current_trial": 245, "dateTime": 1509491587969, "trialdata": {"rt": -1, "stimulus": "<p id=\"stim\">PEPPER</p>", "key_press": -1, "type": "PRES_VIS", "word": "pepper", "wordID": 1046, "conditions": [24, 800, "v", 12000], "trial": 6, "serialpos": 8, "trial_type": "single-stim", "trial_index": 245, "time_elapsed": 985436, "internal_node_id": "0.0-182.0"}}, {"uniqueid": "MTK0195:3TUI152ZZCUSBMBTMFXJP6UXG43Q1K", "current_trial": 246, "dateTime": 1509491589814, "trialdata": {"rt": -1, "stimulus": "<p id=\"stim\">WORKER</p>", "key_press": -1, "type": "PRES_VIS", "word": "worker", "wordID": 1620, "conditions": [24, 800, "v", 12000], "trial": 6, "serialpos": 9, "trial_type": "single-stim", "trial_index": 246, "time_elapsed": 987281, "internal_node_id": "0.0-183.0"}}, {"uniqueid": "MTK0195:3TUI152ZZCUSBMBTMFXJP6UXG43Q1K", "current_trial": 247, "dateTime": 1509491591787, "trialdata": {"rt": -1, "stimulus": "<p id=\"stim\">SHORTCAKE</p>", "key_press": -1, "type": "PRES_VIS", "word": "shortcake", "wordID": 1291, "conditions": [24, 800, "v", 12000], "trial": 6, "serialpos": 10, "trial_type": "single-stim", "trial_index": 247, "time_elapsed": 989253, "internal_node_id": "0.0-184.0"}}, {"uniqueid": "MTK0195:3TUI152ZZCUSBMBTMFXJP6UXG43Q1K", "current_trial": 248, "dateTime": 1509491593393, "trialdata": {"rt": -1, "stimulus": "<p id=\"stim\">CUSTARD</p>", "key_press": -1, "type": "PRES_VIS", "word": "custard", "wordID": 428, "conditions": [24, 800, "v", 12000], "trial": 6, "serialpos": 11, "trial_type": "single-stim", "trial_index": 248, "time_elapsed": 990860, "internal_node_id": "0.0-185.0"}}, {"uniqueid": "MTK0195:3TUI152ZZCUSBMBTMFXJP6UXG43Q1K", "current_trial": 249, "dateTime": 1509491595093, "trialdata": {"rt": -1, "stimulus": "<p id=\"stim\">HERO</p>", "key_press": -1, "type": "PRES_VIS", "word": "hero", "wordID": 705, "conditions": [24, 800, "v", 12000], "trial": 6, "serialpos": 12, "trial_type": "single-stim", "trial_index": 249, "time_elapsed": 992559, "internal_node_id": "0.0-186.0"}}, {"uniqueid": "MTK0195:3TUI152ZZCUSBMBTMFXJP6UXG43Q1K", "current_trial": 250, "dateTime": 1509491597027, "trialdata": {"rt": -1, "stimulus": "<p id=\"stim\">BUCKET</p>", "key_press": -1, "type": "PRES_VIS", "word": "bucket", "wordID": 183, "conditions": [24, 800, "v", 12000], "trial": 6, "serialpos": 13, "trial_type": "single-stim", "trial_index": 250, "time_elapsed": 994493, "internal_node_id": "0.0-187.0"}}, {"uniqueid": "MTK0195:3TUI152ZZCUSBMBTMFXJP6UXG43Q1K", "current_trial": 251, "dateTime": 1509491598666, "trialdata": {"rt": -1, "stimulus": "<p id=\"stim\">SWIMMER</p>", "key_press": -1, "type": "PRES_VIS", "word": "swimmer", "wordID": 1419, "conditions": [24, 800, "v", 12000], "trial": 6, "serialpos": 14, "trial_type": "single-stim", "trial_index": 251, "time_elapsed": 996133, "internal_node_id": "0.0-188.0"}}, {"uniqueid": "MTK0195:3TUI152ZZCUSBMBTMFXJP6UXG43Q1K", "current_trial": 252, "dateTime": 1509491600594, "trialdata": {"rt": -1, "stimulus": "<p id=\"stim\">SUSPECT</p>", "key_press": -1, "type": "PRES_VIS", "word": "suspect", "wordID": 1414, "conditions": [24, 800, "v", 12000], "trial": 6, "serialpos": 15, "trial_type": "single-stim", "trial_index": 252, "time_elapsed": 998061, "internal_node_id": "0.0-189.0"}}, {"uniqueid": "MTK0195:3TUI152ZZCUSBMBTMFXJP6UXG43Q1K", "current_trial": 253, "dateTime": 1509491602347, "trialdata": {"rt": -1, "stimulus": "<p id=\"stim\">VICTIM</p>", "key_press": -1, "type": "PRES_VIS", "word": "victim", "wordID": 1561, "conditions": [24, 800, "v", 12000], "trial": 6, "serialpos": 16, "trial_type": "single-stim", "trial_index": 253, "time_elapsed": 999814, "internal_node_id": "0.0-190.0"}}, {"uniqueid": "MTK0195:3TUI152ZZCUSBMBTMFXJP6UXG43Q1K", "current_trial": 254, "dateTime": 1509491603963, "trialdata": {"rt": -1, "stimulus": "<p id=\"stim\">WOMAN</p>", "key_press": -1, "type": "PRES_VIS", "word": "woman", "wordID": 1619, "conditions": [24, 800, "v", 12000], "trial": 6, "serialpos": 17, "trial_type": "single-stim", "trial_index": 254, "time_elapsed": 1001430, "internal_node_id": "0.0-191.0"}}, {"uniqueid": "MTK0195:3TUI152ZZCUSBMBTMFXJP6UXG43Q1K", "current_trial": 255, "dateTime": 1509491605592, "trialdata": {"rt": -1, "stimulus": "<p id=\"stim\">QUEEN</p>", "key_press": -1, "type": "PRES_VIS", "word": "queen", "wordID": 1148, "conditions": [24, 800, "v", 12000], "trial": 6, "serialpos": 18, "trial_type": "single-stim", "trial_index": 255, "time_elapsed": 1003059, "internal_node_id": "0.0-192.0"}}, {"uniqueid": "MTK0195:3TUI152ZZCUSBMBTMFXJP6UXG43Q1K", "current_trial": 256, "dateTime": 1509491607236, "trialdata": {"rt": -1, "stimulus": "<p id=\"stim\">GALLON</p>", "key_press": -1, "type": "PRES_VIS", "word": "gallon", "wordID": 617, "conditions": [24, 800, "v", 12000], "trial": 6, "serialpos": 19, "trial_type": "single-stim", "trial_index": 256, "time_elapsed": 1004703, "internal_node_id": "0.0-193.0"}}, {"uniqueid": "MTK0195:3TUI152ZZCUSBMBTMFXJP6UXG43Q1K", "current_trial": 257, "dateTime": 1509491609169, "trialdata": {"rt": -1, "stimulus": "<p id=\"stim\">POWDER</p>", "key_press": -1, "type": "PRES_VIS", "word": "powder", "wordID": 1116, "conditions": [24, 800, "v", 12000], "trial": 6, "serialpos": 20, "trial_type": "single-stim", "trial_index": 257, "time_elapsed": 1006636, "internal_node_id": "0.0-194.0"}}, {"uniqueid": "MTK0195:3TUI152ZZCUSBMBTMFXJP6UXG43Q1K", "current_trial": 258, "dateTime": 1509491611045, "trialdata": {"rt": -1, "stimulus": "<p id=\"stim\">GYMNAST</p>", "key_press": -1, "type": "PRES_VIS", "word": "gymnast", "wordID": 674, "conditions": [24, 800, "v", 12000], "trial": 6, "serialpos": 21, "trial_type": "single-stim", "trial_index": 258, "time_elapsed": 1008512, "internal_node_id": "0.0-195.0"}}, {"uniqueid": "MTK0195:3TUI152ZZCUSBMBTMFXJP6UXG43Q1K", "current_trial": 259, "dateTime": 1509491612722, "trialdata": {"rt": -1, "stimulus": "<p id=\"stim\">BUNNY</p>", "key_press": -1, "type": "PRES_VIS", "word": "bunny", "wordID": 197, "conditions": [24, 800, "v", 12000], "trial": 6, "serialpos": 22, "trial_type": "single-stim", "trial_index": 259, "time_elapsed": 1010189, "internal_node_id": "0.0-196.0"}}, {"uniqueid": "MTK0195:3TUI152ZZCUSBMBTMFXJP6UXG43Q1K", "current_trial": 260, "dateTime": 1509491614564, "trialdata": {"rt": -1, "stimulus": "<p id=\"stim\">FILM</p>", "key_press": -1, "type": "PRES_VIS", "word": "film", "wordID": 564, "conditions": [24, 800, "v", 12000], "trial": 6, "serialpos": 23, "trial_type": "single-stim", "trial_index": 260, "time_elapsed": 1012031, "internal_node_id": "0.0-197.0"}}, {"uniqueid": "MTK0195:3TUI152ZZCUSBMBTMFXJP6UXG43Q1K", "current_trial": 261, "dateTime": 1509491617020, "trialdata": {"rt": -1, "stimulus": "", "key_press": -1, "type": "PRE_RECALL_DELAY", "trial_type": "single-stim", "trial_index": 261, "time_elapsed": 1014487, "internal_node_id": "0.0-198.0-0.0"}}, {"uniqueid": "MTK0195:3TUI152ZZCUSBMBTMFXJP6UXG43Q1K", "current_trial": 262, "dateTime": 1509491617523, "trialdata": {"rt": -1000, "stimulus": "/static/audio/400Hz.wav", "key_press": -1, "type": "PRE_RECALL_ALERT", "trial_type": "single-audio", "trial_index": 262, "time_elapsed": 1014990, "internal_node_id": "0.0-199.0"}}, {"uniqueid": "MTK0195:3TUI152ZZCUSBMBTMFXJP6UXG43Q1K", "current_trial": 263, "dateTime": 1509491677531, "trialdata": {"rt": [2414, 3551, 7134, 9398], "recwords": ["bunny", "film", "gymnast", "grill"], "type": "FREE_RECALL", "conditions": [24, 800, "v", 12000], "trial": 6, "trial_type": "free-recall", "trial_index": 263, "time_elapsed": 1074992, "internal_node_id": "0.0-200.0-0.0"}}, {"uniqueid": "MTK0195:3TUI152ZZCUSBMBTMFXJP6UXG43Q1K", "current_trial": 264, "dateTime": 1509491683388, "trialdata": {"rt": 3855, "key_press": 32, "type": "INSTRUCTIONS", "trial_type": "text", "trial_index": 264, "time_elapsed": 1080855, "internal_node_id": "0.0-201.0"}}, {"uniqueid": "MTK0195:3TUI152ZZCUSBMBTMFXJP6UXG43Q1K", "current_trial": 265, "dateTime": 1509491709403, "trialdata": {"rt": [3976, 6233, 9448, 11089, 12481, 13817, 15121, 16497, 19833], "responses": ["16", "16", "17", "18", "11", "19", "8", "18", "11"], "num1": [7, 4, 5, 7, 3, 7, 1, 8, 3, 6], "num2": [4, 5, 9, 2, 4, 5, 5, 2, 1, 9], "num3": [5, 7, 3, 9, 4, 7, 2, 8, 7, 7], "type": "DISTRACTOR", "conditions": [12, 800, "v", 24000], "trial": 7, "trial_type": "math-distractor", "trial_index": 265, "time_elapsed": 1106870, "internal_node_id": "0.0-202.0"}}, {"uniqueid": "MTK0195:3TUI152ZZCUSBMBTMFXJP6UXG43Q1K", "current_trial": 266, "dateTime": 1509491712405, "trialdata": {"rt": -1, "stimulus": "<p id=\"stim\">10</p>", "key_press": -1, "trial_type": "single-stim", "trial_index": 266, "time_elapsed": 1109872, "internal_node_id": "0.0-203.0-0.0"}}, {"uniqueid": "MTK0195:3TUI152ZZCUSBMBTMFXJP6UXG43Q1K", "current_trial": 267, "dateTime": 1509491713418, "trialdata": {"rt": -1, "stimulus": "<p id=\"stim\">9</p>", "key_press": -1, "trial_type": "single-stim", "trial_index": 267, "time_elapsed": 1110885, "internal_node_id": "0.0-203.0-1.0"}}, {"uniqueid": "MTK0195:3TUI152ZZCUSBMBTMFXJP6UXG43Q1K", "current_trial": 268, "dateTime": 1509491714420, "trialdata": {"rt": -1, "stimulus": "<p id=\"stim\">8</p>", "key_press": -1, "trial_type": "single-stim", "trial_index": 268, "time_elapsed": 1111887, "internal_node_id": "0.0-203.0-2.0"}}, {"uniqueid": "MTK0195:3TUI152ZZCUSBMBTMFXJP6UXG43Q1K", "current_trial": 269, "dateTime": 1509491715423, "trialdata": {"rt": -1, "stimulus": "<p id=\"stim\">7</p>", "key_press": -1, "trial_type": "single-stim", "trial_index": 269, "time_elapsed": 1112890, "internal_node_id": "0.0-203.0-3.0"}}, {"uniqueid": "MTK0195:3TUI152ZZCUSBMBTMFXJP6UXG43Q1K", "current_trial": 270, "dateTime": 1509491716426, "trialdata": {"rt": -1, "stimulus": "<p id=\"stim\">6</p>", "key_press": -1, "trial_type": "single-stim", "trial_index": 270, "time_elapsed": 1113893, "internal_node_id": "0.0-203.0-4.0"}}, {"uniqueid": "MTK0195:3TUI152ZZCUSBMBTMFXJP6UXG43Q1K", "current_trial": 271, "dateTime": 1509491717428, "trialdata": {"rt": -1, "stimulus": "<p id=\"stim\">5</p>", "key_press": -1, "trial_type": "single-stim", "trial_index": 271