{"condition": 0, "counterbalance": 117, "assignmentId": "3KV0LJBBH3SPJCCISG5HEOS5BCHRMY", "workerId": "MTK0278", "hitId": "3ZG552ORAMBPIVRC1GM5BS7QDTPV2O", "currenttrial": 626, "bonus": 0, "data": [{"uniqueid": "MTK0278:3KV0LJBBH3SPJCCISG5HEOS5BCHRMY", "current_trial": 0, "dateTime": 1510691893626, "trialdata": {"rt": 713157, "key_press": 13, "type": "INSTRUCTIONS", "trial_type": "text", "trial_index": 0, "time_elapsed": 713165, "internal_node_id": "0.0-0.0"}}, {"uniqueid": "MTK0278:3KV0LJBBH3SPJCCISG5HEOS5BCHRMY", "current_trial": 1, "dateTime": 1510691923077, "trialdata": {"rt": 29448, "key_press": 13, "type": "INSTRUCTIONS", "trial_type": "text", "trial_index": 1, "time_elapsed": 742618, "internal_node_id": "0.0-1.0"}}, {"uniqueid": "MTK0278:3KV0LJBBH3SPJCCISG5HEOS5BCHRMY", "current_trial": 2, "dateTime": 1510691932252, "trialdata": {"rt": [8777], "responses": ["ocean"], "type": "AUDIO_TEST", "trial_type": "audio-test", "trial_index": 2, "time_elapsed": 751792, "internal_node_id": "0.0-2.0"}}, {"uniqueid": "MTK0278:3KV0LJBBH3SPJCCISG5HEOS5BCHRMY", "current_trial": 3, "dateTime": 1510691942981, "trialdata": {"rt": [10718], "responses": ["crystal"], "type": "AUDIO_TEST", "trial_type": "audio-test", "trial_index": 3, "time_elapsed": 762522, "internal_node_id": "0.0-3.0"}}, {"uniqueid": "MTK0278:3KV0LJBBH3SPJCCISG5HEOS5BCHRMY", "current_trial": 4, "dateTime": 1510691948669, "trialdata": {"rt": [5677], "responses": ["spice"], "type": "AUDIO_TEST", "trial_type": "audio-test", "trial_index": 4, "time_elapsed": 768209, "internal_node_id": "0.0-4.0"}}, {"uniqueid": "MTK0278:3KV0LJBBH3SPJCCISG5HEOS5BCHRMY", "current_trial": 5, "dateTime": 1510691973287, "trialdata": {"rt": 23860, "responses": "{\"Q0\":\"10:00\",\"Q1\":\"8:00\",\"Q2\":\"5\"}", "type": "SLEEP_SURVEY", "trial_type": "survey-text", "trial_index": 5, "time_elapsed": 792827, "internal_node_id": "0.0-5.0"}}, {"uniqueid": "MTK0278:3KV0LJBBH3SPJCCISG5HEOS5BCHRMY", "current_trial": 6, "dateTime": 1510692015823, "trialdata": {"rt": 41536, "key_press": 13, "type": "INSTRUCTIONS", "trial_type": "text", "trial_index": 6, "time_elapsed": 835364, "internal_node_id": "0.0-6.0"}}, {"uniqueid": "MTK0278:3KV0LJBBH3SPJCCISG5HEOS5BCHRMY", "current_trial": 7, "dateTime": 1510692030973, "trialdata": {"rt": 14647, "key_press": 13, "type": "INSTRUCTIONS", "trial_type": "text", "trial_index": 7, "time_elapsed": 850514, "internal_node_id": "0.0-7.0"}}, {"uniqueid": "MTK0278:3KV0LJBBH3SPJCCISG5HEOS5BCHRMY", "current_trial": 8, "dateTime": 1510692038130, "trialdata": {"rt": 6655, "key_press": 13, "type": "INSTRUCTIONS", "trial_type": "text", "trial_index": 8, "time_elapsed": 857671, "internal_node_id": "0.0-8.0"}}, {"uniqueid": "MTK0278:3KV0LJBBH3SPJCCISG5HEOS5BCHRMY", "current_trial": 9, "dateTime": 1510692057144, "trialdata": {"rt": [9058, 11849, 14618, 17597], "responses": ["17", "13", "16", "12"], "num1": [7, 5, 5, 2, 1], "num2": [6, 1, 6, 2, 7], "num3": [4, 7, 5, 5, 4], "type": "DISTRACTOR", "conditions": [18, 1200, "v", 18000], "trial": 0, "trial_type": "math-distractor", "trial_index": 9, "time_elapsed": 876684, "internal_node_id": "0.0-9.0"}}, {"uniqueid": "MTK0278:3KV0LJBBH3SPJCCISG5HEOS5BCHRMY", "current_trial": 10, "dateTime": 1510692060147, "trialdata": {"rt": -1, "stimulus": "<p id=\"stim\">10</p>", "key_press": -1, "trial_type": "single-stim", "trial_index": 10, "time_elapsed": 879688, "internal_node_id": "0.0-10.0-0.0"}}, {"uniqueid": "MTK0278:3KV0LJBBH3SPJCCISG5HEOS5BCHRMY", "current_trial": 11, "dateTime": 1510692061149, "trialdata": {"rt": -1, "stimulus": "<p id=\"stim\">9</p>", "key_press": -1, "trial_type": "single-stim", "trial_index": 11, "time_elapsed": 880690, "internal_node_id": "0.0-10.0-1.0"}}, {"uniqueid": "MTK0278:3KV0LJBBH3SPJCCISG5HEOS5BCHRMY", "current_trial": 12, "dateTime": 1510692062150, "trialdata": {"rt": -1, "stimulus": "<p id=\"stim\">8</p>", "key_press": -1, "trial_type": "single-stim", "trial_index": 12, "time_elapsed": 881691, "internal_node_id": "0.0-10.0-2.0"}}, {"uniqueid": "MTK0278:3KV0LJBBH3SPJCCISG5HEOS5BCHRMY", "current_trial": 13, "dateTime": 1510692063151, "trialdata": {"rt": -1, "stimulus": "<p id=\"stim\">7</p>", "key_press": -1, "trial_type": "single-stim", "trial_index": 13, "time_elapsed": 882692, "internal_node_id": "0.0-10.0-3.0"}}, {"uniqueid": "MTK0278:3KV0LJBBH3SPJCCISG5HEOS5BCHRMY", "current_trial": 14, "dateTime": 1510692064153, "trialdata": {"rt": -1, "stimulus": "<p id=\"stim\">6</p>", "key_press": -1, "trial_type": "single-stim", "trial_index": 14, "time_elapsed": 883694, "internal_node_id": "0.0-10.0-4.0"}}, {"uniqueid": "MTK0278:3KV0LJBBH3SPJCCISG5HEOS5BCHRMY", "current_trial": 15, "dateTime": 1510692065155, "trialdata": {"rt": -1, "stimulus": "<p id=\"stim\">5</p>", "key_press": -1, "trial_type": "single-stim", "trial_index": 15, "time_elapsed": 884695, "internal_node_id": "0.0-10.0-5.0"}}, {"uniqueid": "MTK0278:3KV0LJBBH3SPJCCISG5HEOS5BCHRMY", "current_trial": 16, "dateTime": 1510692066157, "trialdata": {"rt": -1, "stimulus": "<p id=\"stim\">4</p>", "key_press": -1, "trial_type": "single-stim", "trial_index": 16, "time_elapsed": 885697, "internal_node_id": "0.0-10.0-6.0"}}, {"uniqueid": "MTK0278:3KV0LJBBH3SPJCCISG5HEOS5BCHRMY", "current_trial": 17, "dateTime": 1510692067159, "trialdata": {"rt": -1, "stimulus": "<p id=\"stim\">3</p>", "key_press": -1, "trial_type": "single-stim", "trial_index": 17, "time_elapsed": 886700, "internal_node_id": "0.0-10.0-7.0"}}, {"uniqueid": "MTK0278:3KV0LJBBH3SPJCCISG5HEOS5BCHRMY", "current_trial": 18, "dateTime": 1510692068161, "trialdata": {"rt": -1, "stimulus": "<p id=\"stim\">2</p>", "key_press": -1, "trial_type": "single-stim", "trial_index": 18, "time_elapsed": 887702, "internal_node_id": "0.0-10.0-8.0"}}, {"uniqueid": "MTK0278:3KV0LJBBH3SPJCCISG5HEOS5BCHRMY", "current_trial": 19, "dateTime": 1510692069163, "trialdata": {"rt": -1, "stimulus": "<p id=\"stim\">1</p>", "key_press": -1, "trial_type": "single-stim", "trial_index": 19, "time_elapsed": 888704, "internal_node_id": "0.0-10.0-9.0"}}, {"uniqueid": "MTK0278:3KV0LJBBH3SPJCCISG5HEOS5BCHRMY", "current_trial": 20, "dateTime": 1510692070665, "trialdata": {"rt": -1, "stimulus": "<p id=\"stim\">+</p>", "key_press": -1, "type": "FIXATION", "trial_type": "single-stim", "trial_index": 20, "time_elapsed": 890205, "internal_node_id": "0.0-11.0-0.0"}}, {"uniqueid": "MTK0278:3KV0LJBBH3SPJCCISG5HEOS5BCHRMY", "current_trial": 21, "dateTime": 1510692071866, "trialdata": {"rt": -1, "stimulus": "<p id=\"stim\">SERVANT</p>", "key_press": -1, "type": "PRES_VIS", "word": "servant", "wordID": 1270, "conditions": [18, 1200, "v", 18000], "trial": 0, "serialpos": 0, "trial_type": "single-stim", "trial_index": 21, "time_elapsed": 891407, "internal_node_id": "0.0-12.0"}}, {"uniqueid": "MTK0278:3KV0LJBBH3SPJCCISG5HEOS5BCHRMY", "current_trial": 22, "dateTime": 1510692073909, "trialdata": {"rt": -1, "stimulus": "<p id=\"stim\">KNIFE</p>", "key_press": -1, "type": "PRES_VIS", "word": "knife", "wordID": 784, "conditions": [18, 1200, "v", 18000], "trial": 0, "serialpos": 1, "trial_type": "single-stim", "trial_index": 22, "time_elapsed": 893450, "internal_node_id": "0.0-13.0"}}, {"uniqueid": "MTK0278:3KV0LJBBH3SPJCCISG5HEOS5BCHRMY", "current_trial": 23, "dateTime": 1510692076233, "trialdata": {"rt": -1, "stimulus": "<p id=\"stim\">NAPKIN</p>", "key_press": -1, "type": "PRES_VIS", "word": "napkin", "wordID": 936, "conditions": [18, 1200, "v", 18000], "trial": 0, "serialpos": 2, "trial_type": "single-stim", "trial_index": 23, "time_elapsed": 895774, "internal_node_id": "0.0-14.0"}}, {"uniqueid": "MTK0278:3KV0LJBBH3SPJCCISG5HEOS5BCHRMY", "current_trial": 24, "dateTime": 1510692078287, "trialdata": {"rt": -1, "stimulus": "<p id=\"stim\">DRESSER</p>", "key_press": -1, "type": "PRES_VIS", "word": "dresser", "wordID": 495, "conditions": [18, 1200, "v", 18000], "trial": 0, "serialpos": 3, "trial_type": "single-stim", "trial_index": 24, "time_elapsed": 897827, "internal_node_id": "0.0-15.0"}}, {"uniqueid": "MTK0278:3KV0LJBBH3SPJCCISG5HEOS5BCHRMY", "current_trial": 25, "dateTime": 1510692080523, "trialdata": {"rt": -1, "stimulus": "<p id=\"stim\">DRILL</p>", "key_press": -1, "type": "PRES_VIS", "word": "drill", "wordID": 496, "conditions": [18, 1200, "v", 18000], "trial": 0, "serialpos": 4, "trial_type": "single-stim", "trial_index": 25, "time_elapsed": 900064, "internal_node_id": "0.0-16.0"}}, {"uniqueid": "MTK0278:3KV0LJBBH3SPJCCISG5HEOS5BCHRMY", "current_trial": 26, "dateTime": 1510692082635, "trialdata": {"rt": -1, "stimulus": "<p id=\"stim\">FOX</p>", "key_press": -1, "type": "PRES_VIS", "word": "fox", "wordID": 597, "conditions": [18, 1200, "v", 18000], "trial": 0, "serialpos": 5, "trial_type": "single-stim", "trial_index": 26, "time_elapsed": 902176, "internal_node_id": "0.0-17.0"}}, {"uniqueid": "MTK0278:3KV0LJBBH3SPJCCISG5HEOS5BCHRMY", "current_trial": 27, "dateTime": 1510692084722, "trialdata": {"rt": 7, "stimulus": "<p id=\"stim\">JUDGE</p>", "key_press": 70, "type": "PRES_VIS", "word": "judge", "wordID": 760, "conditions": [18, 1200, "v", 18000], "trial": 0, "serialpos": 6, "trial_type": "single-stim", "trial_index": 27, "time_elapsed": 904262, "internal_node_id": "0.0-18.0"}}, {"uniqueid": "MTK0278:3KV0LJBBH3SPJCCISG5HEOS5BCHRMY", "current_trial": 28, "dateTime": 1510692086857, "trialdata": {"rt": -1, "stimulus": "<p id=\"stim\">HUMAN</p>", "key_press": -1, "type": "PRES_VIS", "word": "human", "wordID": 725, "conditions": [18, 1200, "v", 18000], "trial": 0, "serialpos": 7, "trial_type": "single-stim", "trial_index": 28, "time_elapsed": 906397, "internal_node_id": "0.0-19.0"}}, {"uniqueid": "MTK0278:3KV0LJBBH3SPJCCISG5HEOS5BCHRMY", "current_trial": 29, "dateTime": 1510692088958, "trialdata": {"rt": -1, "stimulus": "<p id=\"stim\">ACTRESS</p>", "key_press": -1, "type": "PRES_VIS", "word": "actress", "wordID": 5, "conditions": [18, 1200, "v", 18000], "trial": 0, "serialpos": 8, "trial_type": "single-stim", "trial_index": 29, "time_elapsed": 908499, "internal_node_id": "0.0-20.0"}}, {"uniqueid": "MTK0278:3KV0LJBBH3SPJCCISG5HEOS5BCHRMY", "current_trial": 30, "dateTime": 1510692091162, "trialdata": {"rt": -1, "stimulus": "<p id=\"stim\">PERFUME</p>", "key_press": -1, "type": "PRES_VIS", "word": "perfume", "wordID": 1048, "conditions": [18, 1200, "v", 18000], "trial": 0, "serialpos": 9, "trial_type": "single-stim", "trial_index": 30, "time_elapsed": 910703, "internal_node_id": "0.0-21.0"}}, {"uniqueid": "MTK0278:3KV0LJBBH3SPJCCISG5HEOS5BCHRMY", "current_trial": 31, "dateTime": 1510692093178, "trialdata": {"rt": -1, "stimulus": "<p id=\"stim\">BRANDY</p>", "key_press": -1, "type": "PRES_VIS", "word": "brandy", "wordID": 168, "conditions": [18, 1200, "v", 18000], "trial": 0, "serialpos": 10, "trial_type": "single-stim", "trial_index": 31, "time_elapsed": 912719, "internal_node_id": "0.0-22.0"}}, {"uniqueid": "MTK0278:3KV0LJBBH3SPJCCISG5HEOS5BCHRMY", "current_trial": 32, "dateTime": 1510692095371, "trialdata": {"rt": -1, "stimulus": "<p id=\"stim\">STREAM</p>", "key_press": -1, "type": "PRES_VIS", "word": "stream", "wordID": 1391, "conditions": [18, 1200, "v", 18000], "trial": 0, "serialpos": 11, "trial_type": "single-stim", "trial_index": 32, "time_elapsed": 914912, "internal_node_id": "0.0-23.0"}}, {"uniqueid": "MTK0278:3KV0LJBBH3SPJCCISG5HEOS5BCHRMY", "current_trial": 33, "dateTime": 1510692097412, "trialdata": {"rt": -1, "stimulus": "<p id=\"stim\">FARMER</p>", "key_press": -1, "type": "PRES_VIS", "word": "farmer", "wordID": 552, "conditions": [18, 1200, "v", 18000], "trial": 0, "serialpos": 12, "trial_type": "single-stim", "trial_index": 33, "time_elapsed": 916952, "internal_node_id": "0.0-24.0"}}, {"uniqueid": "MTK0278:3KV0LJBBH3SPJCCISG5HEOS5BCHRMY", "current_trial": 34, "dateTime": 1510692099489, "trialdata": {"rt": -1, "stimulus": "<p id=\"stim\">POET</p>", "key_press": -1, "type": "PRES_VIS", "word": "poet", "wordID": 1094, "conditions": [18, 1200, "v", 18000], "trial": 0, "serialpos": 13, "trial_type": "single-stim", "trial_index": 34, "time_elapsed": 919030, "internal_node_id": "0.0-25.0"}}, {"uniqueid": "MTK0278:3KV0LJBBH3SPJCCISG5HEOS5BCHRMY", "current_trial": 35, "dateTime": 1510692101716, "trialdata": {"rt": -1, "stimulus": "<p id=\"stim\">PARROT</p>", "key_press": -1, "type": "PRES_VIS", "word": "parrot", "wordID": 1014, "conditions": [18, 1200, "v", 18000], "trial": 0, "serialpos": 14, "trial_type": "single-stim", "trial_index": 35, "time_elapsed": 921257, "internal_node_id": "0.0-26.0"}}, {"uniqueid": "MTK0278:3KV0LJBBH3SPJCCISG5HEOS5BCHRMY", "current_trial": 36, "dateTime": 1510692103791, "trialdata": {"rt": -1, "stimulus": "<p id=\"stim\">GARLIC</p>", "key_press": -1, "type": "PRES_VIS", "word": "garlic", "wordID": 623, "conditions": [18, 1200, "v", 18000], "trial": 0, "serialpos": 15, "trial_type": "single-stim", "trial_index": 36, "time_elapsed": 923331, "internal_node_id": "0.0-27.0"}}, {"uniqueid": "MTK0278:3KV0LJBBH3SPJCCISG5HEOS5BCHRMY", "current_trial": 37, "dateTime": 1510692105802, "trialdata": {"rt": -1, "stimulus": "<p id=\"stim\">ROCKET</p>", "key_press": -1, "type": "PRES_VIS", "word": "rocket", "wordID": 1201, "conditions": [18, 1200, "v", 18000], "trial": 0, "serialpos": 16, "trial_type": "single-stim", "trial_index": 37, "time_elapsed": 925343, "internal_node_id": "0.0-28.0"}}, {"uniqueid": "MTK0278:3KV0LJBBH3SPJCCISG5HEOS5BCHRMY", "current_trial": 38, "dateTime": 1510692107988, "trialdata": {"rt": -1, "stimulus": "<p id=\"stim\">COUNTY</p>", "key_press": -1, "type": "PRES_VIS", "word": "county", "wordID": 388, "conditions": [18, 1200, "v", 18000], "trial": 0, "serialpos": 17, "trial_type": "single-stim", "trial_index": 38, "time_elapsed": 927529, "internal_node_id": "0.0-29.0"}}, {"uniqueid": "MTK0278:3KV0LJBBH3SPJCCISG5HEOS5BCHRMY", "current_trial": 39, "dateTime": 1510692110365, "trialdata": {"rt": -1, "stimulus": "", "key_press": -1, "type": "PRE_RECALL_DELAY", "trial_type": "single-stim", "trial_index": 39, "time_elapsed": 929905, "internal_node_id": "0.0-30.0-0.0"}}, {"uniqueid": "MTK0278:3KV0LJBBH3SPJCCISG5HEOS5BCHRMY", "current_trial": 40, "dateTime": 1510692110909, "trialdata": {"rt": -1000, "stimulus": "/static/audio/400Hz.wav", "key_press": -1, "type": "PRE_RECALL_ALERT", "trial_type": "single-audio", "trial_index": 40, "time_elapsed": 930450, "internal_node_id": "0.0-31.0"}}, {"uniqueid": "MTK0278:3KV0LJBBH3SPJCCISG5HEOS5BCHRMY", "current_trial": 41, "dateTime": 1510692170922, "trialdata": {"rt": [4112, 10245, 14051, 25728, 33675, 49386, 55319, 58712], "recwords": ["servant", "waitress", "stream", "rocket", "table", "spoon", "pocket", "table"], "type": "FREE_RECALL", "conditions": [18, 1200, "v", 18000], "trial": 0, "trial_type": "free-recall", "trial_index": 41, "time_elapsed": 990457, "internal_node_id": "0.0-32.0-0.0"}}, {"uniqueid": "MTK0278:3KV0LJBBH3SPJCCISG5HEOS5BCHRMY", "current_trial": 42, "dateTime": 1510692224192, "trialdata": {"rt": 51268, "key_press": 13, "type": "INSTRUCTIONS", "trial_type": "text", "trial_index": 42, "time_elapsed": 1043733, "internal_node_id": "0.0-33.0"}}, {"uniqueid": "MTK0278:3KV0LJBBH3SPJCCISG5HEOS5BCHRMY", "current_trial": 43, "dateTime": 1510692244195, "trialdata": {"rt": [3751, 5995, 8138, 10068, 13547, 16059, 17884], "responses": ["17", "9", "15", "19", "21", "19", "11"], "num1": [2, 1, 4, 9, 4, 7, 2, 2], "num2": [8, 1, 6, 1, 9, 3, 5, 2], "num3": [7, 7, 5, 9, 8, 9, 4, 3], "type": "DISTRACTOR", "conditions": [18, 1200, "a", 18000], "trial": 1, "trial_type": "math-distractor", "trial_index": 43, "time_elapsed": 1063736, "internal_node_id": "0.0-34.0"}}, {"uniqueid": "MTK0278:3KV0LJBBH3SPJCCISG5HEOS5BCHRMY", "current_trial": 44, "dateTime": 1510692247196, "trialdata": {"rt": -1, "stimulus": "<p id=\"stim\">10</p>", "key_press": -1, "trial_type": "single-stim", "trial_index": 44, "time_elapsed": 1066737, "internal_node_id": "0.0-35.0-0.0"}}, {"uniqueid": "MTK0278:3KV0LJBBH3SPJCCISG5HEOS5BCHRMY", "current_trial": 45, "dateTime": 1510692248198, "trialdata": {"rt": -1, "stimulus": "<p id=\"stim\">9</p>", "key_press": -1, "trial_type": "single-stim", "trial_index": 45, "time_elapsed": 1067739, "internal_node_id": "0.0-35.0-1.0"}}, {"uniqueid": "MTK0278:3KV0LJBBH3SPJCCISG5HEOS5BCHRMY", "current_trial": 46, "dateTime": 1510692249199, "trialdata": {"rt": -1, "stimulus": "<p id=\"stim\">8</p>", "key_press": -1, "trial_type": "single-stim", "trial_index": 46, "time_elapsed": 1068740, "internal_node_id": "0.0-35.0-2.0"}}, {"uniqueid": "MTK0278:3KV0LJBBH3SPJCCISG5HEOS5BCHRMY", "current_trial": 47, "dateTime": 1510692250202, "trialdata": {"rt": -1, "stimulus": "<p id=\"stim\">7</p>", "key_press": -1, "trial_type": "single-stim", "trial_index": 47, "time_elapsed": 1069742, "internal_node_id": "0.0-35.0-3.0"}}, {"uniqueid": "MTK0278:3KV0LJBBH3SPJCCISG5HEOS5BCHRMY", "current_trial": 48, "dateTime": 1510692251204, "trialdata": {"rt": -1, "stimulus": "<p id=\"stim\">6</p>", "key_press": -1, "trial_type": "single-stim", "trial_index": 48, "time_elapsed": 1070745, "internal_node_id": "0.0-35.0-4.0"}}, {"uniqueid": "MTK0278:3KV0LJBBH3SPJCCISG5HEOS5BCHRMY", "current_trial": 49, "dateTime": 1510692252207, "trialdata": {"rt": -1, "stimulus": "<p id=\"stim\">5</p>", "key_press": -1, "trial_type": "single-stim", "trial_index": 49, "time_elapsed": 1071748, "internal_node_id": "0.0-35.0-5.0"}}, {"uniqueid": "MTK0278:3KV0LJBBH3SPJCCISG5HEOS5BCHRMY", "current_trial": 50, "dateTime": 1510692253209, "trialdata": {"rt": -1, "stimulus": "<p id=\"stim\">4</p>", "key_press": -1, "trial_type": "single-stim", "trial_index": 50, "time_elapsed": 1072749, "internal_node_id": "0.0-35.0-6.0"}}, {"uniqueid": "MTK0278:3KV0LJBBH3SPJCCISG5HEOS5BCHRMY", "current_trial": 51, "dateTime": 1510692254210, "trialdata": {"rt": -1, "stimulus": "<p id=\"stim\">3</p>", "key_press": -1, "trial_type": "single-stim", "trial_index": 51, "time_elapsed": 1073751, "internal_node_id": "0.0-35.0-7.0"}}, {"uniqueid": "MTK0278:3KV0LJBBH3SPJCCISG5HEOS5BCHRMY", "current_trial": 52, "dateTime": 1510692255212, "trialdata": {"rt": -1, "stimulus": "<p id=\"stim\">2</p>", "key_press": -1, "trial_type": "single-stim", "trial_index": 52, "time_elapsed": 1074752, "internal_node_id": "0.0-35.0-8.0"}}, {"uniqueid": "MTK0278:3KV0LJBBH3SPJCCISG5HEOS5BCHRMY", "current_trial": 53, "dateTime": 1510692256214, "trialdata": {"rt": -1, "stimulus": "<p id=\"stim\">1</p>", "key_press": -1, "trial_type": "single-stim", "trial_index": 53, "time_elapsed": 1075754, "internal_node_id": "0.0-35.0-9.0"}}, {"uniqueid": "MTK0278:3KV0LJBBH3SPJCCISG5HEOS5BCHRMY", "current_trial": 54, "dateTime": 1510692257716, "trialdata": {"rt": -1, "stimulus": "<p id=\"stim\">+</p>", "key_press": -1, "type": "FIXATION", "trial_type": "single-stim", "trial_index": 54, "time_elapsed": 1077257, "internal_node_id": "0.0-36.0-0.0"}}, {"uniqueid": "MTK0278:3KV0LJBBH3SPJCCISG5HEOS5BCHRMY", "current_trial": 55, "dateTime": 1510692260076, "trialdata": {"rt": -1000, "stimulus": "/static/audio/wordpool/DRAGON.wav", "key_press": -1, "type": "PRES_AUD", "word": "dragon", "wordID": 491, "conditions": [18, 1200, "a", 18000], "trial": 1, "serialpos": 0, "trial_type": "single-audio", "trial_index": 55, "time_elapsed": 1079616, "internal_node_id": "0.0-37.0"}}, {"uniqueid": "MTK0278:3KV0LJBBH3SPJCCISG5HEOS5BCHRMY", "current_trial": 56, "dateTime": 1510692262223, "trialdata": {"rt": -1000, "stimulus": "/static/audio/wordpool/PLAYGROUND.wav", "key_press": -1, "type": "PRES_AUD", "word": "playground", "wordID": 1086, "conditions": [18, 1200, "a", 18000], "trial": 1, "serialpos": 1, "trial_type": "single-audio", "trial_index": 56, "time_elapsed": 1081764, "internal_node_id": "0.0-38.0"}}, {"uniqueid": "MTK0278:3KV0LJBBH3SPJCCISG5HEOS5BCHRMY", "current_trial": 57, "dateTime": 1510692264381, "trialdata": {"rt": -1000, "stimulus": "/static/audio/wordpool/PREACHER.wav", "key_press": -1, "type": "PRES_AUD", "word": "preacher", "wordID": 1118, "conditions": [18, 1200, "a", 18000], "trial": 1, "serialpos": 2, "trial_type": "single-audio", "trial_index": 57, "time_elapsed": 1083921, "internal_node_id": "0.0-39.0"}}, {"uniqueid": "MTK0278:3KV0LJBBH3SPJCCISG5HEOS5BCHRMY", "current_trial": 58, "dateTime": 1510692266528, "trialdata": {"rt": -1000, "stimulus": "/static/audio/wordpool/CHAPEL.wav", "key_press": -1, "type": "PRES_AUD", "word": "chapel", "wordID": 279, "conditions": [18, 1200, "a", 18000], "trial": 1, "serialpos": 3, "trial_type": "single-audio", "trial_index": 58, "time_elapsed": 1086068, "internal_node_id": "0.0-40.0"}}, {"uniqueid": "MTK0278:3KV0LJBBH3SPJCCISG5HEOS5BCHRMY", "current_trial": 59, "dateTime": 1510692268633, "trialdata": {"rt": -1000, "stimulus": "/static/audio/wordpool/INFANT.wav", "key_press": -1, "type": "PRES_AUD", "word": "infant", "wordID": 736, "conditions": [18, 1200, "a", 18000], "trial": 1, "serialpos": 4, "trial_type": "single-audio", "trial_index": 59, "time_elapsed": 1088174, "internal_node_id": "0.0-41.0"}}, {"uniqueid": "MTK0278:3KV0LJBBH3SPJCCISG5HEOS5BCHRMY", "current_trial": 60, "dateTime": 1510692270687, "trialdata": {"rt": -1000, "stimulus": "/static/audio/wordpool/WARDROBE.wav", "key_press": -1, "type": "PRES_AUD", "word": "wardrobe", "wordID": 1586, "conditions": [18, 1200, "a", 18000], "trial": 1, "serialpos": 5, "trial_type": "single-audio", "trial_index": 60, "time_elapsed": 1090228, "internal_node_id": "0.0-42.0"}}, {"uniqueid": "MTK0278:3KV0LJBBH3SPJCCISG5HEOS5BCHRMY", "current_trial": 61, "dateTime": 1510692272742, "trialdata": {"rt": -1000, "stimulus": "/static/audio/wordpool/FILM.wav", "key_press": -1, "type": "PRES_AUD", "word": "film", "wordID": 564, "conditions": [18, 1200, "a", 18000], "trial": 1, "serialpos": 6, "trial_type": "single-audio", "trial_index": 61, "time_elapsed": 1092283, "internal_node_id": "0.0-43.0"}}, {"uniqueid": "MTK0278:3KV0LJBBH3SPJCCISG5HEOS5BCHRMY", "current_trial": 62, "dateTime": 1510692275128, "trialdata": {"rt": -1000, "stimulus": "/static/audio/wordpool/SHELF.wav", "key_press": -1, "type": "PRES_AUD", "word": "shelf", "wordID": 1279, "conditions": [18, 1200, "a", 18000], "trial": 1, "serialpos": 7, "trial_type": "single-audio", "trial_index": 62, "time_elapsed": 1094669, "internal_node_id": "0.0-44.0"}}, {"uniqueid": "MTK0278:3KV0LJBBH3SPJCCISG5HEOS5BCHRMY", "current_trial": 63, "dateTime": 1510692277431, "trialdata": {"rt": -1000, "stimulus": "/static/audio/wordpool/CHURCH.wav", "key_press": -1, "type": "PRES_AUD", "word": "church", "wordID": 306, "conditions": [18, 1200, "a", 18000], "trial": 1, "serialpos": 8, "trial_type": "single-audio", "trial_index": 63, "time_elapsed": 1096971, "internal_node_id": "0.0-45.0"}}, {"uniqueid": "MTK0278:3KV0LJBBH3SPJCCISG5HEOS5BCHRMY", "current_trial": 64, "dateTime": 1510692279446, "trialdata": {"rt": -1000, "stimulus": "/static/audio/wordpool/HUSBAND.wav", "key_press": -1, "type": "PRES_AUD", "word": "husband", "wordID": 727, "conditions": [18, 1200, "a", 18000], "trial": 1, "serialpos": 9, "trial_type": "single-audio", "trial_index": 64, "time_elapsed": 1098987, "internal_node_id": "0.0-46.0"}}, {"uniqueid": "MTK0278:3KV0LJBBH3SPJCCISG5HEOS5BCHRMY", "current_trial": 65, "dateTime": 1510692281767, "trialdata": {"rt": -1000, "stimulus": "/static/audio/wordpool/OX.wav", "key_press": -1, "type": "PRES_AUD", "word": "ox", "wordID": 993, "conditions": [18, 1200, "a", 18000], "trial": 1, "serialpos": 10, "trial_type": "single-audio", "trial_index": 65, "time_elapsed": 1101308, "internal_node_id": "0.0-47.0"}}, {"uniqueid": "MTK0278:3KV0LJBBH3SPJCCISG5HEOS5BCHRMY", "current_trial": 66, "dateTime": 1510692283909, "trialdata": {"rt": -1000, "stimulus": "/static/audio/wordpool/HEDGE.wav", "key_press": -1, "type": "PRES_AUD", "word": "hedge", "wordID": 698, "conditions": [18, 1200, "a", 18000], "trial": 1, "serialpos": 11, "trial_type": "single-audio", "trial_index": 66, "time_elapsed": 1103449, "internal_node_id": "0.0-48.0"}}, {"uniqueid": "MTK0278:3KV0LJBBH3SPJCCISG5HEOS5BCHRMY", "current_trial": 67, "dateTime": 1510692286238, "trialdata": {"rt": -1000, "stimulus": "/static/audio/wordpool/COCKTAIL.wav", "key_press": -1, "type": "PRES_AUD", "word": "cocktail", "wordID": 337, "conditions": [18, 1200, "a", 18000], "trial": 1, "serialpos": 12, "trial_type": "single-audio", "trial_index": 67, "time_elapsed": 1105778, "internal_node_id": "0.0-49.0"}}, {"uniqueid": "MTK0278:3KV0LJBBH3SPJCCISG5HEOS5BCHRMY", "current_trial": 68, "dateTime": 1510692288472, "trialdata": {"rt": -1000, "stimulus": "/static/audio/wordpool/LUMBER.wav", "key_press": -1, "type": "PRES_AUD", "word": "lumber", "wordID": 847, "conditions": [18, 1200, "a", 18000], "trial": 1, "serialpos": 13, "trial_type": "single-audio", "trial_index": 68, "time_elapsed": 1108007, "internal_node_id": "0.0-50.0"}}, {"uniqueid": "MTK0278:3KV0LJBBH3SPJCCISG5HEOS5BCHRMY", "current_trial": 69, "dateTime": 1510692290840, "trialdata": {"rt": -1000, "stimulus": "/static/audio/wordpool/BOYFRIEND.wav", "key_press": -1, "type": "PRES_AUD", "word": "boyfriend", "wordID": 161, "conditions": [18, 1200, "a", 18000], "trial": 1, "serialpos": 14, "trial_type": "single-audio", "trial_index": 69, "time_elapsed": 1110381, "internal_node_id": "0.0-51.0"}}, {"uniqueid": "MTK0278:3KV0LJBBH3SPJCCISG5HEOS5BCHRMY", "current_trial": 70, "dateTime": 1510692292940, "trialdata": {"rt": -1000, "stimulus": "/static/audio/wordpool/COWBOY.wav", "key_press": -1, "type": "PRES_AUD", "word": "cowboy", "wordID": 394, "conditions": [18, 1200, "a", 18000], "trial": 1, "serialpos": 15, "trial_type": "single-audio", "trial_index": 70, "time_elapsed": 1112481, "internal_node_id": "0.0-52.0"}}, {"uniqueid": "MTK0278:3KV0LJBBH3SPJCCISG5HEOS5BCHRMY", "current_trial": 71, "dateTime": 1510692295205, "trialdata": {"rt": -1000, "stimulus": "/static/audio/wordpool/RACKET.wav", "key_press": -1, "type": "PRES_AUD", "word": "racket", "wordID": 1154, "conditions": [18, 1200, "a", 18000], "trial": 1, "serialpos": 16, "trial_type": "single-audio", "trial_index": 71, "time_elapsed": 1114746, "internal_node_id": "0.0-53.0"}}, {"uniqueid": "MTK0278:3KV0LJBBH3SPJCCISG5HEOS5BCHRMY", "current_trial": 72, "dateTime": 1510692297522, "trialdata": {"rt": -1000, "stimulus": "/static/audio/wordpool/BODY.wav", "key_press": -1, "type": "PRES_AUD", "word": "body", "wordID": 144, "conditions": [18, 1200, "a", 18000], "trial": 1, "serialpos": 17, "trial_type": "single-audio", "trial_index": 72, "time_elapsed": 1117063, "internal_node_id": "0.0-54.0"}}, {"uniqueid": "MTK0278:3KV0LJBBH3SPJCCISG5HEOS5BCHRMY", "current_trial": 73, "dateTime": 1510692298780, "trialdata": {"rt": -1, "stimulus": "", "key_press": -1, "type": "PRE_RECALL_DELAY", "trial_type": "single-stim", "trial_index": 73, "time_elapsed": 1118321, "internal_node_id": "0.0-55.0-0.0"}}, {"uniqueid": "MTK0278:3KV0LJBBH3SPJCCISG5HEOS5BCHRMY", "current_trial": 74, "dateTime": 1510692299283, "trialdata": {"rt": -1000, "stimulus": "/static/audio/400Hz.wav", "key_press": -1, "type": "PRE_RECALL_ALERT", "trial_type": "single-audio", "trial_index": 74, "time_elapsed": 1118824, "internal_node_id": "0.0-56.0"}}, {"uniqueid": "MTK0278:3KV0LJBBH3SPJCCISG5HEOS5BCHRMY", "current_trial": 75, "dateTime": 1510692359291, "trialdata": {"rt": [4968, 7997, 13244, 24143, 29853, 34729, 35434, 42568, 48511, 57975], "recwords": ["husband", "racket", "boyfriend", "body", "lumber", "hedge", "ox", "cowboy", "cocktail", "ledge"], "type": "FREE_RECALL", "conditions": [18, 1200, "a", 18000], "trial": 1, "trial_type": "free-recall", "trial_index": 75, "time_elapsed": 1178828, "internal_node_id": "0.0-57.0-0.0"}}, {"uniqueid": "MTK0278:3KV0LJBBH3SPJCCISG5HEOS5BCHRMY", "current_trial": 76, "dateTime": 1510692366288, "trialdata": {"rt": 4986, "key_press": 13, "type": "INSTRUCTIONS", "trial_type": "text", "trial_index": 76, "time_elapsed": 1185819, "internal_node_id": "0.0-58.0"}}, {"uniqueid": "MTK0278:3KV0LJBBH3SPJCCISG5HEOS5BCHRMY", "current_trial": 77, "dateTime": 1510692379292, "trialdata": {"rt": [2928, 6162, 8058], "responses": ["12", "22", "8"], "num1": [2, 7, 3, 3], "num2": [2, 6, 4, 3], "num3": [8, 9, 1, 9], "type": "DISTRACTOR", "conditions": [24, 1600, "a", 12000], "trial": 2, "trial_type": "math-distractor", "trial_index": 77, "time_elapsed": 1198833, "internal_node_id": "0.0-59.0"}}, {"uniqueid": "MTK0278:3KV0LJBBH3SPJCCISG5HEOS5BCHRMY", "current_trial": 78, "dateTime": 1510692382293, "trialdata": {"rt": -1, "stimulus": "<p id=\"stim\">10</p>", "key_press": -1, "trial_type": "single-stim", "trial_index": 78, "time_elapsed": 1201834, "internal_node_id": "0.0-60.0-0.0"}}, {"uniqueid": "MTK0278:3KV0LJBBH3SPJCCISG5HEOS5BCHRMY", "current_trial": 79, "dateTime": 1510692383294, "trialdata": {"rt": -1, "stimulus": "<p id=\"stim\">9</p>", "key_press": -1, "trial_type": "single-stim", "trial_index": 79, "time_elapsed": 1202835, "internal_node_id": "0.0-60.0-1.0"}}, {"uniqueid": "MTK0278:3KV0LJBBH3SPJCCISG5HEOS5BCHRMY", "current_trial": 80, "dateTime": 1510692384295, "trialdata": {"rt": -1, "stimulus": "<p id=\"stim\">8</p>", "key_press": -1, "trial_type": "single-stim", "trial_index": 80, "time_elapsed": 1203836, "internal_node_id": "0.0-60.0-2.0"}}, {"uniqueid": "MTK0278:3KV0LJBBH3SPJCCISG5HEOS5BCHRMY", "current_trial": 81, "dateTime": 1510692385297, "trialdata": {"rt": -1, "stimulus": "<p id=\"stim\">7</p>", "key_press": -1, "trial_type": "single-stim", "trial_index": 81, "time_elapsed": 1204838, "internal_node_id": "0.0-60.0-3.0"}}, {"uniqueid": "MTK0278:3KV0LJBBH3SPJCCISG5HEOS5BCHRMY", "current_trial": 82, "dateTime": 1510692386303, "trialdata": {"rt": -1, "stimulus": "<p id=\"stim\">6</p>", "key_press": -1, "trial_type": "single-stim", "trial_index": 82, "time_elapsed": 1205841, "internal_node_id": "0.0-60.0-4.0"}}, {"uniqueid": "MTK0278:3KV0LJBBH3SPJCCISG5HEOS5BCHRMY", "current_trial": 83, "dateTime": 1510692387304, "trialdata": {"rt": -1, "stimulus": "<p id=\"stim\">5</p>", "key_press": -1, "trial_type": "single-stim", "trial_index": 83, "time_elapsed": 1206845, "internal_node_id": "0.0-60.0-5.0"}}, {"uniqueid": "MTK0278:3KV0LJBBH3SPJCCISG5HEOS5BCHRMY", "current_trial": 84, "dateTime": 1510692388308, "trialdata": {"rt": -1, "stimulus": "<p id=\"stim\">4</p>", "key_press": -1, "trial_type": "single-stim", "trial_index": 84, "time_elapsed": 1207848, "internal_node_id": "0.0-60.0-6.0"}}, {"uniqueid": "MTK0278:3KV0LJBBH3SPJCCISG5HEOS5BCHRMY", "current_trial": 85, "dateTime": 1510692389309, "trialdata": {"rt": -1, "stimulus": "<p id=\"stim\">3</p>", "key_press": -1, "trial_type": "single-stim", "trial_index": 85, "time_elapsed": 1208850, "internal_node_id": "0.0-60.0-7.0"}}, {"uniqueid": "MTK0278:3KV0LJBBH3SPJCCISG5HEOS5BCHRMY", "current_trial": 86, "dateTime": 1510692390314, "trialdata": {"rt": -1, "stimulus": "<p id=\"stim\">2</p>", "key_press": -1, "trial_type": "single-stim", "trial_index": 86, "time_elapsed": 1209854, "internal_node_id": "0.0-60.0-8.0"}}, {"uniqueid": "MTK0278:3KV0LJBBH3SPJCCISG5HEOS5BCHRMY", "current_trial": 87, "dateTime": 1510692391316, "trialdata": {"rt": -1, "stimulus": "<p id=\"stim\">1</p>", "key_press": -1, "trial_type": "single-stim", "trial_index": 87, "time_elapsed": 1210857, "internal_node_id": "0.0-60.0-9.0"}}, {"uniqueid": "MTK0278:3KV0LJBBH3SPJCCISG5HEOS5BCHRMY", "current_trial": 88, "dateTime": 1510692392818, "trialdata": {"rt": -1, "stimulus": "<p id=\"stim\">+</p>", "key_press": -1, "type": "FIXATION", "trial_type": "single-stim", "trial_index": 88, "time_elapsed": 1212358, "internal_node_id": "0.0-61.0-0.0"}}, {"uniqueid": "MTK0278:3KV0LJBBH3SPJCCISG5HEOS5BCHRMY", "current_trial": 89, "dateTime": 1510692395246, "trialdata": {"rt": -1000, "stimulus": "/static/audio/wordpool/RIVER.wav", "key_press": -1, "type": "PRES_AUD", "word": "river", "wordID": 1193, "conditions": [24, 1600, "a", 12000], "trial": 2, "serialpos": 0, "trial_type": "single-audio", "trial_index": 89, "time_elapsed": 1214786, "internal_node_id": "0.0-62.0"}}, {"uniqueid": "MTK0278:3KV0LJBBH3SPJCCISG5HEOS5BCHRMY", "current_trial": 90, "dateTime": 1510692397673, "trialdata": {"rt": -1000, "stimulus": "/static/audio/wordpool/NURSE.wav", "key_press": -1, "type": "PRES_AUD", "word": "nurse", "wordID": 962, "conditions": [24, 1600, "a", 12000], "trial": 2, "serialpos": 1, "trial_type": "single-audio", "trial_index": 90, "time_elapsed": 1217214, "internal_node_id": "0.0-63.0"}}, {"uniqueid": "MTK0278:3KV0LJBBH3SPJCCISG5HEOS5BCHRMY", "current_trial": 91, "dateTime": 1510692400432, "trialdata": {"rt": -1000, "stimulus": "/static/audio/wordpool/REPORT.wav", "key_press": -1, "type": "PRES_AUD", "word": "report", "wordID": 1183, "conditions": [24, 1600, "a", 12000], "trial": 2, "serialpos": 2, "trial_type": "single-audio", "trial_index": 91, "time_elapsed": 1219973, "internal_node_id": "0.0-64.0"}}, {"uniqueid": "MTK0278:3KV0LJBBH3SPJCCISG5HEOS5BCHRMY", "current_trial": 92, "dateTime": 1510692402838, "trialdata": {"rt": -1000, "stimulus": "/static/audio/wordpool/RADISH.wav", "key_press": -1, "type": "PRES_AUD", "word": "radish", "wordID": 1157, "conditions": [24, 1600, "a", 12000], "trial": 2, "serialpos": 3, "trial_type": "single-audio", "trial_index": 92, "time_elapsed": 1222378, "internal_node_id": "0.0-65.0"}}, {"uniqueid": "MTK0278:3KV0LJBBH3SPJCCISG5HEOS5BCHRMY", "current_trial": 93, "dateTime": 1510692405502, "trialdata": {"rt": -1000, "stimulus": "/static/audio/wordpool/BLOUSE.wav", "key_press": -1, "type": "PRES_AUD", "word": "blouse", "wordID": 138, "conditions": [24, 1600, "a", 12000], "trial": 2, "serialpos": 4, "trial_type": "single-audio", "trial_index": 93, "time_elapsed": 1225042, "internal_node_id": "0.0-66.0"}}, {"uniqueid": "MTK0278:3KV0LJBBH3SPJCCISG5HEOS5BCHRMY", "current_trial": 94, "dateTime": 1510692408003, "trialdata": {"rt": -1000, "stimulus": "/static/audio/wordpool/DRESS.wav", "key_press": -1, "type": "PRES_AUD", "word": "dress", "wordID": 494, "conditions": [24, 1600, "a", 12000], "trial": 2, "serialpos": 5, "trial_type": "single-audio", "trial_index": 94, "time_elapsed": 1227544, "internal_node_id": "0.0-67.0"}}, {"uniqueid": "MTK0278:3KV0LJBBH3SPJCCISG5HEOS5BCHRMY", "current_trial": 95, "dateTime": 1510692410795, "trialdata": {"rt": -1000, "stimulus": "/static/audio/wordpool/JELLY.wav", "key_press": -1, "type": "PRES_AUD", "word": "jelly", "wordID": 754, "conditions": [24, 1600, "a", 12000], "trial": 2, "serialpos": 6, "trial_type": "single-audio", "trial_index": 95, "time_elapsed": 1230336, "internal_node_id": "0.0-68.0"}}, {"uniqueid": "MTK0278:3KV0LJBBH3SPJCCISG5HEOS5BCHRMY", "current_trial": 96, "dateTime": 1510692413544, "trialdata": {"rt": -1000, "stimulus": "/static/audio/wordpool/FIDDLE.wav", "key_press": -1, "type": "PRES_AUD", "word": "fiddle", "wordID": 560, "conditions": [24, 1600, "a", 12000], "trial": 2, "serialpos": 7, "trial_type": "single-audio", "trial_index": 96, "time_elapsed": 1233085, "internal_node_id": "0.0-69.0"}}, {"uniqueid": "MTK0278:3KV0LJBBH3SPJCCISG5HEOS5BCHRMY", "current_trial": 97, "dateTime": 1510692416257, "trialdata": {"rt": -1000, "stimulus": "/static/audio/wordpool/HAND.wav", "key_press": -1, "type": "PRES_AUD", "word": "hand", "wordID": 682, "conditions": [24, 1600, "a", 12000], "trial": 2, "serialpos": 8, "trial_type": "single-audio", "trial_index": 97, "time_elapsed": 1235797, "internal_node_id": "0.0-70.0"}}, {"uniqueid": "MTK0278:3KV0LJBBH3SPJCCISG5HEOS5BCHRMY", "current_trial": 98, "dateTime": 1510692418660, "trialdata": {"rt": -1000, "stimulus": "/static/audio/wordpool/QUEEN.wav", "key_press": -1, "type": "PRES_AUD", "word": "queen", "wordID": 1148, "conditions": [24, 1600, "a", 12000], "trial": 2, "serialpos": 9, "trial_type": "single-audio", "trial_index": 98, "time_elapsed": 1238200, "internal_node_id": "0.0-71.0"}}, {"uniqueid": "MTK0278:3KV0LJBBH3SPJCCISG5HEOS5BCHRMY", "current_trial": 99, "dateTime": 1510692421342, "trialdata": {"rt": -1000, "stimulus": "/static/audio/wordpool/MARSH.wav", "key_press": -1, "type": "PRES_AUD", "word": "marsh", "wordID": 873, "conditions": [24, 1600, "a", 12000], "trial": 2, "serialpos": 10, "trial_type": "single-audio", "trial_index": 99, "time_elapsed": 1240883, "internal_node_id": "0.0-72.0"}}, {"uniqueid": "MTK0278:3KV0LJBBH3SPJCCISG5HEOS5BCHRMY", "current_trial": 100, "dateTime": 1510692423972, "trialdata": {"rt": -1000, "stimulus": "/static/audio/wordpool/COLLEGE.wav", "key_press": -1, "type": "PRES_AUD", "word": "college", "wordID": 345, "conditions": [24, 1600, "a", 12000], "trial": 2, "serialpos": 11, "trial_type": "single-audio", "trial_index": 100, "time_elapsed": 1243511, "internal_node_id": "0.0-73.0"}}, {"uniqueid": "MTK0278:3KV0LJBBH3SPJCCISG5HEOS5BCHRMY", "current_trial": 101, "dateTime": 1510692426531, "trialdata": {"rt": -1000, "stimulus": "/static/audio/wordpool/HOUND.wav", "key_press": -1, "type": "PRES_AUD", "word": "hound", "wordID": 723, "conditions": [24, 1600, "a", 12000], "trial": 2, "serialpos": 12, "trial_type": "single-audio", "trial_index": 101, "time_elapsed": 1246072, "internal_node_id": "0.0-74.0"}}, {"uniqueid": "MTK0278:3KV0LJBBH3SPJCCISG5HEOS5BCHRMY", "current_trial": 102, "dateTime": 1510692429122, "trialdata": {"rt": -1000, "stimulus": "/static/audio/wordpool/TWEEZERS.wav", "key_press": -1, "type": "PRES_AUD", "word": "tweezers", "wordID": 1525, "conditions": [24, 1600, "a", 12000], "trial": 2, "serialpos": 13, "trial_type": "single-audio", "trial_index": 102, "time_elapsed": 1248663, "internal_node_id": "0.0-75.0"}}, {"uniqueid": "MTK0278:3KV0LJBBH3SPJCCISG5HEOS5BCHRMY", "current_trial": 103, "dateTime": 1510692431851, "trialdata": {"rt": -1000, "stimulus": "/static/audio/wordpool/GIRL.wav", "key_press": -1, "type": "PRES_AUD", "word": "girl", "wordID": 636, "conditions": [24, 1600, "a", 12000], "trial": 2, "serialpos": 14, "trial_type": "single-audio", "trial_index": 103, "time_elapsed": 1251392, "internal_node_id": "0.0-76.0"}}, {"uniqueid": "MTK0278:3KV0LJBBH3SPJCCISG5HEOS5BCHRMY", "current_trial": 104, "dateTime": 1510692434306, "trialdata": {"rt": -1000, "stimulus": "/static/audio/wordpool/SADDLE.wav", "key_press": -1, "type": "PRES_AUD", "word": "saddle", "wordID": 1220, "conditions": [24, 1600, "a", 12000], "trial": 2, "serialpos": 15, "trial_type": "single-audio", "trial_index": 104, "time_elapsed": 1253847, "internal_node_id": "0.0-77.0"}}, {"uniqueid": "MTK0278:3KV0LJBBH3SPJCCISG5HEOS5BCHRMY", "current_trial": 105, "dateTime": 1510692436958, "trialdata": {"rt": -1000, "stimulus": "/static/audio/wordpool/SCISSORS.wav", "key_press": -1, "type": "PRES_AUD", "word": "scissors", "wordID": 1249, "conditions": [24, 1600, "a", 12000], "trial": 2, "serialpos": 16, "trial_type": "single-audio", "trial_index": 105, "time_elapsed": 1256499, "internal_node_id": "0.0-78.0"}}, {"uniqueid": "MTK0278:3KV0LJBBH3SPJCCISG5HEOS5BCHRMY", "current_trial": 106, "dateTime": 1510692439431, "trialdata": {"rt": -1000, "stimulus": "/static/audio/wordpool/POPCORN.wav", "key_press": -1, "type": "PRES_AUD", "word": "popcorn", "wordID": 1103, "conditions": [24, 1600, "a", 12000], "trial": 2, "serialpos": 17, "trial_type": "single-audio", "trial_index": 106, "time_elapsed": 1258971, "internal_node_id": "0.0-79.0"}}, {"uniqueid": "MTK0278:3KV0LJBBH3SPJCCISG5HEOS5BCHRMY", "current_trial": 107, "dateTime": 1510692442027, "trialdata": {"rt": -1000, "stimulus": "/static/audio/wordpool/CLAM.wav", "key_press": -1, "type": "PRES_AUD", "word": "clam", "wordID": 314, "conditions": [24, 1600, "a", 12000], "trial": 2, "serialpos": 18, "trial_type": "single-audio", "trial_index": 107, "time_elapsed": 1261568, "internal_node_id": "0.0-80.0"}}, {"uniqueid": "MTK0278:3KV0LJBBH3SPJCCISG5HEOS5BCHRMY", "current_trial": 108, "dateTime": 1510692444538, "trialdata": {"rt": -1000, "stimulus": "/static/audio/wordpool/NECKLACE.wav", "key_press": -1, "type": "PRES_AUD", "word": "necklace", "wordID": 939, "conditions": [24, 1600, "a", 12000], "trial": 2, "serialpos": 19, "trial_type": "single-audio", "trial_index": 108, "time_elapsed": 1264078, "internal_node_id": "0.0-81.0"}}, {"uniqueid": "MTK0278:3KV0LJBBH3SPJCCISG5HEOS5BCHRMY", "current_trial": 109, "dateTime": 1510692447101, "trialdata": {"rt": -1000, "stimulus": "/static/audio/wordpool/CYCLONE.wav", "key_press": -1, "type": "PRES_AUD", "word": "cyclone", "wordID": 430, "conditions": [24, 1600, "a", 12000], "trial": 2, "serialpos": 20, "trial_type": "single-audio", "trial_index": 109, "time_elapsed": 1266642, "internal_node_id": "0.0-82.0"}}, {"uniqueid": "MTK0278:3KV0LJBBH3SPJCCISG5HEOS5BCHRMY", "current_trial": 110, "dateTime": 1510692449632, "trialdata": {"rt": -1000, "stimulus": "/static/audio/wordpool/CLOCK.wav", "key_press": -1, "type": "PRES_AUD", "word": "clock", "wordID": 324, "conditions": [24, 1600, "a", 12000], "trial": 2, "serialpos": 21, "trial_type": "single-audio", "trial_index": 110, "time_elapsed": 1269172, "internal_node_id": "0.0-83.0"}}, {"uniqueid": "MTK0278:3KV0LJBBH3SPJCCISG5HEOS5BCHRMY", "current_trial": 111, "dateTime": 1510692452073, "trialdata": {"rt": -1000, "stimulus": "/static/audio/wordpool/MUFFIN.wav", "key_press": -1, "type": "PRES_AUD", "word": "muffin", "wordID": 928, "conditions": [24, 1600, "a", 12000], "trial": 2, "serialpos": 22, "trial_type": "single-audio", "trial_index": 111, "time_elapsed": 1271612, "internal_node_id": "0.0-84.0"}}, {"uniqueid": "MTK0278:3KV0LJBBH3SPJCCISG5HEOS5BCHRMY", "current_trial": 112, "dateTime": 1510692454656, "trialdata": {"rt": -1000, "stimulus": "/static/audio/wordpool/SNACK.wav", "key_press": -1, "type": "PRES_AUD", "word": "snack", "wordID": 1330, "conditions": [24, 1600, "a", 12000], "trial": 2, "serialpos": 23, "trial_type": "single-audio", "trial_index": 112, "time_elapsed": 1274197, "internal_node_id": "0.0-85.0"}}, {"uniqueid": "MTK0278:3KV0LJBBH3SPJCCISG5HEOS5BCHRMY", "current_trial": 113, "dateTime": 1510692455983, "trialdata": {"rt": -1, "stimulus": "", "key_press": -1, "type": "PRE_RECALL_DELAY", "trial_type": "single-stim", "trial_index": 113, "time_elapsed": 1275524, "internal_node_id": "0.0-86.0-0.0"}}, {"uniqueid": "MTK0278:3KV0LJBBH3SPJCCISG5HEOS5BCHRMY", "current_trial": 114, "dateTime": 1510692456485, "trialdata": {"rt": -1000, "stimulus": "/static/audio/400Hz.wav", "key_press": -1, "type": "PRE_RECALL_ALERT", "trial_type": "single-audio", "trial_index": 114, "time_elapsed": 1276026, "internal_node_id": "0.0-87.0"}}, {"uniqueid": "MTK0278:3KV0LJBBH3SPJCCISG5HEOS5BCHRMY", "current_trial": 115, "dateTime": 1510692516493, "trialdata": {"rt": [5360, 6726, 13549, 18220, 20725, 24036, 25606, 31757, 32850, 38593, 39870, 46637, 52150, 59972], "recwords": ["snack", "muffin", "necklace", "dress", "jelly", "saddle", "radish", "blouse", "dress", "hand", "queen", "college", "tweezers", "popcorn"], "type": "FREE_RECALL", "conditions": [24, 1600, "a", 12000], "trial": 2, "trial_type": "free-recall", "trial_index": 115, "time_elapsed": 1336030, "internal_node_id": "0.0-88.0-0.0"}}, {"uniqueid": "MTK0278:3KV0LJBBH3SPJCCISG5HEOS5BCHRMY", "current_trial": 116, "dateTime": 1510692519863, "trialdata": {"rt": 1369, "key_press": 13, "type": "INSTRUCTIONS", "trial_type": "text", "trial_index": 116, "time_elapsed": 1339404, "internal_node_id": "0.0-89.0"}}, {"uniqueid": "MTK0278:3KV0LJBBH3SPJCCISG5HEOS5BCHRMY", "current_trial": 117, "dateTime": 1510692545867, "trialdata": {"rt": [2946, 5523, 7877, 10566, 12643, 14939, 17987, 20468, 22444], "responses": ["16", "17", "9", "1", "16", "19", "9", "9", "12"], "num1": [3, 9, 1, 6, 5, 3, 2, 3, 4, 7], "num2": [7, 7, 5, 6, 8, 7, 4, 1, 2, 1], "num3": [6, 1, 3, 7, 3, 9, 3, 5, 4, 4], "type": "DISTRACTOR", "conditions": [24, 1600, "a", 24000], "trial": 3, "trial_type": "math-distractor", "trial_index": 117, "time_elapsed": 1365408, "internal_node_id": "0.0-90.0"}}, {"uniqueid": "MTK0278:3KV0LJBBH3SPJCCISG5HEOS5BCHRMY", "current_trial": 118, "dateTime": 1510692548869, "trialdata": {"rt": -1, "stimulus": "<p id=\"stim\">10</p>", "key_press": -1, "trial_type": "single-stim", "trial_index": 118, "time_elapsed": 1368410, "internal_node_id": "0.0-91.0-0.0"}}, {"uniqueid": "MTK0278:3KV0LJBBH3SPJCCISG5HEOS5BCHRMY", "current_trial": 119, "dateTime": 1510692549870, "trialdata": {"rt": -1, "stimulus": "<p id=\"stim\">9</p>", "key_press": -1, "trial_type": "single-stim", "trial_index": 119, "time_elapsed": 1369411, "internal_node_id": "0.0-91.0-1.0"}}, {"uniqueid": "MTK0278:3KV0LJBBH3SPJCCISG5HEOS5BCHRMY", "current_trial": 120, "dateTime": 1510692550872, "trialdata": {"rt": -1, "stimulus": "<p id=\"stim\">8</p>", "key_press": -1, "trial_type": "single-stim", "trial_index": 120, "time_elapsed": 1370413, "internal_node_id": "0.0-91.0-2.0"}}, {"uniqueid": "MTK0278:3KV0LJBBH3SPJCCISG5HEOS5BCHRMY", "current_trial": 121, "dateTime": 1510692551874, "trialdata": {"rt": -1, "stimulus": "<p id=\"stim\">7</p>", "key_press": -1, "trial_type": "single-stim", "trial_index": 121, "time_elapsed": 1371415, "internal_node_id": "0.0-91.0-3.0"}}, {"uniqueid": "MTK0278:3KV0LJBBH3SPJCCISG5HEOS5BCHRMY", "current_trial": 122, "dateTime": 1510692552878, "trialdata": {"rt": -1, "stimulus": "<p id=\"stim\">6</p>", "key_press": -1, "trial_type": "single-stim", "trial_index": 122, "time_elapsed": 1372418, "internal_node_id": "0.0-91.0-4.0"}}, {"uniqueid": "MTK0278:3KV0LJBBH3SPJCCISG5HEOS5BCHRMY", "current_trial": 123, "dateTime": 1510692553881, "trialdata": {"rt": -1, "stimulus": "<p id=\"stim\">5</p>", "key_press": -1, "trial_type": "single-stim", "trial_index": 123, "time_elapsed": 1373422, "internal_node_id": "0.0-91.0-5.0"}}, {"uniqueid": "MTK0278:3KV0LJBBH3SPJCCISG5HEOS5BCHRMY", "current_trial": 124, "dateTime": 1510692554885, "trialdata": {"rt": -1, "stimulus": "<p id=\"stim\">4</p>", "key_press": -1, "trial_type": "single-stim", "trial_index": 124, "time_elapsed": 1374426, "internal_node_id": "0.0-91.0-6.0"}}, {"uniqueid": "MTK0278:3KV0LJBBH3SPJCCISG5HEOS5BCHRMY", "current_trial": 125, "dateTime": 1510692555887, "trialdata": {"rt": -1, "stimulus": "<p id=\"stim\">3</p>", "key_press": -1, "trial_type": "single-stim", "trial_index": 125, "time_elapsed": 1375427, "internal_node_id": "0.0-91.0-7.0"}}, {"uniqueid": "MTK0278:3KV0LJBBH3SPJCCISG5HEOS5BCHRMY", "current_trial": 126, "dateTime": 1510692556889, "trialdata": {"rt": -1, "stimulus": "<p id=\"stim\">2</p>", "key_press": -1, "trial_type": "single-stim", "trial_index": 126, "time_elapsed": 1376430, "internal_node_id": "0.0-91.0-8.0"}}, {"uniqueid": "MTK0278:3KV0LJBBH3SPJCCISG5HEOS5BCHRMY", "current_trial": 127, "dateTime": 1510692557892, "trialdata": {"rt": -1, "stimulus": "<p id=\"stim\">1</p>", "key_press": -1, "trial_type": "single-stim", "trial_index": 127, "time_elapsed": 1377432, "internal_node_id": "0.0-91.0-9.0"}}, {"uniqueid": "MTK0278:3KV0LJBBH3SPJCCISG5HEOS5BCHRMY", "current_trial": 128, "dateTime": 1510692559393, "trialdata": {"rt": -1, "stimulus": "<p id=\"stim\">+</p>", "key_press": -1, "type": "FIXATION", "trial_type": "single-stim", "trial_index": 128, "time_elapsed": 1378934, "internal_node_id": "0.0-92.0-0.0"}}, {"uniqueid": "MTK0278:3KV0LJBBH3SPJCCISG5HEOS5BCHRMY", "current_trial": 129, "dateTime": 1510692562133, "trialdata": {"rt": -1000, "stimulus": "/static/audio/wordpool/AGENT.wav", "key_press": -1, "type": "PRES_AUD", "word": "agent", "wordID": 9, "conditions": [24, 1600, "a", 24000], "trial": 3, "serialpos": 0, "trial_type": "single-audio", "trial_index": 129, "time_elapsed": 1381674, "internal_node_id": "0.0-93.0"}}, {"uniqueid": "MTK0278:3KV0LJBBH3SPJCCISG5HEOS5BCHRMY", "current_trial": 130, "dateTime": 1510692564752, "trialdata": {"rt": -1000, "stimulus": "/static/audio/wordpool/WORLD.wav", "key_press": -1, "type": "PRES_AUD", "word": "world", "wordID": 1621, "conditions": [24, 1600, "a", 24000], "trial": 3, "serialpos": 1, "trial_type": "single-audio", "trial_index": 130, "time_elapsed": 1384292, "internal_node_id": "0.0-94.0"}}, {"uniqueid": "MTK0278:3KV0LJBBH3SPJCCISG5HEOS5BCHRMY", "current_trial": 131, "dateTime": 1510692567424, "trialdata": {"rt": -1000, "stimulus": "/static/audio/wordpool/TURTLE.wav", "key_press": -1, "type": "PRES_AUD", "word": "turtle", "wordID": 1521, "conditions": [24, 1600, "a", 24000], "trial": 3, "serialpos": 2, "trial_type": "single-audio", "trial_index": 131, "time_elapsed": 1386964, "internal_node_id": "0.0-95.0"}}, {"uniqueid": "MTK0278:3KV0LJBBH3SPJCCISG5HEOS5BCHRMY", "current_trial": 132, "dateTime": 1510692570086, "trialdata": {"rt": -1000, "stimulus": "/static/audio/wordpool/LAVA.wav", "key_press": -1, "type": "PRES_AUD", "word": "lava", "wordID": 803, "conditions": [24, 1600, "a", 24000], "trial": 3, "serialpos": 3, "trial_type": "single-audio", "trial_index": 132, "time_elapsed": 1389627, "internal_node_id": "0.0-96.0"}}, {"uniqueid": "MTK0278:3KV0LJBBH3SPJCCISG5HEOS5BCHRMY", "current_trial": 133, "dateTime": 1510692572868, "trialdata": {"rt": -1000, "stimulus": "/static/audio/wordpool/EAGLE.wav", "key_press": -1, "type": "PRES_AUD", "word": "eagle", "wordID": 511, "conditions": [24, 1600, "a", 24000], "trial": 3, "serialpos": 4, "trial_type": "single-audio", "trial_index": 133, "time_elapsed": 1392409, "internal_node_id": "0.0-97.0"}}, {"uniqueid": "MTK0278:3KV0LJBBH3SPJCCISG5HEOS5BCHRMY", "current_trial": 134, "dateTime": 1510692575501, "trialdata": {"rt": -1000, "stimulus": "/static/audio/wordpool/LAKE.wav", "key_press": -1, "type": "PRES_AUD", "word": "lake", "wordID": 795, "conditions": [24, 1600, "a", 24000], "trial": 3, "serialpos": 5, "trial_type": "single-audio", "trial_index": 134, "time_elapsed": 1395042, "internal_node_id": "0.0-98.0"}}, {"uniqueid": "MTK0278:3KV0LJBBH3SPJCCISG5HEOS5BCHRMY", "current_trial": 135, "dateTime": 1510692578221, "trialdata": {"rt": -1000, "stimulus": "/static/audio/wordpool/PASTRY.wav", "key_press": -1, "type": "PRES_AUD", "word": "pastry", "wordID": 1021, "conditions": [24, 1600, "a", 24000], "trial": 3, "serialpos": 6, "trial_type": "single-audio", "trial_index": 135, "time_elapsed": 1397760, "internal_node_id": "0.0-99.0"}}, {"uniqueid": "MTK0278:3KV0LJBBH3SPJCCISG5HEOS5BCHRMY", "current_trial": 136, "dateTime": 1510692580791, "trialdata": {"rt": -1000, "stimulus": "/static/audio/wordpool/SHORTCAKE.wav", "key_press": -1, "type": "PRES_AUD", "word": "shortcake", "wordID": 1291, "conditions": [24, 1600, "a", 24000], "trial": 3, "serialpos": 7, "trial_type": "single-audio", "trial_index": 136, "time_elapsed": 1400332, "internal_node_id": "0.0-100.0"}}, {"uniqueid": "MTK0278:3KV0LJBBH3SPJCCISG5HEOS5BCHRMY", "current_trial": 137, "dateTime": 1510692583260, "trialdata": {"rt": -1000, "stimulus": "/static/audio/wordpool/GUITAR.wav", "key_press": -1, "type": "PRES_AUD", "word": "guitar", "wordID": 669, "conditions": [24, 1600, "a", 24000], "trial": 3, "serialpos": 8, "trial_type": "single-audio", "trial_index": 137, "time_elapsed": 1402800, "internal_node_id": "0.0-101.0"}}, {"uniqueid": "MTK0278:3KV0LJBBH3SPJCCISG5HEOS5BCHRMY", "current_trial": 138, "dateTime": 1510692585672, "trialdata": {"rt": -1000, "stimulus": "/static/audio/wordpool/SPIDER.wav", "key_press": -1, "type": "PRES_AUD", "word": "spider", "wordID": 1350, "conditions": [24, 1600, "a", 24000], "trial": 3, "serialpos": 9, "trial_type": "single-audio", "trial_index": 138, "time_elapsed": 1405212, "internal_node_id": "0.0-102.0"}}, {"uniqueid": "MTK0278:3KV0LJBBH3SPJCCISG5HEOS5BCHRMY", "current_trial": 139, "dateTime": 1510692588144, "trialdata": {"rt": -1000, "stimulus": "/static/audio/wordpool/SHARK.wav", "key_press": -1, "type": "PRES_AUD", "word": "shark", "wordID": 1274, "conditions": [24, 1600, "a", 24000], "trial": 3, "serialpos": 10, "trial_type": "single-audio", "trial_index": 139, "time_elapsed": 1407685, "internal_node_id": "0.0-103.0"}}, {"uniqueid": "MTK0278:3KV0LJBBH3SPJCCISG5HEOS5BCHRMY", "current_trial": 140, "dateTime": 1510692590791, "trialdata": {"rt": -1000, "stimulus": "/static/audio/wordpool/EGYPT.wav", "key_press": -1, "type": "PRES_AUD", "word": "egypt", "wordID": 518, "conditions": [24, 1600, "a", 24000], "trial": 3, "serialpos": 11, "trial_type": "single-audio", "trial_index": 140, "time_elapsed": 1410332, "internal_node_id": "0.0-104.0"}}, {"uniqueid": "MTK0278:3KV0LJBBH3SPJCCISG5HEOS5BCHRMY", "current_trial": 141, "dateTime": 1510692593521, "trialdata": {"rt": -1000, "stimulus": "/static/audio/wordpool/GOBLIN.wav", "key_press": -1, "type": "PRES_AUD", "word": "goblin", "wordID": 644, "conditions": [24, 1600, "a", 24000], "trial": 3, "serialpos": 12, "trial_type": "single-audio", "trial_index": 141, "time_elapsed": 1413062, "internal_node_id": "0.0-105.0"}}, {"uniqueid": "MTK0278:3KV0LJBBH3SPJCCISG5HEOS5BCHRMY", "current_trial": 142, "dateTime": 1510692596294, "trialdata": {"rt": -1000, "stimulus": "/static/audio/wordpool/MONSTER.wav", "key_press": -1, "type": "PRES_AUD", "word": "monster", "wordID": 911, "conditions": [24, 1600, "a", 24000], "trial": 3, "serialpos": 13, "trial_type": "single-audio", "trial_index": 142, "time_elapsed": 1415835, "internal_node_id": "0.0-106.0"}}, {"uniqueid": "MTK0278:3KV0LJBBH3SPJCCISG5HEOS5BCHRMY", "current_trial": 143, "dateTime": 1510692598915, "trialdata": {"rt": -1000, "stimulus": "/static/audio/wordpool/DONKEY.wav", "key_press": -1, "type": "PRES_AUD", "word": "donkey", "wordID": 483, "conditions": [24, 1600, "a", 24000], "trial": 3, "serialpos": 14, "trial_type": "single-audio", "trial_index": 143, "time_elapsed": 1418456, "internal_node_id": "0.0-107.0"}}, {"uniqueid": "MTK0278:3KV0LJBBH3SPJCCISG5HEOS5BCHRMY", "current_trial": 144, "dateTime": 1510692601531, "trialdata": {"rt": -1000, "stimulus": "/static/audio/wordpool/CAMEL.wav", "key_press": -1, "type": "PRES_AUD", "word": "camel", "wordID": 222, "conditions": [24, 1600, "a", 24000], "trial": 3, "serialpos": 15, "trial_type": "single-audio", "trial_index": 144, "time_elapsed": 1421072, "internal_node_id": "0.0-108.0"}}, {"uniqueid": "MTK0278:3KV0LJBBH3SPJCCISG5HEOS5BCHRMY", "current_trial": 145, "dateTime": 1510692604188, "trialdata": {"rt": -1000, "stimulus": "/static/audio/wordpool/OINTMENT.wav", "key_press": -1, "type": "PRES_AUD", "word": "ointment", "wordID": 973, "conditions": [24, 1600, "a", 24000], "trial": 3, "serialpos": 16, "trial_type": "single-audio", "trial_index": 145, "time_elapsed": 1423729, "internal_node_id": "0.0-109.0"}}, {"uniqueid": "MTK0278:3KV0LJBBH3SPJCCISG5HEOS5BCHRMY", "current_trial": 146, "dateTime": 1510692606765, "trialdata": {"rt": -1000, "stimulus": "/static/audio/wordpool/ASIA.wav", "key_press": -1, "type": "PRES_AUD", "word": "asia", "wordID": 45, "conditions": [24, 1600, "a", 24000], "trial": 3, "serialpos": 17, "trial_type": "single-audio", "trial_index": 146, "time_elapsed": 1426305, "internal_node_id": "0.0-110.0"}}, {"uniqueid": "MTK0278:3KV0LJBBH3SPJCCISG5HEOS5BCHRMY", "current_trial": 147, "dateTime": 1510692609374, "trialdata": {"rt": -1000, "stimulus": "/static/audio/wordpool/CRICKET.wav", "key_press": -1, "type": "PRES_AUD", "word": "cricket", "wordID": 407, "conditions": [24, 1600, "a", 24000], "trial": 3, "serialpos": 18, "trial_type": "single-audio", "trial_index": 147, "time_elapsed": 1428914, "internal_node_id": "0.0-111.0"}}, {"uniqueid": "MTK0278:3KV0LJBBH3SPJCCISG5HEOS5BCHRMY", "current_trial": 148, "dateTime": 1510692611934, "trialdata": {"rt": -1000, "stimulus": "/static/audio/wordpool/PLAZA.wav", "key_press": -1, "type": "PRES_AUD", "word": "plaza", "wordID": 1087, "conditions": [24, 1600, "a", 24000], "trial": 3, "serialpos": 19, "trial_type": "single-audio", "trial_index": 148, "time_elapsed": 1431475, "internal_node_id": "0.0-112.0"}}, {"uniqueid": "MTK0278:3KV0LJBBH3SPJCCISG5HEOS5BCHRMY", "current_trial": 149, "dateTime": 1510692614719, "trialdata": {"rt": -1000, "stimulus": "/static/audio/wordpool/BEAST.wav", "key_press": -1, "type": "PRES_AUD", "word": "beast", "wordID": 107, "conditions": [24, 1600, "a", 24000], "trial": 3, "serialpos": 20, "trial_type": "single-audio", "trial_index": 149, "time_elapsed": 1434259, "internal_node_id": "0.0-113.0"}}, {"uniqueid": "MTK0278:3KV0LJBBH3SPJCCISG5HEOS5BCHRMY", "current_trial": 150, "dateTime": 1510692617216, "trialdata": {"rt": -1000, "stimulus": "/static/audio/wordpool/PUPPY.wav", "key_press": -1, "type": "PRES_AUD", "word": "puppy", "wordID": 1143, "conditions": [24, 1600, "a", 24000], "trial": 3, "serialpos": 21, "trial_type": "single-audio", "trial_index": 150, "time_elapsed": 1436757, "internal_node_id": "0.0-114.0"}}, {"uniqueid": "MTK0278:3KV0LJBBH3SPJCCISG5HEOS5BCHRMY", "current_trial": 151, "dateTime": 1510692619861, "trialdata": {"rt": -1000, "stimulus": "/static/audio/wordpool/ROD.wav", "key_press": -1, "type": "PRES_AUD", "word": "rod", "wordID": 1202, "conditions": [24, 1600, "a", 24000], "trial": 3, "serialpos": 22, "trial_type": "single-audio", "trial_index": 151, "time_elapsed": 1439401, "internal_node_id": "0.0-115.0"}}, {"uniqueid": "MTK0278:3KV0LJBBH3SPJCCISG5HEOS5BCHRMY", "current_trial": 152, "dateTime": 1510692622379, "trialdata": {"rt": -1000, "stimulus": "/static/audio/wordpool/PECAN.wav", "key_press": -1, "type": "PRES_AUD", "word": "pecan", "wordID": 1035, "conditions": [24, 1600, "a", 24000], "trial": 3, "serialpos": 23, "trial_type": "single-audio", "trial_index": 152, "time_elapsed": 1441920, "internal_node_id": "0.0-116.0"}}, {"uniqueid": "MTK0278:3KV0LJBBH3SPJCCISG5HEOS5BCHRMY", "current_trial": 153, "dateTime": 1510692623772, "trialdata": {"rt": -1, "stimulus": "", "key_press": -1, "type": "PRE_RECALL_DELAY", "trial_type": "single-stim", "trial_index": 153, "time_elapsed": 1443313, "internal_node_id": "0.0-117.0-0.0"}}, {"uniqueid": "MTK0278:3KV0LJBBH3SPJCCISG5HEOS5BCHRMY", "current_trial": 154, "dateTime": 1510692624273, "trialdata": {"rt": -1000, "stimulus": "/static/audio/400Hz.wav", "key_press": -1, "type": "PRE_RECALL_ALERT", "trial_type": "single-audio", "trial_index": 154, "time_elapsed": 1443814, "internal_node_id": "0.0-118.0"}}, {"uniqueid": "MTK0278:3KV0LJBBH3SPJCCISG5HEOS5BCHRMY", "current_trial": 155, "dateTime": 1510692684284, "trialdata": {"rt": [4471, 5392, 13832, 21465, 26445, 27269, 28739, 33325, 34621, 35986, 41887, 43111, 46975, 48373, 50890, 54033], "recwords": ["pecan", "rod", "asia", "puppy", "eagle", "lake", "pastry", "guitar", "spider", "shark", "monster", "donkey", "goblin", "short", "short", "shortcake"], "type": "FREE_RECALL", "conditions": [24, 1600, "a", 24000], "trial": 3, "trial_type": "free-recall", "trial_index": 155, "time_elapsed": 1503818, "internal_node_id": "0.0-119.0-0.0"}}, {"uniqueid": "MTK0278:3KV0LJBBH3SPJCCISG5HEOS5BCHRMY", "current_trial": 156, "dateTime": 1510692695249, "trialdata": {"rt": 8963, "key_press": 13, "type": "INSTRUCTIONS", "trial_type": "text", "trial_index": 156, "time_elapsed": 1514790, "internal_node_id": "0.0-120.0"}}, {"uniqueid": "MTK0278:3KV0LJBBH3SPJCCISG5HEOS5BCHRMY", "current_trial": 157, "dateTime": 1510692709254, "trialdata": {"rt": [2223, 4005, 5963, 7831, 10294], "responses": ["18", "7", "12", "20", "11"], "num1": [5, 1, 2, 7, 1, 2], "num2": [7, 5, 2, 7, 3, 3], "num3": [6, 1, 8, 6, 7, 4], "type": "DISTRACTOR", "conditions": [12, 1600, "a", 12000], "trial": 4, "trial_type": "math-distractor", "trial_index": 157, "time_elapsed": 1528795, "internal_node_id": "0.0-121.0"}}, {"uniqueid": "MTK0278:3KV0LJBBH3SPJCCISG5HEOS5BCHRMY", "current_trial": 158, "dateTime": 1510692712258, "trialdata": {"rt": -1, "stimulus": "<p id=\"stim\">10</p>", "key_press": -1, "trial_type": "single-stim", "trial_index": 158, "time_elapsed": 1531798, "internal_node_id": "0.0-122.0-0.0"}}, {"uniqueid": "MTK0278:3KV0LJBBH3SPJCCISG5HEOS5BCHRMY", "current_trial": 159, "dateTime": 1510692713259, "trialdata": {"rt": -1, "stimulus": "<p id=\"stim\">9</p>", "key_press": -1, "trial_type": "single-stim", "trial_index": 159, "time_elapsed": 1532800, "internal_node_id": "0.0-122.0-1.0"}}, {"uniqueid": "MTK0278:3KV0LJBBH3SPJCCISG5HEOS5BCHRMY", "current_trial": 160, "dateTime": 1510692714261, "trialdata": {"rt": -1, "stimulus": "<p id=\"stim\">8</p>", "key_press": -1, "trial_type": "single-stim", "trial_index": 160, "time_elapsed": 1533802, "internal_node_id": "0.0-122.0-2.0"}}, {"uniqueid": "MTK0278:3KV0LJBBH3SPJCCISG5HEOS5BCHRMY", "current_trial": 161, "dateTime": 1510692715262, "trialdata": {"rt": -1, "stimulus": "<p id=\"stim\">7</p>", "key_press": -1, "trial_type": "single-stim", "trial_index": 161, "time_elapsed": 1534802, "internal_node_id": "0.0-122.0-3.0"}}, {"uniqueid": "MTK0278:3KV0LJBBH3SPJCCISG5HEOS5BCHRMY", "current_trial": 162, "dateTime": 1510692716263, "trialdata": {"rt": -1, "stimulus": "<p id=\"stim\">6</p>", "key_press": -1, "trial_type": "single-stim", "trial_index": 162, "time_elapsed": 1535803, "internal_node_id": "0.0-122.0-4.0"}}, {"uniqueid": "MTK0278:3KV0LJBBH3SPJCCISG5HEOS5BCHRMY", "current_trial": 163, "dateTime": 1510692717275, "trialdata": {"rt": -1, "stimulus": "<p id=\"stim\">5</p>", "key_press": -1, "trial_type": "single-stim", "trial_index": 163, "time_elapsed": 1536816, "internal_node_id": "0.0-122.0-5.0"}}, {"uniqueid": "MTK0278:3KV0LJBBH3SPJCCISG5HEOS5BCHRMY", "current_trial": 164, "dateTime": 1510692718279, "trialdata": {"rt": -1, "stimulus": "<p id=\"stim\">4</p>", "key_press": -1, "trial_type": "single-stim", "trial_index": 164, "time_elapsed": 1537820, "internal_node_id": "0.0-122.0-6.0"}}, {"uniqueid": "MTK0278:3KV0LJBBH3SPJCCISG5HEOS5BCHRMY", "current_trial": 165, "dateTime": 1510692719280, "trialdata": {"rt": -1, "stimulus": "<p id=\"stim\">3</p>", "key_press": -1, "trial_type": "single-stim", "trial_index": 165, "time_elapsed": 1538821, "internal_node_id": "0.0-122.0-7.0"}}, {"uniqueid": "MTK0278:3KV0LJBBH3SPJCCISG5HEOS5BCHRMY", "current_trial": 166, "dateTime": 1510692720282, "trialdata": {"rt": -1, "stimulus": "<p id=\"stim\">2</p>", "key_press": -1, "trial_type": "single-stim", "trial_index": 166, "time_elapsed": 1539823, "internal_node_id": "0.0-122.0-8.0"}}, {"uniqueid": "MTK0278:3KV0LJBBH3SPJCCISG5HEOS5BCHRMY", "current_trial": 167, "dateTime": 1510692721286, "trialdata": {"rt": -1, "stimulus": "<p id=\"stim\">1</p>", "key_press": -1, "trial_type": "single-stim", "trial_index": 167, "time_elapsed": 1540825, "internal_node_id": "0.0-122.0-9.0"}}, {"uniqueid": "MTK0278:3KV0LJBBH3SPJCCISG5HEOS5BCHRMY", "current_trial": 168, "dateTime": 1510692722788, "trialdata": {"rt": -1, "stimulus": "<p id=\"stim\">+</p>", "key_press": -1, "type": "FIXATION", "trial_type": "single-stim", "trial_index": 168, "time_elapsed": 1542329, "internal_node_id": "0.0-123.0-0.0"}}, {"uniqueid": "MTK0278:3KV0LJBBH3SPJCCISG5HEOS5BCHRMY", "current_trial": 169, "dateTime": 1510692725238, "trialdata": {"rt": -1000, "stimulus": "/static/audio/wordpool/NIGHTGOWN.wav", "key_press": -1, "type": "PRES_AUD", "word": "nightgown", "wordID": 952, "conditions": [12, 1600, "a", 12000], "trial": 4, "serialpos": 0, "trial_type": "single-audio", "trial_index": 169, "time_elapsed": 1544776, "internal_node_id": "0.0-124.0"}}, {"uniqueid": "MTK0278:3KV0LJBBH3SPJCCISG5HEOS5BCHRMY", "current_trial": 170, "dateTime": 1510692727870, "trialdata": {"rt": -1000, "stimulus": "/static/audio/wordpool/PARTNER.wav", "key_press": -1, "type": "PRES_AUD", "word": "partner", "wordID": 1016, "conditions": [12, 1600, "a", 12000], "trial": 4, "serialpos": 1, "trial_type": "single-audio", "trial_index": 170, "time_elapsed": 1547411, "internal_node_id": "0.0-125.0"}}, {"uniqueid": "MTK0278:3KV0LJBBH3SPJCCISG5HEOS5BCHRMY", "current_trial": 171, "dateTime": 1510692730649, "trialdata": {"rt": -1000, "stimulus": "/static/audio/wordpool/SEAFOOD.wav", "key_press": -1, "type": "PRES_AUD", "word": "seafood", "wordID": 1259, "conditions": [12, 1600, "a", 12000], "trial": 4, "serialpos": 2, "trial_type": "single-audio", "trial_index": 171, "time_elapsed": 1550189, "internal_node_id": "0.0-126.0"}}, {"uniqueid": "MTK0278:3KV0LJBBH3SPJCCISG5HEOS5BCHRMY", "current_trial": 172, "dateTime": 1510692733128, "trialdata": {"rt": -1000, "stimulus": "/static/audio/wordpool/COD.wav", "key_press": -1, "type": "PRES_AUD", "word": "cod", "wordID": 339, "conditions": [12, 1600, "a", 12000], "trial": 4, "serialpos": 3, "trial_type": "single-audio", "trial_index": 172, "time_elapsed": 1552668, "internal_node_id": "0.0-127.0"}}, {"uniqueid": "MTK0278:3KV0LJBBH3SPJCCISG5HEOS5BCHRMY", "current_trial": 173, "dateTime": 1510692735791, "trialdata": {"rt": -1000, "stimulus": "/static/audio/wordpool/TART.wav", "key_press": -1, "type": "PRES_AUD", "word": "tart", "wordID": 1435, "conditions": [12, 1600, "a", 12000], "trial": 4, "serialpos": 4, "trial_type": "single-audio", "trial_index": 173, "time_elapsed": 1555332, "internal_node_id": "0.0-128.0"}}, {"uniqueid": "MTK0278:3KV0LJBBH3SPJCCISG5HEOS5BCHRMY", "current_trial": 174, "dateTime": 1510692738458, "trialdata": {"rt": -1000, "stimulus": "/static/audio/wordpool/TOASTER.wav", "key_press": -1, "type": "PRES_AUD", "word": "toaster", "wordID": 1471, "conditions": [12, 1600, "a", 12000], "trial": 4, "serialpos": 5, "trial_type": "single-audio", "trial_index": 174, "time_elapsed": 1557999, "internal_node_id": "0.0-129.0"}}, {"uniqueid": "MTK0278:3KV0LJBBH3SPJCCISG5HEOS5BCHRMY", "current_trial": 175, "dateTime": 1510692741108, "trialdata": {"rt": -1000, "stimulus": "/static/audio/wordpool/PUDDING.wav", "key_press": -1, "type": "PRES_AUD", "word": "pudding", "wordID": 1138, "conditions": [12, 1600, "a", 12000], "trial": 4, "serialpos": 6, "trial_type": "single-audio", "trial_index": 175, "time_elapsed": 1560648, "internal_node_id": "0.0-130.0"}}, {"uniqueid": "MTK0278:3KV0LJBBH3SPJCCISG5HEOS5BCHRMY", "current_trial": 176, "dateTime": 1510692743728, "trialdata": {"rt": -1000, "stimulus": "/static/audio/wordpool/KETCHUP.wav", "key_press": -1, "type": "PRES_AUD", "word": "ketchup", "wordID": 770, "conditions": [12, 1600, "a", 12000], "trial": 4, "serialpos": 7, "trial_type": "single-audio", "trial_index": 176, "time_elapsed": 1563268, "internal_node_id": "0.0-131.0"}}, {"uniqueid": "MTK0278:3KV0LJBBH3SPJCCISG5HEOS5BCHRMY", "current_trial": 177, "dateTime": 1510692746330, "trialdata": {"rt": -1000, "stimulus": "/static/audio/wordpool/ARM.wav", "key_press": -1, "type": "PRES_AUD", "word": "arm", "wordID": 37, "conditions": [12, 1600, "a", 12000], "trial": 4, "serialpos": 8, "trial_type": "single-audio", "trial_index": 177, "time_elapsed": 1565871, "internal_node_id": "0.0-132.0"}}, {"uniqueid": "MTK0278:3KV0LJBBH3SPJCCISG5HEOS5BCHRMY", "current_trial": 178, "dateTime": 1510692748744, "trialdata": {"rt": -1000, "stimulus": "/static/audio/wordpool/TUTU.wav", "key_press": -1, "type": "PRES_AUD", "word": "tutu", "wordID": 1523, "conditions": [12, 1600, "a", 12000], "trial": 4, "serialpos": 9, "trial_type": "single-audio", "trial_index": 178, "time_elapsed": 1568284, "internal_node_id": "0.0-133.0"}}, {"uniqueid": "MTK0278:3KV0LJBBH3SPJCCISG5HEOS5BCHRMY", "current_trial": 179, "dateTime": 1510692751319, "trialdata": {"rt": -1000, "stimulus": "/static/audio/wordpool/TRUCK.wav", "key_press": -1, "type": "PRES_AUD", "word": "truck", "wordID": 1511, "conditions": [12, 1600, "a", 12000], "trial": 4, "serialpos": 10, "trial_type": "single-audio", "trial_index": 179, "time_elapsed": 1570860, "internal_node_id": "0.0-134.0"}}, {"uniqueid": "MTK0278:3KV0LJBBH3SPJCCISG5HEOS5BCHRMY", "current_trial": 180, "dateTime": 1510692754054, "trialdata": {"rt": -1000, "stimulus": "/static/audio/wordpool/SISTER.wav", "key_press": -1, "type": "PRES_AUD", "word": "sister", "wordID": 1311, "conditions": [12, 1600, "a", 12000], "trial": 4, "serialpos": 11, "trial_type": "single-audio", "trial_index": 180, "time_elapsed": 1573595, "internal_node_id": "0.0-135.0"}}, {"uniqueid": "MTK0278:3KV0LJBBH3SPJCCISG5HEOS5BCHRMY", "current_trial": 181, "dateTime": 1510692755266, "trialdata": {"rt": -1, "stimulus": "", "key_press": -1, "type": "PRE_RECALL_DELAY", "trial_type": "single-stim", "trial_index": 181, "time_elapsed": 1574807, "internal_node_id": "0.0-136.0-0.0"}}, {"uniqueid": "MTK0278:3KV0LJBBH3SPJCCISG5HEOS5BCHRMY", "current_trial": 182, "dateTime": 1510692755769, "trialdata": {"rt": -1000, "stimulus": "/static/audio/400Hz.wav", "key_press": -1, "type": "PRE_RECALL_ALERT", "trial_type": "single-audio", "trial_index": 182, "time_elapsed": 1575310, "internal_node_id": "0.0-137.0"}}, {"uniqueid": "MTK0278:3KV0LJBBH3SPJCCISG5HEOS5BCHRMY", "current_trial": 183, "dateTime": 1510692815778, "trialdata": {"rt": [3833, 5382, 6829, 8344, 13699, 15116, 20522, 21601, 23085, 32137, 49435], "recwords": ["arm", "pudding", "tart", "toaster", "seafood", "cod", "sister", "truck", "tutu", "catsup", "arm"], "type": "FREE_RECALL", "conditions": [12, 1600, "a", 12000], "trial": 4, "trial_type": "free-recall", "trial_index": 183, "time_elapsed": 1635314, "internal_node_id": "0.0-138.0-0.0"}}, {"uniqueid": "MTK0278:3KV0LJBBH3SPJCCISG5HEOS5BCHRMY", "current_trial": 184, "dateTime": 1510692818957, "trialdata": {"rt": 1176, "key_press": 13, "type": "INSTRUCTIONS", "trial_type": "text", "trial_index": 184, "time_elapsed": 1638496, "internal_node_id": "0.0-139.0"}}, {"uniqueid": "MTK0278:3KV0LJBBH3SPJCCISG5HEOS5BCHRMY", "current_trial": 185, "dateTime": 1510692832963, "trialdata": {"rt": [2770, 4437, 6205, 7919, 10020, 11839], "responses": ["16", "13", "7", "14", "20", "17"], "num1": [2, 4, 2, 8, 4, 9, 3], "num2": [9, 1, 1, 3, 3, 5, 5], "num3": [5, 8, 4, 3, 8, 3, 2], "type": "DISTRACTOR", "conditions": [12, 800, "a", 12000], "trial": 5, "trial_type": "math-distractor", "trial_index": 185, "time_elapsed": 1652504, "internal_node_id": "0.0-140.0"}}, {"uniqueid": "MTK0278:3KV0LJBBH3SPJCCISG5HEOS5BCHRMY", "current_trial": 186, "dateTime": 1510692835966, "trialdata": {"rt": -1, "stimulus": "<p id=\"stim\">10</p>", "key_press": -1, "trial_type": "single-stim", "trial_index": 186, "time_elapsed": 1655506, "internal_node_id": "0.0-141.0-0.0"}}, {"uniqueid": "MTK0278:3KV0LJBBH3SPJCCISG5HEOS5BCHRMY", "current_trial": 187, "dateTime": 1510692836970, "trialdata": {"rt": -1, "stimulus": "<p id=\"stim\">9</p>", "key_press": -1, "trial_type": "single-stim", "trial_index": 187, "time_elapsed": 1656509, "internal_node_id": "0.0-141.0-1.0"}}, {"uniqueid": "MTK0278:3KV0LJBBH3SPJCCISG5HEOS5BCHRMY", "current_trial": 188, "dateTime": 1510692837977, "trialdata": {"rt": -1, "stimulus": "<p id=\"stim\">8</p>", "key_press": -1, "trial_type": "single-stim", "trial_index": 188, "time_elapsed": 1657517, "internal_node_id": "0.0-141.0-2.0"}}, {"uniqueid": "MTK0278:3KV0LJBBH3SPJCCISG5HEOS5BCHRMY", "current_trial": 189, "dateTime": 1510692838979, "trialdata": {"rt": -1, "stimulus": "<p id=\"stim\">7</p>", "key_press": -1, "trial_type": "single-stim", "trial_index": 189, "time_elapsed": 1658520, "internal_node_id": "0.0-141.0-3.0"}}, {"uniqueid": "MTK0278:3KV0LJBBH3SPJCCISG5HEOS5BCHRMY", "current_trial": 190, "dateTime": 1510692839982, "trialdata": {"rt": -1, "stimulus": "<p id=\"stim\">6</p>", "key_press": -1, "trial_type": "single-stim", "trial_index": 190, "time_elapsed": 1659523, "internal_node_id": "0.0-141.0-4.0"}}, {"uniqueid": "MTK0278:3KV0LJBBH3SPJCCISG5HEOS5BCHRMY", "current_trial": 191, "dateTime": 1510692840985, "trialdata": {"rt": -1, "stimulus": "<p id=\"stim\">5</p>", "key_press": -1, "trial_type": "single-stim", "trial_index": 191, "time_elapsed": 1660526, "internal_node_id": "0.0-141.0-5.0"}}, {"uniqueid": "MTK0278:3KV0LJBBH3SPJCCISG5HEOS5BCHRMY", "current_trial": 192, "dateTime": 1510692841987, "trialdata": {"rt": -1, "stimulus": "<p id=\"stim\">4</p>", "key_press": -1, "trial_type": "single-stim", "trial_index": 192, "time_elapsed": 1661528, "internal_node_id": "0.0-141.0-6.0"}}, {"uniqueid": "MTK0278:3KV0LJBBH3SPJCCISG5HEOS5BCHRMY", "current_trial": 193, "dateTime": 1510692842989, "trialdata": {"rt": -1, "stimulus": "<p id=\"stim\">3</p>", "key_press": -1, "trial_type": "single-stim", "trial_index": 193, "time_elapsed": 1662529, "internal_node_id": "0.0-141.0-7.0"}}, {"uniqueid": "MTK0278:3KV0LJBBH3SPJCCISG5HEOS5BCHRMY", "current_trial": 194, "dateTime": 1510692843990, "trialdata": {"rt": -1, "stimulus": "<p id=\"stim\">2</p>", "key_press": -1, "trial_type": "single-stim", "trial_index": 194, "time_elapsed": 1663530, "internal_node_id": "0.0-141.0-8.0"}}, {"uniqueid": "MTK0278:3KV0LJBBH3SPJCCISG5HEOS5BCHRMY", "current_trial": 195, "dateTime": 1510692844992, "trialdata": {"rt": -1, "stimulus": "<p id=\"stim\">1</p>", "key_press": -1, "trial_type": "single-stim", "trial_index": 195, "time_elapsed": 1664533, "internal_node_id": "0.0-141.0-9.0"}}, {"uniqueid": "MTK0278:3KV0LJBBH3SPJCCISG5HEOS5BCHRMY", "current_trial": 196, "dateTime": 1510692846493, "trialdata": {"rt": -1, "stimulus": "<p id=\"stim\">+</p>", "key_press": -1, "type": "FIXATION", "trial_type": "single-stim", "trial_index": 196, "time_elapsed": 1666034, "internal_node_id": "0.0-142.0-0.0"}}, {"uniqueid": "MTK0278:3KV0LJBBH3SPJCCISG5HEOS5BCHRMY", "current_trial": 197, "dateTime": 1510692848186, "trialdata": {"rt": -1000, "stimulus": "/static/audio/wordpool/BUGGY.wav", "key_press": -1, "type": "PRES_AUD", "word": "buggy", "wordID": 187, "conditions": [12, 800, "a", 12000], "trial": 5, "serialpos": 0, "trial_type": "single-audio", "trial_index": 197, "time_elapsed": 1667726, "internal_node_id": "0.0-143.0"}}, {"uniqueid": "MTK0278:3KV0LJBBH3SPJCCISG5HEOS5BCHRMY", "current_trial": 198, "dateTime": 1510692850166, "trialdata": {"rt": -1000, "stimulus": "/static/audio/wordpool/SNAKE.wav", "key_press": -1, "type": "PRES_AUD", "word": "snake", "wordID": 1332, "conditions": [12, 800, "a", 12000], "trial": 5, "serialpos": 1, "trial_type": "single-audio", "trial_index": 198, "time_elapsed": 1669706, "internal_node_id": "0.0-144.0"}}, {"uniqueid": "MTK0278:3KV0LJBBH3SPJCCISG5HEOS5BCHRMY", "current_trial": 199, "dateTime": 1510692852109, "trialdata": {"rt": -1000, "stimulus": "/static/audio/wordpool/TORTOISE.wav", "key_press": -1, "type": "PRES_AUD", "word": "tortoise", "wordID": 1485, "conditions": [12, 800, "a", 12000], "trial": 5, "serialpos": 2, "trial_type": "single-audio", "trial_index": 199, "time_elapsed": 1671649, "internal_node_id": "0.0-145.0"}}, {"uniqueid": "MTK0278:3KV0LJBBH3SPJCCISG5HEOS5BCHRMY", "current_trial": 200, "dateTime": 1510692853794, "trialdata": {"rt": -1000, "stimulus": "/static/audio/wordpool/COFFEE.wav", "key_press": -1, "type": "PRES_AUD", "word": "coffee", "wordID": 340, "conditions": [12, 800, "a", 12000], "trial": 5, "serialpos": 3, "trial_type": "single-audio", "trial_index": 200, "time_elapsed": 1673334, "internal_node_id": "0.0-146.0"}}, {"uniqueid": "MTK0278:3KV0LJBBH3SPJCCISG5HEOS5BCHRMY", "current_trial": 201, "dateTime": 1510692855535, "trialdata": {"rt": -1000, "stimulus": "/static/audio/wordpool/SKILLET.wav", "key_press": -1, "type": "PRES_AUD", "word": "skillet", "wordID": 1316, "conditions": [12, 800, "a", 12000], "trial": 5, "serialpos": 4, "trial_type": "single-audio", "trial_index": 201, "time_elapsed": 1675075, "internal_node_id": "0.0-147.0"}}, {"uniqueid": "MTK0278:3KV0LJBBH3SPJCCISG5HEOS5BCHRMY", "current_trial": 202, "dateTime": 1510692857173, "trialdata": {"rt": -1000, "stimulus": "/static/audio/wordpool/ZIPPER.wav", "key_press": -1, "type": "PRES_AUD", "word": "zipper", "wordID": 1635, "conditions": [12, 800, "a", 12000], "trial": 5, "serialpos": 5, "trial_type": "single-audio", "trial_index": 202, "time_elapsed": 1676714, "internal_node_id": "0.0-148.0"}}, {"uniqueid": "MTK0278:3KV0LJBBH3SPJCCISG5HEOS5BCHRMY", "current_trial": 203, "dateTime": 1510692859060, "trialdata": {"rt": -1000, "stimulus": "/static/audio/wordpool/PICNIC.wav", "key_press": -1, "type": "PRES_AUD", "word": "picnic", "wordID": 1059, "conditions": [12, 800, "a", 12000], "trial": 5, "serialpos": 6, "trial_type": "single-audio", "trial_index": 203, "time_elapsed": 1678601, "internal_node_id": "0.0-149.0"}}, {"uniqueid": "MTK0278:3KV0LJBBH3SPJCCISG5HEOS5BCHRMY", "current_trial": 204, "dateTime": 1510692860845, "trialdata": {"rt": -1000, "stimulus": "/static/audio/wordpool/STAMP.wav", "key_press": -1, "type": "PRES_AUD", "word": "stamp", "wordID": 1369, "conditions": [12, 800, "a", 12000], "trial": 5, "serialpos": 7, "trial_type": "single-audio", "trial_index": 204, "time_elapsed": 1680386, "internal_node_id": "0.0-150.0"}}, {"uniqueid": "MTK0278:3KV0LJBBH3SPJCCISG5HEOS5BCHRMY", "current_trial": 205, "dateTime": 1510692862662, "trialdata": {"rt": -1000, "stimulus": "/static/audio/wordpool/SODA.wav", "key_press": -1, "type": "PRES_AUD", "word": "soda", "wordID": 1340, "conditions": [12, 800, "a", 12000], "trial": 5, "serialpos": 8, "trial_type": "single-audio", "trial_index": 205, "time_elapsed": 1682202, "internal_node_id": "0.0-151.0"}}, {"uniqueid": "MTK0278:3KV0LJBBH3SPJCCISG5HEOS5BCHRMY", "current_trial": 206, "dateTime": 1510692864551, "trialdata": {"rt": -1000, "stimulus": "/static/audio/wordpool/SUPPER.wav", "key_press": -1, "type": "PRES_AUD", "word": "supper", "wordID": 1410, "conditions": [12, 800, "a", 12000], "trial": 5, "serialpos": 9, "trial_type": "single-audio", "trial_index": 206, "time_elapsed": 1684091, "internal_node_id": "0.0-152.0"}}, {"uniqueid": "MTK0278:3KV0LJBBH3SPJCCISG5HEOS5BCHRMY", "current_trial": 207, "dateTime": 1510692866182, "trialdata": {"rt": -1000, "stimulus": "/static/audio/wordpool/VAGRANT.wav", "key_press": -1, "type": "PRES_AUD", "word": "vagrant", "wordID": 1543, "conditions": [12, 800, "a", 12000], "trial": 5, "serialpos": 10, "trial_type": "single-audio", "trial_index": 207, "time_elapsed": 1685723, "internal_node_id": "0.0-153.0"}}, {"uniqueid": "MTK0278:3KV0LJBBH3SPJCCISG5HEOS5BCHRMY", "current_trial": 208, "dateTime": 1510692867802, "trialdata": {"rt": -1000, "stimulus": "/static/audio/wordpool/GALLON.wav", "key_press": -1, "type": "PRES_AUD", "word": "gallon", "wordID": 617, "conditions": [12, 800, "a", 12000], "trial": 5, "serialpos": 11, "trial_type": "single-audio", "trial_index": 208, "time_elapsed": 1687343, "internal_node_id": "0.0-154.0"}}, {"uniqueid": "MTK0278:3KV0LJBBH3SPJCCISG5HEOS5BCHRMY", "current_trial": 209, "dateTime": 1510692869136, "trialdata": {"rt": -1, "stimulus": "", "key_press": -1, "type": "PRE_RECALL_DELAY", "trial_type": "single-stim", "trial_index": 209, "time_elapsed": 1688677, "internal_node_id": "0.0-155.0-0.0"}}, {"uniqueid": "MTK0278:3KV0LJBBH3SPJCCISG5HEOS5BCHRMY", "current_trial": 210, "dateTime": 1510692869638, "trialdata": {"rt": -1000, "stimulus": "/static/audio/400Hz.wav", "key_press": -1, "type": "PRE_RECALL_ALERT", "trial_type": "single-audio", "trial_index": 210, "time_elapsed": 1689179, "internal_node_id": "0.0-156.0"}}, {"uniqueid": "MTK0278:3KV0LJBBH3SPJCCISG5HEOS5BCHRMY", "current_trial": 211, "dateTime": 1510692929656, "trialdata": {"rt": [3997, 6171, 9290, 11263, 20312, 22137, 27036, 28470], "recwords": ["gallon", "vagrant", "zipper", "soda", "snake", "buggy", "coffee", "skillet"], "type": "FREE_RECALL", "conditions": [12, 800, "a", 12000], "trial": 5, "trial_type": "free-recall", "trial_index": 211, "time_elapsed": 1749185, "internal_node_id": "0.0-157.0-0.0"}}, {"uniqueid": "MTK0278:3KV0LJBBH3SPJCCISG5HEOS5BCHRMY", "current_trial": 212, "dateTime": 1510692933236, "trialdata": {"rt": 1578, "key_press": 13, "type": "INSTRUCTIONS", "trial_type": "text", "trial_index": 212, "time_elapsed": 1752777, "internal_node_id": "0.0-158.0"}}, {"uniqueid": "MTK0278:3KV0LJBBH3SPJCCISG5HEOS5BCHRMY", "current_trial": 213, "dateTime": 1510692947240, "trialdata": {"rt": [1863, 5915, 8674, 10954], "responses": ["18", "15", "18", "13"], "num1": [8, 9, 9, 9, 5], "num2": [1, 2, 3, 2, 3], "num3": [9, 4, 6, 2, 7], "type": "DISTRACTOR", "conditions": [12, 800, "v", 12000], "trial": 6, "trial_type": "math-distractor", "trial_index": 213, "time_elapsed": 1766781, "internal_node_id": "0.0-159.0"}}, {"uniqueid": "MTK0278:3KV0LJBBH3SPJCCISG5HEOS5BCHRMY", "current_trial": 214, "dateTime": 1510692950241, "trialdata": {"rt": -1, "stimulus": "<p id=\"stim\">10</p>", "key_press": -1, "trial_type": "single-stim", "trial_index": 214, "time_elapsed": 1769781, "internal_node_id": "0.0-160.0-0.0"}}, {"uniqueid": "MTK0278:3KV0LJBBH3SPJCCISG5HEOS5BCHRMY", "current_trial": 215, "dateTime": 1510692951243, "trialdata": {"rt": -1, "stimulus": "<p id=\"stim\">9</p>", "key_press": -1, "trial_type": "single-stim", "trial_index": 215, "time_elapsed": 1770783, "internal_node_id": "0.0-160.0-1.0"}}, {"uniqueid": "MTK0278:3KV0LJBBH3SPJCCISG5HEOS5BCHRMY", "current_trial": 216, "dateTime": 1510692952244, "trialdata": {"rt": -1, "stimulus": "<p id=\"stim\">8</p>", "key_press": -1, "trial_type": "single-stim", "trial_index": 216, "time_elapsed": 1771785, "internal_node_id": "0.0-160.0-2.0"}}, {"uniqueid": "MTK0278:3KV0LJBBH3SPJCCISG5HEOS5BCHRMY", "current_trial": 217, "dateTime": 1510692953247, "trialdata": {"rt": -1, "stimulus": "<p id=\"stim\">7</p>", "key_press": -1, "trial_type": "single-stim", "trial_index": 217, "time_elapsed": 1772786, "internal_node_id": "0.0-160.0-3.0"}}, {"uniqueid": "MTK0278:3KV0LJBBH3SPJCCISG5HEOS5BCHRMY", "current_trial": 218, "dateTime": 1510692954248, "trialdata": {"rt": -1, "stimulus": "<p id=\"stim\">6</p>", "key_press": -1, "trial_type": "single-stim", "trial_index": 218, "time_elapsed": 1773788, "internal_node_id": "0.0-160.0-4.0"}}, {"uniqueid": "MTK0278:3KV0LJBBH3SPJCCISG5HEOS5BCHRMY", "current_trial": 219, "dateTime": 1510692955249, "trialdata": {"rt": -1, "stimulus": "<p id=\"stim\">5</p>", "key_press": -1, "trial_type": "single-stim", "trial_index": 219, "time_elapsed": 1774790, "internal_node_id": "0.0-160.0-5.0"}}, {"uniqueid": "MTK0278:3KV0LJBBH3SPJCCISG5HEOS5BCHRMY", "current_trial": 220, "dateTime": 1510692956252, "trialdata": {"rt": -1, "stimulus": "<p id=\"stim\">4</p>", "key_press": -1, "trial_type": "single-stim", "trial_index": 220, "time_elapsed": 1775793, "internal_node_id": "0.0-160.0-6.0"}}, {"uniqueid": "MTK0278:3KV0LJBBH3SPJCCISG5HEOS5BCHRMY", "current_trial": 221, "dateTime": 1510692957255, "trialdata": {"rt": -1, "stimulus": "<p id=\"stim\">3</p>", "key_press": -1, "trial_type": "single-stim", "trial_index": 221, "time_elapsed": 1776796, "internal_node_id": "0.0-160.0-7.0"}}, {"uniqueid": "MTK0278:3KV0LJBBH3SPJCCISG5HEOS5BCHRMY", "current_trial": 222, "dateTime": 1510692958256, "trialdata": {"rt": -1, "stimulus": "<p id=\"stim\">2</p>", "key_press": -1, "trial_type": "single-stim", "trial_index": 222, "time_elapsed": 1777797, "internal_node_id": "0.0-160.0-8.0"}}, {"uniqueid": "MTK0278:3KV0LJBBH3SPJCCISG5HEOS5BCHRMY", "current_trial": 223, "dateTime": 1510692959257, "trialdata": {"rt": -1, "stimulus": "<p id=\"stim\">1</p>", "key_press": -1, "trial_type": "single-stim", "trial_index": 223, "time_elapsed": 1778797, "internal_node_id": "0.0-160.0-9.0"}}, {"uniqueid": "MTK0278:3KV0LJBBH3SPJCCISG5HEOS5BCHRMY", "current_trial": 224, "dateTime": 1510692960758, "trialdata": {"rt": -1, "stimulus": "<p id=\"stim\">+</p>", "key_press": -1, "type": "FIXATION", "trial_type": "single-stim", "trial_index": 224, "time_elapsed": 1780298, "internal_node_id": "0.0-161.0-0.0"}}, {"uniqueid": "MTK0278:3KV0LJBBH3SPJCCISG5HEOS5BCHRMY", "current_trial": 225, "dateTime": 1510692961559, "trialdata": {"rt": -1, "stimulus": "<p id=\"stim\">SUNSET</p>", "key_press": -1, "type": "PRES_VIS", "word": "sunset", "wordID": 1407, "conditions": [12, 800, "v", 12000], "trial": 6, "serialpos": 0, "trial_type": "single-stim", "trial_index": 225, "time_elapsed": 1781100, "internal_node_id": "0.0-162.0"}}, {"uniqueid": "MTK0278:3KV0LJBBH3SPJCCISG5HEOS5BCHRMY", "current_trial": 226, "dateTime": 1510692963192, "trialdata": {"rt": -1, "stimulus": "<p id=\"stim\">SIDEWALK</p>", "key_press": -1, "type": "PRES_VIS", "word": "sidewalk", "wordID": 1302, "conditions": [12, 800, "v", 12000], "trial": 6, "serialpos": 1, "trial_type": "single-stim", "trial_index": 226, "time_elapsed": 1782733, "internal_node_id": "0.0-163.0"}}, {"uniqueid": "MTK0278:3KV0LJBBH3SPJCCISG5HEOS5BCHRMY", "current_trial": 227, "dateTime": 1510692964804, "trialdata": {"rt": -1, "stimulus": "<p id=\"stim\">DOUGHNUT</p>", "key_press": -1, "type": "PRES_VIS", "word": "doughnut", "wordID": 489, "conditions": [12, 800, "v", 12000], "trial": 6, "serialpos": 2, "trial_type": "single-stim", "trial_index": 227, "time_elapsed": 1784344, "internal_node_id": "0.0-164.0"}}, {"uniqueid": "MTK0278:3KV0LJBBH3SPJCCISG5HEOS5BCHRMY", "current_trial": 228, "dateTime": 1510692966491, "trialdata": {"rt": -1, "stimulus": "<p id=\"stim\">PIZZA</p>", "key_press": -1, "type": "PRES_VIS", "word": "pizza", "wordID": 1078, "conditions": [12, 800, "v", 12000], "trial": 6, "serialpos": 3, "trial_type": "single-stim", "trial_index": 228, "time_elapsed": 1786032, "internal_node_id": "0.0-165.0"}}, {"uniqueid": "MTK0278:3KV0LJBBH3SPJCCISG5HEOS5BCHRMY", "current_trial": 229, "dateTime": 1510692968201, "trialdata": {"rt": -1, "stimulus": "<p id=\"stim\">SUBWAY</p>", "key_press": -1, "type": "PRES_VIS", "word": "subway", "wordID": 1399, "conditions": [12, 800, "v", 12000], "trial": 6, "serialpos": 4, "trial_type": "single-stim", "trial_index": 229, "time_elapsed": 1787742, "internal_node_id": "0.0-166.0"}}, {"uniqueid": "MTK0278:3KV0LJBBH3SPJCCISG5HEOS5BCHRMY", "current_trial": 230, "dateTime": 1510692970005, "trialdata": {"rt": -1, "stimulus": "<p id=\"stim\">TUNNEL</p>", "key_press": -1, "type": "PRES_VIS", "word": "tunnel", "wordID": 1518, "conditions": [12, 800, "v", 12000], "trial": 6, "serialpos": 5, "trial_type": "single-stim", "trial_index": 230, "time_elapsed": 1789545, "internal_node_id": "0.0-167.0"}}, {"uniqueid": "MTK0278:3KV0LJBBH3SPJCCISG5HEOS5BCHRMY", "current_trial": 231, "dateTime": 1510692971776, "trialdata": {"rt": -1, "stimulus": "<p id=\"stim\">DIVER</p>", "key_press": -1, "type": "PRES_VIS", "word": "diver", "wordID": 475, "conditions": [12, 800, "v", 12000], "trial": 6, "serialpos": 6, "trial_type": "single-stim", "trial_index": 231, "time_elapsed": 1791316, "internal_node_id": "0.0-168.0"}}, {"uniqueid": "MTK0278:3KV0LJBBH3SPJCCISG5HEOS5BCHRMY", "current_trial": 232, "dateTime": 1510692973703, "trialdata": {"rt": -1, "stimulus": "<p id=\"stim\">DAUGHTER</p>", "key_press": -1, "type": "PRES_VIS", "word": "daughter", "wordID": 441, "conditions": [12, 800, "v", 12000], "trial": 6, "serialpos": 7, "trial_type": "single-stim", "trial_index": 232, "time_elapsed": 1793243, "internal_node_id": "0.0-169.0"}}, {"uniqueid": "MTK0278:3KV0LJBBH3SPJCCISG5HEOS5BCHRMY", "current_trial": 233, "dateTime": 1510692975506, "trialdata": {"rt": -1, "stimulus": "<p id=\"stim\">SCRIBBLE</p>", "key_press": -1, "type": "PRES_VIS", "word": "scribble", "wordID": 1255, "conditions": [12, 800, "v", 12000], "trial": 6, "serialpos": 8, "trial_type": "single-stim", "trial_index": 233, "time_elapsed": 1795046, "internal_node_id": "0.0-170.0"}}, {"uniqueid": "MTK0278:3KV0LJBBH3SPJCCISG5HEOS5BCHRMY", "current_trial": 234, "dateTime": 1510692977181, "trialdata": {"rt": -1, "stimulus": "<p id=\"stim\">SWIMMER</p>", "key_press": -1, "type": "PRES_VIS", "word": "swimmer", "wordID": 1419, "conditions": [12, 800, "v", 12000], "trial": 6, "serialpos": 9, "trial_type": "single-stim", "trial_index": 234, "time_elapsed": 1796722, "internal_node_id": "0.0-171.0"}}, {"uniqueid": "MTK0278:3KV0LJBBH3SPJCCISG5HEOS5BCHRMY", "current_trial": 235, "dateTime": 1510692978825, "trialdata": {"rt": -1, "stimulus": "<p id=\"stim\">LAMP</p>", "key_press": -1, "type": "PRES_VIS", "word": "lamp", "wordID": 797, "conditions": [12, 800, "v", 12000], "trial": 6, "serialpos": 10, "trial_type": "single-stim", "trial_index": 235, "time_elapsed": 1798366, "internal_node_id": "0.0-172.0"}}, {"uniqueid": "MTK0278:3KV0LJBBH3SPJCCISG5HEOS5BCHRMY", "current_trial": 236, "dateTime": 1510692980645, "trialdata": {"rt": -1, "stimulus": "<p id=\"stim\">MATTRESS</p>", "key_press": -1, "type": "PRES_VIS", "word": "mattress", "wordID": 878, "conditions": [12, 800, "v", 12000], "trial": 6, "serialpos": 11, "trial_type": "single-stim", "trial_index": 236, "time_elapsed": 1800186, "internal_node_id": "0.0-173.0"}}, {"uniqueid": "MTK0278:3KV0LJBBH3SPJCCISG5HEOS5BCHRMY", "current_trial": 237, "dateTime": 1510692982932, "trialdata": {"rt": -1, "stimulus": "", "key_press": -1, "type": "PRE_RECALL_DELAY", "trial_type": "single-stim", "trial_index": 237, "time_elapsed": 1802473, "internal_node_id": "0.0-174.0-0.0"}}, {"uniqueid": "MTK0278:3KV0LJBBH3SPJCCISG5HEOS5BCHRMY", "current_trial": 238, "dateTime": 1510692983435, "trialdata": {"rt": -1000, "stimulus": "/static/audio/400Hz.wav", "key_press": -1, "type": "PRE_RECALL_ALERT", "trial_type": "single-audio", "trial_index": 238, "time_elapsed": 1802976, "internal_node_id": "0.0-175.0"}}, {"uniqueid": "MTK0278:3KV0LJBBH3SPJCCISG5HEOS5BCHRMY", "current_trial": 239, "dateTime": 1510693043446, "trialdata": {"rt": [4408, 5652, 10941, 15662, 20748, 21997, 22903], "recwords": ["mattress", "lamp", "pizza", "subway", "daughter", "swimmer", "diver"], "type": "FREE_RECALL", "conditions": [12, 800, "v", 12000], "trial": 6, "trial_type": "free-recall", "trial_index": 239, "time_elapsed": 1862978, "internal_node_id": "0.0-176.0-0.0"}}, {"uniqueid": "MTK0278:3KV0LJBBH3SPJCCISG5HEOS5BCHRMY", "current_trial": 240, "dateTime": 1510693047863, "trialdata": {"rt": 2414, "key_press": 13, "type": "INSTRUCTIONS", "trial_type": "text", "trial_index": 240, "time_elapsed": 1867404, "internal_node_id": "0.0-177.0"}}, {"uniqueid": "MTK0278:3KV0LJBBH3SPJCCISG5HEOS5BCHRMY", "current_trial": 241, "dateTime": 1510693061867, "trialdata": {"rt": [3243, 5204, 6909, 8765, 10631], "responses": ["15", "19", "14", "10", "17"], "num1": [4, 4, 7, 1, 5, 9], "num2": [5, 8, 4, 2, 7, 5], "num3": [6, 7, 3, 7, 5, 2], "type": "DISTRACTOR", "conditions": [24, 1600, "v", 12000], "trial": 7, "trial_type": "math-distractor", "trial_index": 241, "time_elapsed": 1881408, "internal_node_id": "0.0-178.0"}}, {"uniqueid": "MTK0278:3KV0LJBBH3SPJCCISG5HEOS5BCHRMY", "current_trial": 242, "dateTime": 1510693064868, "trialdata": {"rt": -1, "stimulus": "<p id=\"stim\">10</p>", "key_press": -1, "trial_type": "single-stim", "trial_index": 242, "time_elapsed": 1884408, "internal_node_id": "0.0-179.0-0.0"}}, {"uniqueid": "MTK0278:3KV0LJBBH3SPJCCISG5HEOS5BCHRMY", "current_trial": 243, "dateTime": 1510693065869, "trialdata": {"rt": -1, "stimulus": "<p id=\"stim\">9</p>", "key_press": -1, "trial_type": "single-stim", "trial_index": 243, "time_elapsed": 1885410, "internal_node_id": "0.0-179.0-1.0"}}, {"uniqueid": "MTK0278:3KV0LJBBH3SPJCCISG5HEOS5BCHRMY", "current_trial": 244, "dateTime": 1510693066871, "trialdata": {"rt": -1, "stimulus": "<p id=\"stim\">8</p>", "key_press": -1, "trial_type": "single-stim", "trial_index": 244, "time_elapsed": 1886412, "internal_node_id": "0.0-179.0-2.0"}}, {"uniqueid": "MTK0278:3KV0LJBBH3SPJCCISG5HEOS5BCHRMY", "current_trial": 245, "dateTime": 1510693067873, "trialdata": {"rt": -1, "stimulus": "<p id=\"stim\">7</p>", "key_press": -1, "trial_type": "single-stim", "trial_index": 245, "time_elapsed": 1887413, "internal_node_id": "0.0-179.0-3.0"}}, {"uniqueid": "MTK0278:3KV0LJBBH3SPJCCISG5HEOS5BCHRMY", "current_trial": 246, "dateTime": 1510693068878, "trialdata": {"rt": -1, "stimulus": "<p id=\"stim\">6</p>", "key_press": -1, "trial_type": "single-stim", "trial_index": 246, "time_elapsed": 1888419, "internal_node_id": "0.0-179.0-4.0"}}, {"uniqueid": "MTK0278:3KV0LJBBH3SPJCCISG5HEOS5BCHRMY", "current_trial": 247, "dateTime": 1510693069881, "trialdata": {"rt": -1, "stimulus": "<p id=\"stim\">5</p>", "key_press": -1, "trial_type": "single-stim", "trial_index": 247, "time_elapsed": 1889421, "internal_node_id": "0.0-179.0-5.0"}}, {"uniqueid": "MTK0278:3KV0LJBBH3SPJCCISG5HEOS5BCHRMY", "current_trial": 248, "dateTime": 1510693070883, "trialdata": {"rt": -1, "stimulus": "<p id=\"stim\">4</p>", "key_press": -1, "trial_type": "single-stim", "trial_index": 248, "time_elapsed": 1890424, "internal_node_id": "0.0-179.0-6.0"}}, {"uniqueid": "MTK0278:3KV0LJBBH3SPJCCISG5HEOS5BCHRMY", "current_trial": 249, "dateTime": 1510693071884, "trialdata": {"rt": -1, "stimulus": "<p id=\"stim\">3</p>", "key_press": -1, "trial_type": "single-stim", "trial_index": 249, "time_elapsed": 1891425, "internal_node_id": "0.0-179.0-7.0"}}, {"uniqueid": "MTK0278:3KV0LJBBH3SPJCCISG5HEOS5BCHRMY", "current_trial": 250, "dateTime": 1510693072890, "trialdata": {"rt": -1, "stimulus": "<p id=\"stim\">2</p>", "key_press": -1, "trial_type": "single-stim", "trial_index": 250, "time_elapsed": 1892430, "internal_node_id": "0.0-179.0-8.0"}}, {"uniqueid": "MTK0278:3KV0LJBBH3SPJCCISG5HEOS5BCHRMY", "current_trial": 251, "dateTime": 1510693073892, "trialdata": {"rt": -1, "stimulus": "<p id=\"stim\">1</p>", "key_press": -1, "trial_type": "single-stim", "trial_index": 251, "time_elapsed": 1893433, "internal_node_id": "0.0-179.0-9.0"}}, {"uniqueid": "MTK0278:3KV0LJBBH3SPJCCISG5HEOS5BCHRMY", "current_trial": 252, "dateTime": 1510693075397, "trialdata": {"rt": -1, "stimulus": "<p id=\"stim\">+</p>", "key_press": -1, "type": "FIXATION", "trial_type": "single-stim", "trial_index": 252, "time_elapsed": 1894935, "internal_node_id": "0.0-180.0-0.0"}}, {"uniqueid": "MTK0278:3KV0LJBBH3SPJCCISG5HEOS5BCHRMY", "current_trial": 253, "dateTime": 1510693076998, "trialdata": {"rt": -1, "stimulus": "<p id=\"stim\">DINER</p>", "key_press": -1, "type": "PRES_VIS", "word": "diner", "wordID": 466, "conditions": [24, 1600, "v", 12000], "trial": 7, "serialpos": 0, "trial_type": "single-stim", "trial_index": 253, "time_elapsed": 1896539, "internal_node_id": "0.0-181.0"}}, {"uniqueid": "MTK0278:3KV0LJBBH3SPJCCISG5HEOS5BCHRMY", "current_trial": 254, "dateTime": 1510693079758, "trialdata": {"rt": -1, "stimulus": "<p id=\"stim\">CHAUFFEUR</p>", "key_press": -1, "type": "PRES_VIS", "word": "chauffeur", "wordID": 282, "conditions": [24, 1600, "v", 12000], "trial": 7, "serialpos": 1, "trial_type": "single-stim", "trial_index": 254, "time_elapsed": 1899299, "internal_node_id": "0.0-182.0"}}, {"uniqueid": "MTK0278:3KV0LJBBH3SPJCCISG5HEOS5BCHRMY", "current_trial": 255, "dateTime": 1510693082465, "trialdata": {"rt": -1, "stimulus": "<p id=\"stim\">OZONE</p>", "key_press": -1, "type": "PRES_VIS", "word": "ozone", "wordID": 995, "conditions": [24, 1600, "v", 12000], "trial": 7, "serialpos": 2, "trial_type": "single-stim", "trial_index": 255, "time_elapsed": 1902006, "internal_node_id": "0.0-183.0"}}, {"uniqueid": "MTK0278:3KV0LJBBH3SPJCCISG5HEOS5BCHRMY", "current_trial": 256, "dateTime": 1510693085192, "trialdata": {"rt": -1, "stimulus": "<p id=\"stim\">PIMPLE</p>", "key_press": -1, "type": "PRES_VIS", "word": "pimple", "wordID": 1070, "conditions": [24, 1600, "v", 12000], "trial": 7, "serialpos": 3, "trial_type": "single-stim", "trial_index": 256, "time_elapsed": 1904733, "internal_node_id": "0.0-184.0"}}, {"uniqueid": "MTK0278:3KV0LJBBH3SPJCCISG5HEOS5BCHRMY", "current_trial": 257, "dateTime": 1510693087813, "trialdata": {"rt": -1, "stimulus": "<p id=\"stim\">FRECKLE</p>", "key_press": -1, "type": "PRES_VIS", "word": "freckle", "wordID": 601, "conditions": [24, 1600, "v", 12000], "trial": 7, "serialpos": 4, "trial_type": "single-stim", "trial_index": 257, "time_elapsed": 1907353, "internal_node_id": "0.0-185.0"}}, {"uniqueid": "MTK0278:3KV0LJBBH3SPJCCISG5HEOS5BCHRMY", "current_trial": 258, "dateTime": 1510693090534, "trialdata": {"rt": -1, "stimulus": "<p id=\"stim\">STONE</p>", "key_press": -1, "type": "PRES_VIS", "word": "stone", "wordID": 1384, "conditions": [24, 1600, "v", 12000], "trial": 7, "serialpos": 5, "trial_type": "single-stim", "trial_index": 258, "time_elapsed": 1910075, "internal_node_id": "0.0-186.0"}}, {"uniqueid": "MTK0278:3KV0LJBBH3SPJCCISG5HEOS5BCHRMY", "current_trial": 259, "dateTime": 1510693093094, "trialdata": {"rt": -1, "stimulus": "<p id=\"stim\">LILY</p>", "key_press": -1, "type": "PRES_VIS", "word": "lily", "wordID": 820, "conditions": [24, 1600, "v", 12000], "trial": 7, "serialpos": 6, "trial_type": "single-stim", "trial_index": 259, "time_elapsed": 1912635, "internal_node_id": "0.0-187.0"}}, {"uniqueid": "MTK0278:3KV0LJBBH3SPJCCISG5HEOS5BCHRMY", "current_trial": 260, "dateTime": 1510693095531, "trialdata": {"rt": -1, "stimulus": "<p id=\"stim\">JELLO</p>", "key_press": -1, "type": "PRES_VIS", "word": "jello", "wordID": 753, "conditions": [24, 1600, "v", 12000], "trial": 7, "serialpos": 7, "trial_type": "single-stim", "trial_index": 260, "time_elapsed": 1915071, "internal_node_id": "0.0-188.0"}}, {"uniqueid": "MTK0278:3KV0LJBBH3SPJCCISG5HEOS5BCHRMY", "current_trial": 261, "dateTime": 1510693097940, "trialdata": {"rt": -1, "stimulus": "<p id=\"stim\">WIDOW</p>", "key_press": -1, "type": "PRES_VIS", "word": "widow", "wordID": 1607, "conditions": [24, 1600, "v", 12000], "trial": 7, "serialpos": 8, "trial_type": "single-stim", "trial_index": 261, "time_elapsed": 1917481, "internal_node_id": "0.0-189.0"}}, {"uniqueid": "MTK0278:3KV0LJBBH3SPJCCISG5HEOS5BCHRMY", "current_trial": 262, "dateTime": 1510693100576, "trialdata": {"rt": -1, "stimulus": "<p id=\"stim\">HOSTESS</p>", "key_press": -1, "type": "PRES_VIS", "word": "hostess", "wordID": 722, "conditions": [24, 1600, "v", 12000], "trial": 7, "serialpos": 9, "trial_type": "single-stim", "trial_index": 262, "time_elapsed": 1920116, "internal_node_id": "0.0-190.0"}}, {"uniqueid": "MTK0278:3KV0LJBBH3SPJCCISG5HEOS5BCHRMY", "current_trial": 263, "dateTime": 1510693103010, "trialdata": {"rt": -1, "stimulus": "<p id=\"stim\">SMOG</p>", "key_press": -1, "type": "PRES_VIS", "word": "smog", "wordID": 1329, "conditions": [24, 1600, "v", 12000], "trial": 7, "serialpos": 10, "trial_type": "single-stim", "trial_index": 263, "time_elapsed": 1922551, "internal_node_id": "0.0-191.0"}}, {"uniqueid": "MTK0278:3KV0LJBBH3SPJCCISG5HEOS5BCHRMY", "current_trial": 264, "dateTime": 1510693105669, "trialdata": {"rt": -1, "stimulus": "<p id=\"stim\">BATHTUB</p>", "key_press": -1, "type": "PRES_VIS", "word": "bathtub", "wordID": 99, "conditions": [24, 1600, "v", 12000], "trial": 7, "serialpos": 11, "trial_type": "single-stim", "trial_index": 264, "time_elapsed": 1925210, "internal_node_id": "0.0-192.0"}}, {"uniqueid": "MTK0278:3KV0LJBBH3SPJCCISG5HEOS5BCHRMY", "current_trial": 265, "dateTime": 1510693108143, "trialdata": {"rt": -1, "stimulus": "<p id=\"stim\">GRILL</p>", "key_press": -1, "type": "PRES_VIS", "word": "grill", "wordID": 660, "conditions": [24, 1600, "v", 12000], "trial": 7, "serialpos": 12, "trial_type": "single-stim", "trial_index": 265, "time_elapsed": 1927684, "internal_node_id": "0.0-193.0"}}, {"uniqueid": "MTK0278:3KV0LJBBH3SPJCCISG5HEOS5BCHRMY", "current_trial": 266, "dateTime": 1510693110575, "trialdata": {"rt": -1, "stimulus": "<p id=\"stim\">FRANCE</p>", "key_press": -1, "type": "PRES_VIS", "word": "france", "wordID": 600, "conditions": [24, 1600, "v", 12000], "trial": 7, "serialpos": 13, "trial_type": "single-stim", "trial_index": 266, "time_elapsed": 1930116, "internal_node_id": "0.0-194.0"}}, {"uniqueid": "MTK0278:3KV0LJBBH3SPJCCISG5HEOS5BCHRMY", "current_trial": 267, "dateTime": 1510693113306, "trialdata": {"rt": -1, "stimulus": "<p id=\"stim\">POCKET</p>", "key_press": -1, "type": "PRES_VIS", "word": "pocket", "wordID": 1092, "conditions": [24, 1600, "v", 12000], "trial": 7, "serialpos": 14, "trial_type": "single-stim", "trial_index": 267, "time_elapsed": 1932847, "internal_node_id": "0.0-195.0"}}, {"uniqueid": "MTK0278:3KV0LJBBH3SPJCCISG5HEOS5BCHRMY", "current_trial": 268, "dateTime": 1510693115712, "trialdata": {"rt": -1, "stimulus": "<p id=\"stim\">BRIEFCASE</p>", "key_press": -1, "type": "PRES_VIS", "word": "briefcase", "wordID": 174, "conditions": [24, 1600, "v", 12000], "trial": 7, "serialpos": 15, "trial_type": "single-stim", "trial_index": 268, "time_elapsed": 1935253, "internal_node_id": "0.0-196.0"}}, {"uniqueid": "MTK0278:3KV0LJBBH3SPJCCISG5HEOS5BCHRMY", "current_trial": 269, "dateTime": 1510693118510, "trialdata": {"rt": -1, "stimulus": "<p id=\"stim\">SLIDE</p>", "key_press": -1, "type": "PRES_VIS", "word": "slide", "wordID": 1325, "conditions": [24, 1600, "v", 12000], "trial": 7, "serialpos": 16, "trial_type": "single-stim", "trial_index": 269, "time_elapsed": 1938051, "internal_node_id": "0.0-197.0"}}, {"uniqueid": "MTK0278:3KV0LJBBH3SPJCCISG5HEOS5BCHRMY", "current_trial": 270, "dateTime": 1510693121250, "trialdata": {"rt": -1, "stimu