{"condition": 0, "counterbalance": 2932, "assignmentId": "3AQF3RZ559PQRJMHE5Y683H0LX36F5", "workerId": "MTK0974", "hitId": "3MD8CKRQZZUXVK83ZHNN9C44UJEJRS", "currenttrial": 626, "bonus": 0, "data": [{"uniqueid": "MTK0974:3AQF3RZ559PQRJMHE5Y683H0LX36F5", "current_trial": 0, "dateTime": 1512940481821, "trialdata": {"rt": 2816, "key_press": 32, "type": "INSTRUCTIONS", "trial_type": "text", "trial_index": 0, "time_elapsed": 2820, "internal_node_id": "0.0-0.0"}}, {"uniqueid": "MTK0974:3AQF3RZ559PQRJMHE5Y683H0LX36F5", "current_trial": 1, "dateTime": 1512940508203, "trialdata": {"rt": 26378, "key_press": 32, "type": "INSTRUCTIONS", "trial_type": "text", "trial_index": 1, "time_elapsed": 29203, "internal_node_id": "0.0-1.0"}}, {"uniqueid": "MTK0974:3AQF3RZ559PQRJMHE5Y683H0LX36F5", "current_trial": 2, "dateTime": 1512940526712, "trialdata": {"rt": [18467], "responses": ["ocean"], "type": "AUDIO_TEST", "trial_type": "audio-test", "trial_index": 2, "time_elapsed": 47712, "internal_node_id": "0.0-2.0"}}, {"uniqueid": "MTK0974:3AQF3RZ559PQRJMHE5Y683H0LX36F5", "current_trial": 3, "dateTime": 1512940533534, "trialdata": {"rt": [6801], "responses": ["crystal"], "type": "AUDIO_TEST", "trial_type": "audio-test", "trial_index": 3, "time_elapsed": 54534, "internal_node_id": "0.0-3.0"}}, {"uniqueid": "MTK0974:3AQF3RZ559PQRJMHE5Y683H0LX36F5", "current_trial": 4, "dateTime": 1512940539373, "trialdata": {"rt": [5831], "responses": ["spice"], "type": "AUDIO_TEST", "trial_type": "audio-test", "trial_index": 4, "time_elapsed": 60373, "internal_node_id": "0.0-4.0"}}, {"uniqueid": "MTK0974:3AQF3RZ559PQRJMHE5Y683H0LX36F5", "current_trial": 5, "dateTime": 1512940565158, "trialdata": {"rt": 25030, "responses": "{\"Q0\":\"11 pm\",\"Q1\":\"4:35 am\",\"Q2\":\"5\"}", "type": "SLEEP_SURVEY", "trial_type": "survey-text", "trial_index": 5, "time_elapsed": 86158, "internal_node_id": "0.0-5.0"}}, {"uniqueid": "MTK0974:3AQF3RZ559PQRJMHE5Y683H0LX36F5", "current_trial": 6, "dateTime": 1512940609002, "trialdata": {"rt": 42842, "key_press": 32, "type": "INSTRUCTIONS", "trial_type": "text", "trial_index": 6, "time_elapsed": 130002, "internal_node_id": "0.0-6.0"}}, {"uniqueid": "MTK0974:3AQF3RZ559PQRJMHE5Y683H0LX36F5", "current_trial": 7, "dateTime": 1512940655086, "trialdata": {"rt": 45580, "key_press": 32, "type": "INSTRUCTIONS", "trial_type": "text", "trial_index": 7, "time_elapsed": 176086, "internal_node_id": "0.0-7.0"}}, {"uniqueid": "MTK0974:3AQF3RZ559PQRJMHE5Y683H0LX36F5", "current_trial": 8, "dateTime": 1512940673279, "trialdata": {"rt": 17678, "key_press": 32, "type": "INSTRUCTIONS", "trial_type": "text", "trial_index": 8, "time_elapsed": 194278, "internal_node_id": "0.0-8.0"}}, {"uniqueid": "MTK0974:3AQF3RZ559PQRJMHE5Y683H0LX36F5", "current_trial": 9, "dateTime": 1512940692287, "trialdata": {"rt": [4025, 6108, 9068, 12380, 17381], "responses": ["14", "5", "11", "15", "22"], "num1": [6, 1, 2, 1, 7, 4], "num2": [2, 3, 5, 9, 9, 2], "num3": [6, 1, 4, 5, 6, 8], "type": "DISTRACTOR", "conditions": [18, 1200, "v", 18000], "trial": 0, "trial_type": "math-distractor", "trial_index": 9, "time_elapsed": 213286, "internal_node_id": "0.0-9.0"}}, {"uniqueid": "MTK0974:3AQF3RZ559PQRJMHE5Y683H0LX36F5", "current_trial": 10, "dateTime": 1512940695289, "trialdata": {"rt": -1, "stimulus": "<p id=\"stim\">10</p>", "key_press": -1, "trial_type": "single-stim", "trial_index": 10, "time_elapsed": 216289, "internal_node_id": "0.0-10.0-0.0"}}, {"uniqueid": "MTK0974:3AQF3RZ559PQRJMHE5Y683H0LX36F5", "current_trial": 11, "dateTime": 1512940696291, "trialdata": {"rt": -1, "stimulus": "<p id=\"stim\">9</p>", "key_press": -1, "trial_type": "single-stim", "trial_index": 11, "time_elapsed": 217291, "internal_node_id": "0.0-10.0-1.0"}}, {"uniqueid": "MTK0974:3AQF3RZ559PQRJMHE5Y683H0LX36F5", "current_trial": 12, "dateTime": 1512940697292, "trialdata": {"rt": -1, "stimulus": "<p id=\"stim\">8</p>", "key_press": -1, "trial_type": "single-stim", "trial_index": 12, "time_elapsed": 218292, "internal_node_id": "0.0-10.0-2.0"}}, {"uniqueid": "MTK0974:3AQF3RZ559PQRJMHE5Y683H0LX36F5", "current_trial": 13, "dateTime": 1512940698304, "trialdata": {"rt": -1, "stimulus": "<p id=\"stim\">7</p>", "key_press": -1, "trial_type": "single-stim", "trial_index": 13, "time_elapsed": 219304, "internal_node_id": "0.0-10.0-3.0"}}, {"uniqueid": "MTK0974:3AQF3RZ559PQRJMHE5Y683H0LX36F5", "current_trial": 14, "dateTime": 1512940699305, "trialdata": {"rt": -1, "stimulus": "<p id=\"stim\">6</p>", "key_press": -1, "trial_type": "single-stim", "trial_index": 14, "time_elapsed": 220305, "internal_node_id": "0.0-10.0-4.0"}}, {"uniqueid": "MTK0974:3AQF3RZ559PQRJMHE5Y683H0LX36F5", "current_trial": 15, "dateTime": 1512940700308, "trialdata": {"rt": -1, "stimulus": "<p id=\"stim\">5</p>", "key_press": -1, "trial_type": "single-stim", "trial_index": 15, "time_elapsed": 221308, "internal_node_id": "0.0-10.0-5.0"}}, {"uniqueid": "MTK0974:3AQF3RZ559PQRJMHE5Y683H0LX36F5", "current_trial": 16, "dateTime": 1512940701309, "trialdata": {"rt": -1, "stimulus": "<p id=\"stim\">4</p>", "key_press": -1, "trial_type": "single-stim", "trial_index": 16, "time_elapsed": 222309, "internal_node_id": "0.0-10.0-6.0"}}, {"uniqueid": "MTK0974:3AQF3RZ559PQRJMHE5Y683H0LX36F5", "current_trial": 17, "dateTime": 1512940702310, "trialdata": {"rt": -1, "stimulus": "<p id=\"stim\">3</p>", "key_press": -1, "trial_type": "single-stim", "trial_index": 17, "time_elapsed": 223310, "internal_node_id": "0.0-10.0-7.0"}}, {"uniqueid": "MTK0974:3AQF3RZ559PQRJMHE5Y683H0LX36F5", "current_trial": 18, "dateTime": 1512940703311, "trialdata": {"rt": -1, "stimulus": "<p id=\"stim\">2</p>", "key_press": -1, "trial_type": "single-stim", "trial_index": 18, "time_elapsed": 224311, "internal_node_id": "0.0-10.0-8.0"}}, {"uniqueid": "MTK0974:3AQF3RZ559PQRJMHE5Y683H0LX36F5", "current_trial": 19, "dateTime": 1512940704312, "trialdata": {"rt": -1, "stimulus": "<p id=\"stim\">1</p>", "key_press": -1, "trial_type": "single-stim", "trial_index": 19, "time_elapsed": 225312, "internal_node_id": "0.0-10.0-9.0"}}, {"uniqueid": "MTK0974:3AQF3RZ559PQRJMHE5Y683H0LX36F5", "current_trial": 20, "dateTime": 1512940705817, "trialdata": {"rt": -1, "stimulus": "<p id=\"stim\">+</p>", "key_press": -1, "type": "FIXATION", "trial_type": "single-stim", "trial_index": 20, "time_elapsed": 226816, "internal_node_id": "0.0-11.0-0.0"}}, {"uniqueid": "MTK0974:3AQF3RZ559PQRJMHE5Y683H0LX36F5", "current_trial": 21, "dateTime": 1512940707018, "trialdata": {"rt": -1, "stimulus": "<p id=\"stim\">CHAMPAGNE</p>", "key_press": -1, "type": "PRES_VIS", "word": "champagne", "wordID": 277, "conditions": [18, 1200, "v", 18000], "trial": 0, "serialpos": 0, "trial_type": "single-stim", "trial_index": 21, "time_elapsed": 228018, "internal_node_id": "0.0-12.0"}}, {"uniqueid": "MTK0974:3AQF3RZ559PQRJMHE5Y683H0LX36F5", "current_trial": 22, "dateTime": 1512940709135, "trialdata": {"rt": -1, "stimulus": "<p id=\"stim\">GARLIC</p>", "key_press": -1, "type": "PRES_VIS", "word": "garlic", "wordID": 623, "conditions": [18, 1200, "v", 18000], "trial": 0, "serialpos": 1, "trial_type": "single-stim", "trial_index": 22, "time_elapsed": 230135, "internal_node_id": "0.0-13.0"}}, {"uniqueid": "MTK0974:3AQF3RZ559PQRJMHE5Y683H0LX36F5", "current_trial": 23, "dateTime": 1512940711423, "trialdata": {"rt": -1, "stimulus": "<p id=\"stim\">FREEZER</p>", "key_press": -1, "type": "PRES_VIS", "word": "freezer", "wordID": 603, "conditions": [18, 1200, "v", 18000], "trial": 0, "serialpos": 2, "trial_type": "single-stim", "trial_index": 23, "time_elapsed": 232423, "internal_node_id": "0.0-14.0"}}, {"uniqueid": "MTK0974:3AQF3RZ559PQRJMHE5Y683H0LX36F5", "current_trial": 24, "dateTime": 1512940713567, "trialdata": {"rt": -1, "stimulus": "<p id=\"stim\">OUTDOORS</p>", "key_press": -1, "type": "PRES_VIS", "word": "outdoors", "wordID": 986, "conditions": [18, 1200, "v", 18000], "trial": 0, "serialpos": 3, "trial_type": "single-stim", "trial_index": 24, "time_elapsed": 234566, "internal_node_id": "0.0-15.0"}}, {"uniqueid": "MTK0974:3AQF3RZ559PQRJMHE5Y683H0LX36F5", "current_trial": 25, "dateTime": 1512940715774, "trialdata": {"rt": -1, "stimulus": "<p id=\"stim\">BROTHER</p>", "key_press": -1, "type": "PRES_VIS", "word": "brother", "wordID": 178, "conditions": [18, 1200, "v", 18000], "trial": 0, "serialpos": 4, "trial_type": "single-stim", "trial_index": 25, "time_elapsed": 236774, "internal_node_id": "0.0-16.0"}}, {"uniqueid": "MTK0974:3AQF3RZ559PQRJMHE5Y683H0LX36F5", "current_trial": 26, "dateTime": 1512940718007, "trialdata": {"rt": -1, "stimulus": "<p id=\"stim\">DRILL</p>", "key_press": -1, "type": "PRES_VIS", "word": "drill", "wordID": 496, "conditions": [18, 1200, "v", 18000], "trial": 0, "serialpos": 5, "trial_type": "single-stim", "trial_index": 26, "time_elapsed": 239006, "internal_node_id": "0.0-17.0"}}, {"uniqueid": "MTK0974:3AQF3RZ559PQRJMHE5Y683H0LX36F5", "current_trial": 27, "dateTime": 1512940720271, "trialdata": {"rt": -1, "stimulus": "<p id=\"stim\">BEAKER</p>", "key_press": -1, "type": "PRES_VIS", "word": "beaker", "wordID": 103, "conditions": [18, 1200, "v", 18000], "trial": 0, "serialpos": 6, "trial_type": "single-stim", "trial_index": 27, "time_elapsed": 241271, "internal_node_id": "0.0-18.0"}}, {"uniqueid": "MTK0974:3AQF3RZ559PQRJMHE5Y683H0LX36F5", "current_trial": 28, "dateTime": 1512940722567, "trialdata": {"rt": -1, "stimulus": "<p id=\"stim\">BUREAU</p>", "key_press": -1, "type": "PRES_VIS", "word": "bureau", "wordID": 198, "conditions": [18, 1200, "v", 18000], "trial": 0, "serialpos": 7, "trial_type": "single-stim", "trial_index": 28, "time_elapsed": 243567, "internal_node_id": "0.0-19.0"}}, {"uniqueid": "MTK0974:3AQF3RZ559PQRJMHE5Y683H0LX36F5", "current_trial": 29, "dateTime": 1512940724673, "trialdata": {"rt": -1, "stimulus": "<p id=\"stim\">BARREL</p>", "key_press": -1, "type": "PRES_VIS", "word": "barrel", "wordID": 90, "conditions": [18, 1200, "v", 18000], "trial": 0, "serialpos": 8, "trial_type": "single-stim", "trial_index": 29, "time_elapsed": 245672, "internal_node_id": "0.0-20.0"}}, {"uniqueid": "MTK0974:3AQF3RZ559PQRJMHE5Y683H0LX36F5", "current_trial": 30, "dateTime": 1512940726739, "trialdata": {"rt": -1, "stimulus": "<p id=\"stim\">NIGHTGOWN</p>", "key_press": -1, "type": "PRES_VIS", "word": "nightgown", "wordID": 952, "conditions": [18, 1200, "v", 18000], "trial": 0, "serialpos": 9, "trial_type": "single-stim", "trial_index": 30, "time_elapsed": 247738, "internal_node_id": "0.0-21.0"}}, {"uniqueid": "MTK0974:3AQF3RZ559PQRJMHE5Y683H0LX36F5", "current_trial": 31, "dateTime": 1512940729035, "trialdata": {"rt": -1, "stimulus": "<p id=\"stim\">PREACHER</p>", "key_press": -1, "type": "PRES_VIS", "word": "preacher", "wordID": 1118, "conditions": [18, 1200, "v", 18000], "trial": 0, "serialpos": 10, "trial_type": "single-stim", "trial_index": 31, "time_elapsed": 250034, "internal_node_id": "0.0-22.0"}}, {"uniqueid": "MTK0974:3AQF3RZ559PQRJMHE5Y683H0LX36F5", "current_trial": 32, "dateTime": 1512940731184, "trialdata": {"rt": -1, "stimulus": "<p id=\"stim\">WHISKERS</p>", "key_press": -1, "type": "PRES_VIS", "word": "whiskers", "wordID": 1604, "conditions": [18, 1200, "v", 18000], "trial": 0, "serialpos": 11, "trial_type": "single-stim", "trial_index": 32, "time_elapsed": 252183, "internal_node_id": "0.0-23.0"}}, {"uniqueid": "MTK0974:3AQF3RZ559PQRJMHE5Y683H0LX36F5", "current_trial": 33, "dateTime": 1512940733196, "trialdata": {"rt": -1, "stimulus": "<p id=\"stim\">LACE</p>", "key_press": -1, "type": "PRES_VIS", "word": "lace", "wordID": 791, "conditions": [18, 1200, "v", 18000], "trial": 0, "serialpos": 12, "trial_type": "single-stim", "trial_index": 33, "time_elapsed": 254196, "internal_node_id": "0.0-24.0"}}, {"uniqueid": "MTK0974:3AQF3RZ559PQRJMHE5Y683H0LX36F5", "current_trial": 34, "dateTime": 1512940735307, "trialdata": {"rt": -1, "stimulus": "<p id=\"stim\">ATOM</p>", "key_press": -1, "type": "PRES_VIS", "word": "atom", "wordID": 54, "conditions": [18, 1200, "v", 18000], "trial": 0, "serialpos": 13, "trial_type": "single-stim", "trial_index": 34, "time_elapsed": 256307, "internal_node_id": "0.0-25.0"}}, {"uniqueid": "MTK0974:3AQF3RZ559PQRJMHE5Y683H0LX36F5", "current_trial": 35, "dateTime": 1512940737493, "trialdata": {"rt": -1, "stimulus": "<p id=\"stim\">CLOTHES</p>", "key_press": -1, "type": "PRES_VIS", "word": "clothes", "wordID": 326, "conditions": [18, 1200, "v", 18000], "trial": 0, "serialpos": 14, "trial_type": "single-stim", "trial_index": 35, "time_elapsed": 258492, "internal_node_id": "0.0-26.0"}}, {"uniqueid": "MTK0974:3AQF3RZ559PQRJMHE5Y683H0LX36F5", "current_trial": 36, "dateTime": 1512940739800, "trialdata": {"rt": -1, "stimulus": "<p id=\"stim\">LION</p>", "key_press": -1, "type": "PRES_VIS", "word": "lion", "wordID": 826, "conditions": [18, 1200, "v", 18000], "trial": 0, "serialpos": 15, "trial_type": "single-stim", "trial_index": 36, "time_elapsed": 260799, "internal_node_id": "0.0-27.0"}}, {"uniqueid": "MTK0974:3AQF3RZ559PQRJMHE5Y683H0LX36F5", "current_trial": 37, "dateTime": 1512940741848, "trialdata": {"rt": -1, "stimulus": "<p id=\"stim\">DANCER</p>", "key_press": -1, "type": "PRES_VIS", "word": "dancer", "wordID": 436, "conditions": [18, 1200, "v", 18000], "trial": 0, "serialpos": 16, "trial_type": "single-stim", "trial_index": 37, "time_elapsed": 262848, "internal_node_id": "0.0-28.0"}}, {"uniqueid": "MTK0974:3AQF3RZ559PQRJMHE5Y683H0LX36F5", "current_trial": 38, "dateTime": 1512940743932, "trialdata": {"rt": -1, "stimulus": "<p id=\"stim\">RAFT</p>", "key_press": -1, "type": "PRES_VIS", "word": "raft", "wordID": 1158, "conditions": [18, 1200, "v", 18000], "trial": 0, "serialpos": 17, "trial_type": "single-stim", "trial_index": 38, "time_elapsed": 264932, "internal_node_id": "0.0-29.0"}}, {"uniqueid": "MTK0974:3AQF3RZ559PQRJMHE5Y683H0LX36F5", "current_trial": 39, "dateTime": 1512940746264, "trialdata": {"rt": -1, "stimulus": "", "key_press": -1, "type": "PRE_RECALL_DELAY", "trial_type": "single-stim", "trial_index": 39, "time_elapsed": 267264, "internal_node_id": "0.0-30.0-0.0"}}, {"uniqueid": "MTK0974:3AQF3RZ559PQRJMHE5Y683H0LX36F5", "current_trial": 40, "dateTime": 1512940746782, "trialdata": {"rt": -1000, "stimulus": "/static/audio/400Hz.wav", "key_press": -1, "type": "PRE_RECALL_ALERT", "trial_type": "single-audio", "trial_index": 40, "time_elapsed": 267782, "internal_node_id": "0.0-31.0"}}, {"uniqueid": "MTK0974:3AQF3RZ559PQRJMHE5Y683H0LX36F5", "current_trial": 41, "dateTime": 1512940806791, "trialdata": {"rt": [3878, 7030, 10214, 13126, 15973, 44366], "recwords": ["whiskers", "beakers", "champagne", "preacher", "raft", "dancer"], "type": "FREE_RECALL", "conditions": [18, 1200, "v", 18000], "trial": 0, "trial_type": "free-recall", "trial_index": 41, "time_elapsed": 327788, "internal_node_id": "0.0-32.0-0.0"}}, {"uniqueid": "MTK0974:3AQF3RZ559PQRJMHE5Y683H0LX36F5", "current_trial": 42, "dateTime": 1512940811626, "trialdata": {"rt": 2831, "key_press": 32, "type": "INSTRUCTIONS", "trial_type": "text", "trial_index": 42, "time_elapsed": 332626, "internal_node_id": "0.0-33.0"}}, {"uniqueid": "MTK0974:3AQF3RZ559PQRJMHE5Y683H0LX36F5", "current_trial": 43, "dateTime": 1512940831683, "trialdata": {"rt": [3194, 5879, 8199, 12375, 14826], "responses": ["13", "10", "7", "18", "10"], "num1": [8, 2, 2, 8, 2, 3], "num2": [3, 6, 1, 5, 7, 8], "num3": [2, 2, 4, 5, 1, 6], "type": "DISTRACTOR", "conditions": [18, 1200, "a", 18000], "trial": 1, "trial_type": "math-distractor", "trial_index": 43, "time_elapsed": 352682, "internal_node_id": "0.0-34.0"}}, {"uniqueid": "MTK0974:3AQF3RZ559PQRJMHE5Y683H0LX36F5", "current_trial": 44, "dateTime": 1512940834684, "trialdata": {"rt": -1, "stimulus": "<p id=\"stim\">10</p>", "key_press": -1, "trial_type": "single-stim", "trial_index": 44, "time_elapsed": 355684, "internal_node_id": "0.0-35.0-0.0"}}, {"uniqueid": "MTK0974:3AQF3RZ559PQRJMHE5Y683H0LX36F5", "current_trial": 45, "dateTime": 1512940835696, "trialdata": {"rt": -1, "stimulus": "<p id=\"stim\">9</p>", "key_press": -1, "trial_type": "single-stim", "trial_index": 45, "time_elapsed": 356696, "internal_node_id": "0.0-35.0-1.0"}}, {"uniqueid": "MTK0974:3AQF3RZ559PQRJMHE5Y683H0LX36F5", "current_trial": 46, "dateTime": 1512940836699, "trialdata": {"rt": -1, "stimulus": "<p id=\"stim\">8</p>", "key_press": -1, "trial_type": "single-stim", "trial_index": 46, "time_elapsed": 357698, "internal_node_id": "0.0-35.0-2.0"}}, {"uniqueid": "MTK0974:3AQF3RZ559PQRJMHE5Y683H0LX36F5", "current_trial": 47, "dateTime": 1512940837700, "trialdata": {"rt": -1, "stimulus": "<p id=\"stim\">7</p>", "key_press": -1, "trial_type": "single-stim", "trial_index": 47, "time_elapsed": 358700, "internal_node_id": "0.0-35.0-3.0"}}, {"uniqueid": "MTK0974:3AQF3RZ559PQRJMHE5Y683H0LX36F5", "current_trial": 48, "dateTime": 1512940838718, "trialdata": {"rt": -1, "stimulus": "<p id=\"stim\">6</p>", "key_press": -1, "trial_type": "single-stim", "trial_index": 48, "time_elapsed": 359718, "internal_node_id": "0.0-35.0-4.0"}}, {"uniqueid": "MTK0974:3AQF3RZ559PQRJMHE5Y683H0LX36F5", "current_trial": 49, "dateTime": 1512940839758, "trialdata": {"rt": -1, "stimulus": "<p id=\"stim\">5</p>", "key_press": -1, "trial_type": "single-stim", "trial_index": 49, "time_elapsed": 360758, "internal_node_id": "0.0-35.0-5.0"}}, {"uniqueid": "MTK0974:3AQF3RZ559PQRJMHE5Y683H0LX36F5", "current_trial": 50, "dateTime": 1512940840780, "trialdata": {"rt": -1, "stimulus": "<p id=\"stim\">4</p>", "key_press": -1, "trial_type": "single-stim", "trial_index": 50, "time_elapsed": 361780, "internal_node_id": "0.0-35.0-6.0"}}, {"uniqueid": "MTK0974:3AQF3RZ559PQRJMHE5Y683H0LX36F5", "current_trial": 51, "dateTime": 1512940841781, "trialdata": {"rt": -1, "stimulus": "<p id=\"stim\">3</p>", "key_press": -1, "trial_type": "single-stim", "trial_index": 51, "time_elapsed": 362781, "internal_node_id": "0.0-35.0-7.0"}}, {"uniqueid": "MTK0974:3AQF3RZ559PQRJMHE5Y683H0LX36F5", "current_trial": 52, "dateTime": 1512940842782, "trialdata": {"rt": -1, "stimulus": "<p id=\"stim\">2</p>", "key_press": -1, "trial_type": "single-stim", "trial_index": 52, "time_elapsed": 363782, "internal_node_id": "0.0-35.0-8.0"}}, {"uniqueid": "MTK0974:3AQF3RZ559PQRJMHE5Y683H0LX36F5", "current_trial": 53, "dateTime": 1512940843783, "trialdata": {"rt": -1, "stimulus": "<p id=\"stim\">1</p>", "key_press": -1, "trial_type": "single-stim", "trial_index": 53, "time_elapsed": 364783, "internal_node_id": "0.0-35.0-9.0"}}, {"uniqueid": "MTK0974:3AQF3RZ559PQRJMHE5Y683H0LX36F5", "current_trial": 54, "dateTime": 1512940845284, "trialdata": {"rt": -1, "stimulus": "<p id=\"stim\">+</p>", "key_press": -1, "type": "FIXATION", "trial_type": "single-stim", "trial_index": 54, "time_elapsed": 366284, "internal_node_id": "0.0-36.0-0.0"}}, {"uniqueid": "MTK0974:3AQF3RZ559PQRJMHE5Y683H0LX36F5", "current_trial": 55, "dateTime": 1512940847594, "trialdata": {"rt": -1000, "stimulus": "/static/audio/wordpool/MARKET.wav", "key_press": -1, "type": "PRES_AUD", "word": "market", "wordID": 870, "conditions": [18, 1200, "a", 18000], "trial": 1, "serialpos": 0, "trial_type": "single-audio", "trial_index": 55, "time_elapsed": 368593, "internal_node_id": "0.0-37.0"}}, {"uniqueid": "MTK0974:3AQF3RZ559PQRJMHE5Y683H0LX36F5", "current_trial": 56, "dateTime": 1512940849808, "trialdata": {"rt": -1000, "stimulus": "/static/audio/wordpool/HOUND.wav", "key_press": -1, "type": "PRES_AUD", "word": "hound", "wordID": 723, "conditions": [18, 1200, "a", 18000], "trial": 1, "serialpos": 1, "trial_type": "single-audio", "trial_index": 56, "time_elapsed": 370807, "internal_node_id": "0.0-38.0"}}, {"uniqueid": "MTK0974:3AQF3RZ559PQRJMHE5Y683H0LX36F5", "current_trial": 57, "dateTime": 1512940852057, "trialdata": {"rt": -1000, "stimulus": "/static/audio/wordpool/PICNIC.wav", "key_press": -1, "type": "PRES_AUD", "word": "picnic", "wordID": 1059, "conditions": [18, 1200, "a", 18000], "trial": 1, "serialpos": 2, "trial_type": "single-audio", "trial_index": 57, "time_elapsed": 373056, "internal_node_id": "0.0-39.0"}}, {"uniqueid": "MTK0974:3AQF3RZ559PQRJMHE5Y683H0LX36F5", "current_trial": 58, "dateTime": 1512940854196, "trialdata": {"rt": -1000, "stimulus": "/static/audio/wordpool/JELLO.wav", "key_press": -1, "type": "PRES_AUD", "word": "jello", "wordID": 753, "conditions": [18, 1200, "a", 18000], "trial": 1, "serialpos": 3, "trial_type": "single-audio", "trial_index": 58, "time_elapsed": 375196, "internal_node_id": "0.0-40.0"}}, {"uniqueid": "MTK0974:3AQF3RZ559PQRJMHE5Y683H0LX36F5", "current_trial": 59, "dateTime": 1512940856507, "trialdata": {"rt": -1000, "stimulus": "/static/audio/wordpool/SUITCASE.wav", "key_press": -1, "type": "PRES_AUD", "word": "suitcase", "wordID": 1402, "conditions": [18, 1200, "a", 18000], "trial": 1, "serialpos": 4, "trial_type": "single-audio", "trial_index": 59, "time_elapsed": 377507, "internal_node_id": "0.0-41.0"}}, {"uniqueid": "MTK0974:3AQF3RZ559PQRJMHE5Y683H0LX36F5", "current_trial": 60, "dateTime": 1512940858586, "trialdata": {"rt": -1000, "stimulus": "/static/audio/wordpool/BANJO.wav", "key_press": -1, "type": "PRES_AUD", "word": "banjo", "wordID": 81, "conditions": [18, 1200, "a", 18000], "trial": 1, "serialpos": 5, "trial_type": "single-audio", "trial_index": 60, "time_elapsed": 379586, "internal_node_id": "0.0-42.0"}}, {"uniqueid": "MTK0974:3AQF3RZ559PQRJMHE5Y683H0LX36F5", "current_trial": 61, "dateTime": 1512940860810, "trialdata": {"rt": -1000, "stimulus": "/static/audio/wordpool/SLUG.wav", "key_press": -1, "type": "PRES_AUD", "word": "slug", "wordID": 1328, "conditions": [18, 1200, "a", 18000], "trial": 1, "serialpos": 6, "trial_type": "single-audio", "trial_index": 61, "time_elapsed": 381810, "internal_node_id": "0.0-43.0"}}, {"uniqueid": "MTK0974:3AQF3RZ559PQRJMHE5Y683H0LX36F5", "current_trial": 62, "dateTime": 1512940862950, "trialdata": {"rt": -1000, "stimulus": "/static/audio/wordpool/ROCKET.wav", "key_press": -1, "type": "PRES_AUD", "word": "rocket", "wordID": 1201, "conditions": [18, 1200, "a", 18000], "trial": 1, "serialpos": 7, "trial_type": "single-audio", "trial_index": 62, "time_elapsed": 383949, "internal_node_id": "0.0-44.0"}}, {"uniqueid": "MTK0974:3AQF3RZ559PQRJMHE5Y683H0LX36F5", "current_trial": 63, "dateTime": 1512940865095, "trialdata": {"rt": -1000, "stimulus": "/static/audio/wordpool/DINER.wav", "key_press": -1, "type": "PRES_AUD", "word": "diner", "wordID": 466, "conditions": [18, 1200, "a", 18000], "trial": 1, "serialpos": 8, "trial_type": "single-audio", "trial_index": 63, "time_elapsed": 386094, "internal_node_id": "0.0-45.0"}}, {"uniqueid": "MTK0974:3AQF3RZ559PQRJMHE5Y683H0LX36F5", "current_trial": 64, "dateTime": 1512940867443, "trialdata": {"rt": -1000, "stimulus": "/static/audio/wordpool/SHOVEL.wav", "key_press": -1, "type": "PRES_AUD", "word": "shovel", "wordID": 1294, "conditions": [18, 1200, "a", 18000], "trial": 1, "serialpos": 9, "trial_type": "single-audio", "trial_index": 64, "time_elapsed": 388442, "internal_node_id": "0.0-46.0"}}, {"uniqueid": "MTK0974:3AQF3RZ559PQRJMHE5Y683H0LX36F5", "current_trial": 65, "dateTime": 1512940869565, "trialdata": {"rt": -1000, "stimulus": "/static/audio/wordpool/CURTAIN.wav", "key_press": -1, "type": "PRES_AUD", "word": "curtain", "wordID": 426, "conditions": [18, 1200, "a", 18000], "trial": 1, "serialpos": 10, "trial_type": "single-audio", "trial_index": 65, "time_elapsed": 390564, "internal_node_id": "0.0-47.0"}}, {"uniqueid": "MTK0974:3AQF3RZ559PQRJMHE5Y683H0LX36F5", "current_trial": 66, "dateTime": 1512940871586, "trialdata": {"rt": -1000, "stimulus": "/static/audio/wordpool/KLEENEX.wav", "key_press": -1, "type": "PRES_AUD", "word": "kleenex", "wordID": 781, "conditions": [18, 1200, "a", 18000], "trial": 1, "serialpos": 11, "trial_type": "single-audio", "trial_index": 66, "time_elapsed": 392586, "internal_node_id": "0.0-48.0"}}, {"uniqueid": "MTK0974:3AQF3RZ559PQRJMHE5Y683H0LX36F5", "current_trial": 67, "dateTime": 1512940873860, "trialdata": {"rt": -1000, "stimulus": "/static/audio/wordpool/CHIPMUNK.wav", "key_press": -1, "type": "PRES_AUD", "word": "chipmunk", "wordID": 303, "conditions": [18, 1200, "a", 18000], "trial": 1, "serialpos": 12, "trial_type": "single-audio", "trial_index": 67, "time_elapsed": 394859, "internal_node_id": "0.0-49.0"}}, {"uniqueid": "MTK0974:3AQF3RZ559PQRJMHE5Y683H0LX36F5", "current_trial": 68, "dateTime": 1512940876078, "trialdata": {"rt": -1000, "stimulus": "/static/audio/wordpool/LEADER.wav", "key_press": -1, "type": "PRES_AUD", "word": "leader", "wordID": 806, "conditions": [18, 1200, "a", 18000], "trial": 1, "serialpos": 13, "trial_type": "single-audio", "trial_index": 68, "time_elapsed": 397078, "internal_node_id": "0.0-50.0"}}, {"uniqueid": "MTK0974:3AQF3RZ559PQRJMHE5Y683H0LX36F5", "current_trial": 69, "dateTime": 1512940878377, "trialdata": {"rt": -1000, "stimulus": "/static/audio/wordpool/CONVICT.wav", "key_press": -1, "type": "PRES_AUD", "word": "convict", "wordID": 370, "conditions": [18, 1200, "a", 18000], "trial": 1, "serialpos": 14, "trial_type": "single-audio", "trial_index": 69, "time_elapsed": 399376, "internal_node_id": "0.0-51.0"}}, {"uniqueid": "MTK0974:3AQF3RZ559PQRJMHE5Y683H0LX36F5", "current_trial": 70, "dateTime": 1512940880714, "trialdata": {"rt": -1000, "stimulus": "/static/audio/wordpool/BRACES.wav", "key_press": -1, "type": "PRES_AUD", "word": "braces", "wordID": 163, "conditions": [18, 1200, "a", 18000], "trial": 1, "serialpos": 15, "trial_type": "single-audio", "trial_index": 70, "time_elapsed": 401714, "internal_node_id": "0.0-52.0"}}, {"uniqueid": "MTK0974:3AQF3RZ559PQRJMHE5Y683H0LX36F5", "current_trial": 71, "dateTime": 1512940882769, "trialdata": {"rt": -1000, "stimulus": "/static/audio/wordpool/SISTER.wav", "key_press": -1, "type": "PRES_AUD", "word": "sister", "wordID": 1311, "conditions": [18, 1200, "a", 18000], "trial": 1, "serialpos": 16, "trial_type": "single-audio", "trial_index": 71, "time_elapsed": 403769, "internal_node_id": "0.0-53.0"}}, {"uniqueid": "MTK0974:3AQF3RZ559PQRJMHE5Y683H0LX36F5", "current_trial": 72, "dateTime": 1512940885068, "trialdata": {"rt": -1000, "stimulus": "/static/audio/wordpool/CARRIAGE.wav", "key_press": -1, "type": "PRES_AUD", "word": "carriage", "wordID": 247, "conditions": [18, 1200, "a", 18000], "trial": 1, "serialpos": 17, "trial_type": "single-audio", "trial_index": 72, "time_elapsed": 406068, "internal_node_id": "0.0-54.0"}}, {"uniqueid": "MTK0974:3AQF3RZ559PQRJMHE5Y683H0LX36F5", "current_trial": 73, "dateTime": 1512940886311, "trialdata": {"rt": -1, "stimulus": "", "key_press": -1, "type": "PRE_RECALL_DELAY", "trial_type": "single-stim", "trial_index": 73, "time_elapsed": 407311, "internal_node_id": "0.0-55.0-0.0"}}, {"uniqueid": "MTK0974:3AQF3RZ559PQRJMHE5Y683H0LX36F5", "current_trial": 74, "dateTime": 1512940886841, "trialdata": {"rt": -1000, "stimulus": "/static/audio/400Hz.wav", "key_press": -1, "type": "PRE_RECALL_ALERT", "trial_type": "single-audio", "trial_index": 74, "time_elapsed": 407840, "internal_node_id": "0.0-56.0"}}, {"uniqueid": "MTK0974:3AQF3RZ559PQRJMHE5Y683H0LX36F5", "current_trial": 75, "dateTime": 1512940946874, "trialdata": {"rt": [3990, 5805, 7965, 10013, 11613, 14173, 17533, 21293, 28888, 34685], "recwords": ["leader", "market", "jello", "banjo", "slug", "rocket", "curtain", "shovel", "carriage", "sister"], "type": "FREE_RECALL", "conditions": [18, 1200, "a", 18000], "trial": 1, "trial_type": "free-recall", "trial_index": 75, "time_elapsed": 467865, "internal_node_id": "0.0-57.0-0.0"}}, {"uniqueid": "MTK0974:3AQF3RZ559PQRJMHE5Y683H0LX36F5", "current_trial": 76, "dateTime": 1512940951152, "trialdata": {"rt": 2269, "key_press": 32, "type": "INSTRUCTIONS", "trial_type": "text", "trial_index": 76, "time_elapsed": 472145, "internal_node_id": "0.0-58.0"}}, {"uniqueid": "MTK0974:3AQF3RZ559PQRJMHE5Y683H0LX36F5", "current_trial": 77, "dateTime": 1512940964154, "trialdata": {"rt": [3757, 6463, 10423], "responses": ["21", "10", "24"], "num1": [5, 3, 9, 2], "num2": [7, 2, 9, 5], "num3": [6, 5, 6, 4], "type": "DISTRACTOR", "conditions": [12, 1600, "a", 12000], "trial": 2, "trial_type": "math-distractor", "trial_index": 77, "time_elapsed": 485154, "internal_node_id": "0.0-59.0"}}, {"uniqueid": "MTK0974:3AQF3RZ559PQRJMHE5Y683H0LX36F5", "current_trial": 78, "dateTime": 1512940967156, "trialdata": {"rt": -1, "stimulus": "<p id=\"stim\">10</p>", "key_press": -1, "trial_type": "single-stim", "trial_index": 78, "time_elapsed": 488156, "internal_node_id": "0.0-60.0-0.0"}}, {"uniqueid": "MTK0974:3AQF3RZ559PQRJMHE5Y683H0LX36F5", "current_trial": 79, "dateTime": 1512940968161, "trialdata": {"rt": -1, "stimulus": "<p id=\"stim\">9</p>", "key_press": -1, "trial_type": "single-stim", "trial_index": 79, "time_elapsed": 489160, "internal_node_id": "0.0-60.0-1.0"}}, {"uniqueid": "MTK0974:3AQF3RZ559PQRJMHE5Y683H0LX36F5", "current_trial": 80, "dateTime": 1512940969163, "trialdata": {"rt": -1, "stimulus": "<p id=\"stim\">8</p>", "key_press": -1, "trial_type": "single-stim", "trial_index": 80, "time_elapsed": 490163, "internal_node_id": "0.0-60.0-2.0"}}, {"uniqueid": "MTK0974:3AQF3RZ559PQRJMHE5Y683H0LX36F5", "current_trial": 81, "dateTime": 1512940970170, "trialdata": {"rt": -1, "stimulus": "<p id=\"stim\">7</p>", "key_press": -1, "trial_type": "single-stim", "trial_index": 81, "time_elapsed": 491169, "internal_node_id": "0.0-60.0-3.0"}}, {"uniqueid": "MTK0974:3AQF3RZ559PQRJMHE5Y683H0LX36F5", "current_trial": 82, "dateTime": 1512940971180, "trialdata": {"rt": -1, "stimulus": "<p id=\"stim\">6</p>", "key_press": -1, "trial_type": "single-stim", "trial_index": 82, "time_elapsed": 492180, "internal_node_id": "0.0-60.0-4.0"}}, {"uniqueid": "MTK0974:3AQF3RZ559PQRJMHE5Y683H0LX36F5", "current_trial": 83, "dateTime": 1512940972248, "trialdata": {"rt": -1, "stimulus": "<p id=\"stim\">5</p>", "key_press": -1, "trial_type": "single-stim", "trial_index": 83, "time_elapsed": 493248, "internal_node_id": "0.0-60.0-5.0"}}, {"uniqueid": "MTK0974:3AQF3RZ559PQRJMHE5Y683H0LX36F5", "current_trial": 84, "dateTime": 1512940973259, "trialdata": {"rt": -1, "stimulus": "<p id=\"stim\">4</p>", "key_press": -1, "trial_type": "single-stim", "trial_index": 84, "time_elapsed": 494258, "internal_node_id": "0.0-60.0-6.0"}}, {"uniqueid": "MTK0974:3AQF3RZ559PQRJMHE5Y683H0LX36F5", "current_trial": 85, "dateTime": 1512940974293, "trialdata": {"rt": -1, "stimulus": "<p id=\"stim\">3</p>", "key_press": -1, "trial_type": "single-stim", "trial_index": 85, "time_elapsed": 495293, "internal_node_id": "0.0-60.0-7.0"}}, {"uniqueid": "MTK0974:3AQF3RZ559PQRJMHE5Y683H0LX36F5", "current_trial": 86, "dateTime": 1512940975295, "trialdata": {"rt": -1, "stimulus": "<p id=\"stim\">2</p>", "key_press": -1, "trial_type": "single-stim", "trial_index": 86, "time_elapsed": 496295, "internal_node_id": "0.0-60.0-8.0"}}, {"uniqueid": "MTK0974:3AQF3RZ559PQRJMHE5Y683H0LX36F5", "current_trial": 87, "dateTime": 1512940976297, "trialdata": {"rt": -1, "stimulus": "<p id=\"stim\">1</p>", "key_press": -1, "trial_type": "single-stim", "trial_index": 87, "time_elapsed": 497297, "internal_node_id": "0.0-60.0-9.0"}}, {"uniqueid": "MTK0974:3AQF3RZ559PQRJMHE5Y683H0LX36F5", "current_trial": 88, "dateTime": 1512940977798, "trialdata": {"rt": -1, "stimulus": "<p id=\"stim\">+</p>", "key_press": -1, "type": "FIXATION", "trial_type": "single-stim", "trial_index": 88, "time_elapsed": 498798, "internal_node_id": "0.0-61.0-0.0"}}, {"uniqueid": "MTK0974:3AQF3RZ559PQRJMHE5Y683H0LX36F5", "current_trial": 89, "dateTime": 1512940980500, "trialdata": {"rt": -1000, "stimulus": "/static/audio/wordpool/VELVET.wav", "key_press": -1, "type": "PRES_AUD", "word": "velvet", "wordID": 1554, "conditions": [12, 1600, "a", 12000], "trial": 2, "serialpos": 0, "trial_type": "single-audio", "trial_index": 89, "time_elapsed": 501500, "internal_node_id": "0.0-62.0"}}, {"uniqueid": "MTK0974:3AQF3RZ559PQRJMHE5Y683H0LX36F5", "current_trial": 90, "dateTime": 1512940983033, "trialdata": {"rt": -1000, "stimulus": "/static/audio/wordpool/SWITCH.wav", "key_press": -1, "type": "PRES_AUD", "word": "switch", "wordID": 1421, "conditions": [12, 1600, "a", 12000], "trial": 2, "serialpos": 1, "trial_type": "single-audio", "trial_index": 90, "time_elapsed": 504033, "internal_node_id": "0.0-63.0"}}, {"uniqueid": "MTK0974:3AQF3RZ559PQRJMHE5Y683H0LX36F5", "current_trial": 91, "dateTime": 1512940985793, "trialdata": {"rt": -1000, "stimulus": "/static/audio/wordpool/MARINE.wav", "key_press": -1, "type": "PRES_AUD", "word": "marine", "wordID": 868, "conditions": [12, 1600, "a", 12000], "trial": 2, "serialpos": 2, "trial_type": "single-audio", "trial_index": 91, "time_elapsed": 506792, "internal_node_id": "0.0-64.0"}}, {"uniqueid": "MTK0974:3AQF3RZ559PQRJMHE5Y683H0LX36F5", "current_trial": 92, "dateTime": 1512940988231, "trialdata": {"rt": -1000, "stimulus": "/static/audio/wordpool/BUCKET.wav", "key_press": -1, "type": "PRES_AUD", "word": "bucket", "wordID": 183, "conditions": [12, 1600, "a", 12000], "trial": 2, "serialpos": 3, "trial_type": "single-audio", "trial_index": 92, "time_elapsed": 509230, "internal_node_id": "0.0-65.0"}}, {"uniqueid": "MTK0974:3AQF3RZ559PQRJMHE5Y683H0LX36F5", "current_trial": 93, "dateTime": 1512940990686, "trialdata": {"rt": -1000, "stimulus": "/static/audio/wordpool/WRENCH.wav", "key_press": -1, "type": "PRES_AUD", "word": "wrench", "wordID": 1624, "conditions": [12, 1600, "a", 12000], "trial": 2, "serialpos": 4, "trial_type": "single-audio", "trial_index": 93, "time_elapsed": 511685, "internal_node_id": "0.0-66.0"}}, {"uniqueid": "MTK0974:3AQF3RZ559PQRJMHE5Y683H0LX36F5", "current_trial": 94, "dateTime": 1512940993464, "trialdata": {"rt": -1000, "stimulus": "/static/audio/wordpool/SILK.wav", "key_press": -1, "type": "PRES_AUD", "word": "silk", "wordID": 1306, "conditions": [12, 1600, "a", 12000], "trial": 2, "serialpos": 5, "trial_type": "single-audio", "trial_index": 94, "time_elapsed": 514463, "internal_node_id": "0.0-67.0"}}, {"uniqueid": "MTK0974:3AQF3RZ559PQRJMHE5Y683H0LX36F5", "current_trial": 95, "dateTime": 1512940996218, "trialdata": {"rt": -1000, "stimulus": "/static/audio/wordpool/ACTOR.wav", "key_press": -1, "type": "PRES_AUD", "word": "actor", "wordID": 4, "conditions": [12, 1600, "a", 12000], "trial": 2, "serialpos": 6, "trial_type": "single-audio", "trial_index": 95, "time_elapsed": 517217, "internal_node_id": "0.0-68.0"}}, {"uniqueid": "MTK0974:3AQF3RZ559PQRJMHE5Y683H0LX36F5", "current_trial": 96, "dateTime": 1512940998843, "trialdata": {"rt": -1000, "stimulus": "/static/audio/wordpool/ACTRESS.wav", "key_press": -1, "type": "PRES_AUD", "word": "actress", "wordID": 5, "conditions": [12, 1600, "a", 12000], "trial": 2, "serialpos": 7, "trial_type": "single-audio", "trial_index": 96, "time_elapsed": 519843, "internal_node_id": "0.0-69.0"}}, {"uniqueid": "MTK0974:3AQF3RZ559PQRJMHE5Y683H0LX36F5", "current_trial": 97, "dateTime": 1512941001528, "trialdata": {"rt": -1000, "stimulus": "/static/audio/wordpool/STOVE.wav", "key_press": -1, "type": "PRES_AUD", "word": "stove", "wordID": 1387, "conditions": [12, 1600, "a", 12000], "trial": 2, "serialpos": 8, "trial_type": "single-audio", "trial_index": 97, "time_elapsed": 522505, "internal_node_id": "0.0-70.0"}}, {"uniqueid": "MTK0974:3AQF3RZ559PQRJMHE5Y683H0LX36F5", "current_trial": 98, "dateTime": 1512941003992, "trialdata": {"rt": -1000, "stimulus": "/static/audio/wordpool/SHIRT.wav", "key_press": -1, "type": "PRES_AUD", "word": "shirt", "wordID": 1286, "conditions": [12, 1600, "a", 12000], "trial": 2, "serialpos": 9, "trial_type": "single-audio", "trial_index": 98, "time_elapsed": 524991, "internal_node_id": "0.0-71.0"}}, {"uniqueid": "MTK0974:3AQF3RZ559PQRJMHE5Y683H0LX36F5", "current_trial": 99, "dateTime": 1512941006430, "trialdata": {"rt": -1000, "stimulus": "/static/audio/wordpool/HEART.wav", "key_press": -1, "type": "PRES_AUD", "word": "heart", "wordID": 696, "conditions": [12, 1600, "a", 12000], "trial": 2, "serialpos": 10, "trial_type": "single-audio", "trial_index": 99, "time_elapsed": 527429, "internal_node_id": "0.0-72.0"}}, {"uniqueid": "MTK0974:3AQF3RZ559PQRJMHE5Y683H0LX36F5", "current_trial": 100, "dateTime": 1512941009086, "trialdata": {"rt": -1000, "stimulus": "/static/audio/wordpool/ANTLER.wav", "key_press": -1, "type": "PRES_AUD", "word": "antler", "wordID": 28, "conditions": [12, 1600, "a", 12000], "trial": 2, "serialpos": 11, "trial_type": "single-audio", "trial_index": 100, "time_elapsed": 530086, "internal_node_id": "0.0-73.0"}}, {"uniqueid": "MTK0974:3AQF3RZ559PQRJMHE5Y683H0LX36F5", "current_trial": 101, "dateTime": 1512941010337, "trialdata": {"rt": -1, "stimulus": "", "key_press": -1, "type": "PRE_RECALL_DELAY", "trial_type": "single-stim", "trial_index": 101, "time_elapsed": 531337, "internal_node_id": "0.0-74.0-0.0"}}, {"uniqueid": "MTK0974:3AQF3RZ559PQRJMHE5Y683H0LX36F5", "current_trial": 102, "dateTime": 1512941010871, "trialdata": {"rt": -1000, "stimulus": "/static/audio/400Hz.wav", "key_press": -1, "type": "PRE_RECALL_ALERT", "trial_type": "single-audio", "trial_index": 102, "time_elapsed": 531871, "internal_node_id": "0.0-75.0"}}, {"uniqueid": "MTK0974:3AQF3RZ559PQRJMHE5Y683H0LX36F5", "current_trial": 103, "dateTime": 1512941070890, "trialdata": {"rt": [3745, 5909, 7775, 10670, 13328, 16705], "recwords": ["velvet", "wrench", "actor", "actress", "bucket", "switch"], "type": "FREE_RECALL", "conditions": [12, 1600, "a", 12000], "trial": 2, "trial_type": "free-recall", "trial_index": 103, "time_elapsed": 591879, "internal_node_id": "0.0-76.0-0.0"}}, {"uniqueid": "MTK0974:3AQF3RZ559PQRJMHE5Y683H0LX36F5", "current_trial": 104, "dateTime": 1512941074843, "trialdata": {"rt": 1952, "key_press": 32, "type": "INSTRUCTIONS", "trial_type": "text", "trial_index": 104, "time_elapsed": 595843, "internal_node_id": "0.0-77.0"}}, {"uniqueid": "MTK0974:3AQF3RZ559PQRJMHE5Y683H0LX36F5", "current_trial": 105, "dateTime": 1512941100866, "trialdata": {"rt": [2551, 6007, 9212, 13031, 16449, 20044, 23554], "responses": ["7", "19", "13", "14", "21", "14", "14"], "num1": [4, 8, 3, 3, 2, 5, 8, 1], "num2": [2, 8, 6, 4, 8, 7, 3, 3], "num3": [1, 1, 4, 7, 8, 2, 3, 9], "type": "DISTRACTOR", "conditions": [24, 1600, "v", 24000], "trial": 3, "trial_type": "math-distractor", "trial_index": 105, "time_elapsed": 621866, "internal_node_id": "0.0-78.0"}}, {"uniqueid": "MTK0974:3AQF3RZ559PQRJMHE5Y683H0LX36F5", "current_trial": 106, "dateTime": 1512941103868, "trialdata": {"rt": -1, "stimulus": "<p id=\"stim\">10</p>", "key_press": -1, "trial_type": "single-stim", "trial_index": 106, "time_elapsed": 624868, "internal_node_id": "0.0-79.0-0.0"}}, {"uniqueid": "MTK0974:3AQF3RZ559PQRJMHE5Y683H0LX36F5", "current_trial": 107, "dateTime": 1512941104917, "trialdata": {"rt": -1, "stimulus": "<p id=\"stim\">9</p>", "key_press": -1, "trial_type": "single-stim", "trial_index": 107, "time_elapsed": 625917, "internal_node_id": "0.0-79.0-1.0"}}, {"uniqueid": "MTK0974:3AQF3RZ559PQRJMHE5Y683H0LX36F5", "current_trial": 108, "dateTime": 1512941105919, "trialdata": {"rt": -1, "stimulus": "<p id=\"stim\">8</p>", "key_press": -1, "trial_type": "single-stim", "trial_index": 108, "time_elapsed": 626919, "internal_node_id": "0.0-79.0-2.0"}}, {"uniqueid": "MTK0974:3AQF3RZ559PQRJMHE5Y683H0LX36F5", "current_trial": 109, "dateTime": 1512941106980, "trialdata": {"rt": -1, "stimulus": "<p id=\"stim\">7</p>", "key_press": -1, "trial_type": "single-stim", "trial_index": 109, "time_elapsed": 627979, "internal_node_id": "0.0-79.0-3.0"}}, {"uniqueid": "MTK0974:3AQF3RZ559PQRJMHE5Y683H0LX36F5", "current_trial": 110, "dateTime": 1512941107982, "trialdata": {"rt": -1, "stimulus": "<p id=\"stim\">6</p>", "key_press": -1, "trial_type": "single-stim", "trial_index": 110, "time_elapsed": 628982, "internal_node_id": "0.0-79.0-4.0"}}, {"uniqueid": "MTK0974:3AQF3RZ559PQRJMHE5Y683H0LX36F5", "current_trial": 111, "dateTime": 1512941108983, "trialdata": {"rt": -1, "stimulus": "<p id=\"stim\">5</p>", "key_press": -1, "trial_type": "single-stim", "trial_index": 111, "time_elapsed": 629983, "internal_node_id": "0.0-79.0-5.0"}}, {"uniqueid": "MTK0974:3AQF3RZ559PQRJMHE5Y683H0LX36F5", "current_trial": 112, "dateTime": 1512941109986, "trialdata": {"rt": -1, "stimulus": "<p id=\"stim\">4</p>", "key_press": -1, "trial_type": "single-stim", "trial_index": 112, "time_elapsed": 630985, "internal_node_id": "0.0-79.0-6.0"}}, {"uniqueid": "MTK0974:3AQF3RZ559PQRJMHE5Y683H0LX36F5", "current_trial": 113, "dateTime": 1512941110988, "trialdata": {"rt": -1, "stimulus": "<p id=\"stim\">3</p>", "key_press": -1, "trial_type": "single-stim", "trial_index": 113, "time_elapsed": 631988, "internal_node_id": "0.0-79.0-7.0"}}, {"uniqueid": "MTK0974:3AQF3RZ559PQRJMHE5Y683H0LX36F5", "current_trial": 114, "dateTime": 1512941111989, "trialdata": {"rt": -1, "stimulus": "<p id=\"stim\">2</p>", "key_press": -1, "trial_type": "single-stim", "trial_index": 114, "time_elapsed": 632989, "internal_node_id": "0.0-79.0-8.0"}}, {"uniqueid": "MTK0974:3AQF3RZ559PQRJMHE5Y683H0LX36F5", "current_trial": 115, "dateTime": 1512941112990, "trialdata": {"rt": -1, "stimulus": "<p id=\"stim\">1</p>", "key_press": -1, "trial_type": "single-stim", "trial_index": 115, "time_elapsed": 633990, "internal_node_id": "0.0-79.0-9.0"}}, {"uniqueid": "MTK0974:3AQF3RZ559PQRJMHE5Y683H0LX36F5", "current_trial": 116, "dateTime": 1512941114491, "trialdata": {"rt": -1, "stimulus": "<p id=\"stim\">+</p>", "key_press": -1, "type": "FIXATION", "trial_type": "single-stim", "trial_index": 116, "time_elapsed": 635490, "internal_node_id": "0.0-80.0-0.0"}}, {"uniqueid": "MTK0974:3AQF3RZ559PQRJMHE5Y683H0LX36F5", "current_trial": 117, "dateTime": 1512941116092, "trialdata": {"rt": -1, "stimulus": "<p id=\"stim\">MILK</p>", "key_press": -1, "type": "PRES_VIS", "word": "milk", "wordID": 894, "conditions": [24, 1600, "v", 24000], "trial": 3, "serialpos": 0, "trial_type": "single-stim", "trial_index": 117, "time_elapsed": 637092, "internal_node_id": "0.0-81.0"}}, {"uniqueid": "MTK0974:3AQF3RZ559PQRJMHE5Y683H0LX36F5", "current_trial": 118, "dateTime": 1512941118690, "trialdata": {"rt": -1, "stimulus": "<p id=\"stim\">TREAT</p>", "key_press": -1, "type": "PRES_VIS", "word": "treat", "wordID": 1500, "conditions": [24, 1600, "v", 24000], "trial": 3, "serialpos": 1, "trial_type": "single-stim", "trial_index": 118, "time_elapsed": 639688, "internal_node_id": "0.0-82.0"}}, {"uniqueid": "MTK0974:3AQF3RZ559PQRJMHE5Y683H0LX36F5", "current_trial": 119, "dateTime": 1512941121137, "trialdata": {"rt": -1, "stimulus": "<p id=\"stim\">OINTMENT</p>", "key_press": -1, "type": "PRES_VIS", "word": "ointment", "wordID": 973, "conditions": [24, 1600, "v", 24000], "trial": 3, "serialpos": 2, "trial_type": "single-stim", "trial_index": 119, "time_elapsed": 642137, "internal_node_id": "0.0-83.0"}}, {"uniqueid": "MTK0974:3AQF3RZ559PQRJMHE5Y683H0LX36F5", "current_trial": 120, "dateTime": 1512941123709, "trialdata": {"rt": -1, "stimulus": "<p id=\"stim\">PECAN</p>", "key_press": -1, "type": "PRES_VIS", "word": "pecan", "wordID": 1035, "conditions": [24, 1600, "v", 24000], "trial": 3, "serialpos": 3, "trial_type": "single-stim", "trial_index": 120, "time_elapsed": 644709, "internal_node_id": "0.0-84.0"}}, {"uniqueid": "MTK0974:3AQF3RZ559PQRJMHE5Y683H0LX36F5", "current_trial": 121, "dateTime": 1512941126215, "trialdata": {"rt": -1, "stimulus": "<p id=\"stim\">PRINCESS</p>", "key_press": -1, "type": "PRES_VIS", "word": "princess", "wordID": 1124, "conditions": [24, 1600, "v", 24000], "trial": 3, "serialpos": 4, "trial_type": "single-stim", "trial_index": 121, "time_elapsed": 647214, "internal_node_id": "0.0-85.0"}}, {"uniqueid": "MTK0974:3AQF3RZ559PQRJMHE5Y683H0LX36F5", "current_trial": 122, "dateTime": 1512941128846, "trialdata": {"rt": -1, "stimulus": "<p id=\"stim\">SCOTCH</p>", "key_press": -1, "type": "PRES_VIS", "word": "scotch", "wordID": 1250, "conditions": [24, 1600, "v", 24000], "trial": 3, "serialpos": 5, "trial_type": "single-stim", "trial_index": 122, "time_elapsed": 649846, "internal_node_id": "0.0-86.0"}}, {"uniqueid": "MTK0974:3AQF3RZ559PQRJMHE5Y683H0LX36F5", "current_trial": 123, "dateTime": 1512941131592, "trialdata": {"rt": -1, "stimulus": "<p id=\"stim\">COUCH</p>", "key_press": -1, "type": "PRES_VIS", "word": "couch", "wordID": 385, "conditions": [24, 1600, "v", 24000], "trial": 3, "serialpos": 6, "trial_type": "single-stim", "trial_index": 123, "time_elapsed": 652592, "internal_node_id": "0.0-87.0"}}, {"uniqueid": "MTK0974:3AQF3RZ559PQRJMHE5Y683H0LX36F5", "current_trial": 124, "dateTime": 1512941134164, "trialdata": {"rt": -1, "stimulus": "<p id=\"stim\">MATTRESS</p>", "key_press": -1, "type": "PRES_VIS", "word": "mattress", "wordID": 878, "conditions": [24, 1600, "v", 24000], "trial": 3, "serialpos": 7, "trial_type": "single-stim", "trial_index": 124, "time_elapsed": 655164, "internal_node_id": "0.0-88.0"}}, {"uniqueid": "MTK0974:3AQF3RZ559PQRJMHE5Y683H0LX36F5", "current_trial": 125, "dateTime": 1512941136751, "trialdata": {"rt": -1, "stimulus": "<p id=\"stim\">CRAB</p>", "key_press": -1, "type": "PRES_VIS", "word": "crab", "wordID": 396, "conditions": [24, 1600, "v", 24000], "trial": 3, "serialpos": 8, "trial_type": "single-stim", "trial_index": 125, "time_elapsed": 657750, "internal_node_id": "0.0-89.0"}}, {"uniqueid": "MTK0974:3AQF3RZ559PQRJMHE5Y683H0LX36F5", "current_trial": 126, "dateTime": 1512941139251, "trialdata": {"rt": -1, "stimulus": "<p id=\"stim\">ARMY</p>", "key_press": -1, "type": "PRES_VIS", "word": "army", "wordID": 38, "conditions": [24, 1600, "v", 24000], "trial": 3, "serialpos": 9, "trial_type": "single-stim", "trial_index": 126, "time_elapsed": 660251, "internal_node_id": "0.0-90.0"}}, {"uniqueid": "MTK0974:3AQF3RZ559PQRJMHE5Y683H0LX36F5", "current_trial": 127, "dateTime": 1512941141930, "trialdata": {"rt": -1, "stimulus": "<p id=\"stim\">TUNNEL</p>", "key_press": -1, "type": "PRES_VIS", "word": "tunnel", "wordID": 1518, "conditions": [24, 1600, "v", 24000], "trial": 3, "serialpos": 10, "trial_type": "single-stim", "trial_index": 127, "time_elapsed": 662930, "internal_node_id": "0.0-91.0"}}, {"uniqueid": "MTK0974:3AQF3RZ559PQRJMHE5Y683H0LX36F5", "current_trial": 128, "dateTime": 1512941144458, "trialdata": {"rt": -1, "stimulus": "<p id=\"stim\">BRANDY</p>", "key_press": -1, "type": "PRES_VIS", "word": "brandy", "wordID": 168, "conditions": [24, 1600, "v", 24000], "trial": 3, "serialpos": 11, "trial_type": "single-stim", "trial_index": 128, "time_elapsed": 665458, "internal_node_id": "0.0-92.0"}}, {"uniqueid": "MTK0974:3AQF3RZ559PQRJMHE5Y683H0LX36F5", "current_trial": 129, "dateTime": 1512941147195, "trialdata": {"rt": -1, "stimulus": "<p id=\"stim\">CANAL</p>", "key_press": -1, "type": "PRES_VIS", "word": "canal", "wordID": 225, "conditions": [24, 1600, "v", 24000], "trial": 3, "serialpos": 12, "trial_type": "single-stim", "trial_index": 129, "time_elapsed": 668195, "internal_node_id": "0.0-93.0"}}, {"uniqueid": "MTK0974:3AQF3RZ559PQRJMHE5Y683H0LX36F5", "current_trial": 130, "dateTime": 1512941149915, "trialdata": {"rt": -1, "stimulus": "<p id=\"stim\">RUG</p>", "key_press": -1, "type": "PRES_VIS", "word": "rug", "wordID": 1214, "conditions": [24, 1600, "v", 24000], "trial": 3, "serialpos": 13, "trial_type": "single-stim", "trial_index": 130, "time_elapsed": 670915, "internal_node_id": "0.0-94.0"}}, {"uniqueid": "MTK0974:3AQF3RZ559PQRJMHE5Y683H0LX36F5", "current_trial": 131, "dateTime": 1512941152421, "trialdata": {"rt": -1, "stimulus": "<p id=\"stim\">HEDGE</p>", "key_press": -1, "type": "PRES_VIS", "word": "hedge", "wordID": 698, "conditions": [24, 1600, "v", 24000], "trial": 3, "serialpos": 14, "trial_type": "single-stim", "trial_index": 131, "time_elapsed": 673420, "internal_node_id": "0.0-95.0"}}, {"uniqueid": "MTK0974:3AQF3RZ559PQRJMHE5Y683H0LX36F5", "current_trial": 132, "dateTime": 1512941155115, "trialdata": {"rt": -1, "stimulus": "<p id=\"stim\">GIRL</p>", "key_press": -1, "type": "PRES_VIS", "word": "girl", "wordID": 636, "conditions": [24, 1600, "v", 24000], "trial": 3, "serialpos": 15, "trial_type": "single-stim", "trial_index": 132, "time_elapsed": 676115, "internal_node_id": "0.0-96.0"}}, {"uniqueid": "MTK0974:3AQF3RZ559PQRJMHE5Y683H0LX36F5", "current_trial": 133, "dateTime": 1512941157834, "trialdata": {"rt": -1, "stimulus": "<p id=\"stim\">SCISSORS</p>", "key_press": -1, "type": "PRES_VIS", "word": "scissors", "wordID": 1249, "conditions": [24, 1600, "v", 24000], "trial": 3, "serialpos": 16, "trial_type": "single-stim", "trial_index": 133, "time_elapsed": 678834, "internal_node_id": "0.0-97.0"}}, {"uniqueid": "MTK0974:3AQF3RZ559PQRJMHE5Y683H0LX36F5", "current_trial": 134, "dateTime": 1512941160271, "trialdata": {"rt": -1, "stimulus": "<p id=\"stim\">ZEBRA</p>", "key_press": -1, "type": "PRES_VIS", "word": "zebra", "wordID": 1634, "conditions": [24, 1600, "v", 24000], "trial": 3, "serialpos": 17, "trial_type": "single-stim", "trial_index": 134, "time_elapsed": 681271, "internal_node_id": "0.0-98.0"}}, {"uniqueid": "MTK0974:3AQF3RZ559PQRJMHE5Y683H0LX36F5", "current_trial": 135, "dateTime": 1512941163022, "trialdata": {"rt": -1, "stimulus": "<p id=\"stim\">DUST</p>", "key_press": -1, "type": "PRES_VIS", "word": "dust", "wordID": 507, "conditions": [24, 1600, "v", 24000], "trial": 3, "serialpos": 18, "trial_type": "single-stim", "trial_index": 135, "time_elapsed": 684022, "internal_node_id": "0.0-99.0"}}, {"uniqueid": "MTK0974:3AQF3RZ559PQRJMHE5Y683H0LX36F5", "current_trial": 136, "dateTime": 1512941165740, "trialdata": {"rt": -1, "stimulus": "<p id=\"stim\">BOUQUET</p>", "key_press": -1, "type": "PRES_VIS", "word": "bouquet", "wordID": 156, "conditions": [24, 1600, "v", 24000], "trial": 3, "serialpos": 19, "trial_type": "single-stim", "trial_index": 136, "time_elapsed": 686740, "internal_node_id": "0.0-100.0"}}, {"uniqueid": "MTK0974:3AQF3RZ559PQRJMHE5Y683H0LX36F5", "current_trial": 137, "dateTime": 1512941168501, "trialdata": {"rt": -1, "stimulus": "<p id=\"stim\">LAKE</p>", "key_press": -1, "type": "PRES_VIS", "word": "lake", "wordID": 795, "conditions": [24, 1600, "v", 24000], "trial": 3, "serialpos": 20, "trial_type": "single-stim", "trial_index": 137, "time_elapsed": 689501, "internal_node_id": "0.0-101.0"}}, {"uniqueid": "MTK0974:3AQF3RZ559PQRJMHE5Y683H0LX36F5", "current_trial": 138, "dateTime": 1512941171175, "trialdata": {"rt": -1, "stimulus": "<p id=\"stim\">SODA</p>", "key_press": -1, "type": "PRES_VIS", "word": "soda", "wordID": 1340, "conditions": [24, 1600, "v", 24000], "trial": 3, "serialpos": 21, "trial_type": "single-stim", "trial_index": 138, "time_elapsed": 692175, "internal_node_id": "0.0-102.0"}}, {"uniqueid": "MTK0974:3AQF3RZ559PQRJMHE5Y683H0LX36F5", "current_trial": 139, "dateTime": 1512941173663, "trialdata": {"rt": -1, "stimulus": "<p id=\"stim\">COFFEE</p>", "key_press": -1, "type": "PRES_VIS", "word": "coffee", "wordID": 340, "conditions": [24, 1600, "v", 24000], "trial": 3, "serialpos": 22, "trial_type": "single-stim", "trial_index": 139, "time_elapsed": 694662, "internal_node_id": "0.0-103.0"}}, {"uniqueid": "MTK0974:3AQF3RZ559PQRJMHE5Y683H0LX36F5", "current_trial": 140, "dateTime": 1512941176105, "trialdata": {"rt": -1, "stimulus": "<p id=\"stim\">VICTIM</p>", "key_press": -1, "type": "PRES_VIS", "word": "victim", "wordID": 1561, "conditions": [24, 1600, "v", 24000], "trial": 3, "serialpos": 23, "trial_type": "single-stim", "trial_index": 140, "time_elapsed": 697105, "internal_node_id": "0.0-104.0"}}, {"uniqueid": "MTK0974:3AQF3RZ559PQRJMHE5Y683H0LX36F5", "current_trial": 141, "dateTime": 1512941178354, "trialdata": {"rt": -1, "stimulus": "", "key_press": -1, "type": "PRE_RECALL_DELAY", "trial_type": "single-stim", "trial_index": 141, "time_elapsed": 699353, "internal_node_id": "0.0-105.0-0.0"}}, {"uniqueid": "MTK0974:3AQF3RZ559PQRJMHE5Y683H0LX36F5", "current_trial": 142, "dateTime": 1512941178856, "trialdata": {"rt": -1000, "stimulus": "/static/audio/400Hz.wav", "key_press": -1, "type": "PRE_RECALL_ALERT", "trial_type": "single-audio", "trial_index": 142, "time_elapsed": 699855, "internal_node_id": "0.0-106.0"}}, {"uniqueid": "MTK0974:3AQF3RZ559PQRJMHE5Y683H0LX36F5", "current_trial": 143, "dateTime": 1512941238878, "trialdata": {"rt": [3635, 6700, 8430, 11742, 16382, 19028, 20222, 23590, 25214, 27902], "recwords": ["princess", "coffee", "girl", "rug", "tunnel", "crab", "brandy", "canal", "milk", "treat"], "type": "FREE_RECALL", "conditions": [24, 1600, "v", 24000], "trial": 3, "trial_type": "free-recall", "trial_index": 143, "time_elapsed": 759873, "internal_node_id": "0.0-107.0-0.0"}}, {"uniqueid": "MTK0974:3AQF3RZ559PQRJMHE5Y683H0LX36F5", "current_trial": 144, "dateTime": 1512941256026, "trialdata": {"rt": 15145, "key_press": 32, "type": "INSTRUCTIONS", "trial_type": "text", "trial_index": 144, "time_elapsed": 777025, "internal_node_id": "0.0-108.0"}}, {"uniqueid": "MTK0974:3AQF3RZ559PQRJMHE5Y683H0LX36F5", "current_trial": 145, "dateTime": 1512941282130, "trialdata": {"rt": [3320, 6809, 9048, 13304, 15536, 19976], "responses": ["10", "14", "9", "19", "9", "19"], "num1": [3, 9, 1, 7, 3, 6, 5], "num2": [1, 1, 2, 9, 4, 8, 8], "num3": [6, 4, 6, 3, 2, 5, 6], "type": "DISTRACTOR", "conditions": [12, 1600, "v", 24000], "trial": 4, "trial_type": "math-distractor", "trial_index": 145, "time_elapsed": 803129, "internal_node_id": "0.0-109.0"}}, {"uniqueid": "MTK0974:3AQF3RZ559PQRJMHE5Y683H0LX36F5", "current_trial": 146, "dateTime": 1512941285202, "trialdata": {"rt": -1, "stimulus": "<p id=\"stim\">10</p>", "key_press": -1, "trial_type": "single-stim", "trial_index": 146, "time_elapsed": 806201, "internal_node_id": "0.0-110.0-0.0"}}, {"uniqueid": "MTK0974:3AQF3RZ559PQRJMHE5Y683H0LX36F5", "current_trial": 147, "dateTime": 1512941286203, "trialdata": {"rt": -1, "stimulus": "<p id=\"stim\">9</p>", "key_press": -1, "trial_type": "single-stim", "trial_index": 147, "time_elapsed": 807203, "internal_node_id": "0.0-110.0-1.0"}}, {"uniqueid": "MTK0974:3AQF3RZ559PQRJMHE5Y683H0LX36F5", "current_trial": 148, "dateTime": 1512941287270, "trialdata": {"rt": -1, "stimulus": "<p id=\"stim\">8</p>", "key_press": -1, "trial_type": "single-stim", "trial_index": 148, "time_elapsed": 808269, "internal_node_id": "0.0-110.0-2.0"}}, {"uniqueid": "MTK0974:3AQF3RZ559PQRJMHE5Y683H0LX36F5", "current_trial": 149, "dateTime": 1512941288271, "trialdata": {"rt": -1, "stimulus": "<p id=\"stim\">7</p>", "key_press": -1, "trial_type": "single-stim", "trial_index": 149, "time_elapsed": 809271, "internal_node_id": "0.0-110.0-3.0"}}, {"uniqueid": "MTK0974:3AQF3RZ559PQRJMHE5Y683H0LX36F5", "current_trial": 150, "dateTime": 1512941289274, "trialdata": {"rt": -1, "stimulus": "<p id=\"stim\">6</p>", "key_press": -1, "trial_type": "single-stim", "trial_index": 150, "time_elapsed": 810274, "internal_node_id": "0.0-110.0-4.0"}}, {"uniqueid": "MTK0974:3AQF3RZ559PQRJMHE5Y683H0LX36F5", "current_trial": 151, "dateTime": 1512941290276, "trialdata": {"rt": -1, "stimulus": "<p id=\"stim\">5</p>", "key_press": -1, "trial_type": "single-stim", "trial_index": 151, "time_elapsed": 811275, "internal_node_id": "0.0-110.0-5.0"}}, {"uniqueid": "MTK0974:3AQF3RZ559PQRJMHE5Y683H0LX36F5", "current_trial": 152, "dateTime": 1512941291278, "trialdata": {"rt": -1, "stimulus": "<p id=\"stim\">4</p>", "key_press": -1, "trial_type": "single-stim", "trial_index": 152, "time_elapsed": 812278, "internal_node_id": "0.0-110.0-6.0"}}, {"uniqueid": "MTK0974:3AQF3RZ559PQRJMHE5Y683H0LX36F5", "current_trial": 153, "dateTime": 1512941292280, "trialdata": {"rt": -1, "stimulus": "<p id=\"stim\">3</p>", "key_press": -1, "trial_type": "single-stim", "trial_index": 153, "time_elapsed": 813280, "internal_node_id": "0.0-110.0-7.0"}}, {"uniqueid": "MTK0974:3AQF3RZ559PQRJMHE5Y683H0LX36F5", "current_trial": 154, "dateTime": 1512941293281, "trialdata": {"rt": -1, "stimulus": "<p id=\"stim\">2</p>", "key_press": -1, "trial_type": "single-stim", "trial_index": 154, "time_elapsed": 814281, "internal_node_id": "0.0-110.0-8.0"}}, {"uniqueid": "MTK0974:3AQF3RZ559PQRJMHE5Y683H0LX36F5", "current_trial": 155, "dateTime": 1512941294282, "trialdata": {"rt": -1, "stimulus": "<p id=\"stim\">1</p>", "key_press": -1, "trial_type": "single-stim", "trial_index": 155, "time_elapsed": 815282, "internal_node_id": "0.0-110.0-9.0"}}, {"uniqueid": "MTK0974:3AQF3RZ559PQRJMHE5Y683H0LX36F5", "current_trial": 156, "dateTime": 1512941295783, "trialdata": {"rt": -1, "stimulus": "<p id=\"stim\">+</p>", "key_press": -1, "type": "FIXATION", "trial_type": "single-stim", "trial_index": 156, "time_elapsed": 816783, "internal_node_id": "0.0-111.0-0.0"}}, {"uniqueid": "MTK0974:3AQF3RZ559PQRJMHE5Y683H0LX36F5", "current_trial": 157, "dateTime": 1512941297384, "trialdata": {"rt": -1, "stimulus": "<p id=\"stim\">CREATURE</p>", "key_press": -1, "type": "PRES_VIS", "word": "creature", "wordID": 402, "conditions": [12, 1600, "v", 24000], "trial": 4, "serialpos": 0, "trial_type": "single-stim", "trial_index": 157, "time_elapsed": 818384, "internal_node_id": "0.0-112.0"}}, {"uniqueid": "MTK0974:3AQF3RZ559PQRJMHE5Y683H0LX36F5", "current_trial": 158, "dateTime": 1512941300165, "trialdata": {"rt": -1, "stimulus": "<p id=\"stim\">BRIEFCASE</p>", "key_press": -1, "type": "PRES_VIS", "word": "briefcase", "wordID": 174, "conditions": [12, 1600, "v", 24000], "trial": 4, "serialpos": 1, "trial_type": "single-stim", "trial_index": 158, "time_elapsed": 821165, "internal_node_id": "0.0-113.0"}}, {"uniqueid": "MTK0974:3AQF3RZ559PQRJMHE5Y683H0LX36F5", "current_trial": 159, "dateTime": 1512941302853, "trialdata": {"rt": -1, "stimulus": "<p id=\"stim\">OUTLAW</p>", "key_press": -1, "type": "PRES_VIS", "word": "outlaw", "wordID": 988, "conditions": [12, 1600, "v", 24000], "trial": 4, "serialpos": 2, "trial_type": "single-stim", "trial_index": 159, "time_elapsed": 823853, "internal_node_id": "0.0-114.0"}}, {"uniqueid": "MTK0974:3AQF3RZ559PQRJMHE5Y683H0LX36F5", "current_trial": 160, "dateTime": 1512941305437, "trialdata": {"rt": -1, "stimulus": "<p id=\"stim\">KEEPER</p>", "key_press": -1, "type": "PRES_VIS", "word": "keeper", "wordID": 768, "conditions": [12, 1600, "v", 24000], "trial": 4, "serialpos": 3, "trial_type": "single-stim", "trial_index": 160, "time_elapsed": 826437, "internal_node_id": "0.0-115.0"}}, {"uniqueid": "MTK0974:3AQF3RZ559PQRJMHE5Y683H0LX36F5", "current_trial": 161, "dateTime": 1512941308195, "trialdata": {"rt": -1, "stimulus": "<p id=\"stim\">LONDON</p>", "key_press": -1, "type": "PRES_VIS", "word": "london", "wordID": 842, "conditions": [12, 1600, "v", 24000], "trial": 4, "serialpos": 4, "trial_type": "single-stim", "trial_index": 161, "time_elapsed": 829195, "internal_node_id": "0.0-116.0"}}, {"uniqueid": "MTK0974:3AQF3RZ559PQRJMHE5Y683H0LX36F5", "current_trial": 162, "dateTime": 1512941310675, "trialdata": {"rt": -1, "stimulus": "<p id=\"stim\">HANDBAG</p>", "key_press": -1, "type": "PRES_VIS", "word": "handbag", "wordID": 683, "conditions": [12, 1600, "v", 24000], "trial": 4, "serialpos": 5, "trial_type": "single-stim", "trial_index": 162, "time_elapsed": 831640, "internal_node_id": "0.0-117.0"}}, {"uniqueid": "MTK0974:3AQF3RZ559PQRJMHE5Y683H0LX36F5", "current_trial": 163, "dateTime": 1512941313175, "trialdata": {"rt": -1, "stimulus": "<p id=\"stim\">HIGHWAY</p>", "key_press": -1, "type": "PRES_VIS", "word": "highway", "wordID": 706, "conditions": [12, 1600, "v", 24000], "trial": 4, "serialpos": 6, "trial_type": "single-stim", "trial_index": 163, "time_elapsed": 834175, "internal_node_id": "0.0-118.0"}}, {"uniqueid": "MTK0974:3AQF3RZ559PQRJMHE5Y683H0LX36F5", "current_trial": 164, "dateTime": 1512941315723, "trialdata": {"rt": -1, "stimulus": "<p id=\"stim\">PASSAGE</p>", "key_press": -1, "type": "PRES_VIS", "word": "passage", "wordID": 1018, "conditions": [12, 1600, "v", 24000], "trial": 4, "serialpos": 7, "trial_type": "single-stim", "trial_index": 164, "time_elapsed": 836723, "internal_node_id": "0.0-119.0"}}, {"uniqueid": "MTK0974:3AQF3RZ559PQRJMHE5Y683H0LX36F5", "current_trial": 165, "dateTime": 1512941318396, "trialdata": {"rt": -1, "stimulus": "<p id=\"stim\">DASHBOARD</p>", "key_press": -1, "type": "PRES_VIS", "word": "dashboard", "wordID": 440, "conditions": [12, 1600, "v", 24000], "trial": 4, "serialpos": 8, "trial_type": "single-stim", "trial_index": 165, "time_elapsed": 839396, "internal_node_id": "0.0-120.0"}}, {"uniqueid": "MTK0974:3AQF3RZ559PQRJMHE5Y683H0LX36F5", "current_trial": 166, "dateTime": 1512941321194, "trialdata": {"rt": -1, "stimulus": "<p id=\"stim\">GHETTO</p>", "key_press": -1, "type": "PRES_VIS", "word": "ghetto", "wordID": 632, "conditions": [12, 1600, "v", 24000], "trial": 4, "serialpos": 9, "trial_type": "single-stim", "trial_index": 166, "time_elapsed": 842194, "internal_node_id": "0.0-121.0"}}, {"uniqueid": "MTK0974:3AQF3RZ559PQRJMHE5Y683H0LX36F5", "current_trial": 167, "dateTime": 1512941323856, "trialdata": {"rt": -1, "stimulus": "<p id=\"stim\">SIDEWALK</p>", "key_press": -1, "type": "PRES_VIS", "word": "sidewalk", "wordID": 1302, "conditions": [12, 1600, "v", 24000], "trial": 4, "serialpos": 10, "trial_type": "single-stim", "trial_index": 167, "time_elapsed": 844855, "internal_node_id": "0.0-122.0"}}, {"uniqueid": "MTK0974:3AQF3RZ559PQRJMHE5Y683H0LX36F5", "current_trial": 168, "dateTime": 1512941326452, "trialdata": {"rt": -1, "stimulus": "<p id=\"stim\">PLAZA</p>", "key_press": -1, "type": "PRES_VIS", "word": "plaza", "wordID": 1087, "conditions": [12, 1600, "v", 24000], "trial": 4, "serialpos": 11, "trial_type": "single-stim", "trial_index": 168, "time_elapsed": 847452, "internal_node_id": "0.0-123.0"}}, {"uniqueid": "MTK0974:3AQF3RZ559PQRJMHE5Y683H0LX36F5", "current_trial": 169, "dateTime": 1512941329001, "trialdata": {"rt": -1, "stimulus": "", "key_press": -1, "type": "PRE_RECALL_DELAY", "trial_type": "single-stim", "trial_index": 169, "time_elapsed": 850001, "internal_node_id": "0.0-124.0-0.0"}}, {"uniqueid": "MTK0974:3AQF3RZ559PQRJMHE5Y683H0LX36F5", "current_trial": 170, "dateTime": 1512941329503, "trialdata": {"rt": -1000, "stimulus": "/static/audio/400Hz.wav", "key_press": -1, "type": "PRE_RECALL_ALERT", "trial_type": "single-audio", "trial_index": 170, "time_elapsed": 850503, "internal_node_id": "0.0-125.0"}}, {"uniqueid": "MTK0974:3AQF3RZ559PQRJMHE5Y683H0LX36F5", "current_trial": 171, "dateTime": 1512941389513, "trialdata": {"rt": [5828, 9063, 11751, 24712], "recwords": ["outlaw", "ghetto", "london", "passage"], "type": "FREE_RECALL", "conditions": [12, 1600, "v", 24000], "trial": 4, "trial_type": "free-recall", "trial_index": 171, "time_elapsed": 910506, "internal_node_id": "0.0-126.0-0.0"}}, {"uniqueid": "MTK0974:3AQF3RZ559PQRJMHE5Y683H0LX36F5", "current_trial": 172, "dateTime": 1512941394121, "trialdata": {"rt": 2607, "key_press": 32, "type": "INSTRUCTIONS", "trial_type": "text", "trial_index": 172, "time_elapsed": 915121, "internal_node_id": "0.0-127.0"}}, {"uniqueid": "MTK0974:3AQF3RZ559PQRJMHE5Y683H0LX36F5", "current_trial": 173, "dateTime": 1512941408124, "trialdata": {"rt": [4276, 8157], "responses": ["19", "20"], "num1": [9, 7, 6], "num2": [4, 6, 6], "num3": [6, 7, 6], "type": "DISTRACTOR", "conditions": [12, 800, "v", 12000], "trial": 5, "trial_type": "math-distractor", "trial_index": 173, "time_elapsed": 929124, "internal_node_id": "0.0-128.0"}}, {"uniqueid": "MTK0974:3AQF3RZ559PQRJMHE5Y683H0LX36F5", "current_trial": 174, "dateTime": 1512941411126, "trialdata": {"rt": -1, "stimulus": "<p id=\"stim\">10</p>", "key_press": -1, "trial_type": "single-stim", "trial_index": 174, "time_elapsed": 932125, "internal_node_id": "0.0-129.0-0.0"}}, {"uniqueid": "MTK0974:3AQF3RZ559PQRJMHE5Y683H0LX36F5", "current_trial": 175, "dateTime": 1512941412128, "trialdata": {"rt": -1, "stimulus": "<p id=\"stim\">9</p>", "key_press": -1, "trial_type": "single-stim", "trial_index": 175, "time_elapsed": 933128, "internal_node_id": "0.0-129.0-1.0"}}, {"uniqueid": "MTK0974:3AQF3RZ559PQRJMHE5Y683H0LX36F5", "current_trial": 176, "dateTime": 1512941413130, "trialdata": {"rt": -1, "stimulus": "<p id=\"stim\">8</p>", "key_press": -1, "trial_type": "single-stim", "trial_index": 176, "time_elapsed": 934129, "internal_node_id": "0.0-129.0-2.0"}}, {"uniqueid": "MTK0974:3AQF3RZ559PQRJMHE5Y683H0LX36F5", "current_trial": 177, "dateTime": 1512941414131, "trialdata": {"rt": -1, "stimulus": "<p id=\"stim\">7</p>", "key_press": -1, "trial_type": "single-stim", "trial_index": 177, "time_elapsed": 935131, "internal_node_id": "0.0-129.0-3.0"}}, {"uniqueid": "MTK0974:3AQF3RZ559PQRJMHE5Y683H0LX36F5", "current_trial": 178, "dateTime": 1512941415134, "trialdata": {"rt": -1, "stimulus": "<p id=\"stim\">6</p>", "key_press": -1, "trial_type": "single-stim", "trial_index": 178, "time_elapsed": 936133, "internal_node_id": "0.0-129.0-4.0"}}, {"uniqueid": "MTK0974:3AQF3RZ559PQRJMHE5Y683H0LX36F5", "current_trial": 179, "dateTime": 1512941416157, "trialdata": {"rt": -1, "stimulus": "<p id=\"stim\">5</p>", "key_press": -1, "trial_type": "single-stim", "trial_index": 179, "time_elapsed": 937157, "internal_node_id": "0.0-129.0-5.0"}}, {"uniqueid": "MTK0974:3AQF3RZ559PQRJMHE5Y683H0LX36F5", "current_trial": 180, "dateTime": 1512941417158, "trialdata": {"rt": -1, "stimulus": "<p id=\"stim\">4</p>", "key_press": -1, "trial_type": "single-stim", "trial_index": 180, "time_elapsed": 938158, "internal_node_id": "0.0-129.0-6.0"}}, {"uniqueid": "MTK0974:3AQF3RZ559PQRJMHE5Y683H0LX36F5", "current_trial": 181, "dateTime": 1512941418161, "trialdata": {"rt": -1, "stimulus": "<p id=\"stim\">3</p>", "key_press": -1, "trial_type": "single-stim", "trial_index": 181, "time_elapsed": 939161, "internal_node_id": "0.0-129.0-7.0"}}, {"uniqueid": "MTK0974:3AQF3RZ559PQRJMHE5Y683H0LX36F5", "current_trial": 182, "dateTime": 1512941419187, "trialdata": {"rt": -1, "stimulus": "<p id=\"stim\">2</p>", "key_press": -1, "trial_type": "single-stim", "trial_index": 182, "time_elapsed": 940186, "internal_node_id": "0.0-129.0-8.0"}}, {"uniqueid": "MTK0974:3AQF3RZ559PQRJMHE5Y683H0LX36F5", "current_trial": 183, "dateTime": 1512941420190, "trialdata": {"rt": -1, "stimulus": "<p id=\"stim\">1</p>", "key_press": -1, "trial_type": "single-stim", "trial_index": 183, "time_elapsed": 941188, "internal_node_id": "0.0-129.0-9.0"}}, {"uniqueid": "MTK0974:3AQF3RZ559PQRJMHE5Y683H0LX36F5", "current_trial": 184, "dateTime": 1512941421691, "trialdata": {"rt": -1, "stimulus": "<p id=\"stim\">+</p>", "key_press": -1, "type": "FIXATION", "trial_type": "single-stim", "trial_index": 184, "time_elapsed": 942691, "internal_node_id": "0.0-130.0-0.0"}}, {"uniqueid": "MTK0974:3AQF3RZ559PQRJMHE5Y683H0LX36F5", "current_trial": 185, "dateTime": 1512941422494, "trialdata": {"rt": -1, "stimulus": "<p id=\"stim\">SLIME</p>", "key_press": -1, "type": "PRES_VIS", "word": "slime", "wordID": 1326, "conditions": [12, 800, "v", 12000], "trial": 5, "serialpos": 0, "trial_type": "single-stim", "trial_index": 185, "time_elapsed": 943494, "internal_node_id": "0.0-131.0"}}, {"uniqueid": "MTK0974:3AQF3RZ559PQRJMHE5Y683H0LX36F5", "current_trial": 186, "dateTime": 1512941424144, "trialdata": {"rt": -1, "stimulus": "<p id=\"stim\">THIEF</p>", "key_press": -1, "type": "PRES_VIS", "word": "thief", "wordID": 1455, "conditions": [12, 800, "v", 12000], "trial": 5, "serialpos": 1, "trial_type": "single-stim", "trial_index": 186, "time_elapsed": 945143, "internal_node_id": "0.0-132.0"}}, {"uniqueid": "MTK0974:3AQF3RZ559PQRJMHE5Y683H0LX36F5", "current_trial": 187, "dateTime": 1512941425749, "trialdata": {"rt": -1, "stimulus": "<p id=\"stim\">PORK</p>", "key_press": -1, "type": "PRES_VIS", "word": "pork", "wordID": 1107, "conditions": [12, 800, "v", 12000], "trial": 5, "serialpos": 2, "trial_type": "single-stim", "trial_index": 187, "time_elapsed": 946749, "internal_node_id": "0.0-133.0"}}, {"uniqueid": "MTK0974:3AQF3RZ559PQRJMHE5Y683H0LX36F5", "current_trial": 188, "dateTime": 1512941427407, "trialdata": {"rt": -1, "stimulus": "<p id=\"stim\">SAUSAGE</p>", "key_press": -1, "type": "PRES_VIS", "word": "sausage", "wordID": 1237, "conditions": [12, 800, "v", 12000], "trial": 5, "serialpos": 3, "trial_type": "single-stim", "trial_index": 188, "time_elapsed": 948403, "internal_node_id": "0.0-134.0"}}, {"uniqueid": "MTK0974:3AQF3RZ559PQRJMHE5Y683H0LX36F5", "current_trial": 189, "dateTime": 1512941429029, "trialdata": {"rt": -1, "stimulus": "<p id=\"stim\">PASTRY</p>", "key_press": -1, "type": "PRES_VIS", "word": "pastry", "wordID": 1021, "conditions": [12, 800, "v", 12000], "trial": 5, "serialpos": 4, "trial_type": "single-stim", "trial_index": 189, "time_elapsed": 950029, "internal_node_id": "0.0-135.0"}}, {"uniqueid": "MTK0974:3AQF3RZ559PQRJMHE5Y683H0LX36F5", "current_trial": 190, "dateTime": 1512941430812, "trialdata": {"rt": -1, "stimulus": "<p id=\"stim\">CAFE</p>", "key_press": -1, "type": "PRES_VIS", "word": "cafe", "wordID": 215, "conditions": [12, 800, "v", 12000], "trial": 5, "serialpos": 5, "trial_type": "single-stim", "trial_index": 190, "time_elapsed": 951812, "internal_node_id": "0.0-136.0"}}, {"uniqueid": "MTK0974:3AQF3RZ559PQRJMHE5Y683H0LX36F5", "current_trial": 191, "dateTime": 1512941432619, "trialdata": {"rt": -1, "stimulus": "<p id=\"stim\">MILDEW</p>", "key_press": -1, "type": "PRES_VIS", "word": "mildew", "wordID": 892, "conditions": [12, 800, "v", 12000], "trial": 5, "serialpos": 6, "trial_type": "single-stim", "trial_index": 191, "time_elapsed": 953618, "internal_node_id": "0.0-137.0"}}, {"uniqueid": "MTK0974:3AQF3RZ559PQRJMHE5Y683H0LX36F5", "current_trial": 192, "dateTime": 1512941434498, "trialdata": {"rt": -1, "stimulus": "<p id=\"stim\">MAILMAN</p>", "key_press": -1, "type": "PRES_VIS", "word": "mailman", "wordID": 857, "conditions": [12, 800, "v", 12000], "trial": 5, "serialpos": 7, "trial_type": "single-stim", "trial_index": 192, "time_elapsed": 955498, "internal_node_id": "0.0-138.0"}}, {"uniqueid": "MTK0974:3AQF3RZ559PQRJMHE5Y683H0LX36F5", "current_trial": 193, "dateTime": 1512941436330, "trialdata": {"rt": -1, "stimulus": "<p id=\"stim\">CITRUS</p>", "key_press": -1, "type": "PRES_VIS", "word": "citrus", "wordID": 312, "conditions": [12, 800, "v", 12000], "trial": 5, "serialpos": 8, "trial_type": "single-stim", "trial_index": 193, "time_elapsed": 957330, "internal_node_id": "0.0-139.0"}}, {"uniqueid": "MTK0974:3AQF3RZ559PQRJMHE5Y683H0LX36F5", "current_trial": 194, "dateTime": 1512941438277, "trialdata": {"rt": -1, "stimulus": "<p id=\"stim\">BACON</p>", "key_press": -1, "type": "PRES_VIS", "word": "bacon", "wordID": 66, "conditions": [12, 800, "v", 12000], "trial": 5, "serialpos": 9, "trial_type": "single-stim", "trial_index": 194, "time_elapsed": 959277, "internal_node_id": "0.0-140.0"}}, {"uniqueid": "MTK0974:3AQF3RZ559PQRJMHE5Y683H0LX36F5", "current_trial": 195, "dateTime": 1512941440210, "trialdata": {"rt": -1, "stimulus": "<p id=\"stim\">INMATE</p>", "key_press": -1, "type": "PRES_VIS", "word": "inmate", "wordID": 737, "conditions": [12, 800, "v", 12000], "trial": 5, "serialpos": 10, "trial_type": "single-stim", "trial_index": 195, "time_elapsed": 961210, "internal_node_id": "0.0-141.0"}}, {"uniqueid": "MTK0974:3AQF3RZ559PQRJMHE5Y683H0LX36F5", "current_trial": 196, "dateTime": 1512941442146, "trialdata": {"rt": -1, "stimulus": "<p id=\"stim\">MAILBOX</p>", "key_press": -1, "type": "PRES_VIS", "word": "mailbox", "wordID": 856, "conditions": [12, 800, "v", 12000], "trial": 5, "serialpos": 11, "trial_type": "single-stim", "trial_index": 196, "time_elapsed": 963146, "internal_node_id": "0.0-142.0"}}, {"uniqueid": "MTK0974:3AQF3RZ559PQRJMHE5Y683H0LX36F5", "current_trial": 197, "dateTime": 1512941444593, "trialdata": {"rt": -1, "stimulus": "", "key_press": -1, "type": "PRE_RECALL_DELAY", "trial_type": "single-stim", "trial_index": 197, "time_elapsed": 965593, "internal_node_id": "0.0-143.0-0.0"}}, {"uniqueid": "MTK0974:3AQF3RZ559PQRJMHE5Y683H0LX36F5", "current_trial": 198, "dateTime": 1512941445095, "trialdata": {"rt": -1000, "stimulus": "/static/audio/400Hz.wav", "key_press": -1, "type": "PRE_RECALL_ALERT", "trial_type": "single-audio", "trial_index": 198, "time_elapsed": 966094, "internal_node_id": "0.0-144.0"}}, {"uniqueid": "MTK0974:3AQF3RZ559PQRJMHE5Y683H0LX36F5", "current_trial": 199, "dateTime": 1512941505109, "trialdata": {"rt": [4735, 6543, 13231, 18879], "recwords": ["mailbox", "pork", "slime", "mildew"], "type": "FREE_RECALL", "conditions": [12, 800, "v", 12000], "trial": 5, "trial_type": "free-recall", "trial_index": 199, "time_elapsed": 1026099, "internal_node_id": "0.0-145.0-0.0"}}, {"uniqueid": "MTK0974:3AQF3RZ559PQRJMHE5Y683H0LX36F5", "current_trial": 200, "dateTime": 1512941510970, "trialdata": {"rt": 3859, "key_press": 32, "type": "INSTRUCTIONS", "trial_type": "text", "trial_index": 200, "time_elapsed": 1031969, "internal_node_id": "0.0-146.0"}}, {"uniqueid": "MTK0974:3AQF3RZ559PQRJMHE5Y683H0LX36F5", "current_trial": 201, "dateTime": 1512941524976, "trialdata": {"rt": [3724, 7532, 10028], "responses": ["14", "14", "11"], "num1": [1, 1, 5, 2], "num2": [5, 7, 4, 1], "num3": [8, 6, 2, 8], "type": "DISTRACTOR", "conditions": [24, 800, "a", 12000], "trial": 6, "trial_type": "math-distractor", "trial_index": 201, "time_elapsed": 1045975, "internal_node_id": "0.0-147.0"}}, {"uniqueid": "MTK0974:3AQF3RZ559PQRJMHE5Y683H0LX36F5", "current_trial": 202, "dateTime": 1512941527977, "trialdata": {"rt": -1, "stimulus": "<p id=\"stim\">10</p>", "key_press": -1, "trial_type": "single-stim", "trial_index": 202, "time_elapsed": 1048977, "internal_node_id": "0.0-148.0-0.0"}}, {"uniqueid": "MTK0974:3AQF3RZ559PQRJMHE5Y683H0LX36F5", "current_trial": 203, "dateTime": 1512941528980, "trialdata": {"rt": -1, "stimulus": "<p id=\"stim\">9</p>", "key_press": -1, "trial_type": "single-stim", "trial_index": 203, "time_elapsed": 1049979, "internal_node_id": "0.0-148.0-1.0"}}, {"uniqueid": "MTK0974:3AQF3RZ559PQRJMHE5Y683H0LX36F5", "current_trial": 204, "dateTime": 1512941529981, "trialdata": {"rt": -1, "stimulus": "<p id=\"stim\">8</p>", "key_press": -1, "trial_type": "single-stim", "trial_index": 204, "time_elapsed": 1050981, "internal_node_id": "0.0-148.0-2.0"}}, {"uniqueid": "MTK0974:3AQF3RZ559PQRJMHE5Y683H0LX36F5", "current_trial": 205, "dateTime": 1512941530985, "trialdata": {"rt": -1, "stimulus": "<p id=\"stim\">7</p>", "key_press": -1, "trial_type": "single-stim", "trial_index": 205, "time_elapsed": 1051984, "internal_node_id": "0.0-148.0-3.0"}}, {"uniqueid": "MTK0974:3AQF3RZ559PQRJMHE5Y683H0LX36F5", "current_trial": 206, "dateTime": 1512941531986, "trialdata": {"rt": -1, "stimulus": "<p id=\"stim\">6</p>", "key_press": -1, "trial_type": "single-stim", "trial_index": 206, "time_elapsed": 1052986, "internal_node_id": "0.0-148.0-4.0"}}, {"uniqueid": "MTK0974:3AQF3RZ559PQRJMHE5Y683H0LX36F5", "current_trial": 207, "dateTime": 1512941532987, "trialdata": {"rt": -1, "stimulus": "<p id=\"stim\">5</p>", "key_press": -1, "trial_type": "single-stim", "trial_index": 207, "time_elapsed": 1053987, "internal_node_id": "0.0-148.0-5.0"}}, {"uniqueid": "MTK0974:3AQF3RZ559PQRJMHE5Y683H0LX36F5", "current_trial": 208, "dateTime": 1512941533990, "trialdata": {"rt": -1, "stimulus": "<p id=\"stim\">4</p>", "key_press": -1, "trial_type": "single-stim", "trial_index": 208, "time_elapsed": 1054990, "internal_node_id": "0.0-148.0-6.0"}}, {"uniqueid": "MTK0974:3AQF3RZ559PQRJMHE5Y683H0LX36F5", "current_trial": 209, "dateTime": 1512941534991, "trialdata": {"rt": -1, "stimulus": "<p id=\"stim\">3</p>", "key_press": -1, "trial_type": "single-stim", "trial_index": 209, "time_elapsed": 1055991, "internal_node_id": "0.0-148.0-7.0"}}, {"uniqueid": "MTK0974:3AQF3RZ559PQRJMHE5Y683H0LX36F5", "current_trial": 210, "dateTime": 1512941535992, "trialdata": {"rt": -1, "stimulus": "<p id=\"stim\">2</p>", "key_press": -1, "trial_type": "single-stim", "trial_index": 210, "time_elapsed": 1056992, "internal_node_id": "0.0-148.0-8.0"}}, {"uniqueid": "MTK0974:3AQF3RZ559PQRJMHE5Y683H0LX36F5", "current_trial": 211, "dateTime": 1512941536993, "trialdata": {"rt": -1, "stimulus": "<p id=\"stim\">1</p>", "key_press": -1, "trial_type": "single-stim", "trial_index": 211, "time_elapsed": 1057993, "internal_node_id": "0.0-148.0-9.0"}}, {"uniqueid": "MTK0974:3AQF3RZ559PQRJMHE5Y683H0LX36F5", "current_trial": 212, "dateTime": 1512941538494, "trialdata": {"rt": -1, "stimulus": "<p id=\"stim\">+</p>", "key_press": -1, "type": "FIXATION", "trial_type": "single-stim", "trial_index": 212, "time_elapsed": 1059494, "internal_node_id": "0.0-149.0-0.0"}}, {"uniqueid": "MTK0974:3AQF3RZ559PQRJMHE5Y683H0LX36F5", "current_trial": 213, "dateTime": 1512941540139, "trialdata": {"rt": -1000, "stimulus": "/static/audio/wordpool/FRANCE.wav", "key_press": -1, "type": "PRES_AUD", "word": "france", "wordID": 600, "conditions": [24, 800, "a", 12000], "trial": 6, "serialpos": 0, "trial_type": "single-audio", "trial_index": 213, "time_elapsed": 1061137, "internal_node_id": "0.0-150.0"}}, {"uniqueid": "MTK0974:3AQF3RZ559PQRJMHE5Y683H0LX36F5", "current_trial": 214, "dateTime": 1512941541810, "trialdata": {"rt": -1000, "stimulus": "/static/audio/wordpool/DANDRUFF.wav", "key_press": -1, "type": "PRES_AUD", "word": "dandruff", "wordID": 438, "conditions": [24, 800, "a", 12000], "trial": 6, "serialpos": 1, "trial_type": "single-audio", "trial_index": 214, "time_elapsed": 1062809, "internal_node_id": "0.0-151.0"}}, {"uniqueid": "MTK0974:3AQF3RZ559PQRJMHE5Y683H0LX36F5", "current_trial": 215, "dateTime": 1512941543507, "trialdata": {"rt": -1000, "stimulus": "/static/audio/wordpool/COBRA.wav", "key_press": -1, "type": "PRES_AUD", "word": "cobra", "wordID": 335, "conditions": [24, 800, "a", 12000], "trial": 6, "serialpos": 2, "trial_type": "single-audio", "trial_index": 215, "time_elapsed": 1064507, "internal_node_id": "0.0-152.0"}}, {"uniqueid": "MTK0974:3AQF3RZ559PQRJMHE5Y683H0LX36F5", "current_trial": 216, "dateTime": 1512941545319, "trialdata": {"rt": -1000, "stimulus": "/static/audio/wordpool/SNACK.wav", "key_press": -1, "type": "PRES_AUD", "word": "snack", "wordID": 1330, "conditions": [24, 800, "a", 12000], "trial": 6, "serialpos": 3, "trial_type": "single-audio", "trial_index": 216, "time_elapsed": 1066319, "internal_node_id": "0.0-153.0"}}, {"uniqueid": "MTK0974:3AQF3RZ559PQRJMHE5Y683H0LX36F5", "current_trial": 217, "dateTime": 1512941546956, "trialdata": {"rt": -1000, "stimulus": "/static/audio/wordpool/VIRUS.wav", "key_press": -1, "type": "PRES_AUD", "word": "virus", "wordID": 1571, "conditions": [24, 800, "a", 12000], "trial": 6, "serialpos": 4, "trial_type": "single-audio", "trial_index": 217, "time_elapsed": 1067955, "internal_node_id": "0.0-154.0"}}, {"uniqueid": "MTK0974:3AQF3RZ559PQRJMHE5Y683H0LX36F5", "current_trial": 218, "dateTime": 1512941548940, "trialdata": {"rt": -1000, "stimulus": "/static/audio/wordpool/APPLE.wav", "key_press": -1, "type": "PRES_AUD", "word": "apple", "wordID": 32, "conditions": [24, 800, "a", 12000], "trial": 6, "serialpos": 5, "trial_type": "single-audio", "trial_index": 218, "time_elapsed": 1069940, "internal_node_id": "0.0-155.0"}}, {"uniqueid": "MTK0974:3AQF3RZ559PQRJMHE5Y683H0LX36F5", "current_trial": 219, "dateTime": 1512941550617, "trialdata": {"rt": -1000, "stimulus": "/static/audio/wordpool/SMOG.wav", "key_press": -1, "type": "PRES_AUD", "word": "smog", "wordID": 1329, "conditions": [24, 800, "a", 12000], "trial": 6, "serialpos": 6, "trial_type": "single-audio", "trial_index": 219, "time_elapsed": 1071617, "internal_node_id": "0.0-156.0"}}, {"uniqueid": "MTK0974:3AQF3RZ559PQRJMHE5Y683H0LX36F5", "current_trial": 220, "dateTime": 1512941552537, "trialdata": {"rt": -1000, "stimulus": "/static/audio/wordpool/SUBWAY.wav", "key_press": -1, "type": "PRES_AUD", "word": "subway", "wordID": 1399, "conditions": [24, 800, "a", 12000], "trial": 6, "serialpos": 7, "trial_type": "single-audio", "trial_index": 220, "time_elapsed": 1073537, "internal_node_id": "0.0-157.0"}}, {"uniqueid": "MTK0974:3AQF3RZ559PQRJMHE5Y683H0LX36F5", "current_trial": 221, "dateTime": 1512941554568, "trialdata": {"rt": -1000, "stimulus": "/static/audio/wordpool/EGYPT.wav", "key_press": -1, "type": "PRES_AUD", "word": "egypt", "wordID": 518, "conditions": [24, 800, "a", 12000], "trial": 6, "serialpos": 8, "trial_type": "single-audio", "trial_index": 221, "time_elapsed": 1075568, "internal_node_id": "0.0-158.0"}}, {"uniqueid": "MTK0974:3AQF3RZ559PQRJMHE5Y683H0LX36F5", "current_trial": 222, "dateTime": 1512941556651, "trialdata": {"rt": -1000, "stimulus": "/static/audio/wordpool/JAPAN.wav", "key_press": -1, "type": "PRES_AUD", "word": "japan", "wordID": 748, "conditions": [24, 800, "a", 12000], "trial": 6, "serialpos": 9, "trial_type": "single-audio", "trial_index": 222, "time_elapsed": 1077651, "internal_node_id": "0.0-159.0"}}, {"uniqueid": "MTK0974:3AQF3RZ559PQRJMHE5Y683H0LX36F5", "current_trial": 223, "dateTime": 1512941558490, "trialdata": {"rt": -1000, "stimulus": "/static/audio/wordpool/LAGOON.wav", "key_press": -1, "type": "PRES_AUD", "word": "lagoon", "wordID": 794, "conditions": [24, 800, "a", 12000], "trial": 6, "serialpos": 10, "trial_type": "single-audio", "trial_index": 223, "time_elapsed": 1079489, "internal_node_id": "0.0-160.0"}}, {"uniqueid": "MTK0974:3AQF3RZ559PQRJMHE5Y683H0LX36F5", "current_trial": 224, "dateTime": 1512941560432, "trialdata": {"rt": -1000, "stimulus": "/static/audio/wordpool/RIVER.wav", "key_press": -1, "type": "PRES_AUD", "word": "river", "wordID": 1193, "conditions": [24, 800, "a", 12000], "trial": 6, "serialpos": 11, "trial_type": "single-audio", "trial_index": 224, "time_elapsed": 1081432, "internal_node_id": "0.0-161.0"}}, {"uniqueid": "MTK0974:3AQF3RZ559PQRJMHE5Y683H0LX36F5", "current_trial": 225, "dateTime": 1512941562244, "trialdata": {"rt": -1000, "stimulus": "/static/audio/wordpool/LAMP.wav", "key_press": -1, "type": "PRES_AUD", "word": "lamp", "wordID": 797, "conditions": [24, 800, "a", 12000], "trial": 6, "serialpos": 12, "trial_type": "single-audio", "trial_index": 225, "time_elapsed": 1083243, "internal_node_id": "0.0-162.0"}}, {"uniqueid": "MTK0974:3AQF3RZ559PQRJMHE5Y683H0LX36F5", "current_trial": 226, "dateTime": 1512941564206, "trialdata": {"rt": -1000, "stimulus": "/static/audio/wordpool/GARDEN.wav", "key_press": -1, "type": "PRES_AUD", "word": "garden", "wordID": 622, "conditions": [24, 800, "a", 12000], "trial": 6, "serialpos": 13, "trial_type": "single-audio", "trial_index": 226, "time_elapsed": 1085205, "internal_node_id": "0.0-163.0"}}, {"uniqueid": "MTK0974:3AQF3RZ559PQRJMHE5Y683H0LX36F5", "current_trial": 227, "dateTime": 1512941566115, "trialdata": {"rt": -1000, "stimulus": "/static/audio/wordpool/CLAM.wav", "key_press": -1, "type": "PRES_AUD", "word": "clam", "wordID": 314, "conditions": [24, 800, "a", 12000], "trial": 6, "serialpos": 14, "trial_type": "single-audio", "trial_index": 227, "time_elapsed": 1087115, "internal_node_id": "0.0-164.0"}}, {"uniqueid": "MTK0974:3AQF3RZ559PQRJMHE5Y683H0LX36F5", "current_trial": 228, "dateTime": 1512941568095, "trialdata": {"rt": -1000, "stimulus": "/static/audio/wordpool/MAMMAL.wav", "key_press": -1, "type": "PRES_AUD", "word": "mammal", "wordID": 860, "conditions": [24, 800, "a", 12000], "trial": 6, "serialpos": 15, "trial_type": "single-audio", "trial_index": 228, "time_elapsed": 1089094, "internal_node_id": "0.0-165.0"}}, {"uniqueid": "MTK0974:3AQF3RZ559PQRJMHE5Y683H0LX36F5", "current_trial": 229, "dateTime": 1512941569748, "trialdata": {"rt": -1000, "stimulus": "/static/audio/wordpool/TUBA.wav", "key_press": -1, "type": "PRES_AUD", "word": "tuba", "wordID": 1514, "conditions": [24, 800, "a", 12000], "trial": 6, "serialpos": 16, "trial_type": "single-audio", "trial_index": 229, "time_elapsed": 1090747, "internal_node_id": "0.0-166.0"}}, {"uniqueid": "MTK0974:3AQF3RZ559PQRJMHE5Y683H0LX36F5", "current_trial": 230, "dateTime": 1512941571695, "trialdata": {"rt": -1000, "stimulus": "/static/audio/wordpool/STUDENT.wav", "key_press": -1, "type": "PRES_AUD", "word": "student", "wordID": 1394, "conditions": [24, 800, "a", 12000], "trial": 6, "serialpos": 17, "trial_type": "single-audio", "trial_index": 230, "time_elapsed": 1092694, "internal_node_id": "0.0-167.0"}}, {"uniqueid": "MTK0974:3AQF3RZ559PQRJMHE5Y683H0LX36F5", "current_trial": 231, "dateTime": 1512941573680, "trialdata": {"rt": -1000, "stimulus": "/static/audio/wordpool/DOLPHIN.wav", "key_press": -1, "type": "PRES_AUD", "word": "dolphin", "wordID": 482, "conditions": [24, 800, "a", 12000], "trial": 6, "serialpos": 18, "trial_type": "single-audio", "trial_index": 231, "time_elapsed": 1094679, "internal_node_id": "0.0-168.0"}}, {"uniqueid": "MTK0974:3AQF3RZ559PQRJMHE5Y683H0LX36F5", "current_trial": 232, "dateTime": 1512941575617, "trialdata": {"rt": -1000, "stimulus": "/static/audio/wordpool/SEAGULL.wav", "key_press": -1, "type": "PRES_AUD", "word": "seagull", "wordID": 1260, "conditions": [24, 800, "a", 12000], "trial": 6, "serialpos": 19, "trial_type": "single-audio", "trial_index": 232, "time_elapsed": 1096617, "internal_node_id": "0.0-169.0"}}, {"uniqueid": "MTK0974:3AQF3RZ559PQRJMHE5Y683H0LX36F5", "current_trial": 233, "dateTime": 1512941577382, "trialdata": {"rt": -1000, "stimulus": "/static/audio/wordpool/BROOK.wav", "key_press": -1, "type": "PRES_AUD", "word": "brook", "wordID": 176, "conditions": [24, 800, "a", 12000], "trial": 6, "serialpos": 20, "trial_type": "single-audio", "trial_index": 233, "time_elapsed": 1098382, "internal_node_id": "0.0-170.0"}}, {"uniqueid": "MTK0974:3AQF3RZ559PQRJMHE5Y683H0LX36F5", "current_trial": 234, "dateTime": 1512941579325, "trialdata": {"rt": -1000, "stimulus": "/static/audio/wordpool/LADY.wav", "key_press": -1, "type": "PRES_AUD", "word": "lady", "wordID": 793, "conditions": [24, 800, "a", 12000], "trial": 6, "serialpos": 21, "trial_type": "single-audio", "trial_index": 234, "time_elapsed": 1100324, "internal_node_id": "0.0-171.0"}}, {"uniqueid": "MTK0974:3AQF3RZ559PQRJMHE5Y683H0LX36F5", "current_trial": 235, "dateTime": 1512941581314, "trialdata": {"rt": -1000, "stimulus": "/static/audio/wordpool/VALLEY.wav", "key_press": -1, "type": "PRES_AUD", "word": "valley", "wordID": 1544, "conditions": [24, 800, "a", 12000], "trial": 6, "serialpos": 22, "trial_type": "single-audio", "trial_index": 235, "time_elapsed": 1102314, "internal_node_id": "0.0-172.0"}}, {"uniqueid": "MTK0974:3AQF3RZ559PQRJMHE5Y683H0LX36F5", "current_trial": 236, "dateTime": 1512941583306, "trialdata": {"rt": -1000, "stimulus": "/static/audio/wordpool/CANYON.wav", "key_press": -1, "type": "PRES_AUD", "word": "canyon", "wordID": 234, "conditions": [24, 800, "a", 12000], "trial": 6, "serialpos": 23, "trial_type": "single-audio", "trial_index": 236, "time_elapsed": 1104306, "internal_node_id": "0.0-173.0"}}, {"uniqueid": "MTK0974:3AQF3RZ559PQRJMHE5Y683H0LX36F5", "current_trial": 237, "dateTime": 1512941584614, "trialdata": {"rt": -1, "stimulus": "", "key_press": -1, "type": "PRE_RECALL_DELAY", "trial_type": "single-stim", "trial_index": 237, "time_elapsed": 1105613, "internal_node_id": "0.0-174.0-0.0"}}, {"uniqueid": "MTK0974:3AQF3RZ559PQRJMHE5Y683H0LX36F5", "current_trial": 238, "dateTime": 1512941585116, "trialdata": {"rt": -1000, "stimulus": "/static/audio/400Hz.wav", "key_press": -1, "type": "PRE_RECALL_ALERT", "trial_type": "single-audio", "trial_index": 238, "time_elapsed": 1106115, "internal_node_id": "0.0-175.0"}}, {"uniqueid": "MTK0974:3AQF3RZ559PQRJMHE5Y683H0LX36F5", "current_trial": 239, "dateTime": 1512941645129, "trialdata": {"rt": [4442, 7242, 9978, 12154, 13626, 16346, 18122, 24042, 30074], "recwords": ["dandruff", "virus", "egypt", "dolphin", "lady", "japan", "virus", "canyon", "lake"], "type": "FREE_RECALL", "conditions": [24, 800, "a", 12000], "trial": 6, "trial_type": "free-recall", "trial_index": 239, "time_elapsed": 1166120, "internal_node_id": "0.0-176.0-0.0"}}, {"uniqueid": "MTK0974:3AQF3RZ559PQRJMHE5Y683H0LX36F5", "current_trial": 240, "dateTime": 1512941648106, "trialdata": {"rt": 972, "key_press": 32, "type": "INSTRUCTIONS", "trial_type": "text", "trial_index": 240, "time_elapsed": 1169106, "internal_node_id": "0.0-177.0"}}, {"uniqueid": "MTK0974:3AQF3RZ559PQRJMHE5Y683H0LX36F5", "current_trial": 241, "dateTime": 1512941674111, "trialdata": {"rt": [6715, 11547, 13883, 18379, 21595], "responses": ["20", "27", "8", "18", "15"], "num1": [6, 9, 2, 9, 4, 9], "num2": [8, 8, 1, 2, 9, 3], "num3": [6, 8, 5, 7, 2, 4], "type": "DISTRACTOR", "conditions": [24, 800, "v", 24000], "trial": 7, "trial_type": "math-distractor", "trial_index": 241, "time_elapsed": 1195111, "internal_node_id": "0.0-178.0"}}, {"uniqueid": "MTK0974:3AQF3RZ559PQRJMHE5Y683H0LX36F5", "current_trial": 242, "dateTime": 1512941677112, "trialdata": {"rt": -1, "stimulus": "<p id=\"stim\">10</p>", "key_press": -1, "trial_type": "single-stim", "trial_index": 242, "time_elapsed": 1198112, "internal_node_id": "0.0-179.0-0.0"}}, {"uniqueid": "MTK0974:3AQF3RZ559PQRJMHE5Y683H0LX36F5", "current_trial": 243, "dateTime": 1512941678114, "trialdata": {"rt": -1, "stimulus": "<p id=\"stim\">9</p>", "key_press": -1, "trial_type": "single-stim", "trial_index": 243, "time_elapsed": 1199114, "internal_node_id": "0.0-179.0-1.0"}}, {"uniqueid": "MTK0974:3AQF3RZ559PQRJMHE5Y683H0LX36F5", "current_trial": 244, "dateTime": 1512941679115, "trialdata": {"rt": -1, "stimulus": "<p id=\"stim\">8</p>", "key_press": -1, "trial_type": "single-stim", "trial_index": 244, "time_elapsed": 1200115, "internal_node_id": "0.0-179.0-2.0"}}, {"uniqueid": "MTK0974:3AQF3RZ559PQRJMHE5Y683H0LX36F5", "current_trial": 245, "dateTime": 1512941680116, "trialdata": {"rt": -1, "stimulus": "<p id=\"stim\">7</p>", "key_press": -1, "trial_type": "single-stim", "trial_index": 245, "time_elapsed": 1201116, "internal_node_id": "0.0-179.0-3.0"}}, {"uniqueid": "MTK0974:3AQF3RZ559PQRJMHE5Y683H0LX36F5", "current_trial": 246, "dateTime": 1512941681118, "trialdata": {"rt": -1, "stimulus": "<p id=\"stim\">6</p>", "key_press": -1, "trial_type": "single-stim", "trial_index": 246, "time_elapsed": 1202118, "internal_node_id": "0.0-179.0-4.0"}}, {"uniqueid": "MTK0974:3AQF3RZ559PQRJMHE5Y683H0LX36F5", "current_trial": 247, "dateTime": 1512941682119, "trialdata": {"rt": -1, "stimulus": "<p id=\"stim\">5</p>", "key_press": -1, "trial_type": "single-stim", "trial_index": 247, "time_elapsed": 1203119, "internal_node_id": "0.0-179.0-5.0"}}, {"uniqueid": "MTK0974:3AQF3RZ559PQRJMHE5Y683H0LX36F5", "current_trial": 248, "dateTime": 1512941683120, "trialdata": {"rt": -1, "stimulus": "<p id=\"stim\">4</p>", "key_press": -1, "trial_type": "single-stim", "trial_index": 248, "time_elapsed": 1204120, "internal_node_id": "0.0-179.0-6.0"}}, {"uniqueid": "MTK0974:3AQF3RZ559PQRJMHE5Y683H0LX36F5", "current_trial": 249, "dateTime": 1512941684121, "trialdata": {"rt": -1, "stimulus": "<p id=\"stim\">3</p>", "key_press": -1, "trial_type": "single-stim", "trial_index": 249, "time_elapsed": 1205121, "internal_node_id": "0.0-179.0-7.0"}}, {"uniqueid": "MTK0974:3AQF3RZ559PQRJMHE5Y683H0LX36F5", "current_trial": 250, "dateTime": 1512941685122, "trialdata": {"rt": -1, "stimulus": "<p id=\"stim\">2</p>", "key_press": -1, "trial_type": "single-stim", "trial_index": 250, "time_elapsed": 1206122, "internal_node_id": "0.0-179.0-8.0"}}, {"uniqueid": "MTK0974:3AQF3RZ559PQRJMHE5Y683H0LX36F5", "current_trial": 251, "dateTime": 1512941686123, "trialdata": {"rt": -1, "stimulus": "<p id=\"stim\">1</p>", "key_press": -1, "trial_type": "single-stim", "trial_index": 251, "time_elapsed": 1207123, "internal_node_id": "0.0-179.0-9.0"}}, {"uniqueid": "MTK0974:3AQF3RZ559PQRJMHE5Y683H0LX36F5", "current_trial": 252, "dateTime": 1512941687654, "trialdata": {"rt": -1, "stimulus": "<p id=\"stim\">+</p>", "key_press": -1, "type": "FIXATION", "trial_type": "single-stim", "trial_index": 252, "time_elapsed": 1208654, "internal_node_id": "0.0-180.0-0.0"}}, {"uniqueid": "MTK0974:3AQF3RZ559PQRJMHE5Y683H0LX36F5", "current_trial": 253, "dateTime": 1512941688456, "trialdata": {"rt": -1, "stimulus": "<p id=\"stim\">WIFE</p>", "key_press": -1, "type": "PRES_VIS", "word": "wife", "wordID": 1608, "conditions": [24, 800, "v", 24000], "trial": 7, "serialpos": 0, "trial_type": "single-stim", "trial_index": 253, "time_elapsed": 1209456, "internal_node_id": "0.0-181.0"}}, {"uniqueid": "MTK0974:3AQF3RZ559PQRJMHE5Y683H0LX36F5", "current_trial": 254, "dateTime": 1512941690312, "trialdata": {"rt": -1, "stimulus": "<p id=\"stim\">TAXI</p>", "key_press": -1, "type": "PRES_VIS", "word": "taxi", "wordID": 1437, "conditions": [24, 800, "v", 24000], "trial": 7, "serialpos": 1, "trial_type": "single-stim", "trial_index": 254, "time_elapsed": 1211312, "internal_node_id": "0.0-182.0"}}, {"uniqueid": "MTK0974:3AQF3RZ559PQRJMHE5Y683H0LX36F5", "current_trial": 255, "dateTime": 1512941692122, "trialdata": {"rt": -1, "stimulus": "<p id=\"stim\">ROBBER</p>", "key_press": -1, "type": "PRES_VIS", "word": "robber", "wordID": 1196, "conditions": [24, 800, "v", 24000], "trial": 7, "serialpos": 2, "trial_type": "single-stim", "trial_index": 255, "time_elapsed": 1213122, "internal_node_id": "0.0-183.0"}}, {"uniqueid": "MTK0974:3AQF3RZ559PQRJMHE5Y683H0LX36F5", "current_trial": 256, "dateTime": 1512941693725, "trialdata": {"rt": -1, "stimulus": "<p id=\"stim\">TRUCK</p>", "key_press": -1, "type": "PRES_VIS", "word": "truck", "wordID": 1511, "conditions": [24, 800, "v", 24000], "trial": 7, "serialpos": 3, "trial_type": "single-stim", "trial_index": 256, "time_elapsed": 1214725, "internal_node_id": "0.0-184.0"}}, {"uniqueid": "MTK0974:3AQF3RZ559PQRJMHE5Y683H0LX36F5", "current_trial": 257, "dateTime": 1512941695408, "trialdata": {"rt": -1, "stimulus": "<p id=\"stim\">NOVEL</p>", "key_press": -1, "type": "PRES_VIS", "word": "novel", "wordID": 959, "conditions": [24, 800, "v", 24000], "trial": 7, "serialpos": 4, "trial_type": "single-stim", "trial_index": 257, "time_elapsed": 1216408, "internal_node_id": "0.0-185.0"}}, {"uniqueid": "MTK0974:3AQF3RZ559PQRJMHE5Y683H0LX36F5", "current_trial": 258, "dateTime": 1512941697387, "trialdata": {"rt": -1, "stimulus": "<p id=\"stim\">PLASTER</p>", "key_press": -1, "type": "PRES_VIS", "word": "plaster", "wordID": 1084, "conditions": [24, 800, "v", 24000], "trial": 7, "serialpos": 5, "trial_type": "single-stim", "trial_index": 258, "time_elapsed": 1218387, "internal_node_id": "0.0-186.0"}}, {"uniqueid": "MTK0974:3AQF3RZ559PQRJMHE5Y683H0LX36F5", "current_trial": 259, "dateTime": 1512941699018, "trialdata": {"rt": -1, "stimulus": "<p id=\"stim\">CLOCK</p>", "key_press": -1, "type": "PRES_VIS", "word": "clock", "wordID": 324, "conditions": [24, 800, "v", 24000], "trial": 7, "serialpos": 6, "trial_type": "single-stim", "trial_index": 259, "time_elapsed": 1220018, "internal_node_id": "0.0-187.0"}}, {"uniqueid": "MTK0974:3AQF3RZ559PQRJMHE5Y683H0LX36F5", "current_trial": 260, "dateTime": 1512941700960, "trialdata": {"rt": -1, "stimulus": "<p id=\"stim\">SPARROW</p>", "key_press": -1, "type": "PRES_VIS", "word": "sparrow", "wordID": 1346, "conditions": [24, 800, "v", 24000], "trial": 7, "serialpos": 7, "trial_type": "single-stim", "trial_index": 260, "time_elapsed": 1221960, "internal_node_id": "0.0-188.0"}}, {"uniqueid": "MTK0974:3AQF3RZ559PQRJMHE5Y683H0LX36F5", "current_trial": 261, "dateTime": 1512941702879, "trialdata": {"rt": -1, "stimulus": "<p id=\"stim\">ROBIN</p>", "key_press": -1, "type": "PRES_VIS", "word": "robin", "wordID": 1198, "conditions": [24, 800, "v", 24000], "trial": 7, "serialpos": 8, "trial_type": "single-stim", "trial_index": 261, "time_elapsed": 1223879, "internal_node_id": "0.0-189.0"}}, {"uniqueid": "MTK0974:3AQF3RZ559PQRJMHE5Y683H0LX36F5", "current_trial": 262, "dateTime": 1512941704824, "trialdata": {"rt": -1, "stimulus": "<p id=\"stim\">ZIPPER</p>", "key_press": -1, "type": "PRES_VIS", "word": "zipper", "wordID": 1635, "conditions": [24, 800, "v", 24000], "trial": 7, "serialpos": 9, "trial_type": "single-stim", "trial_index": 262, "time_elapsed": 1225823, "internal_node_id": "0.0-190.0"}}, {"uniqueid": "MTK0974:3AQF3RZ559PQRJMHE5Y683H0LX36F5", "current_trial": 263, "dateTime": 1512941706816, "trialdata": {"rt": -1, "stimulus": "<p id=\"stim\">CHAUFFEUR</p>", "key_press": -1, "type": "PRES_VIS", "word": "chauffeur", "wordID": 282, "conditions": [24, 800, "v", 24000], "trial": 7, "serialpos": 10, "trial_type": "single-stim", "trial_index": 263, "time_elapsed": 1227816, "internal_node_id": "0.0-191.0"}}, {"uniqueid": "MTK0974:3AQF3RZ559PQRJMHE5Y683H0LX36F5", "current_trial": 264, "dateTime": 1512941708742, "trialdata": {"rt": -1, "stimulus": "<p id=\"stim\">FRIEND</p>", "key_press": -1, "type": "PRES_VIS", "word": "friend", "wordID": 605, "conditions": [24, 800, "v", 24000], "trial": 7, "serialpos": 11, "trial_type": "single-stim", "trial_index": 264, "time_elapsed": 1229742, "internal_node_id": "0.0-192.0"}}, {"uniqueid": "MTK0974:3AQF3RZ559PQRJMHE5Y683H0LX36F5", "current_trial": 265, "dateTime": 1512941710676, "trialdata": {"rt": -1, "stimulus": "<p id=\"stim\">FOOTBALL</p>", "key_press": -1, "type": "PRES_VIS", "word": "football", "wordID": 590, "conditions": [24, 800, "v", 24000], "trial": 7, "serialpos": 12, "trial_type": "single-stim", "trial_index": 265, "time_elapsed": 1231676, "internal_node_id": "0.0-193.0"}}, {"uniqueid": "MTK0974:3AQF3RZ559PQRJMHE5Y683H0LX36F5", "current_trial": 266, "dateTime": 1512941712505, "trialdata": {"rt": -1, "stimulus": "<p id=\"stim\">TURNIP</p>", "key_press": -1, "type": "PRES_VIS", "word": "turnip", "wordID": 1520, "conditions": [24, 800, "v", 24000], "trial": 7, "serialpos": 13, "trial_type": "single-stim", "trial_index": 266, "time_elapsed": 1233505, "internal_node_id": "0.0-194.0"}}, {"uniqueid": "MTK0974:3AQF3RZ559PQRJMHE5Y683H0LX36F5", "current_trial": 267, "dateTime": 1512941714237, "trialdata": {"rt": -1, "stimulus": "<p id=\"stim\">TART</p>", "key_press": -1, "type": "PRES_VIS", "word": "tart", "wordID": 1435, "conditions": [24, 800, "v", 24000], "trial": 7, "serialpos": 14, "trial_type": "single-stim", "trial_index": 267, "time_elapsed": 1235237, "internal_node_id": "0.0-195.0"}}, {"uniqueid": "MTK0974:3AQF3RZ559PQRJMHE5Y683H0LX36F5", "current_trial": 268, "dateTime": 1512941716167, "trialdata": {"rt": -1, "stimulus": "<p id=\"stim\">SERVANT</p>", "key_press": -1, "type": "PRES_VIS", "word": "servant", "wordID": 1270, "conditions": [24, 800, "v", 24000], "trial": 7, "serialpos": 15, "trial_type": "single-stim", "trial_index": 268, "time_elapsed": 1237167, "internal_node_id": "0.0-196.0"}}, {"uniqueid": "MTK0974:3AQF3RZ559PQRJMHE5Y683H0LX36F5", "current_trial": 269, "dateTime": 1512941717871, "trialdata": {"rt": -1, "stimulus": "<p id=\"stim\">RABBIT</p>", "key_press": -1, "type": "PRES_VIS", "word": "rabbit", "wordID": 1151, "conditions": [24, 800, "v", 24000], "trial": 7, "serialpos": 16, "trial_type": "single-stim", "trial_index": 269, "time_elapsed": 1238871, "internal_node_id": "0.0-197.0"}}, {"uniqueid": "MTK0974:3AQF3RZ559PQRJMHE5Y683H0LX36F5", "current_trial": 270, "dateTime": 1512941719516, "trialdata": {"rt": -1, "stimulus": "<p id=\"stim\">PARROT</p>", "key_press": -1, "type": "PRES_VIS", "word": "parrot", "wordID": 1014, "conditions": [24, 800, "v", 24000], "trial": 7, "serialpos": 17, "trial_type": "single-stim", "trial_index": 270, "time_elapsed": 1240515, "internal_node_id": "0.0-198.0"}}, {"uniqueid": "MTK0974:3AQF3RZ559PQRJMHE5Y683H0LX36F5", "current_trial": 271, "dateTime": 1512941721375, "trialdata": {"rt": -1, "stimulus": "<p id=\"stim\">BUNNY</p>", "key_press": -1, "type": "PRES_VIS", "word": "bunny", "wordID": 197, "conditions": [24, 800, "v", 24000], "trial": 7, "serialpos": 18, "trial_type": "single-stim", "trial_index": 271, "time_elapsed": 1242375, "internal_node_id": "0.0-199.0"}}, {"uniqueid": "MTK0974:3AQF3RZ559PQRJMHE5Y683H0LX36F5", "current_trial": 272, "dateTime": 1512941723337, "trialdata": {"rt": -1, "stimulus": "<p id=\"stim\">NURSE</p>", "key_press": -1, "type": "PRES_VIS", "word": "nurse", "wordID": 962, "conditions": [24, 800, "v", 24000], "trial": 7, "serialpos": 19, "trial_type": "single-stim", "trial_index": 272, "time_elapsed": 1244337, "internal_node_id": "0.0-200.0"}}, {"uniqueid": "MTK0974:3AQF3RZ559PQRJMHE5Y683H0LX36F5", "current_trial": 273, "dateTim