{"condition": 0, "counterbalance": 93, "assignmentId": "3YJ6NA41JCNE6RQICRO0T1095JHJPE", "workerId": "MTK0128", "hitId": "3FSEU3P2NR7ET8RG7MWWB3QV3XIRRV", "currenttrial": 625, "bonus": 0, "data": [{"uniqueid": "MTK0128:3YJ6NA41JCNE6RQICRO0T1095JHJPE", "current_trial": 0, "dateTime": 1509292182466, "trialdata": {"rt": 5562, "key_press": 220, "type": "INSTRUCTIONS", "trial_type": "text", "trial_index": 0, "time_elapsed": 5566, "internal_node_id": "0.0-0.0"}}, {"uniqueid": "MTK0128:3YJ6NA41JCNE6RQICRO0T1095JHJPE", "current_trial": 1, "dateTime": 1509292182469, "trialdata": {"rt": 2, "key_press": 13, "type": "INSTRUCTIONS", "trial_type": "text", "trial_index": 1, "time_elapsed": 5570, "internal_node_id": "0.0-1.0"}}, {"uniqueid": "MTK0128:3YJ6NA41JCNE6RQICRO0T1095JHJPE", "current_trial": 2, "dateTime": 1509292192056, "trialdata": {"rt": [9580], "responses": ["ocean"], "type": "AUDIO_TEST", "trial_type": "audio-test", "trial_index": 2, "time_elapsed": 15157, "internal_node_id": "0.0-2.0"}}, {"uniqueid": "MTK0128:3YJ6NA41JCNE6RQICRO0T1095JHJPE", "current_trial": 3, "dateTime": 1509292199344, "trialdata": {"rt": [7282], "responses": ["crystal"], "type": "AUDIO_TEST", "trial_type": "audio-test", "trial_index": 3, "time_elapsed": 22445, "internal_node_id": "0.0-3.0"}}, {"uniqueid": "MTK0128:3YJ6NA41JCNE6RQICRO0T1095JHJPE", "current_trial": 4, "dateTime": 1509292208608, "trialdata": {"rt": [9258], "responses": ["spice"], "type": "AUDIO_TEST", "trial_type": "audio-test", "trial_index": 4, "time_elapsed": 31709, "internal_node_id": "0.0-4.0"}}, {"uniqueid": "MTK0128:3YJ6NA41JCNE6RQICRO0T1095JHJPE", "current_trial": 5, "dateTime": 1509292210927, "trialdata": {"rt": 1568, "key_press": 13, "type": "INSTRUCTIONS", "trial_type": "text", "trial_index": 5, "time_elapsed": 34028, "internal_node_id": "0.0-5.0"}}, {"uniqueid": "MTK0128:3YJ6NA41JCNE6RQICRO0T1095JHJPE", "current_trial": 6, "dateTime": 1509292217150, "trialdata": {"rt": 6223, "key_press": 13, "type": "INSTRUCTIONS", "trial_type": "text", "trial_index": 6, "time_elapsed": 40251, "internal_node_id": "0.0-6.0"}}, {"uniqueid": "MTK0128:3YJ6NA41JCNE6RQICRO0T1095JHJPE", "current_trial": 7, "dateTime": 1509292229679, "trialdata": {"rt": 12527, "key_press": 13, "type": "INSTRUCTIONS", "trial_type": "text", "trial_index": 7, "time_elapsed": 52780, "internal_node_id": "0.0-7.0"}}, {"uniqueid": "MTK0128:3YJ6NA41JCNE6RQICRO0T1095JHJPE", "current_trial": 8, "dateTime": 1509292235455, "trialdata": {"rt": 5775, "key_press": 13, "type": "INSTRUCTIONS", "trial_type": "text", "trial_index": 8, "time_elapsed": 58556, "internal_node_id": "0.0-8.0"}}, {"uniqueid": "MTK0128:3YJ6NA41JCNE6RQICRO0T1095JHJPE", "current_trial": 9, "dateTime": 1509292254460, "trialdata": {"rt": [6867, 11747, 13555, 15931, 17827], "responses": ["13", "12", "9", "10", "19"], "num1": [3, 2, 4, 1, 8, 9], "num2": [8, 1, 4, 1, 2, 9], "num3": [2, 9, 1, 8, 9, 1], "type": "DISTRACTOR", "conditions": [18, 1200, "a", 18000], "trial": 0, "trial_type": "math-distractor", "trial_index": 9, "time_elapsed": 77561, "internal_node_id": "0.0-9.0"}}, {"uniqueid": "MTK0128:3YJ6NA41JCNE6RQICRO0T1095JHJPE", "current_trial": 10, "dateTime": 1509292257461, "trialdata": {"rt": -1, "stimulus": "<p id=\"stim\">10</p>", "key_press": -1, "trial_type": "single-stim", "trial_index": 10, "time_elapsed": 80562, "internal_node_id": "0.0-10.0-0.0"}}, {"uniqueid": "MTK0128:3YJ6NA41JCNE6RQICRO0T1095JHJPE", "current_trial": 11, "dateTime": 1509292258462, "trialdata": {"rt": -1, "stimulus": "<p id=\"stim\">9</p>", "key_press": -1, "trial_type": "single-stim", "trial_index": 11, "time_elapsed": 81563, "internal_node_id": "0.0-10.0-1.0"}}, {"uniqueid": "MTK0128:3YJ6NA41JCNE6RQICRO0T1095JHJPE", "current_trial": 12, "dateTime": 1509292259462, "trialdata": {"rt": -1, "stimulus": "<p id=\"stim\">8</p>", "key_press": -1, "trial_type": "single-stim", "trial_index": 12, "time_elapsed": 82563, "internal_node_id": "0.0-10.0-2.0"}}, {"uniqueid": "MTK0128:3YJ6NA41JCNE6RQICRO0T1095JHJPE", "current_trial": 13, "dateTime": 1509292260465, "trialdata": {"rt": -1, "stimulus": "<p id=\"stim\">7</p>", "key_press": -1, "trial_type": "single-stim", "trial_index": 13, "time_elapsed": 83565, "internal_node_id": "0.0-10.0-3.0"}}, {"uniqueid": "MTK0128:3YJ6NA41JCNE6RQICRO0T1095JHJPE", "current_trial": 14, "dateTime": 1509292261466, "trialdata": {"rt": -1, "stimulus": "<p id=\"stim\">6</p>", "key_press": -1, "trial_type": "single-stim", "trial_index": 14, "time_elapsed": 84567, "internal_node_id": "0.0-10.0-4.0"}}, {"uniqueid": "MTK0128:3YJ6NA41JCNE6RQICRO0T1095JHJPE", "current_trial": 15, "dateTime": 1509292262467, "trialdata": {"rt": -1, "stimulus": "<p id=\"stim\">5</p>", "key_press": -1, "trial_type": "single-stim", "trial_index": 15, "time_elapsed": 85568, "internal_node_id": "0.0-10.0-5.0"}}, {"uniqueid": "MTK0128:3YJ6NA41JCNE6RQICRO0T1095JHJPE", "current_trial": 16, "dateTime": 1509292263467, "trialdata": {"rt": -1, "stimulus": "<p id=\"stim\">4</p>", "key_press": -1, "trial_type": "single-stim", "trial_index": 16, "time_elapsed": 86568, "internal_node_id": "0.0-10.0-6.0"}}, {"uniqueid": "MTK0128:3YJ6NA41JCNE6RQICRO0T1095JHJPE", "current_trial": 17, "dateTime": 1509292264469, "trialdata": {"rt": -1, "stimulus": "<p id=\"stim\">3</p>", "key_press": -1, "trial_type": "single-stim", "trial_index": 17, "time_elapsed": 87569, "internal_node_id": "0.0-10.0-7.0"}}, {"uniqueid": "MTK0128:3YJ6NA41JCNE6RQICRO0T1095JHJPE", "current_trial": 18, "dateTime": 1509292265471, "trialdata": {"rt": -1, "stimulus": "<p id=\"stim\">2</p>", "key_press": -1, "trial_type": "single-stim", "trial_index": 18, "time_elapsed": 88571, "internal_node_id": "0.0-10.0-8.0"}}, {"uniqueid": "MTK0128:3YJ6NA41JCNE6RQICRO0T1095JHJPE", "current_trial": 19, "dateTime": 1509292266471, "trialdata": {"rt": -1, "stimulus": "<p id=\"stim\">1</p>", "key_press": -1, "trial_type": "single-stim", "trial_index": 19, "time_elapsed": 89572, "internal_node_id": "0.0-10.0-9.0"}}, {"uniqueid": "MTK0128:3YJ6NA41JCNE6RQICRO0T1095JHJPE", "current_trial": 20, "dateTime": 1509292267972, "trialdata": {"rt": -1, "stimulus": "<p id=\"stim\">+</p>", "key_press": -1, "type": "FIXATION", "trial_type": "single-stim", "trial_index": 20, "time_elapsed": 91073, "internal_node_id": "0.0-11.0-0.0"}}, {"uniqueid": "MTK0128:3YJ6NA41JCNE6RQICRO0T1095JHJPE", "current_trial": 21, "dateTime": 1509292270331, "trialdata": {"rt": -1000, "stimulus": "/static/audio/wordpool/NOMAD.wav", "key_press": -1, "type": "PRES_AUD", "word": "nomad", "wordID": 954, "conditions": [18, 1200, "a", 18000], "trial": 0, "serialpos": 0, "trial_type": "single-audio", "trial_index": 21, "time_elapsed": 93431, "internal_node_id": "0.0-12.0"}}, {"uniqueid": "MTK0128:3YJ6NA41JCNE6RQICRO0T1095JHJPE", "current_trial": 22, "dateTime": 1509292272396, "trialdata": {"rt": -1000, "stimulus": "/static/audio/wordpool/MAMMAL.wav", "key_press": -1, "type": "PRES_AUD", "word": "mammal", "wordID": 860, "conditions": [18, 1200, "a", 18000], "trial": 0, "serialpos": 1, "trial_type": "single-audio", "trial_index": 22, "time_elapsed": 95497, "internal_node_id": "0.0-13.0"}}, {"uniqueid": "MTK0128:3YJ6NA41JCNE6RQICRO0T1095JHJPE", "current_trial": 23, "dateTime": 1509292274683, "trialdata": {"rt": -1000, "stimulus": "/static/audio/wordpool/BASEMENT.wav", "key_press": -1, "type": "PRES_AUD", "word": "basement", "wordID": 93, "conditions": [18, 1200, "a", 18000], "trial": 0, "serialpos": 2, "trial_type": "single-audio", "trial_index": 23, "time_elapsed": 97784, "internal_node_id": "0.0-14.0"}}, {"uniqueid": "MTK0128:3YJ6NA41JCNE6RQICRO0T1095JHJPE", "current_trial": 24, "dateTime": 1509292276719, "trialdata": {"rt": -1000, "stimulus": "/static/audio/wordpool/KEEPER.wav", "key_press": -1, "type": "PRES_AUD", "word": "keeper", "wordID": 768, "conditions": [18, 1200, "a", 18000], "trial": 0, "serialpos": 3, "trial_type": "single-audio", "trial_index": 24, "time_elapsed": 99820, "internal_node_id": "0.0-15.0"}}, {"uniqueid": "MTK0128:3YJ6NA41JCNE6RQICRO0T1095JHJPE", "current_trial": 25, "dateTime": 1509292278725, "trialdata": {"rt": -1000, "stimulus": "/static/audio/wordpool/SKILLET.wav", "key_press": -1, "type": "PRES_AUD", "word": "skillet", "wordID": 1316, "conditions": [18, 1200, "a", 18000], "trial": 0, "serialpos": 4, "trial_type": "single-audio", "trial_index": 25, "time_elapsed": 101826, "internal_node_id": "0.0-16.0"}}, {"uniqueid": "MTK0128:3YJ6NA41JCNE6RQICRO0T1095JHJPE", "current_trial": 26, "dateTime": 1509292281063, "trialdata": {"rt": -1000, "stimulus": "/static/audio/wordpool/BOX.wav", "key_press": -1, "type": "PRES_AUD", "word": "box", "wordID": 158, "conditions": [18, 1200, "a", 18000], "trial": 0, "serialpos": 5, "trial_type": "single-audio", "trial_index": 26, "time_elapsed": 104164, "internal_node_id": "0.0-17.0"}}, {"uniqueid": "MTK0128:3YJ6NA41JCNE6RQICRO0T1095JHJPE", "current_trial": 27, "dateTime": 1509292283304, "trialdata": {"rt": -1000, "stimulus": "/static/audio/wordpool/SMOG.wav", "key_press": -1, "type": "PRES_AUD", "word": "smog", "wordID": 1329, "conditions": [18, 1200, "a", 18000], "trial": 0, "serialpos": 6, "trial_type": "single-audio", "trial_index": 27, "time_elapsed": 106405, "internal_node_id": "0.0-18.0"}}, {"uniqueid": "MTK0128:3YJ6NA41JCNE6RQICRO0T1095JHJPE", "current_trial": 28, "dateTime": 1509292285479, "trialdata": {"rt": -1000, "stimulus": "/static/audio/wordpool/SEAGULL.wav", "key_press": -1, "type": "PRES_AUD", "word": "seagull", "wordID": 1260, "conditions": [18, 1200, "a", 18000], "trial": 0, "serialpos": 7, "trial_type": "single-audio", "trial_index": 28, "time_elapsed": 108580, "internal_node_id": "0.0-19.0"}}, {"uniqueid": "MTK0128:3YJ6NA41JCNE6RQICRO0T1095JHJPE", "current_trial": 29, "dateTime": 1509292287659, "trialdata": {"rt": -1000, "stimulus": "/static/audio/wordpool/WIDOW.wav", "key_press": -1, "type": "PRES_AUD", "word": "widow", "wordID": 1607, "conditions": [18, 1200, "a", 18000], "trial": 0, "serialpos": 8, "trial_type": "single-audio", "trial_index": 29, "time_elapsed": 110760, "internal_node_id": "0.0-20.0"}}, {"uniqueid": "MTK0128:3YJ6NA41JCNE6RQICRO0T1095JHJPE", "current_trial": 30, "dateTime": 1509292289888, "trialdata": {"rt": -1000, "stimulus": "/static/audio/wordpool/MARKET.wav", "key_press": -1, "type": "PRES_AUD", "word": "market", "wordID": 870, "conditions": [18, 1200, "a", 18000], "trial": 0, "serialpos": 9, "trial_type": "single-audio", "trial_index": 30, "time_elapsed": 112989, "internal_node_id": "0.0-21.0"}}, {"uniqueid": "MTK0128:3YJ6NA41JCNE6RQICRO0T1095JHJPE", "current_trial": 31, "dateTime": 1509292291944, "trialdata": {"rt": -1000, "stimulus": "/static/audio/wordpool/HARP.wav", "key_press": -1, "type": "PRES_AUD", "word": "harp", "wordID": 688, "conditions": [18, 1200, "a", 18000], "trial": 0, "serialpos": 10, "trial_type": "single-audio", "trial_index": 31, "time_elapsed": 115045, "internal_node_id": "0.0-22.0"}}, {"uniqueid": "MTK0128:3YJ6NA41JCNE6RQICRO0T1095JHJPE", "current_trial": 32, "dateTime": 1509292294288, "trialdata": {"rt": -1000, "stimulus": "/static/audio/wordpool/SWORD.wav", "key_press": -1, "type": "PRES_AUD", "word": "sword", "wordID": 1422, "conditions": [18, 1200, "a", 18000], "trial": 0, "serialpos": 11, "trial_type": "single-audio", "trial_index": 32, "time_elapsed": 117389, "internal_node_id": "0.0-23.0"}}, {"uniqueid": "MTK0128:3YJ6NA41JCNE6RQICRO0T1095JHJPE", "current_trial": 33, "dateTime": 1509292296422, "trialdata": {"rt": -1000, "stimulus": "/static/audio/wordpool/DONKEY.wav", "key_press": -1, "type": "PRES_AUD", "word": "donkey", "wordID": 483, "conditions": [18, 1200, "a", 18000], "trial": 0, "serialpos": 12, "trial_type": "single-audio", "trial_index": 33, "time_elapsed": 119523, "internal_node_id": "0.0-24.0"}}, {"uniqueid": "MTK0128:3YJ6NA41JCNE6RQICRO0T1095JHJPE", "current_trial": 34, "dateTime": 1509292298550, "trialdata": {"rt": -1000, "stimulus": "/static/audio/wordpool/TRACTOR.wav", "key_press": -1, "type": "PRES_AUD", "word": "tractor", "wordID": 1492, "conditions": [18, 1200, "a", 18000], "trial": 0, "serialpos": 13, "trial_type": "single-audio", "trial_index": 34, "time_elapsed": 121651, "internal_node_id": "0.0-25.0"}}, {"uniqueid": "MTK0128:3YJ6NA41JCNE6RQICRO0T1095JHJPE", "current_trial": 35, "dateTime": 1509292300909, "trialdata": {"rt": -1000, "stimulus": "/static/audio/wordpool/LUMBER.wav", "key_press": -1, "type": "PRES_AUD", "word": "lumber", "wordID": 847, "conditions": [18, 1200, "a", 18000], "trial": 0, "serialpos": 14, "trial_type": "single-audio", "trial_index": 35, "time_elapsed": 124010, "internal_node_id": "0.0-26.0"}}, {"uniqueid": "MTK0128:3YJ6NA41JCNE6RQICRO0T1095JHJPE", "current_trial": 36, "dateTime": 1509292303103, "trialdata": {"rt": -1000, "stimulus": "/static/audio/wordpool/ACTOR.wav", "key_press": -1, "type": "PRES_AUD", "word": "actor", "wordID": 4, "conditions": [18, 1200, "a", 18000], "trial": 0, "serialpos": 15, "trial_type": "single-audio", "trial_index": 36, "time_elapsed": 126204, "internal_node_id": "0.0-27.0"}}, {"uniqueid": "MTK0128:3YJ6NA41JCNE6RQICRO0T1095JHJPE", "current_trial": 37, "dateTime": 1509292305281, "trialdata": {"rt": -1000, "stimulus": "/static/audio/wordpool/MISSILE.wav", "key_press": -1, "type": "PRES_AUD", "word": "missile", "wordID": 899, "conditions": [18, 1200, "a", 18000], "trial": 0, "serialpos": 16, "trial_type": "single-audio", "trial_index": 37, "time_elapsed": 128382, "internal_node_id": "0.0-28.0"}}, {"uniqueid": "MTK0128:3YJ6NA41JCNE6RQICRO0T1095JHJPE", "current_trial": 38, "dateTime": 1509292307361, "trialdata": {"rt": -1000, "stimulus": "/static/audio/wordpool/QUARTER.wav", "key_press": -1, "type": "PRES_AUD", "word": "quarter", "wordID": 1147, "conditions": [18, 1200, "a", 18000], "trial": 0, "serialpos": 17, "trial_type": "single-audio", "trial_index": 38, "time_elapsed": 130462, "internal_node_id": "0.0-29.0"}}, {"uniqueid": "MTK0128:3YJ6NA41JCNE6RQICRO0T1095JHJPE", "current_trial": 39, "dateTime": 1509292308721, "trialdata": {"rt": -1, "stimulus": "", "key_press": -1, "type": "PRE_RECALL_DELAY", "trial_type": "single-stim", "trial_index": 39, "time_elapsed": 131821, "internal_node_id": "0.0-30.0-0.0"}}, {"uniqueid": "MTK0128:3YJ6NA41JCNE6RQICRO0T1095JHJPE", "current_trial": 40, "dateTime": 1509292309227, "trialdata": {"rt": -1000, "stimulus": "/static/audio/400Hz.wav", "key_press": -1, "type": "PRE_RECALL_ALERT", "trial_type": "single-audio", "trial_index": 40, "time_elapsed": 132328, "internal_node_id": "0.0-31.0"}}, {"uniqueid": "MTK0128:3YJ6NA41JCNE6RQICRO0T1095JHJPE", "current_trial": 41, "dateTime": 1509292369305, "trialdata": {"rt": [2472, 5464, 7897, 10200, 14000, 15416, 15736, 15976, 16176, 21128, 28704, 30887, 34399, 36047, 38400, 41592, 44256, 46119], "recwords": ["no", "skillet", "basement", "cyrstal", "spice", "", "", "", "", "noman", "skillet", "skillet", "basement", "basement", "basement", "noman", "skillet", "skillet"], "type": "FREE_RECALL", "conditions": [18, 1200, "a", 18000], "trial": 0, "trial_type": "free-recall", "trial_index": 41, "time_elapsed": 192403, "internal_node_id": "0.0-32.0-0.0"}}, {"uniqueid": "MTK0128:3YJ6NA41JCNE6RQICRO0T1095JHJPE", "current_trial": 42, "dateTime": 1509292379831, "trialdata": {"rt": 8524, "key_press": 13, "type": "INSTRUCTIONS", "trial_type": "text", "trial_index": 42, "time_elapsed": 202932, "internal_node_id": "0.0-33.0"}}, {"uniqueid": "MTK0128:3YJ6NA41JCNE6RQICRO0T1095JHJPE", "current_trial": 43, "dateTime": 1509292399834, "trialdata": {"rt": [3949, 7629, 9517, 13037, 15805], "responses": ["11", "21", "1", "16", "18"], "num1": [4, 5, 6, 9, 7, 6], "num2": [4, 6, 6, 2, 8, 3], "num3": [3, 9, 5, 5, 3, 5], "type": "DISTRACTOR", "conditions": [18, 1200, "v", 18000], "trial": 1, "trial_type": "math-distractor", "trial_index": 43, "time_elapsed": 222935, "internal_node_id": "0.0-34.0"}}, {"uniqueid": "MTK0128:3YJ6NA41JCNE6RQICRO0T1095JHJPE", "current_trial": 44, "dateTime": 1509292402836, "trialdata": {"rt": -1, "stimulus": "<p id=\"stim\">10</p>", "key_press": -1, "trial_type": "single-stim", "trial_index": 44, "time_elapsed": 225937, "internal_node_id": "0.0-35.0-0.0"}}, {"uniqueid": "MTK0128:3YJ6NA41JCNE6RQICRO0T1095JHJPE", "current_trial": 45, "dateTime": 1509292403836, "trialdata": {"rt": -1, "stimulus": "<p id=\"stim\">9</p>", "key_press": -1, "trial_type": "single-stim", "trial_index": 45, "time_elapsed": 226937, "internal_node_id": "0.0-35.0-1.0"}}, {"uniqueid": "MTK0128:3YJ6NA41JCNE6RQICRO0T1095JHJPE", "current_trial": 46, "dateTime": 1509292404837, "trialdata": {"rt": -1, "stimulus": "<p id=\"stim\">8</p>", "key_press": -1, "trial_type": "single-stim", "trial_index": 46, "time_elapsed": 227938, "internal_node_id": "0.0-35.0-2.0"}}, {"uniqueid": "MTK0128:3YJ6NA41JCNE6RQICRO0T1095JHJPE", "current_trial": 47, "dateTime": 1509292405839, "trialdata": {"rt": -1, "stimulus": "<p id=\"stim\">7</p>", "key_press": -1, "trial_type": "single-stim", "trial_index": 47, "time_elapsed": 228939, "internal_node_id": "0.0-35.0-3.0"}}, {"uniqueid": "MTK0128:3YJ6NA41JCNE6RQICRO0T1095JHJPE", "current_trial": 48, "dateTime": 1509292406840, "trialdata": {"rt": -1, "stimulus": "<p id=\"stim\">6</p>", "key_press": -1, "trial_type": "single-stim", "trial_index": 48, "time_elapsed": 229940, "internal_node_id": "0.0-35.0-4.0"}}, {"uniqueid": "MTK0128:3YJ6NA41JCNE6RQICRO0T1095JHJPE", "current_trial": 49, "dateTime": 1509292407840, "trialdata": {"rt": -1, "stimulus": "<p id=\"stim\">5</p>", "key_press": -1, "trial_type": "single-stim", "trial_index": 49, "time_elapsed": 230941, "internal_node_id": "0.0-35.0-5.0"}}, {"uniqueid": "MTK0128:3YJ6NA41JCNE6RQICRO0T1095JHJPE", "current_trial": 50, "dateTime": 1509292408842, "trialdata": {"rt": -1, "stimulus": "<p id=\"stim\">4</p>", "key_press": -1, "trial_type": "single-stim", "trial_index": 50, "time_elapsed": 231942, "internal_node_id": "0.0-35.0-6.0"}}, {"uniqueid": "MTK0128:3YJ6NA41JCNE6RQICRO0T1095JHJPE", "current_trial": 51, "dateTime": 1509292409843, "trialdata": {"rt": -1, "stimulus": "<p id=\"stim\">3</p>", "key_press": -1, "trial_type": "single-stim", "trial_index": 51, "time_elapsed": 232944, "internal_node_id": "0.0-35.0-7.0"}}, {"uniqueid": "MTK0128:3YJ6NA41JCNE6RQICRO0T1095JHJPE", "current_trial": 52, "dateTime": 1509292410844, "trialdata": {"rt": -1, "stimulus": "<p id=\"stim\">2</p>", "key_press": -1, "trial_type": "single-stim", "trial_index": 52, "time_elapsed": 233944, "internal_node_id": "0.0-35.0-8.0"}}, {"uniqueid": "MTK0128:3YJ6NA41JCNE6RQICRO0T1095JHJPE", "current_trial": 53, "dateTime": 1509292411844, "trialdata": {"rt": -1, "stimulus": "<p id=\"stim\">1</p>", "key_press": -1, "trial_type": "single-stim", "trial_index": 53, "time_elapsed": 234945, "internal_node_id": "0.0-35.0-9.0"}}, {"uniqueid": "MTK0128:3YJ6NA41JCNE6RQICRO0T1095JHJPE", "current_trial": 54, "dateTime": 1509292413347, "trialdata": {"rt": -1, "stimulus": "<p id=\"stim\">+</p>", "key_press": -1, "type": "FIXATION", "trial_type": "single-stim", "trial_index": 54, "time_elapsed": 236447, "internal_node_id": "0.0-36.0-0.0"}}, {"uniqueid": "MTK0128:3YJ6NA41JCNE6RQICRO0T1095JHJPE", "current_trial": 55, "dateTime": 1509292414548, "trialdata": {"rt": -1, "stimulus": "<p id=\"stim\">STOVE</p>", "key_press": -1, "type": "PRES_VIS", "word": "stove", "wordID": 1387, "conditions": [18, 1200, "v", 18000], "trial": 1, "serialpos": 0, "trial_type": "single-stim", "trial_index": 55, "time_elapsed": 237648, "internal_node_id": "0.0-37.0"}}, {"uniqueid": "MTK0128:3YJ6NA41JCNE6RQICRO0T1095JHJPE", "current_trial": 56, "dateTime": 1509292416722, "trialdata": {"rt": -1, "stimulus": "<p id=\"stim\">LAVA</p>", "key_press": -1, "type": "PRES_VIS", "word": "lava", "wordID": 803, "conditions": [18, 1200, "v", 18000], "trial": 1, "serialpos": 1, "trial_type": "single-stim", "trial_index": 56, "time_elapsed": 239822, "internal_node_id": "0.0-38.0"}}, {"uniqueid": "MTK0128:3YJ6NA41JCNE6RQICRO0T1095JHJPE", "current_trial": 57, "dateTime": 1509292418762, "trialdata": {"rt": -1, "stimulus": "<p id=\"stim\">SALAD</p>", "key_press": -1, "type": "PRES_VIS", "word": "salad", "wordID": 1223, "conditions": [18, 1200, "v", 18000], "trial": 1, "serialpos": 2, "trial_type": "single-stim", "trial_index": 57, "time_elapsed": 241863, "internal_node_id": "0.0-39.0"}}, {"uniqueid": "MTK0128:3YJ6NA41JCNE6RQICRO0T1095JHJPE", "current_trial": 58, "dateTime": 1509292420814, "trialdata": {"rt": -1, "stimulus": "<p id=\"stim\">HERO</p>", "key_press": -1, "type": "PRES_VIS", "word": "hero", "wordID": 705, "conditions": [18, 1200, "v", 18000], "trial": 1, "serialpos": 3, "trial_type": "single-stim", "trial_index": 58, "time_elapsed": 243914, "internal_node_id": "0.0-40.0"}}, {"uniqueid": "MTK0128:3YJ6NA41JCNE6RQICRO0T1095JHJPE", "current_trial": 59, "dateTime": 1509292422815, "trialdata": {"rt": -1, "stimulus": "<p id=\"stim\">STUDENT</p>", "key_press": -1, "type": "PRES_VIS", "word": "student", "wordID": 1394, "conditions": [18, 1200, "v", 18000], "trial": 1, "serialpos": 4, "trial_type": "single-stim", "trial_index": 59, "time_elapsed": 245916, "internal_node_id": "0.0-41.0"}}, {"uniqueid": "MTK0128:3YJ6NA41JCNE6RQICRO0T1095JHJPE", "current_trial": 60, "dateTime": 1509292425112, "trialdata": {"rt": -1, "stimulus": "<p id=\"stim\">LION</p>", "key_press": -1, "type": "PRES_VIS", "word": "lion", "wordID": 826, "conditions": [18, 1200, "v", 18000], "trial": 1, "serialpos": 5, "trial_type": "single-stim", "trial_index": 60, "time_elapsed": 248213, "internal_node_id": "0.0-42.0"}}, {"uniqueid": "MTK0128:3YJ6NA41JCNE6RQICRO0T1095JHJPE", "current_trial": 61, "dateTime": 1509292427140, "trialdata": {"rt": -1, "stimulus": "<p id=\"stim\">BLACKBOARD</p>", "key_press": -1, "type": "PRES_VIS", "word": "blackboard", "wordID": 132, "conditions": [18, 1200, "v", 18000], "trial": 1, "serialpos": 6, "trial_type": "single-stim", "trial_index": 61, "time_elapsed": 250241, "internal_node_id": "0.0-43.0"}}, {"uniqueid": "MTK0128:3YJ6NA41JCNE6RQICRO0T1095JHJPE", "current_trial": 62, "dateTime": 1509292429481, "trialdata": {"rt": -1, "stimulus": "<p id=\"stim\">COFFEE</p>", "key_press": -1, "type": "PRES_VIS", "word": "coffee", "wordID": 340, "conditions": [18, 1200, "v", 18000], "trial": 1, "serialpos": 7, "trial_type": "single-stim", "trial_index": 62, "time_elapsed": 252581, "internal_node_id": "0.0-44.0"}}, {"uniqueid": "MTK0128:3YJ6NA41JCNE6RQICRO0T1095JHJPE", "current_trial": 63, "dateTime": 1509292431728, "trialdata": {"rt": -1, "stimulus": "<p id=\"stim\">FOREHEAD</p>", "key_press": -1, "type": "PRES_VIS", "word": "forehead", "wordID": 591, "conditions": [18, 1200, "v", 18000], "trial": 1, "serialpos": 8, "trial_type": "single-stim", "trial_index": 63, "time_elapsed": 254828, "internal_node_id": "0.0-45.0"}}, {"uniqueid": "MTK0128:3YJ6NA41JCNE6RQICRO0T1095JHJPE", "current_trial": 64, "dateTime": 1509292434116, "trialdata": {"rt": -1, "stimulus": "<p id=\"stim\">BANQUET</p>", "key_press": -1, "type": "PRES_VIS", "word": "banquet", "wordID": 85, "conditions": [18, 1200, "v", 18000], "trial": 1, "serialpos": 9, "trial_type": "single-stim", "trial_index": 64, "time_elapsed": 257216, "internal_node_id": "0.0-46.0"}}, {"uniqueid": "MTK0128:3YJ6NA41JCNE6RQICRO0T1095JHJPE", "current_trial": 65, "dateTime": 1509292436348, "trialdata": {"rt": -1, "stimulus": "<p id=\"stim\">REPORT</p>", "key_press": -1, "type": "PRES_VIS", "word": "report", "wordID": 1183, "conditions": [18, 1200, "v", 18000], "trial": 1, "serialpos": 10, "trial_type": "single-stim", "trial_index": 65, "time_elapsed": 259448, "internal_node_id": "0.0-47.0"}}, {"uniqueid": "MTK0128:3YJ6NA41JCNE6RQICRO0T1095JHJPE", "current_trial": 66, "dateTime": 1509292438494, "trialdata": {"rt": -1, "stimulus": "<p id=\"stim\">CRAYON</p>", "key_press": -1, "type": "PRES_VIS", "word": "crayon", "wordID": 400, "conditions": [18, 1200, "v", 18000], "trial": 1, "serialpos": 11, "trial_type": "single-stim", "trial_index": 66, "time_elapsed": 261594, "internal_node_id": "0.0-48.0"}}, {"uniqueid": "MTK0128:3YJ6NA41JCNE6RQICRO0T1095JHJPE", "current_trial": 67, "dateTime": 1509292440868, "trialdata": {"rt": -1, "stimulus": "<p id=\"stim\">JUDGE</p>", "key_press": -1, "type": "PRES_VIS", "word": "judge", "wordID": 760, "conditions": [18, 1200, "v", 18000], "trial": 1, "serialpos": 12, "trial_type": "single-stim", "trial_index": 67, "time_elapsed": 263968, "internal_node_id": "0.0-49.0"}}, {"uniqueid": "MTK0128:3YJ6NA41JCNE6RQICRO0T1095JHJPE", "current_trial": 68, "dateTime": 1509292443054, "trialdata": {"rt": -1, "stimulus": "<p id=\"stim\">GLOVE</p>", "key_press": -1, "type": "PRES_VIS", "word": "glove", "wordID": 641, "conditions": [18, 1200, "v", 18000], "trial": 1, "serialpos": 13, "trial_type": "single-stim", "trial_index": 68, "time_elapsed": 266154, "internal_node_id": "0.0-50.0"}}, {"uniqueid": "MTK0128:3YJ6NA41JCNE6RQICRO0T1095JHJPE", "current_trial": 69, "dateTime": 1509292445444, "trialdata": {"rt": -1, "stimulus": "<p id=\"stim\">SUMMIT</p>", "key_press": -1, "type": "PRES_VIS", "word": "summit", "wordID": 1404, "conditions": [18, 1200, "v", 18000], "trial": 1, "serialpos": 14, "trial_type": "single-stim", "trial_index": 69, "time_elapsed": 268544, "internal_node_id": "0.0-51.0"}}, {"uniqueid": "MTK0128:3YJ6NA41JCNE6RQICRO0T1095JHJPE", "current_trial": 70, "dateTime": 1509292447754, "trialdata": {"rt": -1, "stimulus": "<p id=\"stim\">TEMPLE</p>", "key_press": -1, "type": "PRES_VIS", "word": "temple", "wordID": 1447, "conditions": [18, 1200, "v", 18000], "trial": 1, "serialpos": 15, "trial_type": "single-stim", "trial_index": 70, "time_elapsed": 270854, "internal_node_id": "0.0-52.0"}}, {"uniqueid": "MTK0128:3YJ6NA41JCNE6RQICRO0T1095JHJPE", "current_trial": 71, "dateTime": 1509292449929, "trialdata": {"rt": -1, "stimulus": "<p id=\"stim\">GROUND</p>", "key_press": -1, "type": "PRES_VIS", "word": "ground", "wordID": 665, "conditions": [18, 1200, "v", 18000], "trial": 1, "serialpos": 16, "trial_type": "single-stim", "trial_index": 71, "time_elapsed": 273030, "internal_node_id": "0.0-53.0"}}, {"uniqueid": "MTK0128:3YJ6NA41JCNE6RQICRO0T1095JHJPE", "current_trial": 72, "dateTime": 1509292452178, "trialdata": {"rt": -1, "stimulus": "<p id=\"stim\">NAPKIN</p>", "key_press": -1, "type": "PRES_VIS", "word": "napkin", "wordID": 936, "conditions": [18, 1200, "v", 18000], "trial": 1, "serialpos": 17, "trial_type": "single-stim", "trial_index": 72, "time_elapsed": 275278, "internal_node_id": "0.0-54.0"}}, {"uniqueid": "MTK0128:3YJ6NA41JCNE6RQICRO0T1095JHJPE", "current_trial": 73, "dateTime": 1509292454417, "trialdata": {"rt": -1, "stimulus": "", "key_press": -1, "type": "PRE_RECALL_DELAY", "trial_type": "single-stim", "trial_index": 73, "time_elapsed": 277517, "internal_node_id": "0.0-55.0-0.0"}}, {"uniqueid": "MTK0128:3YJ6NA41JCNE6RQICRO0T1095JHJPE", "current_trial": 74, "dateTime": 1509292454925, "trialdata": {"rt": -1000, "stimulus": "/static/audio/400Hz.wav", "key_press": -1, "type": "PRE_RECALL_ALERT", "trial_type": "single-audio", "trial_index": 74, "time_elapsed": 278026, "internal_node_id": "0.0-56.0"}}, {"uniqueid": "MTK0128:3YJ6NA41JCNE6RQICRO0T1095JHJPE", "current_trial": 75, "dateTime": 1509292514931, "trialdata": {"rt": [3447, 4087, 6071, 7703, 10495, 15503, 19047, 29095], "recwords": ["napkin", "glove", "blackboard", "student", "judge", "crayon", "lion", "stove"], "type": "FREE_RECALL", "conditions": [18, 1200, "v", 18000], "trial": 1, "trial_type": "free-recall", "trial_index": 75, "time_elapsed": 338029, "internal_node_id": "0.0-57.0-0.0"}}, {"uniqueid": "MTK0128:3YJ6NA41JCNE6RQICRO0T1095JHJPE", "current_trial": 76, "dateTime": 1509292518655, "trialdata": {"rt": 1723, "key_press": 13, "type": "INSTRUCTIONS", "trial_type": "text", "trial_index": 76, "time_elapsed": 341756, "internal_node_id": "0.0-58.0"}}, {"uniqueid": "MTK0128:3YJ6NA41JCNE6RQICRO0T1095JHJPE", "current_trial": 77, "dateTime": 1509292543659, "trialdata": {"rt": [2454, 4437, 7037, 9637, 11997, 14581, 17989, 19909, 22021], "responses": ["16", "16", "21", "13", "17", "12", "17", "14", "16"], "num1": [7, 6, 9, 4, 2, 3, 8, 4, 2, 3], "num2": [4, 9, 7, 3, 8, 2, 4, 5, 6, 8], "num3": [5, 1, 4, 6, 7, 7, 5, 5, 8, 9], "type": "DISTRACTOR", "conditions": [12, 1600, "v", 24000], "trial": 2, "trial_type": "math-distractor", "trial_index": 77, "time_elapsed": 366760, "internal_node_id": "0.0-59.0"}}, {"uniqueid": "MTK0128:3YJ6NA41JCNE6RQICRO0T1095JHJPE", "current_trial": 78, "dateTime": 1509292546662, "trialdata": {"rt": -1, "stimulus": "<p id=\"stim\">10</p>", "key_press": -1, "trial_type": "single-stim", "trial_index": 78, "time_elapsed": 369761, "internal_node_id": "0.0-60.0-0.0"}}, {"uniqueid": "MTK0128:3YJ6NA41JCNE6RQICRO0T1095JHJPE", "current_trial": 79, "dateTime": 1509292547663, "trialdata": {"rt": -1, "stimulus": "<p id=\"stim\">9</p>", "key_press": -1, "trial_type": "single-stim", "trial_index": 79, "time_elapsed": 370764, "internal_node_id": "0.0-60.0-1.0"}}, {"uniqueid": "MTK0128:3YJ6NA41JCNE6RQICRO0T1095JHJPE", "current_trial": 80, "dateTime": 1509292548664, "trialdata": {"rt": -1, "stimulus": "<p id=\"stim\">8</p>", "key_press": -1, "trial_type": "single-stim", "trial_index": 80, "time_elapsed": 371764, "internal_node_id": "0.0-60.0-2.0"}}, {"uniqueid": "MTK0128:3YJ6NA41JCNE6RQICRO0T1095JHJPE", "current_trial": 81, "dateTime": 1509292549664, "trialdata": {"rt": -1, "stimulus": "<p id=\"stim\">7</p>", "key_press": -1, "trial_type": "single-stim", "trial_index": 81, "time_elapsed": 372765, "internal_node_id": "0.0-60.0-3.0"}}, {"uniqueid": "MTK0128:3YJ6NA41JCNE6RQICRO0T1095JHJPE", "current_trial": 82, "dateTime": 1509292550666, "trialdata": {"rt": -1, "stimulus": "<p id=\"stim\">6</p>", "key_press": -1, "trial_type": "single-stim", "trial_index": 82, "time_elapsed": 373766, "internal_node_id": "0.0-60.0-4.0"}}, {"uniqueid": "MTK0128:3YJ6NA41JCNE6RQICRO0T1095JHJPE", "current_trial": 83, "dateTime": 1509292551668, "trialdata": {"rt": -1, "stimulus": "<p id=\"stim\">5</p>", "key_press": -1, "trial_type": "single-stim", "trial_index": 83, "time_elapsed": 374768, "internal_node_id": "0.0-60.0-5.0"}}, {"uniqueid": "MTK0128:3YJ6NA41JCNE6RQICRO0T1095JHJPE", "current_trial": 84, "dateTime": 1509292552668, "trialdata": {"rt": -1, "stimulus": "<p id=\"stim\">4</p>", "key_press": -1, "trial_type": "single-stim", "trial_index": 84, "time_elapsed": 375769, "internal_node_id": "0.0-60.0-6.0"}}, {"uniqueid": "MTK0128:3YJ6NA41JCNE6RQICRO0T1095JHJPE", "current_trial": 85, "dateTime": 1509292553669, "trialdata": {"rt": -1, "stimulus": "<p id=\"stim\">3</p>", "key_press": -1, "trial_type": "single-stim", "trial_index": 85, "time_elapsed": 376770, "internal_node_id": "0.0-60.0-7.0"}}, {"uniqueid": "MTK0128:3YJ6NA41JCNE6RQICRO0T1095JHJPE", "current_trial": 86, "dateTime": 1509292554670, "trialdata": {"rt": -1, "stimulus": "<p id=\"stim\">2</p>", "key_press": -1, "trial_type": "single-stim", "trial_index": 86, "time_elapsed": 377771, "internal_node_id": "0.0-60.0-8.0"}}, {"uniqueid": "MTK0128:3YJ6NA41JCNE6RQICRO0T1095JHJPE", "current_trial": 87, "dateTime": 1509292555672, "trialdata": {"rt": -1, "stimulus": "<p id=\"stim\">1</p>", "key_press": -1, "trial_type": "single-stim", "trial_index": 87, "time_elapsed": 378772, "internal_node_id": "0.0-60.0-9.0"}}, {"uniqueid": "MTK0128:3YJ6NA41JCNE6RQICRO0T1095JHJPE", "current_trial": 88, "dateTime": 1509292557173, "trialdata": {"rt": -1, "stimulus": "<p id=\"stim\">+</p>", "key_press": -1, "type": "FIXATION", "trial_type": "single-stim", "trial_index": 88, "time_elapsed": 380273, "internal_node_id": "0.0-61.0-0.0"}}, {"uniqueid": "MTK0128:3YJ6NA41JCNE6RQICRO0T1095JHJPE", "current_trial": 89, "dateTime": 1509292558774, "trialdata": {"rt": -1, "stimulus": "<p id=\"stim\">JAPAN</p>", "key_press": -1, "type": "PRES_VIS", "word": "japan", "wordID": 748, "conditions": [12, 1600, "v", 24000], "trial": 2, "serialpos": 0, "trial_type": "single-stim", "trial_index": 89, "time_elapsed": 381875, "internal_node_id": "0.0-62.0"}}, {"uniqueid": "MTK0128:3YJ6NA41JCNE6RQICRO0T1095JHJPE", "current_trial": 90, "dateTime": 1509292561390, "trialdata": {"rt": -1, "stimulus": "<p id=\"stim\">RADISH</p>", "key_press": -1, "type": "PRES_VIS", "word": "radish", "wordID": 1157, "conditions": [12, 1600, "v", 24000], "trial": 2, "serialpos": 1, "trial_type": "single-stim", "trial_index": 90, "time_elapsed": 384491, "internal_node_id": "0.0-63.0"}}, {"uniqueid": "MTK0128:3YJ6NA41JCNE6RQICRO0T1095JHJPE", "current_trial": 91, "dateTime": 1509292563892, "trialdata": {"rt": -1, "stimulus": "<p id=\"stim\">PENGUIN</p>", "key_press": -1, "type": "PRES_VIS", "word": "penguin", "wordID": 1043, "conditions": [12, 1600, "v", 24000], "trial": 2, "serialpos": 2, "trial_type": "single-stim", "trial_index": 91, "time_elapsed": 386993, "internal_node_id": "0.0-64.0"}}, {"uniqueid": "MTK0128:3YJ6NA41JCNE6RQICRO0T1095JHJPE", "current_trial": 92, "dateTime": 1509292566310, "trialdata": {"rt": -1, "stimulus": "<p id=\"stim\">CHILD</p>", "key_press": -1, "type": "PRES_VIS", "word": "child", "wordID": 298, "conditions": [12, 1600, "v", 24000], "trial": 2, "serialpos": 3, "trial_type": "single-stim", "trial_index": 92, "time_elapsed": 389411, "internal_node_id": "0.0-65.0"}}, {"uniqueid": "MTK0128:3YJ6NA41JCNE6RQICRO0T1095JHJPE", "current_trial": 93, "dateTime": 1509292568997, "trialdata": {"rt": -1, "stimulus": "<p id=\"stim\">POLICE</p>", "key_press": -1, "type": "PRES_VIS", "word": "police", "wordID": 1097, "conditions": [12, 1600, "v", 24000], "trial": 2, "serialpos": 4, "trial_type": "single-stim", "trial_index": 93, "time_elapsed": 392098, "internal_node_id": "0.0-66.0"}}, {"uniqueid": "MTK0128:3YJ6NA41JCNE6RQICRO0T1095JHJPE", "current_trial": 94, "dateTime": 1509292571456, "trialdata": {"rt": -1, "stimulus": "<p id=\"stim\">RAFT</p>", "key_press": -1, "type": "PRES_VIS", "word": "raft", "wordID": 1158, "conditions": [12, 1600, "v", 24000], "trial": 2, "serialpos": 5, "trial_type": "single-stim", "trial_index": 94, "time_elapsed": 394557, "internal_node_id": "0.0-67.0"}}, {"uniqueid": "MTK0128:3YJ6NA41JCNE6RQICRO0T1095JHJPE", "current_trial": 95, "dateTime": 1509292574047, "trialdata": {"rt": -1, "stimulus": "<p id=\"stim\">MARSH</p>", "key_press": -1, "type": "PRES_VIS", "word": "marsh", "wordID": 873, "conditions": [12, 1600, "v", 24000], "trial": 2, "serialpos": 6, "trial_type": "single-stim", "trial_index": 95, "time_elapsed": 397147, "internal_node_id": "0.0-68.0"}}, {"uniqueid": "MTK0128:3YJ6NA41JCNE6RQICRO0T1095JHJPE", "current_trial": 96, "dateTime": 1509292576822, "trialdata": {"rt": -1, "stimulus": "<p id=\"stim\">LAGOON</p>", "key_press": -1, "type": "PRES_VIS", "word": "lagoon", "wordID": 794, "conditions": [12, 1600, "v", 24000], "trial": 2, "serialpos": 7, "trial_type": "single-stim", "trial_index": 96, "time_elapsed": 399923, "internal_node_id": "0.0-69.0"}}, {"uniqueid": "MTK0128:3YJ6NA41JCNE6RQICRO0T1095JHJPE", "current_trial": 97, "dateTime": 1509292579591, "trialdata": {"rt": -1, "stimulus": "<p id=\"stim\">HELMET</p>", "key_press": -1, "type": "PRES_VIS", "word": "helmet", "wordID": 701, "conditions": [12, 1600, "v", 24000], "trial": 2, "serialpos": 8, "trial_type": "single-stim", "trial_index": 97, "time_elapsed": 402691, "internal_node_id": "0.0-70.0"}}, {"uniqueid": "MTK0128:3YJ6NA41JCNE6RQICRO0T1095JHJPE", "current_trial": 98, "dateTime": 1509292582049, "trialdata": {"rt": -1, "stimulus": "<p id=\"stim\">CUSTARD</p>", "key_press": -1, "type": "PRES_VIS", "word": "custard", "wordID": 428, "conditions": [12, 1600, "v", 24000], "trial": 2, "serialpos": 9, "trial_type": "single-stim", "trial_index": 98, "time_elapsed": 405149, "internal_node_id": "0.0-71.0"}}, {"uniqueid": "MTK0128:3YJ6NA41JCNE6RQICRO0T1095JHJPE", "current_trial": 99, "dateTime": 1509292584554, "trialdata": {"rt": -1, "stimulus": "<p id=\"stim\">DOLPHIN</p>", "key_press": -1, "type": "PRES_VIS", "word": "dolphin", "wordID": 482, "conditions": [12, 1600, "v", 24000], "trial": 2, "serialpos": 10, "trial_type": "single-stim", "trial_index": 99, "time_elapsed": 407655, "internal_node_id": "0.0-72.0"}}, {"uniqueid": "MTK0128:3YJ6NA41JCNE6RQICRO0T1095JHJPE", "current_trial": 100, "dateTime": 1509292586964, "trialdata": {"rt": -1, "stimulus": "<p id=\"stim\">COMET</p>", "key_press": -1, "type": "PRES_VIS", "word": "comet", "wordID": 352, "conditions": [12, 1600, "v", 24000], "trial": 2, "serialpos": 11, "trial_type": "single-stim", "trial_index": 100, "time_elapsed": 410065, "internal_node_id": "0.0-73.0"}}, {"uniqueid": "MTK0128:3YJ6NA41JCNE6RQICRO0T1095JHJPE", "current_trial": 101, "dateTime": 1509292589404, "trialdata": {"rt": -1, "stimulus": "", "key_press": -1, "type": "PRE_RECALL_DELAY", "trial_type": "single-stim", "trial_index": 101, "time_elapsed": 412504, "internal_node_id": "0.0-74.0-0.0"}}, {"uniqueid": "MTK0128:3YJ6NA41JCNE6RQICRO0T1095JHJPE", "current_trial": 102, "dateTime": 1509292589904, "trialdata": {"rt": -1000, "stimulus": "/static/audio/400Hz.wav", "key_press": -1, "type": "PRE_RECALL_ALERT", "trial_type": "single-audio", "trial_index": 102, "time_elapsed": 413005, "internal_node_id": "0.0-75.0"}}, {"uniqueid": "MTK0128:3YJ6NA41JCNE6RQICRO0T1095JHJPE", "current_trial": 103, "dateTime": 1509292649910, "trialdata": {"rt": [1700, 4028, 6868, 10789, 32252, 37364, 49188], "recwords": ["comet", "radish", "student", "marsh", "judge", "radish", "glove"], "type": "FREE_RECALL", "conditions": [12, 1600, "v", 24000], "trial": 2, "trial_type": "free-recall", "trial_index": 103, "time_elapsed": 473008, "internal_node_id": "0.0-76.0-0.0"}}, {"uniqueid": "MTK0128:3YJ6NA41JCNE6RQICRO0T1095JHJPE", "current_trial": 104, "dateTime": 1509292653047, "trialdata": {"rt": 1136, "key_press": 13, "type": "INSTRUCTIONS", "trial_type": "text", "trial_index": 104, "time_elapsed": 476147, "internal_node_id": "0.0-77.0"}}, {"uniqueid": "MTK0128:3YJ6NA41JCNE6RQICRO0T1095JHJPE", "current_trial": 105, "dateTime": 1509292679050, "trialdata": {"rt": [3821, 5276, 6917, 9253, 11629, 15317, 17077, 19829, 22085], "responses": ["15", "14", "12", "13", "19", "23", "16", "17", "21"], "num1": [2, 8, 2, 1, 6, 6, 1, 6, 9, 4], "num2": [7, 2, 3, 8, 5, 7, 6, 3, 6, 6], "num3": [6, 4, 7, 4, 8, 8, 9, 8, 5, 2], "type": "DISTRACTOR", "conditions": [12, 1600, "a", 24000], "trial": 3, "trial_type": "math-distractor", "trial_index": 105, "time_elapsed": 502151, "internal_node_id": "0.0-78.0"}}, {"uniqueid": "MTK0128:3YJ6NA41JCNE6RQICRO0T1095JHJPE", "current_trial": 106, "dateTime": 1509292682051, "trialdata": {"rt": -1, "stimulus": "<p id=\"stim\">10</p>", "key_press": -1, "trial_type": "single-stim", "trial_index": 106, "time_elapsed": 505152, "internal_node_id": "0.0-79.0-0.0"}}, {"uniqueid": "MTK0128:3YJ6NA41JCNE6RQICRO0T1095JHJPE", "current_trial": 107, "dateTime": 1509292683053, "trialdata": {"rt": -1, "stimulus": "<p id=\"stim\">9</p>", "key_press": -1, "trial_type": "single-stim", "trial_index": 107, "time_elapsed": 506153, "internal_node_id": "0.0-79.0-1.0"}}, {"uniqueid": "MTK0128:3YJ6NA41JCNE6RQICRO0T1095JHJPE", "current_trial": 108, "dateTime": 1509292684055, "trialdata": {"rt": -1, "stimulus": "<p id=\"stim\">8</p>", "key_press": -1, "trial_type": "single-stim", "trial_index": 108, "time_elapsed": 507155, "internal_node_id": "0.0-79.0-2.0"}}, {"uniqueid": "MTK0128:3YJ6NA41JCNE6RQICRO0T1095JHJPE", "current_trial": 109, "dateTime": 1509292685056, "trialdata": {"rt": -1, "stimulus": "<p id=\"stim\">7</p>", "key_press": -1, "trial_type": "single-stim", "trial_index": 109, "time_elapsed": 508156, "internal_node_id": "0.0-79.0-3.0"}}, {"uniqueid": "MTK0128:3YJ6NA41JCNE6RQICRO0T1095JHJPE", "current_trial": 110, "dateTime": 1509292686058, "trialdata": {"rt": -1, "stimulus": "<p id=\"stim\">6</p>", "key_press": -1, "trial_type": "single-stim", "trial_index": 110, "time_elapsed": 509157, "internal_node_id": "0.0-79.0-4.0"}}, {"uniqueid": "MTK0128:3YJ6NA41JCNE6RQICRO0T1095JHJPE", "current_trial": 111, "dateTime": 1509292687059, "trialdata": {"rt": -1, "stimulus": "<p id=\"stim\">5</p>", "key_press": -1, "trial_type": "single-stim", "trial_index": 111, "time_elapsed": 510159, "internal_node_id": "0.0-79.0-5.0"}}, {"uniqueid": "MTK0128:3YJ6NA41JCNE6RQICRO0T1095JHJPE", "current_trial": 112, "dateTime": 1509292688061, "trialdata": {"rt": -1, "stimulus": "<p id=\"stim\">4</p>", "key_press": -1, "trial_type": "single-stim", "trial_index": 112, "time_elapsed": 511161, "internal_node_id": "0.0-79.0-6.0"}}, {"uniqueid": "MTK0128:3YJ6NA41JCNE6RQICRO0T1095JHJPE", "current_trial": 113, "dateTime": 1509292689062, "trialdata": {"rt": -1, "stimulus": "<p id=\"stim\">3</p>", "key_press": -1, "trial_type": "single-stim", "trial_index": 113, "time_elapsed": 512162, "internal_node_id": "0.0-79.0-7.0"}}, {"uniqueid": "MTK0128:3YJ6NA41JCNE6RQICRO0T1095JHJPE", "current_trial": 114, "dateTime": 1509292690063, "trialdata": {"rt": -1, "stimulus": "<p id=\"stim\">2</p>", "key_press": -1, "trial_type": "single-stim", "trial_index": 114, "time_elapsed": 513163, "internal_node_id": "0.0-79.0-8.0"}}, {"uniqueid": "MTK0128:3YJ6NA41JCNE6RQICRO0T1095JHJPE", "current_trial": 115, "dateTime": 1509292691063, "trialdata": {"rt": -1, "stimulus": "<p id=\"stim\">1</p>", "key_press": -1, "trial_type": "single-stim", "trial_index": 115, "time_elapsed": 514164, "internal_node_id": "0.0-79.0-9.0"}}, {"uniqueid": "MTK0128:3YJ6NA41JCNE6RQICRO0T1095JHJPE", "current_trial": 116, "dateTime": 1509292692565, "trialdata": {"rt": -1, "stimulus": "<p id=\"stim\">+</p>", "key_press": -1, "type": "FIXATION", "trial_type": "single-stim", "trial_index": 116, "time_elapsed": 515665, "internal_node_id": "0.0-80.0-0.0"}}, {"uniqueid": "MTK0128:3YJ6NA41JCNE6RQICRO0T1095JHJPE", "current_trial": 117, "dateTime": 1509292695322, "trialdata": {"rt": -1000, "stimulus": "/static/audio/wordpool/LEOPARD.wav", "key_press": -1, "type": "PRES_AUD", "word": "leopard", "wordID": 811, "conditions": [12, 1600, "a", 24000], "trial": 3, "serialpos": 0, "trial_type": "single-audio", "trial_index": 117, "time_elapsed": 518423, "internal_node_id": "0.0-81.0"}}, {"uniqueid": "MTK0128:3YJ6NA41JCNE6RQICRO0T1095JHJPE", "current_trial": 118, "dateTime": 1509292697765, "trialdata": {"rt": -1000, "stimulus": "/static/audio/wordpool/VICTIM.wav", "key_press": -1, "type": "PRES_AUD", "word": "victim", "wordID": 1561, "conditions": [12, 1600, "a", 24000], "trial": 3, "serialpos": 1, "trial_type": "single-audio", "trial_index": 118, "time_elapsed": 520865, "internal_node_id": "0.0-82.0"}}, {"uniqueid": "MTK0128:3YJ6NA41JCNE6RQICRO0T1095JHJPE", "current_trial": 119, "dateTime": 1509292700255, "trialdata": {"rt": -1000, "stimulus": "/static/audio/wordpool/SUSPECT.wav", "key_press": -1, "type": "PRES_AUD", "word": "suspect", "wordID": 1414, "conditions": [12, 1600, "a", 24000], "trial": 3, "serialpos": 2, "trial_type": "single-audio", "trial_index": 119, "time_elapsed": 523356, "internal_node_id": "0.0-83.0"}}, {"uniqueid": "MTK0128:3YJ6NA41JCNE6RQICRO0T1095JHJPE", "current_trial": 120, "dateTime": 1509292702775, "trialdata": {"rt": -1000, "stimulus": "/static/audio/wordpool/CRUTCH.wav", "key_press": -1, "type": "PRES_AUD", "word": "crutch", "wordID": 416, "conditions": [12, 1600, "a", 24000], "trial": 3, "serialpos": 3, "trial_type": "single-audio", "trial_index": 120, "time_elapsed": 525876, "internal_node_id": "0.0-84.0"}}, {"uniqueid": "MTK0128:3YJ6NA41JCNE6RQICRO0T1095JHJPE", "current_trial": 121, "dateTime": 1509292705278, "trialdata": {"rt": -1000, "stimulus": "/static/audio/wordpool/DRAGON.wav", "key_press": -1, "type": "PRES_AUD", "word": "dragon", "wordID": 491, "conditions": [12, 1600, "a", 24000], "trial": 3, "serialpos": 4, "trial_type": "single-audio", "trial_index": 121, "time_elapsed": 528379, "internal_node_id": "0.0-85.0"}}, {"uniqueid": "MTK0128:3YJ6NA41JCNE6RQICRO0T1095JHJPE", "current_trial": 122, "dateTime": 1509292707695, "trialdata": {"rt": -1000, "stimulus": "/static/audio/wordpool/TWISTER.wav", "key_press": -1, "type": "PRES_AUD", "word": "twister", "wordID": 1529, "conditions": [12, 1600, "a", 24000], "trial": 3, "serialpos": 5, "trial_type": "single-audio", "trial_index": 122, "time_elapsed": 530796, "internal_node_id": "0.0-86.0"}}, {"uniqueid": "MTK0128:3YJ6NA41JCNE6RQICRO0T1095JHJPE", "current_trial": 123, "dateTime": 1509292710351, "trialdata": {"rt": -1000, "stimulus": "/static/audio/wordpool/OUTFIT.wav", "key_press": -1, "type": "PRES_AUD", "word": "outfit", "wordID": 987, "conditions": [12, 1600, "a", 24000], "trial": 3, "serialpos": 6, "trial_type": "single-audio", "trial_index": 123, "time_elapsed": 533450, "internal_node_id": "0.0-87.0"}}, {"uniqueid": "MTK0128:3YJ6NA41JCNE6RQICRO0T1095JHJPE", "current_trial": 124, "dateTime": 1509292712786, "trialdata": {"rt": -1000, "stimulus": "/static/audio/wordpool/GOBLIN.wav", "key_press": -1, "type": "PRES_AUD", "word": "goblin", "wordID": 644, "conditions": [12, 1600, "a", 24000], "trial": 3, "serialpos": 7, "trial_type": "single-audio", "trial_index": 124, "time_elapsed": 535886, "internal_node_id": "0.0-88.0"}}, {"uniqueid": "MTK0128:3YJ6NA41JCNE6RQICRO0T1095JHJPE", "current_trial": 125, "dateTime": 1509292715353, "trialdata": {"rt": -1000, "stimulus": "/static/audio/wordpool/WARDROBE.wav", "key_press": -1, "type": "PRES_AUD", "word": "wardrobe", "wordID": 1586, "conditions": [12, 1600, "a", 24000], "trial": 3, "serialpos": 8, "trial_type": "single-audio", "trial_index": 125, "time_elapsed": 538454, "internal_node_id": "0.0-89.0"}}, {"uniqueid": "MTK0128:3YJ6NA41JCNE6RQICRO0T1095JHJPE", "current_trial": 126, "dateTime": 1509292717941, "trialdata": {"rt": -1000, "stimulus": "/static/audio/wordpool/SWITCH.wav", "key_press": -1, "type": "PRES_AUD", "word": "switch", "wordID": 1421, "conditions": [12, 1600, "a", 24000], "trial": 3, "serialpos": 9, "trial_type": "single-audio", "trial_index": 126, "time_elapsed": 541042, "internal_node_id": "0.0-90.0"}}, {"uniqueid": "MTK0128:3YJ6NA41JCNE6RQICRO0T1095JHJPE", "current_trial": 127, "dateTime": 1509292720725, "trialdata": {"rt": -1000, "stimulus": "/static/audio/wordpool/HOOK.wav", "key_press": -1, "type": "PRES_AUD", "word": "hook", "wordID": 714, "conditions": [12, 1600, "a", 24000], "trial": 3, "serialpos": 10, "trial_type": "single-audio", "trial_index": 127, "time_elapsed": 543826, "internal_node_id": "0.0-91.0"}}, {"uniqueid": "MTK0128:3YJ6NA41JCNE6RQICRO0T1095JHJPE", "current_trial": 128, "dateTime": 1509292723336, "trialdata": {"rt": -1000, "stimulus": "/static/audio/wordpool/CASHIER.wav", "key_press": -1, "type": "PRES_AUD", "word": "cashier", "wordID": 253, "conditions": [12, 1600, "a", 24000], "trial": 3, "serialpos": 11, "trial_type": "single-audio", "trial_index": 128, "time_elapsed": 546437, "internal_node_id": "0.0-92.0"}}, {"uniqueid": "MTK0128:3YJ6NA41JCNE6RQICRO0T1095JHJPE", "current_trial": 129, "dateTime": 1509292724655, "trialdata": {"rt": -1, "stimulus": "", "key_press": -1, "type": "PRE_RECALL_DELAY", "trial_type": "single-stim", "trial_index": 129, "time_elapsed": 547756, "internal_node_id": "0.0-93.0-0.0"}}, {"uniqueid": "MTK0128:3YJ6NA41JCNE6RQICRO0T1095JHJPE", "current_trial": 130, "dateTime": 1509292725158, "trialdata": {"rt": -1000, "stimulus": "/static/audio/400Hz.wav", "key_press": -1, "type": "PRE_RECALL_ALERT", "trial_type": "single-audio", "trial_index": 130, "time_elapsed": 548259, "internal_node_id": "0.0-94.0"}}, {"uniqueid": "MTK0128:3YJ6NA41JCNE6RQICRO0T1095JHJPE", "current_trial": 131, "dateTime": 1509292785165, "trialdata": {"rt": [1703, 3878, 8078, 11631, 14278, 15982, 18031, 19639], "recwords": ["cashier", "goblin", "switch", "judge", "blackboard", "goblin", "switch", "cashier"], "type": "FREE_RECALL", "conditions": [12, 1600, "a", 24000], "trial": 3, "trial_type": "free-recall", "trial_index": 131, "time_elapsed": 608263, "internal_node_id": "0.0-95.0-0.0"}}, {"uniqueid": "MTK0128:3YJ6NA41JCNE6RQICRO0T1095JHJPE", "current_trial": 132, "dateTime": 1509292788744, "trialdata": {"rt": 1578, "key_press": 13, "type": "INSTRUCTIONS", "trial_type": "text", "trial_index": 132, "time_elapsed": 611844, "internal_node_id": "0.0-96.0"}}, {"uniqueid": "MTK0128:3YJ6NA41JCNE6RQICRO0T1095JHJPE", "current_trial": 133, "dateTime": 1509292802746, "trialdata": {"rt": [4782, 6638, 9886], "responses": ["17", "21", "10"], "num1": [7, 8, 2, 9], "num2": [8, 8, 3, 5], "num3": [2, 5, 5, 8], "type": "DISTRACTOR", "conditions": [12, 1600, "v", 12000], "trial": 4, "trial_type": "math-distractor", "trial_index": 133, "time_elapsed": 625846, "internal_node_id": "0.0-97.0"}}, {"uniqueid": "MTK0128:3YJ6NA41JCNE6RQICRO0T1095JHJPE", "current_trial": 134, "dateTime": 1509292805748, "trialdata": {"rt": -1, "stimulus": "<p id=\"stim\">10</p>", "key_press": -1, "trial_type": "single-stim", "trial_index": 134, "time_elapsed": 628848, "internal_node_id": "0.0-98.0-0.0"}}, {"uniqueid": "MTK0128:3YJ6NA41JCNE6RQICRO0T1095JHJPE", "current_trial": 135, "dateTime": 1509292806749, "trialdata": {"rt": -1, "stimulus": "<p id=\"stim\">9</p>", "key_press": -1, "trial_type": "single-stim", "trial_index": 135, "time_elapsed": 629849, "internal_node_id": "0.0-98.0-1.0"}}, {"uniqueid": "MTK0128:3YJ6NA41JCNE6RQICRO0T1095JHJPE", "current_trial": 136, "dateTime": 1509292807751, "trialdata": {"rt": -1, "stimulus": "<p id=\"stim\">8</p>", "key_press": -1, "trial_type": "single-stim", "trial_index": 136, "time_elapsed": 630850, "internal_node_id": "0.0-98.0-2.0"}}, {"uniqueid": "MTK0128:3YJ6NA41JCNE6RQICRO0T1095JHJPE", "current_trial": 137, "dateTime": 1509292808753, "trialdata": {"rt": -1, "stimulus": "<p id=\"stim\">7</p>", "key_press": -1, "trial_type": "single-stim", "trial_index": 137, "time_elapsed": 631853, "internal_node_id": "0.0-98.0-3.0"}}, {"uniqueid": "MTK0128:3YJ6NA41JCNE6RQICRO0T1095JHJPE", "current_trial": 138, "dateTime": 1509292809754, "trialdata": {"rt": -1, "stimulus": "<p id=\"stim\">6</p>", "key_press": -1, "trial_type": "single-stim", "trial_index": 138, "time_elapsed": 632854, "internal_node_id": "0.0-98.0-4.0"}}, {"uniqueid": "MTK0128:3YJ6NA41JCNE6RQICRO0T1095JHJPE", "current_trial": 139, "dateTime": 1509292810755, "trialdata": {"rt": -1, "stimulus": "<p id=\"stim\">5</p>", "key_press": -1, "trial_type": "single-stim", "trial_index": 139, "time_elapsed": 633855, "internal_node_id": "0.0-98.0-5.0"}}, {"uniqueid": "MTK0128:3YJ6NA41JCNE6RQICRO0T1095JHJPE", "current_trial": 140, "dateTime": 1509292811756, "trialdata": {"rt": -1, "stimulus": "<p id=\"stim\">4</p>", "key_press": -1, "trial_type": "single-stim", "trial_index": 140, "time_elapsed": 634857, "internal_node_id": "0.0-98.0-6.0"}}, {"uniqueid": "MTK0128:3YJ6NA41JCNE6RQICRO0T1095JHJPE", "current_trial": 141, "dateTime": 1509292812758, "trialdata": {"rt": -1, "stimulus": "<p id=\"stim\">3</p>", "key_press": -1, "trial_type": "single-stim", "trial_index": 141, "time_elapsed": 635858, "internal_node_id": "0.0-98.0-7.0"}}, {"uniqueid": "MTK0128:3YJ6NA41JCNE6RQICRO0T1095JHJPE", "current_trial": 142, "dateTime": 1509292813758, "trialdata": {"rt": -1, "stimulus": "<p id=\"stim\">2</p>", "key_press": -1, "trial_type": "single-stim", "trial_index": 142, "time_elapsed": 636859, "internal_node_id": "0.0-98.0-8.0"}}, {"uniqueid": "MTK0128:3YJ6NA41JCNE6RQICRO0T1095JHJPE", "current_trial": 143, "dateTime": 1509292814760, "trialdata": {"rt": -1, "stimulus": "<p id=\"stim\">1</p>", "key_press": -1, "trial_type": "single-stim", "trial_index": 143, "time_elapsed": 637860, "internal_node_id": "0.0-98.0-9.0"}}, {"uniqueid": "MTK0128:3YJ6NA41JCNE6RQICRO0T1095JHJPE", "current_trial": 144, "dateTime": 1509292816261, "trialdata": {"rt": -1, "stimulus": "<p id=\"stim\">+</p>", "key_press": -1, "type": "FIXATION", "trial_type": "single-stim", "trial_index": 144, "time_elapsed": 639361, "internal_node_id": "0.0-99.0-0.0"}}, {"uniqueid": "MTK0128:3YJ6NA41JCNE6RQICRO0T1095JHJPE", "current_trial": 145, "dateTime": 1509292817863, "trialdata": {"rt": -1, "stimulus": "<p id=\"stim\">CLOUD</p>", "key_press": -1, "type": "PRES_VIS", "word": "cloud", "wordID": 327, "conditions": [12, 1600, "v", 12000], "trial": 4, "serialpos": 0, "trial_type": "single-stim", "trial_index": 145, "time_elapsed": 640963, "internal_node_id": "0.0-100.0"}}, {"uniqueid": "MTK0128:3YJ6NA41JCNE6RQICRO0T1095JHJPE", "current_trial": 146, "dateTime": 1509292820403, "trialdata": {"rt": -1, "stimulus": "<p id=\"stim\">LIVER</p>", "key_press": -1, "type": "PRES_VIS", "word": "liver", "wordID": 832, "conditions": [12, 1600, "v", 12000], "trial": 4, "serialpos": 1, "trial_type": "single-stim", "trial_index": 146, "time_elapsed": 643503, "internal_node_id": "0.0-101.0"}}, {"uniqueid": "MTK0128:3YJ6NA41JCNE6RQICRO0T1095JHJPE", "current_trial": 147, "dateTime": 1509292822881, "trialdata": {"rt": -1, "stimulus": "<p id=\"stim\">DRIVER</p>", "key_press": -1, "type": "PRES_VIS", "word": "driver", "wordID": 498, "conditions": [12, 1600, "v", 12000], "trial": 4, "serialpos": 2, "trial_type": "single-stim", "trial_index": 147, "time_elapsed": 645981, "internal_node_id": "0.0-102.0"}}, {"uniqueid": "MTK0128:3YJ6NA41JCNE6RQICRO0T1095JHJPE", "current_trial": 148, "dateTime": 1509292826505, "trialdata": {"rt": -1, "stimulus": "<p id=\"stim\">PARROT</p>", "key_press": -1, "type": "PRES_VIS", "word": "parrot", "wordID": 1014, "conditions": [12, 1600, "v", 12000], "trial": 4, "serialpos": 3, "trial_type": "single-stim", "trial_index": 148, "time_elapsed": 649605, "internal_node_id": "0.0-103.0"}}, {"uniqueid": "MTK0128:3YJ6NA41JCNE6RQICRO0T1095JHJPE", "current_trial": 149, "dateTime": 1509292829206, "trialdata": {"rt": -1, "stimulus": "<p id=\"stim\">SCALPEL</p>", "key_press": -1, "type": "PRES_VIS", "word": "scalpel", "wordID": 1242, "conditions": [12, 1600, "v", 12000], "trial": 4, "serialpos": 4, "trial_type": "single-stim", "trial_index": 149, "time_elapsed": 652306, "internal_node_id": "0.0-104.0"}}, {"uniqueid": "MTK0128:3YJ6NA41JCNE6RQICRO0T1095JHJPE", "current_trial": 150, "dateTime": 1509292831852, "trialdata": {"rt": -1, "stimulus": "<p id=\"stim\">SHOULDER</p>", "key_press": -1, "type": "PRES_VIS", "word": "shoulder", "wordID": 1293, "conditions": [12, 1600, "v", 12000], "trial": 4, "serialpos": 5, "trial_type": "single-stim", "trial_index": 150, "time_elapsed": 654952, "internal_node_id": "0.0-105.0"}}, {"uniqueid": "MTK0128:3YJ6NA41JCNE6RQICRO0T1095JHJPE", "current_trial": 151, "dateTime": 1509292834329, "trialdata": {"rt": -1, "stimulus": "<p id=\"stim\">ANKLE</p>", "key_press": -1, "type": "PRES_VIS", "word": "ankle", "wordID": 23, "conditions": [12, 1600, "v", 12000], "trial": 4, "serialpos": 6, "trial_type": "single-stim", "trial_index": 151, "time_elapsed": 657430, "internal_node_id": "0.0-106.0"}}, {"uniqueid": "MTK0128:3YJ6NA41JCNE6RQICRO0T1095JHJPE", "current_trial": 152, "dateTime": 1509292837041, "trialdata": {"rt": -1, "stimulus": "<p id=\"stim\">GRAVE</p>", "key_press": -1, "type": "PRES_VIS", "word": "grave", "wordID": 657, "conditions": [12, 1600, "v", 12000], "trial": 4, "serialpos": 7, "trial_type": "single-stim", "trial_index": 152, "time_elapsed": 660141, "internal_node_id": "0.0-107.0"}}, {"uniqueid": "MTK0128:3YJ6NA41JCNE6RQICRO0T1095JHJPE", "current_trial": 153, "dateTime": 1509292839626, "trialdata": {"rt": -1, "stimulus": "<p id=\"stim\">SPHINX</p>", "key_press": -1, "type": "PRES_VIS", "word": "sphinx", "wordID": 1348, "conditions": [12, 1600, "v", 12000], "trial": 4, "serialpos": 8, "trial_type": "single-stim", "trial_index": 153, "time_elapsed": 662726, "internal_node_id": "0.0-108.0"}}, {"uniqueid": "MTK0128:3YJ6NA41JCNE6RQICRO0T1095JHJPE", "current_trial": 154, "dateTime": 1509292842031, "trialdata": {"rt": -1, "stimulus": "<p id=\"stim\">RAZOR</p>", "key_press": -1, "type": "PRES_VIS", "word": "razor", "wordID": 1170, "conditions": [12, 1600, "v", 12000], "trial": 4, "serialpos": 9, "trial_type": "single-stim", "trial_index": 154, "time_elapsed": 665132, "internal_node_id": "0.0-109.0"}}, {"uniqueid": "MTK0128:3YJ6NA41JCNE6RQICRO0T1095JHJPE", "current_trial": 155, "dateTime": 1509292844505, "trialdata": {"rt": -1, "stimulus": "<p id=\"stim\">LIGHTNING</p>", "key_press": -1, "type": "PRES_VIS", "word": "lightning", "wordID": 819, "conditions": [12, 1600, "v", 12000], "trial": 4, "serialpos": 10, "trial_type": "single-stim", "trial_index": 155, "time_elapsed": 667605, "internal_node_id": "0.0-110.0"}}, {"uniqueid": "MTK0128:3YJ6NA41JCNE6RQICRO0T1095JHJPE", "current_trial": 156, "dateTime": 1509292846939, "trialdata": {"rt": -1, "stimulus": "<p id=\"stim\">IGLOO</p>", "key_press": -1, "type": "PRES_VIS", "word": "igloo", "wordID": 733, "conditions": [12, 1600, "v", 12000], "trial": 4, "serialpos": 11, "trial_type": "single-stim", "trial_index": 156, "time_elapsed": 670039, "internal_node_id": "0.0-111.0"}}, {"uniqueid": "MTK0128:3YJ6NA41JCNE6RQICRO0T1095JHJPE", "current_trial": 157, "dateTime": 1509292849297, "trialdata": {"rt": -1, "stimulus": "", "key_press": -1, "type": "PRE_RECALL_DELAY", "trial_type": "single-stim", "trial_index": 157, "time_elapsed": 672397, "internal_node_id": "0.0-112.0-0.0"}}, {"uniqueid": "MTK0128:3YJ6NA41JCNE6RQICRO0T1095JHJPE", "current_trial": 158, "dateTime": 1509292849804, "trialdata": {"rt": -1000, "stimulus": "/static/audio/400Hz.wav", "key_press": -1, "type": "PRE_RECALL_ALERT", "trial_type": "single-audio", "trial_index": 158, "time_elapsed": 672905, "internal_node_id": "0.0-113.0"}}, {"uniqueid": "MTK0128:3YJ6NA41JCNE6RQICRO0T1095JHJPE", "current_trial": 159, "dateTime": 1509292909811, "trialdata": {"rt": [4521, 5538, 8034, 12121, 15025, 18642, 43546, 45513], "recwords": ["scalpal", "ankle", "igloo", "sphinx", "shoulder", "lightining", "ankle", "goblin"], "type": "FREE_RECALL", "conditions": [12, 1600, "v", 12000], "trial": 4, "trial_type": "free-recall", "trial_index": 159, "time_elapsed": 732907, "internal_node_id": "0.0-114.0-0.0"}}, {"uniqueid": "MTK0128:3YJ6NA41JCNE6RQICRO0T1095JHJPE", "current_trial": 160, "dateTime": 1509292919559, "trialdata": {"rt": 7747, "key_press": 13, "type": "INSTRUCTIONS", "trial_type": "text", "trial_index": 160, "time_elapsed": 742660, "internal_node_id": "0.0-115.0"}}, {"uniqueid": "MTK0128:3YJ6NA41JCNE6RQICRO0T1095JHJPE", "current_trial": 161, "dateTime": 1509292933561, "trialdata": {"rt": [3678, 6230, 11654], "responses": ["13", "15", "22"], "num1": [2, 8, 7, 7], "num2": [2, 6, 5, 9], "num3": [9, 1, 9, 9], "type": "DISTRACTOR", "conditions": [24, 1600, "a", 12000], "trial": 5, "trial_type": "math-distractor", "trial_index": 161, "time_elapsed": 756661, "internal_node_id": "0.0-116.0"}}, {"uniqueid": "MTK0128:3YJ6NA41JCNE6RQICRO0T1095JHJPE", "current_trial": 162, "dateTime": 1509292936562, "trialdata": {"rt": -1, "stimulus": "<p id=\"stim\">10</p>", "key_press": -1, "trial_type": "single-stim", "trial_index": 162, "time_elapsed": 759662, "internal_node_id": "0.0-117.0-0.0"}}, {"uniqueid": "MTK0128:3YJ6NA41JCNE6RQICRO0T1095JHJPE", "current_trial": 163, "dateTime": 1509292937563, "trialdata": {"rt": -1, "stimulus": "<p id=\"stim\">9</p>", "key_press": -1, "trial_type": "single-stim", "trial_index": 163, "time_elapsed": 760664, "internal_node_id": "0.0-117.0-1.0"}}, {"uniqueid": "MTK0128:3YJ6NA41JCNE6RQICRO0T1095JHJPE", "current_trial": 164, "dateTime": 1509292938565, "trialdata": {"rt": -1, "stimulus": "<p id=\"stim\">8</p>", "key_press": -1, "trial_type": "single-stim", "trial_index": 164, "time_elapsed": 761666, "internal_node_id": "0.0-117.0-2.0"}}, {"uniqueid": "MTK0128:3YJ6NA41JCNE6RQICRO0T1095JHJPE", "current_trial": 165, "dateTime": 1509292939568, "trialdata": {"rt": -1, "stimulus": "<p id=\"stim\">7</p>", "key_press": -1, "trial_type": "single-stim", "trial_index": 165, "time_elapsed": 762668, "internal_node_id": "0.0-117.0-3.0"}}, {"uniqueid": "MTK0128:3YJ6NA41JCNE6RQICRO0T1095JHJPE", "current_trial": 166, "dateTime": 1509292940569, "trialdata": {"rt": -1, "stimulus": "<p id=\"stim\">6</p>", "key_press": -1, "trial_type": "single-stim", "trial_index": 166, "time_elapsed": 763669, "internal_node_id": "0.0-117.0-4.0"}}, {"uniqueid": "MTK0128:3YJ6NA41JCNE6RQICRO0T1095JHJPE", "current_trial": 167, "dateTime": 1509292941570, "trialdata": {"rt": -1, "stimulus": "<p id=\"stim\">5</p>", "key_press": -1, "trial_type": "single-stim", "trial_index": 167, "time_elapsed": 764670, "internal_node_id": "0.0-117.0-5.0"}}, {"uniqueid": "MTK0128:3YJ6NA41JCNE6RQICRO0T1095JHJPE", "current_trial": 168, "dateTime": 1509292942571, "trialdata": {"rt": -1, "stimulus": "<p id=\"stim\">4</p>", "key_press": -1, "trial_type": "single-stim", "trial_index": 168, "time_elapsed": 765671, "internal_node_id": "0.0-117.0-6.0"}}, {"uniqueid": "MTK0128:3YJ6NA41JCNE6RQICRO0T1095JHJPE", "current_trial": 169, "dateTime": 1509292943573, "trialdata": {"rt": -1, "stimulus": "<p id=\"stim\">3</p>", "key_press": -1, "trial_type": "single-stim", "trial_index": 169, "time_elapsed": 766673, "internal_node_id": "0.0-117.0-7.0"}}, {"uniqueid": "MTK0128:3YJ6NA41JCNE6RQICRO0T1095JHJPE", "current_trial": 170, "dateTime": 1509292944574, "trialdata": {"rt": -1, "stimulus": "<p id=\"stim\">2</p>", "key_press": -1, "trial_type": "single-stim", "trial_index": 170, "time_elapsed": 767674, "internal_node_id": "0.0-117.0-8.0"}}, {"uniqueid": "MTK0128:3YJ6NA41JCNE6RQICRO0T1095JHJPE", "current_trial": 171, "dateTime": 1509292945575, "trialdata": {"rt": -1, "stimulus": "<p id=\"stim\">1</p>", "key_press": -1, "trial_type": "single-stim", "trial_index": 171, "time_elapsed": 768675, "internal_node_id": "0.0-117.0-9.0"}}, {"uniqueid": "MTK0128:3YJ6NA41JCNE6RQICRO0T1095JHJPE", "current_trial": 172, "dateTime": 1509292947076, "trialdata": {"rt": -1, "stimulus": "<p id=\"stim\">+</p>", "key_press": -1, "type": "FIXATION", "trial_type": "single-stim", "trial_index": 172, "time_elapsed": 770176, "internal_node_id": "0.0-118.0-0.0"}}, {"uniqueid": "MTK0128:3YJ6NA41JCNE6RQICRO0T1095JHJPE", "current_trial": 173, "dateTime": 1509292949607, "trialdata": {"rt": -1000, "stimulus": "/static/audio/wordpool/TART.wav", "key_press": -1, "type": "PRES_AUD", "word": "tart", "wordID": 1435, "conditions": [24, 1600, "a", 12000], "trial": 5, "serialpos": 0, "trial_type": "single-audio", "trial_index": 173, "time_elapsed": 772708, "internal_node_id": "0.0-119.0"}}, {"uniqueid": "MTK0128:3YJ6NA41JCNE6RQICRO0T1095JHJPE", "current_trial": 174, "dateTime": 1509292952014, "trialdata": {"rt": -1000, "stimulus": "/static/audio/wordpool/JURY.wav", "key_press": -1, "type": "PRES_AUD", "word": "jury", "wordID": 765, "conditions": [24, 1600, "a", 12000], "trial": 5, "serialpos": 1, "trial_type": "single-audio", "trial_index": 174, "time_elapsed": 775115, "internal_node_id": "0.0-120.0"}}, {"uniqueid": "MTK0128:3YJ6NA41JCNE6RQICRO0T1095JHJPE", "current_trial": 175, "dateTime": 1509292954730, "trialdata": {"rt": -1000, "stimulus": "/static/audio/wordpool/BURGLAR.wav", "key_press": -1, "type": "PRES_AUD", "word": "burglar", "wordID": 199, "conditions": [24, 1600, "a", 12000], "trial": 5, "serialpos": 2, "trial_type": "single-audio", "trial_index": 175, "time_elapsed": 777831, "internal_node_id": "0.0-121.0"}}, {"uniqueid": "MTK0128:3YJ6NA41JCNE6RQICRO0T1095JHJPE", "current_trial": 176, "dateTime": 1509292957164, "trialdata": {"rt": -1000, "stimulus": "/static/audio/wordpool/HORNET.wav", "key_press": -1, "type": "PRES_AUD", "word": "hornet", "wordID": 717, "conditions": [24, 1600, "a", 12000], "trial": 5, "serialpos": 3, "trial_type": "single-audio", "trial_index": 176, "time_elapsed": 780265, "internal_node_id": "0.0-122.0"}}, {"uniqueid": "MTK0128:3YJ6NA41JCNE6RQICRO0T1095JHJPE", "current_trial": 177, "dateTime": 1509292959799, "trialdata": {"rt": -1000, "stimulus": "/static/audio/wordpool/SILK.wav", "key_press": -1, "type": "PRES_AUD", "word": "silk", "wordID": 1306, "conditions": [24, 1600, "a", 12000], "trial": 5, "serialpos": 4, "trial_type": "single-audio", "trial_index": 177, "time_elapsed": 782900, "internal_node_id": "0.0-123.0"}}, {"uniqueid": "MTK0128:3YJ6NA41JCNE6RQICRO0T1095JHJPE", "current_trial": 178, "dateTime": 1509292962227, "trialdata": {"rt": -1000, "stimulus": "/static/audio/wordpool/CONTRACT.wav", "key_press": -1, "type": "PRES_AUD", "word": "contract", "wordID": 367, "conditions": [24, 1600, "a", 12000], "trial": 5, "serialpos": 5, "trial_type": "single-audio", "trial_index": 178, "time_elapsed": 785327, "internal_node_id": "0.0-124.0"}}, {"uniqueid": "MTK0128:3YJ6NA41JCNE6RQICRO0T1095JHJPE", "current_trial": 179, "dateTime": 1509292964840, "trialdata": {"rt": -1000, "stimulus": "/static/audio/wordpool/TURNIP.wav", "key_press": -1, "type": "PRES_AUD", "word": "turnip", "wordID": 1520, "conditions": [24, 1600, "a", 12000], "trial": 5, "serialpos": 6, "trial_type": "single-audio", "trial_index": 179, "time_elapsed": 787941, "internal_node_id": "0.0-125.0"}}, {"uniqueid": "MTK0128:3YJ6NA41JCNE6RQICRO0T1095JHJPE", "current_trial": 180, "dateTime": 1509292967271, "trialdata": {"rt": -1000, "stimulus": "/static/audio/wordpool/MILK.wav", "key_press": -1, "type": "PRES_AUD", "word": "milk", "wordID": 894, "conditions": [24, 1600, "a", 12000], "trial": 5, "serialpos": 7, "trial_type": "single-audio", "trial_index": 180, "time_elapsed": 790372, "internal_node_id": "0.0-126.0"}}, {"uniqueid": "MTK0128:3YJ6NA41JCNE6RQICRO0T1095JHJPE", "current_trial": 181, "dateTime": 1509292969865, "trialdata": {"rt": -1000, "stimulus": "/static/audio/wordpool/PICNIC.wav", "key_press": -1, "type": "PRES_AUD", "word": "picnic", "wordID": 1059, "conditions": [24, 1600, "a", 12000], "trial": 5, "serialpos": 8, "trial_type": "single-audio", "trial_index": 181, "time_elapsed": 792965, "internal_node_id": "0.0-127.0"}}, {"uniqueid": "MTK0128:3YJ6NA41JCNE6RQICRO0T1095JHJPE", "current_trial": 182, "dateTime": 1509292972404, "trialdata": {"rt": -1000, "stimulus": "/static/audio/wordpool/SUPPER.wav", "key_press": -1, "type": "PRES_AUD", "word": "supper", "wordID": 1410, "conditions": [24, 1600, "a", 12000], "trial": 5, "serialpos": 9, "trial_type": "single-audio", "trial_index": 182, "time_elapsed": 795505, "internal_node_id": "0.0-128.0"}}, {"uniqueid": "MTK0128:3YJ6NA41JCNE6RQICRO0T1095JHJPE", "current_trial": 183, "dateTime": 1509292975098, "trialdata": {"rt": -1000, "stimulus": "/static/audio/wordpool/PLAID.wav", "key_press": -1, "type": "PRES_AUD", "word": "plaid", "wordID": 1079, "conditions": [24, 1600, "a", 12000], "trial": 5, "serialpos": 10, "trial_type": "single-audio", "trial_index": 183, "time_elapsed": 798199, "internal_node_id": "0.0-129.0"}}, {"uniqueid": "MTK0128:3YJ6NA41JCNE6RQICRO0T1095JHJPE", "current_trial": 184, "dateTime": 1509292977877, "trialdata": {"rt": -1000, "stimulus": "/static/audio/wordpool/LACE.wav", "key_press": -1, "type": "PRES_AUD", "word": "lace", "wordID": 791, "conditions": [24, 1600, "a", 12000], "trial": 5, "serialpos": 11, "trial_type": "single-audio", "trial_index": 184, "time_elapsed": 800978, "internal_node_id": "0.0-130.0"}}, {"uniqueid": "MTK0128:3YJ6NA41JCNE6RQICRO0T1095JHJPE", "current_trial": 185, "dateTime": 1509292980410, "trialdata": {"rt": -1000, "stimulus": "/static/audio/wordpool/CARRIAGE.wav", "key_press": -1, "type": "PRES_AUD", "word": "carriage", "wordID": 247, "conditions": [24, 1600, "a", 12000], "trial": 5, "serialpos": 12, "trial_type": "single-audio", "trial_index": 185, "time_elapsed": 803511, "internal_node_id": "0.0-131.0"}}, {"uniqueid": "MTK0128:3YJ6NA41JCNE6RQICRO0T1095JHJPE", "current_trial": 186, "dateTime": 1509292982874, "trialdata": {"rt": -1000, "stimulus": "/static/audio/wordpool/TAXI.wav", "key_press": -1, "type": "PRES_AUD", "word": "taxi", "wordID": 1437, "conditions": [24, 1600, "a", 12000], "trial": 5, "serialpos": 13, "trial_type": "single-audio", "trial_index": 186, "time_elapsed": 805975, "internal_node_id": "0.0-132.0"}}, {"uniqueid": "MTK0128:3YJ6NA41JCNE6RQICRO0T1095JHJPE", "current_trial": 187, "dateTime": 1509292985885, "trialdata": {"rt": -1000, "stimulus": "/static/audio/wordpool/SUNRISE.wav", "key_press": -1, "type": "PRES_AUD", "word": "sunrise", "wordID": 1406, "conditions": [24, 1600, "a", 12000], "trial": 5, "serialpos": 14, "trial_type": "single-audio", "trial_index": 187, "time_elapsed": 808986, "internal_node_id": "0.0-133.0"}}, {"uniqueid": "MTK0128:3YJ6NA41JCNE6RQICRO0T1095JHJPE", "current_trial": 188, "dateTime": 1509292988652, "trialdata": {"rt": -1000, "stimulus": "/static/audio/wordpool/SUNSET.wav", "key_press": -1, "type": "PRES_AUD", "word": "sunset", "wordID": 1407, "conditions": [24, 1600, "a", 12000], "trial": 5, "serialpos": 15, "trial_type": "single-audio", "trial_index": 188, "time_elapsed": 811753, "internal_node_id": "0.0-134.0"}}, {"uniqueid": "MTK0128:3YJ6NA41JCNE6RQICRO0T1095JHJPE", "current_trial": 189, "dateTime": 1509292991291, "trialdata": {"rt": -1000, "stimulus": "/static/audio/wordpool/TURTLE.wav", "key_press": -1, "type": "PRES_AUD", "word": "turtle", "wordID": 1521, "conditions": [24, 1600, "a", 12000], "trial": 5, "serialpos": 16, "trial_type": "single-audio", "trial_index": 189, "time_elapsed": 814392, "internal_node_id": "0.0-135.0"}}, {"uniqueid": "MTK0128:3YJ6NA41JCNE6RQICRO0T1095JHJPE", "current_trial": 190, "dateTime": 1509292993952, "trialdata": {"rt": -1000, "stimulus": "/static/audio/wordpool/SHRUB.wav", "key_press": -1, "type": "PRES_AUD", "word": "shrub", "wordID": 1298, "conditions": [24, 1600, "a", 12000], "trial": 5, "serialpos": 17, "trial_type": "single-audio", "trial_index": 190, "time_elapsed": 817053, "internal_node_id": "0.0-136.0"}}, {"uniqueid": "MTK0128:3YJ6NA41JCNE6RQICRO0T1095JHJPE", "current_trial": 191, "dateTime": 1509292996369, "trialdata": {"rt": -1000, "stimulus": "/static/audio/wordpool/FRUIT.wav", "key_press": -1, "type": "PRES_AUD", "word": "fruit", "wordID": 609, "conditions": [24, 1600, "a", 12000], "trial": 5, "serialpos": 18, "trial_type": "single-audio", "trial_index": 191, "time_elapsed": 819470, "internal_node_id": "0.0-137.0"}}, {"uniqueid": "MTK0128:3YJ6NA41JCNE6RQICRO0T1095JHJPE", "current_trial": 192, "dateTime": 1509292999129, "trialdata": {"rt": -1000, "stimulus": "/static/audio/wordpool/SHARK.wav", "key_press": -1, "type": "PRES_AUD", "word": "shark", "wordID": 1274, "conditions": [24, 1600, "a", 12000], "trial": 5, "serialpos": 19, "trial_type": "single-audio", "trial_index": 192, "time_elapsed": 822228, "internal_node_id": "0.0-138.0"}}, {"uniqueid": "MTK0128:3YJ6NA41JCNE6RQICRO0T1095JHJPE", "current_trial": 193, "dateTime": 1509293001849, "trialdata": {"rt": -1000, "stimulus": "/static/audio/wordpool/CURTAIN.wav", "key_press": -1, "type": "PRES_AUD", "word": "curtain", "wordID": 426, "conditions": [24, 1600, "a", 12000], "trial": 5, "serialpos": 20, "trial_type": "single-audio", "trial_index": 193, "time_elapsed": 824950, "internal_node_id": "0.0-139.0"}}, {"uniqueid": "MTK0128:3YJ6NA41JCNE6RQICRO0T1095JHJPE", "current_trial": 194, "dateTime": 1509293004508, "trialdata": {"rt": -1000, "stimulus": "/static/audio/wordpool/DORM.wav", "key_press": -1, "type": "PRES_AUD", "word": "dorm", "wordID": 487, "conditions": [24, 1600, "a", 12000], "trial": 5, "serialpos": 21, "trial_type": "single-audio", "trial_index": 194, "time_elapsed": 827609, "internal_node_id": "0.0-140.0"}}, {"uniqueid": "MTK0128:3YJ6NA41JCNE6RQICRO0T1095JHJPE", "current_trial": 195, "dateTime": 1509293007160, "trialdata": {"rt": -1000, "stimulus": "/static/audio/wordpool/PASTRY.wav", "key_press": -1, "type": "PRES_AUD", "word": "pastry", "wordID": 1021, "conditions": [24, 1600, "a", 12000], "trial": 5, "serialpos": 22, "trial_type": "single-audio", "trial_index": 195, "time_elapsed": 830261, "internal_node_id": "0.0-141.0"}}, {"uniqueid": "MTK0128:3YJ6NA41JCNE6RQICRO0T1095JHJPE", "current_trial": 196, "dateTime": 1509293009889, "trialdata": {"rt": -1000, "stimulus": "/static/audio/wordpool/PARENT.wav", "key_press": -1, "type": "PRES_AUD", "word": "parent", "wordID": 1012, "conditions": [24, 1600, "a", 12000], "trial": 5, "serialpos": 23, "trial_type": "single-audio", "trial_index": 196, "time_elapsed": 832990, "internal_node_id": "0.0-142.0"}}, {"uniqueid": "MTK0128:3YJ6NA41JCNE6RQICRO0T1095JHJPE", "current_trial": 197, "dateTime": 1509293011227, "trialdata": {"rt": -1, "stimulus": "", "key_press": -1, "type": "PRE_RECALL_DELAY", "trial_type": "single-stim", "trial_index": 197, "time_elapsed": 834328, "internal_node_id": "0.0-143.0-0.0"}}, {"uniqueid": "MTK0128:3YJ6NA41JCNE6RQICRO0T1095JHJPE", "current_trial": 198, "dateTime": 1509293012215, "trialdata": {"rt": -1000, "stimulus": "/static/audio/400Hz.wav", "key_press": -1, "type": "PRE_RECALL_ALERT", "trial_type": "single-audio", "trial_index": 198, "time_elapsed": 835316, "internal_node_id": "0.0-144.0"}}, {"uniqueid": "MTK0128:3YJ6NA41JCNE6RQICRO0T1095JHJPE", "current_trial": 199, "dateTime": 1509293072223, "trialdata": {"rt": [2222, 3373, 4461, 6094, 7598, 12966, 22030, 37990, 39093], "recwords": ["parent", "sunrise", "sunset", "pastry", "dorm", "trim", "door", "sunrise", "sunset"], "type": "FREE_RECALL", "conditions": [24, 1600, "a", 12000], "trial": 5, "trial_type": "free-recall", "trial_index": 199, "time_elapsed": 895320, "internal_node_id": "0.0-145.0-0.0"}}, {"uniqueid": "MTK0128:3YJ6NA41JCNE6RQICRO0T1095JHJPE", "current_trial": 200, "dateTime": 1509293075976, "trialdata": {"rt": 1752, "key_press": 13, "type": "INSTRUCTIONS", "trial_type": "text", "trial_index": 200, "time_elapsed": 899076, "internal_node_id": "0.0-146.0"}}, {"uniqueid": "MTK0128:3YJ6NA41JCNE6RQICRO0T1095JHJPE", "current_trial": 201, "dateTime": 1509293101978, "trialdata": {"rt": [2421, 4605, 7365, 11245, 13374, 15470, 17805, 20141, 23285], "responses": ["21", "23", "13", "25", "21", "14", "13", "23", "13"], "num1": [9, 6, 6, 4, 8, 4, 3, 7, 5, 1], "num2": [8, 9, 3, 3, 5, 6, 4, 6, 7, 4], "num3": [4, 8, 4, 9, 8, 4, 6, 6, 1, 1], "type": "DISTRACTOR", "conditions": [12, 800, "v", 24000], "trial": 6, "trial_type": "math-distractor", "trial_index": 201, "time_elapsed": 925079, "internal_node_id": "0.0-147.0"}}, {"uniqueid": "MTK0128:3YJ6NA41JCNE6RQICRO0T1095JHJPE", "current_trial": 202, "dateTime": 1509293104979, "trialdata": {"rt": -1, "stimulus": "<p id=\"stim\">10</p>", "key_press": -1, "trial_type": "single-stim", "trial_index": 202, "time_elapsed": 928079, "internal_node_id": "0.0-148.0-0.0"}}, {"uniqueid": "MTK0128:3YJ6NA41JCNE6RQICRO0T1095JHJPE", "current_trial": 203, "dateTime": 1509293105980, "trialdata": {"rt": -1, "stimulus": "<p id=\"stim\">9</p>", "key_press": -1, "trial_type": "single-stim", "trial_index": 203, "time_elapsed": 929080, "internal_node_id": "0.0-148.0-1.0"}}, {"uniqueid": "MTK0128:3YJ6NA41JCNE6RQICRO0T1095JHJPE", "current_trial": 204, "dateTime": 1509293107254, "trialdata": {"rt": -1, "stimulus": "<p id=\"stim\">8</p>", "key_press": -1, "trial_type": "single-stim", "trial_index": 204, "time_elapsed": 930354, "internal_node_id": "0.0-148.0-2.0"}}, {"uniqueid": "MTK0128:3YJ6NA41JCNE6RQICRO0T1095JHJPE", "current_trial": 205, "dateTime": 1509293108255, "trialdata": {"rt": -1, "stimulus": "<p id=\"stim\">7</p>", "key_press": -1, "trial_type": "single-stim", "trial_index": 205, "time_elapsed": 931355, "internal_node_id": "0.0-148.0-3.0"}}, {"uniqueid": "MTK0128:3YJ6NA41JCNE6RQICRO0T1095JHJPE", "current_trial": 206, "dateTime": 1509293109256, "trialdata": {"rt": -1, "stimulus": "<p id=\"stim\">6</p>", "key_press": -1, "trial_type": "single-stim", "trial_index": 206, "time_elapsed": 932356, "internal_node_id": "0.0-148.0-4.0"}}, {"uniqueid": "MTK0128:3YJ6NA41JCNE6RQICRO0T1095JHJPE", "current_trial": 207, "dateTime": 1509293110257, "trialdata": {"rt": -1, "stimulus": "<p id=\"stim\">5</p>", "key_press": -1, "trial_type": "single-stim", "trial_index": 207, "time_elapsed": 933357, "internal_node_id": "0.0-148.0-5.0"}}, {"uniqueid": "MTK0128:3YJ6NA41JCNE6RQICRO0T1095JHJPE", "current_trial": 208, "dateTime": 1509293111258, "trialdata": {"rt": -1, "stimulus": "<p id=\"stim\">4</p>", "key_press": -1, "trial_type": "single-stim", "trial_index": 208, "time_elapsed": 934358, "internal_node_id": "0.0-148.0-6.0"}}, {"uniqueid": "MTK0128:3YJ6NA41JCNE6RQICRO0T1095JHJPE", "current_trial": 209, "dateTime": 1509293112260, "trialdata": {"rt": -1, "stimulus": "<p id=\"stim\">3</p>", "key_press": -1, "trial_type": "single-stim", "trial_index": 209, "time_elapsed": 935359, "internal_node_id": "0.0-148.0-7.0"}}, {"uniqueid": "MTK0128:3YJ6NA41JCNE6RQICRO0T1095JHJPE", "current_trial": 210, "dateTime": 1509293113261, "trialdata": {"rt": -1, "stimulus": "<p id=\"stim\">2</p>", "key_press": -1, "trial_type": "single-stim", "trial_index": 210, "time_elapsed": 936362, "internal_node_id": "0.0-148.0-8.0"}}, {"uniqueid": "MTK0128:3YJ6NA41JCNE6RQICRO0T1095JHJPE", "current_trial": 211, "dateTime": 1509293114263, "trialdata": {"rt": -1, "stimulus": "<p id=\"stim\">1</p>", "key_press": -1, "trial_type": "single-stim", "trial_index": 211, "time_elapsed": 937363, "internal_node_id": "0.0-148.0-9.0"}}, {"uniqueid": "MTK0128:3YJ6NA41JCNE6RQICRO0T1095JHJPE", "current_trial": 212, "dateTime": 1509293115764, "trialdata": {"rt": -1, "stimulus": "<p id=\"stim\">+</p>", "key_press": -1, "type": "FIXATION", "trial_type": "single-stim", "trial_index": 212, "time_elapsed": 938864, "internal_node_id": "0.0-149.0-0.0"}}, {"uniqueid": "MTK0128:3YJ6NA41JCNE6RQICRO0T1095JHJPE", "current_trial": 213, "dateTime": 1509293116565, "trialdata": {"rt": -1, "stimulus": "<p id=\"stim\">PICTURE</p>", "key_press": -1, "type": "PRES_VIS", "word": "picture", "wordID": 1060, "conditions": [12, 800, "v", 24000], "trial": 6, "serialpos": 0, "trial_type": "single-stim", "trial_index": 213, "time_elapsed": 939666, "internal_node_id": "0.0-150.0"}}, {"uniqueid": "MTK0128:3YJ6NA41JCNE6RQICRO0T1095JHJPE", "current_trial": 214, "dateTime": 1509293118326, "trialdata": {"rt": -1, "stimulus": "<p id=\"stim\">BEAST</p>", "key_press": -1, "type": "PRES_VIS", "word": "beast", "wordID": 107, "conditions": [12, 800, "v", 24000], "trial": 6, "serialpos": 1, "trial_type": "single-stim", "trial_index": 214, "time_elapsed": 941427, "internal_node_id": "0.0-151.0"}}, {"uniqueid": "MTK0128:3YJ6NA41JCNE6RQICRO0T1095JHJPE", "current_trial": 215, "dateTime": 1509293119991, "trialdata": {"rt": -1, "stimulus": "<p id=\"stim\">TURKEY</p>", "key_press": -1, "type": "PRES_VIS", "word": "turkey", "wordID": 1519, "conditions": [12, 800, "v", 24000], "trial": 6, "serialpos": 2, "trial_type": "single-stim", "trial_index": 215, "time_elapsed": 943092, "internal_node_id": "0.0-152.0"}}, {"uniqueid": "MTK0128:3YJ6NA41JCNE6RQICRO0T1095JHJPE", "current_trial": 216, "dateTime": 1509293121943, "trialdata": {"rt": -1, "stimulus": "<p id=\"stim\">QUAIL</p>", "key_press": -1, "type": "PRES_VIS", "word": "quail", "wordID": 1146, "conditions": [12, 800, "v", 24000], "trial": 6, "serialpos": 3, "trial_type": "single-stim", "trial_index": 216, "time_elapsed": 945043, "internal_node_id": "0.0-153.0"}}, {"uniqueid": "MTK0128:3YJ6NA41JCNE6RQICRO0T1095JHJPE", "current_trial": 217, "dateTime": 1509293123684, "trialdata": {"rt": -1, "stimulus": "<p id=\"stim\">PIMPLE</p>", "key_press": -1, "type": "PRES_VIS", "word": "pimple", "wordID": 1070, "conditions": [12, 800, "v", 24000], "trial": 6, "serialpos": 4, "trial_type": "single-stim", "trial_index": 217, "time_elapsed": 946784, "internal_node_id": "0.0-154.0"}}, {"uniqueid": "MTK0128:3YJ6NA41JCNE6RQICRO0T1095JHJPE", "current_trial": 218, "dateTime": 1509293125576, "trialdata": {"rt": -1, "stimulus": "<p id=\"stim\">CROSS</p>", "key_press": -1, "type": "PRES_VIS", "word": "cross", "wordID": 412, "conditions": [12, 800, "v", 24000], "trial": 6, "serialpos": 5, "trial_type": "single-stim", "trial_index": 218, "time_elapsed": 948676, "internal_node_id": "0.0-155.0"}}, {"uniqueid": "MTK0128:3YJ6NA41JCNE6RQICRO0T1095JHJPE", "current_trial": 219, "dateTime": 1509293127511, "trialdata": {"rt": -1, "stimulus": "<p id=\"stim\">SKIRT</p>", "key_press": -1, "type": "PRES_VIS", "word": "skirt", "wordID": 1318, "conditions": [12, 800, "v", 24000], "trial": 6, "serialpos": 6, "trial_type": "single-stim", "trial_index": 219, "time_elapsed": 950611, "internal_node_id": "0.0-156.0"}}, {"uniqueid": "MTK0128:3YJ6NA41JCNE6RQICRO0T1095JHJPE", "current_trial": 220, "dateTime": 1509293129242, "trialdata": {"rt": -1, "stimulus": "<p id=\"stim\">PLIERS</p>", "key_press": -1, "type": "PRES_VIS", "word": "pliers", "wordID": 1088, "conditions": [12, 800, "v", 24000], "trial": 6, "serialpos": 7, "trial_type": "single-stim", "trial_index": 220, "time_elapsed": 952342, "internal_node_id": "0.0-157.0"}}, {"uniqueid": "MTK0128:3YJ6NA41JCNE6RQICRO0T1095JHJPE", "current_trial": 221, "dateTime": 1509293130867, "trialdata": {"rt": -1, "stimulus": "<p id=\"stim\">TERMITE</p>", "key_press": -1, "type": "PRES_VIS", "word": "termite", "wordID": 1450, "conditions": [12, 800, "v", 24000], "trial": 6, "serialpos": 8, "trial_type": "single-stim", "trial_index": 221, "time_elapsed": 953967, "internal_node_id": "0.0-158.0"}}, {"uniqueid": "MTK0128:3YJ6NA41JCNE6RQICRO0T1095JHJPE", "current_trial": 222, "dateTime": 1509293132581, "trialdata": {"rt": -1, "stimulus": "<p id=\"stim\">FOREST</p>", "key_press": -1, "type": "PRES_VIS", "word": "forest", "wordID": 592, "conditions": [12, 800, "v", 24000], "trial": 6, "serialpos": 9, "trial_type": "single-stim", "trial_index": 222, "time_elapsed": 955681, "internal_node_id": "0.0-159.0"}}, {"uniqueid": "MTK0128:3YJ6NA41JCNE6RQICRO0T1095JHJPE", "current_trial": 223, "dateTime": 1509293134222, "trialdata": {"rt": -1, "stimulus": "<p id=\"stim\">MONSTER</p>", "key_press": -1, "type": "PRES_VIS", "word": "monster", "wordID": 911, "conditions": [12, 800, "v", 24000], "trial": 6, "serialpos": 10, "trial_type": "single-stim", "trial_index": 223, "time_elapsed": 957322, "internal_node_id": "0.0-160.0"}}, {"uniqueid": "MTK0128:3YJ6NA41JCNE6RQICRO0T1095JHJPE", "current_trial": 224, "dateTime": 1509293136213, "trialdata": {"rt": -1, "stimulus": "<p id=\"stim\">MARINE</p>", "key_press": -1, "type": "PRES_VIS", "word": "marine", "wordID": 868, "conditions": [12, 800, "v", 24000], "trial": 6, "serialpos": 11, "trial_type": "single-stim", "trial_index": 224, "time_elapsed": 959313, "internal_node_id": "0.0-161.0"}}, {"uniqueid": "MTK0128:3YJ6NA41JCNE6RQICRO0T1095JHJPE", "current_trial": 225, "dateTime": 1509293138568, "trialdata": {"rt": -1, "stimulus": "", "key_press": -1, "type": "PRE_RECALL_DELAY", "trial_type": "single-stim", "trial_index": 225, "time_elapsed": 961669, "internal_node_id": "0.0-162.0-0.0"}}, {"uniqueid": "MTK0128:3YJ6NA41JCNE6RQICRO0T1095JHJPE", "current_trial": 226, "dateTime": 1509293139070, "trialdata": {"rt": -1000, "stimulus": "/static/audio/400Hz.wav", "key_press": -1, "type": "PRE_RECALL_ALERT", "trial_type": "single-audio", "trial_index": 226, "time_elapsed": 962171, "internal_node_id": "0.0-163.0"}}, {"uniqueid": "MTK0128:3YJ6NA41JCNE6RQICRO0T1095JHJPE", "current_trial": 227, "dateTime": 1509293199076, "trialdata": {"rt": [3490, 4848, 5983, 7624, 9783, 11759, 13328, 15736, 18240, 20376, 21679, 39183], "recwords": ["pimple", "picture", "beast", "turkey", "quail", "pliers", "skirt", "cross", "forest", "monster", "marine", "pimple"], "type": "FREE_RECALL", "conditions": [12, 800, "v", 24000], "trial": 6, "trial_type": "free-recall", "trial_index": 227, "time_elapsed": 1022173, "internal_node_id": "0.0-164.0-0.0"}}, {"uniqueid": "MTK0128:3YJ6NA41JCNE6RQICRO0T1095JHJPE", "current_trial": 228, "dateTime": 1509293203167, "trialdata": {"rt": 2090, "key_press": 13, "type": "INSTRUCTIONS", "trial_type": "text", "trial_index": 228, "time_elapsed": 1026268, "internal_node_id": "0.0-165.0"}}, {"uniqueid": "MTK0128:3YJ6NA41JCNE6RQICRO0T1095JHJPE", "current_trial": 229, "dateTime": 1509293217169, "trialdata": {"rt": [1822, 3670, 5430, 7230, 9222, 11767], "responses": ["16", "11", "11", "10", "10", "7"], "num1": [6, 3, 3, 1, 1, 3, 6], "num2": [2, 7, 1, 3, 7, 2, 9], "num3": [8, 1, 7, 6, 2, 2, 5], "type": "DISTRACTOR", "conditions": [12, 800, "v", 12000], "trial": 7, "trial_type": "math-distractor", "trial_index": 229, "time_elapsed": 1040269, "internal_node_id": "0.0-166.0"}}, {"uniqueid": "MTK0128:3YJ6NA41JCNE6RQICRO0T1095JHJPE", "current_trial": 230, "dateTime": 1509293220170, "trialdata": {"rt": -1, "stimulus": "<p id=\"stim\">10</p>", "key_press": -1, "trial_type": "single-stim", "trial_index": 230, "time_elapsed": 1043270, "internal_node_id": "0.0-167.0-0.0"}}, {"uniqueid": "MTK0128:3YJ6NA41JCNE6RQICRO0T1095JHJPE", "current_trial": 231, "dateTime": 1509293221171, "trialdata": {"rt": -1, "stimulus": "<p id=\"stim\">9</p>", "key_press": -1, "trial_type": "single-stim", "trial_index": 231, "time_elapsed": 1044271, "internal_node_id": "0.0-167.0-1.0"}}, {"uniqueid": "MTK0128:3YJ6NA41JCNE6RQICRO0T1095JHJPE", "current_trial": 232, "dateTime": 1509293222172, "trialdata": {"rt": -1, "stimulus": "<p id=\"stim\">8</p>", "key_press": -1, "trial_type": "single-stim", "trial_index": 232, "time_elapsed": 1045272, "internal_node_id": "0.0-167.0-2.0"}}, {"uniqueid": "MTK0128:3YJ6NA41JCNE6RQICRO0T1095JHJPE", "current_trial": 233, "dateTime": 1509293223173, "trialdata": {"rt": -1, "stimulus": "<p id=\"stim\">7</p>", "key_press": -1, "trial_type": "single-stim", "trial_index": 233, "time_elapsed": 1046273, "internal_node_id": "0.0-167.0-3.0"}}, {"uniqueid": "MTK0128:3YJ6NA41JCNE6RQICRO0T1095JHJPE", "current_trial": 234, "dateTime": 1509293224174, "trialdata": {"rt": -1, "stimulus": "<p id=\"stim\">6</p>", "key_press": -1, "trial_type": "single-stim", "trial_index": 234, "time_elapsed": 1047274, "internal_node_id": "0.0-167.0-4.0"}}, {"uniqueid": "MTK0128:3YJ6NA41JCNE6RQICRO0T1095JHJPE", "current_trial": 235, "dateTime": 1509293225175, "trialdata": {"rt": -1, "stimulus": "<p id=\"stim\">5</p>", "key_press": -1, "trial_type": "single-stim", "trial_index": 235, "time_elapsed": 1048275, "internal_node_id": "0.0-167.0-5.0"}}, {"uniqueid": "MTK0128:3YJ6NA41JCNE6RQICRO0T1095JHJPE", "current_trial": 236, "dateTime": 1509293226178, "trialdata": {"rt": -1, "stimulus": "<p id=\"stim\">4</p>", "key_press": -1, "trial_type": "single-stim", "trial_index": 236, "time_elapsed": 1049276, "internal_node_id": "0.0-167.0-6.0"}}, {"uniqueid": "MTK0128:3YJ6NA41JCNE6RQICRO0T1095JHJPE", "current_trial": 237, "dateTime": 1509293227178, "trialdata": {"rt": -1, "stimulus": "<p id=\"stim\">3</p>", "key_press": -1, "trial_type": "single-stim", "trial_index": 237, "time_elapsed": 1050279, "internal_node_id": "0.0-167.0-7.0"}}, {"uniqueid": "MTK0128:3YJ6NA41JCNE6RQICRO0T1095JHJPE", "current_trial": 238, "dateTime": 1509293228180, "trialdata": {"rt": -1, "stimulus": "<p id=\"stim\">2</p>", "key_press": -1, "trial_type": "single-stim", "trial_index": 238, "time_elapsed": 1051281, "internal_node_id": "0.0-167.0-8.0"}}, {"uniqueid": "MTK0128:3YJ6NA41JCNE6RQICRO0T1095JHJPE", "current_trial": 239, "dateTime": 1509293229182, "trialdata": {"rt": 121, "stimulus": "<p id=\"stim\">1</p>", "key_press": 18, "trial_type": "single-stim", "trial_index": 239, "time_elapsed": 1052282, "internal_node_id": "0.0-167.0-9.0"}}, {"uniqueid": "MTK0128:3YJ6NA41JCNE6RQICRO0T1095JHJPE", "current_trial": 240, "dateTime": 1509293230683, "trialdata": {"rt": -1, "stimulus": "<p id=\"stim\">+</p>", "key_press": -1, "type": "FIXATION", "trial_type": "single-stim", "trial_index": 240, "time_elapsed": 1053783, "internal_node_id": "0.0-168.0-0.0"}}, {"uniqueid": "MTK0128:3YJ6NA41JCNE6RQICRO0T1095JHJPE", "current_trial": 241, "dateTime": 1509293231484, "trialdata": {"rt": -1, "stimulus": "<p id=\"stim\">DRESSER</p>", "key_press": -1, "type": "PRES_VIS", "word": "dresser", "wordID": 495, "conditions": [12, 800, "v", 12000], "trial": 7, "serialpos": 0, "trial_type": "single-stim", "trial_index": 241, "time_elapsed": 1054584, "internal_node_id": "0.0-169.0"}}, {"uniqueid": "MTK0128:3YJ6NA41JCNE6RQICRO0T1095JHJPE", "current_trial": 242, "dateTime": 1509293233170, "trialdata": {"rt": -1, "stimulus": "<p id=\"stim\">SCOTCH</p>", "key_press": -1, "type": "PRES_VIS", "word": "scotch", "wordID": 1250, "conditions": [12, 800, "v", 12000], "trial": 7, "serialpos": 1, "trial_type": "single-stim", "trial_index": 242, "time_elapsed": 1056270, "internal_node_id": "0.0-170.0"}}, {"uniqueid": "MTK0128:3YJ6NA41JCNE6RQICRO0T1095JHJPE", "current_trial": 243, "dateTime": 1509293235140, "trialdata": {"rt": -1, "stimulus": "<p id=\"stim\">HIGHWAY</p>", "key_press": -1, "type": "PRES_VIS", "word": "highway", "wordID": 706, "conditions": [12, 800, "v", 12000], "trial": 7, "serialpos": 2, "trial_type": "single-stim", "trial_index": 243, "time_elapsed": 1058240, "internal_node_id": "0.0-171.0"}}, {"uniqueid": "MTK0128:3YJ6NA41JCNE6RQICRO0T1095JHJPE", "current_trial": 244, "dateTime": 1509293236942, "trialdata": {"rt": -1, "stimulus": "<p id=\"stim\">SPOUSE</p>", "key_press": -1, "type": "PRES_VIS", "word": "spouse", "wordID": 1357, "conditions": [12, 800, "v", 12000], "trial": 7, "serialpos": 3, "trial_type": "single-stim", "trial_index": 244, "time_elapsed": 1060043, "internal_node_id": "0.0-172.0"}}, {"uniqueid": "MTK0128:3YJ6NA41JCNE6RQICRO0T1095JHJPE", "current_trial": 245, "dateTime": 1509293238607, "trialdata": {"rt": -1, "stimulus": "<p id=\"stim\">STONE</p>", "key_press": -1, "type": "PRES_VIS", "word": "stone", "wordID": 1384, "conditions": [12, 800, "v", 12000], "trial": 7, "serialpos": 4, "trial_type": "single-stim", "trial_index": 245, "time_elapsed": 1061707, "internal_node_id": "0.0-173.0"}}, {"uniqueid": "MTK0128:3YJ6NA41JCNE6RQICRO0T1095JHJPE", "current_trial": 246, "dateTime": 1509293240478, "trialdata": {"rt": -1, "stimulus": "<p id=\"stim\">BRICK</p>", "key_press": -1, "type": "PRES_VIS", "word": "brick", "wordID": 171, "conditions": [12, 800, "v", 12000], "trial": 7, "serialpos": 5, "trial_type": "single-stim", "trial_index": 246, "time_elapsed": 1063579, "internal_node_id": "0.0-174.0"}}, {"uniqueid": "MTK0128:3YJ6NA41JCNE6RQICRO0T1095JHJPE", "current_trial": 247, "dateTime": 1509293242396, "trialdata": {"rt": -1, "stimulus": "<p id=\"stim\">WASHER</p>", "key_press": -1, "type": "PRES_VIS", "word": "washer", "wordID": 1591, "conditions": [12, 800, "v", 12000], "trial": 7, "serialpos": 6, "trial_type": "single-stim", "trial_index": 247, "time_elapsed": 1065496, "internal_node_id": "0.0-175.0"}}, {"uniqueid": "MTK0128:3YJ6NA41JCNE6RQICRO0T1095JHJPE", "current_trial": 248, "dateTime": 1509293244257, "trialdata": {"rt": -1, "stimulus": "<p id=\"stim\">MATTRESS</p>", "key_press": -1, "type": "PRES_VIS", "word": "mattress", "wordID": 878, "conditions": [12, 800, "v", 12000], "trial": 7, "serialpos": 7, "trial_type": "single-stim", "trial_index": 248, "time_elapsed": 1067358, "internal_node_id": "0.0-176.0"}}, {"uniqueid": "MTK0128:3YJ6NA41JCNE6RQICRO0T1095JHJPE", "current_trial": 249, "dateTime": 1509293246118, "trialdata": {"rt": -1, "stimulus": "<p id=\"stim\">ROD</p>", "key_press": -1, "type": "PRES_VIS", "word": "rod", "wordID": 1202, "conditions": [12, 800, "v", 12000], "trial": 7, "serialpos": 8, "trial_type": "single-stim", "trial_index": 249, "time_elapsed": 1069219, "internal_node_id": "0.0-177.0"}}, {"uniqueid": "MTK0128:3YJ6NA41JCNE6RQICRO0T1095JHJPE", "current_trial": 250, "dateTime": 1509293248009, "trialdata": {"rt": -1, "stimulus": "<p id=\"stim\">GRILL</p>", "key_press": -1, "type": "PRES_VIS", "word": "grill", "wordID": 660, "conditions": [12, 800, "v", 12000], "trial": 7, "serialpos": 9, "trial_type": "single-stim", "trial_index": 250, "time_elapsed": 1071110, "internal_node_id": "0.0-178.0"}}, {"uniqueid": "MTK0128:3YJ6NA41JCNE6RQICRO0T1095JHJPE", "current_trial": 251, "dateTime": 1509293249704, "trialdata": {"rt": -1, "stimulus": "<p id=\"stim\">COUCH</p>", "key_press": -1, "type": "PRES_VIS", "word": "couch", "wordID": 385, "conditions": [12, 800, "v", 12000], "trial": 7, "serialpos": 10, "trial_type": "single-stim", "trial_index": 251, "time_elapsed": 1072805, "internal_node_id": "0.0-179.0"}}, {"uniqueid": "MTK0128:3YJ6NA41JCNE6RQICRO0T1095JHJPE", "current_trial": 252, "dateTime": 1509293251688, "trialdata": {"rt": -1, "stimulus": "<p id=\"stim\">CAPTIVE</p>", "key_press": -1, "type": "PRES_VIS", "word": "captive", "wordID": 239, "conditions": [12, 800, "v", 12000], "trial": 7, "serialpos": 11, "trial_type": "single-stim", "trial_index": 252, "time_elapsed": 1074789, "internal_node_id": "0.0-180.0"}}, {"uniqueid": "MTK0128:3YJ6NA41JCNE6RQICRO0T1095JHJPE", "current_trial": 253, "dateTime": 1509293253855, "trialdata": {"rt": -1, "stimulus": "", "key_press": -1, "type": "PRE_RECALL_DELAY", "trial_type": "single-stim", "trial_index": 253, "time_elapsed": 1076955, "internal_node_id": "0.0-181.0-0.0"}}, {"uniqueid": "MTK0128:3YJ6NA41JCNE6RQICRO0T1095JHJPE", "current_trial": 254, "dateTime": 1509293254356, "trialdata": {"rt": -1000, "stimulus": "/static/audio/400Hz.wav", "key_press": -1, "type": "PRE_RECALL_ALERT", "trial_type": "single-audio", "trial_index": 254, "time_elapsed": 1077457, "internal_node_id": "0.0-182.0"}}, {"uniqueid": "MTK0128:3YJ6NA41JCNE6RQICRO0T1095JHJPE", "current_trial": 255, "dateTime": 1509293314362, "trialdata": {"rt": [3579, 5482, 7130, 9586, 11089, 12314, 13889, 15010, 16906, 18385, 23770], "recwords": ["captive", "dresser", "scotch", "highway", "brick", "stone", "washer", "rod", "grill", "couch", "captive"], "type": "FREE_RECALL", "conditions": [12, 800, "v", 12000], "trial": 7, "trial_type": "free-recall", "trial_index": 255, "time_elapsed": 1137459, "internal_node_id": "0.0-183.0-0.0"}}, {"uniqueid": "MTK0128:3YJ6NA41JCNE6RQICRO0T1095JHJPE", "current_trial": 256, "dateTime": 1509293317767, "trialdata": {"rt": 1405, "key_press": 13, "type": "INSTRUCTIONS", "trial_type": "text", "trial_index": 256, "time_elapsed": 1140868, "internal_node_id": "0.0-184.0"}}, {"uniqueid": "MTK0128:3YJ6NA41JCNE6RQICRO0T1095JHJPE", "current_trial": 257, "dateTime": 1509293331770, "trialdata": {"rt": [1925, 3733, 6686, 8933], "responses": ["17", "17", "17", "15"], "num1": [7, 2, 7, 5, 3], "num2": [5, 8, 2, 2, 9], "num3": [5, 7, 8, 8, 5], "type": "DISTRACTOR", "conditions": [24, 800, "v", 12000], "trial": 8, "trial_type": "math-distractor", "trial_index": 257, "time_elapsed": 1154871, "internal_node_id": "0.0-185.0"}}, {"uniqueid": "MTK0128:3YJ6NA41JCNE6RQICRO0T1095JHJPE", "current_trial": 258, "dateTime": 1509293334771, "trialdata": {"rt": -1, "stimulus": "<p id=\"stim\">10</p>", "key_press": -1, "trial_type": "single-stim", "trial_index": 258, "time_elapsed": 1157872, "internal_node_id": "0.0-186.0-0.0"}}, {"uniqueid": "MTK0128:3YJ6NA41JCNE6RQICRO0T1095JHJPE", "current_trial": 259, "dateTime": 1509293335772, "trialdata": {"rt": -1, "stimulus": "<p id=\"stim\">9</p>", "key_press": -1, "trial_type": "single-stim", "trial_index": 259, "time_elapsed": 1158873, "internal_node_id": "0.0-186.0-1.0"}}, {"uniqueid": "MTK0128:3YJ6NA41JCNE6RQICRO0T1095JHJPE", "current_trial": 260, "dateTime": 1509293336774, "trialdata": {"rt": -1, "stimulus": "<p id=\"stim\">8</p>", "key_press": -1, "trial_type": "single-stim", "trial_index": 260, "time_elapsed": 1159874, "internal_node_id": "0.0-186.0-2.0"}}, {"uniqueid": "MTK0128:3YJ6NA41JCNE6RQICRO0T1095JHJPE", "current_trial": 261, "dateTime": 1509293337774, "trialdata": {"rt": -1, "stimulus": "<p id=\"stim\">7</p>", "key_press": -1, "trial_type": "single-stim", "trial_index": 261, "time_elapsed": 1160875, "internal_node_id": "0.0-186.0-3.0"}}, {"uniqueid": "MTK0128:3YJ6NA41JCNE6RQICRO0T1095JHJPE", "current_trial": 262, "dateTime": 1509293338775, "trialdata": {"rt": -1, "stimulus": "<p id=\"stim\">6</p>", "key_press": -1, "trial_type": "single-stim", "trial_index": 262, "time_elapsed": 1161876, "internal_node_id": "0.0-186.0-4.0"}}, {"uniqueid": "MTK0128:3YJ6NA41JCNE6RQICRO0T1095JHJPE", "current_trial": 263, "dateTime": 1509293339778, "trialdata": {"rt": -1, "stimulus": "<p id=\"stim\">5</p>", "key_press": -1, "trial_type": "single-stim", "trial_index": 263, "time_elapsed": 1162878, "internal_node_id": "0.0-186.0-5.0"}}, {"uniqueid": "MTK0128:3YJ6NA41JCNE6RQICRO0T1095JHJPE", "current_trial": 264, "dateTime": 1509293340779, "trialdata": {"rt": -1, "stimulus": "<p id=\"stim\">4</p>", "key_press": -1, "trial_type": "single-stim", "trial_index": 264, "time_elapsed": 1163879, "internal_node_id": "0.0-186.0-6.0"}}, {"uniqueid": "MTK0128:3YJ6NA41JCNE6RQICRO0T1095JHJPE", "current_trial": 265, "dateTime": 1509293341779, "trialdata": {"rt": -1, "stimulus": "<p id=\"stim\">3</p>", "key_press": -1, "trial_type": "single-stim", "trial_index": 265, "time_elapsed": 1164880, "internal_node_id": "0.0-186.0-7.0"}}, {"uniqueid": "MTK0128:3YJ6NA41JCNE6RQICRO0T1095JHJPE", "current_trial": 266, "dateTime": 1509293342781, "trialdata": {"rt": -1, "stimulus": "<p id=\"stim\">2</p>", "key_press": -1, "trial_type": "single-stim", "trial_index": 266, "time_elapsed": 1165881, "internal_node_id": "0.0-186.0-8.0"}}, {"uniqueid": "MTK0128:3YJ6NA41JCNE6RQICRO0T1095JHJPE", "current_trial": 267, "dateTime": 1509293343782, "trialdata": {"rt": -1, "stimulus": "<p id=\"stim\">1</p>", "key_press": -1, "trial_type": "single-stim", "trial_index": 267, "time_elapsed": 1166882, "internal_node_id": "0.0-186.0-9.0"}}, {"uniqueid": "MTK0128:3YJ6NA41JCNE6RQICRO0T1095JHJPE", "current_trial": 268, "dateTime": 1509293345283, "trialdata": {"rt": -1, "stimulus": "<p id=\"stim\">+</p>", "key_press": -1, "type": "FIXATION", "trial_type": "single-stim", "trial_index": 268, "time_elapsed": 1168384, "internal_node_id": "0.0-187.0-0.0"}}, {"uniqueid": "MTK0128:3YJ6NA41JCNE6RQICRO0T1095JHJPE", "current_trial": 269, "dateTime": 1509293346084, "trialdata": {"rt": -1, "stimulus": "<p id=\"stim\">PIANO</p>", "key_press": -1, "type": "PRES_VIS", "word": "piano", "wordID": 1056, "conditions": [24, 800, "v", 12000], "trial": 8, "serialpos": 0, "trial_type": "single-stim", "trial_index": 269, "time_elapsed": 1169184, "internal_node_id": "0.0-188.0"}}, {"uniqueid": "MTK0128:3YJ6NA41JCNE6RQICRO0T1095JHJPE", "current_trial": 270, "dateTime": 1509293348041, "trialdata": {"rt": -1, "stimulus": "<p id=\"stim\">GUITAR</p>", "key_press": -1, "type": "PRES_VIS", "word": "guitar", "wordID": 669, "conditions": [24, 800, "v", 12000], "trial": 8, "serialpos": 1, "trial_type": "single-stim", "trial_index": 270, "time_elapsed": 1171142, "internal_node_id": "0.0-189.0"}}, {"uniqueid": "MTK0128:3YJ6NA41JCNE6RQICRO0T1095JHJPE", "current_trial": 271, "dateTime": 1509293350014, "trialdata": {"rt": -1, "stimulus": "<p id=\"stim\">BODY</p>", "key_press": -1, "type": "PRES_VIS", "word": "body", "wordID": 144, "conditions": [24, 800, "v", 12000], "trial": 8, "serialpos": 2, "trial_type": "single-stim", "trial_index": 271, "time_elapsed": 1173114, "internal_node_id": "0.0-190.0"}}, {"uniqueid": "MTK0128:3YJ6NA41JCNE6RQICRO0T1095JHJPE", "current_trial": 272, "dateTime": 1509293351980, "trialdata": {"rt": -1, "stimulus": "<p id=\"stim\">WHISKERS</p>", "key_press": -1, "type": "PRES_VIS", "word": "whiskers", "wordID": 1604, "conditions": [24, 800, "v", 12000], "trial": 8, "serialpos": 3, "trial_type": "single-stim", "trial_index": 272, "time_elapsed": 1175080, "internal_node_id": "0.0-191.0"}}, {"uniqueid": "MTK0128:3YJ6NA41JCNE6RQICRO0T1095JHJPE", "current_trial": 273, "dateTime": 1509293353624, "trialdata": {"rt": -1, "stimulus": "<p id=\"stim\">PRIMATE</p>", "key_press": -1, "type": "PRES_VIS", "word": "primate", "wordID": 1122, "conditions": [24, 800, "v", 12000], "trial": 8, "serialpos": 4, "trial_type": "single-stim", "trial_index": 273, "time_elapsed": 1176725, "internal_node_id": "0.0-192.0"}}, {"uniqueid": "MTK0128:3YJ6NA41JCNE6RQICRO0T1095JHJPE", "current_trial": 274, "dateTime": 1509293355234, "trialdata": {"rt": -1, "stimulus": "<p id=\"stim\">POPCORN</p>", "key_press": -1, "type": "PRES_VIS", "word": "popcorn", "wordID": 1103, "conditions": [24, 800, "v", 12000], "trial": 8, "serialpos": 5, "trial_type": "single-stim", "trial_index": 274, "time_elapsed": 1178335, "internal_node_id": "0.0-193.0"}}, {"uniqueid": "MTK0128:3YJ6NA41JCNE6RQICRO0T1095JHJPE", "current_trial": 275, "dateTime": 1509293357038, "trialdata": {"rt": -1, "stimulus": "<p id=\"stim\">TROUT</p>", "key_press": -1, "type": "PRES_VIS", "word": "trout", "wordID": 1510, "conditions": 