{"condition": 0, "counterbalance": 289, "assignmentId": "39N5ACM9HFUP0FD9QFXN47M691Q9P4", "workerId": "MTK0002", "hitId": "3D17ECOUOE2YH17XY2GLNE52THQ31H", "currenttrial": 625, "bonus": 0, "data": [{"uniqueid": "MTK0002:39N5ACM9HFUP0FD9QFXN47M691Q9P4", "current_trial": 0, "dateTime": 1508953537888, "trialdata": {"rt": 1357, "key_press": 32, "type": "INSTRUCTIONS", "trial_type": "text", "trial_index": 0, "time_elapsed": 1359, "internal_node_id": "0.0-0.0"}}, {"uniqueid": "MTK0002:39N5ACM9HFUP0FD9QFXN47M691Q9P4", "current_trial": 1, "dateTime": 1508953568402, "trialdata": {"rt": 30512, "key_press": 32, "type": "INSTRUCTIONS", "trial_type": "text", "trial_index": 1, "time_elapsed": 31874, "internal_node_id": "0.0-1.0"}}, {"uniqueid": "MTK0002:39N5ACM9HFUP0FD9QFXN47M691Q9P4", "current_trial": 2, "dateTime": 1508953572699, "trialdata": {"rt": [4239], "responses": ["ocean"], "type": "AUDIO_TEST", "trial_type": "audio-test", "trial_index": 2, "time_elapsed": 36170, "internal_node_id": "0.0-2.0"}}, {"uniqueid": "MTK0002:39N5ACM9HFUP0FD9QFXN47M691Q9P4", "current_trial": 3, "dateTime": 1508953581035, "trialdata": {"rt": [8326], "responses": ["crystal"], "type": "AUDIO_TEST", "trial_type": "audio-test", "trial_index": 3, "time_elapsed": 44507, "internal_node_id": "0.0-3.0"}}, {"uniqueid": "MTK0002:39N5ACM9HFUP0FD9QFXN47M691Q9P4", "current_trial": 4, "dateTime": 1508953586247, "trialdata": {"rt": [5201], "responses": ["spice"], "type": "AUDIO_TEST", "trial_type": "audio-test", "trial_index": 4, "time_elapsed": 49719, "internal_node_id": "0.0-4.0"}}, {"uniqueid": "MTK0002:39N5ACM9HFUP0FD9QFXN47M691Q9P4", "current_trial": 5, "dateTime": 1508953590778, "trialdata": {"rt": 3777, "key_press": 32, "type": "INSTRUCTIONS", "trial_type": "text", "trial_index": 5, "time_elapsed": 54250, "internal_node_id": "0.0-5.0"}}, {"uniqueid": "MTK0002:39N5ACM9HFUP0FD9QFXN47M691Q9P4", "current_trial": 6, "dateTime": 1508955492915, "trialdata": {"rt": 1902134, "key_press": 224, "type": "INSTRUCTIONS", "trial_type": "text", "trial_index": 6, "time_elapsed": 1956386, "internal_node_id": "0.0-6.0"}}, {"uniqueid": "MTK0002:39N5ACM9HFUP0FD9QFXN47M691Q9P4", "current_trial": 7, "dateTime": 1508955521222, "trialdata": {"rt": 28305, "key_press": 32, "type": "INSTRUCTIONS", "trial_type": "text", "trial_index": 7, "time_elapsed": 1984694, "internal_node_id": "0.0-7.0"}}, {"uniqueid": "MTK0002:39N5ACM9HFUP0FD9QFXN47M691Q9P4", "current_trial": 8, "dateTime": 1508955530247, "trialdata": {"rt": 9022, "key_press": 32, "type": "INSTRUCTIONS", "trial_type": "text", "trial_index": 8, "time_elapsed": 1993718, "internal_node_id": "0.0-8.0"}}, {"uniqueid": "MTK0002:39N5ACM9HFUP0FD9QFXN47M691Q9P4", "current_trial": 9, "dateTime": 1508955549270, "trialdata": {"rt": [4259, 6079, 14517], "responses": ["18", "12", "19"], "num1": [9, 1, 8, 6], "num2": [5, 7, 5, 7], "num3": [4, 4, 6, 4], "type": "DISTRACTOR", "conditions": [18, 1200, "a", 18000], "trial": 0, "trial_type": "math-distractor", "trial_index": 9, "time_elapsed": 2012741, "internal_node_id": "0.0-9.0"}}, {"uniqueid": "MTK0002:39N5ACM9HFUP0FD9QFXN47M691Q9P4", "current_trial": 10, "dateTime": 1508955552277, "trialdata": {"rt": -1, "stimulus": "<p id=\"stim\">10</p>", "key_press": -1, "trial_type": "single-stim", "trial_index": 10, "time_elapsed": 2015748, "internal_node_id": "0.0-10.0-0.0"}}, {"uniqueid": "MTK0002:39N5ACM9HFUP0FD9QFXN47M691Q9P4", "current_trial": 11, "dateTime": 1508955553280, "trialdata": {"rt": -1, "stimulus": "<p id=\"stim\">9</p>", "key_press": -1, "trial_type": "single-stim", "trial_index": 11, "time_elapsed": 2016752, "internal_node_id": "0.0-10.0-1.0"}}, {"uniqueid": "MTK0002:39N5ACM9HFUP0FD9QFXN47M691Q9P4", "current_trial": 12, "dateTime": 1508955554285, "trialdata": {"rt": -1, "stimulus": "<p id=\"stim\">8</p>", "key_press": -1, "trial_type": "single-stim", "trial_index": 12, "time_elapsed": 2017756, "internal_node_id": "0.0-10.0-2.0"}}, {"uniqueid": "MTK0002:39N5ACM9HFUP0FD9QFXN47M691Q9P4", "current_trial": 13, "dateTime": 1508955555286, "trialdata": {"rt": -1, "stimulus": "<p id=\"stim\">7</p>", "key_press": -1, "trial_type": "single-stim", "trial_index": 13, "time_elapsed": 2018758, "internal_node_id": "0.0-10.0-3.0"}}, {"uniqueid": "MTK0002:39N5ACM9HFUP0FD9QFXN47M691Q9P4", "current_trial": 14, "dateTime": 1508955556287, "trialdata": {"rt": -1, "stimulus": "<p id=\"stim\">6</p>", "key_press": -1, "trial_type": "single-stim", "trial_index": 14, "time_elapsed": 2019759, "internal_node_id": "0.0-10.0-4.0"}}, {"uniqueid": "MTK0002:39N5ACM9HFUP0FD9QFXN47M691Q9P4", "current_trial": 15, "dateTime": 1508955557291, "trialdata": {"rt": -1, "stimulus": "<p id=\"stim\">5</p>", "key_press": -1, "trial_type": "single-stim", "trial_index": 15, "time_elapsed": 2020763, "internal_node_id": "0.0-10.0-5.0"}}, {"uniqueid": "MTK0002:39N5ACM9HFUP0FD9QFXN47M691Q9P4", "current_trial": 16, "dateTime": 1508955558294, "trialdata": {"rt": -1, "stimulus": "<p id=\"stim\">4</p>", "key_press": -1, "trial_type": "single-stim", "trial_index": 16, "time_elapsed": 2021766, "internal_node_id": "0.0-10.0-6.0"}}, {"uniqueid": "MTK0002:39N5ACM9HFUP0FD9QFXN47M691Q9P4", "current_trial": 17, "dateTime": 1508955559313, "trialdata": {"rt": -1, "stimulus": "<p id=\"stim\">3</p>", "key_press": -1, "trial_type": "single-stim", "trial_index": 17, "time_elapsed": 2022785, "internal_node_id": "0.0-10.0-7.0"}}, {"uniqueid": "MTK0002:39N5ACM9HFUP0FD9QFXN47M691Q9P4", "current_trial": 18, "dateTime": 1508955560318, "trialdata": {"rt": -1, "stimulus": "<p id=\"stim\">2</p>", "key_press": -1, "trial_type": "single-stim", "trial_index": 18, "time_elapsed": 2023790, "internal_node_id": "0.0-10.0-8.0"}}, {"uniqueid": "MTK0002:39N5ACM9HFUP0FD9QFXN47M691Q9P4", "current_trial": 19, "dateTime": 1508955561321, "trialdata": {"rt": -1, "stimulus": "<p id=\"stim\">1</p>", "key_press": -1, "trial_type": "single-stim", "trial_index": 19, "time_elapsed": 2024793, "internal_node_id": "0.0-10.0-9.0"}}, {"uniqueid": "MTK0002:39N5ACM9HFUP0FD9QFXN47M691Q9P4", "current_trial": 20, "dateTime": 1508955562827, "trialdata": {"rt": -1, "stimulus": "<p id=\"stim\">+</p>", "key_press": -1, "type": "FIXATION", "trial_type": "single-stim", "trial_index": 20, "time_elapsed": 2026299, "internal_node_id": "0.0-11.0-0.0"}}, {"uniqueid": "MTK0002:39N5ACM9HFUP0FD9QFXN47M691Q9P4", "current_trial": 21, "dateTime": 1508955565105, "trialdata": {"rt": -1000, "stimulus": "/static/audio/wordpool/HUMAN.wav", "key_press": -1, "type": "PRES_AUD", "word": "human", "wordID": 725, "conditions": [18, 1200, "a", 18000], "trial": 0, "serialpos": 0, "trial_type": "single-audio", "trial_index": 21, "time_elapsed": 2028577, "internal_node_id": "0.0-12.0"}}, {"uniqueid": "MTK0002:39N5ACM9HFUP0FD9QFXN47M691Q9P4", "current_trial": 22, "dateTime": 1508955567254, "trialdata": {"rt": -1000, "stimulus": "/static/audio/wordpool/FLAG.wav", "key_press": -1, "type": "PRES_AUD", "word": "flag", "wordID": 572, "conditions": [18, 1200, "a", 18000], "trial": 0, "serialpos": 1, "trial_type": "single-audio", "trial_index": 22, "time_elapsed": 2030725, "internal_node_id": "0.0-13.0"}}, {"uniqueid": "MTK0002:39N5ACM9HFUP0FD9QFXN47M691Q9P4", "current_trial": 23, "dateTime": 1508955569485, "trialdata": {"rt": -1000, "stimulus": "/static/audio/wordpool/FRANCE.wav", "key_press": -1, "type": "PRES_AUD", "word": "france", "wordID": 600, "conditions": [18, 1200, "a", 18000], "trial": 0, "serialpos": 2, "trial_type": "single-audio", "trial_index": 23, "time_elapsed": 2032957, "internal_node_id": "0.0-14.0"}}, {"uniqueid": "MTK0002:39N5ACM9HFUP0FD9QFXN47M691Q9P4", "current_trial": 24, "dateTime": 1508955571809, "trialdata": {"rt": -1000, "stimulus": "/static/audio/wordpool/MARSH.wav", "key_press": -1, "type": "PRES_AUD", "word": "marsh", "wordID": 873, "conditions": [18, 1200, "a", 18000], "trial": 0, "serialpos": 3, "trial_type": "single-audio", "trial_index": 24, "time_elapsed": 2035281, "internal_node_id": "0.0-15.0"}}, {"uniqueid": "MTK0002:39N5ACM9HFUP0FD9QFXN47M691Q9P4", "current_trial": 25, "dateTime": 1508955573819, "trialdata": {"rt": -1000, "stimulus": "/static/audio/wordpool/FIDDLE.wav", "key_press": -1, "type": "PRES_AUD", "word": "fiddle", "wordID": 560, "conditions": [18, 1200, "a", 18000], "trial": 0, "serialpos": 4, "trial_type": "single-audio", "trial_index": 25, "time_elapsed": 2037290, "internal_node_id": "0.0-16.0"}}, {"uniqueid": "MTK0002:39N5ACM9HFUP0FD9QFXN47M691Q9P4", "current_trial": 26, "dateTime": 1508955575887, "trialdata": {"rt": -1000, "stimulus": "/static/audio/wordpool/GAZELLE.wav", "key_press": -1, "type": "PRES_AUD", "word": "gazelle", "wordID": 627, "conditions": [18, 1200, "a", 18000], "trial": 0, "serialpos": 5, "trial_type": "single-audio", "trial_index": 26, "time_elapsed": 2039359, "internal_node_id": "0.0-17.0"}}, {"uniqueid": "MTK0002:39N5ACM9HFUP0FD9QFXN47M691Q9P4", "current_trial": 27, "dateTime": 1508955578112, "trialdata": {"rt": -1000, "stimulus": "/static/audio/wordpool/PIGMENT.wav", "key_press": -1, "type": "PRES_AUD", "word": "pigment", "wordID": 1065, "conditions": [18, 1200, "a", 18000], "trial": 0, "serialpos": 6, "trial_type": "single-audio", "trial_index": 27, "time_elapsed": 2041584, "internal_node_id": "0.0-18.0"}}, {"uniqueid": "MTK0002:39N5ACM9HFUP0FD9QFXN47M691Q9P4", "current_trial": 28, "dateTime": 1508955580477, "trialdata": {"rt": -1000, "stimulus": "/static/audio/wordpool/WOMAN.wav", "key_press": -1, "type": "PRES_AUD", "word": "woman", "wordID": 1619, "conditions": [18, 1200, "a", 18000], "trial": 0, "serialpos": 7, "trial_type": "single-audio", "trial_index": 28, "time_elapsed": 2043949, "internal_node_id": "0.0-19.0"}}, {"uniqueid": "MTK0002:39N5ACM9HFUP0FD9QFXN47M691Q9P4", "current_trial": 29, "dateTime": 1508955582839, "trialdata": {"rt": -1000, "stimulus": "/static/audio/wordpool/COTTAGE.wav", "key_press": -1, "type": "PRES_AUD", "word": "cottage", "wordID": 383, "conditions": [18, 1200, "a", 18000], "trial": 0, "serialpos": 8, "trial_type": "single-audio", "trial_index": 29, "time_elapsed": 2046311, "internal_node_id": "0.0-20.0"}}, {"uniqueid": "MTK0002:39N5ACM9HFUP0FD9QFXN47M691Q9P4", "current_trial": 30, "dateTime": 1508955584896, "trialdata": {"rt": -1000, "stimulus": "/static/audio/wordpool/VIKING.wav", "key_press": -1, "type": "PRES_AUD", "word": "viking", "wordID": 1564, "conditions": [18, 1200, "a", 18000], "trial": 0, "serialpos": 9, "trial_type": "single-audio", "trial_index": 30, "time_elapsed": 2048368, "internal_node_id": "0.0-21.0"}}, {"uniqueid": "MTK0002:39N5ACM9HFUP0FD9QFXN47M691Q9P4", "current_trial": 31, "dateTime": 1508955587059, "trialdata": {"rt": -1000, "stimulus": "/static/audio/wordpool/WIFE.wav", "key_press": -1, "type": "PRES_AUD", "word": "wife", "wordID": 1608, "conditions": [18, 1200, "a", 18000], "trial": 0, "serialpos": 10, "trial_type": "single-audio", "trial_index": 31, "time_elapsed": 2050531, "internal_node_id": "0.0-22.0"}}, {"uniqueid": "MTK0002:39N5ACM9HFUP0FD9QFXN47M691Q9P4", "current_trial": 32, "dateTime": 1508955589129, "trialdata": {"rt": -1000, "stimulus": "/static/audio/wordpool/PIGEON.wav", "key_press": -1, "type": "PRES_AUD", "word": "pigeon", "wordID": 1064, "conditions": [18, 1200, "a", 18000], "trial": 0, "serialpos": 11, "trial_type": "single-audio", "trial_index": 32, "time_elapsed": 2052600, "internal_node_id": "0.0-23.0"}}, {"uniqueid": "MTK0002:39N5ACM9HFUP0FD9QFXN47M691Q9P4", "current_trial": 33, "dateTime": 1508955591339, "trialdata": {"rt": -1000, "stimulus": "/static/audio/wordpool/BOYFRIEND.wav", "key_press": -1, "type": "PRES_AUD", "word": "boyfriend", "wordID": 161, "conditions": [18, 1200, "a", 18000], "trial": 0, "serialpos": 12, "trial_type": "single-audio", "trial_index": 33, "time_elapsed": 2054810, "internal_node_id": "0.0-24.0"}}, {"uniqueid": "MTK0002:39N5ACM9HFUP0FD9QFXN47M691Q9P4", "current_trial": 34, "dateTime": 1508955593475, "trialdata": {"rt": -1000, "stimulus": "/static/audio/wordpool/GLOVE.wav", "key_press": -1, "type": "PRES_AUD", "word": "glove", "wordID": 641, "conditions": [18, 1200, "a", 18000], "trial": 0, "serialpos": 13, "trial_type": "single-audio", "trial_index": 34, "time_elapsed": 2056947, "internal_node_id": "0.0-25.0"}}, {"uniqueid": "MTK0002:39N5ACM9HFUP0FD9QFXN47M691Q9P4", "current_trial": 35, "dateTime": 1508955595840, "trialdata": {"rt": -1000, "stimulus": "/static/audio/wordpool/SWITCH.wav", "key_press": -1, "type": "PRES_AUD", "word": "switch", "wordID": 1421, "conditions": [18, 1200, "a", 18000], "trial": 0, "serialpos": 14, "trial_type": "single-audio", "trial_index": 35, "time_elapsed": 2059311, "internal_node_id": "0.0-26.0"}}, {"uniqueid": "MTK0002:39N5ACM9HFUP0FD9QFXN47M691Q9P4", "current_trial": 36, "dateTime": 1508955597996, "trialdata": {"rt": -1000, "stimulus": "/static/audio/wordpool/CABIN.wav", "key_press": -1, "type": "PRES_AUD", "word": "cabin", "wordID": 210, "conditions": [18, 1200, "a", 18000], "trial": 0, "serialpos": 15, "trial_type": "single-audio", "trial_index": 36, "time_elapsed": 2061468, "internal_node_id": "0.0-27.0"}}, {"uniqueid": "MTK0002:39N5ACM9HFUP0FD9QFXN47M691Q9P4", "current_trial": 37, "dateTime": 1508955600011, "trialdata": {"rt": -1000, "stimulus": "/static/audio/wordpool/BINDER.wav", "key_press": -1, "type": "PRES_AUD", "word": "binder", "wordID": 126, "conditions": [18, 1200, "a", 18000], "trial": 0, "serialpos": 16, "trial_type": "single-audio", "trial_index": 37, "time_elapsed": 2063483, "internal_node_id": "0.0-28.0"}}, {"uniqueid": "MTK0002:39N5ACM9HFUP0FD9QFXN47M691Q9P4", "current_trial": 38, "dateTime": 1508955602354, "trialdata": {"rt": -1000, "stimulus": "/static/audio/wordpool/MAMMAL.wav", "key_press": -1, "type": "PRES_AUD", "word": "mammal", "wordID": 860, "conditions": [18, 1200, "a", 18000], "trial": 0, "serialpos": 17, "trial_type": "single-audio", "trial_index": 38, "time_elapsed": 2065826, "internal_node_id": "0.0-29.0"}}, {"uniqueid": "MTK0002:39N5ACM9HFUP0FD9QFXN47M691Q9P4", "current_trial": 39, "dateTime": 1508955603792, "trialdata": {"rt": -1, "stimulus": "", "key_press": -1, "type": "PRE_RECALL_DELAY", "trial_type": "single-stim", "trial_index": 39, "time_elapsed": 2067264, "internal_node_id": "0.0-30.0-0.0"}}, {"uniqueid": "MTK0002:39N5ACM9HFUP0FD9QFXN47M691Q9P4", "current_trial": 40, "dateTime": 1508955604298, "trialdata": {"rt": -1000, "stimulus": "/static/audio/400Hz.wav", "key_press": -1, "type": "PRE_RECALL_ALERT", "trial_type": "single-audio", "trial_index": 40, "time_elapsed": 2067770, "internal_node_id": "0.0-31.0"}}, {"uniqueid": "MTK0002:39N5ACM9HFUP0FD9QFXN47M691Q9P4", "current_trial": 41, "dateTime": 1508955664304, "trialdata": {"rt": [5074, 6434, 8033, 9623, 10764, 12364], "recwords": ["human", "flag", "fiddle", "france", "mud", "pigeon"], "type": "FREE_RECALL", "conditions": [18, 1200, "a", 18000], "trial": 0, "trial_type": "free-recall", "trial_index": 41, "time_elapsed": 2127776, "internal_node_id": "0.0-32.0-0.0"}}, {"uniqueid": "MTK0002:39N5ACM9HFUP0FD9QFXN47M691Q9P4", "current_trial": 42, "dateTime": 1508955668866, "trialdata": {"rt": 2559, "key_press": 32, "type": "INSTRUCTIONS", "trial_type": "text", "trial_index": 42, "time_elapsed": 2132337, "internal_node_id": "0.0-33.0"}}, {"uniqueid": "MTK0002:39N5ACM9HFUP0FD9QFXN47M691Q9P4", "current_trial": 43, "dateTime": 1508955688879, "trialdata": {"rt": [4482, 7117, 10854, 15249], "responses": ["15", "15", "15", "21"], "num1": [7, 6, 7, 4, 3], "num2": [4, 7, 7, 9, 1], "num3": [4, 2, 1, 8, 3], "type": "DISTRACTOR", "conditions": [18, 1200, "v", 18000], "trial": 1, "trial_type": "math-distractor", "trial_index": 43, "time_elapsed": 2152351, "internal_node_id": "0.0-34.0"}}, {"uniqueid": "MTK0002:39N5ACM9HFUP0FD9QFXN47M691Q9P4", "current_trial": 44, "dateTime": 1508955691883, "trialdata": {"rt": -1, "stimulus": "<p id=\"stim\">10</p>", "key_press": -1, "trial_type": "single-stim", "trial_index": 44, "time_elapsed": 2155355, "internal_node_id": "0.0-35.0-0.0"}}, {"uniqueid": "MTK0002:39N5ACM9HFUP0FD9QFXN47M691Q9P4", "current_trial": 45, "dateTime": 1508955692895, "trialdata": {"rt": -1, "stimulus": "<p id=\"stim\">9</p>", "key_press": -1, "trial_type": "single-stim", "trial_index": 45, "time_elapsed": 2156367, "internal_node_id": "0.0-35.0-1.0"}}, {"uniqueid": "MTK0002:39N5ACM9HFUP0FD9QFXN47M691Q9P4", "current_trial": 46, "dateTime": 1508955693898, "trialdata": {"rt": -1, "stimulus": "<p id=\"stim\">8</p>", "key_press": -1, "trial_type": "single-stim", "trial_index": 46, "time_elapsed": 2157369, "internal_node_id": "0.0-35.0-2.0"}}, {"uniqueid": "MTK0002:39N5ACM9HFUP0FD9QFXN47M691Q9P4", "current_trial": 47, "dateTime": 1508955694901, "trialdata": {"rt": -1, "stimulus": "<p id=\"stim\">7</p>", "key_press": -1, "trial_type": "single-stim", "trial_index": 47, "time_elapsed": 2158372, "internal_node_id": "0.0-35.0-3.0"}}, {"uniqueid": "MTK0002:39N5ACM9HFUP0FD9QFXN47M691Q9P4", "current_trial": 48, "dateTime": 1508955695903, "trialdata": {"rt": -1, "stimulus": "<p id=\"stim\">6</p>", "key_press": -1, "trial_type": "single-stim", "trial_index": 48, "time_elapsed": 2159375, "internal_node_id": "0.0-35.0-4.0"}}, {"uniqueid": "MTK0002:39N5ACM9HFUP0FD9QFXN47M691Q9P4", "current_trial": 49, "dateTime": 1508955696904, "trialdata": {"rt": -1, "stimulus": "<p id=\"stim\">5</p>", "key_press": -1, "trial_type": "single-stim", "trial_index": 49, "time_elapsed": 2160376, "internal_node_id": "0.0-35.0-5.0"}}, {"uniqueid": "MTK0002:39N5ACM9HFUP0FD9QFXN47M691Q9P4", "current_trial": 50, "dateTime": 1508955697907, "trialdata": {"rt": -1, "stimulus": "<p id=\"stim\">4</p>", "key_press": -1, "trial_type": "single-stim", "trial_index": 50, "time_elapsed": 2161379, "internal_node_id": "0.0-35.0-6.0"}}, {"uniqueid": "MTK0002:39N5ACM9HFUP0FD9QFXN47M691Q9P4", "current_trial": 51, "dateTime": 1508955698913, "trialdata": {"rt": -1, "stimulus": "<p id=\"stim\">3</p>", "key_press": -1, "trial_type": "single-stim", "trial_index": 51, "time_elapsed": 2162385, "internal_node_id": "0.0-35.0-7.0"}}, {"uniqueid": "MTK0002:39N5ACM9HFUP0FD9QFXN47M691Q9P4", "current_trial": 52, "dateTime": 1508955699919, "trialdata": {"rt": -1, "stimulus": "<p id=\"stim\">2</p>", "key_press": -1, "trial_type": "single-stim", "trial_index": 52, "time_elapsed": 2163391, "internal_node_id": "0.0-35.0-8.0"}}, {"uniqueid": "MTK0002:39N5ACM9HFUP0FD9QFXN47M691Q9P4", "current_trial": 53, "dateTime": 1508955700923, "trialdata": {"rt": -1, "stimulus": "<p id=\"stim\">1</p>", "key_press": -1, "trial_type": "single-stim", "trial_index": 53, "time_elapsed": 2164395, "internal_node_id": "0.0-35.0-9.0"}}, {"uniqueid": "MTK0002:39N5ACM9HFUP0FD9QFXN47M691Q9P4", "current_trial": 54, "dateTime": 1508955702430, "trialdata": {"rt": -1, "stimulus": "<p id=\"stim\">+</p>", "key_press": -1, "type": "FIXATION", "trial_type": "single-stim", "trial_index": 54, "time_elapsed": 2165902, "internal_node_id": "0.0-36.0-0.0"}}, {"uniqueid": "MTK0002:39N5ACM9HFUP0FD9QFXN47M691Q9P4", "current_trial": 55, "dateTime": 1508955703635, "trialdata": {"rt": -1, "stimulus": "<p id=\"stim\">PEANUT</p>", "key_press": -1, "type": "PRES_VIS", "word": "peanut", "wordID": 1031, "conditions": [18, 1200, "v", 18000], "trial": 1, "serialpos": 0, "trial_type": "single-stim", "trial_index": 55, "time_elapsed": 2167107, "internal_node_id": "0.0-37.0"}}, {"uniqueid": "MTK0002:39N5ACM9HFUP0FD9QFXN47M691Q9P4", "current_trial": 56, "dateTime": 1508955705645, "trialdata": {"rt": -1, "stimulus": "<p id=\"stim\">STALLION</p>", "key_press": -1, "type": "PRES_VIS", "word": "stallion", "wordID": 1368, "conditions": [18, 1200, "v", 18000], "trial": 1, "serialpos": 1, "trial_type": "single-stim", "trial_index": 56, "time_elapsed": 2169117, "internal_node_id": "0.0-38.0"}}, {"uniqueid": "MTK0002:39N5ACM9HFUP0FD9QFXN47M691Q9P4", "current_trial": 57, "dateTime": 1508955707937, "trialdata": {"rt": -1, "stimulus": "<p id=\"stim\">TROMBONE</p>", "key_press": -1, "type": "PRES_VIS", "word": "trombone", "wordID": 1507, "conditions": [18, 1200, "v", 18000], "trial": 1, "serialpos": 2, "trial_type": "single-stim", "trial_index": 57, "time_elapsed": 2171409, "internal_node_id": "0.0-39.0"}}, {"uniqueid": "MTK0002:39N5ACM9HFUP0FD9QFXN47M691Q9P4", "current_trial": 58, "dateTime": 1508955710319, "trialdata": {"rt": -1, "stimulus": "<p id=\"stim\">PARSLEY</p>", "key_press": -1, "type": "PRES_VIS", "word": "parsley", "wordID": 1015, "conditions": [18, 1200, "v", 18000], "trial": 1, "serialpos": 3, "trial_type": "single-stim", "trial_index": 58, "time_elapsed": 2173790, "internal_node_id": "0.0-40.0"}}, {"uniqueid": "MTK0002:39N5ACM9HFUP0FD9QFXN47M691Q9P4", "current_trial": 59, "dateTime": 1508955712353, "trialdata": {"rt": -1, "stimulus": "<p id=\"stim\">CHILD</p>", "key_press": -1, "type": "PRES_VIS", "word": "child", "wordID": 298, "conditions": [18, 1200, "v", 18000], "trial": 1, "serialpos": 4, "trial_type": "single-stim", "trial_index": 59, "time_elapsed": 2175825, "internal_node_id": "0.0-41.0"}}, {"uniqueid": "MTK0002:39N5ACM9HFUP0FD9QFXN47M691Q9P4", "current_trial": 60, "dateTime": 1508955714446, "trialdata": {"rt": -1, "stimulus": "<p id=\"stim\">FOREST</p>", "key_press": -1, "type": "PRES_VIS", "word": "forest", "wordID": 592, "conditions": [18, 1200, "v", 18000], "trial": 1, "serialpos": 5, "trial_type": "single-stim", "trial_index": 60, "time_elapsed": 2177918, "internal_node_id": "0.0-42.0"}}, {"uniqueid": "MTK0002:39N5ACM9HFUP0FD9QFXN47M691Q9P4", "current_trial": 61, "dateTime": 1508955716553, "trialdata": {"rt": -1, "stimulus": "<p id=\"stim\">BOX</p>", "key_press": -1, "type": "PRES_VIS", "word": "box", "wordID": 158, "conditions": [18, 1200, "v", 18000], "trial": 1, "serialpos": 6, "trial_type": "single-stim", "trial_index": 61, "time_elapsed": 2180024, "internal_node_id": "0.0-43.0"}}, {"uniqueid": "MTK0002:39N5ACM9HFUP0FD9QFXN47M691Q9P4", "current_trial": 62, "dateTime": 1508955718919, "trialdata": {"rt": -1, "stimulus": "<p id=\"stim\">MONSTER</p>", "key_press": -1, "type": "PRES_VIS", "word": "monster", "wordID": 911, "conditions": [18, 1200, "v", 18000], "trial": 1, "serialpos": 7, "trial_type": "single-stim", "trial_index": 62, "time_elapsed": 2182390, "internal_node_id": "0.0-44.0"}}, {"uniqueid": "MTK0002:39N5ACM9HFUP0FD9QFXN47M691Q9P4", "current_trial": 63, "dateTime": 1508955721124, "trialdata": {"rt": -1, "stimulus": "<p id=\"stim\">MUSTARD</p>", "key_press": -1, "type": "PRES_VIS", "word": "mustard", "wordID": 934, "conditions": [18, 1200, "v", 18000], "trial": 1, "serialpos": 8, "trial_type": "single-stim", "trial_index": 63, "time_elapsed": 2184596, "internal_node_id": "0.0-45.0"}}, {"uniqueid": "MTK0002:39N5ACM9HFUP0FD9QFXN47M691Q9P4", "current_trial": 64, "dateTime": 1508955723415, "trialdata": {"rt": -1, "stimulus": "<p id=\"stim\">POWDER</p>", "key_press": -1, "type": "PRES_VIS", "word": "powder", "wordID": 1116, "conditions": [18, 1200, "v", 18000], "trial": 1, "serialpos": 9, "trial_type": "single-stim", "trial_index": 64, "time_elapsed": 2186886, "internal_node_id": "0.0-46.0"}}, {"uniqueid": "MTK0002:39N5ACM9HFUP0FD9QFXN47M691Q9P4", "current_trial": 65, "dateTime": 1508955725755, "trialdata": {"rt": -1, "stimulus": "<p id=\"stim\">LIZARD</p>", "key_press": -1, "type": "PRES_VIS", "word": "lizard", "wordID": 833, "conditions": [18, 1200, "v", 18000], "trial": 1, "serialpos": 10, "trial_type": "single-stim", "trial_index": 65, "time_elapsed": 2189226, "internal_node_id": "0.0-47.0"}}, {"uniqueid": "MTK0002:39N5ACM9HFUP0FD9QFXN47M691Q9P4", "current_trial": 66, "dateTime": 1508955727952, "trialdata": {"rt": -1, "stimulus": "<p id=\"stim\">CONCERT</p>", "key_press": -1, "type": "PRES_VIS", "word": "concert", "wordID": 359, "conditions": [18, 1200, "v", 18000], "trial": 1, "serialpos": 11, "trial_type": "single-stim", "trial_index": 66, "time_elapsed": 2191424, "internal_node_id": "0.0-48.0"}}, {"uniqueid": "MTK0002:39N5ACM9HFUP0FD9QFXN47M691Q9P4", "current_trial": 67, "dateTime": 1508955729994, "trialdata": {"rt": -1, "stimulus": "<p id=\"stim\">DUSTPAN</p>", "key_press": -1, "type": "PRES_VIS", "word": "dustpan", "wordID": 508, "conditions": [18, 1200, "v", 18000], "trial": 1, "serialpos": 12, "trial_type": "single-stim", "trial_index": 67, "time_elapsed": 2193466, "internal_node_id": "0.0-49.0"}}, {"uniqueid": "MTK0002:39N5ACM9HFUP0FD9QFXN47M691Q9P4", "current_trial": 68, "dateTime": 1508955732028, "trialdata": {"rt": -1, "stimulus": "<p id=\"stim\">COD</p>", "key_press": -1, "type": "PRES_VIS", "word": "cod", "wordID": 339, "conditions": [18, 1200, "v", 18000], "trial": 1, "serialpos": 13, "trial_type": "single-stim", "trial_index": 68, "time_elapsed": 2195499, "internal_node_id": "0.0-50.0"}}, {"uniqueid": "MTK0002:39N5ACM9HFUP0FD9QFXN47M691Q9P4", "current_trial": 69, "dateTime": 1508955734191, "trialdata": {"rt": -1, "stimulus": "<p id=\"stim\">ITEM</p>", "key_press": -1, "type": "PRES_VIS", "word": "item", "wordID": 745, "conditions": [18, 1200, "v", 18000], "trial": 1, "serialpos": 14, "trial_type": "single-stim", "trial_index": 69, "time_elapsed": 2197663, "internal_node_id": "0.0-51.0"}}, {"uniqueid": "MTK0002:39N5ACM9HFUP0FD9QFXN47M691Q9P4", "current_trial": 70, "dateTime": 1508955736275, "trialdata": {"rt": -1, "stimulus": "<p id=\"stim\">FEMALE</p>", "key_press": -1, "type": "PRES_VIS", "word": "female", "wordID": 558, "conditions": [18, 1200, "v", 18000], "trial": 1, "serialpos": 15, "trial_type": "single-stim", "trial_index": 70, "time_elapsed": 2199747, "internal_node_id": "0.0-52.0"}}, {"uniqueid": "MTK0002:39N5ACM9HFUP0FD9QFXN47M691Q9P4", "current_trial": 71, "dateTime": 1508955738573, "trialdata": {"rt": -1, "stimulus": "<p id=\"stim\">BEAVER</p>", "key_press": -1, "type": "PRES_VIS", "word": "beaver", "wordID": 108, "conditions": [18, 1200, "v", 18000], "trial": 1, "serialpos": 16, "trial_type": "single-stim", "trial_index": 71, "time_elapsed": 2202045, "internal_node_id": "0.0-53.0"}}, {"uniqueid": "MTK0002:39N5ACM9HFUP0FD9QFXN47M691Q9P4", "current_trial": 72, "dateTime": 1508955740703, "trialdata": {"rt": -1, "stimulus": "<p id=\"stim\">TRENCH</p>", "key_press": -1, "type": "PRES_VIS", "word": "trench", "wordID": 1502, "conditions": [18, 1200, "v", 18000], "trial": 1, "serialpos": 17, "trial_type": "single-stim", "trial_index": 72, "time_elapsed": 2204175, "internal_node_id": "0.0-54.0"}}, {"uniqueid": "MTK0002:39N5ACM9HFUP0FD9QFXN47M691Q9P4", "current_trial": 73, "dateTime": 1508955743069, "trialdata": {"rt": -1, "stimulus": "", "key_press": -1, "type": "PRE_RECALL_DELAY", "trial_type": "single-stim", "trial_index": 73, "time_elapsed": 2206541, "internal_node_id": "0.0-55.0-0.0"}}, {"uniqueid": "MTK0002:39N5ACM9HFUP0FD9QFXN47M691Q9P4", "current_trial": 74, "dateTime": 1508955743572, "trialdata": {"rt": -1000, "stimulus": "/static/audio/400Hz.wav", "key_press": -1, "type": "PRE_RECALL_ALERT", "trial_type": "single-audio", "trial_index": 74, "time_elapsed": 2207044, "internal_node_id": "0.0-56.0"}}, {"uniqueid": "MTK0002:39N5ACM9HFUP0FD9QFXN47M691Q9P4", "current_trial": 75, "dateTime": 1508955803578, "trialdata": {"rt": [3498, 6900, 7678, 11713, 16516, 24744, 36383], "recwords": ["peanut", "parsley", "cod", "powder", "trench", "trombone", "female"], "type": "FREE_RECALL", "conditions": [18, 1200, "v", 18000], "trial": 1, "trial_type": "free-recall", "trial_index": 75, "time_elapsed": 2267049, "internal_node_id": "0.0-57.0-0.0"}}, {"uniqueid": "MTK0002:39N5ACM9HFUP0FD9QFXN47M691Q9P4", "current_trial": 76, "dateTime": 1508955807285, "trialdata": {"rt": 1702, "key_press": 32, "type": "INSTRUCTIONS", "trial_type": "text", "trial_index": 76, "time_elapsed": 2270756, "internal_node_id": "0.0-58.0"}}, {"uniqueid": "MTK0002:39N5ACM9HFUP0FD9QFXN47M691Q9P4", "current_trial": 77, "dateTime": 1508955820302, "trialdata": {"rt": [3281, 7353, 9525, 11822], "responses": ["8", "17", "17", "12"], "num1": [2, 9, 7, 7, 9], "num2": [1, 5, 8, 3, 4], "num3": [5, 3, 2, 2, 6], "type": "DISTRACTOR", "conditions": [24, 1600, "v", 12000], "trial": 2, "trial_type": "math-distractor", "trial_index": 77, "time_elapsed": 2283774, "internal_node_id": "0.0-59.0"}}, {"uniqueid": "MTK0002:39N5ACM9HFUP0FD9QFXN47M691Q9P4", "current_trial": 78, "dateTime": 1508955823312, "trialdata": {"rt": -1, "stimulus": "<p id=\"stim\">10</p>", "key_press": -1, "trial_type": "single-stim", "trial_index": 78, "time_elapsed": 2286783, "internal_node_id": "0.0-60.0-0.0"}}, {"uniqueid": "MTK0002:39N5ACM9HFUP0FD9QFXN47M691Q9P4", "current_trial": 79, "dateTime": 1508955824318, "trialdata": {"rt": -1, "stimulus": "<p id=\"stim\">9</p>", "key_press": -1, "trial_type": "single-stim", "trial_index": 79, "time_elapsed": 2287790, "internal_node_id": "0.0-60.0-1.0"}}, {"uniqueid": "MTK0002:39N5ACM9HFUP0FD9QFXN47M691Q9P4", "current_trial": 80, "dateTime": 1508955825322, "trialdata": {"rt": -1, "stimulus": "<p id=\"stim\">8</p>", "key_press": -1, "trial_type": "single-stim", "trial_index": 80, "time_elapsed": 2288793, "internal_node_id": "0.0-60.0-2.0"}}, {"uniqueid": "MTK0002:39N5ACM9HFUP0FD9QFXN47M691Q9P4", "current_trial": 81, "dateTime": 1508955826324, "trialdata": {"rt": -1, "stimulus": "<p id=\"stim\">7</p>", "key_press": -1, "trial_type": "single-stim", "trial_index": 81, "time_elapsed": 2289796, "internal_node_id": "0.0-60.0-3.0"}}, {"uniqueid": "MTK0002:39N5ACM9HFUP0FD9QFXN47M691Q9P4", "current_trial": 82, "dateTime": 1508955827326, "trialdata": {"rt": -1, "stimulus": "<p id=\"stim\">6</p>", "key_press": -1, "trial_type": "single-stim", "trial_index": 82, "time_elapsed": 2290797, "internal_node_id": "0.0-60.0-4.0"}}, {"uniqueid": "MTK0002:39N5ACM9HFUP0FD9QFXN47M691Q9P4", "current_trial": 83, "dateTime": 1508955828332, "trialdata": {"rt": -1, "stimulus": "<p id=\"stim\">5</p>", "key_press": -1, "trial_type": "single-stim", "trial_index": 83, "time_elapsed": 2291804, "internal_node_id": "0.0-60.0-5.0"}}, {"uniqueid": "MTK0002:39N5ACM9HFUP0FD9QFXN47M691Q9P4", "current_trial": 84, "dateTime": 1508955829335, "trialdata": {"rt": -1, "stimulus": "<p id=\"stim\">4</p>", "key_press": -1, "trial_type": "single-stim", "trial_index": 84, "time_elapsed": 2292806, "internal_node_id": "0.0-60.0-6.0"}}, {"uniqueid": "MTK0002:39N5ACM9HFUP0FD9QFXN47M691Q9P4", "current_trial": 85, "dateTime": 1508955830338, "trialdata": {"rt": -1, "stimulus": "<p id=\"stim\">3</p>", "key_press": -1, "trial_type": "single-stim", "trial_index": 85, "time_elapsed": 2293809, "internal_node_id": "0.0-60.0-7.0"}}, {"uniqueid": "MTK0002:39N5ACM9HFUP0FD9QFXN47M691Q9P4", "current_trial": 86, "dateTime": 1508955831343, "trialdata": {"rt": -1, "stimulus": "<p id=\"stim\">2</p>", "key_press": -1, "trial_type": "single-stim", "trial_index": 86, "time_elapsed": 2294814, "internal_node_id": "0.0-60.0-8.0"}}, {"uniqueid": "MTK0002:39N5ACM9HFUP0FD9QFXN47M691Q9P4", "current_trial": 87, "dateTime": 1508955832346, "trialdata": {"rt": -1, "stimulus": "<p id=\"stim\">1</p>", "key_press": -1, "trial_type": "single-stim", "trial_index": 87, "time_elapsed": 2295818, "internal_node_id": "0.0-60.0-9.0"}}, {"uniqueid": "MTK0002:39N5ACM9HFUP0FD9QFXN47M691Q9P4", "current_trial": 88, "dateTime": 1508955833848, "trialdata": {"rt": -1, "stimulus": "<p id=\"stim\">+</p>", "key_press": -1, "type": "FIXATION", "trial_type": "single-stim", "trial_index": 88, "time_elapsed": 2297319, "internal_node_id": "0.0-61.0-0.0"}}, {"uniqueid": "MTK0002:39N5ACM9HFUP0FD9QFXN47M691Q9P4", "current_trial": 89, "dateTime": 1508955835450, "trialdata": {"rt": -1, "stimulus": "<p id=\"stim\">EYELASH</p>", "key_press": -1, "type": "PRES_VIS", "word": "eyelash", "wordID": 545, "conditions": [24, 1600, "v", 12000], "trial": 2, "serialpos": 0, "trial_type": "single-stim", "trial_index": 89, "time_elapsed": 2298921, "internal_node_id": "0.0-62.0"}}, {"uniqueid": "MTK0002:39N5ACM9HFUP0FD9QFXN47M691Q9P4", "current_trial": 90, "dateTime": 1508955838126, "trialdata": {"rt": -1, "stimulus": "<p id=\"stim\">SWAMP</p>", "key_press": -1, "type": "PRES_VIS", "word": "swamp", "wordID": 1415, "conditions": [24, 1600, "v", 12000], "trial": 2, "serialpos": 1, "trial_type": "single-stim", "trial_index": 90, "time_elapsed": 2301597, "internal_node_id": "0.0-63.0"}}, {"uniqueid": "MTK0002:39N5ACM9HFUP0FD9QFXN47M691Q9P4", "current_trial": 91, "dateTime": 1508955840613, "trialdata": {"rt": -1, "stimulus": "<p id=\"stim\">SPOUSE</p>", "key_press": -1, "type": "PRES_VIS", "word": "spouse", "wordID": 1357, "conditions": [24, 1600, "v", 12000], "trial": 2, "serialpos": 2, "trial_type": "single-stim", "trial_index": 91, "time_elapsed": 2304085, "internal_node_id": "0.0-64.0"}}, {"uniqueid": "MTK0002:39N5ACM9HFUP0FD9QFXN47M691Q9P4", "current_trial": 92, "dateTime": 1508955843415, "trialdata": {"rt": -1, "stimulus": "<p id=\"stim\">SOFTBALL</p>", "key_press": -1, "type": "PRES_VIS", "word": "softball", "wordID": 1342, "conditions": [24, 1600, "v", 12000], "trial": 2, "serialpos": 3, "trial_type": "single-stim", "trial_index": 92, "time_elapsed": 2306886, "internal_node_id": "0.0-65.0"}}, {"uniqueid": "MTK0002:39N5ACM9HFUP0FD9QFXN47M691Q9P4", "current_trial": 93, "dateTime": 1508955846085, "trialdata": {"rt": -1, "stimulus": "<p id=\"stim\">CRATER</p>", "key_press": -1, "type": "PRES_VIS", "word": "crater", "wordID": 399, "conditions": [24, 1600, "v", 12000], "trial": 2, "serialpos": 4, "trial_type": "single-stim", "trial_index": 93, "time_elapsed": 2309556, "internal_node_id": "0.0-66.0"}}, {"uniqueid": "MTK0002:39N5ACM9HFUP0FD9QFXN47M691Q9P4", "current_trial": 94, "dateTime": 1508955848851, "trialdata": {"rt": -1, "stimulus": "<p id=\"stim\">LAVA</p>", "key_press": -1, "type": "PRES_VIS", "word": "lava", "wordID": 803, "conditions": [24, 1600, "v", 12000], "trial": 2, "serialpos": 5, "trial_type": "single-stim", "trial_index": 94, "time_elapsed": 2312322, "internal_node_id": "0.0-67.0"}}, {"uniqueid": "MTK0002:39N5ACM9HFUP0FD9QFXN47M691Q9P4", "current_trial": 95, "dateTime": 1508955851607, "trialdata": {"rt": -1, "stimulus": "<p id=\"stim\">SNACK</p>", "key_press": -1, "type": "PRES_VIS", "word": "snack", "wordID": 1330, "conditions": [24, 1600, "v", 12000], "trial": 2, "serialpos": 6, "trial_type": "single-stim", "trial_index": 95, "time_elapsed": 2315079, "internal_node_id": "0.0-68.0"}}, {"uniqueid": "MTK0002:39N5ACM9HFUP0FD9QFXN47M691Q9P4", "current_trial": 96, "dateTime": 1508955854095, "trialdata": {"rt": -1, "stimulus": "<p id=\"stim\">MAILMAN</p>", "key_press": -1, "type": "PRES_VIS", "word": "mailman", "wordID": 857, "conditions": [24, 1600, "v", 12000], "trial": 2, "serialpos": 7, "trial_type": "single-stim", "trial_index": 96, "time_elapsed": 2317567, "internal_node_id": "0.0-69.0"}}, {"uniqueid": "MTK0002:39N5ACM9HFUP0FD9QFXN47M691Q9P4", "current_trial": 97, "dateTime": 1508955856846, "trialdata": {"rt": -1, "stimulus": "<p id=\"stim\">LIGHTNING</p>", "key_press": -1, "type": "PRES_VIS", "word": "lightning", "wordID": 819, "conditions": [24, 1600, "v", 12000], "trial": 2, "serialpos": 8, "trial_type": "single-stim", "trial_index": 97, "time_elapsed": 2320318, "internal_node_id": "0.0-70.0"}}, {"uniqueid": "MTK0002:39N5ACM9HFUP0FD9QFXN47M691Q9P4", "current_trial": 98, "dateTime": 1508955859378, "trialdata": {"rt": -1, "stimulus": "<p id=\"stim\">LUNCH</p>", "key_press": -1, "type": "PRES_VIS", "word": "lunch", "wordID": 848, "conditions": [24, 1600, "v", 12000], "trial": 2, "serialpos": 9, "trial_type": "single-stim", "trial_index": 98, "time_elapsed": 2322850, "internal_node_id": "0.0-71.0"}}, {"uniqueid": "MTK0002:39N5ACM9HFUP0FD9QFXN47M691Q9P4", "current_trial": 99, "dateTime": 1508955861917, "trialdata": {"rt": -1, "stimulus": "<p id=\"stim\">CANAL</p>", "key_press": -1, "type": "PRES_VIS", "word": "canal", "wordID": 225, "conditions": [24, 1600, "v", 12000], "trial": 2, "serialpos": 10, "trial_type": "single-stim", "trial_index": 99, "time_elapsed": 2325388, "internal_node_id": "0.0-72.0"}}, {"uniqueid": "MTK0002:39N5ACM9HFUP0FD9QFXN47M691Q9P4", "current_trial": 100, "dateTime": 1508955864668, "trialdata": {"rt": -1, "stimulus": "<p id=\"stim\">RAFT</p>", "key_press": -1, "type": "PRES_VIS", "word": "raft", "wordID": 1158, "conditions": [24, 1600, "v", 12000], "trial": 2, "serialpos": 11, "trial_type": "single-stim", "trial_index": 100, "time_elapsed": 2328139, "internal_node_id": "0.0-73.0"}}, {"uniqueid": "MTK0002:39N5ACM9HFUP0FD9QFXN47M691Q9P4", "current_trial": 101, "dateTime": 1508955867202, "trialdata": {"rt": -1, "stimulus": "<p id=\"stim\">FLUTE</p>", "key_press": -1, "type": "PRES_VIS", "word": "flute", "wordID": 584, "conditions": [24, 1600, "v", 12000], "trial": 2, "serialpos": 12, "trial_type": "single-stim", "trial_index": 101, "time_elapsed": 2330674, "internal_node_id": "0.0-74.0"}}, {"uniqueid": "MTK0002:39N5ACM9HFUP0FD9QFXN47M691Q9P4", "current_trial": 102, "dateTime": 1508955869688, "trialdata": {"rt": -1, "stimulus": "<p id=\"stim\">DRAGON</p>", "key_press": -1, "type": "PRES_VIS", "word": "dragon", "wordID": 491, "conditions": [24, 1600, "v", 12000], "trial": 2, "serialpos": 13, "trial_type": "single-stim", "trial_index": 102, "time_elapsed": 2333160, "internal_node_id": "0.0-75.0"}}, {"uniqueid": "MTK0002:39N5ACM9HFUP0FD9QFXN47M691Q9P4", "current_trial": 103, "dateTime": 1508955872152, "trialdata": {"rt": -1, "stimulus": "<p id=\"stim\">DOLPHIN</p>", "key_press": -1, "type": "PRES_VIS", "word": "dolphin", "wordID": 482, "conditions": [24, 1600, "v", 12000], "trial": 2, "serialpos": 14, "trial_type": "single-stim", "trial_index": 103, "time_elapsed": 2335624, "internal_node_id": "0.0-76.0"}}, {"uniqueid": "MTK0002:39N5ACM9HFUP0FD9QFXN47M691Q9P4", "current_trial": 104, "dateTime": 1508955874762, "trialdata": {"rt": -1, "stimulus": "<p id=\"stim\">TUBA</p>", "key_press": -1, "type": "PRES_VIS", "word": "tuba", "wordID": 1514, "conditions": [24, 1600, "v", 12000], "trial": 2, "serialpos": 15, "trial_type": "single-stim", "trial_index": 104, "time_elapsed": 2338233, "internal_node_id": "0.0-77.0"}}, {"uniqueid": "MTK0002:39N5ACM9HFUP0FD9QFXN47M691Q9P4", "current_trial": 105, "dateTime": 1508955877449, "trialdata": {"rt": -1, "stimulus": "<p id=\"stim\">PISTOL</p>", "key_press": -1, "type": "PRES_VIS", "word": "pistol", "wordID": 1074, "conditions": [24, 1600, "v", 12000], "trial": 2, "serialpos": 16, "trial_type": "single-stim", "trial_index": 105, "time_elapsed": 2340921, "internal_node_id": "0.0-78.0"}}, {"uniqueid": "MTK0002:39N5ACM9HFUP0FD9QFXN47M691Q9P4", "current_trial": 106, "dateTime": 1508955880109, "trialdata": {"rt": -1, "stimulus": "<p id=\"stim\">KNIFE</p>", "key_press": -1, "type": "PRES_VIS", "word": "knife", "wordID": 784, "conditions": [24, 1600, "v", 12000], "trial": 2, "serialpos": 17, "trial_type": "single-stim", "trial_index": 106, "time_elapsed": 2343581, "internal_node_id": "0.0-79.0"}}, {"uniqueid": "MTK0002:39N5ACM9HFUP0FD9QFXN47M691Q9P4", "current_trial": 107, "dateTime": 1508955882860, "trialdata": {"rt": -1, "stimulus": "<p id=\"stim\">SLIME</p>", "key_press": -1, "type": "PRES_VIS", "word": "slime", "wordID": 1326, "conditions": [24, 1600, "v", 12000], "trial": 2, "serialpos": 18, "trial_type": "single-stim", "trial_index": 107, "time_elapsed": 2346332, "internal_node_id": "0.0-80.0"}}, {"uniqueid": "MTK0002:39N5ACM9HFUP0FD9QFXN47M691Q9P4", "current_trial": 108, "dateTime": 1508955885609, "trialdata": {"rt": -1, "stimulus": "<p id=\"stim\">GOBLIN</p>", "key_press": -1, "type": "PRES_VIS", "word": "goblin", "wordID": 644, "conditions": [24, 1600, "v", 12000], "trial": 2, "serialpos": 19, "trial_type": "single-stim", "trial_index": 108, "time_elapsed": 2349081, "internal_node_id": "0.0-81.0"}}, {"uniqueid": "MTK0002:39N5ACM9HFUP0FD9QFXN47M691Q9P4", "current_trial": 109, "dateTime": 1508955888138, "trialdata": {"rt": -1, "stimulus": "<p id=\"stim\">CATCHER</p>", "key_press": -1, "type": "PRES_VIS", "word": "catcher", "wordID": 257, "conditions": [24, 1600, "v", 12000], "trial": 2, "serialpos": 20, "trial_type": "single-stim", "trial_index": 109, "time_elapsed": 2351609, "internal_node_id": "0.0-82.0"}}, {"uniqueid": "MTK0002:39N5ACM9HFUP0FD9QFXN47M691Q9P4", "current_trial": 110, "dateTime": 1508955890829, "trialdata": {"rt": -1, "stimulus": "<p id=\"stim\">ACTOR</p>", "key_press": -1, "type": "PRES_VIS", "word": "actor", "wordID": 4, "conditions": [24, 1600, "v", 12000], "trial": 2, "serialpos": 21, "trial_type": "single-stim", "trial_index": 110, "time_elapsed": 2354301, "internal_node_id": "0.0-83.0"}}, {"uniqueid": "MTK0002:39N5ACM9HFUP0FD9QFXN47M691Q9P4", "current_trial": 111, "dateTime": 1508955893276, "trialdata": {"rt": -1, "stimulus": "<p id=\"stim\">AWARD</p>", "key_press": -1, "type": "PRES_VIS", "word": "award", "wordID": 62, "conditions": [24, 1600, "v", 12000], "trial": 2, "serialpos": 22, "trial_type": "single-stim", "trial_index": 111, "time_elapsed": 2356748, "internal_node_id": "0.0-84.0"}}, {"uniqueid": "MTK0002:39N5ACM9HFUP0FD9QFXN47M691Q9P4", "current_trial": 112, "dateTime": 1508955895710, "trialdata": {"rt": -1, "stimulus": "<p id=\"stim\">GIFT</p>", "key_press": -1, "type": "PRES_VIS", "word": "gift", "wordID": 634, "conditions": [24, 1600, "v", 12000], "trial": 2, "serialpos": 23, "trial_type": "single-stim", "trial_index": 112, "time_elapsed": 2359181, "internal_node_id": "0.0-85.0"}}, {"uniqueid": "MTK0002:39N5ACM9HFUP0FD9QFXN47M691Q9P4", "current_trial": 113, "dateTime": 1508955898098, "trialdata": {"rt": -1, "stimulus": "", "key_press": -1, "type": "PRE_RECALL_DELAY", "trial_type": "single-stim", "trial_index": 113, "time_elapsed": 2361570, "internal_node_id": "0.0-86.0-0.0"}}, {"uniqueid": "MTK0002:39N5ACM9HFUP0FD9QFXN47M691Q9P4", "current_trial": 114, "dateTime": 1508955898600, "trialdata": {"rt": -1000, "stimulus": "/static/audio/400Hz.wav", "key_press": -1, "type": "PRE_RECALL_ALERT", "trial_type": "single-audio", "trial_index": 114, "time_elapsed": 2362071, "internal_node_id": "0.0-87.0"}}, {"uniqueid": "MTK0002:39N5ACM9HFUP0FD9QFXN47M691Q9P4", "current_trial": 115, "dateTime": 1508955958607, "trialdata": {"rt": [6013, 8273, 10235, 11388, 13135, 15467, 18215, 21119, 24699, 26268], "recwords": ["softball", "spouse", "snack", "lava", "lunch", "canal", "raft", "knife", "crater", "lava"], "type": "FREE_RECALL", "conditions": [24, 1600, "v", 12000], "trial": 2, "trial_type": "free-recall", "trial_index": 115, "time_elapsed": 2422079, "internal_node_id": "0.0-88.0-0.0"}}, {"uniqueid": "MTK0002:39N5ACM9HFUP0FD9QFXN47M691Q9P4", "current_trial": 116, "dateTime": 1508955975237, "trialdata": {"rt": 14623, "key_press": 32, "type": "INSTRUCTIONS", "trial_type": "text", "trial_index": 116, "time_elapsed": 2438708, "internal_node_id": "0.0-89.0"}}, {"uniqueid": "MTK0002:39N5ACM9HFUP0FD9QFXN47M691Q9P4", "current_trial": 117, "dateTime": 1508955989250, "trialdata": {"rt": [7803, 11071], "responses": ["22", "15"], "num1": [9, 2, 9], "num2": [5, 9, 6], "num3": [8, 4, 2], "type": "DISTRACTOR", "conditions": [12, 1600, "v", 12000], "trial": 3, "trial_type": "math-distractor", "trial_index": 117, "time_elapsed": 2452722, "internal_node_id": "0.0-90.0"}}, {"uniqueid": "MTK0002:39N5ACM9HFUP0FD9QFXN47M691Q9P4", "current_trial": 118, "dateTime": 1508955992254, "trialdata": {"rt": -1, "stimulus": "<p id=\"stim\">10</p>", "key_press": -1, "trial_type": "single-stim", "trial_index": 118, "time_elapsed": 2455725, "internal_node_id": "0.0-91.0-0.0"}}, {"uniqueid": "MTK0002:39N5ACM9HFUP0FD9QFXN47M691Q9P4", "current_trial": 119, "dateTime": 1508955993260, "trialdata": {"rt": -1, "stimulus": "<p id=\"stim\">9</p>", "key_press": -1, "trial_type": "single-stim", "trial_index": 119, "time_elapsed": 2456732, "internal_node_id": "0.0-91.0-1.0"}}, {"uniqueid": "MTK0002:39N5ACM9HFUP0FD9QFXN47M691Q9P4", "current_trial": 120, "dateTime": 1508955994274, "trialdata": {"rt": -1, "stimulus": "<p id=\"stim\">8</p>", "key_press": -1, "trial_type": "single-stim", "trial_index": 120, "time_elapsed": 2457746, "internal_node_id": "0.0-91.0-2.0"}}, {"uniqueid": "MTK0002:39N5ACM9HFUP0FD9QFXN47M691Q9P4", "current_trial": 121, "dateTime": 1508955995289, "trialdata": {"rt": -1, "stimulus": "<p id=\"stim\">7</p>", "key_press": -1, "trial_type": "single-stim", "trial_index": 121, "time_elapsed": 2458761, "internal_node_id": "0.0-91.0-3.0"}}, {"uniqueid": "MTK0002:39N5ACM9HFUP0FD9QFXN47M691Q9P4", "current_trial": 122, "dateTime": 1508955996294, "trialdata": {"rt": -1, "stimulus": "<p id=\"stim\">6</p>", "key_press": -1, "trial_type": "single-stim", "trial_index": 122, "time_elapsed": 2459766, "internal_node_id": "0.0-91.0-4.0"}}, {"uniqueid": "MTK0002:39N5ACM9HFUP0FD9QFXN47M691Q9P4", "current_trial": 123, "dateTime": 1508955997307, "trialdata": {"rt": -1, "stimulus": "<p id=\"stim\">5</p>", "key_press": -1, "trial_type": "single-stim", "trial_index": 123, "time_elapsed": 2460779, "internal_node_id": "0.0-91.0-5.0"}}, {"uniqueid": "MTK0002:39N5ACM9HFUP0FD9QFXN47M691Q9P4", "current_trial": 124, "dateTime": 1508955998311, "trialdata": {"rt": -1, "stimulus": "<p id=\"stim\">4</p>", "key_press": -1, "trial_type": "single-stim", "trial_index": 124, "time_elapsed": 2461783, "internal_node_id": "0.0-91.0-6.0"}}, {"uniqueid": "MTK0002:39N5ACM9HFUP0FD9QFXN47M691Q9P4", "current_trial": 125, "dateTime": 1508955999315, "trialdata": {"rt": -1, "stimulus": "<p id=\"stim\">3</p>", "key_press": -1, "trial_type": "single-stim", "trial_index": 125, "time_elapsed": 2462787, "internal_node_id": "0.0-91.0-7.0"}}, {"uniqueid": "MTK0002:39N5ACM9HFUP0FD9QFXN47M691Q9P4", "current_trial": 126, "dateTime": 1508956000317, "trialdata": {"rt": -1, "stimulus": "<p id=\"stim\">2</p>", "key_press": -1, "trial_type": "single-stim", "trial_index": 126, "time_elapsed": 2463788, "internal_node_id": "0.0-91.0-8.0"}}, {"uniqueid": "MTK0002:39N5ACM9HFUP0FD9QFXN47M691Q9P4", "current_trial": 127, "dateTime": 1508956001321, "trialdata": {"rt": -1, "stimulus": "<p id=\"stim\">1</p>", "key_press": -1, "trial_type": "single-stim", "trial_index": 127, "time_elapsed": 2464793, "internal_node_id": "0.0-91.0-9.0"}}, {"uniqueid": "MTK0002:39N5ACM9HFUP0FD9QFXN47M691Q9P4", "current_trial": 128, "dateTime": 1508956002826, "trialdata": {"rt": -1, "stimulus": "<p id=\"stim\">+</p>", "key_press": -1, "type": "FIXATION", "trial_type": "single-stim", "trial_index": 128, "time_elapsed": 2466298, "internal_node_id": "0.0-92.0-0.0"}}, {"uniqueid": "MTK0002:39N5ACM9HFUP0FD9QFXN47M691Q9P4", "current_trial": 129, "dateTime": 1508956004430, "trialdata": {"rt": -1, "stimulus": "<p id=\"stim\">ATLAS</p>", "key_press": -1, "type": "PRES_VIS", "word": "atlas", "wordID": 52, "conditions": [12, 1600, "v", 12000], "trial": 3, "serialpos": 0, "trial_type": "single-stim", "trial_index": 129, "time_elapsed": 2467901, "internal_node_id": "0.0-93.0"}}, {"uniqueid": "MTK0002:39N5ACM9HFUP0FD9QFXN47M691Q9P4", "current_trial": 130, "dateTime": 1508956007121, "trialdata": {"rt": -1, "stimulus": "<p id=\"stim\">CHAPEL</p>", "key_press": -1, "type": "PRES_VIS", "word": "chapel", "wordID": 279, "conditions": [12, 1600, "v", 12000], "trial": 3, "serialpos": 1, "trial_type": "single-stim", "trial_index": 130, "time_elapsed": 2470593, "internal_node_id": "0.0-94.0"}}, {"uniqueid": "MTK0002:39N5ACM9HFUP0FD9QFXN47M691Q9P4", "current_trial": 131, "dateTime": 1508956009770, "trialdata": {"rt": -1, "stimulus": "<p id=\"stim\">CHURCH</p>", "key_press": -1, "type": "PRES_VIS", "word": "church", "wordID": 306, "conditions": [12, 1600, "v", 12000], "trial": 3, "serialpos": 2, "trial_type": "single-stim", "trial_index": 131, "time_elapsed": 2473242, "internal_node_id": "0.0-95.0"}}, {"uniqueid": "MTK0002:39N5ACM9HFUP0FD9QFXN47M691Q9P4", "current_trial": 132, "dateTime": 1508956012539, "trialdata": {"rt": -1, "stimulus": "<p id=\"stim\">LEOPARD</p>", "key_press": -1, "type": "PRES_VIS", "word": "leopard", "wordID": 811, "conditions": [12, 1600, "v", 12000], "trial": 3, "serialpos": 3, "trial_type": "single-stim", "trial_index": 132, "time_elapsed": 2476011, "internal_node_id": "0.0-96.0"}}, {"uniqueid": "MTK0002:39N5ACM9HFUP0FD9QFXN47M691Q9P4", "current_trial": 133, "dateTime": 1508956015151, "trialdata": {"rt": -1, "stimulus": "<p id=\"stim\">DASHBOARD</p>", "key_press": -1, "type": "PRES_VIS", "word": "dashboard", "wordID": 440, "conditions": [12, 1600, "v", 12000], "trial": 3, "serialpos": 4, "trial_type": "single-stim", "trial_index": 133, "time_elapsed": 2478623, "internal_node_id": "0.0-97.0"}}, {"uniqueid": "MTK0002:39N5ACM9HFUP0FD9QFXN47M691Q9P4", "current_trial": 134, "dateTime": 1508956017726, "trialdata": {"rt": -1, "stimulus": "<p id=\"stim\">OZONE</p>", "key_press": -1, "type": "PRES_VIS", "word": "ozone", "wordID": 995, "conditions": [12, 1600, "v", 12000], "trial": 3, "serialpos": 5, "trial_type": "single-stim", "trial_index": 134, "time_elapsed": 2481198, "internal_node_id": "0.0-98.0"}}, {"uniqueid": "MTK0002:39N5ACM9HFUP0FD9QFXN47M691Q9P4", "current_trial": 135, "dateTime": 1508956020484, "trialdata": {"rt": -1, "stimulus": "<p id=\"stim\">GARDEN</p>", "key_press": -1, "type": "PRES_VIS", "word": "garden", "wordID": 622, "conditions": [12, 1600, "v", 12000], "trial": 3, "serialpos": 6, "trial_type": "single-stim", "trial_index": 135, "time_elapsed": 2483956, "internal_node_id": "0.0-99.0"}}, {"uniqueid": "MTK0002:39N5ACM9HFUP0FD9QFXN47M691Q9P4", "current_trial": 136, "dateTime": 1508956023148, "trialdata": {"rt": -1, "stimulus": "<p id=\"stim\">PLAID</p>", "key_press": -1, "type": "PRES_VIS", "word": "plaid", "wordID": 1079, "conditions": [12, 1600, "v", 12000], "trial": 3, "serialpos": 7, "trial_type": "single-stim", "trial_index": 136, "time_elapsed": 2486620, "internal_node_id": "0.0-100.0"}}, {"uniqueid": "MTK0002:39N5ACM9HFUP0FD9QFXN47M691Q9P4", "current_trial": 137, "dateTime": 1508956025689, "trialdata": {"rt": -1, "stimulus": "<p id=\"stim\">PEACH</p>", "key_press": -1, "type": "PRES_VIS", "word": "peach", "wordID": 1030, "conditions": [12, 1600, "v", 12000], "trial": 3, "serialpos": 8, "trial_type": "single-stim", "trial_index": 137, "time_elapsed": 2489161, "internal_node_id": "0.0-101.0"}}, {"uniqueid": "MTK0002:39N5ACM9HFUP0FD9QFXN47M691Q9P4", "current_trial": 138, "dateTime": 1508956028156, "trialdata": {"rt": -1, "stimulus": "<p id=\"stim\">PANTHER</p>", "key_press": -1, "type": "PRES_VIS", "word": "panther", "wordID": 1008, "conditions": [12, 1600, "v", 12000], "trial": 3, "serialpos": 9, "trial_type": "single-stim", "trial_index": 138, "time_elapsed": 2491628, "internal_node_id": "0.0-102.0"}}, {"uniqueid": "MTK0002:39N5ACM9HFUP0FD9QFXN47M691Q9P4", "current_trial": 139, "dateTime": 1508956030648, "trialdata": {"rt": -1, "stimulus": "<p id=\"stim\">NIGHTGOWN</p>", "key_press": -1, "type": "PRES_VIS", "word": "nightgown", "wordID": 952, "conditions": [12, 1600, "v", 12000], "trial": 3, "serialpos": 10, "trial_type": "single-stim", "trial_index": 139, "time_elapsed": 2494120, "internal_node_id": "0.0-103.0"}}, {"uniqueid": "MTK0002:39N5ACM9HFUP0FD9QFXN47M691Q9P4", "current_trial": 140, "dateTime": 1508956033293, "trialdata": {"rt": -1, "stimulus": "<p id=\"stim\">TRACTOR</p>", "key_press": -1, "type": "PRES_VIS", "word": "tractor", "wordID": 1492, "conditions": [12, 1600, "v", 12000], "trial": 3, "serialpos": 11, "trial_type": "single-stim", "trial_index": 140, "time_elapsed": 2496765, "internal_node_id": "0.0-104.0"}}, {"uniqueid": "MTK0002:39N5ACM9HFUP0FD9QFXN47M691Q9P4", "current_trial": 141, "dateTime": 1508956035642, "trialdata": {"rt": -1, "stimulus": "", "key_press": -1, "type": "PRE_RECALL_DELAY", "trial_type": "single-stim", "trial_index": 141, "time_elapsed": 2499114, "internal_node_id": "0.0-105.0-0.0"}}, {"uniqueid": "MTK0002:39N5ACM9HFUP0FD9QFXN47M691Q9P4", "current_trial": 142, "dateTime": 1508956036148, "trialdata": {"rt": -1000, "stimulus": "/static/audio/400Hz.wav", "key_press": -1, "type": "PRE_RECALL_ALERT", "trial_type": "single-audio", "trial_index": 142, "time_elapsed": 2499620, "internal_node_id": "0.0-106.0"}}, {"uniqueid": "MTK0002:39N5ACM9HFUP0FD9QFXN47M691Q9P4", "current_trial": 143, "dateTime": 1508956096159, "trialdata": {"rt": [6111, 7581, 9383, 11915, 13054, 15638, 17297], "recwords": ["chapel", "church", "garden", "plaid", "peach", "planter", "tractor"], "type": "FREE_RECALL", "conditions": [12, 1600, "v", 12000], "trial": 3, "trial_type": "free-recall", "trial_index": 143, "time_elapsed": 2559630, "internal_node_id": "0.0-107.0-0.0"}}, {"uniqueid": "MTK0002:39N5ACM9HFUP0FD9QFXN47M691Q9P4", "current_trial": 144, "dateTime": 1508956099131, "trialdata": {"rt": 967, "key_press": 32, "type": "INSTRUCTIONS", "trial_type": "text", "trial_index": 144, "time_elapsed": 2562602, "internal_node_id": "0.0-108.0"}}, {"uniqueid": "MTK0002:39N5ACM9HFUP0FD9QFXN47M691Q9P4", "current_trial": 145, "dateTime": 1508956125152, "trialdata": {"rt": [6432, 8348, 10626, 12217, 15620, 17510, 19605, 22151], "responses": ["13", "9", "6", "9", "19", "13", "16", "8"], "num1": [4, 3, 2, 2, 9, 3, 6, 1, 7], "num2": [4, 3, 1, 6, 8, 7, 5, 3, 8], "num3": [5, 3, 3, 1, 2, 3, 5, 4, 4], "type": "DISTRACTOR", "conditions": [12, 1600, "a", 24000], "trial": 4, "trial_type": "math-distractor", "trial_index": 145, "time_elapsed": 2588624, "internal_node_id": "0.0-109.0"}}, {"uniqueid": "MTK0002:39N5ACM9HFUP0FD9QFXN47M691Q9P4", "current_trial": 146, "dateTime": 1508956128214, "trialdata": {"rt": -1, "stimulus": "<p id=\"stim\">10</p>", "key_press": -1, "trial_type": "single-stim", "trial_index": 146, "time_elapsed": 2591685, "internal_node_id": "0.0-110.0-0.0"}}, {"uniqueid": "MTK0002:39N5ACM9HFUP0FD9QFXN47M691Q9P4", "current_trial": 147, "dateTime": 1508956129217, "trialdata": {"rt": -1, "stimulus": "<p id=\"stim\">9</p>", "key_press": -1, "trial_type": "single-stim", "trial_index": 147, "time_elapsed": 2592688, "internal_node_id": "0.0-110.0-1.0"}}, {"uniqueid": "MTK0002:39N5ACM9HFUP0FD9QFXN47M691Q9P4", "current_trial": 148, "dateTime": 1508956130306, "trialdata": {"rt": -1, "stimulus": "<p id=\"stim\">8</p>", "key_press": -1, "trial_type": "single-stim", "trial_index": 148, "time_elapsed": 2593776, "internal_node_id": "0.0-110.0-2.0"}}, {"uniqueid": "MTK0002:39N5ACM9HFUP0FD9QFXN47M691Q9P4", "current_trial": 149, "dateTime": 1508956131309, "trialdata": {"rt": -1, "stimulus": "<p id=\"stim\">7</p>", "key_press": -1, "trial_type": "single-stim", "trial_index": 149, "time_elapsed": 2594781, "internal_node_id": "0.0-110.0-3.0"}}, {"uniqueid": "MTK0002:39N5ACM9HFUP0FD9QFXN47M691Q9P4", "current_trial": 150, "dateTime": 1508956132315, "trialdata": {"rt": -1, "stimulus": "<p id=\"stim\">6</p>", "key_press": -1, "trial_type": "single-stim", "trial_index": 150, "time_elapsed": 2595787, "internal_node_id": "0.0-110.0-4.0"}}, {"uniqueid": "MTK0002:39N5ACM9HFUP0FD9QFXN47M691Q9P4", "current_trial": 151, "dateTime": 1508956133383, "trialdata": {"rt": -1, "stimulus": "<p id=\"stim\">5</p>", "key_press": -1, "trial_type": "single-stim", "trial_index": 151, "time_elapsed": 2596854, "internal_node_id": "0.0-110.0-5.0"}}, {"uniqueid": "MTK0002:39N5ACM9HFUP0FD9QFXN47M691Q9P4", "current_trial": 152, "dateTime": 1508956134388, "trialdata": {"rt": -1, "stimulus": "<p id=\"stim\">4</p>", "key_press": -1, "trial_type": "single-stim", "trial_index": 152, "time_elapsed": 2597860, "internal_node_id": "0.0-110.0-6.0"}}, {"uniqueid": "MTK0002:39N5ACM9HFUP0FD9QFXN47M691Q9P4", "current_trial": 153, "dateTime": 1508956135389, "trialdata": {"rt": -1, "stimulus": "<p id=\"stim\">3</p>", "key_press": -1, "trial_type": "single-stim", "trial_index": 153, "time_elapsed": 2598861, "internal_node_id": "0.0-110.0-7.0"}}, {"uniqueid": "MTK0002:39N5ACM9HFUP0FD9QFXN47M691Q9P4", "current_trial": 154, "dateTime": 1508956136454, "trialdata": {"rt": -1, "stimulus": "<p id=\"stim\">2</p>", "key_press": -1, "trial_type": "single-stim", "trial_index": 154, "time_elapsed": 2599925, "internal_node_id": "0.0-110.0-8.0"}}, {"uniqueid": "MTK0002:39N5ACM9HFUP0FD9QFXN47M691Q9P4", "current_trial": 155, "dateTime": 1508956137458, "trialdata": {"rt": -1, "stimulus": "<p id=\"stim\">1</p>", "key_press": -1, "trial_type": "single-stim", "trial_index": 155, "time_elapsed": 2600929, "internal_node_id": "0.0-110.0-9.0"}}, {"uniqueid": "MTK0002:39N5ACM9HFUP0FD9QFXN47M691Q9P4", "current_trial": 156, "dateTime": 1508956138960, "trialdata": {"rt": -1, "stimulus": "<p id=\"stim\">+</p>", "key_press": -1, "type": "FIXATION", "trial_type": "single-stim", "trial_index": 156, "time_elapsed": 2602432, "internal_node_id": "0.0-111.0-0.0"}}, {"uniqueid": "MTK0002:39N5ACM9HFUP0FD9QFXN47M691Q9P4", "current_trial": 157, "dateTime": 1508956141618, "trialdata": {"rt": -1000, "stimulus": "/static/audio/wordpool/CRAYON.wav", "key_press": -1, "type": "PRES_AUD", "word": "crayon", "wordID": 400, "conditions": [12, 1600, "a", 24000], "trial": 4, "serialpos": 0, "trial_type": "single-audio", "trial_index": 157, "time_elapsed": 2605090, "internal_node_id": "0.0-112.0"}}, {"uniqueid": "MTK0002:39N5ACM9HFUP0FD9QFXN47M691Q9P4", "current_trial": 158, "dateTime": 1508956144296, "trialdata": {"rt": -1000, "stimulus": "/static/audio/wordpool/BREAST.wav", "key_press": -1, "type": "PRES_AUD", "word": "breast", "wordID": 170, "conditions": [12, 1600, "a", 24000], "trial": 4, "serialpos": 1, "trial_type": "single-audio", "trial_index": 158, "time_elapsed": 2607767, "internal_node_id": "0.0-113.0"}}, {"uniqueid": "MTK0002:39N5ACM9HFUP0FD9QFXN47M691Q9P4", "current_trial": 159, "dateTime": 1508956146903, "trialdata": {"rt": -1000, "stimulus": "/static/audio/wordpool/ROCKET.wav", "key_press": -1, "type": "PRES_AUD", "word": "rocket", "wordID": 1201, "conditions": [12, 1600, "a", 24000], "trial": 4, "serialpos": 2, "trial_type": "single-audio", "trial_index": 159, "time_elapsed": 2610375, "internal_node_id": "0.0-114.0"}}, {"uniqueid": "MTK0002:39N5ACM9HFUP0FD9QFXN47M691Q9P4", "current_trial": 160, "dateTime": 1508956149561, "trialdata": {"rt": -1000, "stimulus": "/static/audio/wordpool/MISSILE.wav", "key_press": -1, "type": "PRES_AUD", "word": "missile", "wordID": 899, "conditions": [12, 1600, "a", 24000], "trial": 4, "serialpos": 3, "trial_type": "single-audio", "trial_index": 160, "time_elapsed": 2613033, "internal_node_id": "0.0-115.0"}}, {"uniqueid": "MTK0002:39N5ACM9HFUP0FD9QFXN47M691Q9P4", "current_trial": 161, "dateTime": 1508956152010, "trialdata": {"rt": -1000, "stimulus": "/static/audio/wordpool/SUSPECT.wav", "key_press": -1, "type": "PRES_AUD", "word": "suspect", "wordID": 1414, "conditions": [12, 1600, "a", 24000], "trial": 4, "serialpos": 4, "trial_type": "single-audio", "trial_index": 161, "time_elapsed": 2615481, "internal_node_id": "0.0-116.0"}}, {"uniqueid": "MTK0002:39N5ACM9HFUP0FD9QFXN47M691Q9P4", "current_trial": 162, "dateTime": 1508956154663, "trialdata": {"rt": -1000, "stimulus": "/static/audio/wordpool/SCOTCH.wav", "key_press": -1, "type": "PRES_AUD", "word": "scotch", "wordID": 1250, "conditions": [12, 1600, "a", 24000], "trial": 4, "serialpos": 5, "trial_type": "single-audio", "trial_index": 162, "time_elapsed": 2618135, "internal_node_id": "0.0-117.0"}}, {"uniqueid": "MTK0002:39N5ACM9HFUP0FD9QFXN47M691Q9P4", "current_trial": 163, "dateTime": 1508956157303, "trialdata": {"rt": -1000, "stimulus": "/static/audio/wordpool/MILK.wav", "key_press": -1, "type": "PRES_AUD", "word": "milk", "wordID": 894, "conditions": [12, 1600, "a", 24000], "trial": 4, "serialpos": 6, "trial_type": "single-audio", "trial_index": 163, "time_elapsed": 2620775, "internal_node_id": "0.0-118.0"}}, {"uniqueid": "MTK0002:39N5ACM9HFUP0FD9QFXN47M691Q9P4", "current_trial": 164, "dateTime": 1508956159969, "trialdata": {"rt": -1000, "stimulus": "/static/audio/wordpool/HEADBAND.wav", "key_press": -1, "type": "PRES_AUD", "word": "headband", "wordID": 695, "conditions": [12, 1600, "a", 24000], "trial": 4, "serialpos": 7, "trial_type": "single-audio", "trial_index": 164, "time_elapsed": 2623441, "internal_node_id": "0.0-119.0"}}, {"uniqueid": "MTK0002:39N5ACM9HFUP0FD9QFXN47M691Q9P4", "current_trial": 165, "dateTime": 1508956162637, "trialdata": {"rt": -1000, "stimulus": "/static/audio/wordpool/NOTEBOOK.wav", "key_press": -1, "type": "PRES_AUD", "word": "notebook", "wordID": 958, "conditions": [12, 1600, "a", 24000], "trial": 4, "serialpos": 8, "trial_type": "single-audio", "trial_index": 165, "time_elapsed": 2626109, "internal_node_id": "0.0-120.0"}}, {"uniqueid": "MTK0002:39N5ACM9HFUP0FD9QFXN47M691Q9P4", "current_trial": 166, "dateTime": 1508956165235, "trialdata": {"rt": -1000, "stimulus": "/static/audio/wordpool/VICTIM.wav", "key_press": -1, "type": "PRES_AUD", "word": "victim", "wordID": 1561, "conditions": [12, 1600, "a", 24000], "trial": 4, "serialpos": 9, "trial_type": "single-audio", "trial_index": 166, "time_elapsed": 2628707, "internal_node_id": "0.0-121.0"}}, {"uniqueid": "MTK0002:39N5ACM9HFUP0FD9QFXN47M691Q9P4", "current_trial": 167, "dateTime": 1508956167739, "trialdata": {"rt": -1000, "stimulus": "/static/audio/wordpool/CUSTARD.wav", "key_press": -1, "type": "PRES_AUD", "word": "custard", "wordID": 428, "conditions": [12, 1600, "a", 24000], "trial": 4, "serialpos": 10, "trial_type": "single-audio", "trial_index": 167, "time_elapsed": 2631211, "internal_node_id": "0.0-122.0"}}, {"uniqueid": "MTK0002:39N5ACM9HFUP0FD9QFXN47M691Q9P4", "current_trial": 168, "dateTime": 1508956170262, "trialdata": {"rt": -1000, "stimulus": "/static/audio/wordpool/TABLET.wav", "key_press": -1, "type": "PRES_AUD", "word": "tablet", "wordID": 1426, "conditions": [12, 1600, "a", 24000], "trial": 4, "serialpos": 11, "trial_type": "single-audio", "trial_index": 168, "time_elapsed": 2633734, "internal_node_id": "0.0-123.0"}}, {"uniqueid": "MTK0002:39N5ACM9HFUP0FD9QFXN47M691Q9P4", "current_trial": 169, "dateTime": 1508956171508, "trialdata": {"rt": -1, "stimulus": "", "key_press": -1, "type": "PRE_RECALL_DELAY", "trial_type": "single-stim", "trial_index": 169, "time_elapsed": 2634980, "internal_node_id": "0.0-124.0-0.0"}}, {"uniqueid": "MTK0002:39N5ACM9HFUP0FD9QFXN47M691Q9P4", "current_trial": 170, "dateTime": 1508956172014, "trialdata": {"rt": -1000, "stimulus": "/static/audio/400Hz.wav", "key_press": -1, "type": "PRE_RECALL_ALERT", "trial_type": "single-audio", "trial_index": 170, "time_elapsed": 2635486, "internal_node_id": "0.0-125.0"}}, {"uniqueid": "MTK0002:39N5ACM9HFUP0FD9QFXN47M691Q9P4", "current_trial": 171, "dateTime": 1508956232020, "trialdata": {"rt": [3122, 4476, 6122, 8234, 9437, 19339], "recwords": ["notebook", "crayon", "scotch", "mustard", "tablet", "breast"], "type": "FREE_RECALL", "conditions": [12, 1600, "a", 24000], "trial": 4, "trial_type": "free-recall", "trial_index": 171, "time_elapsed": 2695492, "internal_node_id": "0.0-126.0-0.0"}}, {"uniqueid": "MTK0002:39N5ACM9HFUP0FD9QFXN47M691Q9P4", "current_trial": 172, "dateTime": 1508956235810, "trialdata": {"rt": 1786, "key_press": 32, "type": "INSTRUCTIONS", "trial_type": "text", "trial_index": 172, "time_elapsed": 2699281, "internal_node_id": "0.0-127.0"}}, {"uniqueid": "MTK0002:39N5ACM9HFUP0FD9QFXN47M691Q9P4", "current_trial": 173, "dateTime": 1508956249820, "trialdata": {"rt": [3739, 8809, 11156], "responses": ["20", "20", "16"], "num1": [6, 4, 5, 8], "num2": [7, 7, 3, 5], "num3": [7, 9, 8, 4], "type": "DISTRACTOR", "conditions": [24, 800, "v", 12000], "trial": 5, "trial_type": "math-distractor", "trial_index": 173, "time_elapsed": 2713291, "internal_node_id": "0.0-128.0"}}, {"uniqueid": "MTK0002:39N5ACM9HFUP0FD9QFXN47M691Q9P4", "current_trial": 174, "dateTime": 1508956252824, "trialdata": {"rt": -1, "stimulus": "<p id=\"stim\">10</p>", "key_press": -1, "trial_type": "single-stim", "trial_index": 174, "time_elapsed": 2716296, "internal_node_id": "0.0-129.0-0.0"}}, {"uniqueid": "MTK0002:39N5ACM9HFUP0FD9QFXN47M691Q9P4", "current_trial": 175, "dateTime": 1508956253831, "trialdata": {"rt": -1, "stimulus": "<p id=\"stim\">9</p>", "key_press": -1, "trial_type": "single-stim", "trial_index": 175, "time_elapsed": 2717302, "internal_node_id": "0.0-129.0-1.0"}}, {"uniqueid": "MTK0002:39N5ACM9HFUP0FD9QFXN47M691Q9P4", "current_trial": 176, "dateTime": 1508956254836, "trialdata": {"rt": -1, "stimulus": "<p id=\"stim\">8</p>", "key_press": -1, "trial_type": "single-stim", "trial_index": 176, "time_elapsed": 2718307, "internal_node_id": "0.0-129.0-2.0"}}, {"uniqueid": "MTK0002:39N5ACM9HFUP0FD9QFXN47M691Q9P4", "current_trial": 177, "dateTime": 1508956255843, "trialdata": {"rt": -1, "stimulus": "<p id=\"stim\">7</p>", "key_press": -1, "trial_type": "single-stim", "trial_index": 177, "time_elapsed": 2719315, "internal_node_id": "0.0-129.0-3.0"}}, {"uniqueid": "MTK0002:39N5ACM9HFUP0FD9QFXN47M691Q9P4", "current_trial": 178, "dateTime": 1508956256849, "trialdata": {"rt": -1, "stimulus": "<p id=\"stim\">6</p>", "key_press": -1, "trial_type": "single-stim", "trial_index": 178, "time_elapsed": 2720321, "internal_node_id": "0.0-129.0-4.0"}}, {"uniqueid": "MTK0002:39N5ACM9HFUP0FD9QFXN47M691Q9P4", "current_trial": 179, "dateTime": 1508956257852, "trialdata": {"rt": -1, "stimulus": "<p id=\"stim\">5</p>", "key_press": -1, "trial_type": "single-stim", "trial_index": 179, "time_elapsed": 2721324, "internal_node_id": "0.0-129.0-5.0"}}, {"uniqueid": "MTK0002:39N5ACM9HFUP0FD9QFXN47M691Q9P4", "current_trial": 180, "dateTime": 1508956258856, "trialdata": {"rt": -1, "stimulus": "<p id=\"stim\">4</p>", "key_press": -1, "trial_type": "single-stim", "trial_index": 180, "time_elapsed": 2722328, "internal_node_id": "0.0-129.0-6.0"}}, {"uniqueid": "MTK0002:39N5ACM9HFUP0FD9QFXN47M691Q9P4", "current_trial": 181, "dateTime": 1508956259857, "trialdata": {"rt": -1, "stimulus": "<p id=\"stim\">3</p>", "key_press": -1, "trial_type": "single-stim", "trial_index": 181, "time_elapsed": 2723329, "internal_node_id": "0.0-129.0-7.0"}}, {"uniqueid": "MTK0002:39N5ACM9HFUP0FD9QFXN47M691Q9P4", "current_trial": 182, "dateTime": 1508956260868, "trialdata": {"rt": -1, "stimulus": "<p id=\"stim\">2</p>", "key_press": -1, "trial_type": "single-stim", "trial_index": 182, "time_elapsed": 2724340, "internal_node_id": "0.0-129.0-8.0"}}, {"uniqueid": "MTK0002:39N5ACM9HFUP0FD9QFXN47M691Q9P4", "current_trial": 183, "dateTime": 1508956261873, "trialdata": {"rt": -1, "stimulus": "<p id=\"stim\">1</p>", "key_press": -1, "trial_type": "single-stim", "trial_index": 183, "time_elapsed": 2725345, "internal_node_id": "0.0-129.0-9.0"}}, {"uniqueid": "MTK0002:39N5ACM9HFUP0FD9QFXN47M691Q9P4", "current_trial": 184, "dateTime": 1508956263415, "trialdata": {"rt": -1, "stimulus": "<p id=\"stim\">+</p>", "key_press": -1, "type": "FIXATION", "trial_type": "single-stim", "trial_index": 184, "time_elapsed": 2726887, "internal_node_id": "0.0-130.0-0.0"}}, {"uniqueid": "MTK0002:39N5ACM9HFUP0FD9QFXN47M691Q9P4", "current_trial": 185, "dateTime": 1508956264222, "trialdata": {"rt": -1, "stimulus": "<p id=\"stim\">BARREL</p>", "key_press": -1, "type": "PRES_VIS", "word": "barrel", "wordID": 90, "conditions": [24, 800, "v", 12000], "trial": 5, "serialpos": 0, "trial_type": "single-stim", "trial_index": 185, "time_elapsed": 2727694, "internal_node_id": "0.0-131.0"}}, {"uniqueid": "MTK0002:39N5ACM9HFUP0FD9QFXN47M691Q9P4", "current_trial": 186, "dateTime": 1508956266157, "trialdata": {"rt": -1, "stimulus": "<p id=\"stim\">PISTON</p>", "key_press": -1, "type": "PRES_VIS", "word": "piston", "wordID": 1075, "conditions": [24, 800, "v", 12000], "trial": 5, "serialpos": 1, "trial_type": "single-stim", "trial_index": 186, "time_elapsed": 2729629, "internal_node_id": "0.0-132.0"}}, {"uniqueid": "MTK0002:39N5ACM9HFUP0FD9QFXN47M691Q9P4", "current_trial": 187, "dateTime": 1508956267799, "trialdata": {"rt": -1, "stimulus": "<p id=\"stim\">SPOON</p>", "key_press": -1, "type": "PRES_VIS", "word": "spoon", "wordID": 1356, "conditions": [24, 800, "v", 12000], "trial": 5, "serialpos": 2, "trial_type": "single-stim", "trial_index": 187, "time_elapsed": 2731270, "internal_node_id": "0.0-133.0"}}, {"uniqueid": "MTK0002:39N5ACM9HFUP0FD9QFXN47M691Q9P4", "current_trial": 188, "dateTime": 1508956269758, "trialdata": {"rt": -1, "stimulus": "<p id=\"stim\">GALLON</p>", "key_press": -1, "type": "PRES_VIS", "word": "gallon", "wordID": 617, "conditions": [24, 800, "v", 12000], "trial": 5, "serialpos": 3, "trial_type": "single-stim", "trial_index": 188, "time_elapsed": 2733230, "internal_node_id": "0.0-134.0"}}, {"uniqueid": "MTK0002:39N5ACM9HFUP0FD9QFXN47M691Q9P4", "current_trial": 189, "dateTime": 1508956271726, "trialdata": {"rt": -1, "stimulus": "<p id=\"stim\">SHRUB</p>", "key_press": -1, "type": "PRES_VIS", "word": "shrub", "wordID": 1298, "conditions": [24, 800, "v", 12000], "trial": 5, "serialpos": 4, "trial_type": "single-stim", "trial_index": 189, "time_elapsed": 2735198, "internal_node_id": "0.0-135.0"}}, {"uniqueid": "MTK0002:39N5ACM9HFUP0FD9QFXN47M691Q9P4", "current_trial": 190, "dateTime": 1508956273359, "trialdata": {"rt": -1, "stimulus": "<p id=\"stim\">PATIENT</p>", "key_press": -1, "type": "PRES_VIS", "word": "patient", "wordID": 1023, "conditions": [24, 800, "v", 12000], "trial": 5, "serialpos": 5, "trial_type": "single-stim", "trial_index": 190, "time_elapsed": 2736831, "internal_node_id": "0.0-136.0"}}, {"uniqueid": "MTK0002:39N5ACM9HFUP0FD9QFXN47M691Q9P4", "current_trial": 191, "dateTime": 1508956275039, "trialdata": {"rt": -1, "stimulus": "<p id=\"stim\">NURSE</p>", "key_press": -1, "type": "PRES_VIS", "word": "nurse", "wordID": 962, "conditions": [24, 800, "v", 12000], "trial": 5, "serialpos": 6, "trial_type": "single-stim", "trial_index": 191, "time_elapsed": 2738510, "internal_node_id": "0.0-137.0"}}, {"uniqueid": "MTK0002:39N5ACM9HFUP0FD9QFXN47M691Q9P4", "current_trial": 192, "dateTime": 1508956276904, "trialdata": {"rt": -1, "stimulus": "<p id=\"stim\">CLOCK</p>", "key_press": -1, "type": "PRES_VIS", "word": "clock", "wordID": 324, "conditions": [24, 800, "v", 12000], "trial": 5, "serialpos": 7, "trial_type": "single-stim", "trial_index": 192, "time_elapsed": 2740376, "internal_node_id": "0.0-138.0"}}, {"uniqueid": "MTK0002:39N5ACM9HFUP0FD9QFXN47M691Q9P4", "current_trial": 193, "dateTime": 1508956278620, "trialdata": {"rt": -1, "stimulus": "<p id=\"stim\">CRUTCH</p>", "key_press": -1, "type": "PRES_VIS", "word": "crutch", "wordID": 416, "conditions": [24, 800, "v", 12000], "trial": 5, "serialpos": 8, "trial_type": "single-stim", "trial_index": 193, "time_elapsed": 2742092, "internal_node_id": "0.0-139.0"}}, {"uniqueid": "MTK0002:39N5ACM9HFUP0FD9QFXN47M691Q9P4", "current_trial": 194, "dateTime": 1508956280375, "trialdata": {"rt": -1, "stimulus": "<p id=\"stim\">SISTER</p>", "key_press": -1, "type": "PRES_VIS", "word": "sister", "wordID": 1311, "conditions": [24, 800, "v", 12000], "trial": 5, "serialpos": 9, "trial_type": "single-stim", "trial_index": 194, "time_elapsed": 2743847, "internal_node_id": "0.0-140.0"}}, {"uniqueid": "MTK0002:39N5ACM9HFUP0FD9QFXN47M691Q9P4", "current_trial": 195, "dateTime": 1508956282195, "trialdata": {"rt": -1, "stimulus": "<p id=\"stim\">LIVER</p>", "key_press": -1, "type": "PRES_VIS", "word": "liver", "wordID": 832, "conditions": [24, 800, "v", 12000], "trial": 5, "serialpos": 10, "trial_type": "single-stim", "trial_index": 195, "time_elapsed": 2745667, "internal_node_id": "0.0-141.0"}}, {"uniqueid": "MTK0002:39N5ACM9HFUP0FD9QFXN47M691Q9P4", "current_trial": 196, "dateTime": 1508956283823, "trialdata": {"rt": -1, "stimulus": "<p id=\"stim\">PADDING</p>", "key_press": -1, "type": "PRES_VIS", "word": "padding", "wordID": 998, "conditions": [24, 800, "v", 12000], "trial": 5, "serialpos": 11, "trial_type": "single-stim", "trial_index": 196, "time_elapsed": 2747295, "internal_node_id": "0.0-142.0"}}, {"uniqueid": "MTK0002:39N5ACM9HFUP0FD9QFXN47M691Q9P4", "current_trial": 197, "dateTime": 1508956285786, "trialdata": {"rt": -1, "stimulus": "<p id=\"stim\">THREAD</p>", "key_press": -1, "type": "PRES_VIS", "word": "thread", "wordID": 1459, "conditions": [24, 800, "v", 12000], "trial": 5, "serialpos": 12, "trial_type": "single-stim", "trial_index": 197, "time_elapsed": 2749258, "internal_node_id": "0.0-143.0"}}, {"uniqueid": "MTK0002:39N5ACM9HFUP0FD9QFXN47M691Q9P4", "current_trial": 198, "dateTime": 1508956287693, "trialdata": {"rt": -1, "stimulus": "<p id=\"stim\">WAGON</p>", "key_press": -1, "type": "PRES_VIS", "word": "wagon", "wordID": 1577, "conditions": [24, 800, "v", 12000], "trial": 5, "serialpos": 13, "trial_type": "single-stim", "trial_index": 198, "time_elapsed": 2751164, "internal_node_id": "0.0-144.0"}}, {"uniqueid": "MTK0002:39N5ACM9HFUP0FD9QFXN47M691Q9P4", "current_trial": 199, "dateTime": 1508956289547, "trialdata": {"rt": -1, "stimulus": "<p id=\"stim\">LETTUCE</p>", "key_press": -1, "type": "PRES_VIS", "word": "lettuce", "wordID": 813, "conditions": [24, 800, "v", 12000], "trial": 5, "serialpos": 14, "trial_type": "single-stim", "trial_index": 199, "time_elapsed": 2753019, "internal_node_id": "0.0-145.0"}}, {"uniqueid": "MTK0002:39N5ACM9HFUP0FD9QFXN47M691Q9P4", "current_trial": 200, "dateTime": 1508956291277, "trialdata": {"rt": -1, "stimulus": "<p id=\"stim\">BARLEY</p>", "key_press": -1, "type": "PRES_VIS", "word": "barley", "wordID": 87, "conditions": [24, 800, "v", 12000], "trial": 5, "serialpos": 15, "trial_type": "single-stim", "trial_index": 200, "time_elapsed": 2754749, "internal_node_id": "0.0-146.0"}}, {"uniqueid": "MTK0002:39N5ACM9HFUP0FD9QFXN47M691Q9P4", "current_trial": 201, "dateTime": 1508956293088, "trialdata": {"rt": -1, "stimulus": "<p id=\"stim\">BRIEFCASE</p>", "key_press": -1, "type": "PRES_VIS", "word": "briefcase", "wordID": 174, "conditions": [24, 800, "v", 12000], "trial": 5, "serialpos": 16, "trial_type": "single-stim", "trial_index": 201, "time_elapsed": 2756560, "internal_node_id": "0.0-147.0"}}, {"uniqueid": "MTK0002:39N5ACM9HFUP0FD9QFXN47M691Q9P4", "current_trial": 202, "dateTime": 1508956295076, "trialdata": {"rt": -1, "stimulus": "<p id=\"stim\">DUST</p>", "key_press": -1, "type": "PRES_VIS", "word": "dust", "wordID": 507, "conditions": [24, 800, "v", 12000], "trial": 5, "serialpos": 17, "trial_type": "single-stim", "trial_index": 202, "time_elapsed": 2758547, "internal_node_id": "0.0-148.0"}}, {"uniqueid": "MTK0002:39N5ACM9HFUP0FD9QFXN47M691Q9P4", "current_trial": 203, "dateTime": 1508956296932, "trialdata": {"rt": -1, "stimulus": "<p id=\"stim\">PACKAGE</p>", "key_press": -1, "type": "PRES_VIS", "word": "package", "wordID": 996, "conditions": [24, 800, "v", 12000], "trial": 5, "serialpos": 18, "trial_type": "single-stim", "trial_index": 203, "time_elapsed": 2760404, "internal_node_id": "0.0-149.0"}}, {"uniqueid": "MTK0002:39N5ACM9HFUP0FD9QFXN47M691Q9P4", "current_trial": 204, "dateTime": 1508956298910, "trialdata": {"rt": -1, "stimulus": "<p id=\"stim\">APPLE</p>", "key_press": -1, "type": "PRES_VIS", "word": "apple", "wordID": 32, "conditions": [24, 800, "v", 12000], "trial": 5, "serialpos": 19, "trial_type": "single-stim", "trial_index": 204, "time_elapsed": 2762382, "internal_node_id": "0.0-150.0"}}, {"uniqueid": "MTK0002:39N5ACM9HFUP0FD9QFXN47M691Q9P4", "current_trial": 205, "dateTime": 1508956300792, "trialdata": {"rt": -1, "stimulus": "<p id=\"stim\">EUROPE</p>", "key_press": -1, "type": "PRES_VIS", "word": "europe", "wordID": 540, "conditions": [24, 800, "v", 12000], "trial": 5, "serialpos": 20, "trial_type": "single-stim", "trial_index": 205, "time_elapsed": 2764264, "internal_node_id": "0.0-151.0"}}, {"uniqueid": "MTK0002:39N5ACM9HFUP0FD9QFXN47M691Q9P4", "current_trial": 206, "dateTime": 1508956302398, "trialdata": {"rt": -1, "stimulus": "<p id=\"stim\">LONDON</p>", "key_press": -1, "type": "PRES_VIS", "word": "london", "wordID": 842, "conditions": [24, 800, "v", 12000], "trial": 5, "serialpos": 21, "trial_type": "single-stim", "trial_index": 206, "time_elapsed": 2765870, "internal_node_id": "0.0-152.0"}}, {"uniqueid": "MTK0002:39N5ACM9HFUP0FD9QFXN47M691Q9P4", "current_trial": 207, "dateTime": 1508956304356, "trialdata": {"rt": -1, "stimulus": "<p id=\"stim\">TRUCK</p>", "key_press": -1, "type": "PRES_VIS", "word": "truck", "wordID": 1511, "conditions": [24, 800, "v", 12000], "trial": 5, "serialpos": 22, "trial_type": "single-stim", "trial_index": 207, "time_elapsed": 2767827, "internal_node_id": "0.0-153.0"}}, {"uniqueid": "MTK0002:39N5ACM9HFUP0FD9QFXN47M691Q9P4", "current_trial": 208, "dateTime": 1508956306113, "trialdata": {"rt": -1, "stimulus": "<p id=\"stim\">MESSAGE</p>", "key_press": -1, "type": "PRES_VIS", "word": "message", "wordID": 887, "conditions": [24, 800, "v", 12000], "trial": 5, "serialpos": 23, "trial_type": "single-stim", "trial_index": 208, "time_elapsed": 2769585, "internal_node_id": "0.0-154.0"}}, {"uniqueid": "MTK0002:39N5ACM9HFUP0FD9QFXN47M691Q9P4", "current_trial": 209, "dateTime": 1508956308415, "trialdata": {"rt": -1, "stimulus": "", "key_press": -1, "type": "PRE_RECALL_DELAY", "trial_type": "single-stim", "trial_index": 209, "time_elapsed": 2771887, "internal_node_id": "0.0-155.0-0.0"}}, {"uniqueid": "MTK0002:39N5ACM9HFUP0FD9QFXN47M691Q9P4", "current_trial": 210, "dateTime": 1508956308920, "trialdata": {"rt": -1000, "stimulus": "/static/audio/400Hz.wav", "key_press": -1, "type": "PRE_RECALL_ALERT", "trial_type": "single-audio", "trial_index": 210, "time_elapsed": 2772391, "internal_node_id": "0.0-156.0"}}, {"uniqueid": "MTK0002:39N5ACM9HFUP0FD9QFXN47M691Q9P4", "current_trial": 211, "dateTime": 1508956368927, "trialdata": {"rt": [3358, 6962, 9852, 18859, 20890, 22405, 24167, 25664, 27294, 34357], "recwords": ["barrel", "barley", "briefcase", "europe", "london", "message", "patient", "nurse", "crutch", "gallon"], "type": "FREE_RECALL", "conditions": [24, 800, "v", 12000], "trial": 5, "trial_type": "free-recall", "trial_index": 211, "time_elapsed": 2832399, "internal_node_id": "0.0-157.0-0.0"}}, {"uniqueid": "MTK0002:39N5ACM9HFUP0FD9QFXN47M691Q9P4", "current_trial": 212, "dateTime": 1508956388982, "trialdata": {"rt": 18045, "key_press": 32, "type": "INSTRUCTIONS", "trial_type": "text", "trial_index": 212, "time_elapsed": 2852453, "internal_node_id": "0.0-158.0"}}, {"uniqueid": "MTK0002:39N5ACM9HFUP0FD9QFXN47M691Q9P4", "current_trial": 213, "dateTime": 1508956402998, "trialdata": {"rt": [3355, 6392, 8618, 10918], "responses": ["17", "15", "13", "17"], "num1": [4, 6, 8, 7, 7], "num2": [6, 3, 3, 5, 1], "num3": [7, 6, 2, 5, 3], "type": "DISTRACTOR", "conditions": [24, 800, "a", 12000], "trial": 6, "trial_type": "math-distractor", "trial_index": 213, "time_elapsed": 2866469, "internal_node_id": "0.0-159.0"}}, {"uniqueid": "MTK0002:39N5ACM9HFUP0FD9QFXN47M691Q9P4", "current_trial": 214, "dateTime": 1508956406005, "trialdata": {"rt": -1, "stimulus": "<p id=\"stim\">10</p>", "key_press": -1, "trial_type": "single-stim", "trial_index": 214, "time_elapsed": 2869476, "internal_node_id": "0.0-160.0-0.0"}}, {"uniqueid": "MTK0002:39N5ACM9HFUP0FD9QFXN47M691Q9P4", "current_trial": 215, "dateTime": 1508956407009, "trialdata": {"rt": -1, "stimulus": "<p id=\"stim\">9</p>", "key_press": -1, "trial_type": "single-stim", "trial_index": 215, "time_elapsed": 2870480, "internal_node_id": "0.0-160.0-1.0"}}, {"uniqueid": "MTK0002:39N5ACM9HFUP0FD9QFXN47M691Q9P4", "current_trial": 216, "dateTime": 1508956408052, "trialdata": {"rt": -1, "stimulus": "<p id=\"stim\">8</p>", "key_press": -1, "trial_type": "single-stim", "trial_index": 216, "time_elapsed": 2871523, "internal_node_id": "0.0-160.0-2.0"}}, {"uniqueid": "MTK0002:39N5ACM9HFUP0FD9QFXN47M691Q9P4", "current_trial": 217, "dateTime": 1508956409055, "trialdata": {"rt": -1, "stimulus": "<p id=\"stim\">7</p>", "key_press": -1, "trial_type": "single-stim", "trial_index": 217, "time_elapsed": 2872526, "internal_node_id": "0.0-160.0-3.0"}}, {"uniqueid": "MTK0002:39N5ACM9HFUP0FD9QFXN47M691Q9P4", "current_trial": 218, "dateTime": 1508956410059, "trialdata": {"rt": -1, "stimulus": "<p id=\"stim\">6</p>", "key_press": -1, "trial_type": "single-stim", "trial_index": 218, "time_elapsed": 2873531, "internal_node_id": "0.0-160.0-4.0"}}, {"uniqueid": "MTK0002:39N5ACM9HFUP0FD9QFXN47M691Q9P4", "current_trial": 219, "dateTime": 1508956411096, "trialdata": {"rt": -1, "stimulus": "<p id=\"stim\">5</p>", "key_press": -1, "trial_type": "single-stim", "trial_index": 219, "time_elapsed": 2874568, "internal_node_id": "0.0-160.0-5.0"}}, {"uniqueid": "MTK0002:39N5ACM9HFUP0FD9QFXN47M691Q9P4", "current_trial": 220, "dateTime": 1508956412099, "trialdata": {"rt": -1, "stimulus": "<p id=\"stim\">4</p>", "key_press": -1, "trial_type": "single-stim", "trial_index": 220, "time_elapsed": 2875571, "internal_node_id": "0.0-160.0-6.0"}}, {"uniqueid": "MTK0002:39N5ACM9HFUP0FD9QFXN47M691Q9P4", "current_trial": 221, "dateTime": 1508956413101, "trialdata": {"rt": -1, "stimulus": "<p id=\"stim\">3</p>", "key_press": -1, "trial_type": "single-stim", "trial_index": 221, "time_elapsed": 2876573, "internal_node_id": "0.0-160.0-7.0"}}, {"uniqueid": "MTK0002:39N5ACM9HFUP0FD9QFXN47M691Q9P4", "current_trial": 222, "dateTime": 1508956414104, "trialdata": {"rt": -1, "stimulus": "<p id=\"stim\">2</p>", "key_press": -1, "trial_type": "single-stim", "trial_index": 222, "time_elapsed": 2877575, "internal_node_id": "0.0-160.0-8.0"}}, {"uniqueid": "MTK0002:39N5ACM9HFUP0FD9QFXN47M691Q9P4", "current_trial": 223, "dateTime": 1508956415106, "trialdata": {"rt": -1, "stimulus": "<p id=\"stim\">1</p>", "key_press": -1, "trial_type": "single-stim", "trial_index": 223, "time_elapsed": 2878578, "internal_node_id": "0.0-160.0-9.0"}}, {"uniqueid": "MTK0002:39N5ACM9HFUP0FD9QFXN47M691Q9P4", "current_trial": 224, "dateTime": 1508956416612, "trialdata": {"rt": -1, "stimulus": "<p id=\"stim\">+</p>", "key_press": -1, "type": "FIXATION", "trial_type": "single-stim", "trial_index": 224, "time_elapsed": 2880084, "internal_node_id": "0.0-161.0-0.0"}}, {"uniqueid": "MTK0002:39N5ACM9HFUP0FD9QFXN47M691Q9P4", "current_trial": 225, "dateTime": 1508956418522, "trialdata": {"rt": 1339.6371882090534, "stimulus": "/static/audio/wordpool/SCISSORS.wav", "key_press": 83, "type": "PRES_AUD", "word": "scissors", "wordID": 1249, "conditions": [24, 800, "a", 12000], "trial": 6, "serialpos": 0, "trial_type": "single-audio", "trial_index": 225, "time_elapsed": 2881993, "internal_node_id": "0.0-162.0"}}, {"uniqueid": "MTK0002:39N5ACM9HFUP0FD9QFXN47M691Q9P4", "current_trial": 226, "dateTime": 1508956420464, "trialdata": {"rt": -1000, "stimulus": "/static/audio/wordpool/COSTUME.wav", "key_press": -1, "type": "PRES_AUD", "word": "costume", "wordID": 382, "conditions": [24, 800, "a", 12000], "trial": 6, "serialpos": 1, "trial_type": "single-audio", "trial_index": 226, "time_elapsed": 2883935, "internal_node_id": "0.0-163.0"}}, {"uniqueid": "MTK0002:39N5ACM9HFUP0FD9QFXN47M691Q9P4", "current_trial": 227, "dateTime": 1508956422245, "trialdata": {"rt": -1000, "stimulus": "/static/audio/wordpool/PICNIC.wav", "key_press": -1, "type": "PRES_AUD", "word": "picnic", "wordID": 1059, "conditions": [24, 800, "a", 12000], "trial": 6, "serialpos": 2, "trial_type": "single-audio", "trial_index": 227, "time_elapsed": 2885717, "internal_node_id": "0.0-164.0"}}, {"uniqueid": "MTK0002:39N5ACM9HFUP0FD9QFXN47M691Q9P4", "current_trial": 228, "dateTime": 1508956424069, "trialdata": {"rt": -1000, "stimulus": "/static/audio/wordpool/SUPPER.wav", "key_press": -1, "type": "PRES_AUD", "word": "supper", "wordID": 1410, "conditions": [24, 800, "a", 12000], "trial": 6, "serialpos": 3, "trial_type": "single-audio", "trial_index": 228, "time_elapsed": 2887541, "internal_node_id": "0.0-165.0"}}, {"uniqueid": "MTK0002:39N5ACM9HFUP0FD9QFXN47M691Q9P4", "current_trial": 229, "dateTime": 1508956425683, "trialdata": {"rt": -1000, "stimulus": "/static/audio/wordpool/TWEEZERS.wav", "key_press": -1, "type": "PRES_AUD", "word": "tweezers", "wordID": 1525, "conditions": [24, 800, "a", 12000], "trial": 6, "serialpos": 4, "trial_type": "single-audio", "trial_index": 229, "time_elapsed": 2889155, "internal_node_id": "0.0-166.0"}}, {"uniqueid": "MTK0002:39N5ACM9HFUP0FD9QFXN47M691Q9P4", "current_trial": 230, "dateTime": 1508956427686, "trialdata": {"rt": -1000, "stimulus": "/static/audio/wordpool/CITRUS.wav", "key_press": -1, "type": "PRES_AUD", "word": "citrus", "wordID": 312, "conditions": [24, 800, "a", 12000], "trial": 6, "serialpos": 5, "trial_type": "single-audio", "trial_index": 230, "time_elapsed": 2891157, "internal_node_id": "0.0-167.0"}}, {"uniqueid": "MTK0002:39N5ACM9HFUP0FD9QFXN47M691Q9P4", "current_trial": 231, "dateTime": 1508956429458, "trialdata": {"rt": -1000, "stimulus": "/static/audio/wordpool/TRANSPLANT.wav", "key_press": -1, "type": "PRES_AUD", "word": "transplant", "wordID": 1495, "conditions": [24, 800, "a", 12000], "trial": 6, "serialpos": 6, "trial_type": "single-audio", "trial_index": 231, "time_elapsed": 2892930, "internal_node_id": "0.0-168.0"}}, {"uniqueid": "MTK0002:39N5ACM9HFUP0FD9QFXN47M691Q9P4", "current_trial": 232, "dateTime": 1508956431118, "trialdata": {"rt": -1000, "stimulus": "/static/audio/wordpool/ICEBERG.wav", "key_press": -1, "type": "PRES_AUD", "word": "iceberg", "wordID": 730, "conditions": [24, 800, "a", 12000], "trial": 6, "serialpos": 7, "trial_type": "single-audio", "trial_index": 232, "time_elapsed": 2894590, "internal_node_id": "0.0-169.0"}}, {"uniqueid": "MTK0002:39N5ACM9HFUP0FD9QFXN47M691Q9P4", "current_trial": 233, "dateTime": 1508956433015, "trialdata": {"rt": -1000, "stimulus": "/static/audio/wordpool/LACE.wav", "key_press": -1, "type": "PRES_AUD", "word": "lace", "wordID": 791, "conditions": [24, 800, "a", 12000], "trial": 6, "serialpos": 8, "trial_type": "single-audio", "trial_index": 233, "time_elapsed": 2896487, "internal_node_id": "0.0-170.0"}}, {"uniqueid": "MTK0002:39N5ACM9HFUP0FD9QFXN47M691Q9P4", "current_trial": 234, "dateTime": 1508956434866, "trialdata": {"rt": -1000, "stimulus": "/static/audio/wordpool/PUDDING.wav", "key_press": -1, "type": "PRES_AUD", "word": "pudding", "wordID": 1138, "conditions": [24, 800, "a", 12000], "trial": 6, "serialpos": 9, "trial_type": "single-audio", "trial_index": 234, "time_elapsed": 2898338, "internal_node_id": "0.0-171.0"}}, {"uniqueid": "MTK0002:39N5ACM9HFUP0FD9QFXN47M691Q9P4", "current_trial": 235, "dateTime": 1508956436839, "trialdata": {"rt": -1000, "stimulus": "/static/audio/wordpool/SODA.wav", "key_press": -1, "type": "PRES_AUD", "word": "soda", "wordID": 1340, "conditions": [24, 800, "a", 12000], "trial": 6, "serialpos": 10, "trial_type": "single-audio", "trial_index": 235, "time_elapsed": 2900311, "internal_node_id": "0.0-172.0"}}, {"uniqueid": "MTK0002:39N5ACM9HFUP0FD9QFXN47M691Q9P4", "current_trial": 236, "dateTime": 1508956438733, "trialdata": {"rt": -1000, "stimulus": "/static/audio/wordpool/MUFFIN.wav", "key_press": -1, "type": "PRES_AUD", "word": "muffin", "wordID": 928, "conditions": [24, 800, "a", 12000], "trial": 6, "serialpos": 11, "trial_type": "single-audio", "trial_index": 236, "time_elapsed": 2902205, "internal_node_id": "0.0-173.0"}}, {"uniqueid": "MTK0002:39N5ACM9HFUP0FD9QFXN47M691Q9P4", "current_trial": 237, "dateTime": 1508956440708, "trialdata": {"rt": -1000, "stimulus": "/static/audio/wordpool/CHEST.wav", "key_press": -1, "type": "PRES_AUD", "word": "chest", "wordID": 294, "conditions": [24, 800, "a", 12000], "trial": 6, "serialpos": 12, "trial_type": "single-audio", "trial_index": 237, "time_elapsed": 2904180, "internal_node_id": "0.0-174.0"}}, {"uniqueid": "MTK0002:39N5ACM9HFUP0FD9QFXN47M691Q9P4", "current_trial": 238, "dateTime": 1508956442460, "trialdata": {"rt": -1000, "stimulus": "/static/audio/wordpool/CLAM.wav", "key_press": -1, "type": "PRES_AUD", "word": "clam", "wordID": 314, "conditions": [24, 800, "a", 12000], "trial": 6, "serialpos": 13, "trial_type": "single-audio", "trial_index": 238, "time_elapsed": 2905932, "internal_node_id": "0.0-175.0"}}, {"uniqueid": "MTK0002:39N5ACM9HFUP0FD9QFXN47M691Q9P4", "current_trial": 239, "dateTime": 1508956444188, "trialdata": {"rt": -1000, "stimulus": "/static/audio/wordpool/TOURIST.wav", "key_press": -1, "type": "PRES_AUD", "word": "tourist", "wordID": 1487, "conditions": [24, 800, "a", 12000], "trial": 6, "serialpos": 14, "trial_type": "single-audio", "trial_index": 239, "time_elapsed": 2907659, "internal_node_id": "0.0-176.0"}}, {"uniqueid": "MTK0002:39N5ACM9HFUP0FD9QFXN47M691Q9P4", "current_trial": 240, "dateTime": 1508956446134, "trialdata": {"rt": -1000, "stimulus": "/static/audio/wordpool/AUTHOR.wav", "key_press": -1, "type": "PRES_AUD", "word": "author", "wordID": 60, "conditions": [24, 800, "a", 12000], "trial": 6, "serialpos": 15, "trial_type": "single-audio", "trial_index": 240, "time_elapsed": 2909605, "internal_node_id": "0.0-177.0"}}, {"uniqueid": "MTK0002:39N5ACM9HFUP0FD9QFXN47M691Q9P4", "current_trial": 241, "dateTime": 1508956448067, "trialdata": {"rt": -1000, "stimulus": "/static/audio/wordpool/FRUIT.wav", "key_press": -1, "type": "PRES_AUD", "word": "fruit", "wordID": 609, "conditions": [24, 800, "a", 12000], "trial": 6, "serialpos": 16, "trial_type": "single-audio", "trial_index": 241, "time_elapsed": 2911539, "internal_node_id": "0.0-178.0"}}, {"uniqueid": "MTK0002:39N5ACM9HFUP0FD9QFXN47M691Q9P4", "current_trial": 242, "dateTime": 1508956449689, "trialdata": {"rt": -1000, "stimulus": "/static/audio/wordpool/MAILBOX.wav", "key_press": -1, "type": "PRES_AUD", "word": "mailbox", "wordID": 856, "conditions": [24, 800, "a", 12000], "trial": 6, "serialpos": 17, "trial_type": "single-audio", "trial_index": 242, "time_elapsed": 2913159, "internal_node_id": "0.0-179.0"}}, {"uniqueid": "MTK0002:39N5ACM9HFUP0FD9QFXN47M691Q9P4", "current_trial": 243, "dateTime": 1508956451360, "trialdata": {"rt": -1000, "stimulus": "/static/audio/wordpool/FOOTBALL.wav", "key_press": -1, "type": "PRES_AUD", "word": "football", "wordID": 590, "conditions": [24, 800, "a", 12000], "trial": 6, "serialpos": 18, "trial_type": "single-audio", "trial_index": 243, "time_elapsed": 2914832, "internal_node_id": "0.0-180.0"}}, {"uniqueid": "MTK0002:39N5ACM9HFUP0FD9QFXN47M691Q9P4", "current_trial": 244, "dateTime": 1508956453150, "trialdata": {"rt": -1000, "stimulus": "/static/audio/wordpool/VENUS.wav", "key_press": -1, "type": "PRES_AUD", "word": "venus", "wordID": 1556, "conditions": [24, 800, "a", 12000], "trial": 6, "serialpos": 19, "trial_type": "single-audio", "trial_index": 244, "time_elapsed": 2916622, "internal_node_id": "0.0-181.0"}}, {"uniqueid": "MTK0002:39N5ACM9HFUP0FD9QFXN47M691Q9P4", "current_trial": 245, "dateTime": 1508956455086, "trialdata": {"rt": -1000, "stimulus": "/static/audio/wordpool/OYSTER.wav", "key_press": -1, "type": "PRES_AUD", "word": "oyster", "wordID": 994, "conditions": [24, 800, "a", 12000], "trial": 6, "serialpos": 20, "trial_type": "single-audio", "trial_index": 245, "time_elapsed": 2918557, "internal_node_id": "0.0-182.0"}}, {"uniqueid": "MTK0002:39N5ACM9HFUP0FD9QFXN47M691Q9P4", "current_trial": 246, "dateTime": 1508956456992, "trialdata": {"rt": -1000, "stimulus": "/static/audio/wordpool/SEAFOOD.wav", "key_press": -1, "type": "PRES_AUD", "word": "seafood", "wordID": 1259, "conditions": [24, 800, "a", 12000], "trial": 6, "serialpos": 21, "trial_type": "single-audio", "trial_index": 246, "time_elapsed": 2920463, "internal_node_id": "0.0-183.0"}}, {"uniqueid": "MTK0002:39N5ACM9HFUP0FD9QFXN47M691Q9P4", "current_trial": 247, "dateTime": 1508956458882, "trialdata": {"rt": -1000, "stimulus": "/static/audio/wordpool/GRAPE.wav", "key_press": -1, "type": "PRES_AUD", "word": "grape", "wordID": 653, "conditions": [24, 800, "a", 12000], "trial": 6, "serialpos": 22, "trial_type": "single-audio", "trial_index": 247, "time_elapsed": 2922353, "internal_node_id": "0.0-184.0"}}, {"uniqueid": "MTK0002:39N5ACM9HFUP0FD9QFXN47M691Q9P4", "current_trial": 248, "dateTime": 1508956460613, "trialdata": {"rt": -1000, "stimulus": "/static/audio/wordpool/RUG.wav", "key_press": -1, "type": "PRES_AUD", "word": "rug", "wordID": 1214, "conditions": [24, 800, "a", 12000], "trial": 6, "serialpos": 23, "trial_type": "single-audio", "trial_index": 248, "time_elapsed": 2924084, "internal_node_id": "0.0-185.0"}}, {"uniqueid": "MTK0002:39N5ACM9HFUP0FD9QFXN47M691Q9P4", "current_trial": 249, "dateTime": 1508956461961, "trialdata": {"rt": -1, "stimulus": "", "key_press": -1, "type": "PRE_RECALL_DELAY", "trial_type": "single-stim", "trial_index": 249, "time_elapsed": 2925432, "internal_node_id": "0.0-186.0-0.0"}}, {"uniqueid": "MTK0002:39N5ACM9HFUP0FD9QFXN47M691Q9P4", "current_trial": 250, "dateTime": 1508956462465, "trialdata": {"rt": -1000, "stimulus": "/static/audio/400Hz.wav", "key_press": -1, "type": "PRE_RECALL_ALERT", "trial_type": "single-audio", "trial_index": 250, "time_elapsed": 2925936, "internal_node_id": "0.0-187.0"}}, {"uniqueid": "MTK0002:39N5ACM9HFUP0FD9QFXN47M691Q9P4", "current_trial": 251, "dateTime": 1508956522472, "trialdata": {"rt": [3685, 5530, 7319, 8274, 11799, 14711, 17531, 20992, 24240, 29622], "recwords": ["oyster", "seafood", "grape", "rug", "tourist", "clam", "citrus", "costime", "picnic", "muffin"], "type": "FREE_RECALL", "conditions": [24, 800, "a", 12000], "trial": 6, "trial_type": "free-recall", "trial_index": 251, "time_elapsed": 2985943, "internal_node_id": "0.0-188.0-0.0"}}, {"uniqueid": "MTK0002:39N5ACM9HFUP0FD9QFXN47M691Q9P4", "current_trial": 252, "dateTime": 1508956559155, "trialdata": {"rt": 34679, "key_press": 32, "type": "INSTRUCTIONS", "trial_type": "text", "trial_index": 252, "time_elapsed": 3022626, "internal_node_id": "0.0-189.0"}}, {"uniqueid": "MTK0002:39N5ACM9HFUP0FD9QFXN47M691Q9P4", "current_trial": 253, "dateTime": 1508956585244, "trialdata": {"rt": [3414, 4743, 9132, 10639, 12574, 14344, 16301, 18179], "responses": ["20", "11", "15", "18", "19", "19", "7", "13"], "num1": [9, 8, 6, 7, 9, 8, 2, 7, 8], "num2": [3, 2, 3, 3, 8, 9, 2, 5, 5], "num3": [8, 1, 9, 8, 2, 2, 3, 1, 7], "type": "DISTRACTOR", "conditions": [24, 800, "a", 24000], "trial": 7, "trial_type": "math-distractor", "trial_index": 253, "time_elapsed": 3048715, "internal_node_id": "0.0-190.0"}}, {"uniqueid": "MTK0002:39N5ACM9HFUP0FD9QFXN47M691Q9P4", "current_trial": 254, "dateTime": 1508956588370, "trialdata": {"rt": -1, "stimulus": "<p id=\"stim\">10</p>", "key_press": -1, "trial_type": "single-stim", "trial_index": 254, "time_elapsed": 3051840, "internal_node_id": "0.0-191.0-0.0"}}, {"uniqueid": "MTK0002:39N5ACM9HFUP0FD9QFXN47M691Q9P4", "current_trial": 255, "dateTime": 1508956589377, "trialdata": {"rt": -1, "stimulus": "<p id=\"stim\">9</p>", "key_press": -1, "trial_type": "single-stim", "trial_index": 255, "time_elapsed": 3052848, "internal_node_id": "0.0-191.0-1.0"}}, {"uniqueid": "MTK0002:39N5ACM9HFUP0FD9QFXN47M691Q9P4", "current_trial": 256, "dateTime": 1508956590380, "trialdata": {"rt": -1, "stimulus": "<p id=\"stim\">8</p>", "key_press": -1, "trial_type": "single-stim", "trial_index": 256, "time_elapsed": 3053851, "internal_node_id": "0.0-191.0-2.0"}}, {"uniqueid": "MTK0002:39N5ACM9HFUP0FD9QFXN47M691Q9P4", "current_trial": 257, "dateTime": 1508956591385, "trialdata": {"rt": -1, "stimulus": "<p id=\"stim\">7</p>", "key_press": -1, "trial_type": "single-stim", "trial_index": 257, "time_elapsed": 3054857, "internal_node_id": "0.0-191.0-3.0"}}, {"uniqueid": "MTK0002:39N5ACM9HFUP0FD9QFXN47M691Q9P4", "current_trial": 258, "dateTime": 1508956592389, "trialdata": {"rt": -1, "stimulus": "<p id=\"stim\">6</p>", "key_press": -1, "trial_type": "single-stim", "trial_index": 258, "time_elapsed": 3055860, "internal_node_id": "0.0-191.0-4.0"}}, {"uniqueid": "MTK0002:39N5ACM9HFUP0FD9QFXN47M691Q9P4", "current_trial": 259, "dateTime": 1508956593393, "trialdata": {"rt": -1, "stimulus": "<p id=\"stim\">5</p>", "key_press": -1, "trial_type": "single-stim", "trial_index": 259, "time_elapsed": 3056865, "internal_node_id": "0.0-191.0-5.0"}}, {"uniqueid": "MTK0002:39N5ACM9HFUP0FD9QFXN47M691Q9P4", "current_trial": 260, "dateTime": 1508956594398, "trialdata": {"rt": -1, "stimulus": "<p id=\"stim\">4</p>", "key_press": -1, "trial_type": "single-stim", "trial_index": 260, "time_elapsed": 3057869, "internal_node_id": "0.0-191.0-6.0"}}, {"uniqueid": "MTK0002:39N5ACM9HFUP0FD9QFXN47M691Q9P4", "current_trial": 261, "dateTime": 1508956595401, "trialdata": {"rt": -1, "stimulus": "<p id=\"stim\">3</p>", "key_press": -1, "trial_type": "single-stim", "trial_index": 261, "time_elapsed": 3058872, "internal_node_id": "0.0-191.0-7.0"}}, {"uniqueid": "MTK0002:39N5ACM9HFUP0FD9QFXN47M691Q9P4", "current_trial": 262, "dateTime": 1508956596406, "trialdata": {"rt": -1, "stimulus": "<p id=\"stim\">2</p>", "key_press": -1, "trial_type": "single-stim", "trial_index": 262, "time_elapsed": 3059878, "internal_node_id": "0.0-191.0-8.0"}}, {"uniqueid": "MTK0002:39N5ACM9HFUP0FD9QFXN47M691Q9P4", "current_trial": 263, "dateTime": 1508956597410, "trialdata": {"rt": -1, "stimulus": "<p id=\"stim\">1</p>", "key_press": -1, "trial_type": "single-stim", "trial_index": 263, "time_elapsed": 3060881, "internal_node_id": "0.0-191.0-9.0"}}, {"uniqueid": "MTK0002:39N5ACM9HFUP0FD9QFXN47M691Q9P4", "current_trial": 264, "dateTime": 1508956598912, "trialdata": {"rt": -1, "stimulus": "<p id=\"stim\">+</p>", "key_press": -1, "type": "FIXATION", "trial_type": "single-stim", "trial_index": 264, "time_elapsed": 3062384, "internal_node_id": "0.0-192.0-0.0"}}, {"uniqueid": "MTK0002:39N5ACM9HFUP0FD9QFXN47M691Q9P4", "current_trial": 265, "dateTime": 1508956600834, "trialdata": {"rt": -1000, "stimulus": "/static/audio/wordpool/CREVICE.wav", "key_press": -1, "type": "PRES_AUD", "word": "crevice", "wordID": 404, "conditions": [24, 800, "a", 24000], "trial": 7, "serialpos": 0, "trial_type": "single-audio", "trial_index": 265, "time_elapsed": 3064306, "internal_node_id": "0.0-193.0"}}, {"uniqueid": "MTK0002:39N5ACM9HFUP0FD9QFXN47M691Q9P4", "current_trial": 266, "dateTime": 1508956602555, "trialdata": {"rt": -1000, "stimulus": "/static/audio/wordpool/POISON.wav", "key_press": -1, "type": "PRES_AUD", "word": "poison", "wordID": 1095, "conditions": [24, 800, "a", 24000], "trial": 7, "serialpos": 1, "trial_type": "single-audio", "trial_index": 266, "time_elapsed": 3066027, "internal_node_id": "0.0-194.0"}}, {"uniqueid": "MTK0002:39N5ACM9HFUP0FD9QFXN47M691Q9P4", "current_trial": 267, "dateTime": 1508956604529, "trialdata": {"rt": -1000, "stimulus": "/static/audio/wordpool/CLOTHES.wav", "key_press": -1, "type": "PRES_AUD", "word": "clothes", "wordID": 326, "conditions": [24, 800, "a", 24000], "trial": 7, "serialpos": 2, "trial_type": "single-audio", "trial_index": 267, "time_elapsed": 3068000, "internal_node_id": "0.0-195.0"}}, {"uniqueid": "MTK0002:39N5ACM9HFUP0FD9QFXN47M691Q9P4", "current_trial": 268, "dateTime": 1508956606148, "trialdata": {"rt": -1000, "stimulus": "/static/audio/wordpool/STAMP.wav", "key_press": -1, "type": "PRES_AUD", "word": "stamp", "wordID": 1369, "conditions": [24, 800, "a", 24000], "trial": 7, "serialpos": 3, "trial_type": "single-audio", "trial_index": 268, "time_elapsed": 3069619, "internal_node_id": "0.0-196.0"}}, {"uniqueid": "MTK0002:39N5ACM9HFUP0FD9QFXN47M691Q9P4", "current_trial": 269, "dateTime": 1508956607912, "trialdata": {"rt": -1000, "stimulus": "/static/audio/wordpool/FOX.wav", "key_press": -1, "type": "PRES_AUD", "word": "fox", "wordID": 597, "conditions": [24, 800, "a", 24000], "trial": 7, "serialpos": 4, "trial_type": "single-audio", "trial_index": 269, "time_elapsed": 3071384, "internal_node_id": "0.0-197.0"}}, {"uniqueid": "MTK0002:39N5ACM9HFUP0FD9QFXN47M691Q9P4", "current_trial": 270, "dateTime": 1508956609960, "trialdata": {"rt": -1000, "stimulus": "/static/audio/wordpool/HEDGE.wav", "key_press": -1, "type": "PRES_AUD", "word": "hedge", "wordID": 698, "conditions": [24, 800, "a", 24000], "trial": 7, "serialpos": 5, "trial_type": "single-audio", "trial_index": 270, "time_elapsed": 3073432, "internal_node_id": "0.0-198.0"}}, {"uniqueid": "MTK0002:39N5ACM9HFUP0FD9QFXN47M691Q9P4", "current_trial": 271, "dateTime": 1508956611738, "trialdata": {"rt": -1000, "stimulus": "/static/audio/wordpool/DENIM.wav", "key_press": -1, "type": "PRES_AUD", "word": "denim", "wordID": 445, "conditions": [24, 800, "a", 24000], "trial": 7, "serialpos": 6, "trial_type": "single-audio", "trial_index": 271, "time_elapsed": 3075210, "internal_node_id": "0.0-199.0"}}, {"uniqueid": "MTK0002:39N5ACM9HFUP0FD9QFXN47M691Q9P4", "current_trial": 272, "dateTime": 1508956613380, "trialdata": {"r