{"condition": 0, "counterbalance": 2564, "assignmentId": "3GDTJDAPVVIJ17XMT7ZHN7X0OQ5M88", "workerId": "MTK0804", "hitId": "3VGZ74AYTGNJYGTJ9ECPN4D22PXGCG", "currenttrial": 626, "bonus": 0, "data": [{"uniqueid": "MTK0804:3GDTJDAPVVIJ17XMT7ZHN7X0OQ5M88", "current_trial": 0, "dateTime": 1512758399637, "trialdata": {"rt": 2086, "key_press": 32, "type": "INSTRUCTIONS", "trial_type": "text", "trial_index": 0, "time_elapsed": 2088, "internal_node_id": "0.0-0.0"}}, {"uniqueid": "MTK0804:3GDTJDAPVVIJ17XMT7ZHN7X0OQ5M88", "current_trial": 1, "dateTime": 1512758404970, "trialdata": {"rt": 5331, "key_press": 40, "type": "INSTRUCTIONS", "trial_type": "text", "trial_index": 1, "time_elapsed": 7421, "internal_node_id": "0.0-1.0"}}, {"uniqueid": "MTK0804:3GDTJDAPVVIJ17XMT7ZHN7X0OQ5M88", "current_trial": 2, "dateTime": 1512758416135, "trialdata": {"rt": [11159], "responses": ["ocean"], "type": "AUDIO_TEST", "trial_type": "audio-test", "trial_index": 2, "time_elapsed": 18586, "internal_node_id": "0.0-2.0"}}, {"uniqueid": "MTK0804:3GDTJDAPVVIJ17XMT7ZHN7X0OQ5M88", "current_trial": 3, "dateTime": 1512758422194, "trialdata": {"rt": [6056], "responses": ["crystal"], "type": "AUDIO_TEST", "trial_type": "audio-test", "trial_index": 3, "time_elapsed": 24645, "internal_node_id": "0.0-3.0"}}, {"uniqueid": "MTK0804:3GDTJDAPVVIJ17XMT7ZHN7X0OQ5M88", "current_trial": 4, "dateTime": 1512758428378, "trialdata": {"rt": [6181], "responses": ["spice"], "type": "AUDIO_TEST", "trial_type": "audio-test", "trial_index": 4, "time_elapsed": 30829, "internal_node_id": "0.0-4.0"}}, {"uniqueid": "MTK0804:3GDTJDAPVVIJ17XMT7ZHN7X0OQ5M88", "current_trial": 5, "dateTime": 1512758454380, "trialdata": {"rt": 25249, "responses": "{\"Q0\":\"11 pm\",\"Q1\":\"7 am\",\"Q2\":\"5\"}", "type": "SLEEP_SURVEY", "trial_type": "survey-text", "trial_index": 5, "time_elapsed": 56831, "internal_node_id": "0.0-5.0"}}, {"uniqueid": "MTK0804:3GDTJDAPVVIJ17XMT7ZHN7X0OQ5M88", "current_trial": 6, "dateTime": 1512758529681, "trialdata": {"rt": 74300, "key_press": 13, "type": "INSTRUCTIONS", "trial_type": "text", "trial_index": 6, "time_elapsed": 132132, "internal_node_id": "0.0-6.0"}}, {"uniqueid": "MTK0804:3GDTJDAPVVIJ17XMT7ZHN7X0OQ5M88", "current_trial": 7, "dateTime": 1512758557259, "trialdata": {"rt": 27076, "key_press": 32, "type": "INSTRUCTIONS", "trial_type": "text", "trial_index": 7, "time_elapsed": 159709, "internal_node_id": "0.0-7.0"}}, {"uniqueid": "MTK0804:3GDTJDAPVVIJ17XMT7ZHN7X0OQ5M88", "current_trial": 8, "dateTime": 1512758578570, "trialdata": {"rt": 20809, "key_press": 32, "type": "INSTRUCTIONS", "trial_type": "text", "trial_index": 8, "time_elapsed": 181021, "internal_node_id": "0.0-8.0"}}, {"uniqueid": "MTK0804:3GDTJDAPVVIJ17XMT7ZHN7X0OQ5M88", "current_trial": 9, "dateTime": 1512758597574, "trialdata": {"rt": [2794, 9067, 11479, 14120, 16928], "responses": ["11", "15", "8", "17", "14"], "num1": [2, 4, 1, 7, 2, 1], "num2": [1, 6, 6, 6, 3, 3], "num3": [8, 5, 1, 4, 9, 9], "type": "DISTRACTOR", "conditions": [18, 1200, "v", 18000], "trial": 0, "trial_type": "math-distractor", "trial_index": 9, "time_elapsed": 200024, "internal_node_id": "0.0-9.0"}}, {"uniqueid": "MTK0804:3GDTJDAPVVIJ17XMT7ZHN7X0OQ5M88", "current_trial": 10, "dateTime": 1512758600575, "trialdata": {"rt": -1, "stimulus": "<p id=\"stim\">10</p>", "key_press": -1, "trial_type": "single-stim", "trial_index": 10, "time_elapsed": 203026, "internal_node_id": "0.0-10.0-0.0"}}, {"uniqueid": "MTK0804:3GDTJDAPVVIJ17XMT7ZHN7X0OQ5M88", "current_trial": 11, "dateTime": 1512758601576, "trialdata": {"rt": -1, "stimulus": "<p id=\"stim\">9</p>", "key_press": -1, "trial_type": "single-stim", "trial_index": 11, "time_elapsed": 204027, "internal_node_id": "0.0-10.0-1.0"}}, {"uniqueid": "MTK0804:3GDTJDAPVVIJ17XMT7ZHN7X0OQ5M88", "current_trial": 12, "dateTime": 1512758602579, "trialdata": {"rt": -1, "stimulus": "<p id=\"stim\">8</p>", "key_press": -1, "trial_type": "single-stim", "trial_index": 12, "time_elapsed": 205030, "internal_node_id": "0.0-10.0-2.0"}}, {"uniqueid": "MTK0804:3GDTJDAPVVIJ17XMT7ZHN7X0OQ5M88", "current_trial": 13, "dateTime": 1512758603581, "trialdata": {"rt": -1, "stimulus": "<p id=\"stim\">7</p>", "key_press": -1, "trial_type": "single-stim", "trial_index": 13, "time_elapsed": 206032, "internal_node_id": "0.0-10.0-3.0"}}, {"uniqueid": "MTK0804:3GDTJDAPVVIJ17XMT7ZHN7X0OQ5M88", "current_trial": 14, "dateTime": 1512758604581, "trialdata": {"rt": -1, "stimulus": "<p id=\"stim\">6</p>", "key_press": -1, "trial_type": "single-stim", "trial_index": 14, "time_elapsed": 207032, "internal_node_id": "0.0-10.0-4.0"}}, {"uniqueid": "MTK0804:3GDTJDAPVVIJ17XMT7ZHN7X0OQ5M88", "current_trial": 15, "dateTime": 1512758605583, "trialdata": {"rt": -1, "stimulus": "<p id=\"stim\">5</p>", "key_press": -1, "trial_type": "single-stim", "trial_index": 15, "time_elapsed": 208034, "internal_node_id": "0.0-10.0-5.0"}}, {"uniqueid": "MTK0804:3GDTJDAPVVIJ17XMT7ZHN7X0OQ5M88", "current_trial": 16, "dateTime": 1512758606584, "trialdata": {"rt": -1, "stimulus": "<p id=\"stim\">4</p>", "key_press": -1, "trial_type": "single-stim", "trial_index": 16, "time_elapsed": 209035, "internal_node_id": "0.0-10.0-6.0"}}, {"uniqueid": "MTK0804:3GDTJDAPVVIJ17XMT7ZHN7X0OQ5M88", "current_trial": 17, "dateTime": 1512758607587, "trialdata": {"rt": -1, "stimulus": "<p id=\"stim\">3</p>", "key_press": -1, "trial_type": "single-stim", "trial_index": 17, "time_elapsed": 210038, "internal_node_id": "0.0-10.0-7.0"}}, {"uniqueid": "MTK0804:3GDTJDAPVVIJ17XMT7ZHN7X0OQ5M88", "current_trial": 18, "dateTime": 1512758608588, "trialdata": {"rt": -1, "stimulus": "<p id=\"stim\">2</p>", "key_press": -1, "trial_type": "single-stim", "trial_index": 18, "time_elapsed": 211039, "internal_node_id": "0.0-10.0-8.0"}}, {"uniqueid": "MTK0804:3GDTJDAPVVIJ17XMT7ZHN7X0OQ5M88", "current_trial": 19, "dateTime": 1512758609589, "trialdata": {"rt": -1, "stimulus": "<p id=\"stim\">1</p>", "key_press": -1, "trial_type": "single-stim", "trial_index": 19, "time_elapsed": 212040, "internal_node_id": "0.0-10.0-9.0"}}, {"uniqueid": "MTK0804:3GDTJDAPVVIJ17XMT7ZHN7X0OQ5M88", "current_trial": 20, "dateTime": 1512758611090, "trialdata": {"rt": -1, "stimulus": "<p id=\"stim\">+</p>", "key_press": -1, "type": "FIXATION", "trial_type": "single-stim", "trial_index": 20, "time_elapsed": 213541, "internal_node_id": "0.0-11.0-0.0"}}, {"uniqueid": "MTK0804:3GDTJDAPVVIJ17XMT7ZHN7X0OQ5M88", "current_trial": 21, "dateTime": 1512758612291, "trialdata": {"rt": -1, "stimulus": "<p id=\"stim\">FLIPPER</p>", "key_press": -1, "type": "PRES_VIS", "word": "flipper", "wordID": 579, "conditions": [18, 1200, "v", 18000], "trial": 0, "serialpos": 0, "trial_type": "single-stim", "trial_index": 21, "time_elapsed": 214742, "internal_node_id": "0.0-12.0"}}, {"uniqueid": "MTK0804:3GDTJDAPVVIJ17XMT7ZHN7X0OQ5M88", "current_trial": 22, "dateTime": 1512758614299, "trialdata": {"rt": -1, "stimulus": "<p id=\"stim\">SEAGULL</p>", "key_press": -1, "type": "PRES_VIS", "word": "seagull", "wordID": 1260, "conditions": [18, 1200, "v", 18000], "trial": 0, "serialpos": 1, "trial_type": "single-stim", "trial_index": 22, "time_elapsed": 216750, "internal_node_id": "0.0-13.0"}}, {"uniqueid": "MTK0804:3GDTJDAPVVIJ17XMT7ZHN7X0OQ5M88", "current_trial": 23, "dateTime": 1512758616451, "trialdata": {"rt": -1, "stimulus": "<p id=\"stim\">LAGOON</p>", "key_press": -1, "type": "PRES_VIS", "word": "lagoon", "wordID": 794, "conditions": [18, 1200, "v", 18000], "trial": 0, "serialpos": 2, "trial_type": "single-stim", "trial_index": 23, "time_elapsed": 218902, "internal_node_id": "0.0-14.0"}}, {"uniqueid": "MTK0804:3GDTJDAPVVIJ17XMT7ZHN7X0OQ5M88", "current_trial": 24, "dateTime": 1512758618642, "trialdata": {"rt": -1, "stimulus": "<p id=\"stim\">AUTHOR</p>", "key_press": -1, "type": "PRES_VIS", "word": "author", "wordID": 60, "conditions": [18, 1200, "v", 18000], "trial": 0, "serialpos": 3, "trial_type": "single-stim", "trial_index": 24, "time_elapsed": 221093, "internal_node_id": "0.0-15.0"}}, {"uniqueid": "MTK0804:3GDTJDAPVVIJ17XMT7ZHN7X0OQ5M88", "current_trial": 25, "dateTime": 1512758620784, "trialdata": {"rt": -1, "stimulus": "<p id=\"stim\">PIMPLE</p>", "key_press": -1, "type": "PRES_VIS", "word": "pimple", "wordID": 1070, "conditions": [18, 1200, "v", 18000], "trial": 0, "serialpos": 4, "trial_type": "single-stim", "trial_index": 25, "time_elapsed": 223235, "internal_node_id": "0.0-16.0"}}, {"uniqueid": "MTK0804:3GDTJDAPVVIJ17XMT7ZHN7X0OQ5M88", "current_trial": 26, "dateTime": 1512758623077, "trialdata": {"rt": -1, "stimulus": "<p id=\"stim\">SMOG</p>", "key_press": -1, "type": "PRES_VIS", "word": "smog", "wordID": 1329, "conditions": [18, 1200, "v", 18000], "trial": 0, "serialpos": 5, "trial_type": "single-stim", "trial_index": 26, "time_elapsed": 225528, "internal_node_id": "0.0-17.0"}}, {"uniqueid": "MTK0804:3GDTJDAPVVIJ17XMT7ZHN7X0OQ5M88", "current_trial": 27, "dateTime": 1512758625098, "trialdata": {"rt": -1, "stimulus": "<p id=\"stim\">PASTA</p>", "key_press": -1, "type": "PRES_VIS", "word": "pasta", "wordID": 1020, "conditions": [18, 1200, "v", 18000], "trial": 0, "serialpos": 6, "trial_type": "single-stim", "trial_index": 27, "time_elapsed": 227549, "internal_node_id": "0.0-18.0"}}, {"uniqueid": "MTK0804:3GDTJDAPVVIJ17XMT7ZHN7X0OQ5M88", "current_trial": 28, "dateTime": 1512758627359, "trialdata": {"rt": -1, "stimulus": "<p id=\"stim\">TAXI</p>", "key_press": -1, "type": "PRES_VIS", "word": "taxi", "wordID": 1437, "conditions": [18, 1200, "v", 18000], "trial": 0, "serialpos": 7, "trial_type": "single-stim", "trial_index": 28, "time_elapsed": 229810, "internal_node_id": "0.0-19.0"}}, {"uniqueid": "MTK0804:3GDTJDAPVVIJ17XMT7ZHN7X0OQ5M88", "current_trial": 29, "dateTime": 1512758629662, "trialdata": {"rt": -1, "stimulus": "<p id=\"stim\">CONVICT</p>", "key_press": -1, "type": "PRES_VIS", "word": "convict", "wordID": 370, "conditions": [18, 1200, "v", 18000], "trial": 0, "serialpos": 8, "trial_type": "single-stim", "trial_index": 29, "time_elapsed": 232113, "internal_node_id": "0.0-20.0"}}, {"uniqueid": "MTK0804:3GDTJDAPVVIJ17XMT7ZHN7X0OQ5M88", "current_trial": 30, "dateTime": 1512758631871, "trialdata": {"rt": -1, "stimulus": "<p id=\"stim\">DAUGHTER</p>", "key_press": -1, "type": "PRES_VIS", "word": "daughter", "wordID": 441, "conditions": [18, 1200, "v", 18000], "trial": 0, "serialpos": 9, "trial_type": "single-stim", "trial_index": 30, "time_elapsed": 234322, "internal_node_id": "0.0-21.0"}}, {"uniqueid": "MTK0804:3GDTJDAPVVIJ17XMT7ZHN7X0OQ5M88", "current_trial": 31, "dateTime": 1512758633889, "trialdata": {"rt": -1, "stimulus": "<p id=\"stim\">BRIEFCASE</p>", "key_press": -1, "type": "PRES_VIS", "word": "briefcase", "wordID": 174, "conditions": [18, 1200, "v", 18000], "trial": 0, "serialpos": 10, "trial_type": "single-stim", "trial_index": 31, "time_elapsed": 236340, "internal_node_id": "0.0-22.0"}}, {"uniqueid": "MTK0804:3GDTJDAPVVIJ17XMT7ZHN7X0OQ5M88", "current_trial": 32, "dateTime": 1512758636247, "trialdata": {"rt": -1, "stimulus": "<p id=\"stim\">FRAME</p>", "key_press": -1, "type": "PRES_VIS", "word": "frame", "wordID": 599, "conditions": [18, 1200, "v", 18000], "trial": 0, "serialpos": 11, "trial_type": "single-stim", "trial_index": 32, "time_elapsed": 238698, "internal_node_id": "0.0-23.0"}}, {"uniqueid": "MTK0804:3GDTJDAPVVIJ17XMT7ZHN7X0OQ5M88", "current_trial": 33, "dateTime": 1512758638383, "trialdata": {"rt": -1, "stimulus": "<p id=\"stim\">CABIN</p>", "key_press": -1, "type": "PRES_VIS", "word": "cabin", "wordID": 210, "conditions": [18, 1200, "v", 18000], "trial": 0, "serialpos": 12, "trial_type": "single-stim", "trial_index": 33, "time_elapsed": 240834, "internal_node_id": "0.0-24.0"}}, {"uniqueid": "MTK0804:3GDTJDAPVVIJ17XMT7ZHN7X0OQ5M88", "current_trial": 34, "dateTime": 1512758640740, "trialdata": {"rt": -1, "stimulus": "<p id=\"stim\">SKILLET</p>", "key_press": -1, "type": "PRES_VIS", "word": "skillet", "wordID": 1316, "conditions": [18, 1200, "v", 18000], "trial": 0, "serialpos": 13, "trial_type": "single-stim", "trial_index": 34, "time_elapsed": 243191, "internal_node_id": "0.0-25.0"}}, {"uniqueid": "MTK0804:3GDTJDAPVVIJ17XMT7ZHN7X0OQ5M88", "current_trial": 35, "dateTime": 1512758643116, "trialdata": {"rt": -1, "stimulus": "<p id=\"stim\">RATTLE</p>", "key_press": -1, "type": "PRES_VIS", "word": "rattle", "wordID": 1169, "conditions": [18, 1200, "v", 18000], "trial": 0, "serialpos": 14, "trial_type": "single-stim", "trial_index": 35, "time_elapsed": 245567, "internal_node_id": "0.0-26.0"}}, {"uniqueid": "MTK0804:3GDTJDAPVVIJ17XMT7ZHN7X0OQ5M88", "current_trial": 36, "dateTime": 1512758645456, "trialdata": {"rt": -1, "stimulus": "<p id=\"stim\">SHORTCAKE</p>", "key_press": -1, "type": "PRES_VIS", "word": "shortcake", "wordID": 1291, "conditions": [18, 1200, "v", 18000], "trial": 0, "serialpos": 15, "trial_type": "single-stim", "trial_index": 36, "time_elapsed": 247907, "internal_node_id": "0.0-27.0"}}, {"uniqueid": "MTK0804:3GDTJDAPVVIJ17XMT7ZHN7X0OQ5M88", "current_trial": 37, "dateTime": 1512758647526, "trialdata": {"rt": -1, "stimulus": "<p id=\"stim\">ACTOR</p>", "key_press": -1, "type": "PRES_VIS", "word": "actor", "wordID": 4, "conditions": [18, 1200, "v", 18000], "trial": 0, "serialpos": 16, "trial_type": "single-stim", "trial_index": 37, "time_elapsed": 249977, "internal_node_id": "0.0-28.0"}}, {"uniqueid": "MTK0804:3GDTJDAPVVIJ17XMT7ZHN7X0OQ5M88", "current_trial": 38, "dateTime": 1512758649562, "trialdata": {"rt": -1, "stimulus": "<p id=\"stim\">TUTU</p>", "key_press": -1, "type": "PRES_VIS", "word": "tutu", "wordID": 1523, "conditions": [18, 1200, "v", 18000], "trial": 0, "serialpos": 17, "trial_type": "single-stim", "trial_index": 38, "time_elapsed": 252013, "internal_node_id": "0.0-29.0"}}, {"uniqueid": "MTK0804:3GDTJDAPVVIJ17XMT7ZHN7X0OQ5M88", "current_trial": 39, "dateTime": 1512758652029, "trialdata": {"rt": -1, "stimulus": "", "key_press": -1, "type": "PRE_RECALL_DELAY", "trial_type": "single-stim", "trial_index": 39, "time_elapsed": 254480, "internal_node_id": "0.0-30.0-0.0"}}, {"uniqueid": "MTK0804:3GDTJDAPVVIJ17XMT7ZHN7X0OQ5M88", "current_trial": 40, "dateTime": 1512758652539, "trialdata": {"rt": -1000, "stimulus": "/static/audio/400Hz.wav", "key_press": -1, "type": "PRE_RECALL_ALERT", "trial_type": "single-audio", "trial_index": 40, "time_elapsed": 254990, "internal_node_id": "0.0-31.0"}}, {"uniqueid": "MTK0804:3GDTJDAPVVIJ17XMT7ZHN7X0OQ5M88", "current_trial": 41, "dateTime": 1512758712543, "trialdata": {"rt": [5484, 8791, 13308, 15604, 19876, 23472, 26600, 29986, 35347, 40887], "recwords": ["skillet", "daughter", "briefcase", "convict", "taxi", "spaghetti", "author", "tutu", "pimple", "cabin"], "type": "FREE_RECALL", "conditions": [18, 1200, "v", 18000], "trial": 0, "trial_type": "free-recall", "trial_index": 41, "time_elapsed": 314993, "internal_node_id": "0.0-32.0-0.0"}}, {"uniqueid": "MTK0804:3GDTJDAPVVIJ17XMT7ZHN7X0OQ5M88", "current_trial": 42, "dateTime": 1512758715816, "trialdata": {"rt": 1271, "key_press": 32, "type": "INSTRUCTIONS", "trial_type": "text", "trial_index": 42, "time_elapsed": 318267, "internal_node_id": "0.0-33.0"}}, {"uniqueid": "MTK0804:3GDTJDAPVVIJ17XMT7ZHN7X0OQ5M88", "current_trial": 43, "dateTime": 1512758735821, "trialdata": {"rt": [4338, 7370, 10506, 13302, 17055], "responses": ["19", "17", "17", "21", "20"], "num1": [9, 7, 9, 9, 6, 6], "num2": [6, 3, 6, 9, 6, 6], "num3": [4, 7, 2, 3, 8, 3], "type": "DISTRACTOR", "conditions": [18, 1200, "a", 18000], "trial": 1, "trial_type": "math-distractor", "trial_index": 43, "time_elapsed": 338271, "internal_node_id": "0.0-34.0"}}, {"uniqueid": "MTK0804:3GDTJDAPVVIJ17XMT7ZHN7X0OQ5M88", "current_trial": 44, "dateTime": 1512758738823, "trialdata": {"rt": -1, "stimulus": "<p id=\"stim\">10</p>", "key_press": -1, "trial_type": "single-stim", "trial_index": 44, "time_elapsed": 341274, "internal_node_id": "0.0-35.0-0.0"}}, {"uniqueid": "MTK0804:3GDTJDAPVVIJ17XMT7ZHN7X0OQ5M88", "current_trial": 45, "dateTime": 1512758739825, "trialdata": {"rt": -1, "stimulus": "<p id=\"stim\">9</p>", "key_press": -1, "trial_type": "single-stim", "trial_index": 45, "time_elapsed": 342276, "internal_node_id": "0.0-35.0-1.0"}}, {"uniqueid": "MTK0804:3GDTJDAPVVIJ17XMT7ZHN7X0OQ5M88", "current_trial": 46, "dateTime": 1512758740827, "trialdata": {"rt": -1, "stimulus": "<p id=\"stim\">8</p>", "key_press": -1, "trial_type": "single-stim", "trial_index": 46, "time_elapsed": 343278, "internal_node_id": "0.0-35.0-2.0"}}, {"uniqueid": "MTK0804:3GDTJDAPVVIJ17XMT7ZHN7X0OQ5M88", "current_trial": 47, "dateTime": 1512758741828, "trialdata": {"rt": -1, "stimulus": "<p id=\"stim\">7</p>", "key_press": -1, "trial_type": "single-stim", "trial_index": 47, "time_elapsed": 344279, "internal_node_id": "0.0-35.0-3.0"}}, {"uniqueid": "MTK0804:3GDTJDAPVVIJ17XMT7ZHN7X0OQ5M88", "current_trial": 48, "dateTime": 1512758742830, "trialdata": {"rt": -1, "stimulus": "<p id=\"stim\">6</p>", "key_press": -1, "trial_type": "single-stim", "trial_index": 48, "time_elapsed": 345281, "internal_node_id": "0.0-35.0-4.0"}}, {"uniqueid": "MTK0804:3GDTJDAPVVIJ17XMT7ZHN7X0OQ5M88", "current_trial": 49, "dateTime": 1512758743830, "trialdata": {"rt": -1, "stimulus": "<p id=\"stim\">5</p>", "key_press": -1, "trial_type": "single-stim", "trial_index": 49, "time_elapsed": 346281, "internal_node_id": "0.0-35.0-5.0"}}, {"uniqueid": "MTK0804:3GDTJDAPVVIJ17XMT7ZHN7X0OQ5M88", "current_trial": 50, "dateTime": 1512758744831, "trialdata": {"rt": -1, "stimulus": "<p id=\"stim\">4</p>", "key_press": -1, "trial_type": "single-stim", "trial_index": 50, "time_elapsed": 347282, "internal_node_id": "0.0-35.0-6.0"}}, {"uniqueid": "MTK0804:3GDTJDAPVVIJ17XMT7ZHN7X0OQ5M88", "current_trial": 51, "dateTime": 1512758745833, "trialdata": {"rt": -1, "stimulus": "<p id=\"stim\">3</p>", "key_press": -1, "trial_type": "single-stim", "trial_index": 51, "time_elapsed": 348284, "internal_node_id": "0.0-35.0-7.0"}}, {"uniqueid": "MTK0804:3GDTJDAPVVIJ17XMT7ZHN7X0OQ5M88", "current_trial": 52, "dateTime": 1512758746834, "trialdata": {"rt": -1, "stimulus": "<p id=\"stim\">2</p>", "key_press": -1, "trial_type": "single-stim", "trial_index": 52, "time_elapsed": 349285, "internal_node_id": "0.0-35.0-8.0"}}, {"uniqueid": "MTK0804:3GDTJDAPVVIJ17XMT7ZHN7X0OQ5M88", "current_trial": 53, "dateTime": 1512758747836, "trialdata": {"rt": -1, "stimulus": "<p id=\"stim\">1</p>", "key_press": -1, "trial_type": "single-stim", "trial_index": 53, "time_elapsed": 350287, "internal_node_id": "0.0-35.0-9.0"}}, {"uniqueid": "MTK0804:3GDTJDAPVVIJ17XMT7ZHN7X0OQ5M88", "current_trial": 54, "dateTime": 1512758749337, "trialdata": {"rt": -1, "stimulus": "<p id=\"stim\">+</p>", "key_press": -1, "type": "FIXATION", "trial_type": "single-stim", "trial_index": 54, "time_elapsed": 351788, "internal_node_id": "0.0-36.0-0.0"}}, {"uniqueid": "MTK0804:3GDTJDAPVVIJ17XMT7ZHN7X0OQ5M88", "current_trial": 55, "dateTime": 1512758751706, "trialdata": {"rt": -1000, "stimulus": "/static/audio/wordpool/THREAD.wav", "key_press": -1, "type": "PRES_AUD", "word": "thread", "wordID": 1459, "conditions": [18, 1200, "a", 18000], "trial": 1, "serialpos": 0, "trial_type": "single-audio", "trial_index": 55, "time_elapsed": 354157, "internal_node_id": "0.0-37.0"}}, {"uniqueid": "MTK0804:3GDTJDAPVVIJ17XMT7ZHN7X0OQ5M88", "current_trial": 56, "dateTime": 1512758753856, "trialdata": {"rt": -1000, "stimulus": "/static/audio/wordpool/DENTIST.wav", "key_press": -1, "type": "PRES_AUD", "word": "dentist", "wordID": 446, "conditions": [18, 1200, "a", 18000], "trial": 1, "serialpos": 1, "trial_type": "single-audio", "trial_index": 56, "time_elapsed": 356307, "internal_node_id": "0.0-38.0"}}, {"uniqueid": "MTK0804:3GDTJDAPVVIJ17XMT7ZHN7X0OQ5M88", "current_trial": 57, "dateTime": 1512758755905, "trialdata": {"rt": -1000, "stimulus": "/static/audio/wordpool/COCKTAIL.wav", "key_press": -1, "type": "PRES_AUD", "word": "cocktail", "wordID": 337, "conditions": [18, 1200, "a", 18000], "trial": 1, "serialpos": 2, "trial_type": "single-audio", "trial_index": 57, "time_elapsed": 358356, "internal_node_id": "0.0-39.0"}}, {"uniqueid": "MTK0804:3GDTJDAPVVIJ17XMT7ZHN7X0OQ5M88", "current_trial": 58, "dateTime": 1512758757966, "trialdata": {"rt": -1000, "stimulus": "/static/audio/wordpool/DINER.wav", "key_press": -1, "type": "PRES_AUD", "word": "diner", "wordID": 466, "conditions": [18, 1200, "a", 18000], "trial": 1, "serialpos": 3, "trial_type": "single-audio", "trial_index": 58, "time_elapsed": 360417, "internal_node_id": "0.0-40.0"}}, {"uniqueid": "MTK0804:3GDTJDAPVVIJ17XMT7ZHN7X0OQ5M88", "current_trial": 59, "dateTime": 1512758760089, "trialdata": {"rt": -1000, "stimulus": "/static/audio/wordpool/ICING.wav", "key_press": -1, "type": "PRES_AUD", "word": "icing", "wordID": 731, "conditions": [18, 1200, "a", 18000], "trial": 1, "serialpos": 4, "trial_type": "single-audio", "trial_index": 59, "time_elapsed": 362540, "internal_node_id": "0.0-41.0"}}, {"uniqueid": "MTK0804:3GDTJDAPVVIJ17XMT7ZHN7X0OQ5M88", "current_trial": 60, "dateTime": 1512758762145, "trialdata": {"rt": -1000, "stimulus": "/static/audio/wordpool/STAR.wav", "key_press": -1, "type": "PRES_AUD", "word": "star", "wordID": 1372, "conditions": [18, 1200, "a", 18000], "trial": 1, "serialpos": 5, "trial_type": "single-audio", "trial_index": 60, "time_elapsed": 364596, "internal_node_id": "0.0-42.0"}}, {"uniqueid": "MTK0804:3GDTJDAPVVIJ17XMT7ZHN7X0OQ5M88", "current_trial": 61, "dateTime": 1512758764264, "trialdata": {"rt": -1000, "stimulus": "/static/audio/wordpool/HEDGE.wav", "key_press": -1, "type": "PRES_AUD", "word": "hedge", "wordID": 698, "conditions": [18, 1200, "a", 18000], "trial": 1, "serialpos": 6, "trial_type": "single-audio", "trial_index": 61, "time_elapsed": 366714, "internal_node_id": "0.0-43.0"}}, {"uniqueid": "MTK0804:3GDTJDAPVVIJ17XMT7ZHN7X0OQ5M88", "current_trial": 62, "dateTime": 1512758766382, "trialdata": {"rt": -1000, "stimulus": "/static/audio/wordpool/COMET.wav", "key_press": -1, "type": "PRES_AUD", "word": "comet", "wordID": 352, "conditions": [18, 1200, "a", 18000], "trial": 1, "serialpos": 7, "trial_type": "single-audio", "trial_index": 62, "time_elapsed": 368832, "internal_node_id": "0.0-44.0"}}, {"uniqueid": "MTK0804:3GDTJDAPVVIJ17XMT7ZHN7X0OQ5M88", "current_trial": 63, "dateTime": 1512758768759, "trialdata": {"rt": -1000, "stimulus": "/static/audio/wordpool/COUSIN.wav", "key_press": -1, "type": "PRES_AUD", "word": "cousin", "wordID": 391, "conditions": [18, 1200, "a", 18000], "trial": 1, "serialpos": 8, "trial_type": "single-audio", "trial_index": 63, "time_elapsed": 371210, "internal_node_id": "0.0-45.0"}}, {"uniqueid": "MTK0804:3GDTJDAPVVIJ17XMT7ZHN7X0OQ5M88", "current_trial": 64, "dateTime": 1512758771039, "trialdata": {"rt": -1000, "stimulus": "/static/audio/wordpool/IGLOO.wav", "key_press": -1, "type": "PRES_AUD", "word": "igloo", "wordID": 733, "conditions": [18, 1200, "a", 18000], "trial": 1, "serialpos": 9, "trial_type": "single-audio", "trial_index": 64, "time_elapsed": 373489, "internal_node_id": "0.0-46.0"}}, {"uniqueid": "MTK0804:3GDTJDAPVVIJ17XMT7ZHN7X0OQ5M88", "current_trial": 65, "dateTime": 1512758773417, "trialdata": {"rt": -1000, "stimulus": "/static/audio/wordpool/JURY.wav", "key_press": -1, "type": "PRES_AUD", "word": "jury", "wordID": 765, "conditions": [18, 1200, "a", 18000], "trial": 1, "serialpos": 10, "trial_type": "single-audio", "trial_index": 65, "time_elapsed": 375867, "internal_node_id": "0.0-47.0"}}, {"uniqueid": "MTK0804:3GDTJDAPVVIJ17XMT7ZHN7X0OQ5M88", "current_trial": 66, "dateTime": 1512758775465, "trialdata": {"rt": -1000, "stimulus": "/static/audio/wordpool/APRON.wav", "key_press": -1, "type": "PRES_AUD", "word": "apron", "wordID": 34, "conditions": [18, 1200, "a", 18000], "trial": 1, "serialpos": 11, "trial_type": "single-audio", "trial_index": 66, "time_elapsed": 377916, "internal_node_id": "0.0-48.0"}}, {"uniqueid": "MTK0804:3GDTJDAPVVIJ17XMT7ZHN7X0OQ5M88", "current_trial": 67, "dateTime": 1512758777572, "trialdata": {"rt": -1000, "stimulus": "/static/audio/wordpool/PARTNER.wav", "key_press": -1, "type": "PRES_AUD", "word": "partner", "wordID": 1016, "conditions": [18, 1200, "a", 18000], "trial": 1, "serialpos": 12, "trial_type": "single-audio", "trial_index": 67, "time_elapsed": 380022, "internal_node_id": "0.0-49.0"}}, {"uniqueid": "MTK0804:3GDTJDAPVVIJ17XMT7ZHN7X0OQ5M88", "current_trial": 68, "dateTime": 1512758779929, "trialdata": {"rt": -1000, "stimulus": "/static/audio/wordpool/SKETCH.wav", "key_press": -1, "type": "PRES_AUD", "word": "sketch", "wordID": 1314, "conditions": [18, 1200, "a", 18000], "trial": 1, "serialpos": 13, "trial_type": "single-audio", "trial_index": 68, "time_elapsed": 382379, "internal_node_id": "0.0-50.0"}}, {"uniqueid": "MTK0804:3GDTJDAPVVIJ17XMT7ZHN7X0OQ5M88", "current_trial": 69, "dateTime": 1512758782011, "trialdata": {"rt": -1000, "stimulus": "/static/audio/wordpool/WHISTLE.wav", "key_press": -1, "type": "PRES_AUD", "word": "whistle", "wordID": 1605, "conditions": [18, 1200, "a", 18000], "trial": 1, "serialpos": 14, "trial_type": "single-audio", "trial_index": 69, "time_elapsed": 384462, "internal_node_id": "0.0-51.0"}}, {"uniqueid": "MTK0804:3GDTJDAPVVIJ17XMT7ZHN7X0OQ5M88", "current_trial": 70, "dateTime": 1512758784338, "trialdata": {"rt": -1000, "stimulus": "/static/audio/wordpool/POSTAGE.wav", "key_press": -1, "type": "PRES_AUD", "word": "postage", "wordID": 1112, "conditions": [18, 1200, "a", 18000], "trial": 1, "serialpos": 15, "trial_type": "single-audio", "trial_index": 70, "time_elapsed": 386788, "internal_node_id": "0.0-52.0"}}, {"uniqueid": "MTK0804:3GDTJDAPVVIJ17XMT7ZHN7X0OQ5M88", "current_trial": 71, "dateTime": 1512758786658, "trialdata": {"rt": -1000, "stimulus": "/static/audio/wordpool/VENUS.wav", "key_press": -1, "type": "PRES_AUD", "word": "venus", "wordID": 1556, "conditions": [18, 1200, "a", 18000], "trial": 1, "serialpos": 16, "trial_type": "single-audio", "trial_index": 71, "time_elapsed": 389109, "internal_node_id": "0.0-53.0"}}, {"uniqueid": "MTK0804:3GDTJDAPVVIJ17XMT7ZHN7X0OQ5M88", "current_trial": 72, "dateTime": 1512758788661, "trialdata": {"rt": -1000, "stimulus": "/static/audio/wordpool/BISON.wav", "key_press": -1, "type": "PRES_AUD", "word": "bison", "wordID": 130, "conditions": [18, 1200, "a", 18000], "trial": 1, "serialpos": 17, "trial_type": "single-audio", "trial_index": 72, "time_elapsed": 391112, "internal_node_id": "0.0-54.0"}}, {"uniqueid": "MTK0804:3GDTJDAPVVIJ17XMT7ZHN7X0OQ5M88", "current_trial": 73, "dateTime": 1512758790031, "trialdata": {"rt": -1, "stimulus": "", "key_press": -1, "type": "PRE_RECALL_DELAY", "trial_type": "single-stim", "trial_index": 73, "time_elapsed": 392482, "internal_node_id": "0.0-55.0-0.0"}}, {"uniqueid": "MTK0804:3GDTJDAPVVIJ17XMT7ZHN7X0OQ5M88", "current_trial": 74, "dateTime": 1512758790534, "trialdata": {"rt": -1000, "stimulus": "/static/audio/400Hz.wav", "key_press": -1, "type": "PRE_RECALL_ALERT", "trial_type": "single-audio", "trial_index": 74, "time_elapsed": 392985, "internal_node_id": "0.0-56.0"}}, {"uniqueid": "MTK0804:3GDTJDAPVVIJ17XMT7ZHN7X0OQ5M88", "current_trial": 75, "dateTime": 1512758850538, "trialdata": {"rt": [2436, 4646, 6288, 11807, 18378, 21874, 57922], "recwords": ["byson", "sketch", "partner", "venus", "pencil", "igloo", "postage"], "type": "FREE_RECALL", "conditions": [18, 1200, "a", 18000], "trial": 1, "trial_type": "free-recall", "trial_index": 75, "time_elapsed": 452987, "internal_node_id": "0.0-57.0-0.0"}}, {"uniqueid": "MTK0804:3GDTJDAPVVIJ17XMT7ZHN7X0OQ5M88", "current_trial": 76, "dateTime": 1512758854461, "trialdata": {"rt": 1919, "key_press": 32, "type": "INSTRUCTIONS", "trial_type": "text", "trial_index": 76, "time_elapsed": 456910, "internal_node_id": "0.0-58.0"}}, {"uniqueid": "MTK0804:3GDTJDAPVVIJ17XMT7ZHN7X0OQ5M88", "current_trial": 77, "dateTime": 1512758867464, "trialdata": {"rt": [2510, 3946, 6992, 11226], "responses": ["13", "9", "18", "22"], "num1": [2, 4, 6, 6, 3], "num2": [2, 1, 3, 7, 1], "num3": [9, 4, 9, 9, 3], "type": "DISTRACTOR", "conditions": [12, 1600, "v", 12000], "trial": 2, "trial_type": "math-distractor", "trial_index": 77, "time_elapsed": 469915, "internal_node_id": "0.0-59.0"}}, {"uniqueid": "MTK0804:3GDTJDAPVVIJ17XMT7ZHN7X0OQ5M88", "current_trial": 78, "dateTime": 1512758870467, "trialdata": {"rt": -1, "stimulus": "<p id=\"stim\">10</p>", "key_press": -1, "trial_type": "single-stim", "trial_index": 78, "time_elapsed": 472918, "internal_node_id": "0.0-60.0-0.0"}}, {"uniqueid": "MTK0804:3GDTJDAPVVIJ17XMT7ZHN7X0OQ5M88", "current_trial": 79, "dateTime": 1512758871468, "trialdata": {"rt": -1, "stimulus": "<p id=\"stim\">9</p>", "key_press": -1, "trial_type": "single-stim", "trial_index": 79, "time_elapsed": 473919, "internal_node_id": "0.0-60.0-1.0"}}, {"uniqueid": "MTK0804:3GDTJDAPVVIJ17XMT7ZHN7X0OQ5M88", "current_trial": 80, "dateTime": 1512758872469, "trialdata": {"rt": -1, "stimulus": "<p id=\"stim\">8</p>", "key_press": -1, "trial_type": "single-stim", "trial_index": 80, "time_elapsed": 474920, "internal_node_id": "0.0-60.0-2.0"}}, {"uniqueid": "MTK0804:3GDTJDAPVVIJ17XMT7ZHN7X0OQ5M88", "current_trial": 81, "dateTime": 1512758873470, "trialdata": {"rt": -1, "stimulus": "<p id=\"stim\">7</p>", "key_press": -1, "trial_type": "single-stim", "trial_index": 81, "time_elapsed": 475921, "internal_node_id": "0.0-60.0-3.0"}}, {"uniqueid": "MTK0804:3GDTJDAPVVIJ17XMT7ZHN7X0OQ5M88", "current_trial": 82, "dateTime": 1512758874473, "trialdata": {"rt": -1, "stimulus": "<p id=\"stim\">6</p>", "key_press": -1, "trial_type": "single-stim", "trial_index": 82, "time_elapsed": 476924, "internal_node_id": "0.0-60.0-4.0"}}, {"uniqueid": "MTK0804:3GDTJDAPVVIJ17XMT7ZHN7X0OQ5M88", "current_trial": 83, "dateTime": 1512758875475, "trialdata": {"rt": -1, "stimulus": "<p id=\"stim\">5</p>", "key_press": -1, "trial_type": "single-stim", "trial_index": 83, "time_elapsed": 477926, "internal_node_id": "0.0-60.0-5.0"}}, {"uniqueid": "MTK0804:3GDTJDAPVVIJ17XMT7ZHN7X0OQ5M88", "current_trial": 84, "dateTime": 1512758876476, "trialdata": {"rt": -1, "stimulus": "<p id=\"stim\">4</p>", "key_press": -1, "trial_type": "single-stim", "trial_index": 84, "time_elapsed": 478927, "internal_node_id": "0.0-60.0-6.0"}}, {"uniqueid": "MTK0804:3GDTJDAPVVIJ17XMT7ZHN7X0OQ5M88", "current_trial": 85, "dateTime": 1512758877478, "trialdata": {"rt": -1, "stimulus": "<p id=\"stim\">3</p>", "key_press": -1, "trial_type": "single-stim", "trial_index": 85, "time_elapsed": 479929, "internal_node_id": "0.0-60.0-7.0"}}, {"uniqueid": "MTK0804:3GDTJDAPVVIJ17XMT7ZHN7X0OQ5M88", "current_trial": 86, "dateTime": 1512758878480, "trialdata": {"rt": -1, "stimulus": "<p id=\"stim\">2</p>", "key_press": -1, "trial_type": "single-stim", "trial_index": 86, "time_elapsed": 480930, "internal_node_id": "0.0-60.0-8.0"}}, {"uniqueid": "MTK0804:3GDTJDAPVVIJ17XMT7ZHN7X0OQ5M88", "current_trial": 87, "dateTime": 1512758879481, "trialdata": {"rt": -1, "stimulus": "<p id=\"stim\">1</p>", "key_press": -1, "trial_type": "single-stim", "trial_index": 87, "time_elapsed": 481932, "internal_node_id": "0.0-60.0-9.0"}}, {"uniqueid": "MTK0804:3GDTJDAPVVIJ17XMT7ZHN7X0OQ5M88", "current_trial": 88, "dateTime": 1512758880982, "trialdata": {"rt": -1, "stimulus": "<p id=\"stim\">+</p>", "key_press": -1, "type": "FIXATION", "trial_type": "single-stim", "trial_index": 88, "time_elapsed": 483433, "internal_node_id": "0.0-61.0-0.0"}}, {"uniqueid": "MTK0804:3GDTJDAPVVIJ17XMT7ZHN7X0OQ5M88", "current_trial": 89, "dateTime": 1512758882583, "trialdata": {"rt": -1, "stimulus": "<p id=\"stim\">SNAKE</p>", "key_press": -1, "type": "PRES_VIS", "word": "snake", "wordID": 1332, "conditions": [12, 1600, "v", 12000], "trial": 2, "serialpos": 0, "trial_type": "single-stim", "trial_index": 89, "time_elapsed": 485034, "internal_node_id": "0.0-62.0"}}, {"uniqueid": "MTK0804:3GDTJDAPVVIJ17XMT7ZHN7X0OQ5M88", "current_trial": 90, "dateTime": 1512758885291, "trialdata": {"rt": -1, "stimulus": "<p id=\"stim\">LIZARD</p>", "key_press": -1, "type": "PRES_VIS", "word": "lizard", "wordID": 833, "conditions": [12, 1600, "v", 12000], "trial": 2, "serialpos": 1, "trial_type": "single-stim", "trial_index": 90, "time_elapsed": 487742, "internal_node_id": "0.0-63.0"}}, {"uniqueid": "MTK0804:3GDTJDAPVVIJ17XMT7ZHN7X0OQ5M88", "current_trial": 91, "dateTime": 1512758887999, "trialdata": {"rt": -1, "stimulus": "<p id=\"stim\">SKIRT</p>", "key_press": -1, "type": "PRES_VIS", "word": "skirt", "wordID": 1318, "conditions": [12, 1600, "v", 12000], "trial": 2, "serialpos": 2, "trial_type": "single-stim", "trial_index": 91, "time_elapsed": 490450, "internal_node_id": "0.0-64.0"}}, {"uniqueid": "MTK0804:3GDTJDAPVVIJ17XMT7ZHN7X0OQ5M88", "current_trial": 92, "dateTime": 1512758890539, "trialdata": {"rt": -1, "stimulus": "<p id=\"stim\">PEANUT</p>", "key_press": -1, "type": "PRES_VIS", "word": "peanut", "wordID": 1031, "conditions": [12, 1600, "v", 12000], "trial": 2, "serialpos": 3, "trial_type": "single-stim", "trial_index": 92, "time_elapsed": 492990, "internal_node_id": "0.0-65.0"}}, {"uniqueid": "MTK0804:3GDTJDAPVVIJ17XMT7ZHN7X0OQ5M88", "current_trial": 93, "dateTime": 1512758893207, "trialdata": {"rt": -1, "stimulus": "<p id=\"stim\">CHILD</p>", "key_press": -1, "type": "PRES_VIS", "word": "child", "wordID": 298, "conditions": [12, 1600, "v", 12000], "trial": 2, "serialpos": 4, "trial_type": "single-stim", "trial_index": 93, "time_elapsed": 495658, "internal_node_id": "0.0-66.0"}}, {"uniqueid": "MTK0804:3GDTJDAPVVIJ17XMT7ZHN7X0OQ5M88", "current_trial": 94, "dateTime": 1512758895852, "trialdata": {"rt": -1, "stimulus": "<p id=\"stim\">ZEBRA</p>", "key_press": -1, "type": "PRES_VIS", "word": "zebra", "wordID": 1634, "conditions": [12, 1600, "v", 12000], "trial": 2, "serialpos": 5, "trial_type": "single-stim", "trial_index": 94, "time_elapsed": 498303, "internal_node_id": "0.0-67.0"}}, {"uniqueid": "MTK0804:3GDTJDAPVVIJ17XMT7ZHN7X0OQ5M88", "current_trial": 95, "dateTime": 1512758898527, "trialdata": {"rt": -1, "stimulus": "<p id=\"stim\">PLIERS</p>", "key_press": -1, "type": "PRES_VIS", "word": "pliers", "wordID": 1088, "conditions": [12, 1600, "v", 12000], "trial": 2, "serialpos": 6, "trial_type": "single-stim", "trial_index": 95, "time_elapsed": 500978, "internal_node_id": "0.0-68.0"}}, {"uniqueid": "MTK0804:3GDTJDAPVVIJ17XMT7ZHN7X0OQ5M88", "current_trial": 96, "dateTime": 1512758900993, "trialdata": {"rt": -1, "stimulus": "<p id=\"stim\">HAMPER</p>", "key_press": -1, "type": "PRES_VIS", "word": "hamper", "wordID": 681, "conditions": [12, 1600, "v", 12000], "trial": 2, "serialpos": 7, "trial_type": "single-stim", "trial_index": 96, "time_elapsed": 503444, "internal_node_id": "0.0-69.0"}}, {"uniqueid": "MTK0804:3GDTJDAPVVIJ17XMT7ZHN7X0OQ5M88", "current_trial": 97, "dateTime": 1512758903779, "trialdata": {"rt": -1, "stimulus": "<p id=\"stim\">LABEL</p>", "key_press": -1, "type": "PRES_VIS", "word": "label", "wordID": 789, "conditions": [12, 1600, "v", 12000], "trial": 2, "serialpos": 8, "trial_type": "single-stim", "trial_index": 97, "time_elapsed": 506230, "internal_node_id": "0.0-70.0"}}, {"uniqueid": "MTK0804:3GDTJDAPVVIJ17XMT7ZHN7X0OQ5M88", "current_trial": 98, "dateTime": 1512758906409, "trialdata": {"rt": -1, "stimulus": "<p id=\"stim\">PUDDING</p>", "key_press": -1, "type": "PRES_VIS", "word": "pudding", "wordID": 1138, "conditions": [12, 1600, "v", 12000], "trial": 2, "serialpos": 9, "trial_type": "single-stim", "trial_index": 98, "time_elapsed": 508860, "internal_node_id": "0.0-71.0"}}, {"uniqueid": "MTK0804:3GDTJDAPVVIJ17XMT7ZHN7X0OQ5M88", "current_trial": 99, "dateTime": 1512758908900, "trialdata": {"rt": -1, "stimulus": "<p id=\"stim\">BREAST</p>", "key_press": -1, "type": "PRES_VIS", "word": "breast", "wordID": 170, "conditions": [12, 1600, "v", 12000], "trial": 2, "serialpos": 10, "trial_type": "single-stim", "trial_index": 99, "time_elapsed": 511351, "internal_node_id": "0.0-72.0"}}, {"uniqueid": "MTK0804:3GDTJDAPVVIJ17XMT7ZHN7X0OQ5M88", "current_trial": 100, "dateTime": 1512758911355, "trialdata": {"rt": -1, "stimulus": "<p id=\"stim\">PECAN</p>", "key_press": -1, "type": "PRES_VIS", "word": "pecan", "wordID": 1035, "conditions": [12, 1600, "v", 12000], "trial": 2, "serialpos": 11, "trial_type": "single-stim", "trial_index": 100, "time_elapsed": 513806, "internal_node_id": "0.0-73.0"}}, {"uniqueid": "MTK0804:3GDTJDAPVVIJ17XMT7ZHN7X0OQ5M88", "current_trial": 101, "dateTime": 1512758913804, "trialdata": {"rt": -1, "stimulus": "", "key_press": -1, "type": "PRE_RECALL_DELAY", "trial_type": "single-stim", "trial_index": 101, "time_elapsed": 516255, "internal_node_id": "0.0-74.0-0.0"}}, {"uniqueid": "MTK0804:3GDTJDAPVVIJ17XMT7ZHN7X0OQ5M88", "current_trial": 102, "dateTime": 1512758914311, "trialdata": {"rt": -1000, "stimulus": "/static/audio/400Hz.wav", "key_press": -1, "type": "PRE_RECALL_ALERT", "trial_type": "single-audio", "trial_index": 102, "time_elapsed": 516762, "internal_node_id": "0.0-75.0"}}, {"uniqueid": "MTK0804:3GDTJDAPVVIJ17XMT7ZHN7X0OQ5M88", "current_trial": 103, "dateTime": 1512758974315, "trialdata": {"rt": [4471, 6046, 8370, 16003, 52717], "recwords": ["lizard", "snake", "skirt", "pliers", "lion"], "type": "FREE_RECALL", "conditions": [12, 1600, "v", 12000], "trial": 2, "trial_type": "free-recall", "trial_index": 103, "time_elapsed": 576764, "internal_node_id": "0.0-76.0-0.0"}}, {"uniqueid": "MTK0804:3GDTJDAPVVIJ17XMT7ZHN7X0OQ5M88", "current_trial": 104, "dateTime": 1512758978717, "trialdata": {"rt": 2401, "key_press": 32, "type": "INSTRUCTIONS", "trial_type": "text", "trial_index": 104, "time_elapsed": 581168, "internal_node_id": "0.0-77.0"}}, {"uniqueid": "MTK0804:3GDTJDAPVVIJ17XMT7ZHN7X0OQ5M88", "current_trial": 105, "dateTime": 1512759004719, "trialdata": {"rt": [3215, 7019, 8865, 10961, 14546, 16247, 17486, 20198, 22089], "responses": ["14", "26", "7", "14", "18", "14", "12", "15", "16"], "num1": [3, 9, 2, 8, 5, 4, 5, 6, 2, 6], "num2": [5, 8, 2, 3, 5, 4, 2, 1, 6, 3], "num3": [6, 9, 3, 2, 8, 6, 5, 8, 8, 1], "type": "DISTRACTOR", "conditions": [12, 800, "a", 24000], "trial": 3, "trial_type": "math-distractor", "trial_index": 105, "time_elapsed": 607170, "internal_node_id": "0.0-78.0"}}, {"uniqueid": "MTK0804:3GDTJDAPVVIJ17XMT7ZHN7X0OQ5M88", "current_trial": 106, "dateTime": 1512759007722, "trialdata": {"rt": -1, "stimulus": "<p id=\"stim\">10</p>", "key_press": -1, "trial_type": "single-stim", "trial_index": 106, "time_elapsed": 610173, "internal_node_id": "0.0-79.0-0.0"}}, {"uniqueid": "MTK0804:3GDTJDAPVVIJ17XMT7ZHN7X0OQ5M88", "current_trial": 107, "dateTime": 1512759008722, "trialdata": {"rt": -1, "stimulus": "<p id=\"stim\">9</p>", "key_press": -1, "trial_type": "single-stim", "trial_index": 107, "time_elapsed": 611173, "internal_node_id": "0.0-79.0-1.0"}}, {"uniqueid": "MTK0804:3GDTJDAPVVIJ17XMT7ZHN7X0OQ5M88", "current_trial": 108, "dateTime": 1512759009724, "trialdata": {"rt": -1, "stimulus": "<p id=\"stim\">8</p>", "key_press": -1, "trial_type": "single-stim", "trial_index": 108, "time_elapsed": 612175, "internal_node_id": "0.0-79.0-2.0"}}, {"uniqueid": "MTK0804:3GDTJDAPVVIJ17XMT7ZHN7X0OQ5M88", "current_trial": 109, "dateTime": 1512759010725, "trialdata": {"rt": -1, "stimulus": "<p id=\"stim\">7</p>", "key_press": -1, "trial_type": "single-stim", "trial_index": 109, "time_elapsed": 613176, "internal_node_id": "0.0-79.0-3.0"}}, {"uniqueid": "MTK0804:3GDTJDAPVVIJ17XMT7ZHN7X0OQ5M88", "current_trial": 110, "dateTime": 1512759011726, "trialdata": {"rt": -1, "stimulus": "<p id=\"stim\">6</p>", "key_press": -1, "trial_type": "single-stim", "trial_index": 110, "time_elapsed": 614177, "internal_node_id": "0.0-79.0-4.0"}}, {"uniqueid": "MTK0804:3GDTJDAPVVIJ17XMT7ZHN7X0OQ5M88", "current_trial": 111, "dateTime": 1512759012727, "trialdata": {"rt": -1, "stimulus": "<p id=\"stim\">5</p>", "key_press": -1, "trial_type": "single-stim", "trial_index": 111, "time_elapsed": 615178, "internal_node_id": "0.0-79.0-5.0"}}, {"uniqueid": "MTK0804:3GDTJDAPVVIJ17XMT7ZHN7X0OQ5M88", "current_trial": 112, "dateTime": 1512759013728, "trialdata": {"rt": -1, "stimulus": "<p id=\"stim\">4</p>", "key_press": -1, "trial_type": "single-stim", "trial_index": 112, "time_elapsed": 616179, "internal_node_id": "0.0-79.0-6.0"}}, {"uniqueid": "MTK0804:3GDTJDAPVVIJ17XMT7ZHN7X0OQ5M88", "current_trial": 113, "dateTime": 1512759014731, "trialdata": {"rt": -1, "stimulus": "<p id=\"stim\">3</p>", "key_press": -1, "trial_type": "single-stim", "trial_index": 113, "time_elapsed": 617182, "internal_node_id": "0.0-79.0-7.0"}}, {"uniqueid": "MTK0804:3GDTJDAPVVIJ17XMT7ZHN7X0OQ5M88", "current_trial": 114, "dateTime": 1512759015732, "trialdata": {"rt": -1, "stimulus": "<p id=\"stim\">2</p>", "key_press": -1, "trial_type": "single-stim", "trial_index": 114, "time_elapsed": 618183, "internal_node_id": "0.0-79.0-8.0"}}, {"uniqueid": "MTK0804:3GDTJDAPVVIJ17XMT7ZHN7X0OQ5M88", "current_trial": 115, "dateTime": 1512759016733, "trialdata": {"rt": -1, "stimulus": "<p id=\"stim\">1</p>", "key_press": -1, "trial_type": "single-stim", "trial_index": 115, "time_elapsed": 619184, "internal_node_id": "0.0-79.0-9.0"}}, {"uniqueid": "MTK0804:3GDTJDAPVVIJ17XMT7ZHN7X0OQ5M88", "current_trial": 116, "dateTime": 1512759018235, "trialdata": {"rt": -1, "stimulus": "<p id=\"stim\">+</p>", "key_press": -1, "type": "FIXATION", "trial_type": "single-stim", "trial_index": 116, "time_elapsed": 620686, "internal_node_id": "0.0-80.0-0.0"}}, {"uniqueid": "MTK0804:3GDTJDAPVVIJ17XMT7ZHN7X0OQ5M88", "current_trial": 117, "dateTime": 1512759019908, "trialdata": {"rt": -1000, "stimulus": "/static/audio/wordpool/INFANT.wav", "key_press": -1, "type": "PRES_AUD", "word": "infant", "wordID": 736, "conditions": [12, 800, "a", 24000], "trial": 3, "serialpos": 0, "trial_type": "single-audio", "trial_index": 117, "time_elapsed": 622359, "internal_node_id": "0.0-81.0"}}, {"uniqueid": "MTK0804:3GDTJDAPVVIJ17XMT7ZHN7X0OQ5M88", "current_trial": 118, "dateTime": 1512759021779, "trialdata": {"rt": -1000, "stimulus": "/static/audio/wordpool/TEACHER.wav", "key_press": -1, "type": "PRES_AUD", "word": "teacher", "wordID": 1439, "conditions": [12, 800, "a", 24000], "trial": 3, "serialpos": 1, "trial_type": "single-audio", "trial_index": 118, "time_elapsed": 624230, "internal_node_id": "0.0-82.0"}}, {"uniqueid": "MTK0804:3GDTJDAPVVIJ17XMT7ZHN7X0OQ5M88", "current_trial": 119, "dateTime": 1512759023642, "trialdata": {"rt": -1000, "stimulus": "/static/audio/wordpool/CAMEL.wav", "key_press": -1, "type": "PRES_AUD", "word": "camel", "wordID": 222, "conditions": [12, 800, "a", 24000], "trial": 3, "serialpos": 2, "trial_type": "single-audio", "trial_index": 119, "time_elapsed": 626093, "internal_node_id": "0.0-83.0"}}, {"uniqueid": "MTK0804:3GDTJDAPVVIJ17XMT7ZHN7X0OQ5M88", "current_trial": 120, "dateTime": 1512759025592, "trialdata": {"rt": -1000, "stimulus": "/static/audio/wordpool/BANKER.wav", "key_press": -1, "type": "PRES_AUD", "word": "banker", "wordID": 83, "conditions": [12, 800, "a", 24000], "trial": 3, "serialpos": 3, "trial_type": "single-audio", "trial_index": 120, "time_elapsed": 628043, "internal_node_id": "0.0-84.0"}}, {"uniqueid": "MTK0804:3GDTJDAPVVIJ17XMT7ZHN7X0OQ5M88", "current_trial": 121, "dateTime": 1512759027588, "trialdata": {"rt": -1000, "stimulus": "/static/audio/wordpool/LIPSTICK.wav", "key_press": -1, "type": "PRES_AUD", "word": "lipstick", "wordID": 828, "conditions": [12, 800, "a", 24000], "trial": 3, "serialpos": 4, "trial_type": "single-audio", "trial_index": 121, "time_elapsed": 630039, "internal_node_id": "0.0-85.0"}}, {"uniqueid": "MTK0804:3GDTJDAPVVIJ17XMT7ZHN7X0OQ5M88", "current_trial": 122, "dateTime": 1512759029269, "trialdata": {"rt": -1000, "stimulus": "/static/audio/wordpool/DONKEY.wav", "key_press": -1, "type": "PRES_AUD", "word": "donkey", "wordID": 483, "conditions": [12, 800, "a", 24000], "trial": 3, "serialpos": 5, "trial_type": "single-audio", "trial_index": 122, "time_elapsed": 631720, "internal_node_id": "0.0-86.0"}}, {"uniqueid": "MTK0804:3GDTJDAPVVIJ17XMT7ZHN7X0OQ5M88", "current_trial": 123, "dateTime": 1512759030982, "trialdata": {"rt": -1000, "stimulus": "/static/audio/wordpool/TABLET.wav", "key_press": -1, "type": "PRES_AUD", "word": "tablet", "wordID": 1426, "conditions": [12, 800, "a", 24000], "trial": 3, "serialpos": 6, "trial_type": "single-audio", "trial_index": 123, "time_elapsed": 633432, "internal_node_id": "0.0-87.0"}}, {"uniqueid": "MTK0804:3GDTJDAPVVIJ17XMT7ZHN7X0OQ5M88", "current_trial": 124, "dateTime": 1512759032778, "trialdata": {"rt": -1000, "stimulus": "/static/audio/wordpool/MISTER.wav", "key_press": -1, "type": "PRES_AUD", "word": "mister", "wordID": 900, "conditions": [12, 800, "a", 24000], "trial": 3, "serialpos": 7, "trial_type": "single-audio", "trial_index": 124, "time_elapsed": 635228, "internal_node_id": "0.0-88.0"}}, {"uniqueid": "MTK0804:3GDTJDAPVVIJ17XMT7ZHN7X0OQ5M88", "current_trial": 125, "dateTime": 1512759034622, "trialdata": {"rt": -1000, "stimulus": "/static/audio/wordpool/FRANCE.wav", "key_press": -1, "type": "PRES_AUD", "word": "france", "wordID": 600, "conditions": [12, 800, "a", 24000], "trial": 3, "serialpos": 8, "trial_type": "single-audio", "trial_index": 125, "time_elapsed": 637073, "internal_node_id": "0.0-89.0"}}, {"uniqueid": "MTK0804:3GDTJDAPVVIJ17XMT7ZHN7X0OQ5M88", "current_trial": 126, "dateTime": 1512759036507, "trialdata": {"rt": -1000, "stimulus": "/static/audio/wordpool/SCULPTURE.wav", "key_press": -1, "type": "PRES_AUD", "word": "sculpture", "wordID": 1257, "conditions": [12, 800, "a", 24000], "trial": 3, "serialpos": 9, "trial_type": "single-audio", "trial_index": 126, "time_elapsed": 638958, "internal_node_id": "0.0-90.0"}}, {"uniqueid": "MTK0804:3GDTJDAPVVIJ17XMT7ZHN7X0OQ5M88", "current_trial": 127, "dateTime": 1512759038216, "trialdata": {"rt": -1000, "stimulus": "/static/audio/wordpool/STATUE.wav", "key_press": -1, "type": "PRES_AUD", "word": "statue", "wordID": 1373, "conditions": [12, 800, "a", 24000], "trial": 3, "serialpos": 10, "trial_type": "single-audio", "trial_index": 127, "time_elapsed": 640667, "internal_node_id": "0.0-91.0"}}, {"uniqueid": "MTK0804:3GDTJDAPVVIJ17XMT7ZHN7X0OQ5M88", "current_trial": 128, "dateTime": 1512759040182, "trialdata": {"rt": -1000, "stimulus": "/static/audio/wordpool/STOVE.wav", "key_press": -1, "type": "PRES_AUD", "word": "stove", "wordID": 1387, "conditions": [12, 800, "a", 24000], "trial": 3, "serialpos": 11, "trial_type": "single-audio", "trial_index": 128, "time_elapsed": 642633, "internal_node_id": "0.0-92.0"}}, {"uniqueid": "MTK0804:3GDTJDAPVVIJ17XMT7ZHN7X0OQ5M88", "current_trial": 129, "dateTime": 1512759041419, "trialdata": {"rt": -1, "stimulus": "", "key_press": -1, "type": "PRE_RECALL_DELAY", "trial_type": "single-stim", "trial_index": 129, "time_elapsed": 643870, "internal_node_id": "0.0-93.0-0.0"}}, {"uniqueid": "MTK0804:3GDTJDAPVVIJ17XMT7ZHN7X0OQ5M88", "current_trial": 130, "dateTime": 1512759041927, "trialdata": {"rt": -1000, "stimulus": "/static/audio/400Hz.wav", "key_press": -1, "type": "PRE_RECALL_ALERT", "trial_type": "single-audio", "trial_index": 130, "time_elapsed": 644378, "internal_node_id": "0.0-94.0"}}, {"uniqueid": "MTK0804:3GDTJDAPVVIJ17XMT7ZHN7X0OQ5M88", "current_trial": 131, "dateTime": 1512759101930, "trialdata": {"rt": [4021, 5617, 8026, 11310, 12979, 14886, 16742, 18592, 18829, 20572], "recwords": ["stove", "statue", "pictire", "picture", "france", "infant", "teacher", "came", "", "camel"], "type": "FREE_RECALL", "conditions": [12, 800, "a", 24000], "trial": 3, "trial_type": "free-recall", "trial_index": 131, "time_elapsed": 704379, "internal_node_id": "0.0-95.0-0.0"}}, {"uniqueid": "MTK0804:3GDTJDAPVVIJ17XMT7ZHN7X0OQ5M88", "current_trial": 132, "dateTime": 1512759105147, "trialdata": {"rt": 1216, "key_press": 32, "type": "INSTRUCTIONS", "trial_type": "text", "trial_index": 132, "time_elapsed": 707598, "internal_node_id": "0.0-96.0"}}, {"uniqueid": "MTK0804:3GDTJDAPVVIJ17XMT7ZHN7X0OQ5M88", "current_trial": 133, "dateTime": 1512759131150, "trialdata": {"rt": [2465, 5975, 7557, 12573, 14625, 16327, 21257], "responses": ["14", "20", "13", "19", "14", "8", "18"], "num1": [5, 8, 1, 8, 7, 6, 7, 9], "num2": [2, 9, 3, 6, 2, 1, 5, 4], "num3": [7, 3, 9, 5, 5, 2, 6, 4], "type": "DISTRACTOR", "conditions": [12, 800, "v", 24000], "trial": 4, "trial_type": "math-distractor", "trial_index": 133, "time_elapsed": 733601, "internal_node_id": "0.0-97.0"}}, {"uniqueid": "MTK0804:3GDTJDAPVVIJ17XMT7ZHN7X0OQ5M88", "current_trial": 134, "dateTime": 1512759134154, "trialdata": {"rt": -1, "stimulus": "<p id=\"stim\">10</p>", "key_press": -1, "trial_type": "single-stim", "trial_index": 134, "time_elapsed": 736605, "internal_node_id": "0.0-98.0-0.0"}}, {"uniqueid": "MTK0804:3GDTJDAPVVIJ17XMT7ZHN7X0OQ5M88", "current_trial": 135, "dateTime": 1512759135155, "trialdata": {"rt": -1, "stimulus": "<p id=\"stim\">9</p>", "key_press": -1, "trial_type": "single-stim", "trial_index": 135, "time_elapsed": 737606, "internal_node_id": "0.0-98.0-1.0"}}, {"uniqueid": "MTK0804:3GDTJDAPVVIJ17XMT7ZHN7X0OQ5M88", "current_trial": 136, "dateTime": 1512759136157, "trialdata": {"rt": -1, "stimulus": "<p id=\"stim\">8</p>", "key_press": -1, "trial_type": "single-stim", "trial_index": 136, "time_elapsed": 738608, "internal_node_id": "0.0-98.0-2.0"}}, {"uniqueid": "MTK0804:3GDTJDAPVVIJ17XMT7ZHN7X0OQ5M88", "current_trial": 137, "dateTime": 1512759137158, "trialdata": {"rt": -1, "stimulus": "<p id=\"stim\">7</p>", "key_press": -1, "trial_type": "single-stim", "trial_index": 137, "time_elapsed": 739609, "internal_node_id": "0.0-98.0-3.0"}}, {"uniqueid": "MTK0804:3GDTJDAPVVIJ17XMT7ZHN7X0OQ5M88", "current_trial": 138, "dateTime": 1512759138160, "trialdata": {"rt": -1, "stimulus": "<p id=\"stim\">6</p>", "key_press": -1, "trial_type": "single-stim", "trial_index": 138, "time_elapsed": 740611, "internal_node_id": "0.0-98.0-4.0"}}, {"uniqueid": "MTK0804:3GDTJDAPVVIJ17XMT7ZHN7X0OQ5M88", "current_trial": 139, "dateTime": 1512759139161, "trialdata": {"rt": -1, "stimulus": "<p id=\"stim\">5</p>", "key_press": -1, "trial_type": "single-stim", "trial_index": 139, "time_elapsed": 741612, "internal_node_id": "0.0-98.0-5.0"}}, {"uniqueid": "MTK0804:3GDTJDAPVVIJ17XMT7ZHN7X0OQ5M88", "current_trial": 140, "dateTime": 1512759140162, "trialdata": {"rt": -1, "stimulus": "<p id=\"stim\">4</p>", "key_press": -1, "trial_type": "single-stim", "trial_index": 140, "time_elapsed": 742613, "internal_node_id": "0.0-98.0-6.0"}}, {"uniqueid": "MTK0804:3GDTJDAPVVIJ17XMT7ZHN7X0OQ5M88", "current_trial": 141, "dateTime": 1512759141165, "trialdata": {"rt": -1, "stimulus": "<p id=\"stim\">3</p>", "key_press": -1, "trial_type": "single-stim", "trial_index": 141, "time_elapsed": 743616, "internal_node_id": "0.0-98.0-7.0"}}, {"uniqueid": "MTK0804:3GDTJDAPVVIJ17XMT7ZHN7X0OQ5M88", "current_trial": 142, "dateTime": 1512759142166, "trialdata": {"rt": -1, "stimulus": "<p id=\"stim\">2</p>", "key_press": -1, "trial_type": "single-stim", "trial_index": 142, "time_elapsed": 744617, "internal_node_id": "0.0-98.0-8.0"}}, {"uniqueid": "MTK0804:3GDTJDAPVVIJ17XMT7ZHN7X0OQ5M88", "current_trial": 143, "dateTime": 1512759143168, "trialdata": {"rt": -1, "stimulus": "<p id=\"stim\">1</p>", "key_press": -1, "trial_type": "single-stim", "trial_index": 143, "time_elapsed": 745619, "internal_node_id": "0.0-98.0-9.0"}}, {"uniqueid": "MTK0804:3GDTJDAPVVIJ17XMT7ZHN7X0OQ5M88", "current_trial": 144, "dateTime": 1512759144669, "trialdata": {"rt": -1, "stimulus": "<p id=\"stim\">+</p>", "key_press": -1, "type": "FIXATION", "trial_type": "single-stim", "trial_index": 144, "time_elapsed": 747120, "internal_node_id": "0.0-99.0-0.0"}}, {"uniqueid": "MTK0804:3GDTJDAPVVIJ17XMT7ZHN7X0OQ5M88", "current_trial": 145, "dateTime": 1512759145472, "trialdata": {"rt": -1, "stimulus": "<p id=\"stim\">FLASK</p>", "key_press": -1, "type": "PRES_VIS", "word": "flask", "wordID": 575, "conditions": [12, 800, "v", 24000], "trial": 4, "serialpos": 0, "trial_type": "single-stim", "trial_index": 145, "time_elapsed": 747923, "internal_node_id": "0.0-100.0"}}, {"uniqueid": "MTK0804:3GDTJDAPVVIJ17XMT7ZHN7X0OQ5M88", "current_trial": 146, "dateTime": 1512759147425, "trialdata": {"rt": -1, "stimulus": "<p id=\"stim\">INMATE</p>", "key_press": -1, "type": "PRES_VIS", "word": "inmate", "wordID": 737, "conditions": [12, 800, "v", 24000], "trial": 4, "serialpos": 1, "trial_type": "single-stim", "trial_index": 146, "time_elapsed": 749876, "internal_node_id": "0.0-101.0"}}, {"uniqueid": "MTK0804:3GDTJDAPVVIJ17XMT7ZHN7X0OQ5M88", "current_trial": 147, "dateTime": 1512759149389, "trialdata": {"rt": -1, "stimulus": "<p id=\"stim\">WORKER</p>", "key_press": -1, "type": "PRES_VIS", "word": "worker", "wordID": 1620, "conditions": [12, 800, "v", 24000], "trial": 4, "serialpos": 2, "trial_type": "single-stim", "trial_index": 147, "time_elapsed": 751840, "internal_node_id": "0.0-102.0"}}, {"uniqueid": "MTK0804:3GDTJDAPVVIJ17XMT7ZHN7X0OQ5M88", "current_trial": 148, "dateTime": 1512759151132, "trialdata": {"rt": -1, "stimulus": "<p id=\"stim\">TURTLE</p>", "key_press": -1, "type": "PRES_VIS", "word": "turtle", "wordID": 1521, "conditions": [12, 800, "v", 24000], "trial": 4, "serialpos": 3, "trial_type": "single-stim", "trial_index": 148, "time_elapsed": 753583, "internal_node_id": "0.0-103.0"}}, {"uniqueid": "MTK0804:3GDTJDAPVVIJ17XMT7ZHN7X0OQ5M88", "current_trial": 149, "dateTime": 1512759153078, "trialdata": {"rt": -1, "stimulus": "<p id=\"stim\">SHARK</p>", "key_press": -1, "type": "PRES_VIS", "word": "shark", "wordID": 1274, "conditions": [12, 800, "v", 24000], "trial": 4, "serialpos": 4, "trial_type": "single-stim", "trial_index": 149, "time_elapsed": 755529, "internal_node_id": "0.0-104.0"}}, {"uniqueid": "MTK0804:3GDTJDAPVVIJ17XMT7ZHN7X0OQ5M88", "current_trial": 150, "dateTime": 1512759155050, "trialdata": {"rt": -1, "stimulus": "<p id=\"stim\">RACKET</p>", "key_press": -1, "type": "PRES_VIS", "word": "racket", "wordID": 1154, "conditions": [12, 800, "v", 24000], "trial": 4, "serialpos": 5, "trial_type": "single-stim", "trial_index": 150, "time_elapsed": 757501, "internal_node_id": "0.0-105.0"}}, {"uniqueid": "MTK0804:3GDTJDAPVVIJ17XMT7ZHN7X0OQ5M88", "current_trial": 151, "dateTime": 1512759156725, "trialdata": {"rt": -1, "stimulus": "<p id=\"stim\">RABBIT</p>", "key_press": -1, "type": "PRES_VIS", "word": "rabbit", "wordID": 1151, "conditions": [12, 800, "v", 24000], "trial": 4, "serialpos": 6, "trial_type": "single-stim", "trial_index": 151, "time_elapsed": 759176, "internal_node_id": "0.0-106.0"}}, {"uniqueid": "MTK0804:3GDTJDAPVVIJ17XMT7ZHN7X0OQ5M88", "current_trial": 152, "dateTime": 1512759158613, "trialdata": {"rt": -1, "stimulus": "<p id=\"stim\">BLACKBOARD</p>", "key_press": -1, "type": "PRES_VIS", "word": "blackboard", "wordID": 132, "conditions": [12, 800, "v", 24000], "trial": 4, "serialpos": 7, "trial_type": "single-stim", "trial_index": 152, "time_elapsed": 761064, "internal_node_id": "0.0-107.0"}}, {"uniqueid": "MTK0804:3GDTJDAPVVIJ17XMT7ZHN7X0OQ5M88", "current_trial": 153, "dateTime": 1512759160453, "trialdata": {"rt": -1, "stimulus": "<p id=\"stim\">COFFEE</p>", "key_press": -1, "type": "PRES_VIS", "word": "coffee", "wordID": 340, "conditions": [12, 800, "v", 24000], "trial": 4, "serialpos": 8, "trial_type": "single-stim", "trial_index": 153, "time_elapsed": 762904, "internal_node_id": "0.0-108.0"}}, {"uniqueid": "MTK0804:3GDTJDAPVVIJ17XMT7ZHN7X0OQ5M88", "current_trial": 154, "dateTime": 1512759162329, "trialdata": {"rt": -1, "stimulus": "<p id=\"stim\">BEAVER</p>", "key_press": -1, "type": "PRES_VIS", "word": "beaver", "wordID": 108, "conditions": [12, 800, "v", 24000], "trial": 4, "serialpos": 9, "trial_type": "single-stim", "trial_index": 154, "time_elapsed": 764780, "internal_node_id": "0.0-109.0"}}, {"uniqueid": "MTK0804:3GDTJDAPVVIJ17XMT7ZHN7X0OQ5M88", "current_trial": 155, "dateTime": 1512759164132, "trialdata": {"rt": -1, "stimulus": "<p id=\"stim\">FLUTE</p>", "key_press": -1, "type": "PRES_VIS", "word": "flute", "wordID": 584, "conditions": [12, 800, "v", 24000], "trial": 4, "serialpos": 10, "trial_type": "single-stim", "trial_index": 155, "time_elapsed": 766582, "internal_node_id": "0.0-110.0"}}, {"uniqueid": "MTK0804:3GDTJDAPVVIJ17XMT7ZHN7X0OQ5M88", "current_trial": 156, "dateTime": 1512759165778, "trialdata": {"rt": -1, "stimulus": "<p id=\"stim\">DRESS</p>", "key_press": -1, "type": "PRES_VIS", "word": "dress", "wordID": 494, "conditions": [12, 800, "v", 24000], "trial": 4, "serialpos": 11, "trial_type": "single-stim", "trial_index": 156, "time_elapsed": 768229, "internal_node_id": "0.0-111.0"}}, {"uniqueid": "MTK0804:3GDTJDAPVVIJ17XMT7ZHN7X0OQ5M88", "current_trial": 157, "dateTime": 1512759167963, "trialdata": {"rt": -1, "stimulus": "", "key_press": -1, "type": "PRE_RECALL_DELAY", "trial_type": "single-stim", "trial_index": 157, "time_elapsed": 770414, "internal_node_id": "0.0-112.0-0.0"}}, {"uniqueid": "MTK0804:3GDTJDAPVVIJ17XMT7ZHN7X0OQ5M88", "current_trial": 158, "dateTime": 1512759168470, "trialdata": {"rt": -1000, "stimulus": "/static/audio/400Hz.wav", "key_press": -1, "type": "PRE_RECALL_ALERT", "trial_type": "single-audio", "trial_index": 158, "time_elapsed": 770921, "internal_node_id": "0.0-113.0"}}, {"uniqueid": "MTK0804:3GDTJDAPVVIJ17XMT7ZHN7X0OQ5M88", "current_trial": 159, "dateTime": 1512759228474, "trialdata": {"rt": [2148, 4463, 7296, 8806, 13647, 19232, 22385, 30964, 34897, 40610], "recwords": ["dress", "beaver", "blackboard", "inmate", "turtle", "flask", "shark", "briefcase", "racket", "dress"], "type": "FREE_RECALL", "conditions": [12, 800, "v", 24000], "trial": 4, "trial_type": "free-recall", "trial_index": 159, "time_elapsed": 830923, "internal_node_id": "0.0-114.0-0.0"}}, {"uniqueid": "MTK0804:3GDTJDAPVVIJ17XMT7ZHN7X0OQ5M88", "current_trial": 160, "dateTime": 1512759231573, "trialdata": {"rt": 1098, "key_press": 32, "type": "INSTRUCTIONS", "trial_type": "text", "trial_index": 160, "time_elapsed": 834023, "internal_node_id": "0.0-115.0"}}, {"uniqueid": "MTK0804:3GDTJDAPVVIJ17XMT7ZHN7X0OQ5M88", "current_trial": 161, "dateTime": 1512759245575, "trialdata": {"rt": [1335, 3489, 6505, 11251], "responses": ["9", "15", "16", "16"], "num1": [5, 4, 6, 4, 1], "num2": [3, 8, 5, 7, 9], "num3": [1, 3, 6, 5, 3], "type": "DISTRACTOR", "conditions": [12, 800, "v", 12000], "trial": 5, "trial_type": "math-distractor", "trial_index": 161, "time_elapsed": 848026, "internal_node_id": "0.0-116.0"}}, {"uniqueid": "MTK0804:3GDTJDAPVVIJ17XMT7ZHN7X0OQ5M88", "current_trial": 162, "dateTime": 1512759248577, "trialdata": {"rt": -1, "stimulus": "<p id=\"stim\">10</p>", "key_press": -1, "trial_type": "single-stim", "trial_index": 162, "time_elapsed": 851028, "internal_node_id": "0.0-117.0-0.0"}}, {"uniqueid": "MTK0804:3GDTJDAPVVIJ17XMT7ZHN7X0OQ5M88", "current_trial": 163, "dateTime": 1512759249579, "trialdata": {"rt": -1, "stimulus": "<p id=\"stim\">9</p>", "key_press": -1, "trial_type": "single-stim", "trial_index": 163, "time_elapsed": 852030, "internal_node_id": "0.0-117.0-1.0"}}, {"uniqueid": "MTK0804:3GDTJDAPVVIJ17XMT7ZHN7X0OQ5M88", "current_trial": 164, "dateTime": 1512759250580, "trialdata": {"rt": -1, "stimulus": "<p id=\"stim\">8</p>", "key_press": -1, "trial_type": "single-stim", "trial_index": 164, "time_elapsed": 853031, "internal_node_id": "0.0-117.0-2.0"}}, {"uniqueid": "MTK0804:3GDTJDAPVVIJ17XMT7ZHN7X0OQ5M88", "current_trial": 165, "dateTime": 1512759251581, "trialdata": {"rt": -1, "stimulus": "<p id=\"stim\">7</p>", "key_press": -1, "trial_type": "single-stim", "trial_index": 165, "time_elapsed": 854032, "internal_node_id": "0.0-117.0-3.0"}}, {"uniqueid": "MTK0804:3GDTJDAPVVIJ17XMT7ZHN7X0OQ5M88", "current_trial": 166, "dateTime": 1512759252582, "trialdata": {"rt": -1, "stimulus": "<p id=\"stim\">6</p>", "key_press": -1, "trial_type": "single-stim", "trial_index": 166, "time_elapsed": 855033, "internal_node_id": "0.0-117.0-4.0"}}, {"uniqueid": "MTK0804:3GDTJDAPVVIJ17XMT7ZHN7X0OQ5M88", "current_trial": 167, "dateTime": 1512759253584, "trialdata": {"rt": -1, "stimulus": "<p id=\"stim\">5</p>", "key_press": -1, "trial_type": "single-stim", "trial_index": 167, "time_elapsed": 856035, "internal_node_id": "0.0-117.0-5.0"}}, {"uniqueid": "MTK0804:3GDTJDAPVVIJ17XMT7ZHN7X0OQ5M88", "current_trial": 168, "dateTime": 1512759254585, "trialdata": {"rt": -1, "stimulus": "<p id=\"stim\">4</p>", "key_press": -1, "trial_type": "single-stim", "trial_index": 168, "time_elapsed": 857036, "internal_node_id": "0.0-117.0-6.0"}}, {"uniqueid": "MTK0804:3GDTJDAPVVIJ17XMT7ZHN7X0OQ5M88", "current_trial": 169, "dateTime": 1512759255586, "trialdata": {"rt": -1, "stimulus": "<p id=\"stim\">3</p>", "key_press": -1, "trial_type": "single-stim", "trial_index": 169, "time_elapsed": 858037, "internal_node_id": "0.0-117.0-7.0"}}, {"uniqueid": "MTK0804:3GDTJDAPVVIJ17XMT7ZHN7X0OQ5M88", "current_trial": 170, "dateTime": 1512759256586, "trialdata": {"rt": -1, "stimulus": "<p id=\"stim\">2</p>", "key_press": -1, "trial_type": "single-stim", "trial_index": 170, "time_elapsed": 859037, "internal_node_id": "0.0-117.0-8.0"}}, {"uniqueid": "MTK0804:3GDTJDAPVVIJ17XMT7ZHN7X0OQ5M88", "current_trial": 171, "dateTime": 1512759257588, "trialdata": {"rt": -1, "stimulus": "<p id=\"stim\">1</p>", "key_press": -1, "trial_type": "single-stim", "trial_index": 171, "time_elapsed": 860039, "internal_node_id": "0.0-117.0-9.0"}}, {"uniqueid": "MTK0804:3GDTJDAPVVIJ17XMT7ZHN7X0OQ5M88", "current_trial": 172, "dateTime": 1512759259089, "trialdata": {"rt": -1, "stimulus": "<p id=\"stim\">+</p>", "key_press": -1, "type": "FIXATION", "trial_type": "single-stim", "trial_index": 172, "time_elapsed": 861540, "internal_node_id": "0.0-118.0-0.0"}}, {"uniqueid": "MTK0804:3GDTJDAPVVIJ17XMT7ZHN7X0OQ5M88", "current_trial": 173, "dateTime": 1512759259891, "trialdata": {"rt": -1, "stimulus": "<p id=\"stim\">ASIA</p>", "key_press": -1, "type": "PRES_VIS", "word": "asia", "wordID": 45, "conditions": [12, 800, "v", 12000], "trial": 5, "serialpos": 0, "trial_type": "single-stim", "trial_index": 173, "time_elapsed": 862342, "internal_node_id": "0.0-119.0"}}, {"uniqueid": "MTK0804:3GDTJDAPVVIJ17XMT7ZHN7X0OQ5M88", "current_trial": 174, "dateTime": 1512759261865, "trialdata": {"rt": -1, "stimulus": "<p id=\"stim\">MISSILE</p>", "key_press": -1, "type": "PRES_VIS", "word": "missile", "wordID": 899, "conditions": [12, 800, "v", 12000], "trial": 5, "serialpos": 1, "trial_type": "single-stim", "trial_index": 174, "time_elapsed": 864316, "internal_node_id": "0.0-120.0"}}, {"uniqueid": "MTK0804:3GDTJDAPVVIJ17XMT7ZHN7X0OQ5M88", "current_trial": 175, "dateTime": 1512759263493, "trialdata": {"rt": -1, "stimulus": "<p id=\"stim\">PARENT</p>", "key_press": -1, "type": "PRES_VIS", "word": "parent", "wordID": 1012, "conditions": [12, 800, "v", 12000], "trial": 5, "serialpos": 2, "trial_type": "single-stim", "trial_index": 175, "time_elapsed": 865944, "internal_node_id": "0.0-121.0"}}, {"uniqueid": "MTK0804:3GDTJDAPVVIJ17XMT7ZHN7X0OQ5M88", "current_trial": 176, "dateTime": 1512759265135, "trialdata": {"rt": -1, "stimulus": "<p id=\"stim\">EUROPE</p>", "key_press": -1, "type": "PRES_VIS", "word": "europe", "wordID": 540, "conditions": [12, 800, "v", 12000], "trial": 5, "serialpos": 3, "trial_type": "single-stim", "trial_index": 176, "time_elapsed": 867586, "internal_node_id": "0.0-122.0"}}, {"uniqueid": "MTK0804:3GDTJDAPVVIJ17XMT7ZHN7X0OQ5M88", "current_trial": 177, "dateTime": 1512759267120, "trialdata": {"rt": -1, "stimulus": "<p id=\"stim\">TUNNEL</p>", "key_press": -1, "type": "PRES_VIS", "word": "tunnel", "wordID": 1518, "conditions": [12, 800, "v", 12000], "trial": 5, "serialpos": 4, "trial_type": "single-stim", "trial_index": 177, "time_elapsed": 869571, "internal_node_id": "0.0-123.0"}}, {"uniqueid": "MTK0804:3GDTJDAPVVIJ17XMT7ZHN7X0OQ5M88", "current_trial": 178, "dateTime": 1512759268852, "trialdata": {"rt": -1, "stimulus": "<p id=\"stim\">LEG</p>", "key_press": -1, "type": "PRES_VIS", "word": "leg", "wordID": 808, "conditions": [12, 800, "v", 12000], "trial": 5, "serialpos": 5, "trial_type": "single-stim", "trial_index": 178, "time_elapsed": 871303, "internal_node_id": "0.0-124.0"}}, {"uniqueid": "MTK0804:3GDTJDAPVVIJ17XMT7ZHN7X0OQ5M88", "current_trial": 179, "dateTime": 1512759270756, "trialdata": {"rt": -1, "stimulus": "<p id=\"stim\">BRACES</p>", "key_press": -1, "type": "PRES_VIS", "word": "braces", "wordID": 163, "conditions": [12, 800, "v", 12000], "trial": 5, "serialpos": 6, "trial_type": "single-stim", "trial_index": 179, "time_elapsed": 873207, "internal_node_id": "0.0-125.0"}}, {"uniqueid": "MTK0804:3GDTJDAPVVIJ17XMT7ZHN7X0OQ5M88", "current_trial": 180, "dateTime": 1512759272592, "trialdata": {"rt": -1, "stimulus": "<p id=\"stim\">MAILBOX</p>", "key_press": -1, "type": "PRES_VIS", "word": "mailbox", "wordID": 856, "conditions": [12, 800, "v", 12000], "trial": 5, "serialpos": 7, "trial_type": "single-stim", "trial_index": 180, "time_elapsed": 875043, "internal_node_id": "0.0-126.0"}}, {"uniqueid": "MTK0804:3GDTJDAPVVIJ17XMT7ZHN7X0OQ5M88", "current_trial": 181, "dateTime": 1512759274299, "trialdata": {"rt": -1, "stimulus": "<p id=\"stim\">GIRL</p>", "key_press": -1, "type": "PRES_VIS", "word": "girl", "wordID": 636, "conditions": [12, 800, "v", 12000], "trial": 5, "serialpos": 8, "trial_type": "single-stim", "trial_index": 181, "time_elapsed": 876750, "internal_node_id": "0.0-127.0"}}, {"uniqueid": "MTK0804:3GDTJDAPVVIJ17XMT7ZHN7X0OQ5M88", "current_trial": 182, "dateTime": 1512759275972, "trialdata": {"rt": -1, "stimulus": "<p id=\"stim\">WOMAN</p>", "key_press": -1, "type": "PRES_VIS", "word": "woman", "wordID": 1619, "conditions": [12, 800, "v", 12000], "trial": 5, "serialpos": 9, "trial_type": "single-stim", "trial_index": 182, "time_elapsed": 878423, "internal_node_id": "0.0-128.0"}}, {"uniqueid": "MTK0804:3GDTJDAPVVIJ17XMT7ZHN7X0OQ5M88", "current_trial": 183, "dateTime": 1512759277952, "trialdata": {"rt": -1, "stimulus": "<p id=\"stim\">SCALLOP</p>", "key_press": -1, "type": "PRES_VIS", "word": "scallop", "wordID": 1241, "conditions": [12, 800, "v", 12000], "trial": 5, "serialpos": 10, "trial_type": "single-stim", "trial_index": 183, "time_elapsed": 880403, "internal_node_id": "0.0-129.0"}}, {"uniqueid": "MTK0804:3GDTJDAPVVIJ17XMT7ZHN7X0OQ5M88", "current_trial": 184, "dateTime": 1512759279802, "trialdata": {"rt": -1, "stimulus": "<p id=\"stim\">BOUQUET</p>", "key_press": -1, "type": "PRES_VIS", "word": "bouquet", "wordID": 156, "conditions": [12, 800, "v", 12000], "trial": 5, "serialpos": 11, "trial_type": "single-stim", "trial_index": 184, "time_elapsed": 882253, "internal_node_id": "0.0-130.0"}}, {"uniqueid": "MTK0804:3GDTJDAPVVIJ17XMT7ZHN7X0OQ5M88", "current_trial": 185, "dateTime": 1512759282020, "trialdata": {"rt": -1, "stimulus": "", "key_press": -1, "type": "PRE_RECALL_DELAY", "trial_type": "single-stim", "trial_index": 185, "time_elapsed": 884471, "internal_node_id": "0.0-131.0-0.0"}}, {"uniqueid": "MTK0804:3GDTJDAPVVIJ17XMT7ZHN7X0OQ5M88", "current_trial": 186, "dateTime": 1512759282530, "trialdata": {"rt": -1000, "stimulus": "/static/audio/400Hz.wav", "key_press": -1, "type": "PRE_RECALL_ALERT", "trial_type": "single-audio", "trial_index": 186, "time_elapsed": 884981, "internal_node_id": "0.0-132.0"}}, {"uniqueid": "MTK0804:3GDTJDAPVVIJ17XMT7ZHN7X0OQ5M88", "current_trial": 187, "dateTime": 1512759342533, "trialdata": {"rt": [2552, 6233, 7554, 8842, 11498, 14130, 25157, 29514], "recwords": ["bouquet", "scallop", "girl", "woman", "mailbox", "tunnel", "europe", "asia"], "type": "FREE_RECALL", "conditions": [12, 800, "v", 12000], "trial": 5, "trial_type": "free-recall", "trial_index": 187, "time_elapsed": 944982, "internal_node_id": "0.0-133.0-0.0"}}, {"uniqueid": "MTK0804:3GDTJDAPVVIJ17XMT7ZHN7X0OQ5M88", "current_trial": 188, "dateTime": 1512759346098, "trialdata": {"rt": 1562, "key_press": 32, "type": "INSTRUCTIONS", "trial_type": "text", "trial_index": 188, "time_elapsed": 948549, "internal_node_id": "0.0-134.0"}}, {"uniqueid": "MTK0804:3GDTJDAPVVIJ17XMT7ZHN7X0OQ5M88", "current_trial": 189, "dateTime": 1512759360101, "trialdata": {"rt": [3158, 6063, 7699, 11584], "responses": ["14", "12", "12", "18"], "num1": [5, 7, 4, 5, 9], "num2": [6, 2, 1, 6, 5], "num3": [3, 3, 7, 7, 5], "type": "DISTRACTOR", "conditions": [12, 800, "a", 12000], "trial": 6, "trial_type": "math-distractor", "trial_index": 189, "time_elapsed": 962552, "internal_node_id": "0.0-135.0"}}, {"uniqueid": "MTK0804:3GDTJDAPVVIJ17XMT7ZHN7X0OQ5M88", "current_trial": 190, "dateTime": 1512759363103, "trialdata": {"rt": -1, "stimulus": "<p id=\"stim\">10</p>", "key_press": -1, "trial_type": "single-stim", "trial_index": 190, "time_elapsed": 965554, "internal_node_id": "0.0-136.0-0.0"}}, {"uniqueid": "MTK0804:3GDTJDAPVVIJ17XMT7ZHN7X0OQ5M88", "current_trial": 191, "dateTime": 1512759364104, "trialdata": {"rt": -1, "stimulus": "<p id=\"stim\">9</p>", "key_press": -1, "trial_type": "single-stim", "trial_index": 191, "time_elapsed": 966555, "internal_node_id": "0.0-136.0-1.0"}}, {"uniqueid": "MTK0804:3GDTJDAPVVIJ17XMT7ZHN7X0OQ5M88", "current_trial": 192, "dateTime": 1512759365106, "trialdata": {"rt": -1, "stimulus": "<p id=\"stim\">8</p>", "key_press": -1, "trial_type": "single-stim", "trial_index": 192, "time_elapsed": 967557, "internal_node_id": "0.0-136.0-2.0"}}, {"uniqueid": "MTK0804:3GDTJDAPVVIJ17XMT7ZHN7X0OQ5M88", "current_trial": 193, "dateTime": 1512759366107, "trialdata": {"rt": -1, "stimulus": "<p id=\"stim\">7</p>", "key_press": -1, "trial_type": "single-stim", "trial_index": 193, "time_elapsed": 968558, "internal_node_id": "0.0-136.0-3.0"}}, {"uniqueid": "MTK0804:3GDTJDAPVVIJ17XMT7ZHN7X0OQ5M88", "current_trial": 194, "dateTime": 1512759367108, "trialdata": {"rt": -1, "stimulus": "<p id=\"stim\">6</p>", "key_press": -1, "trial_type": "single-stim", "trial_index": 194, "time_elapsed": 969559, "internal_node_id": "0.0-136.0-4.0"}}, {"uniqueid": "MTK0804:3GDTJDAPVVIJ17XMT7ZHN7X0OQ5M88", "current_trial": 195, "dateTime": 1512759368109, "trialdata": {"rt": -1, "stimulus": "<p id=\"stim\">5</p>", "key_press": -1, "trial_type": "single-stim", "trial_index": 195, "time_elapsed": 970560, "internal_node_id": "0.0-136.0-5.0"}}, {"uniqueid": "MTK0804:3GDTJDAPVVIJ17XMT7ZHN7X0OQ5M88", "current_trial": 196, "dateTime": 1512759369111, "trialdata": {"rt": -1, "stimulus": "<p id=\"stim\">4</p>", "key_press": -1, "trial_type": "single-stim", "trial_index": 196, "time_elapsed": 971562, "internal_node_id": "0.0-136.0-6.0"}}, {"uniqueid": "MTK0804:3GDTJDAPVVIJ17XMT7ZHN7X0OQ5M88", "current_trial": 197, "dateTime": 1512759370112, "trialdata": {"rt": -1, "stimulus": "<p id=\"stim\">3</p>", "key_press": -1, "trial_type": "single-stim", "trial_index": 197, "time_elapsed": 972563, "internal_node_id": "0.0-136.0-7.0"}}, {"uniqueid": "MTK0804:3GDTJDAPVVIJ17XMT7ZHN7X0OQ5M88", "current_trial": 198, "dateTime": 1512759371113, "trialdata": {"rt": -1, "stimulus": "<p id=\"stim\">2</p>", "key_press": -1, "trial_type": "single-stim", "trial_index": 198, "time_elapsed": 973564, "internal_node_id": "0.0-136.0-8.0"}}, {"uniqueid": "MTK0804:3GDTJDAPVVIJ17XMT7ZHN7X0OQ5M88", "current_trial": 199, "dateTime": 1512759372114, "trialdata": {"rt": -1, "stimulus": "<p id=\"stim\">1</p>", "key_press": -1, "trial_type": "single-stim", "trial_index": 199, "time_elapsed": 974565, "internal_node_id": "0.0-136.0-9.0"}}, {"uniqueid": "MTK0804:3GDTJDAPVVIJ17XMT7ZHN7X0OQ5M88", "current_trial": 200, "dateTime": 1512759373615, "trialdata": {"rt": -1, "stimulus": "<p id=\"stim\">+</p>", "key_press": -1, "type": "FIXATION", "trial_type": "single-stim", "trial_index": 200, "time_elapsed": 976066, "internal_node_id": "0.0-137.0-0.0"}}, {"uniqueid": "MTK0804:3GDTJDAPVVIJ17XMT7ZHN7X0OQ5M88", "current_trial": 201, "dateTime": 1512759375492, "trialdata": {"rt": -1000, "stimulus": "/static/audio/wordpool/HIKER.wav", "key_press": -1, "type": "PRES_AUD", "word": "hiker", "wordID": 707, "conditions": [12, 800, "a", 12000], "trial": 6, "serialpos": 0, "trial_type": "single-audio", "trial_index": 201, "time_elapsed": 977942, "internal_node_id": "0.0-138.0"}}, {"uniqueid": "MTK0804:3GDTJDAPVVIJ17XMT7ZHN7X0OQ5M88", "current_trial": 202, "dateTime": 1512759377211, "trialdata": {"rt": -1000, "stimulus": "/static/audio/wordpool/BANK.wav", "key_press": -1, "type": "PRES_AUD", "word": "bank", "wordID": 82, "conditions": [12, 800, "a", 12000], "trial": 6, "serialpos": 1, "trial_type": "single-audio", "trial_index": 202, "time_elapsed": 979662, "internal_node_id": "0.0-139.0"}}, {"uniqueid": "MTK0804:3GDTJDAPVVIJ17XMT7ZHN7X0OQ5M88", "current_trial": 203, "dateTime": 1512759379172, "trialdata": {"rt": -1000, "stimulus": "/static/audio/wordpool/FRUIT.wav", "key_press": -1, "type": "PRES_AUD", "word": "fruit", "wordID": 609, "conditions": [12, 800, "a", 12000], "trial": 6, "serialpos": 2, "trial_type": "single-audio", "trial_index": 203, "time_elapsed": 981623, "internal_node_id": "0.0-140.0"}}, {"uniqueid": "MTK0804:3GDTJDAPVVIJ17XMT7ZHN7X0OQ5M88", "current_trial": 204, "dateTime": 1512759380967, "trialdata": {"rt": -1000, "stimulus": "/static/audio/wordpool/PIGEON.wav", "key_press": -1, "type": "PRES_AUD", "word": "pigeon", "wordID": 1064, "conditions": [12, 800, "a", 12000], "trial": 6, "serialpos": 3, "trial_type": "single-audio", "trial_index": 204, "time_elapsed": 983418, "internal_node_id": "0.0-141.0"}}, {"uniqueid": "MTK0804:3GDTJDAPVVIJ17XMT7ZHN7X0OQ5M88", "current_trial": 205, "dateTime": 1512759382654, "trialdata": {"rt": -1000, "stimulus": "/static/audio/wordpool/FOX.wav", "key_press": -1, "type": "PRES_AUD", "word": "fox", "wordID": 597, "conditions": [12, 800, "a", 12000], "trial": 6, "serialpos": 4, "trial_type": "single-audio", "trial_index": 205, "time_elapsed": 985105, "internal_node_id": "0.0-142.0"}}, {"uniqueid": "MTK0804:3GDTJDAPVVIJ17XMT7ZHN7X0OQ5M88", "current_trial": 206, "dateTime": 1512759384578, "trialdata": {"rt": -1000, "stimulus": "/static/audio/wordpool/SOFTBALL.wav", "key_press": -1, "type": "PRES_AUD", "word": "softball", "wordID": 1342, "conditions": [12, 800, "a", 12000], "trial": 6, "serialpos": 5, "trial_type": "single-audio", "trial_index": 206, "time_elapsed": 987029, "internal_node_id": "0.0-143.0"}}, {"uniqueid": "MTK0804:3GDTJDAPVVIJ17XMT7ZHN7X0OQ5M88", "current_trial": 207, "dateTime": 1512759386227, "trialdata": {"rt": -1000, "stimulus": "/static/audio/wordpool/ACTRESS.wav", "key_press": -1, "type": "PRES_AUD", "word": "actress", "wordID": 5, "conditions": [12, 800, "a", 12000], "trial": 6, "serialpos": 6, "trial_type": "single-audio", "trial_index": 207, "time_elapsed": 988678, "internal_node_id": "0.0-144.0"}}, {"uniqueid": "MTK0804:3GDTJDAPVVIJ17XMT7ZHN7X0OQ5M88", "current_trial": 208, "dateTime": 1512759388109, "trialdata": {"rt": -1000, "stimulus": "/static/audio/wordpool/MUMMY.wav", "key_press": -1, "type": "PRES_AUD", "word": "mummy", "wordID": 931, "conditions": [12, 800, "a", 12000], "trial": 6, "serialpos": 7, "trial_type": "single-audio", "trial_index": 208, "time_elapsed": 990560, "internal_node_id": "0.0-145.0"}}, {"uniqueid": "MTK0804:3GDTJDAPVVIJ17XMT7ZHN7X0OQ5M88", "current_trial": 209, "dateTime": 1512759389805, "trialdata": {"rt": -1000, "stimulus": "/static/audio/wordpool/CRIB.wav", "key_press": -1, "type": "PRES_AUD", "word": "crib", "wordID": 406, "conditions": [12, 800, "a", 12000], "trial": 6, "serialpos": 8, "trial_type": "single-audio", "trial_index": 209, "time_elapsed": 992256, "internal_node_id": "0.0-146.0"}}, {"uniqueid": "MTK0804:3GDTJDAPVVIJ17XMT7ZHN7X0OQ5M88", "current_trial": 210, "dateTime": 1512759391767, "trialdata": {"rt": -1000, "stimulus": "/static/audio/wordpool/REBEL.wav", "key_press": -1, "type": "PRES_AUD", "word": "rebel", "wordID": 1171, "conditions": [12, 800, "a", 12000], "trial": 6, "serialpos": 9, "trial_type": "single-audio", "trial_index": 210, "time_elapsed": 994217, "internal_node_id": "0.0-147.0"}}, {"uniqueid": "MTK0804:3GDTJDAPVVIJ17XMT7ZHN7X0OQ5M88", "current_trial": 211, "dateTime": 1512759393595, "trialdata": {"rt": -1000, "stimulus": "/static/audio/wordpool/CITRUS.wav", "key_press": -1, "type": "PRES_AUD", "word": "citrus", "wordID": 312, "conditions": [12, 800, "a", 12000], "trial": 6, "serialpos": 10, "trial_type": "single-audio", "trial_index": 211, "time_elapsed": 996046, "internal_node_id": "0.0-148.0"}}, {"uniqueid": "MTK0804:3GDTJDAPVVIJ17XMT7ZHN7X0OQ5M88", "current_trial": 212, "dateTime": 1512759395406, "trialdata": {"rt": -1000, "stimulus": "/static/audio/wordpool/BUGGY.wav", "key_press": -1, "type": "PRES_AUD", "word": "buggy", "wordID": 187, "conditions": [12, 800, "a", 12000], "trial": 6, "serialpos": 11, "trial_type": "single-audio", "trial_index": 212, "time_elapsed": 997857, "internal_node_id": "0.0-149.0"}}, {"uniqueid": "MTK0804:3GDTJDAPVVIJ17XMT7ZHN7X0OQ5M88", "current_trial": 213, "dateTime": 1512759396730, "trialdata": {"rt": -1, "stimulus": "", "key_press": -1, "type": "PRE_RECALL_DELAY", "trial_type": "single-stim", "trial_index": 213, "time_elapsed": 999181, "internal_node_id": "0.0-150.0-0.0"}}, {"uniqueid": "MTK0804:3GDTJDAPVVIJ17XMT7ZHN7X0OQ5M88", "current_trial": 214, "dateTime": 1512759397231, "trialdata": {"rt": -1000, "stimulus": "/static/audio/400Hz.wav", "key_press": -1, "type": "PRE_RECALL_ALERT", "trial_type": "single-audio", "trial_index": 214, "time_elapsed": 999682, "internal_node_id": "0.0-151.0"}}, {"uniqueid": "MTK0804:3GDTJDAPVVIJ17XMT7ZHN7X0OQ5M88", "current_trial": 215, "dateTime": 1512759457235, "trialdata": {"rt": [2858, 5514, 8662, 10566, 12482, 18222, 35376], "recwords": ["bugee", "actress", "pigeon", "hiker", "hike", "banker", "actress"], "type": "FREE_RECALL", "conditions": [12, 800, "a", 12000], "trial": 6, "trial_type": "free-recall", "trial_index": 215, "time_elapsed": 1059684, "internal_node_id": "0.0-152.0-0.0"}}, {"uniqueid": "MTK0804:3GDTJDAPVVIJ17XMT7ZHN7X0OQ5M88", "current_trial": 216, "dateTime": 1512759460210, "trialdata": {"rt": 973, "key_press": 32, "type": "INSTRUCTIONS", "trial_type": "text", "trial_index": 216, "time_elapsed": 1062660, "internal_node_id": "0.0-153.0"}}, {"uniqueid": "MTK0804:3GDTJDAPVVIJ17XMT7ZHN7X0OQ5M88", "current_trial": 217, "dateTime": 1512759474213, "trialdata": {"rt": [2679, 6708, 8768, 10856], "responses": ["18", "18", "16", "15"], "num1": [3, 6, 2, 7, 2], "num2": [8, 5, 8, 3, 4], "num3": [8, 7, 6, 5, 3], "type": "DISTRACTOR", "conditions": [24, 800, "v", 12000], "trial": 7, "trial_type": "math-distractor", "trial_index": 217, "time_elapsed": 1076664, "internal_node_id": "0.0-154.0"}}, {"uniqueid": "MTK0804:3GDTJDAPVVIJ17XMT7ZHN7X0OQ5M88", "current_trial": 218, "dateTime": 1512759477216, "trialdata": {"rt": -1, "stimulus": "<p id=\"stim\">10</p>", "key_press": -1, "trial_type": "single-stim", "trial_index": 218, "time_elapsed": 1079667, "internal_node_id": "0.0-155.0-0.0"}}, {"uniqueid": "MTK0804:3GDTJDAPVVIJ17XMT7ZHN7X0OQ5M88", "current_trial": 219, "dateTime": 1512759478218, "trialdata": {"rt": -1, "stimulus": "<p id=\"stim\">9</p>", "key_press": -1, "trial_type": "single-stim", "trial_index": 219, "time_elapsed": 1080669, "internal_node_id": "0.0-155.0-1.0"}}, {"uniqueid": "MTK0804:3GDTJDAPVVIJ17XMT7ZHN7X0OQ5M88", "current_trial": 220, "dateTime": 1512759479220, "trialdata": {"rt": -1, "stimulus": "<p id=\"stim\">8</p>", "key_press": -1, "trial_type": "single-stim", "trial_index": 220, "time_elapsed": 1081671, "internal_node_id": "0.0-155.0-2.0"}}, {"uniqueid": "MTK0804:3GDTJDAPVVIJ17XMT7ZHN7X0OQ5M88", "current_trial": 221, "dateTime": 1512759480221, "trialdata": {"rt": -1, "stimulus": "<p id=\"stim\">7</p>", "key_press": -1, "trial_type": "single-stim", "trial_index": 221, "time_elapsed": 1082672, "internal_node_id": "0.0-155.0-3.0"}}, {"uniqueid": "MTK0804:3GDTJDAPVVIJ17XMT7ZHN7X0OQ5M88", "current_trial": 222, "dateTime": 1512759481223, "trialdata": {"rt": -1, "stimulus": "<p id=\"stim\">6</p>", "key_press": -1, "trial_type": "single-stim", "trial_index": 222, "time_elapsed": 1083674, "internal_node_id": "0.0-155.0-4.0"}}, {"uniqueid": "MTK0804:3GDTJDAPVVIJ17XMT7ZHN7X0OQ5M88", "current_trial": 223, "dateTime": 1512759482224, "trialdata": {"rt": -1, "stimulus": "<p id=\"stim\">5</p>", "key_press": -1, "trial_type": "single-stim", "trial_index": 223, "time_elapsed": 1084675, "internal_node_id": "0.0-155.0-5.0"}}, {"uniqueid": "MTK0804:3GDTJDAPVVIJ17XMT7ZHN7X0OQ5M88", "current_trial": 224, "dateTime": 1512759483225, "trialdata": {"rt": -1, "stimulus": "<p id=\"stim\">4</p>", "key_press": -1, "trial_type": "single-stim", "trial_index": 224, "time_elapsed": 1085676, "internal_node_id": "0.0-155.0-6.0"}}, {"uniqueid": "MTK0804:3GDTJDAPVVIJ17XMT7ZHN7X0OQ5M88", "current_trial": 225, "dateTime": 1512759484226, "trialdata": {"rt": -1, "stimulus": "<p id=\"stim\">3</p>", "key_press": -1, "trial_type": "single-stim", "trial_index": 225, "time_elapsed": 1086677, "internal_node_id": "0.0-155.0-7.0"}}, {"uniqueid": "MTK0804:3GDTJDAPVVIJ17XMT7ZHN7X0OQ5M88", "current_trial": 226, "dateTime": 1512759485227, "trialdata": {"rt": -1, "stimulus": "<p id=\"stim\">2</p>", "key_press": -1, "trial_type": "single-stim", "trial_index": 226, "time_elapsed": 1087678, "internal_node_id": "0.0-155.0-8.0"}}, {"uniqueid": "MTK0804:3GDTJDAPVVIJ17XMT7ZHN7X0OQ5M88", "current_trial": 227, "dateTime": 1512759486228, "trialdata": {"rt": -1, "stimulus": "<p id=\"stim\">1</p>", "key_press": -1, "trial_type": "single-stim", "trial_index": 227, "time_elapsed": 1088679, "internal_node_id": "0.0-155.0-9.0"}}, {"uniqueid": "MTK0804:3GDTJDAPVVIJ17XMT7ZHN7X0OQ5M88", "current_trial": 228, "dateTime": 1512759487729, "trialdata": {"rt": -1, "stimulus": "<p id=\"stim\">+</p>", "key_press": -1, "type": "FIXATION", "trial_type": "single-stim", "trial_index": 228, "time_elapsed": 1090180, "internal_node_id": "0.0-156.0-0.0"}}, {"uniqueid": "MTK0804:3GDTJDAPVVIJ17XMT7ZHN7X0OQ5M88", "current_trial": 229, "dateTime": 1512759488530, "trialdata": {"rt": -1, "stimulus": "<p id=\"stim\">SLIDE</p>", "key_press": -1, "type": "PRES_VIS", "word": "slide", "wordID": 1325, "conditions": [24, 800, "v", 12000], "trial": 7, "serialpos": 0, "trial_type": "single-stim", "trial_index": 229, "time_elapsed": 1090981, "internal_node_id": "0.0-157.0"}}, {"uniqueid": "MTK0804:3GDTJDAPVVIJ17XMT7ZHN7X0OQ5M88", "current_trial": 230, "dateTime": 1512759490439, "trialdata": {"rt": -1, "stimulus": "<p id=\"stim\">DANDRUFF</p>", "key_press": -1, "type": "PRES_VIS", "word": "dandruff", "wordID": 438, "conditions": [24, 800, "v", 12000], "trial": 7, "serialpos": 1, "trial_type": "single-stim", "trial_index": 230, "time_elapsed": 1092890, "internal_node_id": "0.0-158.0"}}, {"uniqueid": "MTK0804:3GDTJDAPVVIJ17XMT7ZHN7X0OQ5M88", "current_trial": 231, "dateTime": 1512759492089, "trialdata": {"rt": -1, "stimulus": "<p id=\"stim\">BLOUSE</p>", "key_press": -1, "type": "PRES_VIS", "word": "blouse", "wordID": 138, "conditions": [24, 800, "v", 12000], "trial": 7, "serialpos": 2, "trial_type": "single-stim", "trial_index": 231, "time_elapsed": 1094540, "internal_node_id": "0.0-159.0"}}, {"uniqueid": "MTK0804:3GDTJDAPVVIJ17XMT7ZHN7X0OQ5M88", "current_trial": 232, "dateTime": 1512759494049, "trialdata": {"rt": -1, "stimulus": "<p id=\"stim\">POSSUM</p>", "key_press": -1, "type": "PRES_VIS", "word": "possum", "wordID": 1111, "conditions": [24, 800, "v", 12000], "trial": 7, "serialpos": 3, "trial_type": "single-stim", "trial_index": 232, "time_elapsed": 1096500, "internal_node_id": "0.0-160.0"}}, {"uniqueid": "MTK0804:3GDTJDAPVVIJ17XMT7ZHN7X0OQ5M88", "current_trial": 233, "dateTime": 1512759495952, "trialdata": {"rt": -1, "stimulus": "<p id=\"stim\">SISTER</p>", "key_press": -1, "type": "PRES_VIS", "word": "sister", "wordID": 1311, "conditions": [24, 800, "v", 12000], "trial": 7, "serialpos": 4, "trial_type": "single-stim", "trial_index": 233, "time_elapsed": 1098403, "internal_node_id": "0.0-161.0"}}, {"uniqueid": "MTK0804:3GDTJDAPVVIJ17XMT7ZHN7X0OQ5M88", "current_trial": 234, "dateTime": 1512759497651, "trialdata": {"rt": -1, "stimulus": "<p id=\"stim\">POWDER</p>", "key_press": -1, "type": "PRES_VIS", "word": "powder", "wordID": 1116, "conditions": [24, 800, "v", 12000], "trial": 7, "serialpos": 5, "trial_type": "single-stim", "trial_index": 234, "time_elapsed": 1100102, "internal_node_id": "0.0-162.0"}}, {"uniqueid": "MTK0804:3GDTJDAPVVIJ17XMT7ZHN7X0OQ5M88", "current_trial": 235, "dateTime": 1512759499563, "trialdata": {"rt": -1, "stimulus": "<p id=\"stim\">CASKET</p>", "key_press": -1, "type": "PRES_VIS", "word": "casket", "wordID": 254, "conditions": [24, 800, "v", 12000], "trial": 7, "serialpos": 6, "trial_type": "single-stim", "trial_index": 235, "time_elapsed": 1102014, "internal_node_id": "0.0-163.0"}}, {"uniqueid": "MTK0804:3GDTJDAPVVIJ17XMT7ZHN7X0OQ5M88", "current_trial": 236, "dateTime": 1512759501447, "trialdata": {"rt": -1, "stimulus": "<p id=\"stim\">VELVET</p>", "key_press": -1, "type": "PRES_VIS", "word": "velvet", "wordID": 1554, "conditions": [24, 800, "v", 12000], "trial": 7, "serialpos": 7, "trial_type": "single-stim", "trial_index": 236, "time_elapsed": 1103898, "internal_node_id": "0.0-164.0"}}, {"uniqueid": "MTK0804:3GDTJDAPVVIJ17XMT7ZHN7X0OQ5M88", "current_trial": 237, "dateTime": 1512759503190, "trialdata": {"rt": -1, "stimulus": "<p id=\"stim\">HATCHET</p>", "key_press": -1, "type": "PRES_VIS", "word": "hatchet", "wordID": 690, "conditions": [24, 800, "v", 12000], "trial": 7, "serialpos": 8, "trial_type": "single-stim", "trial_index": 237, "time_elapsed": 1105641, "internal_node_id": "0.0-165.0"}}, {"uniqueid": "MTK0804:3GDTJDAPVVIJ17XMT7ZHN7X0OQ5M88", "current_trial": 238, "dateTime": 1512759505086, "trialdata": {"rt": -1, "stimulus": "<p id=\"stim\">RAZOR</p>", "key_press": -1, "type": "PRES_VIS", "word": "razor", "wordID": 1170, "conditions": [24, 800, "v", 12000], "trial": 7, "serialpos": 9, "trial_type": "single-stim", "trial_index": 238, "time_elapsed": 1107537, "internal_node_id": "0.0-166.0"}}, {"uniqueid": "MTK0804:3GDTJDAPVVIJ17XMT7ZHN7X0OQ5M88", "current_trial": 239, "dateTime": 1512759506981, "trialdata": {"rt": -1, "stimulus": "<p id=\"stim\">BLADE</p>", "key_press": -1, "type": "PRES_VIS", "word": "blade", "wordID": 133, "conditions": [24, 800, "v", 12000], "trial": 7, "serialpos": 10, "trial_type": "single-stim", "trial_index": 239, "time_elapsed": 1109432, "internal_node_id": "0.0-167.0"}}, {"uniqueid": "MTK0804:3GDTJDAPVVIJ17XMT7ZHN7X0OQ5M88", "current_trial": 240, "dateTime": 1512759508886, "trialdata": {"rt": -1, "stimulus": "<p id=\"stim\">WIFE</p>", "key_press": -1, "type": "PRES_VIS", "word": "wife", "wordID": 1608, "conditions": [24, 800, "v", 12000], "trial": 7, "serialpos": 11, "trial_type": "single-stim", "trial_index": 240, "time_elapsed": 1111337, "internal_node_id": "0.0-168.0"}}, {"uniqueid": "MTK0804:3GDTJDAPVVIJ17XMT7ZHN7X0OQ5M88", "current_trial": 241, "dateTime": 1512759510522, "trialdata": {"rt": -1, "stimulus": "<p id=\"stim\">DOLPHIN</p>", "key_press": -1, "type": "PRES_VIS", "word": "dolphin", "wordID": 482, "conditions": [24, 800, "v", 12000], "trial": 7, "serialpos": 12, "trial_type": "single-stim", "trial_index": 241, "time_elapsed": 1112973, "internal_node_id": "0.0-169.0"}}, {"uniqueid": "MTK0804:3GDTJDAPVVIJ17XMT7ZHN7X0OQ5M88", "current_trial": 242, "dateTime": 1512759512220, "trialdata": {"rt": -1, "stimulus": "<p id=\"stim\">BUTCHER</p>", "key_press": -1, "type": "PRES_VIS", "word": "butcher", "wordID": 202, "conditions": [24, 800, "v", 12000], "trial": 7, "serialpos": 13, "trial_type": "single-stim", "trial_index": 242, "time_elapsed": 1114671, "internal_node_id": "0.0-170.0"}}, {"uniqueid": "MTK0804:3GDTJDAPVVIJ17XMT7ZHN7X0OQ5M88", "current_trial": 243, "dateTime": 1512759513904, "trialdata": {"rt": -1, "stimulus": "<p id=\"stim\">LASER</p>", "key_press": -1, "type": "PRES_VIS", "word": "laser", "wordID": 800, "conditions": [24, 800, "v", 12000], "trial": 7, "serialpos": 14, "trial_type": "single-stim", "trial_index": 243, "time_elapsed": 1116355, "internal_node_id": "0.0-171.0"}}, {"uniqueid": "MTK0804:3GDTJDAPVVIJ17XMT7ZHN7X0OQ5M88", "current_trial": 244, "dateTime": 1512759515634, "trialdata": {"rt": -1, "stimulus": "<p id=\"stim\">PENGUIN</p>", "key_press": -1, "type": "PRES_VIS", "word": "penguin", "wordID": 1043, "conditions": [24, 800, "v", 12000], "trial": 7, "serialpos": 15, "trial_type": "single-stim", "trial_index": 244, "time_elapsed": 1118085, "internal_node_id": "0.0-172.0"}}, {"uniqueid": "MTK0804:3GDTJDAPVVIJ17XMT7ZHN7X0OQ5M88", "current_trial": 245, "dateTime": 1512759517352, "trialdata": {"rt": -1, "stimulus": "<p id=\"stim\">DRINK</p>", "key_press": -1, "type": "PRES_VIS", "word": "drink", "wordID": 497, "conditions": [24, 800, "v", 12000], "trial": 7, "serialpos": 16, "trial_type": "single-stim", "trial_index": 245, "time_elapsed": 1119803, "internal_node_id": "0.0-173.0"}}, {"uniqueid": "MTK0804:3GDTJDAPVVIJ17XMT7ZHN7X0OQ5M88", "current_trial": 246, "dateTime": 1512759519334, "trialdata": {"rt": -1, "stimulus": "<p id=\"stim\">GRAPE</p>", "key_press": -1, "type": "PRES_VIS", "word": "grape", "wordID": 653, "conditions": [24, 800, "v", 12000], "trial": 7, "serialpos": 17, "trial_type": "single-stim", "trial_index": 246, "time_elapsed": 1121785, "internal_node_id": "0.0-174.0"}}, {"uniqueid": "MTK0804:3GDTJDAPVVIJ17XMT7ZHN7X0OQ5M88", "current_trial": 247, "dateTime": 1512759520999, "trialdata": {"rt": -1, "stimulus": "<p id=\"stim\">BOX</p>", "key_press": -1, "type": "PRES_VIS", "word": "box", "wordID": 158, "conditions": [24, 800, "v", 12000], "trial": 7, "serialpos": 18, "trial_type": "single-stim", "trial_index": 247, "time_elapsed": 1123450, "internal_node_id": "0.0-175.0"}}, {"uniqueid": "MTK0804:3GDTJDAPVVIJ17XMT7ZHN7X0OQ5M88", "current_trial": 248, "dateTime": 1512759522822, "trialdata": {"rt": -1, "stimulus": "<p id=\"stim\">HUSBAND</p>", "key_press": -1, "type": "PRES_VIS", "word": "husband", "wordID": 727, "conditions": [24, 800, "v", 12000], "trial": 7, "serialpos": 19, "trial_type": "single-stim", "trial_index": 248, "time_elapsed": 1125273, "internal_node_id": "0.0-176.0"}}, {"uniqueid": "MTK0804:3GDTJDAPVVIJ17XMT7ZHN7X0OQ5M88", "current_trial": 249, "dateTime": 1512759524791, "trialdata": {"rt": -1, "stimulus": "<p id=\"stim\">MAPLE</p>", "key_press": -1, "type": "PRES_VIS", "word": "maple", "wordID": 865, "conditions": [24, 800, "v", 12000], "trial": 7, "serialpos": 20, "trial_type": "single-stim", "trial_index": 249, "time_elapsed": 1127242, "internal_node_id": "0.0-177.0"}}, {"uniqueid": "MTK0804:3GDTJDAPVVIJ17XMT7ZHN7X0OQ5M88", "current_trial": 250, "dateTime": 1512759526521, "trialdata": {"rt": -1, "stimulus": "<p id=\"stim\">CANDY</p>", "key_press": -1, "type": "PRES_VIS", "word": "candy", "wordID": 229, "conditions": [24, 800, "v", 12000], "trial": 7, "serialpos": 21, "trial_type": "single-stim", "trial_index": 250, "time_elapsed": 1128972, "internal_node_id": "0.0-178.0"}}, {"uniqueid": "MTK0804:3GDTJDAPVVIJ17XMT7ZHN7X0OQ5M88", "current_trial": 251, "dateTime": 1512759528249, "trialdata": {"rt": -1, "stimulus": "<p id=\"stim\">SNACK</p>", "key_press": -1, "type": "PRES_VIS", "word": "snack", "wordID": 1330, "conditions": [24, 800, "v", 12000], "trial": 7, "serialpos": 22, "trial_type": "single-stim", "trial_index": 251, "time_elapsed": 1130700, "internal_node_id": "0.0-179.0"}}, {"uniqueid": "MTK0804:3GDTJDAPVVIJ17XMT7ZHN7X0OQ5M88", "current_trial": 252, "dateTime": 1512759530086, "trialdata": {"rt": -1, "stimulus": "<p id=\"stim\">SCALPEL</p>", "key_press": -1, "type": "PRES_VIS", "word": "scalpel", "wordID": 1242, "conditions": [24, 800, "v", 12000], "trial": 7, "serialpos": 23, "trial_type": "single-stim", "trial_index": 252, "time_elapsed": 1132537, "internal_node_id": "0.0-180.0"}}, {"uniqueid": "MTK0804:3GDTJDAPVVIJ17XMT7ZHN7X0OQ5M88", "current_trial": 253, "dateTime": 1512759532152, "trialdata": {"rt": -1, "stimulus": "", "key_press": -1, "type": "PRE_RECALL_DELAY", "trial_type": "single-stim", "trial_index": 253, "time_elapsed": 1134603, "internal_node_id": "0.0-181.0-0.0"}}, {"uniqueid": "MTK0804:3GDTJDAPVVIJ17XMT7ZHN7X0OQ5M88", "current_trial": 254, "dateTime": 1512759532653, "trialdata": {"rt": -1000, "stimulus": "/static/audio/400Hz.wav", "key_press": -1, "type": "PRE_RECALL_ALERT", "trial_type": "single-audio", "trial_index": 254, "time_elapsed": 1135104, "internal_node_id": "0.0-182.0"}}, {"uniqueid": "MTK0804:3GDTJDAPVVIJ17XMT7ZHN7X0OQ5M88", "current_trial": 255, "dateTime": 1512759592658, "trialdata": {"rt": [3694, 5805, 10482, 12517, 16707, 22017, 29803, 34658], "recwords": ["scalpel", "wife", "husband", "casket", "knife", "hatchet", "razor", "skunk"], "type": "FREE_RECALL", "conditions": [24, 800, "v", 12000], "trial": 7, "trial_type": "free-recall", "trial_index": 255, "time_elapsed": 1195106, "internal_node_id": "0.0-183.0-0.0"}}, {"uniqueid": "MTK0804:3GDTJDAPVVIJ17XMT7ZHN7X0OQ5M88", "current_trial": 256, "dateTime": 1512759596541, "trialdata": {"rt": 1881, "key_press": 32, "type": "INSTRUCTIONS", "trial_type": "text", "trial_index": 256, "time_elapsed": 1198992, "internal_node_id": "0.0-184.0"}}, {"uniqueid": "MTK0804:3GDTJDAPVVIJ17XMT7ZHN7X0OQ5M88", "current_trial": 257, "dateTime": 1512759610546, "trialdata": {"rt": [1897, 3816, 5484, 7526, 9259, 11182], "responses": ["17", "9", "16", "15", "15", "10"], "num1": [9, 5, 1, 6, 1, 3, 4], "num2": [6, 3, 8, 1, 5, 3, 4], "num3": [2, 2, 7, 8, 8, 4, 9], "type": "DISTRACTOR", "conditions": [24, 1600, "a", 12000], "trial": 8, "trial_type": "math-distractor", "trial_index": 257, "time_elapsed": 1212997, "internal_node_id": "0.0-185.0"}}, {"uniqueid": "MTK0804:3GDTJDAPVVIJ17XMT7ZHN7X0OQ5M88", "current_trial": 258, "dateTime": 1512759613548, "trialdata": {"rt": -1, "stimulus": "<p id=\"stim\">10</p>", "key_press": -1, "trial_type": "single-stim", "trial_index": 258, "time_elapsed": 1215999, "internal_node_id": "0.0-186.0-0.0"}}, {"uniqueid": "MTK0804:3GDTJDAPVVIJ17XMT7ZHN7X0OQ5M88", "current_trial": 259, "dateTime": 1512759614549, "trialdata": {"rt": -1, "stimulus": "<p id=\"stim\">9</p>", "key_press": -1, "trial_type": "single-stim", "trial_index": 259, "time_elapsed": 1217000, "internal_node_id": "0.0-186.0-1.0"}}, {"uniqueid": "MTK0804:3GDTJDAPVVIJ17XMT7ZHN7X0OQ5M88", "current_trial": 260, "dateTime": 1512759615550, "trialdata": {"rt": -1, "stimulus": "<p id=\"stim\">8</p>", "key_press": -1, "trial_type": "single-stim", "trial_index": 260, "time_elapsed": 1218001, "internal_node_id": "0.0-186.0-2.0"}}, {"uniqueid": "MTK0804:3GDTJDAPVVIJ17XMT7ZHN7X0OQ5M88", "current_trial": 261, "dateTime": 1512759616551, "trialdata": {"rt": -1, "stimulus": "<p id=\"stim\">7</p>", "key_press": -1, "trial_type": "single-stim", "trial_index": 261, "time_elapsed": 1219002, "internal_node_id": "0.0-186.0-3.0"}}, {"uniqueid": "MTK0804:3GDTJDAPVVIJ17XMT7ZHN7X0OQ5M88", "current_trial": 262, "dateTime": 1512759617552, "trialdata": {"rt": -1, "stimulus": "<p id=\"stim\">6</p>", "key_press": -1, "trial_type": "single-stim", "trial_index": 262, "time_elapsed": 1220003, "internal_node_id": "0.0-186.0-4.0"}}, {"uniqueid": "MTK0804:3GDTJDAPVVIJ17XMT7ZHN7X0OQ5M88", "current_trial": 263, "dateTime": 1512759618554, "trialdata": {"rt": -1, "stimulus": "<p id=\"stim\">5</p>", "key_press": -1, "trial_type": "single-stim", "trial_index": 263, "time_elapsed": 1221005, "internal_node_id": "0.0-186.0-5.0"}}, {"uniqueid": "MTK0804:3GDTJDAPVVIJ17XMT7ZHN7X0OQ5M88", "current_trial": 264, "dateTime": 1512759619555, "trialdata": {"rt": -1, "stimulus": "<p id=\"stim\">4</p>", "key_press": -1, "trial_type": "single-stim", "trial_index": 264, "time_elapsed": 1222006, "internal_node_id": "0.0-186.0-6.0"}}, {"uniqueid": "MTK0804:3GDTJDAPVVIJ17XMT7ZHN7X0OQ5M88", "current_trial": 265, "dateTime": 1512759620556, "trialdata": {"rt": -1, "stimulus": "<p id=\"stim\">3</p>", "key_press": -1, "trial_type": "single-stim", "trial_index": 265, "time_elapsed": 1223007, "internal_node_id": "0.0-186.0-7.0"}}, {"uniqueid": "MTK0804:3GDTJDAPVVIJ17XMT7ZHN7X0OQ5M88", "current_trial": 266, "dateTime": 1512759621557, "trialdata": {"rt": -1, "stimulus": "<p id=\"stim\">2</p>", "key_press": -1, "trial_type": "single-stim", "trial_index": 266, "time_elapsed": 1224008, "internal_node_id": "0.0-186.0-8.0"}}, {"uniqueid": "MTK0804:3GDTJDAPVVIJ17XMT7ZHN7X0OQ5M88", "current_trial": 267, "dateTime": 1512759622558, "trialdata": {"rt": -1, "stimulus": "<p id=\"stim\">1</p>", "key_press": -1, "trial_type": "single-stim", "trial_index": 267, "time_elapsed": 1225009, "internal_node_id": "0.0-186.0-9.0"}}, {"uniqueid": "MTK0804:3GDTJDAPVVIJ17XMT7ZHN7X0OQ5M88", "current_trial": 268, "dateTime": 1512759624059, "trialdata": {"rt": -1, "stimulus": "<p id=\"stim\">+</p>", "key_press": -1, "type": "FIXATION", "trial_type": "single-stim", "trial_index": 268, "time_elapsed": 1226510, "internal_node_id": "0.0-187.0-0.0"}}, {"uniqueid": "MTK0804:3GDTJDAPVVIJ17XMT7ZHN7X0OQ5M88", "current_trial": 269, "dateTime": 1512759626514, "trialdata": {"rt": -1000, "stimulus": "/static/audio/wordpool/FLESH.wav", "key_press": -1, "type": "PRES_AUD", "word": "flesh", "wordID": 578, "conditions": [24, 1600, "a", 12000], "trial": 8, "serialpos": 0, "trial_type": "single-audio", "trial_index": 269, "time_elapsed": 1228965, "internal_node_id": "0.0-188.0"}}, {"uniqueid": "MTK0804:3GDTJDAPVVIJ17XMT7ZHN7X0OQ5M88", "current_trial": 270, "dateTime": 1512759629009, "trialdata": {"rt": -1000, "stimulus": "/static/audio/wordpool/PADDING.wav", "key_press": -1, "type": "PRES_AUD", "word": "padding", "wordID": 998, "conditions": [24, 1600, "a", 12000], "trial": 8, "serialpos": 1, "trial_type": "single-audio", "trial_index": 270, "time_elapsed": 1231460, "internal_node_id": "0.0-189.0"}}, {"uniqueid": "MTK0804:3GDTJDAPVVIJ17XMT7ZHN7X0OQ5M88", "current_trial": 271, "dateTime": 1512759631696, "trialdata": {"rt": -1000, "stimulus": "/static/audio/wordpool/GLASS.wav", "key_press": -1, "type": "PRES_AUD", "word": "glass", "wordID": 638, "conditions": [24, 1600, "a", 12000], "trial": 8, "serialpos": 2, "trial_type": "single-audio", "trial_index": 271, "time_elapsed": 1234146, "internal_node_id": "0.0-190.0"}}, {"uniqueid": "MTK0804:3GDTJDAPVVIJ17XMT7ZHN7X0OQ5M88", "current_trial": 272, "dateTime": 1512759634374, "trialdata": {"rt": -1000, "stimulus": "/static/audio/wordpool/WASHER.wav", "key_press": -1, "type": "PRES_AUD", "word": "washer", "wordID": 1591, "conditions": [24, 1600, "a", 12000], "trial": 8, "serialpos": 3, "trial_type": "single-audio", "trial_index": 272, "time_elapsed": 1236825, "internal_node_id": "0.0-191.0"}}, {"uniqueid": "MTK0804:3GDTJDAPVVIJ17XMT7ZHN7X0OQ5M88", "current_trial": 273, "dateTime": 1512759636820, "trialdata": {"rt": -1000, "stimulus": "/static/audio/wordpool/BEEF.wav", "key_press": -1, "type": "PRES_AUD", "word": "beef", "wordID": 112, "conditions": [24, 1600, "a", 12000], "trial": 8, "serialpos": 4, "trial_type": "single-audio", "trial_index": 273, "time_elapsed": 1239271, "internal_node_id": "0.0-192.0"}}, {"uniqueid": "MTK0804:3GDTJDAPVVIJ17XMT7ZHN7X0OQ5M88", "current_trial": 274, "dateTime": 1512759639573, "trialdata": {"rt": -1000, "stimulus": "/static/audio/wordpool/LUGGAGE.wav", "key_press": -1, "type": "PRES_AUD", "word": "luggage", "wordID": 846, "conditions": [24, 1600, "a", 12000], "trial": 8, "serialpos": 5, "trial_type": "single-audio", "trial_index": 274, "time_elapsed": 1242024, "internal_node_id": "0.0-193.0"}}, {"uniqueid": "MTK0804:3GDTJDAPVVIJ17XMT7ZHN7X0OQ5M88", "current_trial": 275, "dateTime": 1512759642017, "trialdata": {"rt": -1000, "stimulus": "/static/audio/wordpool/PLAYGROUND.wav", "key_press": -1, "type": "PRES_AUD", "word": "playground", "wordID": 1086, "conditions": [24, 1600, "a", 12000], "trial": 8, "serialpos": 6, "trial_type": "single-audio", "trial_index": 275, "time_elapsed": 1244468, "internal_node_id": "0.0-194.0"}}, {"uniqueid": "MTK0804:3GDTJDAPVVIJ17XMT7ZHN7X0OQ5M88", "current_trial": 276, "dateTime": 1512759644670, "trialdata": {"rt": -1000, "stimulus": "/static/audio/wordpool/HEADBAND.wav", "key_press": -1, "type": "PRES_AUD", "word": "headband",