{"condition": 0, "counterbalance": 484, "assignmentId": "369J354OFEHW5JICPP4OQOHCKEH6GK", "workerId": "MTK0429", "hitId": "30IRMPJWDZQS64ELH2NZAR4H9QRRKC", "currenttrial": 629, "bonus": 0, "data": [{"uniqueid": "MTK0429:369J354OFEHW5JICPP4OQOHCKEH6GK", "current_trial": 0, "dateTime": 1510867662029, "trialdata": {"rt": 1535, "key_press": 32, "type": "INSTRUCTIONS", "trial_type": "text", "trial_index": 0, "time_elapsed": 1537, "internal_node_id": "0.0-0.0"}}, {"uniqueid": "MTK0429:369J354OFEHW5JICPP4OQOHCKEH6GK", "current_trial": 1, "dateTime": 1510867669531, "trialdata": {"rt": 7501, "key_press": 32, "type": "INSTRUCTIONS", "trial_type": "text", "trial_index": 1, "time_elapsed": 9040, "internal_node_id": "0.0-1.0"}}, {"uniqueid": "MTK0429:369J354OFEHW5JICPP4OQOHCKEH6GK", "current_trial": 2, "dateTime": 1510867676316, "trialdata": {"rt": [6774], "responses": ["ocean"], "type": "AUDIO_TEST", "trial_type": "audio-test", "trial_index": 2, "time_elapsed": 15825, "internal_node_id": "0.0-2.0"}}, {"uniqueid": "MTK0429:369J354OFEHW5JICPP4OQOHCKEH6GK", "current_trial": 3, "dateTime": 1510867680764, "trialdata": {"rt": [4444], "responses": ["crystal"], "type": "AUDIO_TEST", "trial_type": "audio-test", "trial_index": 3, "time_elapsed": 20273, "internal_node_id": "0.0-3.0"}}, {"uniqueid": "MTK0429:369J354OFEHW5JICPP4OQOHCKEH6GK", "current_trial": 4, "dateTime": 1510867686724, "trialdata": {"rt": [5957], "responses": ["spice"], "type": "AUDIO_TEST", "trial_type": "audio-test", "trial_index": 4, "time_elapsed": 26233, "internal_node_id": "0.0-4.0"}}, {"uniqueid": "MTK0429:369J354OFEHW5JICPP4OQOHCKEH6GK", "current_trial": 5, "dateTime": 1510867694980, "trialdata": {"rt": 7500, "responses": "{\"Q0\":\"9:30\",\"Q1\":\"5:30\",\"Q2\":\"5\"}", "type": "SLEEP_SURVEY", "trial_type": "survey-text", "trial_index": 5, "time_elapsed": 34489, "internal_node_id": "0.0-5.0"}}, {"uniqueid": "MTK0429:369J354OFEHW5JICPP4OQOHCKEH6GK", "current_trial": 6, "dateTime": 1510867703644, "trialdata": {"rt": 7660, "key_press": 13, "type": "INSTRUCTIONS", "trial_type": "text", "trial_index": 6, "time_elapsed": 43153, "internal_node_id": "0.0-6.0"}}, {"uniqueid": "MTK0429:369J354OFEHW5JICPP4OQOHCKEH6GK", "current_trial": 7, "dateTime": 1510867720836, "trialdata": {"rt": 16688, "key_press": 13, "type": "INSTRUCTIONS", "trial_type": "text", "trial_index": 7, "time_elapsed": 60344, "internal_node_id": "0.0-7.0"}}, {"uniqueid": "MTK0429:369J354OFEHW5JICPP4OQOHCKEH6GK", "current_trial": 8, "dateTime": 1510867727227, "trialdata": {"rt": 5889, "key_press": 32, "type": "INSTRUCTIONS", "trial_type": "text", "trial_index": 8, "time_elapsed": 66736, "internal_node_id": "0.0-8.0"}}, {"uniqueid": "MTK0429:369J354OFEHW5JICPP4OQOHCKEH6GK", "current_trial": 9, "dateTime": 1510867746241, "trialdata": {"rt": [3391, 5015, 7040, 8614, 10871, 12767, 14335, 17239], "responses": ["17", "15", "13", "14", "18", "23", "10", "17"], "num1": [8, 9, 9, 6, 3, 9, 5, 9, 3], "num2": [4, 5, 3, 5, 7, 5, 4, 5, 9], "num3": [5, 1, 1, 4, 8, 9, 1, 3, 9], "type": "DISTRACTOR", "conditions": [18, 1200, "v", 18000], "trial": 0, "trial_type": "math-distractor", "trial_index": 9, "time_elapsed": 85750, "internal_node_id": "0.0-9.0"}}, {"uniqueid": "MTK0429:369J354OFEHW5JICPP4OQOHCKEH6GK", "current_trial": 10, "dateTime": 1510867749250, "trialdata": {"rt": -1, "stimulus": "<p id=\"stim\">10</p>", "key_press": -1, "trial_type": "single-stim", "trial_index": 10, "time_elapsed": 88759, "internal_node_id": "0.0-10.0-0.0"}}, {"uniqueid": "MTK0429:369J354OFEHW5JICPP4OQOHCKEH6GK", "current_trial": 11, "dateTime": 1510867750254, "trialdata": {"rt": -1, "stimulus": "<p id=\"stim\">9</p>", "key_press": -1, "trial_type": "single-stim", "trial_index": 11, "time_elapsed": 89763, "internal_node_id": "0.0-10.0-1.0"}}, {"uniqueid": "MTK0429:369J354OFEHW5JICPP4OQOHCKEH6GK", "current_trial": 12, "dateTime": 1510867751257, "trialdata": {"rt": -1, "stimulus": "<p id=\"stim\">8</p>", "key_press": -1, "trial_type": "single-stim", "trial_index": 12, "time_elapsed": 90766, "internal_node_id": "0.0-10.0-2.0"}}, {"uniqueid": "MTK0429:369J354OFEHW5JICPP4OQOHCKEH6GK", "current_trial": 13, "dateTime": 1510867752262, "trialdata": {"rt": -1, "stimulus": "<p id=\"stim\">7</p>", "key_press": -1, "trial_type": "single-stim", "trial_index": 13, "time_elapsed": 91771, "internal_node_id": "0.0-10.0-3.0"}}, {"uniqueid": "MTK0429:369J354OFEHW5JICPP4OQOHCKEH6GK", "current_trial": 14, "dateTime": 1510867753266, "trialdata": {"rt": -1, "stimulus": "<p id=\"stim\">6</p>", "key_press": -1, "trial_type": "single-stim", "trial_index": 14, "time_elapsed": 92775, "internal_node_id": "0.0-10.0-4.0"}}, {"uniqueid": "MTK0429:369J354OFEHW5JICPP4OQOHCKEH6GK", "current_trial": 15, "dateTime": 1510867754270, "trialdata": {"rt": -1, "stimulus": "<p id=\"stim\">5</p>", "key_press": -1, "trial_type": "single-stim", "trial_index": 15, "time_elapsed": 93779, "internal_node_id": "0.0-10.0-5.0"}}, {"uniqueid": "MTK0429:369J354OFEHW5JICPP4OQOHCKEH6GK", "current_trial": 16, "dateTime": 1510867755275, "trialdata": {"rt": -1, "stimulus": "<p id=\"stim\">4</p>", "key_press": -1, "trial_type": "single-stim", "trial_index": 16, "time_elapsed": 94784, "internal_node_id": "0.0-10.0-6.0"}}, {"uniqueid": "MTK0429:369J354OFEHW5JICPP4OQOHCKEH6GK", "current_trial": 17, "dateTime": 1510867756279, "trialdata": {"rt": -1, "stimulus": "<p id=\"stim\">3</p>", "key_press": -1, "trial_type": "single-stim", "trial_index": 17, "time_elapsed": 95788, "internal_node_id": "0.0-10.0-7.0"}}, {"uniqueid": "MTK0429:369J354OFEHW5JICPP4OQOHCKEH6GK", "current_trial": 18, "dateTime": 1510867757283, "trialdata": {"rt": -1, "stimulus": "<p id=\"stim\">2</p>", "key_press": -1, "trial_type": "single-stim", "trial_index": 18, "time_elapsed": 96792, "internal_node_id": "0.0-10.0-8.0"}}, {"uniqueid": "MTK0429:369J354OFEHW5JICPP4OQOHCKEH6GK", "current_trial": 19, "dateTime": 1510867758289, "trialdata": {"rt": -1, "stimulus": "<p id=\"stim\">1</p>", "key_press": -1, "trial_type": "single-stim", "trial_index": 19, "time_elapsed": 97798, "internal_node_id": "0.0-10.0-9.0"}}, {"uniqueid": "MTK0429:369J354OFEHW5JICPP4OQOHCKEH6GK", "current_trial": 20, "dateTime": 1510867759792, "trialdata": {"rt": -1, "stimulus": "<p id=\"stim\">+</p>", "key_press": -1, "type": "FIXATION", "trial_type": "single-stim", "trial_index": 20, "time_elapsed": 99301, "internal_node_id": "0.0-11.0-0.0"}}, {"uniqueid": "MTK0429:369J354OFEHW5JICPP4OQOHCKEH6GK", "current_trial": 21, "dateTime": 1510867760997, "trialdata": {"rt": -1, "stimulus": "<p id=\"stim\">SCARECROW</p>", "key_press": -1, "type": "PRES_VIS", "word": "scarecrow", "wordID": 1244, "conditions": [18, 1200, "v", 18000], "trial": 0, "serialpos": 0, "trial_type": "single-stim", "trial_index": 21, "time_elapsed": 100506, "internal_node_id": "0.0-12.0"}}, {"uniqueid": "MTK0429:369J354OFEHW5JICPP4OQOHCKEH6GK", "current_trial": 22, "dateTime": 1510867763284, "trialdata": {"rt": -1, "stimulus": "<p id=\"stim\">CHIPMUNK</p>", "key_press": -1, "type": "PRES_VIS", "word": "chipmunk", "wordID": 303, "conditions": [18, 1200, "v", 18000], "trial": 0, "serialpos": 1, "trial_type": "single-stim", "trial_index": 22, "time_elapsed": 102793, "internal_node_id": "0.0-13.0"}}, {"uniqueid": "MTK0429:369J354OFEHW5JICPP4OQOHCKEH6GK", "current_trial": 23, "dateTime": 1510867765321, "trialdata": {"rt": -1, "stimulus": "<p id=\"stim\">DRESS</p>", "key_press": -1, "type": "PRES_VIS", "word": "dress", "wordID": 494, "conditions": [18, 1200, "v", 18000], "trial": 0, "serialpos": 2, "trial_type": "single-stim", "trial_index": 23, "time_elapsed": 104830, "internal_node_id": "0.0-14.0"}}, {"uniqueid": "MTK0429:369J354OFEHW5JICPP4OQOHCKEH6GK", "current_trial": 24, "dateTime": 1510867767439, "trialdata": {"rt": -1, "stimulus": "<p id=\"stim\">WRENCH</p>", "key_press": -1, "type": "PRES_VIS", "word": "wrench", "wordID": 1624, "conditions": [18, 1200, "v", 18000], "trial": 0, "serialpos": 3, "trial_type": "single-stim", "trial_index": 24, "time_elapsed": 106948, "internal_node_id": "0.0-15.0"}}, {"uniqueid": "MTK0429:369J354OFEHW5JICPP4OQOHCKEH6GK", "current_trial": 25, "dateTime": 1510867769771, "trialdata": {"rt": -1, "stimulus": "<p id=\"stim\">ZEBRA</p>", "key_press": -1, "type": "PRES_VIS", "word": "zebra", "wordID": 1634, "conditions": [18, 1200, "v", 18000], "trial": 0, "serialpos": 4, "trial_type": "single-stim", "trial_index": 25, "time_elapsed": 109280, "internal_node_id": "0.0-16.0"}}, {"uniqueid": "MTK0429:369J354OFEHW5JICPP4OQOHCKEH6GK", "current_trial": 26, "dateTime": 1510867772059, "trialdata": {"rt": -1, "stimulus": "<p id=\"stim\">CLOUD</p>", "key_press": -1, "type": "PRES_VIS", "word": "cloud", "wordID": 327, "conditions": [18, 1200, "v", 18000], "trial": 0, "serialpos": 5, "trial_type": "single-stim", "trial_index": 26, "time_elapsed": 111568, "internal_node_id": "0.0-17.0"}}, {"uniqueid": "MTK0429:369J354OFEHW5JICPP4OQOHCKEH6GK", "current_trial": 27, "dateTime": 1510867774161, "trialdata": {"rt": -1, "stimulus": "<p id=\"stim\">TABLET</p>", "key_press": -1, "type": "PRES_VIS", "word": "tablet", "wordID": 1426, "conditions": [18, 1200, "v", 18000], "trial": 0, "serialpos": 6, "trial_type": "single-stim", "trial_index": 27, "time_elapsed": 113670, "internal_node_id": "0.0-18.0"}}, {"uniqueid": "MTK0429:369J354OFEHW5JICPP4OQOHCKEH6GK", "current_trial": 28, "dateTime": 1510867776340, "trialdata": {"rt": -1, "stimulus": "<p id=\"stim\">LILY</p>", "key_press": -1, "type": "PRES_VIS", "word": "lily", "wordID": 820, "conditions": [18, 1200, "v", 18000], "trial": 0, "serialpos": 7, "trial_type": "single-stim", "trial_index": 28, "time_elapsed": 115849, "internal_node_id": "0.0-19.0"}}, {"uniqueid": "MTK0429:369J354OFEHW5JICPP4OQOHCKEH6GK", "current_trial": 29, "dateTime": 1510867778404, "trialdata": {"rt": -1, "stimulus": "<p id=\"stim\">BASEMENT</p>", "key_press": -1, "type": "PRES_VIS", "word": "basement", "wordID": 93, "conditions": [18, 1200, "v", 18000], "trial": 0, "serialpos": 8, "trial_type": "single-stim", "trial_index": 29, "time_elapsed": 117912, "internal_node_id": "0.0-20.0"}}, {"uniqueid": "MTK0429:369J354OFEHW5JICPP4OQOHCKEH6GK", "current_trial": 30, "dateTime": 1510867780516, "trialdata": {"rt": -1, "stimulus": "<p id=\"stim\">HAWK</p>", "key_press": -1, "type": "PRES_VIS", "word": "hawk", "wordID": 691, "conditions": [18, 1200, "v", 18000], "trial": 0, "serialpos": 9, "trial_type": "single-stim", "trial_index": 30, "time_elapsed": 120025, "internal_node_id": "0.0-21.0"}}, {"uniqueid": "MTK0429:369J354OFEHW5JICPP4OQOHCKEH6GK", "current_trial": 31, "dateTime": 1510867782636, "trialdata": {"rt": -1, "stimulus": "<p id=\"stim\">DUST</p>", "key_press": -1, "type": "PRES_VIS", "word": "dust", "wordID": 507, "conditions": [18, 1200, "v", 18000], "trial": 0, "serialpos": 10, "trial_type": "single-stim", "trial_index": 31, "time_elapsed": 122145, "internal_node_id": "0.0-22.0"}}, {"uniqueid": "MTK0429:369J354OFEHW5JICPP4OQOHCKEH6GK", "current_trial": 32, "dateTime": 1510867784933, "trialdata": {"rt": -1, "stimulus": "<p id=\"stim\">FOREHEAD</p>", "key_press": -1, "type": "PRES_VIS", "word": "forehead", "wordID": 591, "conditions": [18, 1200, "v", 18000], "trial": 0, "serialpos": 11, "trial_type": "single-stim", "trial_index": 32, "time_elapsed": 124442, "internal_node_id": "0.0-23.0"}}, {"uniqueid": "MTK0429:369J354OFEHW5JICPP4OQOHCKEH6GK", "current_trial": 33, "dateTime": 1510867787235, "trialdata": {"rt": -1, "stimulus": "<p id=\"stim\">PECAN</p>", "key_press": -1, "type": "PRES_VIS", "word": "pecan", "wordID": 1035, "conditions": [18, 1200, "v", 18000], "trial": 0, "serialpos": 12, "trial_type": "single-stim", "trial_index": 33, "time_elapsed": 126743, "internal_node_id": "0.0-24.0"}}, {"uniqueid": "MTK0429:369J354OFEHW5JICPP4OQOHCKEH6GK", "current_trial": 34, "dateTime": 1510867789507, "trialdata": {"rt": -1, "stimulus": "<p id=\"stim\">OUTLAW</p>", "key_press": -1, "type": "PRES_VIS", "word": "outlaw", "wordID": 988, "conditions": [18, 1200, "v", 18000], "trial": 0, "serialpos": 13, "trial_type": "single-stim", "trial_index": 34, "time_elapsed": 129015, "internal_node_id": "0.0-25.0"}}, {"uniqueid": "MTK0429:369J354OFEHW5JICPP4OQOHCKEH6GK", "current_trial": 35, "dateTime": 1510867791834, "trialdata": {"rt": -1, "stimulus": "<p id=\"stim\">MASK</p>", "key_press": -1, "type": "PRES_VIS", "word": "mask", "wordID": 875, "conditions": [18, 1200, "v", 18000], "trial": 0, "serialpos": 14, "trial_type": "single-stim", "trial_index": 35, "time_elapsed": 131343, "internal_node_id": "0.0-26.0"}}, {"uniqueid": "MTK0429:369J354OFEHW5JICPP4OQOHCKEH6GK", "current_trial": 36, "dateTime": 1510867793853, "trialdata": {"rt": -1, "stimulus": "<p id=\"stim\">BACON</p>", "key_press": -1, "type": "PRES_VIS", "word": "bacon", "wordID": 66, "conditions": [18, 1200, "v", 18000], "trial": 0, "serialpos": 15, "trial_type": "single-stim", "trial_index": 36, "time_elapsed": 133362, "internal_node_id": "0.0-27.0"}}, {"uniqueid": "MTK0429:369J354OFEHW5JICPP4OQOHCKEH6GK", "current_trial": 37, "dateTime": 1510867795897, "trialdata": {"rt": -1, "stimulus": "<p id=\"stim\">VAGRANT</p>", "key_press": -1, "type": "PRES_VIS", "word": "vagrant", "wordID": 1543, "conditions": [18, 1200, "v", 18000], "trial": 0, "serialpos": 16, "trial_type": "single-stim", "trial_index": 37, "time_elapsed": 135406, "internal_node_id": "0.0-28.0"}}, {"uniqueid": "MTK0429:369J354OFEHW5JICPP4OQOHCKEH6GK", "current_trial": 38, "dateTime": 1510867797980, "trialdata": {"rt": -1, "stimulus": "<p id=\"stim\">HAND</p>", "key_press": -1, "type": "PRES_VIS", "word": "hand", "wordID": 682, "conditions": [18, 1200, "v", 18000], "trial": 0, "serialpos": 17, "trial_type": "single-stim", "trial_index": 38, "time_elapsed": 137489, "internal_node_id": "0.0-29.0"}}, {"uniqueid": "MTK0429:369J354OFEHW5JICPP4OQOHCKEH6GK", "current_trial": 39, "dateTime": 1510867800430, "trialdata": {"rt": -1, "stimulus": "", "key_press": -1, "type": "PRE_RECALL_DELAY", "trial_type": "single-stim", "trial_index": 39, "time_elapsed": 139938, "internal_node_id": "0.0-30.0-0.0"}}, {"uniqueid": "MTK0429:369J354OFEHW5JICPP4OQOHCKEH6GK", "current_trial": 40, "dateTime": 1510867800933, "trialdata": {"rt": -1000, "stimulus": "/static/audio/400Hz.wav", "key_press": -1, "type": "PRE_RECALL_ALERT", "trial_type": "single-audio", "trial_index": 40, "time_elapsed": 140442, "internal_node_id": "0.0-31.0"}}, {"uniqueid": "MTK0429:369J354OFEHW5JICPP4OQOHCKEH6GK", "current_trial": 41, "dateTime": 1510867860938, "trialdata": {"rt": [3827, 5501, 6220, 7289, 10628, 14420, 17028, 24564, 26220, 27228, 31100, 38403, 41180, 45644, 46628, 48172], "recwords": ["vagrant", "scarecrow", "hand", "tablet", "cloud", "dress", "scarecrow", "dress", "vagrant", "cloud", "ocean", "pad", "notebook", "tablet", "dress", "vagrant"], "type": "FREE_RECALL", "conditions": [18, 1200, "v", 18000], "trial": 0, "trial_type": "free-recall", "trial_index": 41, "time_elapsed": 200445, "internal_node_id": "0.0-32.0-0.0"}}, {"uniqueid": "MTK0429:369J354OFEHW5JICPP4OQOHCKEH6GK", "current_trial": 42, "dateTime": 1510867865307, "trialdata": {"rt": 2367, "key_press": 13, "type": "INSTRUCTIONS", "trial_type": "text", "trial_index": 42, "time_elapsed": 204816, "internal_node_id": "0.0-33.0"}}, {"uniqueid": "MTK0429:369J354OFEHW5JICPP4OQOHCKEH6GK", "current_trial": 43, "dateTime": 1510867885313, "trialdata": {"rt": [2701, 4541, 6045, 7789, 9333, 10935, 12500, 14301, 16013, 17692], "responses": ["16", "13", "10", "21", "11", "13", "16", "15", "13", "20"], "num1": [4, 3, 3, 7, 1, 3, 9, 8, 6, 5, 4], "num2": [4, 7, 5, 6, 3, 2, 4, 3, 1, 9, 1], "num3": [8, 3, 2, 8, 7, 8, 3, 4, 6, 6, 5], "type": "DISTRACTOR", "conditions": [18, 1200, "a", 18000], "trial": 1, "trial_type": "math-distractor", "trial_index": 43, "time_elapsed": 224822, "internal_node_id": "0.0-34.0"}}, {"uniqueid": "MTK0429:369J354OFEHW5JICPP4OQOHCKEH6GK", "current_trial": 44, "dateTime": 1510867888319, "trialdata": {"rt": -1, "stimulus": "<p id=\"stim\">10</p>", "key_press": -1, "trial_type": "single-stim", "trial_index": 44, "time_elapsed": 227828, "internal_node_id": "0.0-35.0-0.0"}}, {"uniqueid": "MTK0429:369J354OFEHW5JICPP4OQOHCKEH6GK", "current_trial": 45, "dateTime": 1510867889323, "trialdata": {"rt": -1, "stimulus": "<p id=\"stim\">9</p>", "key_press": -1, "trial_type": "single-stim", "trial_index": 45, "time_elapsed": 228832, "internal_node_id": "0.0-35.0-1.0"}}, {"uniqueid": "MTK0429:369J354OFEHW5JICPP4OQOHCKEH6GK", "current_trial": 46, "dateTime": 1510867890327, "trialdata": {"rt": -1, "stimulus": "<p id=\"stim\">8</p>", "key_press": -1, "trial_type": "single-stim", "trial_index": 46, "time_elapsed": 229836, "internal_node_id": "0.0-35.0-2.0"}}, {"uniqueid": "MTK0429:369J354OFEHW5JICPP4OQOHCKEH6GK", "current_trial": 47, "dateTime": 1510867891331, "trialdata": {"rt": -1, "stimulus": "<p id=\"stim\">7</p>", "key_press": -1, "trial_type": "single-stim", "trial_index": 47, "time_elapsed": 230840, "internal_node_id": "0.0-35.0-3.0"}}, {"uniqueid": "MTK0429:369J354OFEHW5JICPP4OQOHCKEH6GK", "current_trial": 48, "dateTime": 1510867892335, "trialdata": {"rt": -1, "stimulus": "<p id=\"stim\">6</p>", "key_press": -1, "trial_type": "single-stim", "trial_index": 48, "time_elapsed": 231844, "internal_node_id": "0.0-35.0-4.0"}}, {"uniqueid": "MTK0429:369J354OFEHW5JICPP4OQOHCKEH6GK", "current_trial": 49, "dateTime": 1510867893340, "trialdata": {"rt": -1, "stimulus": "<p id=\"stim\">5</p>", "key_press": -1, "trial_type": "single-stim", "trial_index": 49, "time_elapsed": 232849, "internal_node_id": "0.0-35.0-5.0"}}, {"uniqueid": "MTK0429:369J354OFEHW5JICPP4OQOHCKEH6GK", "current_trial": 50, "dateTime": 1510867894343, "trialdata": {"rt": -1, "stimulus": "<p id=\"stim\">4</p>", "key_press": -1, "trial_type": "single-stim", "trial_index": 50, "time_elapsed": 233852, "internal_node_id": "0.0-35.0-6.0"}}, {"uniqueid": "MTK0429:369J354OFEHW5JICPP4OQOHCKEH6GK", "current_trial": 51, "dateTime": 1510867895347, "trialdata": {"rt": -1, "stimulus": "<p id=\"stim\">3</p>", "key_press": -1, "trial_type": "single-stim", "trial_index": 51, "time_elapsed": 234856, "internal_node_id": "0.0-35.0-7.0"}}, {"uniqueid": "MTK0429:369J354OFEHW5JICPP4OQOHCKEH6GK", "current_trial": 52, "dateTime": 1510867896352, "trialdata": {"rt": -1, "stimulus": "<p id=\"stim\">2</p>", "key_press": -1, "trial_type": "single-stim", "trial_index": 52, "time_elapsed": 235860, "internal_node_id": "0.0-35.0-8.0"}}, {"uniqueid": "MTK0429:369J354OFEHW5JICPP4OQOHCKEH6GK", "current_trial": 53, "dateTime": 1510867897356, "trialdata": {"rt": -1, "stimulus": "<p id=\"stim\">1</p>", "key_press": -1, "trial_type": "single-stim", "trial_index": 53, "time_elapsed": 236865, "internal_node_id": "0.0-35.0-9.0"}}, {"uniqueid": "MTK0429:369J354OFEHW5JICPP4OQOHCKEH6GK", "current_trial": 54, "dateTime": 1510867898860, "trialdata": {"rt": -1, "stimulus": "<p id=\"stim\">+</p>", "key_press": -1, "type": "FIXATION", "trial_type": "single-stim", "trial_index": 54, "time_elapsed": 238369, "internal_node_id": "0.0-36.0-0.0"}}, {"uniqueid": "MTK0429:369J354OFEHW5JICPP4OQOHCKEH6GK", "current_trial": 55, "dateTime": 1510867900890, "trialdata": {"rt": -1000, "stimulus": "/static/audio/wordpool/SHELTER.wav", "key_press": -1, "type": "PRES_AUD", "word": "shelter", "wordID": 1281, "conditions": [18, 1200, "a", 18000], "trial": 1, "serialpos": 0, "trial_type": "single-audio", "trial_index": 55, "time_elapsed": 240399, "internal_node_id": "0.0-37.0"}}, {"uniqueid": "MTK0429:369J354OFEHW5JICPP4OQOHCKEH6GK", "current_trial": 56, "dateTime": 1510867902993, "trialdata": {"rt": -1000, "stimulus": "/static/audio/wordpool/BANKER.wav", "key_press": -1, "type": "PRES_AUD", "word": "banker", "wordID": 83, "conditions": [18, 1200, "a", 18000], "trial": 1, "serialpos": 1, "trial_type": "single-audio", "trial_index": 56, "time_elapsed": 242502, "internal_node_id": "0.0-38.0"}}, {"uniqueid": "MTK0429:369J354OFEHW5JICPP4OQOHCKEH6GK", "current_trial": 57, "dateTime": 1510867905024, "trialdata": {"rt": -1000, "stimulus": "/static/audio/wordpool/BLOUSE.wav", "key_press": -1, "type": "PRES_AUD", "word": "blouse", "wordID": 138, "conditions": [18, 1200, "a", 18000], "trial": 1, "serialpos": 2, "trial_type": "single-audio", "trial_index": 57, "time_elapsed": 244533, "internal_node_id": "0.0-39.0"}}, {"uniqueid": "MTK0429:369J354OFEHW5JICPP4OQOHCKEH6GK", "current_trial": 58, "dateTime": 1510867907204, "trialdata": {"rt": -1000, "stimulus": "/static/audio/wordpool/SWIMMER.wav", "key_press": -1, "type": "PRES_AUD", "word": "swimmer", "wordID": 1419, "conditions": [18, 1200, "a", 18000], "trial": 1, "serialpos": 3, "trial_type": "single-audio", "trial_index": 58, "time_elapsed": 246713, "internal_node_id": "0.0-40.0"}}, {"uniqueid": "MTK0429:369J354OFEHW5JICPP4OQOHCKEH6GK", "current_trial": 59, "dateTime": 1510867909413, "trialdata": {"rt": -1000, "stimulus": "/static/audio/wordpool/MONSTER.wav", "key_press": -1, "type": "PRES_AUD", "word": "monster", "wordID": 911, "conditions": [18, 1200, "a", 18000], "trial": 1, "serialpos": 4, "trial_type": "single-audio", "trial_index": 59, "time_elapsed": 248922, "internal_node_id": "0.0-41.0"}}, {"uniqueid": "MTK0429:369J354OFEHW5JICPP4OQOHCKEH6GK", "current_trial": 60, "dateTime": 1510867911625, "trialdata": {"rt": -1000, "stimulus": "/static/audio/wordpool/QUAIL.wav", "key_press": -1, "type": "PRES_AUD", "word": "quail", "wordID": 1146, "conditions": [18, 1200, "a", 18000], "trial": 1, "serialpos": 5, "trial_type": "single-audio", "trial_index": 60, "time_elapsed": 251134, "internal_node_id": "0.0-42.0"}}, {"uniqueid": "MTK0429:369J354OFEHW5JICPP4OQOHCKEH6GK", "current_trial": 61, "dateTime": 1510867913747, "trialdata": {"rt": -1000, "stimulus": "/static/audio/wordpool/BUCKET.wav", "key_press": -1, "type": "PRES_AUD", "word": "bucket", "wordID": 183, "conditions": [18, 1200, "a", 18000], "trial": 1, "serialpos": 6, "trial_type": "single-audio", "trial_index": 61, "time_elapsed": 253255, "internal_node_id": "0.0-43.0"}}, {"uniqueid": "MTK0429:369J354OFEHW5JICPP4OQOHCKEH6GK", "current_trial": 62, "dateTime": 1510867915964, "trialdata": {"rt": -1000, "stimulus": "/static/audio/wordpool/FRAME.wav", "key_press": -1, "type": "PRES_AUD", "word": "frame", "wordID": 599, "conditions": [18, 1200, "a", 18000], "trial": 1, "serialpos": 7, "trial_type": "single-audio", "trial_index": 62, "time_elapsed": 255473, "internal_node_id": "0.0-44.0"}}, {"uniqueid": "MTK0429:369J354OFEHW5JICPP4OQOHCKEH6GK", "current_trial": 63, "dateTime": 1510867918313, "trialdata": {"rt": -1000, "stimulus": "/static/audio/wordpool/LADY.wav", "key_press": -1, "type": "PRES_AUD", "word": "lady", "wordID": 793, "conditions": [18, 1200, "a", 18000], "trial": 1, "serialpos": 8, "trial_type": "single-audio", "trial_index": 63, "time_elapsed": 257822, "internal_node_id": "0.0-45.0"}}, {"uniqueid": "MTK0429:369J354OFEHW5JICPP4OQOHCKEH6GK", "current_trial": 64, "dateTime": 1510867920413, "trialdata": {"rt": -1000, "stimulus": "/static/audio/wordpool/SWAMP.wav", "key_press": -1, "type": "PRES_AUD", "word": "swamp", "wordID": 1415, "conditions": [18, 1200, "a", 18000], "trial": 1, "serialpos": 9, "trial_type": "single-audio", "trial_index": 64, "time_elapsed": 259922, "internal_node_id": "0.0-46.0"}}, {"uniqueid": "MTK0429:369J354OFEHW5JICPP4OQOHCKEH6GK", "current_trial": 65, "dateTime": 1510867922504, "trialdata": {"rt": -1000, "stimulus": "/static/audio/wordpool/MISSILE.wav", "key_press": -1, "type": "PRES_AUD", "word": "missile", "wordID": 899, "conditions": [18, 1200, "a", 18000], "trial": 1, "serialpos": 10, "trial_type": "single-audio", "trial_index": 65, "time_elapsed": 262013, "internal_node_id": "0.0-47.0"}}, {"uniqueid": "MTK0429:369J354OFEHW5JICPP4OQOHCKEH6GK", "current_trial": 66, "dateTime": 1510867924605, "trialdata": {"rt": -1000, "stimulus": "/static/audio/wordpool/KNAPSACK.wav", "key_press": -1, "type": "PRES_AUD", "word": "knapsack", "wordID": 782, "conditions": [18, 1200, "a", 18000], "trial": 1, "serialpos": 11, "trial_type": "single-audio", "trial_index": 66, "time_elapsed": 264114, "internal_node_id": "0.0-48.0"}}, {"uniqueid": "MTK0429:369J354OFEHW5JICPP4OQOHCKEH6GK", "current_trial": 67, "dateTime": 1510867926939, "trialdata": {"rt": -1000, "stimulus": "/static/audio/wordpool/DINER.wav", "key_press": -1, "type": "PRES_AUD", "word": "diner", "wordID": 466, "conditions": [18, 1200, "a", 18000], "trial": 1, "serialpos": 12, "trial_type": "single-audio", "trial_index": 67, "time_elapsed": 266448, "internal_node_id": "0.0-49.0"}}, {"uniqueid": "MTK0429:369J354OFEHW5JICPP4OQOHCKEH6GK", "current_trial": 68, "dateTime": 1510867929111, "trialdata": {"rt": -1000, "stimulus": "/static/audio/wordpool/SUNSET.wav", "key_press": -1, "type": "PRES_AUD", "word": "sunset", "wordID": 1407, "conditions": [18, 1200, "a", 18000], "trial": 1, "serialpos": 13, "trial_type": "single-audio", "trial_index": 68, "time_elapsed": 268618, "internal_node_id": "0.0-50.0"}}, {"uniqueid": "MTK0429:369J354OFEHW5JICPP4OQOHCKEH6GK", "current_trial": 69, "dateTime": 1510867931188, "trialdata": {"rt": -1000, "stimulus": "/static/audio/wordpool/POLICE.wav", "key_press": -1, "type": "PRES_AUD", "word": "police", "wordID": 1097, "conditions": [18, 1200, "a", 18000], "trial": 1, "serialpos": 14, "trial_type": "single-audio", "trial_index": 69, "time_elapsed": 270697, "internal_node_id": "0.0-51.0"}}, {"uniqueid": "MTK0429:369J354OFEHW5JICPP4OQOHCKEH6GK", "current_trial": 70, "dateTime": 1510867933283, "trialdata": {"rt": -1000, "stimulus": "/static/audio/wordpool/SCARF.wav", "key_press": -1, "type": "PRES_AUD", "word": "scarf", "wordID": 1245, "conditions": [18, 1200, "a", 18000], "trial": 1, "serialpos": 15, "trial_type": "single-audio", "trial_index": 70, "time_elapsed": 272792, "internal_node_id": "0.0-52.0"}}, {"uniqueid": "MTK0429:369J354OFEHW5JICPP4OQOHCKEH6GK", "current_trial": 71, "dateTime": 1510867935420, "trialdata": {"rt": -1000, "stimulus": "/static/audio/wordpool/MISTER.wav", "key_press": -1, "type": "PRES_AUD", "word": "mister", "wordID": 900, "conditions": [18, 1200, "a", 18000], "trial": 1, "serialpos": 16, "trial_type": "single-audio", "trial_index": 71, "time_elapsed": 274929, "internal_node_id": "0.0-53.0"}}, {"uniqueid": "MTK0429:369J354OFEHW5JICPP4OQOHCKEH6GK", "current_trial": 72, "dateTime": 1510867937788, "trialdata": {"rt": -1000, "stimulus": "/static/audio/wordpool/SALAD.wav", "key_press": -1, "type": "PRES_AUD", "word": "salad", "wordID": 1223, "conditions": [18, 1200, "a", 18000], "trial": 1, "serialpos": 17, "trial_type": "single-audio", "trial_index": 72, "time_elapsed": 277297, "internal_node_id": "0.0-54.0"}}, {"uniqueid": "MTK0429:369J354OFEHW5JICPP4OQOHCKEH6GK", "current_trial": 73, "dateTime": 1510867939128, "trialdata": {"rt": -1, "stimulus": "", "key_press": -1, "type": "PRE_RECALL_DELAY", "trial_type": "single-stim", "trial_index": 73, "time_elapsed": 278637, "internal_node_id": "0.0-55.0-0.0"}}, {"uniqueid": "MTK0429:369J354OFEHW5JICPP4OQOHCKEH6GK", "current_trial": 74, "dateTime": 1510867939629, "trialdata": {"rt": -1000, "stimulus": "/static/audio/400Hz.wav", "key_press": -1, "type": "PRE_RECALL_ALERT", "trial_type": "single-audio", "trial_index": 74, "time_elapsed": 279138, "internal_node_id": "0.0-56.0"}}, {"uniqueid": "MTK0429:369J354OFEHW5JICPP4OQOHCKEH6GK", "current_trial": 75, "dateTime": 1510867999632, "trialdata": {"rt": [3596, 4541, 5381, 6397, 9053, 12876, 14117], "recwords": ["diner", "scarf", "mister", "salad", "scarf", "tablet", "ocean"], "type": "FREE_RECALL", "conditions": [18, 1200, "a", 18000], "trial": 1, "trial_type": "free-recall", "trial_index": 75, "time_elapsed": 339140, "internal_node_id": "0.0-57.0-0.0"}}, {"uniqueid": "MTK0429:369J354OFEHW5JICPP4OQOHCKEH6GK", "current_trial": 76, "dateTime": 1510868005431, "trialdata": {"rt": 3795, "key_press": 13, "type": "INSTRUCTIONS", "trial_type": "text", "trial_index": 76, "time_elapsed": 344937, "internal_node_id": "0.0-58.0"}}, {"uniqueid": "MTK0429:369J354OFEHW5JICPP4OQOHCKEH6GK", "current_trial": 77, "dateTime": 1510868030438, "trialdata": {"rt": [4626, 6362, 7860, 9778, 11082, 13161, 14650, 16386, 18193, 20129, 21986, 23778], "responses": ["10", "10", "17", "20", "12", "11", "12", "22", "20", "20", "13", "15"], "num1": [4, 3, 9, 9, 4, 2, 1, 7, 8, 9, 8, 2, 3], "num2": [1, 4, 5, 4, 6, 4, 6, 9, 7, 5, 3, 6, 6], "num3": [5, 3, 3, 7, 2, 5, 5, 6, 5, 6, 2, 7, 1], "type": "DISTRACTOR", "conditions": [24, 800, "a", 24000], "trial": 2, "trial_type": "math-distractor", "trial_index": 77, "time_elapsed": 369947, "internal_node_id": "0.0-59.0"}}, {"uniqueid": "MTK0429:369J354OFEHW5JICPP4OQOHCKEH6GK", "current_trial": 78, "dateTime": 1510868033445, "trialdata": {"rt": -1, "stimulus": "<p id=\"stim\">10</p>", "key_press": -1, "trial_type": "single-stim", "trial_index": 78, "time_elapsed": 372954, "internal_node_id": "0.0-60.0-0.0"}}, {"uniqueid": "MTK0429:369J354OFEHW5JICPP4OQOHCKEH6GK", "current_trial": 79, "dateTime": 1510868034449, "trialdata": {"rt": -1, "stimulus": "<p id=\"stim\">9</p>", "key_press": -1, "trial_type": "single-stim", "trial_index": 79, "time_elapsed": 373958, "internal_node_id": "0.0-60.0-1.0"}}, {"uniqueid": "MTK0429:369J354OFEHW5JICPP4OQOHCKEH6GK", "current_trial": 80, "dateTime": 1510868035454, "trialdata": {"rt": -1, "stimulus": "<p id=\"stim\">8</p>", "key_press": -1, "trial_type": "single-stim", "trial_index": 80, "time_elapsed": 374963, "internal_node_id": "0.0-60.0-2.0"}}, {"uniqueid": "MTK0429:369J354OFEHW5JICPP4OQOHCKEH6GK", "current_trial": 81, "dateTime": 1510868036460, "trialdata": {"rt": -1, "stimulus": "<p id=\"stim\">7</p>", "key_press": -1, "trial_type": "single-stim", "trial_index": 81, "time_elapsed": 375969, "internal_node_id": "0.0-60.0-3.0"}}, {"uniqueid": "MTK0429:369J354OFEHW5JICPP4OQOHCKEH6GK", "current_trial": 82, "dateTime": 1510868037464, "trialdata": {"rt": -1, "stimulus": "<p id=\"stim\">6</p>", "key_press": -1, "trial_type": "single-stim", "trial_index": 82, "time_elapsed": 376973, "internal_node_id": "0.0-60.0-4.0"}}, {"uniqueid": "MTK0429:369J354OFEHW5JICPP4OQOHCKEH6GK", "current_trial": 83, "dateTime": 1510868038465, "trialdata": {"rt": -1, "stimulus": "<p id=\"stim\">5</p>", "key_press": -1, "trial_type": "single-stim", "trial_index": 83, "time_elapsed": 377974, "internal_node_id": "0.0-60.0-5.0"}}, {"uniqueid": "MTK0429:369J354OFEHW5JICPP4OQOHCKEH6GK", "current_trial": 84, "dateTime": 1510868039469, "trialdata": {"rt": -1, "stimulus": "<p id=\"stim\">4</p>", "key_press": -1, "trial_type": "single-stim", "trial_index": 84, "time_elapsed": 378978, "internal_node_id": "0.0-60.0-6.0"}}, {"uniqueid": "MTK0429:369J354OFEHW5JICPP4OQOHCKEH6GK", "current_trial": 85, "dateTime": 1510868040473, "trialdata": {"rt": -1, "stimulus": "<p id=\"stim\">3</p>", "key_press": -1, "trial_type": "single-stim", "trial_index": 85, "time_elapsed": 379982, "internal_node_id": "0.0-60.0-7.0"}}, {"uniqueid": "MTK0429:369J354OFEHW5JICPP4OQOHCKEH6GK", "current_trial": 86, "dateTime": 1510868041477, "trialdata": {"rt": -1, "stimulus": "<p id=\"stim\">2</p>", "key_press": -1, "trial_type": "single-stim", "trial_index": 86, "time_elapsed": 380986, "internal_node_id": "0.0-60.0-8.0"}}, {"uniqueid": "MTK0429:369J354OFEHW5JICPP4OQOHCKEH6GK", "current_trial": 87, "dateTime": 1510868042481, "trialdata": {"rt": -1, "stimulus": "<p id=\"stim\">1</p>", "key_press": -1, "trial_type": "single-stim", "trial_index": 87, "time_elapsed": 381990, "internal_node_id": "0.0-60.0-9.0"}}, {"uniqueid": "MTK0429:369J354OFEHW5JICPP4OQOHCKEH6GK", "current_trial": 88, "dateTime": 1510868043984, "trialdata": {"rt": -1, "stimulus": "<p id=\"stim\">+</p>", "key_press": -1, "type": "FIXATION", "trial_type": "single-stim", "trial_index": 88, "time_elapsed": 383493, "internal_node_id": "0.0-61.0-0.0"}}, {"uniqueid": "MTK0429:369J354OFEHW5JICPP4OQOHCKEH6GK", "current_trial": 89, "dateTime": 1510868045609, "trialdata": {"rt": -1000, "stimulus": "/static/audio/wordpool/BANK.wav", "key_press": -1, "type": "PRES_AUD", "word": "bank", "wordID": 82, "conditions": [24, 800, "a", 24000], "trial": 2, "serialpos": 0, "trial_type": "single-audio", "trial_index": 89, "time_elapsed": 385118, "internal_node_id": "0.0-62.0"}}, {"uniqueid": "MTK0429:369J354OFEHW5JICPP4OQOHCKEH6GK", "current_trial": 90, "dateTime": 1510868047255, "trialdata": {"rt": -1000, "stimulus": "/static/audio/wordpool/WAGON.wav", "key_press": -1, "type": "PRES_AUD", "word": "wagon", "wordID": 1577, "conditions": [24, 800, "a", 24000], "trial": 2, "serialpos": 1, "trial_type": "single-audio", "trial_index": 90, "time_elapsed": 386764, "internal_node_id": "0.0-63.0"}}, {"uniqueid": "MTK0429:369J354OFEHW5JICPP4OQOHCKEH6GK", "current_trial": 91, "dateTime": 1510868049026, "trialdata": {"rt": -1000, "stimulus": "/static/audio/wordpool/TRUCK.wav", "key_press": -1, "type": "PRES_AUD", "word": "truck", "wordID": 1511, "conditions": [24, 800, "a", 24000], "trial": 2, "serialpos": 2, "trial_type": "single-audio", "trial_index": 91, "time_elapsed": 388535, "internal_node_id": "0.0-64.0"}}, {"uniqueid": "MTK0429:369J354OFEHW5JICPP4OQOHCKEH6GK", "current_trial": 92, "dateTime": 1510868050742, "trialdata": {"rt": -1000, "stimulus": "/static/audio/wordpool/LUGGAGE.wav", "key_press": -1, "type": "PRES_AUD", "word": "luggage", "wordID": 846, "conditions": [24, 800, "a", 24000], "trial": 2, "serialpos": 3, "trial_type": "single-audio", "trial_index": 92, "time_elapsed": 390251, "internal_node_id": "0.0-65.0"}}, {"uniqueid": "MTK0429:369J354OFEHW5JICPP4OQOHCKEH6GK", "current_trial": 93, "dateTime": 1510868052434, "trialdata": {"rt": -1000, "stimulus": "/static/audio/wordpool/COBRA.wav", "key_press": -1, "type": "PRES_AUD", "word": "cobra", "wordID": 335, "conditions": [24, 800, "a", 24000], "trial": 2, "serialpos": 4, "trial_type": "single-audio", "trial_index": 93, "time_elapsed": 391943, "internal_node_id": "0.0-66.0"}}, {"uniqueid": "MTK0429:369J354OFEHW5JICPP4OQOHCKEH6GK", "current_trial": 94, "dateTime": 1510868054425, "trialdata": {"rt": -1000, "stimulus": "/static/audio/wordpool/UMPIRE.wav", "key_press": -1, "type": "PRES_AUD", "word": "umpire", "wordID": 1534, "conditions": [24, 800, "a", 24000], "trial": 2, "serialpos": 5, "trial_type": "single-audio", "trial_index": 94, "time_elapsed": 393934, "internal_node_id": "0.0-67.0"}}, {"uniqueid": "MTK0429:369J354OFEHW5JICPP4OQOHCKEH6GK", "current_trial": 95, "dateTime": 1510868056142, "trialdata": {"rt": 1490.5668934239884, "stimulus": "/static/audio/wordpool/SUITCASE.wav", "key_press": 91, "type": "PRES_AUD", "word": "suitcase", "wordID": 1402, "conditions": [24, 800, "a", 24000], "trial": 2, "serialpos": 6, "trial_type": "single-audio", "trial_index": 95, "time_elapsed": 395651, "internal_node_id": "0.0-68.0"}}, {"uniqueid": "MTK0429:369J354OFEHW5JICPP4OQOHCKEH6GK", "current_trial": 96, "dateTime": 1510868057745, "trialdata": {"rt": 4.4897959183458624, "stimulus": "/static/audio/wordpool/DRINK.wav", "key_press": 91, "type": "PRES_AUD", "word": "drink", "wordID": 497, "conditions": [24, 800, "a", 24000], "trial": 2, "serialpos": 7, "trial_type": "single-audio", "trial_index": 96, "time_elapsed": 397254, "internal_node_id": "0.0-69.0"}}, {"uniqueid": "MTK0429:369J354OFEHW5JICPP4OQOHCKEH6GK", "current_trial": 97, "dateTime": 1510868059666, "trialdata": {"rt": -1000, "stimulus": "/static/audio/wordpool/COOK.wav", "key_press": -1, "type": "PRES_AUD", "word": "cook", "wordID": 371, "conditions": [24, 800, "a", 24000], "trial": 2, "serialpos": 8, "trial_type": "single-audio", "trial_index": 97, "time_elapsed": 399175, "internal_node_id": "0.0-70.0"}}, {"uniqueid": "MTK0429:369J354OFEHW5JICPP4OQOHCKEH6GK", "current_trial": 98, "dateTime": 1510868061321, "trialdata": {"rt": -1000, "stimulus": "/static/audio/wordpool/DASHBOARD.wav", "key_press": -1, "type": "PRES_AUD", "word": "dashboard", "wordID": 440, "conditions": [24, 800, "a", 24000], "trial": 2, "serialpos": 9, "trial_type": "single-audio", "trial_index": 98, "time_elapsed": 400830, "internal_node_id": "0.0-71.0"}}, {"uniqueid": "MTK0429:369J354OFEHW5JICPP4OQOHCKEH6GK", "current_trial": 99, "dateTime": 1510868063283, "trialdata": {"rt": -1000, "stimulus": "/static/audio/wordpool/FLIPPER.wav", "key_press": -1, "type": "PRES_AUD", "word": "flipper", "wordID": 579, "conditions": [24, 800, "a", 24000], "trial": 2, "serialpos": 10, "trial_type": "single-audio", "trial_index": 99, "time_elapsed": 402792, "internal_node_id": "0.0-72.0"}}, {"uniqueid": "MTK0429:369J354OFEHW5JICPP4OQOHCKEH6GK", "current_trial": 100, "dateTime": 1510868065102, "trialdata": {"rt": -1000, "stimulus": "/static/audio/wordpool/ROBIN.wav", "key_press": -1, "type": "PRES_AUD", "word": "robin", "wordID": 1198, "conditions": [24, 800, "a", 24000], "trial": 2, "serialpos": 11, "trial_type": "single-audio", "trial_index": 100, "time_elapsed": 404611, "internal_node_id": "0.0-73.0"}}, {"uniqueid": "MTK0429:369J354OFEHW5JICPP4OQOHCKEH6GK", "current_trial": 101, "dateTime": 1510868066748, "trialdata": {"rt": -1000, "stimulus": "/static/audio/wordpool/POISON.wav", "key_press": -1, "type": "PRES_AUD", "word": "poison", "wordID": 1095, "conditions": [24, 800, "a", 24000], "trial": 2, "serialpos": 12, "trial_type": "single-audio", "trial_index": 101, "time_elapsed": 406257, "internal_node_id": "0.0-74.0"}}, {"uniqueid": "MTK0429:369J354OFEHW5JICPP4OQOHCKEH6GK", "current_trial": 102, "dateTime": 1510868068708, "trialdata": {"rt": -1000, "stimulus": "/static/audio/wordpool/ICEBERG.wav", "key_press": -1, "type": "PRES_AUD", "word": "iceberg", "wordID": 730, "conditions": [24, 800, "a", 24000], "trial": 2, "serialpos": 13, "trial_type": "single-audio", "trial_index": 102, "time_elapsed": 408217, "internal_node_id": "0.0-75.0"}}, {"uniqueid": "MTK0429:369J354OFEHW5JICPP4OQOHCKEH6GK", "current_trial": 103, "dateTime": 1510868070487, "trialdata": {"rt": -1000, "stimulus": "/static/audio/wordpool/GAZELLE.wav", "key_press": -1, "type": "PRES_AUD", "word": "gazelle", "wordID": 627, "conditions": [24, 800, "a", 24000], "trial": 2, "serialpos": 14, "trial_type": "single-audio", "trial_index": 103, "time_elapsed": 409996, "internal_node_id": "0.0-76.0"}}, {"uniqueid": "MTK0429:369J354OFEHW5JICPP4OQOHCKEH6GK", "current_trial": 104, "dateTime": 1510868072120, "trialdata": {"rt": -1000, "stimulus": "/static/audio/wordpool/SANDWICH.wav", "key_press": -1, "type": "PRES_AUD", "word": "sandwich", "wordID": 1231, "conditions": [24, 800, "a", 24000], "trial": 2, "serialpos": 15, "trial_type": "single-audio", "trial_index": 104, "time_elapsed": 411629, "internal_node_id": "0.0-77.0"}}, {"uniqueid": "MTK0429:369J354OFEHW5JICPP4OQOHCKEH6GK", "current_trial": 105, "dateTime": 1510868074062, "trialdata": {"rt": -1000, "stimulus": "/static/audio/wordpool/SNACK.wav", "key_press": -1, "type": "PRES_AUD", "word": "snack", "wordID": 1330, "conditions": [24, 800, "a", 24000], "trial": 2, "serialpos": 16, "trial_type": "single-audio", "trial_index": 105, "time_elapsed": 413571, "internal_node_id": "0.0-78.0"}}, {"uniqueid": "MTK0429:369J354OFEHW5JICPP4OQOHCKEH6GK", "current_trial": 106, "dateTime": 1510868075907, "trialdata": {"rt": -1000, "stimulus": "/static/audio/wordpool/BODY.wav", "key_press": -1, "type": "PRES_AUD", "word": "body", "wordID": 144, "conditions": [24, 800, "a", 24000], "trial": 2, "serialpos": 17, "trial_type": "single-audio", "trial_index": 106, "time_elapsed": 415416, "internal_node_id": "0.0-79.0"}}, {"uniqueid": "MTK0429:369J354OFEHW5JICPP4OQOHCKEH6GK", "current_trial": 107, "dateTime": 1510868077826, "trialdata": {"rt": -1000, "stimulus": "/static/audio/wordpool/SCISSORS.wav", "key_press": -1, "type": "PRES_AUD", "word": "scissors", "wordID": 1249, "conditions": [24, 800, "a", 24000], "trial": 2, "serialpos": 18, "trial_type": "single-audio", "trial_index": 107, "time_elapsed": 417335, "internal_node_id": "0.0-80.0"}}, {"uniqueid": "MTK0429:369J354OFEHW5JICPP4OQOHCKEH6GK", "current_trial": 108, "dateTime": 1510868079617, "trialdata": {"rt": -1000, "stimulus": "/static/audio/wordpool/LETTUCE.wav", "key_press": -1, "type": "PRES_AUD", "word": "lettuce", "wordID": 813, "conditions": [24, 800, "a", 24000], "trial": 2, "serialpos": 19, "trial_type": "single-audio", "trial_index": 108, "time_elapsed": 419126, "internal_node_id": "0.0-81.0"}}, {"uniqueid": "MTK0429:369J354OFEHW5JICPP4OQOHCKEH6GK", "current_trial": 109, "dateTime": 1510868081243, "trialdata": {"rt": -1000, "stimulus": "/static/audio/wordpool/OYSTER.wav", "key_press": -1, "type": "PRES_AUD", "word": "oyster", "wordID": 994, "conditions": [24, 800, "a", 24000], "trial": 2, "serialpos": 20, "trial_type": "single-audio", "trial_index": 109, "time_elapsed": 420752, "internal_node_id": "0.0-82.0"}}, {"uniqueid": "MTK0429:369J354OFEHW5JICPP4OQOHCKEH6GK", "current_trial": 110, "dateTime": 1510868083170, "trialdata": {"rt": -1000, "stimulus": "/static/audio/wordpool/SCALPEL.wav", "key_press": -1, "type": "PRES_AUD", "word": "scalpel", "wordID": 1242, "conditions": [24, 800, "a", 24000], "trial": 2, "serialpos": 21, "trial_type": "single-audio", "trial_index": 110, "time_elapsed": 422679, "internal_node_id": "0.0-83.0"}}, {"uniqueid": "MTK0429:369J354OFEHW5JICPP4OQOHCKEH6GK", "current_trial": 111, "dateTime": 1510868085115, "trialdata": {"rt": -1000, "stimulus": "/static/audio/wordpool/BIKE.wav", "key_press": -1, "type": "PRES_AUD", "word": "bike", "wordID": 124, "conditions": [24, 800, "a", 24000], "trial": 2, "serialpos": 22, "trial_type": "single-audio", "trial_index": 111, "time_elapsed": 424624, "internal_node_id": "0.0-84.0"}}, {"uniqueid": "MTK0429:369J354OFEHW5JICPP4OQOHCKEH6GK", "current_trial": 112, "dateTime": 1510868086909, "trialdata": {"rt": -1000, "stimulus": "/static/audio/wordpool/DAISY.wav", "key_press": -1, "type": "PRES_AUD", "word": "daisy", "wordID": 434, "conditions": [24, 800, "a", 24000], "trial": 2, "serialpos": 23, "trial_type": "single-audio", "trial_index": 112, "time_elapsed": 426418, "internal_node_id": "0.0-85.0"}}, {"uniqueid": "MTK0429:369J354OFEHW5JICPP4OQOHCKEH6GK", "current_trial": 113, "dateTime": 1510868088254, "trialdata": {"rt": -1, "stimulus": "", "key_press": -1, "type": "PRE_RECALL_DELAY", "trial_type": "single-stim", "trial_index": 113, "time_elapsed": 427763, "internal_node_id": "0.0-86.0-0.0"}}, {"uniqueid": "MTK0429:369J354OFEHW5JICPP4OQOHCKEH6GK", "current_trial": 114, "dateTime": 1510868088755, "trialdata": {"rt": -1000, "stimulus": "/static/audio/400Hz.wav", "key_press": -1, "type": "PRE_RECALL_ALERT", "trial_type": "single-audio", "trial_index": 114, "time_elapsed": 428264, "internal_node_id": "0.0-87.0"}}, {"uniqueid": "MTK0429:369J354OFEHW5JICPP4OQOHCKEH6GK", "current_trial": 115, "dateTime": 1510868148762, "trialdata": {"rt": [2919, 4271, 5223, 6414, 8959], "recwords": ["bike", "oyster", "daisy", "scalpel", "bank"], "type": "FREE_RECALL", "conditions": [24, 800, "a", 24000], "trial": 2, "trial_type": "free-recall", "trial_index": 115, "time_elapsed": 488269, "internal_node_id": "0.0-88.0-0.0"}}, {"uniqueid": "MTK0429:369J354OFEHW5JICPP4OQOHCKEH6GK", "current_trial": 116, "dateTime": 1510868154188, "trialdata": {"rt": 3422, "key_press": 110, "type": "INSTRUCTIONS", "trial_type": "text", "trial_index": 116, "time_elapsed": 493696, "internal_node_id": "0.0-89.0"}}, {"uniqueid": "MTK0429:369J354OFEHW5JICPP4OQOHCKEH6GK", "current_trial": 117, "dateTime": 1510868180196, "trialdata": {"rt": [2665, 4411, 6490, 7834, 9562, 11210, 13106, 14931, 16498, 18427, 20474, 22114], "responses": ["23", "17", "14", "15", "20", "12", "17", "19", "11", "13", "14", "22"], "num1": [9, 9, 5, 1, 7, 7, 4, 7, 2, 2, 6, 4, 2], "num2": [8, 1, 4, 5, 5, 1, 6, 7, 2, 7, 5, 9, 8], "num3": [6, 7, 5, 9, 8, 4, 7, 5, 7, 4, 3, 9, 9], "type": "DISTRACTOR", "conditions": [24, 800, "v", 24000], "trial": 3, "trial_type": "math-distractor", "trial_index": 117, "time_elapsed": 519705, "internal_node_id": "0.0-90.0"}}, {"uniqueid": "MTK0429:369J354OFEHW5JICPP4OQOHCKEH6GK", "current_trial": 118, "dateTime": 1510868183204, "trialdata": {"rt": -1, "stimulus": "<p id=\"stim\">10</p>", "key_press": -1, "trial_type": "single-stim", "trial_index": 118, "time_elapsed": 522713, "internal_node_id": "0.0-91.0-0.0"}}, {"uniqueid": "MTK0429:369J354OFEHW5JICPP4OQOHCKEH6GK", "current_trial": 119, "dateTime": 1510868184207, "trialdata": {"rt": -1, "stimulus": "<p id=\"stim\">9</p>", "key_press": -1, "trial_type": "single-stim", "trial_index": 119, "time_elapsed": 523716, "internal_node_id": "0.0-91.0-1.0"}}, {"uniqueid": "MTK0429:369J354OFEHW5JICPP4OQOHCKEH6GK", "current_trial": 120, "dateTime": 1510868185213, "trialdata": {"rt": -1, "stimulus": "<p id=\"stim\">8</p>", "key_press": -1, "trial_type": "single-stim", "trial_index": 120, "time_elapsed": 524722, "internal_node_id": "0.0-91.0-2.0"}}, {"uniqueid": "MTK0429:369J354OFEHW5JICPP4OQOHCKEH6GK", "current_trial": 121, "dateTime": 1510868186216, "trialdata": {"rt": -1, "stimulus": "<p id=\"stim\">7</p>", "key_press": -1, "trial_type": "single-stim", "trial_index": 121, "time_elapsed": 525725, "internal_node_id": "0.0-91.0-3.0"}}, {"uniqueid": "MTK0429:369J354OFEHW5JICPP4OQOHCKEH6GK", "current_trial": 122, "dateTime": 1510868187220, "trialdata": {"rt": -1, "stimulus": "<p id=\"stim\">6</p>", "key_press": -1, "trial_type": "single-stim", "trial_index": 122, "time_elapsed": 526729, "internal_node_id": "0.0-91.0-4.0"}}, {"uniqueid": "MTK0429:369J354OFEHW5JICPP4OQOHCKEH6GK", "current_trial": 123, "dateTime": 1510868188224, "trialdata": {"rt": -1, "stimulus": "<p id=\"stim\">5</p>", "key_press": -1, "trial_type": "single-stim", "trial_index": 123, "time_elapsed": 527732, "internal_node_id": "0.0-91.0-5.0"}}, {"uniqueid": "MTK0429:369J354OFEHW5JICPP4OQOHCKEH6GK", "current_trial": 124, "dateTime": 1510868189228, "trialdata": {"rt": -1, "stimulus": "<p id=\"stim\">4</p>", "key_press": -1, "trial_type": "single-stim", "trial_index": 124, "time_elapsed": 528737, "internal_node_id": "0.0-91.0-6.0"}}, {"uniqueid": "MTK0429:369J354OFEHW5JICPP4OQOHCKEH6GK", "current_trial": 125, "dateTime": 1510868190233, "trialdata": {"rt": -1, "stimulus": "<p id=\"stim\">3</p>", "key_press": -1, "trial_type": "single-stim", "trial_index": 125, "time_elapsed": 529741, "internal_node_id": "0.0-91.0-7.0"}}, {"uniqueid": "MTK0429:369J354OFEHW5JICPP4OQOHCKEH6GK", "current_trial": 126, "dateTime": 1510868191239, "trialdata": {"rt": -1, "stimulus": "<p id=\"stim\">2</p>", "key_press": -1, "trial_type": "single-stim", "trial_index": 126, "time_elapsed": 530747, "internal_node_id": "0.0-91.0-8.0"}}, {"uniqueid": "MTK0429:369J354OFEHW5JICPP4OQOHCKEH6GK", "current_trial": 127, "dateTime": 1510868192242, "trialdata": {"rt": -1, "stimulus": "<p id=\"stim\">1</p>", "key_press": -1, "trial_type": "single-stim", "trial_index": 127, "time_elapsed": 531751, "internal_node_id": "0.0-91.0-9.0"}}, {"uniqueid": "MTK0429:369J354OFEHW5JICPP4OQOHCKEH6GK", "current_trial": 128, "dateTime": 1510868193744, "trialdata": {"rt": -1, "stimulus": "<p id=\"stim\">+</p>", "key_press": -1, "type": "FIXATION", "trial_type": "single-stim", "trial_index": 128, "time_elapsed": 533253, "internal_node_id": "0.0-92.0-0.0"}}, {"uniqueid": "MTK0429:369J354OFEHW5JICPP4OQOHCKEH6GK", "current_trial": 129, "dateTime": 1510868194547, "trialdata": {"rt": -1, "stimulus": "<p id=\"stim\">SERVANT</p>", "key_press": -1, "type": "PRES_VIS", "word": "servant", "wordID": 1270, "conditions": [24, 800, "v", 24000], "trial": 3, "serialpos": 0, "trial_type": "single-stim", "trial_index": 129, "time_elapsed": 534056, "internal_node_id": "0.0-93.0"}}, {"uniqueid": "MTK0429:369J354OFEHW5JICPP4OQOHCKEH6GK", "current_trial": 130, "dateTime": 1510868196223, "trialdata": {"rt": -1, "stimulus": "<p id=\"stim\">SNAKE</p>", "key_press": -1, "type": "PRES_VIS", "word": "snake", "wordID": 1332, "conditions": [24, 800, "v", 24000], "trial": 3, "serialpos": 1, "trial_type": "single-stim", "trial_index": 130, "time_elapsed": 535732, "internal_node_id": "0.0-94.0"}}, {"uniqueid": "MTK0429:369J354OFEHW5JICPP4OQOHCKEH6GK", "current_trial": 131, "dateTime": 1510868198113, "trialdata": {"rt": -1, "stimulus": "<p id=\"stim\">HOSTESS</p>", "key_press": -1, "type": "PRES_VIS", "word": "hostess", "wordID": 722, "conditions": [24, 800, "v", 24000], "trial": 3, "serialpos": 2, "trial_type": "single-stim", "trial_index": 131, "time_elapsed": 537622, "internal_node_id": "0.0-95.0"}}, {"uniqueid": "MTK0429:369J354OFEHW5JICPP4OQOHCKEH6GK", "current_trial": 132, "dateTime": 1510868200040, "trialdata": {"rt": -1, "stimulus": "<p id=\"stim\">FLESH</p>", "key_press": -1, "type": "PRES_VIS", "word": "flesh", "wordID": 578, "conditions": [24, 800, "v", 24000], "trial": 3, "serialpos": 3, "trial_type": "single-stim", "trial_index": 132, "time_elapsed": 539549, "internal_node_id": "0.0-96.0"}}, {"uniqueid": "MTK0429:369J354OFEHW5JICPP4OQOHCKEH6GK", "current_trial": 133, "dateTime": 1510868202032, "trialdata": {"rt": -1, "stimulus": "<p id=\"stim\">COCOON</p>", "key_press": -1, "type": "PRES_VIS", "word": "cocoon", "wordID": 338, "conditions": [24, 800, "v", 24000], "trial": 3, "serialpos": 4, "trial_type": "single-stim", "trial_index": 133, "time_elapsed": 541541, "internal_node_id": "0.0-97.0"}}, {"uniqueid": "MTK0429:369J354OFEHW5JICPP4OQOHCKEH6GK", "current_trial": 134, "dateTime": 1510868203836, "trialdata": {"rt": -1, "stimulus": "<p id=\"stim\">TORTOISE</p>", "key_press": -1, "type": "PRES_VIS", "word": "tortoise", "wordID": 1485, "conditions": [24, 800, "v", 24000], "trial": 3, "serialpos": 5, "trial_type": "single-stim", "trial_index": 134, "time_elapsed": 543345, "internal_node_id": "0.0-98.0"}}, {"uniqueid": "MTK0429:369J354OFEHW5JICPP4OQOHCKEH6GK", "current_trial": 135, "dateTime": 1510868205764, "trialdata": {"rt": -1, "stimulus": "<p id=\"stim\">LIZARD</p>", "key_press": -1, "type": "PRES_VIS", "word": "lizard", "wordID": 833, "conditions": [24, 800, "v", 24000], "trial": 3, "serialpos": 6, "trial_type": "single-stim", "trial_index": 135, "time_elapsed": 545273, "internal_node_id": "0.0-99.0"}}, {"uniqueid": "MTK0429:369J354OFEHW5JICPP4OQOHCKEH6GK", "current_trial": 136, "dateTime": 1510868207378, "trialdata": {"rt": -1, "stimulus": "<p id=\"stim\">RABBIT</p>", "key_press": -1, "type": "PRES_VIS", "word": "rabbit", "wordID": 1151, "conditions": [24, 800, "v", 24000], "trial": 3, "serialpos": 7, "trial_type": "single-stim", "trial_index": 136, "time_elapsed": 546886, "internal_node_id": "0.0-100.0"}}, {"uniqueid": "MTK0429:369J354OFEHW5JICPP4OQOHCKEH6GK", "current_trial": 137, "dateTime": 1510868209235, "trialdata": {"rt": -1, "stimulus": "<p id=\"stim\">THIEF</p>", "key_press": -1, "type": "PRES_VIS", "word": "thief", "wordID": 1455, "conditions": [24, 800, "v", 24000], "trial": 3, "serialpos": 8, "trial_type": "single-stim", "trial_index": 137, "time_elapsed": 548744, "internal_node_id": "0.0-101.0"}}, {"uniqueid": "MTK0429:369J354OFEHW5JICPP4OQOHCKEH6GK", "current_trial": 138, "dateTime": 1510868210848, "trialdata": {"rt": -1, "stimulus": "<p id=\"stim\">RUG</p>", "key_press": -1, "type": "PRES_VIS", "word": "rug", "wordID": 1214, "conditions": [24, 800, "v", 24000], "trial": 3, "serialpos": 9, "trial_type": "single-stim", "trial_index": 138, "time_elapsed": 550357, "internal_node_id": "0.0-102.0"}}, {"uniqueid": "MTK0429:369J354OFEHW5JICPP4OQOHCKEH6GK", "current_trial": 139, "dateTime": 1510868212537, "trialdata": {"rt": -1, "stimulus": "<p id=\"stim\">PADDLE</p>", "key_press": -1, "type": "PRES_VIS", "word": "paddle", "wordID": 999, "conditions": [24, 800, "v", 24000], "trial": 3, "serialpos": 10, "trial_type": "single-stim", "trial_index": 139, "time_elapsed": 552046, "internal_node_id": "0.0-103.0"}}, {"uniqueid": "MTK0429:369J354OFEHW5JICPP4OQOHCKEH6GK", "current_trial": 140, "dateTime": 1510868214382, "trialdata": {"rt": -1, "stimulus": "<p id=\"stim\">DRESSER</p>", "key_press": -1, "type": "PRES_VIS", "word": "dresser", "wordID": 495, "conditions": [24, 800, "v", 24000], "trial": 3, "serialpos": 11, "trial_type": "single-stim", "trial_index": 140, "time_elapsed": 553891, "internal_node_id": "0.0-104.0"}}, {"uniqueid": "MTK0429:369J354OFEHW5JICPP4OQOHCKEH6GK", "current_trial": 141, "dateTime": 1510868216136, "trialdata": {"rt": -1, "stimulus": "<p id=\"stim\">CONTRACT</p>", "key_press": -1, "type": "PRES_VIS", "word": "contract", "wordID": 367, "conditions": [24, 800, "v", 24000], "trial": 3, "serialpos": 12, "trial_type": "single-stim", "trial_index": 141, "time_elapsed": 555645, "internal_node_id": "0.0-105.0"}}, {"uniqueid": "MTK0429:369J354OFEHW5JICPP4OQOHCKEH6GK", "current_trial": 142, "dateTime": 1510868218018, "trialdata": {"rt": -1, "stimulus": "<p id=\"stim\">RAFT</p>", "key_press": -1, "type": "PRES_VIS", "word": "raft", "wordID": 1158, "conditions": [24, 800, "v", 24000], "trial": 3, "serialpos": 13, "trial_type": "single-stim", "trial_index": 142, "time_elapsed": 557527, "internal_node_id": "0.0-106.0"}}, {"uniqueid": "MTK0429:369J354OFEHW5JICPP4OQOHCKEH6GK", "current_trial": 143, "dateTime": 1510868219966, "trialdata": {"rt": -1, "stimulus": "<p id=\"stim\">HANDBAG</p>", "key_press": -1, "type": "PRES_VIS", "word": "handbag", "wordID": 683, "conditions": [24, 800, "v", 24000], "trial": 3, "serialpos": 14, "trial_type": "single-stim", "trial_index": 143, "time_elapsed": 559475, "internal_node_id": "0.0-107.0"}}, {"uniqueid": "MTK0429:369J354OFEHW5JICPP4OQOHCKEH6GK", "current_trial": 144, "dateTime": 1510868221962, "trialdata": {"rt": -1, "stimulus": "<p id=\"stim\">PARSLEY</p>", "key_press": -1, "type": "PRES_VIS", "word": "parsley", "wordID": 1015, "conditions": [24, 800, "v", 24000], "trial": 3, "serialpos": 15, "trial_type": "single-stim", "trial_index": 144, "time_elapsed": 561471, "internal_node_id": "0.0-108.0"}}, {"uniqueid": "MTK0429:369J354OFEHW5JICPP4OQOHCKEH6GK", "current_trial": 145, "dateTime": 1510868223590, "trialdata": {"rt": -1, "stimulus": "<p id=\"stim\">PISTOL</p>", "key_press": -1, "type": "PRES_VIS", "word": "pistol", "wordID": 1074, "conditions": [24, 800, "v", 24000], "trial": 3, "serialpos": 16, "trial_type": "single-stim", "trial_index": 145, "time_elapsed": 563098, "internal_node_id": "0.0-109.0"}}, {"uniqueid": "MTK0429:369J354OFEHW5JICPP4OQOHCKEH6GK", "current_trial": 146, "dateTime": 1510868225269, "trialdata": {"rt": -1, "stimulus": "<p id=\"stim\">JELLY</p>", "key_press": -1, "type": "PRES_VIS", "word": "jelly", "wordID": 754, "conditions": [24, 800, "v", 24000], "trial": 3, "serialpos": 17, "trial_type": "single-stim", "trial_index": 146, "time_elapsed": 564777, "internal_node_id": "0.0-110.0"}}, {"uniqueid": "MTK0429:369J354OFEHW5JICPP4OQOHCKEH6GK", "current_trial": 147, "dateTime": 1510868227204, "trialdata": {"rt": -1, "stimulus": "<p id=\"stim\">CARROT</p>", "key_press": -1, "type": "PRES_VIS", "word": "carrot", "wordID": 248, "conditions": [24, 800, "v", 24000], "trial": 3, "serialpos": 18, "trial_type": "single-stim", "trial_index": 147, "time_elapsed": 566713, "internal_node_id": "0.0-111.0"}}, {"uniqueid": "MTK0429:369J354OFEHW5JICPP4OQOHCKEH6GK", "current_trial": 148, "dateTime": 1510868228951, "trialdata": {"rt": -1, "stimulus": "<p id=\"stim\">CRAB</p>", "key_press": -1, "type": "PRES_VIS", "word": "crab", "wordID": 396, "conditions": [24, 800, "v", 24000], "trial": 3, "serialpos": 19, "trial_type": "single-stim", "trial_index": 148, "time_elapsed": 568460, "internal_node_id": "0.0-112.0"}}, {"uniqueid": "MTK0429:369J354OFEHW5JICPP4OQOHCKEH6GK", "current_trial": 149, "dateTime": 1510868230668, "trialdata": {"rt": -1, "stimulus": "<p id=\"stim\">KNIFE</p>", "key_press": -1, "type": "PRES_VIS", "word": "knife", "wordID": 784, "conditions": [24, 800, "v", 24000], "trial": 3, "serialpos": 20, "trial_type": "single-stim", "trial_index": 149, "time_elapsed": 570176, "internal_node_id": "0.0-113.0"}}, {"uniqueid": "MTK0429:369J354OFEHW5JICPP4OQOHCKEH6GK", "current_trial": 150, "dateTime": 1510868232501, "trialdata": {"rt": -1, "stimulus": "<p id=\"stim\">FUNGUS</p>", "key_press": -1, "type": "PRES_VIS", "word": "fungus", "wordID": 613, "conditions": [24, 800, "v", 24000], "trial": 3, "serialpos": 21, "trial_type": "single-stim", "trial_index": 150, "time_elapsed": 572010, "internal_node_id": "0.0-114.0"}}, {"uniqueid": "MTK0429:369J354OFEHW5JICPP4OQOHCKEH6GK", "current_trial": 151, "dateTime": 1510868234419, "trialdata": {"rt": -1, "stimulus": "<p id=\"stim\">TERMITE</p>", "key_press": -1, "type": "PRES_VIS", "word": "termite", "wordID": 1450, "conditions": [24, 800, "v", 24000], "trial": 3, "serialpos": 22, "trial_type": "single-stim", "trial_index": 151, "time_elapsed": 573928, "internal_node_id": "0.0-115.0"}}, {"uniqueid": "MTK0429:369J354OFEHW5JICPP4OQOHCKEH6GK", "current_trial": 152, "dateTime": 1510868236264, "trialdata": {"rt": -1, "stimulus": "<p id=\"stim\">PICNIC</p>", "key_press": -1, "type": "PRES_VIS", "word": "picnic", "wordID": 1059, "conditions": [24, 800, "v", 24000], "trial": 3, "serialpos": 23, "trial_type": "single-stim", "trial_index": 152, "time_elapsed": 575773, "internal_node_id": "0.0-116.0"}}, {"uniqueid": "MTK0429:369J354OFEHW5JICPP4OQOHCKEH6GK", "current_trial": 153, "dateTime": 1510868238528, "trialdata": {"rt": -1, "stimulus": "", "key_press": -1, "type": "PRE_RECALL_DELAY", "trial_type": "single-stim", "trial_index": 153, "time_elapsed": 578036, "internal_node_id": "0.0-117.0-0.0"}}, {"uniqueid": "MTK0429:369J354OFEHW5JICPP4OQOHCKEH6GK", "current_trial": 154, "dateTime": 1510868239029, "trialdata": {"rt": -1000, "stimulus": "/static/audio/400Hz.wav", "key_press": -1, "type": "PRE_RECALL_ALERT", "trial_type": "single-audio", "trial_index": 154, "time_elapsed": 578538, "internal_node_id": "0.0-118.0"}}, {"uniqueid": "MTK0429:369J354OFEHW5JICPP4OQOHCKEH6GK", "current_trial": 155, "dateTime": 1510868299036, "trialdata": {"rt": [3837, 6397, 7413, 11341, 12093, 15613, 21125, 25589], "recwords": ["carrot", "knife", "fungus", "tortoise", "raft", "fungus", "contract", "fish"], "type": "FREE_RECALL", "conditions": [24, 800, "v", 24000], "trial": 3, "trial_type": "free-recall", "trial_index": 155, "time_elapsed": 638544, "internal_node_id": "0.0-119.0-0.0"}}, {"uniqueid": "MTK0429:369J354OFEHW5JICPP4OQOHCKEH6GK", "current_trial": 156, "dateTime": 1510868302292, "trialdata": {"rt": 1254, "key_press": 32, "type": "INSTRUCTIONS", "trial_type": "text", "trial_index": 156, "time_elapsed": 641801, "internal_node_id": "0.0-120.0"}}, {"uniqueid": "MTK0429:369J354OFEHW5JICPP4OQOHCKEH6GK", "current_trial": 157, "dateTime": 1510868328299, "trialdata": {"rt": [2158, 4366, 6342, 7558, 8830, 10446, 12414, 14775, 16934, 18662, 20014, 21950, 23758], "responses": ["18", "8", "14", "12", "11", "7", "18", "24", "16", "9", "20", "20", "18"], "num1": [3, 2, 8, 4, 4, 2, 3, 7, 9, 4, 2, 5, 8, 3], "num2": [8, 2, 3, 4, 6, 4, 6, 8, 5, 3, 9, 7, 1, 4], "num3": [7, 4, 3, 4, 1, 1, 9, 9, 2, 2, 9, 8, 9, 7], "type": "DISTRACTOR", "conditions": [12, 800, "a", 24000], "trial": 4, "trial_type": "math-distractor", "trial_index": 157, "time_elapsed": 667807, "internal_node_id": "0.0-121.0"}}, {"uniqueid": "MTK0429:369J354OFEHW5JICPP4OQOHCKEH6GK", "current_trial": 158, "dateTime": 1510868331305, "trialdata": {"rt": -1, "stimulus": "<p id=\"stim\">10</p>", "key_press": -1, "trial_type": "single-stim", "trial_index": 158, "time_elapsed": 670814, "internal_node_id": "0.0-122.0-0.0"}}, {"uniqueid": "MTK0429:369J354OFEHW5JICPP4OQOHCKEH6GK", "current_trial": 159, "dateTime": 1510868332309, "trialdata": {"rt": -1, "stimulus": "<p id=\"stim\">9</p>", "key_press": -1, "trial_type": "single-stim", "trial_index": 159, "time_elapsed": 671818, "internal_node_id": "0.0-122.0-1.0"}}, {"uniqueid": "MTK0429:369J354OFEHW5JICPP4OQOHCKEH6GK", "current_trial": 160, "dateTime": 1510868333313, "trialdata": {"rt": -1, "stimulus": "<p id=\"stim\">8</p>", "key_press": -1, "trial_type": "single-stim", "trial_index": 160, "time_elapsed": 672822, "internal_node_id": "0.0-122.0-2.0"}}, {"uniqueid": "MTK0429:369J354OFEHW5JICPP4OQOHCKEH6GK", "current_trial": 161, "dateTime": 1510868334318, "trialdata": {"rt": -1, "stimulus": "<p id=\"stim\">7</p>", "key_press": -1, "trial_type": "single-stim", "trial_index": 161, "time_elapsed": 673827, "internal_node_id": "0.0-122.0-3.0"}}, {"uniqueid": "MTK0429:369J354OFEHW5JICPP4OQOHCKEH6GK", "current_trial": 162, "dateTime": 1510868335322, "trialdata": {"rt": -1, "stimulus": "<p id=\"stim\">6</p>", "key_press": -1, "trial_type": "single-stim", "trial_index": 162, "time_elapsed": 674831, "internal_node_id": "0.0-122.0-4.0"}}, {"uniqueid": "MTK0429:369J354OFEHW5JICPP4OQOHCKEH6GK", "current_trial": 163, "dateTime": 1510868336326, "trialdata": {"rt": -1, "stimulus": "<p id=\"stim\">5</p>", "key_press": -1, "trial_type": "single-stim", "trial_index": 163, "time_elapsed": 675834, "internal_node_id": "0.0-122.0-5.0"}}, {"uniqueid": "MTK0429:369J354OFEHW5JICPP4OQOHCKEH6GK", "current_trial": 164, "dateTime": 1510868337329, "trialdata": {"rt": -1, "stimulus": "<p id=\"stim\">4</p>", "key_press": -1, "trial_type": "single-stim", "trial_index": 164, "time_elapsed": 676838, "internal_node_id": "0.0-122.0-6.0"}}, {"uniqueid": "MTK0429:369J354OFEHW5JICPP4OQOHCKEH6GK", "current_trial": 165, "dateTime": 1510868338334, "trialdata": {"rt": -1, "stimulus": "<p id=\"stim\">3</p>", "key_press": -1, "trial_type": "single-stim", "trial_index": 165, "time_elapsed": 677843, "internal_node_id": "0.0-122.0-7.0"}}, {"uniqueid": "MTK0429:369J354OFEHW5JICPP4OQOHCKEH6GK", "current_trial": 166, "dateTime": 1510868339338, "trialdata": {"rt": -1, "stimulus": "<p id=\"stim\">2</p>", "key_press": -1, "trial_type": "single-stim", "trial_index": 166, "time_elapsed": 678847, "internal_node_id": "0.0-122.0-8.0"}}, {"uniqueid": "MTK0429:369J354OFEHW5JICPP4OQOHCKEH6GK", "current_trial": 167, "dateTime": 1510868340342, "trialdata": {"rt": -1, "stimulus": "<p id=\"stim\">1</p>", "key_press": -1, "trial_type": "single-stim", "trial_index": 167, "time_elapsed": 679851, "internal_node_id": "0.0-122.0-9.0"}}, {"uniqueid": "MTK0429:369J354OFEHW5JICPP4OQOHCKEH6GK", "current_trial": 168, "dateTime": 1510868341845, "trialdata": {"rt": -1, "stimulus": "<p id=\"stim\">+</p>", "key_press": -1, "type": "FIXATION", "trial_type": "single-stim", "trial_index": 168, "time_elapsed": 681354, "internal_node_id": "0.0-123.0-0.0"}}, {"uniqueid": "MTK0429:369J354OFEHW5JICPP4OQOHCKEH6GK", "current_trial": 169, "dateTime": 1510868343496, "trialdata": {"rt": -1000, "stimulus": "/static/audio/wordpool/HATCHET.wav", "key_press": -1, "type": "PRES_AUD", "word": "hatchet", "wordID": 690, "conditions": [12, 800, "a", 24000], "trial": 4, "serialpos": 0, "trial_type": "single-audio", "trial_index": 169, "time_elapsed": 683005, "internal_node_id": "0.0-124.0"}}, {"uniqueid": "MTK0429:369J354OFEHW5JICPP4OQOHCKEH6GK", "current_trial": 170, "dateTime": 1510868345147, "trialdata": {"rt": -1000, "stimulus": "/static/audio/wordpool/PLIERS.wav", "key_press": -1, "type": "PRES_AUD", "word": "pliers", "wordID": 1088, "conditions": [12, 800, "a", 24000], "trial": 4, "serialpos": 1, "trial_type": "single-audio", "trial_index": 170, "time_elapsed": 684656, "internal_node_id": "0.0-125.0"}}, {"uniqueid": "MTK0429:369J354OFEHW5JICPP4OQOHCKEH6GK", "current_trial": 171, "dateTime": 1510868347125, "trialdata": {"rt": -1000, "stimulus": "/static/audio/wordpool/SCALLOP.wav", "key_press": -1, "type": "PRES_AUD", "word": "scallop", "wordID": 1241, "conditions": [12, 800, "a", 24000], "trial": 4, "serialpos": 2, "trial_type": "single-audio", "trial_index": 171, "time_elapsed": 686634, "internal_node_id": "0.0-126.0"}}, {"uniqueid": "MTK0429:369J354OFEHW5JICPP4OQOHCKEH6GK", "current_trial": 172, "dateTime": 1510868349041, "trialdata": {"rt": -1000, "stimulus": "/static/audio/wordpool/COLLEGE.wav", "key_press": -1, "type": "PRES_AUD", "word": "college", "wordID": 345, "conditions": [12, 800, "a", 24000], "trial": 4, "serialpos": 3, "trial_type": "single-audio", "trial_index": 172, "time_elapsed": 688550, "internal_node_id": "0.0-127.0"}}, {"uniqueid": "MTK0429:369J354OFEHW5JICPP4OQOHCKEH6GK", "current_trial": 173, "dateTime": 1510868350935, "trialdata": {"rt": -1000, "stimulus": "/static/audio/wordpool/STUDENT.wav", "key_press": -1, "type": "PRES_AUD", "word": "student", "wordID": 1394, "conditions": [12, 800, "a", 24000], "trial": 4, "serialpos": 4, "trial_type": "single-audio", "trial_index": 173, "time_elapsed": 690444, "internal_node_id": "0.0-128.0"}}, {"uniqueid": "MTK0429:369J354OFEHW5JICPP4OQOHCKEH6GK", "current_trial": 174, "dateTime": 1510868352596, "trialdata": {"rt": -1000, "stimulus": "/static/audio/wordpool/CONVICT.wav", "key_press": -1, "type": "PRES_AUD", "word": "convict", "wordID": 370, "conditions": [12, 800, "a", 24000], "trial": 4, "serialpos": 5, "trial_type": "single-audio", "trial_index": 174, "time_elapsed": 692105, "internal_node_id": "0.0-129.0"}}, {"uniqueid": "MTK0429:369J354OFEHW5JICPP4OQOHCKEH6GK", "current_trial": 175, "dateTime": 1510868354469, "trialdata": {"rt": -1000, "stimulus": "/static/audio/wordpool/SHIRT.wav", "key_press": -1, "type": "PRES_AUD", "word": "shirt", "wordID": 1286, "conditions": [12, 800, "a", 24000], "trial": 4, "serialpos": 6, "trial_type": "single-audio", "trial_index": 175, "time_elapsed": 693978, "internal_node_id": "0.0-130.0"}}, {"uniqueid": "MTK0429:369J354OFEHW5JICPP4OQOHCKEH6GK", "current_trial": 176, "dateTime": 1510868356319, "trialdata": {"rt": -1000, "stimulus": "/static/audio/wordpool/SHARK.wav", "key_press": -1, "type": "PRES_AUD", "word": "shark", "wordID": 1274, "conditions": [12, 800, "a", 24000], "trial": 4, "serialpos": 7, "trial_type": "single-audio", "trial_index": 176, "time_elapsed": 695827, "internal_node_id": "0.0-131.0"}}, {"uniqueid": "MTK0429:369J354OFEHW5JICPP4OQOHCKEH6GK", "current_trial": 177, "dateTime": 1510868358258, "trialdata": {"rt": -1000, "stimulus": "/static/audio/wordpool/DOLPHIN.wav", "key_press": -1, "type": "PRES_AUD", "word": "dolphin", "wordID": 482, "conditions": [12, 800, "a", 24000], "trial": 4, "serialpos": 8, "trial_type": "single-audio", "trial_index": 177, "time_elapsed": 697767, "internal_node_id": "0.0-132.0"}}, {"uniqueid": "MTK0429:369J354OFEHW5JICPP4OQOHCKEH6GK", "current_trial": 178, "dateTime": 1510868360189, "trialdata": {"rt": -1000, "stimulus": "/static/audio/wordpool/RELISH.wav", "key_press": -1, "type": "PRES_AUD", "word": "relish", "wordID": 1182, "conditions": [12, 800, "a", 24000], "trial": 4, "serialpos": 9, "trial_type": "single-audio", "trial_index": 178, "time_elapsed": 699698, "internal_node_id": "0.0-133.0"}}, {"uniqueid": "MTK0429:369J354OFEHW5JICPP4OQOHCKEH6GK", "current_trial": 179, "dateTime": 1510868362182, "trialdata": {"rt": -1000, "stimulus": "/static/audio/wordpool/WIFE.wav", "key_press": -1, "type": "PRES_AUD", "word": "wife", "wordID": 1608, "conditions": [12, 800, "a", 24000], "trial": 4, "serialpos": 10, "trial_type": "single-audio", "trial_index": 179, "time_elapsed": 701691, "internal_node_id": "0.0-134.0"}}, {"uniqueid": "MTK0429:369J354OFEHW5JICPP4OQOHCKEH6GK", "current_trial": 180, "dateTime": 1510868363850, "trialdata": {"rt": -1000, "stimulus": "/static/audio/wordpool/PENGUIN.wav", "key_press": -1, "type": "PRES_AUD", "word": "penguin", "wordID": 1043, "conditions": [12, 800, "a", 24000], "trial": 4, "serialpos": 11, "trial_type": "single-audio", "trial_index": 180, "time_elapsed": 703359, "internal_node_id": "0.0-135.0"}}, {"uniqueid": "MTK0429:369J354OFEHW5JICPP4OQOHCKEH6GK", "current_trial": 181, "dateTime": 1510868365159, "trialdata": {"rt": -1, "stimulus": "", "key_press": -1, "type": "PRE_RECALL_DELAY", "trial_type": "single-stim", "trial_index": 181, "time_elapsed": 704668, "internal_node_id": "0.0-136.0-0.0"}}, {"uniqueid": "MTK0429:369J354OFEHW5JICPP4OQOHCKEH6GK", "current_trial": 182, "dateTime": 1510868365661, "trialdata": {"rt": -1000, "stimulus": "/static/audio/400Hz.wav", "key_press": -1, "type": "PRE_RECALL_ALERT", "trial_type": "single-audio", "trial_index": 182, "time_elapsed": 705170, "internal_node_id": "0.0-137.0"}}, {"uniqueid": "MTK0429:369J354OFEHW5JICPP4OQOHCKEH6GK", "current_trial": 183, "dateTime": 1510868425668, "trialdata": {"rt": [3460, 5268, 6284, 9213], "recwords": ["relish", "penguin", "wife", "scalpel"], "type": "FREE_RECALL", "conditions": [12, 800, "a", 24000], "trial": 4, "trial_type": "free-recall", "trial_index": 183, "time_elapsed": 765172, "internal_node_id": "0.0-138.0-0.0"}}, {"uniqueid": "MTK0429:369J354OFEHW5JICPP4OQOHCKEH6GK", "current_trial": 184, "dateTime": 1510868460772, "trialdata": {"rt": 33100, "key_press": 32, "type": "INSTRUCTIONS", "trial_type": "text", "trial_index": 184, "time_elapsed": 800280, "internal_node_id": "0.0-139.0"}}, {"uniqueid": "MTK0429:369J354OFEHW5JICPP4OQOHCKEH6GK", "current_trial": 185, "dateTime": 1510868486780, "trialdata": {"rt": [1820, 3932, 5324, 8020, 10652, 12340, 14172, 15691, 17460, 20884, 22444], "responses": ["21", "19", "8", "16", "17", "19", "14", "12", "17", "19", "10"], "num1": [9, 9, 1, 6, 5, 7, 8, 3, 9, 7, 1, 3], "num2": [4, 2, 6, 9, 6, 9, 5, 6, 3, 6, 6, 2], "num3": [8, 8, 1, 1, 6, 3, 1, 3, 5, 6, 3, 8], "type": "DISTRACTOR", "conditions": [12, 1600, "v", 24000], "trial": 5, "trial_type": "math-distractor", "trial_index": 185, "time_elapsed": 826289, "internal_node_id": "0.0-140.0"}}, {"uniqueid": "MTK0429:369J354OFEHW5JICPP4OQOHCKEH6GK", "current_trial": 186, "dateTime": 1510868489786, "trialdata": {"rt": -1, "stimulus": "<p id=\"stim\">10</p>", "key_press": -1, "trial_type": "single-stim", "trial_index": 186, "time_elapsed": 829295, "internal_node_id": "0.0-141.0-0.0"}}, {"uniqueid": "MTK0429:369J354OFEHW5JICPP4OQOHCKEH6GK", "current_trial": 187, "dateTime": 1510868490790, "trialdata": {"rt": -1, "stimulus": "<p id=\"stim\">9</p>", "key_press": -1, "trial_type": "single-stim", "trial_index": 187, "time_elapsed": 830299, "internal_node_id": "0.0-141.0-1.0"}}, {"uniqueid": "MTK0429:369J354OFEHW5JICPP4OQOHCKEH6GK", "current_trial": 188, "dateTime": 1510868491794, "trialdata": {"rt": -1, "stimulus": "<p id=\"stim\">8</p>", "key_press": -1, "trial_type": "single-stim", "trial_index": 188, "time_elapsed": 831303, "internal_node_id": "0.0-141.0-2.0"}}, {"uniqueid": "MTK0429:369J354OFEHW5JICPP4OQOHCKEH6GK", "current_trial": 189, "dateTime": 1510868492799, "trialdata": {"rt": -1, "stimulus": "<p id=\"stim\">7</p>", "key_press": -1, "trial_type": "single-stim", "trial_index": 189, "time_elapsed": 832308, "internal_node_id": "0.0-141.0-3.0"}}, {"uniqueid": "MTK0429:369J354OFEHW5JICPP4OQOHCKEH6GK", "current_trial": 190, "dateTime": 1510868493802, "trialdata": {"rt": -1, "stimulus": "<p id=\"stim\">6</p>", "key_press": -1, "trial_type": "single-stim", "trial_index": 190, "time_elapsed": 833311, "internal_node_id": "0.0-141.0-4.0"}}, {"uniqueid": "MTK0429:369J354OFEHW5JICPP4OQOHCKEH6GK", "current_trial": 191, "dateTime": 1510868494807, "trialdata": {"rt": -1, "stimulus": "<p id=\"stim\">5</p>", "key_press": -1, "trial_type": "single-stim", "trial_index": 191, "time_elapsed": 834316, "internal_node_id": "0.0-141.0-5.0"}}, {"uniqueid": "MTK0429:369J354OFEHW5JICPP4OQOHCKEH6GK", "current_trial": 192, "dateTime": 1510868495810, "trialdata": {"rt": -1, "stimulus": "<p id=\"stim\">4</p>", "key_press": -1, "trial_type": "single-stim", "trial_index": 192, "time_elapsed": 835319, "internal_node_id": "0.0-141.0-6.0"}}, {"uniqueid": "MTK0429:369J354OFEHW5JICPP4OQOHCKEH6GK", "current_trial": 193, "dateTime": 1510868496815, "trialdata": {"rt": -1, "stimulus": "<p id=\"stim\">3</p>", "key_press": -1, "trial_type": "single-stim", "trial_index": 193, "time_elapsed": 836324, "internal_node_id": "0.0-141.0-7.0"}}, {"uniqueid": "MTK0429:369J354OFEHW5JICPP4OQOHCKEH6GK", "current_trial": 194, "dateTime": 1510868497819, "trialdata": {"rt": -1, "stimulus": "<p id=\"stim\">2</p>", "key_press": -1, "trial_type": "single-stim", "trial_index": 194, "time_elapsed": 837328, "internal_node_id": "0.0-141.0-8.0"}}, {"uniqueid": "MTK0429:369J354OFEHW5JICPP4OQOHCKEH6GK", "current_trial": 195, "dateTime": 1510868498823, "trialdata": {"rt": -1, "stimulus": "<p id=\"stim\">1</p>", "key_press": -1, "trial_type": "single-stim", "trial_index": 195, "time_elapsed": 838332, "internal_node_id": "0.0-141.0-9.0"}}, {"uniqueid": "MTK0429:369J354OFEHW5JICPP4OQOHCKEH6GK", "current_trial": 196, "dateTime": 1510868500326, "trialdata": {"rt": -1, "stimulus": "<p id=\"stim\">+</p>", "key_press": -1, "type": "FIXATION", "trial_type": "single-stim", "trial_index": 196, "time_elapsed": 839835, "internal_node_id": "0.0-142.0-0.0"}}, {"uniqueid": "MTK0429:369J354OFEHW5JICPP4OQOHCKEH6GK", "current_trial": 197, "dateTime": 1510868501928, "trialdata": {"rt": -1, "stimulus": "<p id=\"stim\">HEART</p>", "key_press": -1, "type": "PRES_VIS", "word": "heart", "wordID": 696, "conditions": [12, 1600, "v", 24000], "trial": 5, "serialpos": 0, "trial_type": "single-stim", "trial_index": 197, "time_elapsed": 841437, "internal_node_id": "0.0-143.0"}}, {"uniqueid": "MTK0429:369J354OFEHW5JICPP4OQOHCKEH6GK", "current_trial": 198, "dateTime": 1510868504610, "trialdata": {"rt": -1, "stimulus": "<p id=\"stim\">SLUG</p>", "key_press": -1, "type": "PRES_VIS", "word": "slug", "wordID": 1328, "conditions": [12, 1600, "v", 24000], "trial": 5, "serialpos": 1, "trial_type": "single-stim", "trial_index": 198, "time_elapsed": 844119, "internal_node_id": "0.0-144.0"}}, {"uniqueid": "MTK0429:369J354OFEHW5JICPP4OQOHCKEH6GK", "current_trial": 199, "dateTime": 1510868507395, "trialdata": {"rt": -1, "stimulus": "<p id=\"stim\">BUG</p>", "key_press": -1, "type": "PRES_VIS", "word": "bug", "wordID": 186, "conditions": [12, 1600, "v", 24000], "trial": 5, "serialpos": 2, "trial_type": "single-stim", "trial_index": 199, "time_elapsed": 846904, "internal_node_id": "0.0-145.0"}}, {"uniqueid": "MTK0429:369J354OFEHW5JICPP4OQOHCKEH6GK", "current_trial": 200, "dateTime": 1510868510155, "trialdata": {"rt": -1, "stimulus": "<p id=\"stim\">DRUG</p>", "key_press": -1, "type": "PRES_VIS", "word": "drug", "wordID": 500, "conditions": [12, 1600, "v", 24000], "trial": 5, "serialpos": 3, "trial_type": "single-stim", "trial_index": 200, "time_elapsed": 849664, "internal_node_id": "0.0-146.0"}}, {"uniqueid": "MTK0429:369J354OFEHW5JICPP4OQOHCKEH6GK", "current_trial": 201, "dateTime": 1510868512659, "trialdata": {"rt": -1, "stimulus": "<p id=\"stim\">EGYPT</p>", "key_press": -1, "type": "PRES_VIS", "word": "egypt", "wordID": 518, "conditions": [12, 1600, "v", 24000], "trial": 5, "serialpos": 4, "trial_type": "single-stim", "trial_index": 201, "time_elapsed": 852168, "internal_node_id": "0.0-147.0"}}, {"uniqueid": "MTK0429:369J354OFEHW5JICPP4OQOHCKEH6GK", "current_trial": 202, "dateTime": 1510868515451, "trialdata": {"rt": -1, "stimulus": "<p id=\"stim\">STATUE</p>", "key_press": -1, "type": "PRES_VIS", "word": "statue", "wordID": 1373, "conditions": [12, 1600, "v", 24000], "trial": 5, "serialpos": 5, "trial_type": "single-stim", "trial_index": 202, "time_elapsed": 854960, "internal_node_id": "0.0-148.0"}}, {"uniqueid": "MTK0429:369J354OFEHW5JICPP4OQOHCKEH6GK", "current_trial": 203, "dateTime": 1510868518000, "trialdata": {"rt": -1, "stimulus": "<p id=\"stim\">DANDRUFF</p>", "key_press": -1, "type": "PRES_VIS", "word": "dandruff", "wordID": 438, "conditions": [12, 1600, "v", 24000], "trial": 5, "serialpos": 6, "trial_type": "single-stim", "trial_index": 203, "time_elapsed": 857509, "internal_node_id": "0.0-149.0"}}, {"uniqueid": "MTK0429:369J354OFEHW5JICPP4OQOHCKEH6GK", "current_trial": 204, "dateTime": 1510868520791, "trialdata": {"rt": -1, "stimulus": "<p id=\"stim\">BRICK</p>", "key_press": -1, "type": "PRES_VIS", "word": "brick", "wordID": 171, "conditions": [12, 1600, "v", 24000], "trial": 5, "serialpos": 7, "trial_type": "single-stim", "trial_index": 204, "time_elapsed": 860300, "internal_node_id": "0.0-150.0"}}, {"uniqueid": "MTK0429:369J354OFEHW5JICPP4OQOHCKEH6GK", "current_trial": 205, "dateTime": 1510868523210, "trialdata": {"rt": -1, "stimulus": "<p id=\"stim\">TILE</p>", "key_press": -1, "type": "PRES_VIS", "word": "tile", "wordID": 1467, "conditions": [12, 1600, "v", 24000], "trial": 5, "serialpos": 8, "trial_type": "single-stim", "trial_index": 205, "time_elapsed": 862719, "internal_node_id": "0.0-151.0"}}, {"uniqueid": "MTK0429:369J354OFEHW5JICPP4OQOHCKEH6GK", "current_trial": 206, "dateTime": 1510868525916, "trialdata": {"rt": -1, "stimulus": "<p id=\"stim\">SCULPTURE</p>", "key_press": -1, "type": "PRES_VIS", "word": "sculpture", "wordID": 1257, "conditions": [12, 1600, "v", 24000], "trial": 5, "serialpos": 9, "trial_type": "single-stim", "trial_index": 206, "time_elapsed": 865425, "internal_node_id": "0.0-152.0"}}, {"uniqueid": "MTK0429:369J354OFEHW5JICPP4OQOHCKEH6GK", "current_trial": 207, "dateTime": 1510868528361, "trialdata": {"rt": -1, "stimulus": "<p id=\"stim\">PRIMATE</p>", "key_press": -1, "type": "PRES_VIS", "word": "primate", "wordID": 1122, "conditions": [12, 1600, "v", 24000], "trial": 5, "serialpos": 10, "trial_type": "single-stim", "trial_index": 207, "time_elapsed": 867870, "internal_node_id": "0.0-153.0"}}, {"uniqueid": "MTK0429:369J354OFEHW5JICPP4OQOHCKEH6GK", "current_trial": 208, "dateTime": 1510868530933, "trialdata": {"rt": -1, "stimulus": "<p id=\"stim\">TRENCH</p>", "key_press": -1, "type": "PRES_VIS", "word": "trench", "wordID": 1502, "conditions": [12, 1600, "v", 24000], "trial": 5, "serialpos": 11, "trial_type": "single-stim", "trial_index": 208, "time_elapsed": 870442, "internal_node_id": "0.0-154.0"}}, {"uniqueid": "MTK0429:369J354OFEHW5JICPP4OQOHCKEH6GK", "current_trial": 209, "dateTime": 1510868533161, "trialdata": {"rt": -1, "stimulus": "", "key_press": -1, "type": "PRE_RECALL_DELAY", "trial_type": "single-stim", "trial_index": 209, "time_elapsed": 872670, "internal_node_id": "0.0-155.0-0.0"}}, {"uniqueid": "MTK0429:369J354OFEHW5JICPP4OQOHCKEH6GK", "current_trial": 210, "dateTime": 1510868533680, "trialdata": {"rt": -1000, "stimulus": "/static/audio/400Hz.wav", "key_press": -1, "type": "PRE_RECALL_ALERT", "trial_type": "single-audio", "trial_index": 210, "time_elapsed": 873189, "internal_node_id": "0.0-156.0"}}, {"uniqueid": "MTK0429:369J354OFEHW5JICPP4OQOHCKEH6GK", "current_trial": 211, "dateTime": 1510868593692, "trialdata": {"rt": [3007, 4136], "recwords": ["drug", "template"], "type": "FREE_RECALL", "conditions": [12, 1600, "v", 24000], "trial": 5, "trial_type": "free-recall", "trial_index": 211, "time_elapsed": 933197, "internal_node_id": "0.0-157.0-0.0"}}, {"uniqueid": "MTK0429:369J354OFEHW5JICPP4OQOHCKEH6GK", "current_trial": 212, "dateTime": 1510868597148, "trialdata": {"rt": 1450, "key_press": 32, "type": "INSTRUCTIONS", "trial_type": "text", "trial_index": 212, "time_elapsed": 936656, "internal_node_id": "0.0-158.0"}}, {"uniqueid": "MTK0429:369J354OFEHW5JICPP4OQOHCKEH6GK", "current_trial": 213, "dateTime": 1510868623156, "trialdata": {"rt": [1539, 3891, 5642, 7162, 8459, 10699, 12555, 14394, 16507, 18764, 21642, 22980], "responses": ["5", "19", "13", "12", "8", "17", "15", "9", "15", "9", "20", "6"], "num1": [1, 5, 6, 1, 4, 6, 2, 2, 8, 1, 7, 2, 7], "num2": [1, 7, 2, 3, 2, 2, 8, 3, 4, 5, 8, 3, 7], "num3": [3, 7, 5, 8, 2, 9, 5, 4, 3, 3, 5, 1, 5], "type": "DISTRACTOR", "conditions": [24, 1600, "v", 24000], "trial": 6, "trial_type": "math-distractor", "trial_index": 213, "time_elapsed": 962665, "internal_node_id": "0.0-159.0"}}, {"uniqueid": "MTK0429:369J354OFEHW5JICPP4OQOHCKEH6GK", "current_trial": 214, "dateTime": 1510868626163, "trialdata": {"rt": -1, "stimulus": "<p id=\"stim\">10</p>", "key_press": -1, "trial_type": "single-stim", "trial_index": 214, "time_elapsed": 965672, "internal_node_id": "0.0-160.0-0.0"}}, {"uniqueid": "MTK0429:369J354OFEHW5JICPP4OQOHCKEH6GK", "current_trial": 215, "dateTime": 1510868627167, "trialdata": {"rt": -1, "stimulus": "<p id=\"stim\">9</p>", "key_press": -1, "trial_type": "single-stim", "trial_index": 215, "time_elapsed": 966676, "internal_node_id": "0.0-160.0-1.0"}}, {"uniqueid": "MTK0429:369J354OFEHW5JICPP4OQOHCKEH6GK", "current_trial": 216, "dateTime": 1510868628171, "trialdata": {"rt": -1, "stimulus": "<p id=\"stim\">8</p>", "key_press": -1, "trial_type": "single-stim", "trial_index": 216, "time_elapsed": 967680, "internal_node_id": "0.0-160.0-2.0"}}, {"uniqueid": "MTK0429:369J354OFEHW5JICPP4OQOHCKEH6GK", "current_trial": 217, "dateTime": 1510868629177, "trialdata": {"rt": -1, "stimulus": "<p id=\"stim\">7</p>", "key_press": -1, "trial_type": "single-stim", "trial_index": 217, "time_elapsed": 968686, "internal_node_id": "0.0-160.0-3.0"}}, {"uniqueid": "MTK0429:369J354OFEHW5JICPP4OQOHCKEH6GK", "current_trial": 218, "dateTime": 1510868630179, "trialdata": {"rt": -1, "stimulus": "<p id=\"stim\">6</p>", "key_press": -1, "trial_type": "single-stim", "trial_index": 218, "time_elapsed": 969688, "internal_node_id": "0.0-160.0-4.0"}}, {"uniqueid": "MTK0429:369J354OFEHW5JICPP4OQOHCKEH6GK", "current_trial": 219, "dateTime": 1510868631186, "trialdata": {"rt": -1, "stimulus": "<p id=\"stim\">5</p>", "key_press": -1, "trial_type": "single-stim", "trial_index": 219, "time_elapsed": 970694, "internal_node_id": "0.0-160.0-5.0"}}, {"uniqueid": "MTK0429:369J354OFEHW5JICPP4OQOHCKEH6GK", "current_trial": 220, "dateTime": 1510868632188, "trialdata": {"rt": -1, "stimulus": "<p id=\"stim\">4</p>", "key_press": -1, "trial_type": "single-stim", "trial_index": 220, "time_elapsed": 971697, "internal_node_id": "0.0-160.0-6.0"}}, {"uniqueid": "MTK0429:369J354OFEHW5JICPP4OQOHCKEH6GK", "current_trial": 221, "dateTime": 1510868633191, "trialdata": {"rt": -1, "stimulus": "<p id=\"stim\">3</p>", "key_press": -1, "trial_type": "single-stim", "trial_index": 221, "time_elapsed": 972700, "internal_node_id": "0.0-160.0-7.0"}}, {"uniqueid": "MTK0429:369J354OFEHW5JICPP4OQOHCKEH6GK", "current_trial": 222, "dateTime": 1510868634195, "trialdata": {"rt": -1, "stimulus": "<p id=\"stim\">2</p>", "key_press": -1, "trial_type": "single-stim", "trial_index": 222, "time_elapsed": 973704, "internal_node_id": "0.0-160.0-8.0"}}, {"uniqueid": "MTK0429:369J354OFEHW5JICPP4OQOHCKEH6GK", "current_trial": 223, "dateTime": 1510868635200, "trialdata": {"rt": -1, "stimulus": "<p id=\"stim\">1</p>", "key_press": -1, "trial_type": "single-stim", "trial_index": 223, "time_elapsed": 974708, "internal_node_id": "0.0-160.0-9.0"}}, {"uniqueid": "MTK0429:369J354OFEHW5JICPP4OQOHCKEH6GK", "current_trial": 224, "dateTime": 1510868636704, "trialdata": {"rt": -1, "stimulus": "<p id=\"stim\">+</p>", "key_press": -1, "type": "FIXATION", "trial_type": "single-stim", "trial_index": 224, "time_elapsed": 976213, "internal_node_id": "0.0-161.0-0.0"}}, {"uniqueid": "MTK0429:369J354OFEHW5JICPP4OQOHCKEH6GK", "current_trial": 225, "dateTime": 1510868638305, "trialdata": {"rt": -1, "stimulus": "<p id=\"stim\">EAGLE</p>", "key_press": -1, "type": "PRES_VIS", "word": "eagle", "wordID": 511, "conditions": [24, 1600, "v", 24000], "trial": 6, "serialpos": 0, "trial_type": "single-stim", "trial_index": 225, "time_elapsed": 977814, "internal_node_id": "0.0-162.0"}}, {"uniqueid": "MTK0429:369J354OFEHW5JICPP4OQOHCKEH6GK", "current_trial": 226, "dateTime": 1510868640911, "trialdata": {"rt": -1, "stimulus": "<p id=\"stim\">LAVA</p>", "key_press": -1, "type": "PRES_VIS", "word": "lava", "wordID": 803, "conditions": [24, 1600, "v", 24000], "trial": 6, "serialpos": 1, "trial_type": "single-stim", "trial_index": 226, "time_elapsed": 980420, "internal_node_id": "0.0-163.0"}}, {"uniqueid": "MTK0429:369J354OFEHW5JICPP4OQOHCKEH6GK", "current_trial": 227, "dateTime": 1510868643656, "trialdata": {"rt": -1, "stimulus": "<p id=\"stim\">CRATER</p>", "key_press": -1, "type": "PRES_VIS", "word": "crater", "wordID": 399, "conditions": [24, 1600, "v", 24000], "trial": 6, "serialpos": 2, "trial_type": "single-stim", "trial_index": 227, "time_elapsed": 983165, "internal_node_id": "0.0-164.0"}}, {"uniqueid": "MTK0429:369J354OFEHW5JICPP4OQOHCKEH6GK", "current_trial": 228, "dateTime": 1510868646237, "trialdata": {"rt": -1, "stimulus": "<p id=\"stim\">ANKLE</p>", "key_press": -1, "type": "PRES_VIS", "word": "ankle", "wordID": 23, "conditions": [24, 1600, "v", 24000], "trial": 6, "serialpos": 3, "trial_type": "single-stim", "trial_index": 228, "time_elapsed": 985746, "internal_node_id": "0.0-165.0"}}, {"uniqueid": "MTK0429:369J354OFEHW5JICPP4OQOHCKEH6GK", "current_trial": 229, "dateTime": 1510868648659, "trialdata": {"rt": -1, "stimulus": "<p id=\"stim\">CROWN</p>", "key_press": -1, "type": "PRES_VIS", "word": "crown", "wordID": 414, "conditions": [24, 1600, "v", 24000], "trial": 6, "serialpos": 4, "trial_type": "single-stim", "trial_index": 229, "time_elapsed": 988167, "internal_node_id": "0.0-166.0"}}, {"uniqueid": "MTK0429:369J354OFEHW5JICPP4OQOHCKEH6GK", "current_trial": 230, "dateTime": 1510868651465, "trialdata": {"rt": -1, "stimulus": "<p id=\"stim\">JURY</p>", "key_press": -1, "type": "PRES_VIS", "word": "jury", "wordID": 765, "conditions": [24, 1600, "v", 24000], "trial": 6, "serialpos": 5, "trial_type": "single-stim", "trial_index": 230, "time_elapsed": 990974, "internal_node_id": "0.0-167.0"}}, {"uniqueid": "MTK0429:369J354OFEHW5JICPP4OQOHCKEH6GK", "current_trial": 231, "dateTime": 1510868653984, "trialdata": {"rt": -1, "stimulus": "<p id=\"stim\">PLAYGROUND</p>", "key_press": -1, "type": "PRES_VIS", "word": "playground", "wordID": 1086, "conditions": [24, 1600, "v", 24000], "trial": 6, "serialpos": 6, "trial_type": "single-stim", "trial_index": 231, "time_elapsed": 993493, "internal_node_id": "0.0-168.0"}}, {"uniqueid": "MTK0429:369J354OFEHW5JICPP4OQOHCKEH6GK", "current_trial": 232, "dateTime": 1510868656442, "trialdata": {"rt": -1, "stimulus": "<p id=\"stim\">IGLOO</p>", "key_press": -1, "type": "PRES_VIS", "word": "igloo", "wordID": 733, "conditions": [24, 1600, "v", 24000], "trial": 6, "serialpos": 7, "trial_type": "single-stim", "trial_index": 232, "time_elapsed": 995947, "internal_node_id": "0.0-169.0"}}, {"uniqueid": "MTK0429:369J354OFEHW5JICPP4OQOHCKEH6GK", "current_trial": 233, "dateTime": 1510868659036, "trialdata": {"rt": -1, "stimulus": "<p id=\"stim\">ELBOW</p>", "key_press": -1, "type": "PRES_VIS", "word": "elbow", "wordID": 519, "conditions": [24, 1600, "v", 24000], "trial": 6, "serialpos": 8, "trial_type": "single-stim", "trial_index": 233, "time_elapsed": 998545, "internal_node_id": "0.0-170.0"}}, {"uniqueid": "MTK0429:369J354OFEHW5JICPP4OQOHCKEH6GK", "current_trial": 234, "dateTime": 1510868661527, "trialdata": {"rt": -1, "stimulus": "<p id=\"stim\">UNCLE</p>", "key_press": -1, "type": "PRES_VIS", "word": "uncle", "wordID": 1535, "conditions": [24, 1600, "v", 24000], "trial": 6, "serialpos": 9, "trial_type": "single-stim", "trial_index": 234, "time_elapsed": 1001036, "internal_node_id": "0.0-171.0"}}, {"uniqueid": "MTK0429:369J354OFEHW5JICPP4OQOHCKEH6GK", "current_trial": 235, "dateTime": 1510868664231, "trialdata": {"rt": -1, "stimulus": "<p id=\"stim\">MAILMAN</p>", "key_press": -1, "type": "PRES_VIS", "word": "mailman", "wordID": 857, "conditions": [24, 1600, "v", 24000], "trial": 6, "serialpos": 10, "trial_type": "single-stim", "trial_index": 235, "time_elapsed": 1003740, "internal_node_id": "0.0-172.0"}}, {"uniqueid": "MTK0429:369J354OFEHW5JICPP4OQOHCKEH6GK", "current_trial": 236, "dateTime": 1510868666666, "trialdata": {"rt": -1, "stimulus": "<p id=\"stim\">BISON</p>", "key_press": -1, "type": "PRES_VIS", "word": "bison", "wordID": 130, "conditions": [24, 1600, "v", 24000], "trial": 6, "serialpos": 11, "trial_type": "single-stim", "trial_index": 236, "time_elapsed": 1006175, "internal_node_id": "0.0-173.0"}}, {"uniqueid": "MTK0429:369J354OFEHW5JICPP4OQOHCKEH6GK", "current_trial": 237, "dateTime": 1510868669124, "trialdata": {"rt": -1, "stimulus": "<p id=\"stim\">COUCH</p>", "key_press": -1, "type": "PRES_VIS", "word": "couch", "wordID": 385, "conditions": [24, 1600, "v", 24000], "trial": 6, "serialpos": 12, "trial_type": "single-stim", "trial_index": 237, "time_elapsed": 1008633, "internal_node_id": "0.0-174.0"}}, {"uniqueid": "MTK0429:369J354OFEHW5JICPP4OQOHCKEH6GK", "current_trial": 238, "dateTime": 1510868671731, "trialdata": {"rt": -1, "stimulus": "<p id=\"stim\">LEOPARD</p>", "key_press": -1, "type": "PRES_VIS", "word": "leopard", "wordID": 811, "conditions": [24, 1600, "v", 24000], "trial": 6, "serialpos": 13, "trial_type": "single-stim", "trial_index": 238, "time_elapsed": 1011240, "internal_node_id": "0.0-175.0"}}, {"uniqueid": "MTK0429:369J354OFEHW5JICPP4OQOHCKEH6GK", "current_trial": 239, "dateTime": 1510868674359, "trialdata": {"rt": -1, "stimulus": "<p id=\"stim\">PORK</p>", "key_press": -1, "type": "PRES_VIS", "word": "pork", "wordID": 1107, "conditions": [24, 1600, "v", 24000], "trial": 6, "serialpos": 14, "trial_type": "single-stim", "trial_index": 239, "time_elapsed": 1013868, "internal_node_id": "0.0-176.0"}}, {"uniqueid": "MTK0429:369J354OFEHW5JICPP4OQOHCKEH6GK", "current_trial": 240, "dateTime": 1510868676861, "trialdata": {"rt": -1, "stimulus": "<p id=\"stim\">SEAFOOD</p>", "key_press": -1, "type": "PRES_VIS", "word": "seafood", "wordID": 1259, "conditions": [24, 1600, "v", 24000], "trial": 6, "serialpos": 15, "trial_type": "single-stim", "trial_index": 240, "time_elapsed": 1016369, "internal_node_id": "0.0-177.0"}}, {"uniqueid": "MTK0429:369J354OFEHW5JICPP4OQOHCKEH6GK", "current_trial": 241, "dateTime": 1510868679536, "trialdata": {"rt": -1, "stimulus": "<p id=\"stim\">FEMALE</p>", "key_press": -1, "type": "PRES_VIS", "word": "female", "wordID": 558, "conditions": [24, 1600, "v", 24000], "trial": 6, "serialpos": 16, "trial_type": "single-stim", "trial_index": 241, "time_elapsed": 1019045, "internal_node_id": "0.0-178.0"}}, {"uniqueid": "MTK0429:369J354OFEHW5JICPP4OQOHCKEH6GK", "current_trial": 242, "dateTime": 1510868682020, "trialdata": {"rt": -1, "stimulus": "<p id=\"stim\">AIRPORT</p>", "key_press": -1, "type": "PRES_VIS", "word": "airport", "wordID": 12, "conditions": [24, 1600, "v", 24000], "trial": 6, "serialpos": 17, "trial_type": "single-stim", "trial_index": 242, "time_elapsed": 1021529, "internal_node_id": "0.0-179.0"}}, {"uniqueid": "MTK0429:369J354OFEHW5JICPP4OQOHCKEH6GK", "current_trial": 243, "dateTime": 1510868684454, "trialdata": {"rt": -1, "stimulus": "<p id=\"stim\">MOTEL</p>", "key_press": -1, "type": "PRES_VIS", "word": "motel", "wordID": 918, "conditions": [24, 1600, "v", 24000], "trial": 6, "serialpos": 18, "trial_type": "single-stim", "trial_index": 243, "time_elapsed": 1023963, "internal_node_id": "0.0-180.0"}}, {"uniqueid": "MTK0429:369J354OFEHW5JICPP4OQOHCKEH6GK", "current_trial": 244, "dateTime": 1510868687178, "trialdata": {"rt": -1, "stimulus": "<p id=\"stim\">BARREL</p>", "key_press": -1, "type": "PRES_VIS", "word": "barrel", "wordID": 90, "conditions": [24, 1600, "v", 24000], "trial": 6, "serialpos": 19, "trial_type": "single-stim", "trial_index": 244, "time_elapsed": 1026686, "internal_node_id": "0.0-181.0"}}, {"uniqueid": "MTK0429:369J354OFEHW5JICPP4OQOHCKEH6GK", "current_trial": 245, "dateTime": 1510868689769, "trialdata": {"rt": -1, "stimulus": "<p id=\"stim\">PLAID</p>", "key_press": -1, "type": "PRES_VIS", "word": "plaid", "wordID": 1079, "conditions": [24, 1600, "v", 24000], "trial": 6, "serialpos": 20, "trial_type": "single-stim", "trial_index": 245, "time_elapsed": 1029278, "internal_node_id": "0.0-182.0"}}, {"uniqueid": "MTK0429:369J354OFEHW5JICPP4OQOHCKEH6GK", "current_trial": 246, "dateTime": 1510868692218, "trialdata": {"rt": -1, "stimulus": "<p id=\"stim\">COIN</p>", "key_press": -1, "type": "PRES_VIS", "word": "coin", "wordID": 342, "conditions": [24, 1600, "v", 24000], "trial": 6, "serialpos": 21, "trial_type": "single-stim", "trial_index": 246, "time_elapsed": 1031727, "internal_node_id": "0.0-183.0"}}, {"uniqueid": "MTK0429:369J354OFEHW5JICPP4OQOHCKEH6GK", "current_trial": 247, "dateTime": 1510868694980, "trialdata": {"rt": -1, "stimulus": "<p id=\"stim\">MATTRESS</p>", "key_press": -1, "type": "PRES_VIS", "word": "mattress", "wordID": 878, "conditions": [24, 1600, "v", 24000], "trial": 6, "serialpos": 22, "trial_type": "single-stim", "trial_index": 247, "time_elapsed": 1034489, "internal_node_id": "0.0-184.0"}}, {"uniqueid": "MTK0429:369J354OFEHW5JICPP4OQOHCKEH6GK", "current_trial": 248, "dateTime": 1510868697731, "trialdata": {"rt": -1, "stimulus": "<p id=\"stim\">MUFFIN</p>", "key_press": -1, "type": "PRES_VIS", "word": "muffin", "wordID": 928, "conditions": [24, 1600, "v", 24000], "trial": 6, "serialpos": 23, "trial_type": "single-stim", "trial_index": 248, "time_elapsed": 1037240, "internal_node_id": "0.0-185.0"}}, {"uniqueid": "MTK0429:369J354OFEHW5JICPP4OQOHCKEH6GK", "current_trial": 249, "dateTime": 1510868699863, "trialdata": {"rt": -1, "stimulus": "", "key_press": -1, "type": "PRE_RECALL_DELAY", "trial_type": "single-stim", "trial_index": 249, "time_elapsed": 1039372, "internal_node_id": "0.0-186.0-0.0"}}, {"uniqueid": "MTK0429:369J354OFEHW5JICPP4OQOHCKEH6GK", "current_trial": 250, "dateTime": 1510868700365, "trialdata": {"rt": -1000, "stimulus": "/static/audio/400Hz.wav", "key_press": -1, "type": "PRE_RECALL_ALERT", "trial_type": "single-audio", "trial_index": 250, "time_elapsed": 1039874, "internal_node_id": "0.0-187.0"}}, {"uniqueid": "MTK0429:369J354OFEHW5JICPP4OQOHCKEH6GK", "current_trial": 251, "dateTime": 1510868760377, "trialdata": {"rt": [3132, 4340, 6117, 8236, 9001, 12084, 13173, 14516, 15645, 18637, 21045, 23484], "recwords": ["pork", "seafood", "iglo", "igloo", "eagle", "motel", "airport", "pork", "seafood", "lava", "female", "playground"], "type": "FREE_RECALL", "conditions": [24, 1600, "v", 24000], "trial": 6, "trial_type": "free-recall", "trial_index": 251, "time_elapsed": 1099881, "internal_node_id": "0.0-188.0-0.0"}}, {"uniqueid": "MTK0429:369J354OFEHW5JICPP4OQOHCKEH6GK", "current_trial": 252, "dateTime": 1510868764515, "trialdata": {"rt": 2133, "key_press": 13, "type": "INSTRUCTIONS", "trial_type": "text", "trial_index": 252, "time_elapsed": 1104024, "internal_node_id": "0.0-189.0"}}, {"uniqueid": "MTK0429:369J354OFEHW5JICPP4OQOHCKEH6GK", "current_trial": 253, "dateTime": 1510868778523, "trialdata": {"rt": [3075, 5059, 6899, 8219, 9731], "responses": ["14", "18", "21", "12", "20"], "num1": [1, 9, 6, 4, 8, 6], "num2": [4, 2, 6, 4, 8, 8], "num3": [9, 7, 9, 4, 4, 4], "type": "DISTRACTOR", "conditions": [12, 1600, "a", 12000], "trial": 7, "trial_type": "math-distractor", "trial_index": 253, "time_elapsed": 1118032, "internal_node_id": "0.0-190.0"}}, {"uniqueid": "MTK0429:369J354OFEHW5JICPP4OQOHCKEH6GK", "current_trial": 254, "dateTime": 1510868781529, "trialdata": {"rt": -1, "stimulus": "<p id=\"stim\">10</p>", "key_press": -1, "trial_type": "single-stim", "trial_index": 254, "time_elapsed": 1121038, "internal_node_id": "0.0-191.0-0.0"}}, {"uniqueid": "MTK0429:369J354OFEHW5JICPP4OQOHCKEH6GK", "current_trial": 255, "dateTime": 1510868782532, "trialdata": {"rt": -1, "stimulus": "<p id=\"stim\">9</p>", "key_press": -1, "trial_type": "single-stim", "trial_index": 255, "time_elapsed": 1122041, "internal_node_id": "0.0-191.0-1.0"}}, {"uniqueid": "MTK0429:369J354OFEHW5JICPP4OQOHCKEH6GK", "current_trial": 256, "dateTime": 1510868783538, "trialdata": {"rt": -1, "stimulus": "<p id=\"stim\">8</p>", "key_press": -1, "trial_type": "single-stim", "trial_index": 256, "time_elapsed": 1123047, "internal_node_id": "0.0-191.0-2.0"}}, {"uniqueid": "MTK0429:369J354OFEHW5JICPP4OQOHCKEH6GK", "current_trial": 257, "dateTime": 1510868784541, "trialdata": {"rt": -1, "stimulus": "<p id=\"stim\">7</p>", "key_press": -1, "trial_type": "single-stim", "trial_index": 257, "time_elapsed": 1124050, "internal_node_id": "0.0-191.0-3.0"}}, {"uniqueid": "MTK0429:369J354OFEHW5JICPP4OQOHCKEH6GK", "current_trial": 258, "dateTime": 1510868785545, "trialdata": {"rt": -1, "stimulus": "<p id=\"stim\">6</p>", "key_press": -1, "trial_type": "single-stim", "trial_index": 258, "time_elapsed": 1125054, "internal_node_id": "0.0-191.0-4.0"}}, {"uniqueid": "MTK0429:369J354OFEHW5JICPP4OQOHCKEH6GK", "current_trial": 259, "dateTime": 1510868786549, "trialdata": {"rt": -1, "stimulus": "<p id=\"stim\">5</p>", "key_press": -1, "trial_type": "single-stim", "trial_index": 259, "time_elapsed": 1126058, "internal_node_id": "0.0-191.0-5.0"}}, {"uniqueid": "MTK0429:369J354OFEHW5JICPP4OQOHCKEH6GK", "current_trial": 260, "dateTime": 1510868787555, "trialdata": {"rt": -1, "stimulus": "<p id=\"stim\">4</p>", "key_press": -1, "trial_type": "single-stim", "trial_index": 260, "time_elapsed": 1127064, "internal_node_id": "0.0-191.0-6.0"}}, {"uniqueid": "MTK0429:369J354OFEHW5JICPP4OQOHCKEH6GK", "current_trial": 261, "dateTime": 1510868788558, "trialdata": {"rt": -1, "stimulus": "<p id=\"stim\">3</p>", "key_press": -1, "trial_type": "single-stim", "trial_index": 261, "time_elapsed": 1128067, "internal_node_id": "0.0-191.0-7.0"}}, {"uniqueid": "MTK0429:369J354OFEHW5JICPP4OQOHCKEH6GK", "current_trial": 262, "dateTime": 1510868789559, "trialdata": {"rt": -1, "stimulus": "<p id=\"stim\">2</p>", "key_press": -1, "trial_type": "single-stim", "trial_index": 262, "time_elapsed": 1129068, "internal_node_id": "0.0-191.0-8.0"}}, {"uniqueid": "MTK0429:369J354OFEHW5JICPP4OQOHCKEH6GK", "current_trial": 263, "dateTime": 1510868790560, "trialdata": {"rt": -1, "stimulus": "<p id=\"stim\">1</p>", "key_press": -1, "trial_type": "single-stim", "trial_index": 263, "time_elapsed": 1130069, "internal_node_id": "0.0-191.0-9.0"}}, {"uniqueid": "MTK0429:369J354OFEHW5JICPP4OQOHCKEH6GK", "current_trial": 264, "dateTime": 1510868792066, "trialdata": {"rt": -1, "stimulus": "<p id=\"stim\">+</p>", "key_press": -1, "type": "FIXATION", "trial_type": "single-stim", "trial_index": 264, "time_elapsed": 1131575, "internal_node_id": "0.0-192.0-0.0"}}, {"uniqueid": "MTK0429:369J354OFEHW5JICPP4OQOHCKEH6GK", "current_trial": 265, "dateTime": 1510868794556, "trialdata": {"rt": -1000, "stimulus": "/static/audio/wordpool/SHORTCAKE.wav", "key_press": -1, "type": "PRES_AUD", "word": "shortcake", "wordID": 1291, "conditions": [12, 1600, "a", 12000], "trial": 7, "serialpos": 0, "trial_type": "single-audio", "trial_index": 265, "time_elapsed": 1134065, "internal_node_id": "0.0-193.0"}}, {"uniqueid": "MTK0429:369J354OFEHW5JICPP4OQOHCKEH6GK", "current_trial": 266, "dateTime": 1510868797180, "trialdata": {"rt": -1000, "stimulus": "/static/audio/wordpool/HEDGE.wav", "key_press": -1, "type": "PRES_AUD", "word": "hedge", "wordID": 698, "conditions": [12, 1600, "a", 12000], "trial": 7, "serialpos": 1, "trial_type": "single-audio", "trial_index": 266, "time_elapsed": 1136689, "internal_node_id": "0.0-194.0"}}, {"uniqueid": "MTK0429:369J354OFEHW5JICPP4OQOHCKEH6GK", "current_trial": 267, "dateTime": 1510868799952, "trialdata": {"rt": -1000, "stimulus": "/static/audio/wordpool/PORTRAIT.wav", "key_press": -1, "type": "PRES_AUD", "word": "portrait", "wordID": 1110, "conditions": [12, 1600, "a", 12000], "trial": 7, "serialpos": 2, "trial_type": "single-audio", "trial_index": 267, "time_elapsed": 1139461, "internal_node_id": "0.0-195.0"}}, {"uniqueid": "MTK0429:369J354OFEHW5JICPP4OQOHCKEH6GK", "current_trial": 268, "dateTime": 1510868802650, "trialdata": {"rt": -1000, "stimulus": "/static/audio/wordpool/PICTURE.wav", "key_press": -1, "type": "PRES_AUD", "word": "picture", "wordID": 1060, "conditions": [12, 1600, "a", 12000], "trial": 7, "serialpos": 3, "trial_type": "single-audio", "trial_index": 268, "time_elapsed": 1142159, "internal_node_id": "0.0-196.0"}}, {"uniqueid": "MTK0429:369J354OFEHW5JICPP4OQOHCKEH6GK", "current_trial": 269, "dateTime": 1510868805383, "trialdata": {"rt": -1000, "stimulus": "/static/audio/wordpool/BULLET.wav", "key_press": -1, "type": "PRES_AUD", "word": "bullet", "wordID": 193, "conditions": [12, 1600, "a", 12000], "trial": 7, "serialpos": 4, "trial_type": "single-audio", "trial_index": 269, "time_elapsed": 1144892, "internal_node_id": "0.0-197.0"}}, {"uniqueid": "MTK0429:369J354OFEHW5JICPP4OQOHCKEH6GK", "current_trial": 270, "dateTime": 1510868808087, "trialdata": {"rt": -1000, "stimulus": "/static/audio/wordpool/ACTOR.wav", "key_press": -1, "type": "