{"condition": 0, "counterbalance": 641, "assignmentId": "3F0BG9B9MQUFVAHH25VM32OCJ967Y8", "workerId": "MTK0236", "hitId": "3ACRLU860NL24X5MPJQ6CHM874SBET", "currenttrial": 627, "bonus": 0, "data": [{"uniqueid": "MTK0236:3F0BG9B9MQUFVAHH25VM32OCJ967Y8", "current_trial": 0, "dateTime": 1510673179908, "trialdata": {"rt": 28286, "key_press": 70, "type": "INSTRUCTIONS", "trial_type": "text", "trial_index": 0, "time_elapsed": 28286, "internal_node_id": "0.0-0.0"}}, {"uniqueid": "MTK0236:3F0BG9B9MQUFVAHH25VM32OCJ967Y8", "current_trial": 1, "dateTime": 1510673200162, "trialdata": {"rt": 20254, "key_press": 71, "type": "INSTRUCTIONS", "trial_type": "text", "trial_index": 1, "time_elapsed": 48540, "internal_node_id": "0.0-1.0"}}, {"uniqueid": "MTK0236:3F0BG9B9MQUFVAHH25VM32OCJ967Y8", "current_trial": 2, "dateTime": 1510673213753, "trialdata": {"rt": [13583], "responses": ["ocean"], "type": "AUDIO_TEST", "trial_type": "audio-test", "trial_index": 2, "time_elapsed": 62130, "internal_node_id": "0.0-2.0"}}, {"uniqueid": "MTK0236:3F0BG9B9MQUFVAHH25VM32OCJ967Y8", "current_trial": 3, "dateTime": 1510673221954, "trialdata": {"rt": [8198], "responses": ["crystal"], "type": "AUDIO_TEST", "trial_type": "audio-test", "trial_index": 3, "time_elapsed": 70332, "internal_node_id": "0.0-3.0"}}, {"uniqueid": "MTK0236:3F0BG9B9MQUFVAHH25VM32OCJ967Y8", "current_trial": 4, "dateTime": 1510673232189, "trialdata": {"rt": [10233], "responses": ["spice"], "type": "AUDIO_TEST", "trial_type": "audio-test", "trial_index": 4, "time_elapsed": 80567, "internal_node_id": "0.0-4.0"}}, {"uniqueid": "MTK0236:3F0BG9B9MQUFVAHH25VM32OCJ967Y8", "current_trial": 5, "dateTime": 1510673262270, "trialdata": {"rt": 29329, "responses": "{\"Q0\":\"9 PM\",\"Q1\":\"8 AM\",\"Q2\":\"5\"}", "type": "SLEEP_SURVEY", "trial_type": "survey-text", "trial_index": 5, "time_elapsed": 110648, "internal_node_id": "0.0-5.0"}}, {"uniqueid": "MTK0236:3F0BG9B9MQUFVAHH25VM32OCJ967Y8", "current_trial": 6, "dateTime": 1510673334194, "trialdata": {"rt": 70920, "key_press": 74, "type": "INSTRUCTIONS", "trial_type": "text", "trial_index": 6, "time_elapsed": 182572, "internal_node_id": "0.0-6.0"}}, {"uniqueid": "MTK0236:3F0BG9B9MQUFVAHH25VM32OCJ967Y8", "current_trial": 7, "dateTime": 1510673356547, "trialdata": {"rt": 21847, "key_press": 71, "type": "INSTRUCTIONS", "trial_type": "text", "trial_index": 7, "time_elapsed": 204925, "internal_node_id": "0.0-7.0"}}, {"uniqueid": "MTK0236:3F0BG9B9MQUFVAHH25VM32OCJ967Y8", "current_trial": 8, "dateTime": 1510673393568, "trialdata": {"rt": 36518, "key_press": 82, "type": "INSTRUCTIONS", "trial_type": "text", "trial_index": 8, "time_elapsed": 241946, "internal_node_id": "0.0-8.0"}}, {"uniqueid": "MTK0236:3F0BG9B9MQUFVAHH25VM32OCJ967Y8", "current_trial": 9, "dateTime": 1510673412576, "trialdata": {"rt": [3847, 7174, 9600, 13424, 15304, 17081], "responses": ["15", "8", "14", "24", "9", "15"], "num1": [7, 1, 2, 8, 2, 5, 1], "num2": [1, 4, 8, 6, 4, 5, 3], "num3": [7, 3, 4, 8, 3, 5, 1], "type": "DISTRACTOR", "conditions": [18, 1200, "v", 18000], "trial": 0, "trial_type": "math-distractor", "trial_index": 9, "time_elapsed": 260954, "internal_node_id": "0.0-9.0"}}, {"uniqueid": "MTK0236:3F0BG9B9MQUFVAHH25VM32OCJ967Y8", "current_trial": 10, "dateTime": 1510673415580, "trialdata": {"rt": -1, "stimulus": "<p id=\"stim\">10</p>", "key_press": -1, "trial_type": "single-stim", "trial_index": 10, "time_elapsed": 263958, "internal_node_id": "0.0-10.0-0.0"}}, {"uniqueid": "MTK0236:3F0BG9B9MQUFVAHH25VM32OCJ967Y8", "current_trial": 11, "dateTime": 1510673416581, "trialdata": {"rt": -1, "stimulus": "<p id=\"stim\">9</p>", "key_press": -1, "trial_type": "single-stim", "trial_index": 11, "time_elapsed": 264959, "internal_node_id": "0.0-10.0-1.0"}}, {"uniqueid": "MTK0236:3F0BG9B9MQUFVAHH25VM32OCJ967Y8", "current_trial": 12, "dateTime": 1510673417584, "trialdata": {"rt": -1, "stimulus": "<p id=\"stim\">8</p>", "key_press": -1, "trial_type": "single-stim", "trial_index": 12, "time_elapsed": 265962, "internal_node_id": "0.0-10.0-2.0"}}, {"uniqueid": "MTK0236:3F0BG9B9MQUFVAHH25VM32OCJ967Y8", "current_trial": 13, "dateTime": 1510673418587, "trialdata": {"rt": -1, "stimulus": "<p id=\"stim\">7</p>", "key_press": -1, "trial_type": "single-stim", "trial_index": 13, "time_elapsed": 266965, "internal_node_id": "0.0-10.0-3.0"}}, {"uniqueid": "MTK0236:3F0BG9B9MQUFVAHH25VM32OCJ967Y8", "current_trial": 14, "dateTime": 1510673419590, "trialdata": {"rt": -1, "stimulus": "<p id=\"stim\">6</p>", "key_press": -1, "trial_type": "single-stim", "trial_index": 14, "time_elapsed": 267968, "internal_node_id": "0.0-10.0-4.0"}}, {"uniqueid": "MTK0236:3F0BG9B9MQUFVAHH25VM32OCJ967Y8", "current_trial": 15, "dateTime": 1510673420595, "trialdata": {"rt": -1, "stimulus": "<p id=\"stim\">5</p>", "key_press": -1, "trial_type": "single-stim", "trial_index": 15, "time_elapsed": 268973, "internal_node_id": "0.0-10.0-5.0"}}, {"uniqueid": "MTK0236:3F0BG9B9MQUFVAHH25VM32OCJ967Y8", "current_trial": 16, "dateTime": 1510673421598, "trialdata": {"rt": -1, "stimulus": "<p id=\"stim\">4</p>", "key_press": -1, "trial_type": "single-stim", "trial_index": 16, "time_elapsed": 269976, "internal_node_id": "0.0-10.0-6.0"}}, {"uniqueid": "MTK0236:3F0BG9B9MQUFVAHH25VM32OCJ967Y8", "current_trial": 17, "dateTime": 1510673422603, "trialdata": {"rt": -1, "stimulus": "<p id=\"stim\">3</p>", "key_press": -1, "trial_type": "single-stim", "trial_index": 17, "time_elapsed": 270981, "internal_node_id": "0.0-10.0-7.0"}}, {"uniqueid": "MTK0236:3F0BG9B9MQUFVAHH25VM32OCJ967Y8", "current_trial": 18, "dateTime": 1510673423606, "trialdata": {"rt": -1, "stimulus": "<p id=\"stim\">2</p>", "key_press": -1, "trial_type": "single-stim", "trial_index": 18, "time_elapsed": 271984, "internal_node_id": "0.0-10.0-8.0"}}, {"uniqueid": "MTK0236:3F0BG9B9MQUFVAHH25VM32OCJ967Y8", "current_trial": 19, "dateTime": 1510673424608, "trialdata": {"rt": -1, "stimulus": "<p id=\"stim\">1</p>", "key_press": -1, "trial_type": "single-stim", "trial_index": 19, "time_elapsed": 272986, "internal_node_id": "0.0-10.0-9.0"}}, {"uniqueid": "MTK0236:3F0BG9B9MQUFVAHH25VM32OCJ967Y8", "current_trial": 20, "dateTime": 1510673426112, "trialdata": {"rt": -1, "stimulus": "<p id=\"stim\">+</p>", "key_press": -1, "type": "FIXATION", "trial_type": "single-stim", "trial_index": 20, "time_elapsed": 274490, "internal_node_id": "0.0-11.0-0.0"}}, {"uniqueid": "MTK0236:3F0BG9B9MQUFVAHH25VM32OCJ967Y8", "current_trial": 21, "dateTime": 1510673427315, "trialdata": {"rt": -1, "stimulus": "<p id=\"stim\">SUNRISE</p>", "key_press": -1, "type": "PRES_VIS", "word": "sunrise", "wordID": 1406, "conditions": [18, 1200, "v", 18000], "trial": 0, "serialpos": 0, "trial_type": "single-stim", "trial_index": 21, "time_elapsed": 275693, "internal_node_id": "0.0-12.0"}}, {"uniqueid": "MTK0236:3F0BG9B9MQUFVAHH25VM32OCJ967Y8", "current_trial": 22, "dateTime": 1510673429640, "trialdata": {"rt": -1, "stimulus": "<p id=\"stim\">WASP</p>", "key_press": -1, "type": "PRES_VIS", "word": "wasp", "wordID": 1592, "conditions": [18, 1200, "v", 18000], "trial": 0, "serialpos": 1, "trial_type": "single-stim", "trial_index": 22, "time_elapsed": 278018, "internal_node_id": "0.0-13.0"}}, {"uniqueid": "MTK0236:3F0BG9B9MQUFVAHH25VM32OCJ967Y8", "current_trial": 23, "dateTime": 1510673431978, "trialdata": {"rt": -1, "stimulus": "<p id=\"stim\">CIGAR</p>", "key_press": -1, "type": "PRES_VIS", "word": "cigar", "wordID": 307, "conditions": [18, 1200, "v", 18000], "trial": 0, "serialpos": 2, "trial_type": "single-stim", "trial_index": 23, "time_elapsed": 280356, "internal_node_id": "0.0-14.0"}}, {"uniqueid": "MTK0236:3F0BG9B9MQUFVAHH25VM32OCJ967Y8", "current_trial": 24, "dateTime": 1510673434080, "trialdata": {"rt": -1, "stimulus": "<p id=\"stim\">EYELASH</p>", "key_press": -1, "type": "PRES_VIS", "word": "eyelash", "wordID": 545, "conditions": [18, 1200, "v", 18000], "trial": 0, "serialpos": 3, "trial_type": "single-stim", "trial_index": 24, "time_elapsed": 282458, "internal_node_id": "0.0-15.0"}}, {"uniqueid": "MTK0236:3F0BG9B9MQUFVAHH25VM32OCJ967Y8", "current_trial": 25, "dateTime": 1510673436390, "trialdata": {"rt": -1, "stimulus": "<p id=\"stim\">LETTUCE</p>", "key_press": -1, "type": "PRES_VIS", "word": "lettuce", "wordID": 813, "conditions": [18, 1200, "v", 18000], "trial": 0, "serialpos": 4, "trial_type": "single-stim", "trial_index": 25, "time_elapsed": 284768, "internal_node_id": "0.0-16.0"}}, {"uniqueid": "MTK0236:3F0BG9B9MQUFVAHH25VM32OCJ967Y8", "current_trial": 26, "dateTime": 1510673438636, "trialdata": {"rt": -1, "stimulus": "<p id=\"stim\">PANTHER</p>", "key_press": -1, "type": "PRES_VIS", "word": "panther", "wordID": 1008, "conditions": [18, 1200, "v", 18000], "trial": 0, "serialpos": 5, "trial_type": "single-stim", "trial_index": 26, "time_elapsed": 287014, "internal_node_id": "0.0-17.0"}}, {"uniqueid": "MTK0236:3F0BG9B9MQUFVAHH25VM32OCJ967Y8", "current_trial": 27, "dateTime": 1510673440876, "trialdata": {"rt": -1, "stimulus": "<p id=\"stim\">BRIEFCASE</p>", "key_press": -1, "type": "PRES_VIS", "word": "briefcase", "wordID": 174, "conditions": [18, 1200, "v", 18000], "trial": 0, "serialpos": 6, "trial_type": "single-stim", "trial_index": 27, "time_elapsed": 289250, "internal_node_id": "0.0-18.0"}}, {"uniqueid": "MTK0236:3F0BG9B9MQUFVAHH25VM32OCJ967Y8", "current_trial": 28, "dateTime": 1510673442956, "trialdata": {"rt": -1, "stimulus": "<p id=\"stim\">MARKER</p>", "key_press": -1, "type": "PRES_VIS", "word": "marker", "wordID": 869, "conditions": [18, 1200, "v", 18000], "trial": 0, "serialpos": 7, "trial_type": "single-stim", "trial_index": 28, "time_elapsed": 291334, "internal_node_id": "0.0-19.0"}}, {"uniqueid": "MTK0236:3F0BG9B9MQUFVAHH25VM32OCJ967Y8", "current_trial": 29, "dateTime": 1510673445308, "trialdata": {"rt": -1, "stimulus": "<p id=\"stim\">PERMIT</p>", "key_press": -1, "type": "PRES_VIS", "word": "permit", "wordID": 1050, "conditions": [18, 1200, "v", 18000], "trial": 0, "serialpos": 8, "trial_type": "single-stim", "trial_index": 29, "time_elapsed": 293686, "internal_node_id": "0.0-20.0"}}, {"uniqueid": "MTK0236:3F0BG9B9MQUFVAHH25VM32OCJ967Y8", "current_trial": 30, "dateTime": 1510673447348, "trialdata": {"rt": -1, "stimulus": "<p id=\"stim\">COLLEGE</p>", "key_press": -1, "type": "PRES_VIS", "word": "college", "wordID": 345, "conditions": [18, 1200, "v", 18000], "trial": 0, "serialpos": 9, "trial_type": "single-stim", "trial_index": 30, "time_elapsed": 295726, "internal_node_id": "0.0-21.0"}}, {"uniqueid": "MTK0236:3F0BG9B9MQUFVAHH25VM32OCJ967Y8", "current_trial": 31, "dateTime": 1510673449436, "trialdata": {"rt": -1, "stimulus": "<p id=\"stim\">TURNIP</p>", "key_press": -1, "type": "PRES_VIS", "word": "turnip", "wordID": 1520, "conditions": [18, 1200, "v", 18000], "trial": 0, "serialpos": 10, "trial_type": "single-stim", "trial_index": 31, "time_elapsed": 297814, "internal_node_id": "0.0-22.0"}}, {"uniqueid": "MTK0236:3F0BG9B9MQUFVAHH25VM32OCJ967Y8", "current_trial": 32, "dateTime": 1510673451778, "trialdata": {"rt": -1, "stimulus": "<p id=\"stim\">POCKET</p>", "key_press": -1, "type": "PRES_VIS", "word": "pocket", "wordID": 1092, "conditions": [18, 1200, "v", 18000], "trial": 0, "serialpos": 11, "trial_type": "single-stim", "trial_index": 32, "time_elapsed": 300156, "internal_node_id": "0.0-23.0"}}, {"uniqueid": "MTK0236:3F0BG9B9MQUFVAHH25VM32OCJ967Y8", "current_trial": 33, "dateTime": 1510673454039, "trialdata": {"rt": -1, "stimulus": "<p id=\"stim\">MACHINE</p>", "key_press": -1, "type": "PRES_VIS", "word": "machine", "wordID": 851, "conditions": [18, 1200, "v", 18000], "trial": 0, "serialpos": 12, "trial_type": "single-stim", "trial_index": 33, "time_elapsed": 302417, "internal_node_id": "0.0-24.0"}}, {"uniqueid": "MTK0236:3F0BG9B9MQUFVAHH25VM32OCJ967Y8", "current_trial": 34, "dateTime": 1510673456050, "trialdata": {"rt": -1, "stimulus": "<p id=\"stim\">LION</p>", "key_press": -1, "type": "PRES_VIS", "word": "lion", "wordID": 826, "conditions": [18, 1200, "v", 18000], "trial": 0, "serialpos": 13, "trial_type": "single-stim", "trial_index": 34, "time_elapsed": 304428, "internal_node_id": "0.0-25.0"}}, {"uniqueid": "MTK0236:3F0BG9B9MQUFVAHH25VM32OCJ967Y8", "current_trial": 35, "dateTime": 1510673458210, "trialdata": {"rt": -1, "stimulus": "<p id=\"stim\">BANJO</p>", "key_press": -1, "type": "PRES_VIS", "word": "banjo", "wordID": 81, "conditions": [18, 1200, "v", 18000], "trial": 0, "serialpos": 14, "trial_type": "single-stim", "trial_index": 35, "time_elapsed": 306588, "internal_node_id": "0.0-26.0"}}, {"uniqueid": "MTK0236:3F0BG9B9MQUFVAHH25VM32OCJ967Y8", "current_trial": 36, "dateTime": 1510673460480, "trialdata": {"rt": -1, "stimulus": "<p id=\"stim\">COUNTRY</p>", "key_press": -1, "type": "PRES_VIS", "word": "country", "wordID": 387, "conditions": [18, 1200, "v", 18000], "trial": 0, "serialpos": 15, "trial_type": "single-stim", "trial_index": 36, "time_elapsed": 308858, "internal_node_id": "0.0-27.0"}}, {"uniqueid": "MTK0236:3F0BG9B9MQUFVAHH25VM32OCJ967Y8", "current_trial": 37, "dateTime": 1510673462548, "trialdata": {"rt": -1, "stimulus": "<p id=\"stim\">WARDROBE</p>", "key_press": -1, "type": "PRES_VIS", "word": "wardrobe", "wordID": 1586, "conditions": [18, 1200, "v", 18000], "trial": 0, "serialpos": 16, "trial_type": "single-stim", "trial_index": 37, "time_elapsed": 310926, "internal_node_id": "0.0-28.0"}}, {"uniqueid": "MTK0236:3F0BG9B9MQUFVAHH25VM32OCJ967Y8", "current_trial": 38, "dateTime": 1510673464918, "trialdata": {"rt": -1, "stimulus": "<p id=\"stim\">OUTLAW</p>", "key_press": -1, "type": "PRES_VIS", "word": "outlaw", "wordID": 988, "conditions": [18, 1200, "v", 18000], "trial": 0, "serialpos": 17, "trial_type": "single-stim", "trial_index": 38, "time_elapsed": 313296, "internal_node_id": "0.0-29.0"}}, {"uniqueid": "MTK0236:3F0BG9B9MQUFVAHH25VM32OCJ967Y8", "current_trial": 39, "dateTime": 1510673467864, "trialdata": {"rt": -1, "stimulus": "", "key_press": -1, "type": "PRE_RECALL_DELAY", "trial_type": "single-stim", "trial_index": 39, "time_elapsed": 316242, "internal_node_id": "0.0-30.0-0.0"}}, {"uniqueid": "MTK0236:3F0BG9B9MQUFVAHH25VM32OCJ967Y8", "current_trial": 40, "dateTime": 1510673468424, "trialdata": {"rt": -1000, "stimulus": "/static/audio/400Hz.wav", "key_press": -1, "type": "PRE_RECALL_ALERT", "trial_type": "single-audio", "trial_index": 40, "time_elapsed": 316802, "internal_node_id": "0.0-31.0"}}, {"uniqueid": "MTK0236:3F0BG9B9MQUFVAHH25VM32OCJ967Y8", "current_trial": 41, "dateTime": 1510673528426, "trialdata": {"rt": [5894, 8133, 10680, 13560, 45379, 46839], "recwords": ["banjo", "lion", "college", "turnip", "", ""], "type": "FREE_RECALL", "conditions": [18, 1200, "v", 18000], "trial": 0, "trial_type": "free-recall", "trial_index": 41, "time_elapsed": 376804, "internal_node_id": "0.0-32.0-0.0"}}, {"uniqueid": "MTK0236:3F0BG9B9MQUFVAHH25VM32OCJ967Y8", "current_trial": 42, "dateTime": 1510673532880, "trialdata": {"rt": 2446, "key_press": 17, "type": "INSTRUCTIONS", "trial_type": "text", "trial_index": 42, "time_elapsed": 381258, "internal_node_id": "0.0-33.0"}}, {"uniqueid": "MTK0236:3F0BG9B9MQUFVAHH25VM32OCJ967Y8", "current_trial": 43, "dateTime": 1510673552888, "trialdata": {"rt": [3156, 6801, 9182, 11735, 13149, 16482], "responses": ["7", "12", "18", "13", "11", "20"], "num1": [3, 2, 9, 6, 4, 7, 6], "num2": [3, 1, 2, 3, 6, 7, 7], "num3": [1, 9, 7, 4, 1, 6, 4], "type": "DISTRACTOR", "conditions": [18, 1200, "a", 18000], "trial": 1, "trial_type": "math-distractor", "trial_index": 43, "time_elapsed": 401266, "internal_node_id": "0.0-34.0"}}, {"uniqueid": "MTK0236:3F0BG9B9MQUFVAHH25VM32OCJ967Y8", "current_trial": 44, "dateTime": 1510673555897, "trialdata": {"rt": -1, "stimulus": "<p id=\"stim\">10</p>", "key_press": -1, "trial_type": "single-stim", "trial_index": 44, "time_elapsed": 404275, "internal_node_id": "0.0-35.0-0.0"}}, {"uniqueid": "MTK0236:3F0BG9B9MQUFVAHH25VM32OCJ967Y8", "current_trial": 45, "dateTime": 1510673556901, "trialdata": {"rt": -1, "stimulus": "<p id=\"stim\">9</p>", "key_press": -1, "trial_type": "single-stim", "trial_index": 45, "time_elapsed": 405279, "internal_node_id": "0.0-35.0-1.0"}}, {"uniqueid": "MTK0236:3F0BG9B9MQUFVAHH25VM32OCJ967Y8", "current_trial": 46, "dateTime": 1510673558865, "trialdata": {"rt": -1, "stimulus": "<p id=\"stim\">8</p>", "key_press": -1, "trial_type": "single-stim", "trial_index": 46, "time_elapsed": 407243, "internal_node_id": "0.0-35.0-2.0"}}, {"uniqueid": "MTK0236:3F0BG9B9MQUFVAHH25VM32OCJ967Y8", "current_trial": 47, "dateTime": 1510673560865, "trialdata": {"rt": -1, "stimulus": "<p id=\"stim\">7</p>", "key_press": -1, "trial_type": "single-stim", "trial_index": 47, "time_elapsed": 409243, "internal_node_id": "0.0-35.0-3.0"}}, {"uniqueid": "MTK0236:3F0BG9B9MQUFVAHH25VM32OCJ967Y8", "current_trial": 48, "dateTime": 1510673561905, "trialdata": {"rt": -1, "stimulus": "<p id=\"stim\">6</p>", "key_press": -1, "trial_type": "single-stim", "trial_index": 48, "time_elapsed": 410283, "internal_node_id": "0.0-35.0-4.0"}}, {"uniqueid": "MTK0236:3F0BG9B9MQUFVAHH25VM32OCJ967Y8", "current_trial": 49, "dateTime": 1510673562906, "trialdata": {"rt": -1, "stimulus": "<p id=\"stim\">5</p>", "key_press": -1, "trial_type": "single-stim", "trial_index": 49, "time_elapsed": 411284, "internal_node_id": "0.0-35.0-5.0"}}, {"uniqueid": "MTK0236:3F0BG9B9MQUFVAHH25VM32OCJ967Y8", "current_trial": 50, "dateTime": 1510673563909, "trialdata": {"rt": -1, "stimulus": "<p id=\"stim\">4</p>", "key_press": -1, "trial_type": "single-stim", "trial_index": 50, "time_elapsed": 412287, "internal_node_id": "0.0-35.0-6.0"}}, {"uniqueid": "MTK0236:3F0BG9B9MQUFVAHH25VM32OCJ967Y8", "current_trial": 51, "dateTime": 1510673564910, "trialdata": {"rt": -1, "stimulus": "<p id=\"stim\">3</p>", "key_press": -1, "trial_type": "single-stim", "trial_index": 51, "time_elapsed": 413288, "internal_node_id": "0.0-35.0-7.0"}}, {"uniqueid": "MTK0236:3F0BG9B9MQUFVAHH25VM32OCJ967Y8", "current_trial": 52, "dateTime": 1510673565911, "trialdata": {"rt": -1, "stimulus": "<p id=\"stim\">2</p>", "key_press": -1, "trial_type": "single-stim", "trial_index": 52, "time_elapsed": 414289, "internal_node_id": "0.0-35.0-8.0"}}, {"uniqueid": "MTK0236:3F0BG9B9MQUFVAHH25VM32OCJ967Y8", "current_trial": 53, "dateTime": 1510673566913, "trialdata": {"rt": -1, "stimulus": "<p id=\"stim\">1</p>", "key_press": -1, "trial_type": "single-stim", "trial_index": 53, "time_elapsed": 415291, "internal_node_id": "0.0-35.0-9.0"}}, {"uniqueid": "MTK0236:3F0BG9B9MQUFVAHH25VM32OCJ967Y8", "current_trial": 54, "dateTime": 1510673568417, "trialdata": {"rt": -1, "stimulus": "<p id=\"stim\">+</p>", "key_press": -1, "type": "FIXATION", "trial_type": "single-stim", "trial_index": 54, "time_elapsed": 416795, "internal_node_id": "0.0-36.0-0.0"}}, {"uniqueid": "MTK0236:3F0BG9B9MQUFVAHH25VM32OCJ967Y8", "current_trial": 55, "dateTime": 1510673570611, "trialdata": {"rt": -1000, "stimulus": "/static/audio/wordpool/COSTUME.wav", "key_press": -1, "type": "PRES_AUD", "word": "costume", "wordID": 382, "conditions": [18, 1200, "a", 18000], "trial": 1, "serialpos": 0, "trial_type": "single-audio", "trial_index": 55, "time_elapsed": 418988, "internal_node_id": "0.0-37.0"}}, {"uniqueid": "MTK0236:3F0BG9B9MQUFVAHH25VM32OCJ967Y8", "current_trial": 56, "dateTime": 1510673572768, "trialdata": {"rt": -1000, "stimulus": "/static/audio/wordpool/CELLAR.wav", "key_press": -1, "type": "PRES_AUD", "word": "cellar", "wordID": 266, "conditions": [18, 1200, "a", 18000], "trial": 1, "serialpos": 1, "trial_type": "single-audio", "trial_index": 56, "time_elapsed": 421146, "internal_node_id": "0.0-38.0"}}, {"uniqueid": "MTK0236:3F0BG9B9MQUFVAHH25VM32OCJ967Y8", "current_trial": 57, "dateTime": 1510673575085, "trialdata": {"rt": -1000, "stimulus": "/static/audio/wordpool/CASHEW.wav", "key_press": -1, "type": "PRES_AUD", "word": "cashew", "wordID": 252, "conditions": [18, 1200, "a", 18000], "trial": 1, "serialpos": 2, "trial_type": "single-audio", "trial_index": 57, "time_elapsed": 423463, "internal_node_id": "0.0-39.0"}}, {"uniqueid": "MTK0236:3F0BG9B9MQUFVAHH25VM32OCJ967Y8", "current_trial": 58, "dateTime": 1510673577153, "trialdata": {"rt": -1000, "stimulus": "/static/audio/wordpool/NECKLACE.wav", "key_press": -1, "type": "PRES_AUD", "word": "necklace", "wordID": 939, "conditions": [18, 1200, "a", 18000], "trial": 1, "serialpos": 3, "trial_type": "single-audio", "trial_index": 58, "time_elapsed": 425531, "internal_node_id": "0.0-40.0"}}, {"uniqueid": "MTK0236:3F0BG9B9MQUFVAHH25VM32OCJ967Y8", "current_trial": 59, "dateTime": 1510673579167, "trialdata": {"rt": -1000, "stimulus": "/static/audio/wordpool/ANTLER.wav", "key_press": -1, "type": "PRES_AUD", "word": "antler", "wordID": 28, "conditions": [18, 1200, "a", 18000], "trial": 1, "serialpos": 4, "trial_type": "single-audio", "trial_index": 59, "time_elapsed": 427545, "internal_node_id": "0.0-41.0"}}, {"uniqueid": "MTK0236:3F0BG9B9MQUFVAHH25VM32OCJ967Y8", "current_trial": 60, "dateTime": 1510673581324, "trialdata": {"rt": -1000, "stimulus": "/static/audio/wordpool/RIFLE.wav", "key_press": -1, "type": "PRES_AUD", "word": "rifle", "wordID": 1191, "conditions": [18, 1200, "a", 18000], "trial": 1, "serialpos": 5, "trial_type": "single-audio", "trial_index": 60, "time_elapsed": 429702, "internal_node_id": "0.0-42.0"}}, {"uniqueid": "MTK0236:3F0BG9B9MQUFVAHH25VM32OCJ967Y8", "current_trial": 61, "dateTime": 1510673583475, "trialdata": {"rt": -1000, "stimulus": "/static/audio/wordpool/PICTURE.wav", "key_press": -1, "type": "PRES_AUD", "word": "picture", "wordID": 1060, "conditions": [18, 1200, "a", 18000], "trial": 1, "serialpos": 6, "trial_type": "single-audio", "trial_index": 61, "time_elapsed": 431853, "internal_node_id": "0.0-43.0"}}, {"uniqueid": "MTK0236:3F0BG9B9MQUFVAHH25VM32OCJ967Y8", "current_trial": 62, "dateTime": 1510673585744, "trialdata": {"rt": -1000, "stimulus": "/static/audio/wordpool/TWEEZERS.wav", "key_press": -1, "type": "PRES_AUD", "word": "tweezers", "wordID": 1525, "conditions": [18, 1200, "a", 18000], "trial": 1, "serialpos": 7, "trial_type": "single-audio", "trial_index": 62, "time_elapsed": 434122, "internal_node_id": "0.0-44.0"}}, {"uniqueid": "MTK0236:3F0BG9B9MQUFVAHH25VM32OCJ967Y8", "current_trial": 63, "dateTime": 1510673587971, "trialdata": {"rt": -1000, "stimulus": "/static/audio/wordpool/CATCHER.wav", "key_press": -1, "type": "PRES_AUD", "word": "catcher", "wordID": 257, "conditions": [18, 1200, "a", 18000], "trial": 1, "serialpos": 8, "trial_type": "single-audio", "trial_index": 63, "time_elapsed": 436349, "internal_node_id": "0.0-45.0"}}, {"uniqueid": "MTK0236:3F0BG9B9MQUFVAHH25VM32OCJ967Y8", "current_trial": 64, "dateTime": 1510673590076, "trialdata": {"rt": -1000, "stimulus": "/static/audio/wordpool/THIEF.wav", "key_press": -1, "type": "PRES_AUD", "word": "thief", "wordID": 1455, "conditions": [18, 1200, "a", 18000], "trial": 1, "serialpos": 9, "trial_type": "single-audio", "trial_index": 64, "time_elapsed": 438454, "internal_node_id": "0.0-46.0"}}, {"uniqueid": "MTK0236:3F0BG9B9MQUFVAHH25VM32OCJ967Y8", "current_trial": 65, "dateTime": 1510673592341, "trialdata": {"rt": -1000, "stimulus": "/static/audio/wordpool/TURTLE.wav", "key_press": -1, "type": "PRES_AUD", "word": "turtle", "wordID": 1521, "conditions": [18, 1200, "a", 18000], "trial": 1, "serialpos": 10, "trial_type": "single-audio", "trial_index": 65, "time_elapsed": 440719, "internal_node_id": "0.0-47.0"}}, {"uniqueid": "MTK0236:3F0BG9B9MQUFVAHH25VM32OCJ967Y8", "current_trial": 66, "dateTime": 1510673594652, "trialdata": {"rt": -1000, "stimulus": "/static/audio/wordpool/PISTON.wav", "key_press": -1, "type": "PRES_AUD", "word": "piston", "wordID": 1075, "conditions": [18, 1200, "a", 18000], "trial": 1, "serialpos": 11, "trial_type": "single-audio", "trial_index": 66, "time_elapsed": 443029, "internal_node_id": "0.0-48.0"}}, {"uniqueid": "MTK0236:3F0BG9B9MQUFVAHH25VM32OCJ967Y8", "current_trial": 67, "dateTime": 1510673597024, "trialdata": {"rt": -1000, "stimulus": "/static/audio/wordpool/BOUQUET.wav", "key_press": -1, "type": "PRES_AUD", "word": "bouquet", "wordID": 156, "conditions": [18, 1200, "a", 18000], "trial": 1, "serialpos": 12, "trial_type": "single-audio", "trial_index": 67, "time_elapsed": 445402, "internal_node_id": "0.0-49.0"}}, {"uniqueid": "MTK0236:3F0BG9B9MQUFVAHH25VM32OCJ967Y8", "current_trial": 68, "dateTime": 1510673599172, "trialdata": {"rt": -1000, "stimulus": "/static/audio/wordpool/ARM.wav", "key_press": -1, "type": "PRES_AUD", "word": "arm", "wordID": 37, "conditions": [18, 1200, "a", 18000], "trial": 1, "serialpos": 13, "trial_type": "single-audio", "trial_index": 68, "time_elapsed": 447550, "internal_node_id": "0.0-50.0"}}, {"uniqueid": "MTK0236:3F0BG9B9MQUFVAHH25VM32OCJ967Y8", "current_trial": 69, "dateTime": 1510673601323, "trialdata": {"rt": -1000, "stimulus": "/static/audio/wordpool/MASK.wav", "key_press": -1, "type": "PRES_AUD", "word": "mask", "wordID": 875, "conditions": [18, 1200, "a", 18000], "trial": 1, "serialpos": 14, "trial_type": "single-audio", "trial_index": 69, "time_elapsed": 449701, "internal_node_id": "0.0-51.0"}}, {"uniqueid": "MTK0236:3F0BG9B9MQUFVAHH25VM32OCJ967Y8", "current_trial": 70, "dateTime": 1510673603681, "trialdata": {"rt": -1000, "stimulus": "/static/audio/wordpool/FOOTBALL.wav", "key_press": -1, "type": "PRES_AUD", "word": "football", "wordID": 590, "conditions": [18, 1200, "a", 18000], "trial": 1, "serialpos": 15, "trial_type": "single-audio", "trial_index": 70, "time_elapsed": 452059, "internal_node_id": "0.0-52.0"}}, {"uniqueid": "MTK0236:3F0BG9B9MQUFVAHH25VM32OCJ967Y8", "current_trial": 71, "dateTime": 1510673605850, "trialdata": {"rt": -1000, "stimulus": "/static/audio/wordpool/TUNNEL.wav", "key_press": -1, "type": "PRES_AUD", "word": "tunnel", "wordID": 1518, "conditions": [18, 1200, "a", 18000], "trial": 1, "serialpos": 16, "trial_type": "single-audio", "trial_index": 71, "time_elapsed": 454228, "internal_node_id": "0.0-53.0"}}, {"uniqueid": "MTK0236:3F0BG9B9MQUFVAHH25VM32OCJ967Y8", "current_trial": 72, "dateTime": 1510673608201, "trialdata": {"rt": -1000, "stimulus": "/static/audio/wordpool/BINDER.wav", "key_press": -1, "type": "PRES_AUD", "word": "binder", "wordID": 126, "conditions": [18, 1200, "a", 18000], "trial": 1, "serialpos": 17, "trial_type": "single-audio", "trial_index": 72, "time_elapsed": 456579, "internal_node_id": "0.0-54.0"}}, {"uniqueid": "MTK0236:3F0BG9B9MQUFVAHH25VM32OCJ967Y8", "current_trial": 73, "dateTime": 1510673609550, "trialdata": {"rt": -1, "stimulus": "", "key_press": -1, "type": "PRE_RECALL_DELAY", "trial_type": "single-stim", "trial_index": 73, "time_elapsed": 457927, "internal_node_id": "0.0-55.0-0.0"}}, {"uniqueid": "MTK0236:3F0BG9B9MQUFVAHH25VM32OCJ967Y8", "current_trial": 74, "dateTime": 1510673610051, "trialdata": {"rt": -1000, "stimulus": "/static/audio/400Hz.wav", "key_press": -1, "type": "PRE_RECALL_ALERT", "trial_type": "single-audio", "trial_index": 74, "time_elapsed": 458429, "internal_node_id": "0.0-56.0"}}, {"uniqueid": "MTK0236:3F0BG9B9MQUFVAHH25VM32OCJ967Y8", "current_trial": 75, "dateTime": 1510673670053, "trialdata": {"rt": [9325, 11781, 21736, 24650, 26729, 29786, 32411, 37348, 40449, 53624, 56376], "recwords": ["football", "turtle", "cellar", "picture", "theif", "collar", "piston", "necklace", "antler", "arm", "tunnel"], "type": "FREE_RECALL", "conditions": [18, 1200, "a", 18000], "trial": 1, "trial_type": "free-recall", "trial_index": 75, "time_elapsed": 518431, "internal_node_id": "0.0-57.0-0.0"}}, {"uniqueid": "MTK0236:3F0BG9B9MQUFVAHH25VM32OCJ967Y8", "current_trial": 76, "dateTime": 1510673691748, "trialdata": {"rt": 19686, "key_press": 45, "type": "INSTRUCTIONS", "trial_type": "text", "trial_index": 76, "time_elapsed": 540122, "internal_node_id": "0.0-58.0"}}, {"uniqueid": "MTK0236:3F0BG9B9MQUFVAHH25VM32OCJ967Y8", "current_trial": 77, "dateTime": 1510673704754, "trialdata": {"rt": [5488, 8122], "responses": ["17", "6"], "num1": [7, 3, 1], "num2": [9, 2, 6], "num3": [1, 1, 5], "type": "DISTRACTOR", "conditions": [24, 800, "a", 12000], "trial": 2, "trial_type": "math-distractor", "trial_index": 77, "time_elapsed": 553132, "internal_node_id": "0.0-59.0"}}, {"uniqueid": "MTK0236:3F0BG9B9MQUFVAHH25VM32OCJ967Y8", "current_trial": 78, "dateTime": 1510673707763, "trialdata": {"rt": -1, "stimulus": "<p id=\"stim\">10</p>", "key_press": -1, "trial_type": "single-stim", "trial_index": 78, "time_elapsed": 556141, "internal_node_id": "0.0-60.0-0.0"}}, {"uniqueid": "MTK0236:3F0BG9B9MQUFVAHH25VM32OCJ967Y8", "current_trial": 79, "dateTime": 1510673708767, "trialdata": {"rt": -1, "stimulus": "<p id=\"stim\">9</p>", "key_press": -1, "trial_type": "single-stim", "trial_index": 79, "time_elapsed": 557145, "internal_node_id": "0.0-60.0-1.0"}}, {"uniqueid": "MTK0236:3F0BG9B9MQUFVAHH25VM32OCJ967Y8", "current_trial": 80, "dateTime": 1510673709772, "trialdata": {"rt": -1, "stimulus": "<p id=\"stim\">8</p>", "key_press": -1, "trial_type": "single-stim", "trial_index": 80, "time_elapsed": 558150, "internal_node_id": "0.0-60.0-2.0"}}, {"uniqueid": "MTK0236:3F0BG9B9MQUFVAHH25VM32OCJ967Y8", "current_trial": 81, "dateTime": 1510673710774, "trialdata": {"rt": -1, "stimulus": "<p id=\"stim\">7</p>", "key_press": -1, "trial_type": "single-stim", "trial_index": 81, "time_elapsed": 559152, "internal_node_id": "0.0-60.0-3.0"}}, {"uniqueid": "MTK0236:3F0BG9B9MQUFVAHH25VM32OCJ967Y8", "current_trial": 82, "dateTime": 1510673711777, "trialdata": {"rt": -1, "stimulus": "<p id=\"stim\">6</p>", "key_press": -1, "trial_type": "single-stim", "trial_index": 82, "time_elapsed": 560155, "internal_node_id": "0.0-60.0-4.0"}}, {"uniqueid": "MTK0236:3F0BG9B9MQUFVAHH25VM32OCJ967Y8", "current_trial": 83, "dateTime": 1510673712781, "trialdata": {"rt": -1, "stimulus": "<p id=\"stim\">5</p>", "key_press": -1, "trial_type": "single-stim", "trial_index": 83, "time_elapsed": 561159, "internal_node_id": "0.0-60.0-5.0"}}, {"uniqueid": "MTK0236:3F0BG9B9MQUFVAHH25VM32OCJ967Y8", "current_trial": 84, "dateTime": 1510673713783, "trialdata": {"rt": -1, "stimulus": "<p id=\"stim\">4</p>", "key_press": -1, "trial_type": "single-stim", "trial_index": 84, "time_elapsed": 562161, "internal_node_id": "0.0-60.0-6.0"}}, {"uniqueid": "MTK0236:3F0BG9B9MQUFVAHH25VM32OCJ967Y8", "current_trial": 85, "dateTime": 1510673714785, "trialdata": {"rt": -1, "stimulus": "<p id=\"stim\">3</p>", "key_press": -1, "trial_type": "single-stim", "trial_index": 85, "time_elapsed": 563163, "internal_node_id": "0.0-60.0-7.0"}}, {"uniqueid": "MTK0236:3F0BG9B9MQUFVAHH25VM32OCJ967Y8", "current_trial": 86, "dateTime": 1510673715787, "trialdata": {"rt": -1, "stimulus": "<p id=\"stim\">2</p>", "key_press": -1, "trial_type": "single-stim", "trial_index": 86, "time_elapsed": 564165, "internal_node_id": "0.0-60.0-8.0"}}, {"uniqueid": "MTK0236:3F0BG9B9MQUFVAHH25VM32OCJ967Y8", "current_trial": 87, "dateTime": 1510673716791, "trialdata": {"rt": -1, "stimulus": "<p id=\"stim\">1</p>", "key_press": -1, "trial_type": "single-stim", "trial_index": 87, "time_elapsed": 565169, "internal_node_id": "0.0-60.0-9.0"}}, {"uniqueid": "MTK0236:3F0BG9B9MQUFVAHH25VM32OCJ967Y8", "current_trial": 88, "dateTime": 1510673718295, "trialdata": {"rt": -1, "stimulus": "<p id=\"stim\">+</p>", "key_press": -1, "type": "FIXATION", "trial_type": "single-stim", "trial_index": 88, "time_elapsed": 566673, "internal_node_id": "0.0-61.0-0.0"}}, {"uniqueid": "MTK0236:3F0BG9B9MQUFVAHH25VM32OCJ967Y8", "current_trial": 89, "dateTime": 1510673720226, "trialdata": {"rt": -1000, "stimulus": "/static/audio/wordpool/CASHIER.wav", "key_press": -1, "type": "PRES_AUD", "word": "cashier", "wordID": 253, "conditions": [24, 800, "a", 12000], "trial": 2, "serialpos": 0, "trial_type": "single-audio", "trial_index": 89, "time_elapsed": 568604, "internal_node_id": "0.0-62.0"}}, {"uniqueid": "MTK0236:3F0BG9B9MQUFVAHH25VM32OCJ967Y8", "current_trial": 90, "dateTime": 1510673722208, "trialdata": {"rt": -1000, "stimulus": "/static/audio/wordpool/NOVEL.wav", "key_press": -1, "type": "PRES_AUD", "word": "novel", "wordID": 959, "conditions": [24, 800, "a", 12000], "trial": 2, "serialpos": 1, "trial_type": "single-audio", "trial_index": 90, "time_elapsed": 570586, "internal_node_id": "0.0-63.0"}}, {"uniqueid": "MTK0236:3F0BG9B9MQUFVAHH25VM32OCJ967Y8", "current_trial": 91, "dateTime": 1510673724185, "trialdata": {"rt": -1000, "stimulus": "/static/audio/wordpool/BEAST.wav", "key_press": -1, "type": "PRES_AUD", "word": "beast", "wordID": 107, "conditions": [24, 800, "a", 12000], "trial": 2, "serialpos": 2, "trial_type": "single-audio", "trial_index": 91, "time_elapsed": 572563, "internal_node_id": "0.0-64.0"}}, {"uniqueid": "MTK0236:3F0BG9B9MQUFVAHH25VM32OCJ967Y8", "current_trial": 92, "dateTime": 1510673725939, "trialdata": {"rt": -1000, "stimulus": "/static/audio/wordpool/WAITER.wav", "key_press": -1, "type": "PRES_AUD", "word": "waiter", "wordID": 1579, "conditions": [24, 800, "a", 12000], "trial": 2, "serialpos": 3, "trial_type": "single-audio", "trial_index": 92, "time_elapsed": 574317, "internal_node_id": "0.0-65.0"}}, {"uniqueid": "MTK0236:3F0BG9B9MQUFVAHH25VM32OCJ967Y8", "current_trial": 93, "dateTime": 1510673727777, "trialdata": {"rt": -1000, "stimulus": "/static/audio/wordpool/CHILD.wav", "key_press": -1, "type": "PRES_AUD", "word": "child", "wordID": 298, "conditions": [24, 800, "a", 12000], "trial": 2, "serialpos": 4, "trial_type": "single-audio", "trial_index": 93, "time_elapsed": 576155, "internal_node_id": "0.0-66.0"}}, {"uniqueid": "MTK0236:3F0BG9B9MQUFVAHH25VM32OCJ967Y8", "current_trial": 94, "dateTime": 1510673729434, "trialdata": {"rt": -1000, "stimulus": "/static/audio/wordpool/SHELTER.wav", "key_press": -1, "type": "PRES_AUD", "word": "shelter", "wordID": 1281, "conditions": [24, 800, "a", 12000], "trial": 2, "serialpos": 5, "trial_type": "single-audio", "trial_index": 94, "time_elapsed": 577812, "internal_node_id": "0.0-67.0"}}, {"uniqueid": "MTK0236:3F0BG9B9MQUFVAHH25VM32OCJ967Y8", "current_trial": 95, "dateTime": 1510673731051, "trialdata": {"rt": -1000, "stimulus": "/static/audio/wordpool/TWIG.wav", "key_press": -1, "type": "PRES_AUD", "word": "twig", "wordID": 1526, "conditions": [24, 800, "a", 12000], "trial": 2, "serialpos": 6, "trial_type": "single-audio", "trial_index": 95, "time_elapsed": 579429, "internal_node_id": "0.0-68.0"}}, {"uniqueid": "MTK0236:3F0BG9B9MQUFVAHH25VM32OCJ967Y8", "current_trial": 96, "dateTime": 1510673732930, "trialdata": {"rt": -1000, "stimulus": "/static/audio/wordpool/EUROPE.wav", "key_press": -1, "type": "PRES_AUD", "word": "europe", "wordID": 540, "conditions": [24, 800, "a", 12000], "trial": 2, "serialpos": 7, "trial_type": "single-audio", "trial_index": 96, "time_elapsed": 581308, "internal_node_id": "0.0-69.0"}}, {"uniqueid": "MTK0236:3F0BG9B9MQUFVAHH25VM32OCJ967Y8", "current_trial": 97, "dateTime": 1510673734834, "trialdata": {"rt": -1000, "stimulus": "/static/audio/wordpool/FOREHEAD.wav", "key_press": -1, "type": "PRES_AUD", "word": "forehead", "wordID": 591, "conditions": [24, 800, "a", 12000], "trial": 2, "serialpos": 8, "trial_type": "single-audio", "trial_index": 97, "time_elapsed": 583212, "internal_node_id": "0.0-70.0"}}, {"uniqueid": "MTK0236:3F0BG9B9MQUFVAHH25VM32OCJ967Y8", "current_trial": 98, "dateTime": 1510673736751, "trialdata": {"rt": -1000, "stimulus": "/static/audio/wordpool/CHEST.wav", "key_press": -1, "type": "PRES_AUD", "word": "chest", "wordID": 294, "conditions": [24, 800, "a", 12000], "trial": 2, "serialpos": 9, "trial_type": "single-audio", "trial_index": 98, "time_elapsed": 585129, "internal_node_id": "0.0-71.0"}}, {"uniqueid": "MTK0236:3F0BG9B9MQUFVAHH25VM32OCJ967Y8", "current_trial": 99, "dateTime": 1510673738545, "trialdata": {"rt": -1000, "stimulus": "/static/audio/wordpool/SLUG.wav", "key_press": -1, "type": "PRES_AUD", "word": "slug", "wordID": 1328, "conditions": [24, 800, "a", 12000], "trial": 2, "serialpos": 10, "trial_type": "single-audio", "trial_index": 99, "time_elapsed": 586923, "internal_node_id": "0.0-72.0"}}, {"uniqueid": "MTK0236:3F0BG9B9MQUFVAHH25VM32OCJ967Y8", "current_trial": 100, "dateTime": 1510673740280, "trialdata": {"rt": -1000, "stimulus": "/static/audio/wordpool/COBRA.wav", "key_press": -1, "type": "PRES_AUD", "word": "cobra", "wordID": 335, "conditions": [24, 800, "a", 12000], "trial": 2, "serialpos": 11, "trial_type": "single-audio", "trial_index": 100, "time_elapsed": 588658, "internal_node_id": "0.0-73.0"}}, {"uniqueid": "MTK0236:3F0BG9B9MQUFVAHH25VM32OCJ967Y8", "current_trial": 101, "dateTime": 1510673742078, "trialdata": {"rt": -1000, "stimulus": "/static/audio/wordpool/TEACHER.wav", "key_press": -1, "type": "PRES_AUD", "word": "teacher", "wordID": 1439, "conditions": [24, 800, "a", 12000], "trial": 2, "serialpos": 12, "trial_type": "single-audio", "trial_index": 101, "time_elapsed": 590456, "internal_node_id": "0.0-74.0"}}, {"uniqueid": "MTK0236:3F0BG9B9MQUFVAHH25VM32OCJ967Y8", "current_trial": 102, "dateTime": 1510673743925, "trialdata": {"rt": -1000, "stimulus": "/static/audio/wordpool/COUCH.wav", "key_press": -1, "type": "PRES_AUD", "word": "couch", "wordID": 385, "conditions": [24, 800, "a", 12000], "trial": 2, "serialpos": 13, "trial_type": "single-audio", "trial_index": 102, "time_elapsed": 592303, "internal_node_id": "0.0-75.0"}}, {"uniqueid": "MTK0236:3F0BG9B9MQUFVAHH25VM32OCJ967Y8", "current_trial": 103, "dateTime": 1510673745801, "trialdata": {"rt": -1000, "stimulus": "/static/audio/wordpool/FIREPLACE.wav", "key_press": -1, "type": "PRES_AUD", "word": "fireplace", "wordID": 569, "conditions": [24, 800, "a", 12000], "trial": 2, "serialpos": 14, "trial_type": "single-audio", "trial_index": 103, "time_elapsed": 594179, "internal_node_id": "0.0-76.0"}}, {"uniqueid": "MTK0236:3F0BG9B9MQUFVAHH25VM32OCJ967Y8", "current_trial": 104, "dateTime": 1510673747487, "trialdata": {"rt": -1000, "stimulus": "/static/audio/wordpool/PRINCESS.wav", "key_press": -1, "type": "PRES_AUD", "word": "princess", "wordID": 1124, "conditions": [24, 800, "a", 12000], "trial": 2, "serialpos": 15, "trial_type": "single-audio", "trial_index": 104, "time_elapsed": 595865, "internal_node_id": "0.0-77.0"}}, {"uniqueid": "MTK0236:3F0BG9B9MQUFVAHH25VM32OCJ967Y8", "current_trial": 105, "dateTime": 1510673749490, "trialdata": {"rt": -1000, "stimulus": "/static/audio/wordpool/QUEEN.wav", "key_press": -1, "type": "PRES_AUD", "word": "queen", "wordID": 1148, "conditions": [24, 800, "a", 12000], "trial": 2, "serialpos": 16, "trial_type": "single-audio", "trial_index": 105, "time_elapsed": 597868, "internal_node_id": "0.0-78.0"}}, {"uniqueid": "MTK0236:3F0BG9B9MQUFVAHH25VM32OCJ967Y8", "current_trial": 106, "dateTime": 1510673751159, "trialdata": {"rt": -1000, "stimulus": "/static/audio/wordpool/DASHBOARD.wav", "key_press": -1, "type": "PRES_AUD", "word": "dashboard", "wordID": 440, "conditions": [24, 800, "a", 12000], "trial": 2, "serialpos": 17, "trial_type": "single-audio", "trial_index": 106, "time_elapsed": 599537, "internal_node_id": "0.0-79.0"}}, {"uniqueid": "MTK0236:3F0BG9B9MQUFVAHH25VM32OCJ967Y8", "current_trial": 107, "dateTime": 1510673753012, "trialdata": {"rt": -1000, "stimulus": "/static/audio/wordpool/DENTIST.wav", "key_press": -1, "type": "PRES_AUD", "word": "dentist", "wordID": 446, "conditions": [24, 800, "a", 12000], "trial": 2, "serialpos": 18, "trial_type": "single-audio", "trial_index": 107, "time_elapsed": 601390, "internal_node_id": "0.0-80.0"}}, {"uniqueid": "MTK0236:3F0BG9B9MQUFVAHH25VM32OCJ967Y8", "current_trial": 108, "dateTime": 1510673754690, "trialdata": {"rt": -1000, "stimulus": "/static/audio/wordpool/KITCHEN.wav", "key_press": -1, "type": "PRES_AUD", "word": "kitchen", "wordID": 777, "conditions": [24, 800, "a", 12000], "trial": 2, "serialpos": 19, "trial_type": "single-audio", "trial_index": 108, "time_elapsed": 603068, "internal_node_id": "0.0-81.0"}}, {"uniqueid": "MTK0236:3F0BG9B9MQUFVAHH25VM32OCJ967Y8", "current_trial": 109, "dateTime": 1510673756506, "trialdata": {"rt": -1000, "stimulus": "/static/audio/wordpool/LEADER.wav", "key_press": -1, "type": "PRES_AUD", "word": "leader", "wordID": 806, "conditions": [24, 800, "a", 12000], "trial": 2, "serialpos": 20, "trial_type": "single-audio", "trial_index": 109, "time_elapsed": 604884, "internal_node_id": "0.0-82.0"}}, {"uniqueid": "MTK0236:3F0BG9B9MQUFVAHH25VM32OCJ967Y8", "current_trial": 110, "dateTime": 1510673758462, "trialdata": {"rt": -1000, "stimulus": "/static/audio/wordpool/STAR.wav", "key_press": -1, "type": "PRES_AUD", "word": "star", "wordID": 1372, "conditions": [24, 800, "a", 12000], "trial": 2, "serialpos": 21, "trial_type": "single-audio", "trial_index": 110, "time_elapsed": 606840, "internal_node_id": "0.0-83.0"}}, {"uniqueid": "MTK0236:3F0BG9B9MQUFVAHH25VM32OCJ967Y8", "current_trial": 111, "dateTime": 1510673760256, "trialdata": {"rt": -1000, "stimulus": "/static/audio/wordpool/POPCORN.wav", "key_press": -1, "type": "PRES_AUD", "word": "popcorn", "wordID": 1103, "conditions": [24, 800, "a", 12000], "trial": 2, "serialpos": 22, "trial_type": "single-audio", "trial_index": 111, "time_elapsed": 608634, "internal_node_id": "0.0-84.0"}}, {"uniqueid": "MTK0236:3F0BG9B9MQUFVAHH25VM32OCJ967Y8", "current_trial": 112, "dateTime": 1510673762007, "trialdata": {"rt": -1000, "stimulus": "/static/audio/wordpool/BRACES.wav", "key_press": -1, "type": "PRES_AUD", "word": "braces", "wordID": 163, "conditions": [24, 800, "a", 12000], "trial": 2, "serialpos": 23, "trial_type": "single-audio", "trial_index": 112, "time_elapsed": 610385, "internal_node_id": "0.0-85.0"}}, {"uniqueid": "MTK0236:3F0BG9B9MQUFVAHH25VM32OCJ967Y8", "current_trial": 113, "dateTime": 1510673763356, "trialdata": {"rt": -1, "stimulus": "", "key_press": -1, "type": "PRE_RECALL_DELAY", "trial_type": "single-stim", "trial_index": 113, "time_elapsed": 611734, "internal_node_id": "0.0-86.0-0.0"}}, {"uniqueid": "MTK0236:3F0BG9B9MQUFVAHH25VM32OCJ967Y8", "current_trial": 114, "dateTime": 1510673763858, "trialdata": {"rt": -1000, "stimulus": "/static/audio/400Hz.wav", "key_press": -1, "type": "PRE_RECALL_ALERT", "trial_type": "single-audio", "trial_index": 114, "time_elapsed": 612235, "internal_node_id": "0.0-87.0"}}, {"uniqueid": "MTK0236:3F0BG9B9MQUFVAHH25VM32OCJ967Y8", "current_trial": 115, "dateTime": 1510673823866, "trialdata": {"rt": [22873, 25024, 27214, 29238, 31964, 35165, 37289, 41204, 43631, 45325, 48998, 51318, 55934], "recwords": ["shelter", "cashier", "popcorn", "couch", "novel", "dashboard", "queen", "princess", "child", "slig", "slug", "cobra", "forehead"], "type": "FREE_RECALL", "conditions": [24, 800, "a", 12000], "trial": 2, "trial_type": "free-recall", "trial_index": 115, "time_elapsed": 672241, "internal_node_id": "0.0-88.0-0.0"}}, {"uniqueid": "MTK0236:3F0BG9B9MQUFVAHH25VM32OCJ967Y8", "current_trial": 116, "dateTime": 1510673826914, "trialdata": {"rt": 1047, "key_press": 70, "type": "INSTRUCTIONS", "trial_type": "text", "trial_index": 116, "time_elapsed": 675292, "internal_node_id": "0.0-89.0"}}, {"uniqueid": "MTK0236:3F0BG9B9MQUFVAHH25VM32OCJ967Y8", "current_trial": 117, "dateTime": 1510673852922, "trialdata": {"rt": [5356, 14623, 16285, 17990, 19803, 22291], "responses": ["17", "15", "16", "14", "10", "20"], "num1": [2, 5, 3, 5, 5, 7, 7], "num2": [9, 1, 7, 5, 2, 5, 2], "num3": [6, 9, 6, 4, 3, 8, 1], "type": "DISTRACTOR", "conditions": [12, 800, "a", 24000], "trial": 3, "trial_type": "math-distractor", "trial_index": 117, "time_elapsed": 701300, "internal_node_id": "0.0-90.0"}}, {"uniqueid": "MTK0236:3F0BG9B9MQUFVAHH25VM32OCJ967Y8", "current_trial": 118, "dateTime": 1510673855927, "trialdata": {"rt": -1, "stimulus": "<p id=\"stim\">10</p>", "key_press": -1, "trial_type": "single-stim", "trial_index": 118, "time_elapsed": 704305, "internal_node_id": "0.0-91.0-0.0"}}, {"uniqueid": "MTK0236:3F0BG9B9MQUFVAHH25VM32OCJ967Y8", "current_trial": 119, "dateTime": 1510673856930, "trialdata": {"rt": -1, "stimulus": "<p id=\"stim\">9</p>", "key_press": -1, "trial_type": "single-stim", "trial_index": 119, "time_elapsed": 705308, "internal_node_id": "0.0-91.0-1.0"}}, {"uniqueid": "MTK0236:3F0BG9B9MQUFVAHH25VM32OCJ967Y8", "current_trial": 120, "dateTime": 1510673857935, "trialdata": {"rt": -1, "stimulus": "<p id=\"stim\">8</p>", "key_press": -1, "trial_type": "single-stim", "trial_index": 120, "time_elapsed": 706313, "internal_node_id": "0.0-91.0-2.0"}}, {"uniqueid": "MTK0236:3F0BG9B9MQUFVAHH25VM32OCJ967Y8", "current_trial": 121, "dateTime": 1510673858936, "trialdata": {"rt": -1, "stimulus": "<p id=\"stim\">7</p>", "key_press": -1, "trial_type": "single-stim", "trial_index": 121, "time_elapsed": 707314, "internal_node_id": "0.0-91.0-3.0"}}, {"uniqueid": "MTK0236:3F0BG9B9MQUFVAHH25VM32OCJ967Y8", "current_trial": 122, "dateTime": 1510673859938, "trialdata": {"rt": -1, "stimulus": "<p id=\"stim\">6</p>", "key_press": -1, "trial_type": "single-stim", "trial_index": 122, "time_elapsed": 708316, "internal_node_id": "0.0-91.0-4.0"}}, {"uniqueid": "MTK0236:3F0BG9B9MQUFVAHH25VM32OCJ967Y8", "current_trial": 123, "dateTime": 1510673860939, "trialdata": {"rt": -1, "stimulus": "<p id=\"stim\">5</p>", "key_press": -1, "trial_type": "single-stim", "trial_index": 123, "time_elapsed": 709317, "internal_node_id": "0.0-91.0-5.0"}}, {"uniqueid": "MTK0236:3F0BG9B9MQUFVAHH25VM32OCJ967Y8", "current_trial": 124, "dateTime": 1510673861940, "trialdata": {"rt": -1, "stimulus": "<p id=\"stim\">4</p>", "key_press": -1, "trial_type": "single-stim", "trial_index": 124, "time_elapsed": 710318, "internal_node_id": "0.0-91.0-6.0"}}, {"uniqueid": "MTK0236:3F0BG9B9MQUFVAHH25VM32OCJ967Y8", "current_trial": 125, "dateTime": 1510673862943, "trialdata": {"rt": -1, "stimulus": "<p id=\"stim\">3</p>", "key_press": -1, "trial_type": "single-stim", "trial_index": 125, "time_elapsed": 711321, "internal_node_id": "0.0-91.0-7.0"}}, {"uniqueid": "MTK0236:3F0BG9B9MQUFVAHH25VM32OCJ967Y8", "current_trial": 126, "dateTime": 1510673863946, "trialdata": {"rt": -1, "stimulus": "<p id=\"stim\">2</p>", "key_press": -1, "trial_type": "single-stim", "trial_index": 126, "time_elapsed": 712324, "internal_node_id": "0.0-91.0-8.0"}}, {"uniqueid": "MTK0236:3F0BG9B9MQUFVAHH25VM32OCJ967Y8", "current_trial": 127, "dateTime": 1510673864947, "trialdata": {"rt": -1, "stimulus": "<p id=\"stim\">1</p>", "key_press": -1, "trial_type": "single-stim", "trial_index": 127, "time_elapsed": 713325, "internal_node_id": "0.0-91.0-9.0"}}, {"uniqueid": "MTK0236:3F0BG9B9MQUFVAHH25VM32OCJ967Y8", "current_trial": 128, "dateTime": 1510673866450, "trialdata": {"rt": -1, "stimulus": "<p id=\"stim\">+</p>", "key_press": -1, "type": "FIXATION", "trial_type": "single-stim", "trial_index": 128, "time_elapsed": 714828, "internal_node_id": "0.0-92.0-0.0"}}, {"uniqueid": "MTK0236:3F0BG9B9MQUFVAHH25VM32OCJ967Y8", "current_trial": 129, "dateTime": 1510673868247, "trialdata": {"rt": -1000, "stimulus": "/static/audio/wordpool/PASTA.wav", "key_press": -1, "type": "PRES_AUD", "word": "pasta", "wordID": 1020, "conditions": [12, 800, "a", 24000], "trial": 3, "serialpos": 0, "trial_type": "single-audio", "trial_index": 129, "time_elapsed": 716625, "internal_node_id": "0.0-93.0"}}, {"uniqueid": "MTK0236:3F0BG9B9MQUFVAHH25VM32OCJ967Y8", "current_trial": 130, "dateTime": 1510673870061, "trialdata": {"rt": -1000, "stimulus": "/static/audio/wordpool/SAUSAGE.wav", "key_press": -1, "type": "PRES_AUD", "word": "sausage", "wordID": 1237, "conditions": [12, 800, "a", 24000], "trial": 3, "serialpos": 1, "trial_type": "single-audio", "trial_index": 130, "time_elapsed": 718439, "internal_node_id": "0.0-94.0"}}, {"uniqueid": "MTK0236:3F0BG9B9MQUFVAHH25VM32OCJ967Y8", "current_trial": 131, "dateTime": 1510673871968, "trialdata": {"rt": -1000, "stimulus": "/static/audio/wordpool/MUFFIN.wav", "key_press": -1, "type": "PRES_AUD", "word": "muffin", "wordID": 928, "conditions": [12, 800, "a", 24000], "trial": 3, "serialpos": 2, "trial_type": "single-audio", "trial_index": 131, "time_elapsed": 720346, "internal_node_id": "0.0-95.0"}}, {"uniqueid": "MTK0236:3F0BG9B9MQUFVAHH25VM32OCJ967Y8", "current_trial": 132, "dateTime": 1510673873735, "trialdata": {"rt": -1000, "stimulus": "/static/audio/wordpool/TWISTER.wav", "key_press": -1, "type": "PRES_AUD", "word": "twister", "wordID": 1529, "conditions": [12, 800, "a", 24000], "trial": 3, "serialpos": 3, "trial_type": "single-audio", "trial_index": 132, "time_elapsed": 722113, "internal_node_id": "0.0-96.0"}}, {"uniqueid": "MTK0236:3F0BG9B9MQUFVAHH25VM32OCJ967Y8", "current_trial": 133, "dateTime": 1510673875422, "trialdata": {"rt": -1000, "stimulus": "/static/audio/wordpool/COFFEE.wav", "key_press": -1, "type": "PRES_AUD", "word": "coffee", "wordID": 340, "conditions": [12, 800, "a", 24000], "trial": 3, "serialpos": 4, "trial_type": "single-audio", "trial_index": 133, "time_elapsed": 723800, "internal_node_id": "0.0-97.0"}}, {"uniqueid": "MTK0236:3F0BG9B9MQUFVAHH25VM32OCJ967Y8", "current_trial": 134, "dateTime": 1510673877323, "trialdata": {"rt": -1000, "stimulus": "/static/audio/wordpool/BALLOON.wav", "key_press": -1, "type": "PRES_AUD", "word": "balloon", "wordID": 74, "conditions": [12, 800, "a", 24000], "trial": 3, "serialpos": 5, "trial_type": "single-audio", "trial_index": 134, "time_elapsed": 725701, "internal_node_id": "0.0-98.0"}}, {"uniqueid": "MTK0236:3F0BG9B9MQUFVAHH25VM32OCJ967Y8", "current_trial": 135, "dateTime": 1510673879135, "trialdata": {"rt": -1000, "stimulus": "/static/audio/wordpool/WIFE.wav", "key_press": -1, "type": "PRES_AUD", "word": "wife", "wordID": 1608, "conditions": [12, 800, "a", 24000], "trial": 3, "serialpos": 6, "trial_type": "single-audio", "trial_index": 135, "time_elapsed": 727513, "internal_node_id": "0.0-99.0"}}, {"uniqueid": "MTK0236:3F0BG9B9MQUFVAHH25VM32OCJ967Y8", "current_trial": 136, "dateTime": 1510673881079, "trialdata": {"rt": -1000, "stimulus": "/static/audio/wordpool/PARROT.wav", "key_press": -1, "type": "PRES_AUD", "word": "parrot", "wordID": 1014, "conditions": [12, 800, "a", 24000], "trial": 3, "serialpos": 7, "trial_type": "single-audio", "trial_index": 136, "time_elapsed": 729457, "internal_node_id": "0.0-100.0"}}, {"uniqueid": "MTK0236:3F0BG9B9MQUFVAHH25VM32OCJ967Y8", "current_trial": 137, "dateTime": 1510673882870, "trialdata": {"rt": -1000, "stimulus": "/static/audio/wordpool/TORTOISE.wav", "key_press": -1, "type": "PRES_AUD", "word": "tortoise", "wordID": 1485, "conditions": [12, 800, "a", 24000], "trial": 3, "serialpos": 8, "trial_type": "single-audio", "trial_index": 137, "time_elapsed": 731248, "internal_node_id": "0.0-101.0"}}, {"uniqueid": "MTK0236:3F0BG9B9MQUFVAHH25VM32OCJ967Y8", "current_trial": 138, "dateTime": 1510673884779, "trialdata": {"rt": -1000, "stimulus": "/static/audio/wordpool/BEEF.wav", "key_press": -1, "type": "PRES_AUD", "word": "beef", "wordID": 112, "conditions": [12, 800, "a", 24000], "trial": 3, "serialpos": 9, "trial_type": "single-audio", "trial_index": 138, "time_elapsed": 733157, "internal_node_id": "0.0-102.0"}}, {"uniqueid": "MTK0236:3F0BG9B9MQUFVAHH25VM32OCJ967Y8", "current_trial": 139, "dateTime": 1510673886772, "trialdata": {"rt": -1000, "stimulus": "/static/audio/wordpool/CITRUS.wav", "key_press": -1, "type": "PRES_AUD", "word": "citrus", "wordID": 312, "conditions": [12, 800, "a", 24000], "trial": 3, "serialpos": 10, "trial_type": "single-audio", "trial_index": 139, "time_elapsed": 735150, "internal_node_id": "0.0-103.0"}}, {"uniqueid": "MTK0236:3F0BG9B9MQUFVAHH25VM32OCJ967Y8", "current_trial": 140, "dateTime": 1510673888587, "trialdata": {"rt": -1000, "stimulus": "/static/audio/wordpool/SPOUSE.wav", "key_press": -1, "type": "PRES_AUD", "word": "spouse", "wordID": 1357, "conditions": [12, 800, "a", 24000], "trial": 3, "serialpos": 11, "trial_type": "single-audio", "trial_index": 140, "time_elapsed": 736965, "internal_node_id": "0.0-104.0"}}, {"uniqueid": "MTK0236:3F0BG9B9MQUFVAHH25VM32OCJ967Y8", "current_trial": 141, "dateTime": 1510673889861, "trialdata": {"rt": -1, "stimulus": "", "key_press": -1, "type": "PRE_RECALL_DELAY", "trial_type": "single-stim", "trial_index": 141, "time_elapsed": 738238, "internal_node_id": "0.0-105.0-0.0"}}, {"uniqueid": "MTK0236:3F0BG9B9MQUFVAHH25VM32OCJ967Y8", "current_trial": 142, "dateTime": 1510673890367, "trialdata": {"rt": -1000, "stimulus": "/static/audio/400Hz.wav", "key_press": -1, "type": "PRE_RECALL_ALERT", "trial_type": "single-audio", "trial_index": 142, "time_elapsed": 738745, "internal_node_id": "0.0-106.0"}}, {"uniqueid": "MTK0236:3F0BG9B9MQUFVAHH25VM32OCJ967Y8", "current_trial": 143, "dateTime": 1510673950371, "trialdata": {"rt": [3963, 7443, 10258, 12943, 15985, 18821, 20850, 28536, 31765], "recwords": ["wife", "spouse", "pasta", "sausage", "twister", "muffin", "pasta", "balloon", "parrot"], "type": "FREE_RECALL", "conditions": [12, 800, "a", 24000], "trial": 3, "trial_type": "free-recall", "trial_index": 143, "time_elapsed": 798749, "internal_node_id": "0.0-107.0-0.0"}}, {"uniqueid": "MTK0236:3F0BG9B9MQUFVAHH25VM32OCJ967Y8", "current_trial": 144, "dateTime": 1510673953152, "trialdata": {"rt": 777, "key_press": 69, "type": "INSTRUCTIONS", "trial_type": "text", "trial_index": 144, "time_elapsed": 801530, "internal_node_id": "0.0-108.0"}}, {"uniqueid": "MTK0236:3F0BG9B9MQUFVAHH25VM32OCJ967Y8", "current_trial": 145, "dateTime": 1510673979156, "trialdata": {"rt": [1986, 5133, 8717, 11093, 13192, 15701, 18238, 21103, 23173], "responses": ["11", "17", "24", "19", "12", "18", "13", "14", "11"], "num1": [6, 6, 8, 7, 6, 7, 5, 6, 7, 2], "num2": [2, 3, 9, 4, 2, 7, 6, 2, 2, 2], "num3": [3, 8, 7, 8, 4, 4, 2, 6, 2, 2], "type": "DISTRACTOR", "conditions": [24, 1600, "a", 24000], "trial": 4, "trial_type": "math-distractor", "trial_index": 145, "time_elapsed": 827534, "internal_node_id": "0.0-109.0"}}, {"uniqueid": "MTK0236:3F0BG9B9MQUFVAHH25VM32OCJ967Y8", "current_trial": 146, "dateTime": 1510673982160, "trialdata": {"rt": -1, "stimulus": "<p id=\"stim\">10</p>", "key_press": -1, "trial_type": "single-stim", "trial_index": 146, "time_elapsed": 830538, "internal_node_id": "0.0-110.0-0.0"}}, {"uniqueid": "MTK0236:3F0BG9B9MQUFVAHH25VM32OCJ967Y8", "current_trial": 147, "dateTime": 1510673983161, "trialdata": {"rt": -1, "stimulus": "<p id=\"stim\">9</p>", "key_press": -1, "trial_type": "single-stim", "trial_index": 147, "time_elapsed": 831539, "internal_node_id": "0.0-110.0-1.0"}}, {"uniqueid": "MTK0236:3F0BG9B9MQUFVAHH25VM32OCJ967Y8", "current_trial": 148, "dateTime": 1510673984166, "trialdata": {"rt": -1, "stimulus": "<p id=\"stim\">8</p>", "key_press": -1, "trial_type": "single-stim", "trial_index": 148, "time_elapsed": 832544, "internal_node_id": "0.0-110.0-2.0"}}, {"uniqueid": "MTK0236:3F0BG9B9MQUFVAHH25VM32OCJ967Y8", "current_trial": 149, "dateTime": 1510673985169, "trialdata": {"rt": -1, "stimulus": "<p id=\"stim\">7</p>", "key_press": -1, "trial_type": "single-stim", "trial_index": 149, "time_elapsed": 833547, "internal_node_id": "0.0-110.0-3.0"}}, {"uniqueid": "MTK0236:3F0BG9B9MQUFVAHH25VM32OCJ967Y8", "current_trial": 150, "dateTime": 1510673986172, "trialdata": {"rt": -1, "stimulus": "<p id=\"stim\">6</p>", "key_press": -1, "trial_type": "single-stim", "trial_index": 150, "time_elapsed": 834550, "internal_node_id": "0.0-110.0-4.0"}}, {"uniqueid": "MTK0236:3F0BG9B9MQUFVAHH25VM32OCJ967Y8", "current_trial": 151, "dateTime": 1510673987175, "trialdata": {"rt": -1, "stimulus": "<p id=\"stim\">5</p>", "key_press": -1, "trial_type": "single-stim", "trial_index": 151, "time_elapsed": 835553, "internal_node_id": "0.0-110.0-5.0"}}, {"uniqueid": "MTK0236:3F0BG9B9MQUFVAHH25VM32OCJ967Y8", "current_trial": 152, "dateTime": 1510673988178, "trialdata": {"rt": -1, "stimulus": "<p id=\"stim\">4</p>", "key_press": -1, "trial_type": "single-stim", "trial_index": 152, "time_elapsed": 836556, "internal_node_id": "0.0-110.0-6.0"}}, {"uniqueid": "MTK0236:3F0BG9B9MQUFVAHH25VM32OCJ967Y8", "current_trial": 153, "dateTime": 1510673989179, "trialdata": {"rt": -1, "stimulus": "<p id=\"stim\">3</p>", "key_press": -1, "trial_type": "single-stim", "trial_index": 153, "time_elapsed": 837557, "internal_node_id": "0.0-110.0-7.0"}}, {"uniqueid": "MTK0236:3F0BG9B9MQUFVAHH25VM32OCJ967Y8", "current_trial": 154, "dateTime": 1510673990183, "trialdata": {"rt": -1, "stimulus": "<p id=\"stim\">2</p>", "key_press": -1, "trial_type": "single-stim", "trial_index": 154, "time_elapsed": 838561, "internal_node_id": "0.0-110.0-8.0"}}, {"uniqueid": "MTK0236:3F0BG9B9MQUFVAHH25VM32OCJ967Y8", "current_trial": 155, "dateTime": 1510673991527, "trialdata": {"rt": -1, "stimulus": "<p id=\"stim\">1</p>", "key_press": -1, "trial_type": "single-stim", "trial_index": 155, "time_elapsed": 839905, "internal_node_id": "0.0-110.0-9.0"}}, {"uniqueid": "MTK0236:3F0BG9B9MQUFVAHH25VM32OCJ967Y8", "current_trial": 156, "dateTime": 1510673993033, "trialdata": {"rt": -1, "stimulus": "<p id=\"stim\">+</p>", "key_press": -1, "type": "FIXATION", "trial_type": "single-stim", "trial_index": 156, "time_elapsed": 841411, "internal_node_id": "0.0-111.0-0.0"}}, {"uniqueid": "MTK0236:3F0BG9B9MQUFVAHH25VM32OCJ967Y8", "current_trial": 157, "dateTime": 1510673995686, "trialdata": {"rt": -1000, "stimulus": "/static/audio/wordpool/DENIM.wav", "key_press": -1, "type": "PRES_AUD", "word": "denim", "wordID": 445, "conditions": [24, 1600, "a", 24000], "trial": 4, "serialpos": 0, "trial_type": "single-audio", "trial_index": 157, "time_elapsed": 844064, "internal_node_id": "0.0-112.0"}}, {"uniqueid": "MTK0236:3F0BG9B9MQUFVAHH25VM32OCJ967Y8", "current_trial": 158, "dateTime": 1510673998442, "trialdata": {"rt": -1000, "stimulus": "/static/audio/wordpool/MARROW.wav", "key_press": -1, "type": "PRES_AUD", "word": "marrow", "wordID": 871, "conditions": [24, 1600, "a", 24000], "trial": 4, "serialpos": 1, "trial_type": "single-audio", "trial_index": 158, "time_elapsed": 846820, "internal_node_id": "0.0-113.0"}}, {"uniqueid": "MTK0236:3F0BG9B9MQUFVAHH25VM32OCJ967Y8", "current_trial": 159, "dateTime": 1510674001186, "trialdata": {"rt": -1000, "stimulus": "/static/audio/wordpool/VALLEY.wav", "key_press": -1, "type": "PRES_AUD", "word": "valley", "wordID": 1544, "conditions": [24, 1600, "a", 24000], "trial": 4, "serialpos": 2, "trial_type": "single-audio", "trial_index": 159, "time_elapsed": 849564, "internal_node_id": "0.0-114.0"}}, {"uniqueid": "MTK0236:3F0BG9B9MQUFVAHH25VM32OCJ967Y8", "current_trial": 160, "dateTime": 1510674003939, "trialdata": {"rt": -1000, "stimulus": "/static/audio/wordpool/SHORTS.wav", "key_press": -1, "type": "PRES_AUD", "word": "shorts", "wordID": 1292, "conditions": [24, 1600, "a", 24000], "trial": 4, "serialpos": 3, "trial_type": "single-audio", "trial_index": 160, "time_elapsed": 852317, "internal_node_id": "0.0-115.0"}}, {"uniqueid": "MTK0236:3F0BG9B9MQUFVAHH25VM32OCJ967Y8", "current_trial": 161, "dateTime": 1510674006597, "trialdata": {"rt": -1000, "stimulus": "/static/audio/wordpool/CLOUD.wav", "key_press": -1, "type": "PRES_AUD", "word": "cloud", "wordID": 327, "conditions": [24, 1600, "a", 24000], "trial": 4, "serialpos": 4, "trial_type": "single-audio", "trial_index": 161, "time_elapsed": 854975, "internal_node_id": "0.0-116.0"}}, {"uniqueid": "MTK0236:3F0BG9B9MQUFVAHH25VM32OCJ967Y8", "current_trial": 162, "dateTime": 1510674009068, "trialdata": {"rt": -1000, "stimulus": "/static/audio/wordpool/DIVER.wav", "key_press": -1, "type": "PRES_AUD", "word": "diver", "wordID": 475, "conditions": [24, 1600, "a", 24000], "trial": 4, "serialpos": 5, "trial_type": "single-audio", "trial_index": 162, "time_elapsed": 857446, "internal_node_id": "0.0-117.0"}}, {"uniqueid": "MTK0236:3F0BG9B9MQUFVAHH25VM32OCJ967Y8", "current_trial": 163, "dateTime": 1510674011730, "trialdata": {"rt": -1000, "stimulus": "/static/audio/wordpool/HIGHWAY.wav", "key_press": -1, "type": "PRES_AUD", "word": "highway", "wordID": 706, "conditions": [24, 1600, "a", 24000], "trial": 4, "serialpos": 6, "trial_type": "single-audio", "trial_index": 163, "time_elapsed": 860108, "internal_node_id": "0.0-118.0"}}, {"uniqueid": "MTK0236:3F0BG9B9MQUFVAHH25VM32OCJ967Y8", "current_trial": 164, "dateTime": 1510674014226, "trialdata": {"rt": -1000, "stimulus": "/static/audio/wordpool/PIANO.wav", "key_press": -1, "type": "PRES_AUD", "word": "piano", "wordID": 1056, "conditions": [24, 1600, "a", 24000], "trial": 4, "serialpos": 7, "trial_type": "single-audio", "trial_index": 164, "time_elapsed": 862604, "internal_node_id": "0.0-119.0"}}, {"uniqueid": "MTK0236:3F0BG9B9MQUFVAHH25VM32OCJ967Y8", "current_trial": 165, "dateTime": 1510674016874, "trialdata": {"rt": -1000, "stimulus": "/static/audio/wordpool/GUITAR.wav", "key_press": -1, "type": "PRES_AUD", "word": "guitar", "wordID": 669, "conditions": [24, 1600, "a", 24000], "trial": 4, "serialpos": 8, "trial_type": "single-audio", "trial_index": 165, "time_elapsed": 865252, "internal_node_id": "0.0-120.0"}}, {"uniqueid": "MTK0236:3F0BG9B9MQUFVAHH25VM32OCJ967Y8", "current_trial": 166, "dateTime": 1510674019628, "trialdata": {"rt": -1000, "stimulus": "/static/audio/wordpool/FOOT.wav", "key_press": -1, "type": "PRES_AUD", "word": "foot", "wordID": 589, "conditions": [24, 1600, "a", 24000], "trial": 4, "serialpos": 9, "trial_type": "single-audio", "trial_index": 166, "time_elapsed": 868006, "internal_node_id": "0.0-121.0"}}, {"uniqueid": "MTK0236:3F0BG9B9MQUFVAHH25VM32OCJ967Y8", "current_trial": 167, "dateTime": 1510674022342, "trialdata": {"rt": -1000, "stimulus": "/static/audio/wordpool/GUARD.wav", "key_press": -1, "type": "PRES_AUD", "word": "guard", "wordID": 666, "conditions": [24, 1600, "a", 24000], "trial": 4, "serialpos": 10, "trial_type": "single-audio", "trial_index": 167, "time_elapsed": 870720, "internal_node_id": "0.0-122.0"}}, {"uniqueid": "MTK0236:3F0BG9B9MQUFVAHH25VM32OCJ967Y8", "current_trial": 168, "dateTime": 1510674025091, "trialdata": {"rt": -1000, "stimulus": "/static/audio/wordpool/CANYON.wav", "key_press": -1, "type": "PRES_AUD", "word": "canyon", "wordID": 234, "conditions": [24, 1600, "a", 24000], "trial": 4, "serialpos": 11, "trial_type": "single-audio", "trial_index": 168, "time_elapsed": 873469, "internal_node_id": "0.0-123.0"}}, {"uniqueid": "MTK0236:3F0BG9B9MQUFVAHH25VM32OCJ967Y8", "current_trial": 169, "dateTime": 1510674027637, "trialdata": {"rt": -1000, "stimulus": "/static/audio/wordpool/SWORD.wav", "key_press": -1, "type": "PRES_AUD", "word": "sword", "wordID": 1422, "conditions": [24, 1600, "a", 24000], "trial": 4, "serialpos": 12, "trial_type": "single-audio", "trial_index": 169, "time_elapsed": 876015, "internal_node_id": "0.0-124.0"}}, {"uniqueid": "MTK0236:3F0BG9B9MQUFVAHH25VM32OCJ967Y8", "current_trial": 170, "dateTime": 1510674030359, "trialdata": {"rt": -1000, "stimulus": "/static/audio/wordpool/SCARF.wav", "key_press": -1, "type": "PRES_AUD", "word": "scarf", "wordID": 1245, "conditions": [24, 1600, "a", 24000], "trial": 4, "serialpos": 13, "trial_type": "single-audio", "trial_index": 170, "time_elapsed": 878737, "internal_node_id": "0.0-125.0"}}, {"uniqueid": "MTK0236:3F0BG9B9MQUFVAHH25VM32OCJ967Y8", "current_trial": 171, "dateTime": 1510674033093, "trialdata": {"rt": -1000, "stimulus": "/static/audio/wordpool/DAUGHTER.wav", "key_press": -1, "type": "PRES_AUD", "word": "daughter", "wordID": 441, "conditions": [24, 1600, "a", 24000], "trial": 4, "serialpos": 14, "trial_type": "single-audio", "trial_index": 171, "time_elapsed": 881471, "internal_node_id": "0.0-126.0"}}, {"uniqueid": "MTK0236:3F0BG9B9MQUFVAHH25VM32OCJ967Y8", "current_trial": 172, "dateTime": 1510674035546, "trialdata": {"rt": -1000, "stimulus": "/static/audio/wordpool/CROSS.wav", "key_press": -1, "type": "PRES_AUD", "word": "cross", "wordID": 412, "conditions": [24, 1600, "a", 24000], "trial": 4, "serialpos": 15, "trial_type": "single-audio", "trial_index": 172, "time_elapsed": 883924, "internal_node_id": "0.0-127.0"}}, {"uniqueid": "MTK0236:3F0BG9B9MQUFVAHH25VM32OCJ967Y8", "current_trial": 173, "dateTime": 1510674038189, "trialdata": {"rt": -1000, "stimulus": "/static/audio/wordpool/PASTRY.wav", "key_press": -1, "type": "PRES_AUD", "word": "pastry", "wordID": 1021, "conditions": [24, 1600, "a", 24000], "trial": 4, "serialpos": 16, "trial_type": "single-audio", "trial_index": 173, "time_elapsed": 886567, "internal_node_id": "0.0-128.0"}}, {"uniqueid": "MTK0236:3F0BG9B9MQUFVAHH25VM32OCJ967Y8", "current_trial": 174, "dateTime": 1510674040916, "trialdata": {"rt": -1000, "stimulus": "/static/audio/wordpool/COWBOY.wav", "key_press": -1, "type": "PRES_AUD", "word": "cowboy", "wordID": 394, "conditions": [24, 1600, "a", 24000], "trial": 4, "serialpos": 17, "trial_type": "single-audio", "trial_index": 174, "time_elapsed": 889294, "internal_node_id": "0.0-129.0"}}, {"uniqueid": "MTK0236:3F0BG9B9MQUFVAHH25VM32OCJ967Y8", "current_trial": 175, "dateTime": 1510674043400, "trialdata": {"rt": -1000, "stimulus": "/static/audio/wordpool/ARMY.wav", "key_press": -1, "type": "PRES_AUD", "word": "army", "wordID": 38, "conditions": [24, 1600, "a", 24000], "trial": 4, "serialpos": 18, "trial_type": "single-audio", "trial_index": 175, "time_elapsed": 891778, "internal_node_id": "0.0-130.0"}}, {"uniqueid": "MTK0236:3F0BG9B9MQUFVAHH25VM32OCJ967Y8", "current_trial": 176, "dateTime": 1510674046070, "trialdata": {"rt": -1000, "stimulus": "/static/audio/wordpool/CANAL.wav", "key_press": -1, "type": "PRES_AUD", "word": "canal", "wordID": 225, "conditions": [24, 1600, "a", 24000], "trial": 4, "serialpos": 19, "trial_type": "single-audio", "trial_index": 176, "time_elapsed": 894448, "internal_node_id": "0.0-131.0"}}, {"uniqueid": "MTK0236:3F0BG9B9MQUFVAHH25VM32OCJ967Y8", "current_trial": 177, "dateTime": 1510674048718, "trialdata": {"rt": -1000, "stimulus": "/static/audio/wordpool/LAGOON.wav", "key_press": -1, "type": "PRES_AUD", "word": "lagoon", "wordID": 794, "conditions": [24, 1600, "a", 24000], "trial": 4, "serialpos": 20, "trial_type": "single-audio", "trial_index": 177, "time_elapsed": 897095, "internal_node_id": "0.0-132.0"}}, {"uniqueid": "MTK0236:3F0BG9B9MQUFVAHH25VM32OCJ967Y8", "current_trial": 178, "dateTime": 1510674051372, "trialdata": {"rt": -1000, "stimulus": "/static/audio/wordpool/WHISKERS.wav", "key_press": -1, "type": "PRES_AUD", "word": "whiskers", "wordID": 1604, "conditions": [24, 1600, "a", 24000], "trial": 4, "serialpos": 21, "trial_type": "single-audio", "trial_index": 178, "time_elapsed": 899750, "internal_node_id": "0.0-133.0"}}, {"uniqueid": "MTK0236:3F0BG9B9MQUFVAHH25VM32OCJ967Y8", "current_trial": 179, "dateTime": 1510674053796, "trialdata": {"rt": -1000, "stimulus": "/static/audio/wordpool/WIDOW.wav", "key_press": -1, "type": "PRES_AUD", "word": "widow", "wordID": 1607, "conditions": [24, 1600, "a", 24000], "trial": 4, "serialpos": 22, "trial_type": "single-audio", "trial_index": 179, "time_elapsed": 902174, "internal_node_id": "0.0-134.0"}}, {"uniqueid": "MTK0236:3F0BG9B9MQUFVAHH25VM32OCJ967Y8", "current_trial": 180, "dateTime": 1510674056329, "trialdata": {"rt": -1000, "stimulus": "/static/audio/wordpool/PREACHER.wav", "key_press": -1, "type": "PRES_AUD", "word": "preacher", "wordID": 1118, "conditions": [24, 1600, "a", 24000], "trial": 4, "serialpos": 23, "trial_type": "single-audio", "trial_index": 180, "time_elapsed": 904707, "internal_node_id": "0.0-135.0"}}, {"uniqueid": "MTK0236:3F0BG9B9MQUFVAHH25VM32OCJ967Y8", "current_trial": 181, "dateTime": 1510674057733, "trialdata": {"rt": -1, "stimulus": "", "key_press": -1, "type": "PRE_RECALL_DELAY", "trial_type": "single-stim", "trial_index": 181, "time_elapsed": 906111, "internal_node_id": "0.0-136.0-0.0"}}, {"uniqueid": "MTK0236:3F0BG9B9MQUFVAHH25VM32OCJ967Y8", "current_trial": 182, "dateTime": 1510674058234, "trialdata": {"rt": -1000, "stimulus": "/static/audio/400Hz.wav", "key_press": -1, "type": "PRE_RECALL_ALERT", "trial_type": "single-audio", "trial_index": 182, "time_elapsed": 906612, "internal_node_id": "0.0-137.0"}}, {"uniqueid": "MTK0236:3F0BG9B9MQUFVAHH25VM32OCJ967Y8", "current_trial": 183, "dateTime": 1510674118237, "trialdata": {"rt": [4591, 6725, 10104, 12342, 18304, 21167, 23296, 30296, 31907, 34394, 36689, 41038, 43739, 45698, 49097, 51669], "recwords": ["denim", "daughter", "preacher", "widow", "soar", "cross", "pastree", "highway", "foot", "guitar", "shorts", "scarf", "guard", "canyon", "cloud", "army"], "type": "FREE_RECALL", "conditions": [24, 1600, "a", 24000], "trial": 4, "trial_type": "free-recall", "trial_index": 183, "time_elapsed": 966615, "internal_node_id": "0.0-138.0-0.0"}}, {"uniqueid": "MTK0236:3F0BG9B9MQUFVAHH25VM32OCJ967Y8", "current_trial": 184, "dateTime": 1510674120478, "trialdata": {"rt": 237, "key_press": 70, "type": "INSTRUCTIONS", "trial_type": "text", "trial_index": 184, "time_elapsed": 968856, "internal_node_id": "0.0-139.0"}}, {"uniqueid": "MTK0236:3F0BG9B9MQUFVAHH25VM32OCJ967Y8", "current_trial": 185, "dateTime": 1510674134488, "trialdata": {"rt": [4073, 5780, 7903, 11319], "responses": ["17", "11", "17", "12"], "num1": [1, 6, 2, 3, 7], "num2": [8, 2, 9, 6, 3], "num3": [8, 3, 6, 3, 6], "type": "DISTRACTOR", "conditions": [12, 1600, "v", 12000], "trial": 5, "trial_type": "math-distractor", "trial_index": 185, "time_elapsed": 982866, "internal_node_id": "0.0-140.0"}}, {"uniqueid": "MTK0236:3F0BG9B9MQUFVAHH25VM32OCJ967Y8", "current_trial": 186, "dateTime": 1510674137492, "trialdata": {"rt": -1, "stimulus": "<p id=\"stim\">10</p>", "key_press": -1, "trial_type": "single-stim", "trial_index": 186, "time_elapsed": 985870, "internal_node_id": "0.0-141.0-0.0"}}, {"uniqueid": "MTK0236:3F0BG9B9MQUFVAHH25VM32OCJ967Y8", "current_trial": 187, "dateTime": 1510674138497, "trialdata": {"rt": -1, "stimulus": "<p id=\"stim\">9</p>", "key_press": -1, "trial_type": "single-stim", "trial_index": 187, "time_elapsed": 986875, "internal_node_id": "0.0-141.0-1.0"}}, {"uniqueid": "MTK0236:3F0BG9B9MQUFVAHH25VM32OCJ967Y8", "current_trial": 188, "dateTime": 1510674139501, "trialdata": {"rt": -1, "stimulus": "<p id=\"stim\">8</p>", "key_press": -1, "trial_type": "single-stim", "trial_index": 188, "time_elapsed": 987879, "internal_node_id": "0.0-141.0-2.0"}}, {"uniqueid": "MTK0236:3F0BG9B9MQUFVAHH25VM32OCJ967Y8", "current_trial": 189, "dateTime": 1510674140503, "trialdata": {"rt": -1, "stimulus": "<p id=\"stim\">7</p>", "key_press": -1, "trial_type": "single-stim", "trial_index": 189, "time_elapsed": 988881, "internal_node_id": "0.0-141.0-3.0"}}, {"uniqueid": "MTK0236:3F0BG9B9MQUFVAHH25VM32OCJ967Y8", "current_trial": 190, "dateTime": 1510674141505, "trialdata": {"rt": -1, "stimulus": "<p id=\"stim\">6</p>", "key_press": -1, "trial_type": "single-stim", "trial_index": 190, "time_elapsed": 989883, "internal_node_id": "0.0-141.0-4.0"}}, {"uniqueid": "MTK0236:3F0BG9B9MQUFVAHH25VM32OCJ967Y8", "current_trial": 191, "dateTime": 1510674142506, "trialdata": {"rt": -1, "stimulus": "<p id=\"stim\">5</p>", "key_press": -1, "trial_type": "single-stim", "trial_index": 191, "time_elapsed": 990884, "internal_node_id": "0.0-141.0-5.0"}}, {"uniqueid": "MTK0236:3F0BG9B9MQUFVAHH25VM32OCJ967Y8", "current_trial": 192, "dateTime": 1510674143511, "trialdata": {"rt": -1, "stimulus": "<p id=\"stim\">4</p>", "key_press": -1, "trial_type": "single-stim", "trial_index": 192, "time_elapsed": 991889, "internal_node_id": "0.0-141.0-6.0"}}, {"uniqueid": "MTK0236:3F0BG9B9MQUFVAHH25VM32OCJ967Y8", "current_trial": 193, "dateTime": 1510674144512, "trialdata": {"rt": -1, "stimulus": "<p id=\"stim\">3</p>", "key_press": -1, "trial_type": "single-stim", "trial_index": 193, "time_elapsed": 992890, "internal_node_id": "0.0-141.0-7.0"}}, {"uniqueid": "MTK0236:3F0BG9B9MQUFVAHH25VM32OCJ967Y8", "current_trial": 194, "dateTime": 1510674145516, "trialdata": {"rt": -1, "stimulus": "<p id=\"stim\">2</p>", "key_press": -1, "trial_type": "single-stim", "trial_index": 194, "time_elapsed": 993894, "internal_node_id": "0.0-141.0-8.0"}}, {"uniqueid": "MTK0236:3F0BG9B9MQUFVAHH25VM32OCJ967Y8", "current_trial": 195, "dateTime": 1510674146521, "trialdata": {"rt": -1, "stimulus": "<p id=\"stim\">1</p>", "key_press": -1, "trial_type": "single-stim", "trial_index": 195, "time_elapsed": 994899, "internal_node_id": "0.0-141.0-9.0"}}, {"uniqueid": "MTK0236:3F0BG9B9MQUFVAHH25VM32OCJ967Y8", "current_trial": 196, "dateTime": 1510674148022, "trialdata": {"rt": -1, "stimulus": "<p id=\"stim\">+</p>", "key_press": -1, "type": "FIXATION", "trial_type": "single-stim", "trial_index": 196, "time_elapsed": 996400, "internal_node_id": "0.0-142.0-0.0"}}, {"uniqueid": "MTK0236:3F0BG9B9MQUFVAHH25VM32OCJ967Y8", "current_trial": 197, "dateTime": 1510674149626, "trialdata": {"rt": -1, "stimulus": "<p id=\"stim\">FUNGUS</p>", "key_press": -1, "type": "PRES_VIS", "word": "fungus", "wordID": 613, "conditions": [12, 1600, "v", 12000], "trial": 5, "serialpos": 0, "trial_type": "single-stim", "trial_index": 197, "time_elapsed": 998004, "internal_node_id": "0.0-143.0"}}, {"uniqueid": "MTK0236:3F0BG9B9MQUFVAHH25VM32OCJ967Y8", "current_trial": 198, "dateTime": 1510674152157, "trialdata": {"rt": -1, "stimulus": "<p id=\"stim\">WITNESS</p>", "key_press": -1, "type": "PRES_VIS", "word": "witness", "wordID": 1617, "conditions": [12, 1600, "v", 12000], "trial": 5, "serialpos": 1, "trial_type": "single-stim", "trial_index": 198, "time_elapsed": 1000535, "internal_node_id": "0.0-144.0"}}, {"uniqueid": "MTK0236:3F0BG9B9MQUFVAHH25VM32OCJ967Y8", "current_trial": 199, "dateTime": 1510674154623, "trialdata": {"rt": -1, "stimulus": "<p id=\"stim\">SISTER</p>", "key_press": -1, "type": "PRES_VIS", "word": "sister", "wordID": 1311, "conditions": [12, 1600, "v", 12000], "trial": 5, "serialpos": 2, "trial_type": "single-stim", "trial_index": 199, "time_elapsed": 1003001, "internal_node_id": "0.0-145.0"}}, {"uniqueid": "MTK0236:3F0BG9B9MQUFVAHH25VM32OCJ967Y8", "current_trial": 200, "dateTime": 1510674157175, "trialdata": {"rt": -1, "stimulus": "<p id=\"stim\">SCALLOP</p>", "key_press": -1, "type": "PRES_VIS", "word": "scallop", "wordID": 1241, "conditions": [12, 1600, "v", 12000], "trial": 5, "serialpos": 3, "trial_type": "single-stim", "trial_index": 200, "time_elapsed": 1005553, "internal_node_id": "0.0-146.0"}}, {"uniqueid": "MTK0236:3F0BG9B9MQUFVAHH25VM32OCJ967Y8", "current_trial": 201, "dateTime": 1510674159927, "trialdata": {"rt": -1, "stimulus": "<p id=\"stim\">MONSTER</p>", "key_press": -1, "type": "PRES_VIS", "word": "monster", "wordID": 911, "conditions": [12, 1600, "v", 12000], "trial": 5, "serialpos": 4, "trial_type": "single-stim", "trial_index": 201, "time_elapsed": 1008305, "internal_node_id": "0.0-147.0"}}, {"uniqueid": "MTK0236:3F0BG9B9MQUFVAHH25VM32OCJ967Y8", "current_trial": 202, "dateTime": 1510674162425, "trialdata": {"rt": -1, "stimulus": "<p id=\"stim\">MARSH</p>", "key_press": -1, "type": "PRES_VIS", "word": "marsh", "wordID": 873, "conditions": [12, 1600, "v", 12000], "trial": 5, "serialpos": 5, "trial_type": "single-stim", "trial_index": 202, "time_elapsed": 1010803, "internal_node_id": "0.0-148.0"}}, {"uniqueid": "MTK0236:3F0BG9B9MQUFVAHH25VM32OCJ967Y8", "current_trial": 203, "dateTime": 1510674164885, "trialdata": {"rt": -1, "stimulus": "<p id=\"stim\">INMATE</p>", "key_press": -1, "type": "PRES_VIS", "word": "inmate", "wordID": 737, "conditions": [12, 1600, "v", 12000], "trial": 5, "serialpos": 6, "trial_type": "single-stim", "trial_index": 203, "time_elapsed": 1013263, "internal_node_id": "0.0-149.0"}}, {"uniqueid": "MTK0236:3F0BG9B9MQUFVAHH25VM32OCJ967Y8", "current_trial": 204, "dateTime": 1510674167323, "trialdata": {"rt": -1, "stimulus": "<p id=\"stim\">NURSE</p>", "key_press": -1, "type": "PRES_VIS", "word": "nurse", "wordID": 962, "conditions": [12, 1600, "v", 12000], "trial": 5, "serialpos": 7, "trial_type": "single-stim", "trial_index": 204, "time_elapsed": 1015701, "internal_node_id": "0.0-150.0"}}, {"uniqueid": "MTK0236:3F0BG9B9MQUFVAHH25VM32OCJ967Y8", "current_trial": 205, "dateTime": 1510674169733, "trialdata": {"rt": -1, "stimulus": "<p id=\"stim\">BLOUSE</p>", "key_press": -1, "type": "PRES_VIS", "word": "blouse", "wordID": 138, "conditions": [12, 1600, "v", 12000], "trial": 5, "serialpos": 8, "trial_type": "single-stim", "trial_index": 205, "time_elapsed": 1018111, "internal_node_id": "0.0-151.0"}}, {"uniqueid": "MTK0236:3F0BG9B9MQUFVAHH25VM32OCJ967Y8", "current_trial": 206, "dateTime": 1510674172165, "trialdata": {"rt": -1, "stimulus": "<p id=\"stim\">TERMITE</p>", "key_press": -1, "type": "PRES_VIS", "word": "termite", "wordID": 1450, "conditions": [12, 1600, "v", 12000], "trial": 5, "serialpos": 9, "trial_type": "single-stim", "trial_index": 206, "time_elapsed": 1020543, "internal_node_id": "0.0-152.0"}}, {"uniqueid": "MTK0236:3F0BG9B9MQUFVAHH25VM32OCJ967Y8", "current_trial": 207, "dateTime": 1510674174929, "trialdata": {"rt": -1, "stimulus": "<p id=\"stim\">CHAPEL</p>", "key_press": -1, "type": "PRES_VIS", "word": "chapel", "wordID": 279, "conditions": [12, 1600, "v", 12000], "trial": 5, "serialpos": 10, "trial_type": "single-stim", "trial_index": 207, "time_elapsed": 1023307, "internal_node_id": "0.0-153.0"}}, {"uniqueid": "MTK0236:3F0BG9B9MQUFVAHH25VM32OCJ967Y8", "current_trial": 208, "dateTime": 1510674177720, "trialdata": {"rt": -1, "stimulus": "<p id=\"stim\">CHURCH</p>", "key_press": -1, "type": "PRES_VIS", "word": "church", "wordID": 306, "conditions": [12, 1600, "v", 12000], "trial": 5, "serialpos": 11, "trial_type": "single-stim", "trial_index": 208, "time_elapsed": 1026098, "internal_node_id": "0.0-154.0"}}, {"uniqueid": "MTK0236:3F0BG9B9MQUFVAHH25VM32OCJ967Y8", "current_trial": 209, "dateTime": 1510674180104, "trialdata": {"rt": -1, "stimulus": "", "key_press": -1, "type": "PRE_RECALL_DELAY", "trial_type": "single-stim", "trial_index": 209, "time_elapsed": 1028482, "internal_node_id": "0.0-155.0-0.0"}}, {"uniqueid": "MTK0236:3F0BG9B9MQUFVAHH25VM32OCJ967Y8", "current_trial": 210, "dateTime": 1510674180608, "trialdata": {"rt": -1000, "stimulus": "/static/audio/400Hz.wav", "key_press": -1, "type": "PRE_RECALL_ALERT", "trial_type": "single-audio", "trial_index": 210, "time_elapsed": 1028986, "internal_node_id": "0.0-156.0"}}, {"uniqueid": "MTK0236:3F0BG9B9MQUFVAHH25VM32OCJ967Y8", "current_trial": 211, "dateTime": 1510674240610, "trialdata": {"rt": [4515, 7571, 13530, 15684, 17796, 20789, 23215, 26306, 28843, 30780, 34854, 38610, 42262], "recwords": ["nurse", "blouse", "scallop", "marsh", "inmate", "witness", "sister", "fungus", "chapel", "church", "termite", "monster", "witness"], "type": "FREE_RECALL", "conditions": [12, 1600, "v", 12000], "trial": 5, "trial_type": "free-recall", "trial_index": 211, "time_elapsed": 1088988, "internal_node_id": "0.0-157.0-0.0"}}, {"uniqueid": "MTK0236:3F0BG9B9MQUFVAHH25VM32OCJ967Y8", "current_trial": 212, "dateTime": 1510674243028, "trialdata": {"rt": 412, "key_press": 83, "type": "INSTRUCTIONS", "trial_type": "text", "trial_index": 212, "time_elapsed": 1091406, "internal_node_id": "0.0-158.0"}}, {"uniqueid": "MTK0236:3F0BG9B9MQUFVAHH25VM32OCJ967Y8", "current_trial": 213, "dateTime": 1510674257035, "trialdata": {"rt": [2811, 6536, 8939, 10826], "responses": ["20", "5", "12", "17"], "num1": [7, 1, 5, 2, 7], "num2": [4, 3, 2, 8, 5], "num3": [9, 1, 5, 7, 5], "type": "DISTRACTOR", "conditions": [12, 800, "v", 12000], "trial": 6, "trial_type": "math-distractor", "trial_index": 213, "time_elapsed": 1105413, "internal_node_id": "0.0-159.0"}}, {"uniqueid": "MTK0236:3F0BG9B9MQUFVAHH25VM32OCJ967Y8", "current_trial": 214, "dateTime": 1510674260040, "trialdata": {"rt": -1, "stimulus": "<p id=\"stim\">10</p>", "key_press": -1, "trial_type": "single-stim", "trial_index": 214, "time_elapsed": 1108418, "internal_node_id": "0.0-160.0-0.0"}}, {"uniqueid": "MTK0236:3F0BG9B9MQUFVAHH25VM32OCJ967Y8", "current_trial": 215, "dateTime": 1510674261042, "trialdata": {"rt": -1, "stimulus": "<p id=\"stim\">9</p>", "key_press": -1, "trial_type": "single-stim", "trial_index": 215, "time_elapsed": 1109420, "internal_node_id": "0.0-160.0-1.0"}}, {"uniqueid": "MTK0236:3F0BG9B9MQUFVAHH25VM32OCJ967Y8", "current_trial": 216, "dateTime": 1510674262046, "trialdata": {"rt": -1, "stimulus": "<p id=\"stim\">8</p>", "key_press": -1, "trial_type": "single-stim", "trial_index": 216, "time_elapsed": 1110424, "internal_node_id": "0.0-160.0-2.0"}}, {"uniqueid": "MTK0236:3F0BG9B9MQUFVAHH25VM32OCJ967Y8", "current_trial": 217, "dateTime": 1510674263051, "trialdata": {"rt": -1, "stimulus": "<p id=\"stim\">7</p>", "key_press": -1, "trial_type": "single-stim", "trial_index": 217, "time_elapsed": 1111429, "internal_node_id": "0.0-160.0-3.0"}}, {"uniqueid": "MTK0236:3F0BG9B9MQUFVAHH25VM32OCJ967Y8", "current_trial": 218, "dateTime": 1510674264054, "trialdata": {"rt": -1, "stimulus": "<p id=\"stim\">6</p>", "key_press": -1, "trial_type": "single-stim", "trial_index": 218, "time_elapsed": 1112432, "internal_node_id": "0.0-160.0-4.0"}}, {"uniqueid": "MTK0236:3F0BG9B9MQUFVAHH25VM32OCJ967Y8", "current_trial": 219, "dateTime": 1510674265058, "trialdata": {"rt": -1, "stimulus": "<p id=\"stim\">5</p>", "key_press": -1, "trial_type": "single-stim", "trial_index": 219, "time_elapsed": 1113436, "internal_node_id": "0.0-160.0-5.0"}}, {"uniqueid": "MTK0236:3F0BG9B9MQUFVAHH25VM32OCJ967Y8", "current_trial": 220, "dateTime": 1510674266060, "trialdata": {"rt": -1, "stimulus": "<p id=\"stim\">4</p>", "key_press": -1, "trial_type": "single-stim", "trial_index": 220, "time_elapsed": 1114438, "internal_node_id": "0.0-160.0-6.0"}}, {"uniqueid": "MTK0236:3F0BG9B9MQUFVAHH25VM32OCJ967Y8", "current_trial": 221, "dateTime": 1510674267063, "trialdata": {"rt": -1, "stimulus": "<p id=\"stim\">3</p>", "key_press": -1, "trial_type": "single-stim", "trial_index": 221, "time_elapsed": 1115441, "internal_node_id": "0.0-160.0-7.0"}}, {"uniqueid": "MTK0236:3F0BG9B9MQUFVAHH25VM32OCJ967Y8", "current_trial": 222, "dateTime": 1510674268068, "trialdata": {"rt": -1, "stimulus": "<p id=\"stim\">2</p>", "key_press": -1, "trial_type": "single-stim", "trial_index": 222, "time_elapsed": 1116446, "internal_node_id": "0.0-160.0-8.0"}}, {"uniqueid": "MTK0236:3F0BG9B9MQUFVAHH25VM32OCJ967Y8", "current_trial": 223, "dateTime": 1510674269070, "trialdata": {"rt": -1, "stimulus": "<p id=\"stim\">1</p>", "key_press": -1, "trial_type": "single-stim", "trial_index": 223, "time_elapsed": 1117448, "internal_node_id": "0.0-160.0-9.0"}}, {"uniqueid": "MTK0236:3F0BG9B9MQUFVAHH25VM32OCJ967Y8", "current_trial": 224, "dateTime": 1510674270572, "trialdata": {"rt": -1, "stimulus": "<p id=\"stim\">+</p>", "key_press": -1, "type": "FIXATION", "trial_type": "single-stim", "trial_index": 224, "time_elapsed": 1118950, "internal_node_id": "0.0-161.0-0.0"}}, {"uniqueid": "MTK0236:3F0BG9B9MQUFVAHH25VM32OCJ967Y8", "current_trial": 225, "dateTime": 1510674271376, "trialdata": {"rt": -1, "stimulus": "<p id=\"stim\">QUAIL</p>", "key_press": -1, "type": "PRES_VIS", "word": "quail", "wordID": 1146, "conditions": [12, 800, "v", 12000], "trial": 6, "serialpos": 0, "trial_type": "single-stim", "trial_index": 225, "time_elapsed": 1119754, "internal_node_id": "0.0-162.0"}}, {"uniqueid": "MTK0236:3F0BG9B9MQUFVAHH25VM32OCJ967Y8", "current_trial": 226, "dateTime": 1510674273082, "trialdata": {"rt": -1, "stimulus": "<p id=\"stim\">FRIEND</p>", "key_press": -1, "type": "PRES_VIS", "word": "friend", "wordID": 605, "conditions": [12, 800, "v", 12000], "trial": 6, "serialpos": 1, "trial_type": "single-stim", "trial_index": 226, "time_elapsed": 1121460, "internal_node_id": "0.0-163.0"}}, {"uniqueid": "MTK0236:3F0BG9B9MQUFVAHH25VM32OCJ967Y8", "current_trial": 227, "dateTime": 1510674274748, "trialdata": {"rt": -1, "stimulus": "<p id=\"stim\">ROCKET</p>", "key_press": -1, "type": "PRES_VIS", "word": "rocket", "wordID": 1201, "conditions": [12, 800, "v", 12000], "trial": 6, "serialpos": 2, "trial_type": "single-stim", "trial_index": 227, "time_elapsed": 1123126, "internal_node_id": "0.0-164.0"}}, {"uniqueid": "MTK0236:3F0BG9B9MQUFVAHH25VM32OCJ967Y8", "current_trial": 228, "dateTime": 1510674276612, "trialdata": {"rt": -1, "stimulus": "<p id=\"stim\">ZEBRA</p>", "key_press": -1, "type": "PRES_VIS", "word": "zebra", "wordID": 1634, "conditions": [12, 800, "v", 12000], "trial": 6, "serialpos": 3, "trial_type": "single-stim", "trial_index": 228, "time_elapsed": 1124990, "internal_node_id": "0.0-165.0"}}, {"uniqueid": "MTK0236:3F0BG9B9MQUFVAHH25VM32OCJ967Y8", "current_trial": 229, "dateTime": 1510674278430, "trialdata": {"rt": -1, "stimulus": "<p id=\"stim\">BROOK</p>", "key_press": -1, "type": "PRES_VIS", "word": "brook", "wordID": 176, "conditions": [12, 800, "v", 12000], "trial": 6, "serialpos": 4, "trial_type": "single-stim", "trial_index": 229, "time_elapsed": 1126808, "internal_node_id": "0.0-166.0"}}, {"uniqueid": "MTK0236:3F0BG9B9MQUFVAHH25VM32OCJ967Y8", "current_trial": 230, "dateTime": 1510674280166, "trialdata": {"rt": -1, "stimulus": "<p id=\"stim\">CASKET</p>", "key_press": -1, "type": "PRES_VIS", "word": "casket", "wordID": 254, "conditions": [12, 800, "v", 12000], "trial": 6, "serialpos": 5, "trial_type": "single-stim", "trial_index": 230, "time_elapsed": 1128544, "internal_node_id": "0.0-167.0"}}, {"uniqueid": "MTK0236:3F0BG9B9MQUFVAHH25VM32OCJ967Y8", "current_trial": 231, "dateTime": 1510674282065, "trialdata": {"rt": -1, "stimulus": "<p id=\"stim\">TOMBSTONE</p>", "key_press": -1, "type": "PRES_VIS", "word": "tombstone", "wordID": 1477, "conditions": [12, 800, "v", 12000], "trial": 6, "serialpos": 6, "trial_type": "single-stim", "trial_index": 231, "time_elapsed": 1130443, "internal_node_id": "0.0-168.0"}}, {"uniqueid": "MTK0236:3F0BG9B9MQUFVAHH25VM32OCJ967Y8", "current_trial": 232, "dateTime": 1510674283815, "trialdata": {"rt": -1, "stimulus": "<p id=\"stim\">SHORTCAKE</p>", "key_press": -1, "type": "PRES_VIS", "word": "shortcake", "wordID": 1291, "conditions": [12, 800, "v", 12000], "trial": 6, "serialpos": 7, "trial_type": "single-stim", "trial_index": 232, "time_elapsed": 1132193, "internal_node_id": "0.0-169.0"}}, {"uniqueid": "MTK0236:3F0BG9B9MQUFVAHH25VM32OCJ967Y8", "current_trial": 233, "dateTime": 1510674285626, "trialdata": {"rt": -1, "stimulus": "<p id=\"stim\">RIVER</p>", "key_press": -1, "type": "PRES_VIS", "word": "river", "wordID": 1193, "conditions": [12, 800, "v", 12000], "trial": 6, "serialpos": 8, "trial_type": "single-stim", "trial_index": 233, "time_elapsed": 1134004, "internal_node_id": "0.0-170.0"}}, {"uniqueid": "MTK0236:3F0BG9B9MQUFVAHH25VM32OCJ967Y8", "current_trial": 234, "dateTime": 1510674287573, "trialdata": {"rt": -1, "stimulus": "<p id=\"stim\">MISSILE</p>", "key_press": -1, "type": "PRES_VIS", "word": "missile", "wordID": 899, "conditions": [12, 800, "v", 12000], "trial": 6, "serialpos": 9, "trial_type": "single-stim", "trial_index": 234, "time_elapsed": 1135951, "internal_node_id": "0.0-171.0"}}, {"uniqueid": "MTK0236:3F0BG9B9MQUFVAHH25VM32OCJ967Y8", "current_trial": 235, "dateTime": 1510674289250, "trialdata": {"rt": -1, "stimulus": "<p id=\"stim\">PADDLE</p>", "key_press": -1, "type": "PRES_VIS", "word": "paddle", "wordID": 999, "conditions": [12, 800, "v", 12000], "trial": 6, "serialpos": 10, "trial_type": "single-stim", "trial_index": 235, "time_elapsed": 1137628, "internal_node_id": "0.0-172.0"}}, {"uniqueid": "MTK0236:3F0BG9B9MQUFVAHH25VM32OCJ967Y8", "current_trial": 236, "dateTime": 1510674290904, "trialdata": {"rt": -1, "stimulus": "<p id=\"stim\">TUTU</p>", "key_press": -1, "type": "PRES_VIS", "word": "tutu", "wordID": 1523, "conditions": [12, 800, "v", 12000], "trial": 6, "serialpos": 11, "trial_type": "single-stim", "trial_index": 236, "time_elapsed": 1139282, "internal_node_id": "0.0-173.0"}}, {"uniqueid": "MTK0236:3F0BG9B9MQUFVAHH25VM32OCJ967Y8", "current_trial": 237, "dateTime": 1510674293419, "trialdata": {"rt": -1, "stimulus": "", "key_press": -1, "type": "PRE_RECALL_DELAY", "trial_type": "single-stim", "trial_index": 237, "time_elapsed": 1141797, "internal_node_id": "0.0-174.0-0.0"}}, {"uniqueid": "MTK0236:3F0BG9B9MQUFVAHH25VM32OCJ967Y8", "current_trial": 238, "dateTime": 1510674293923, "trialdata": {"rt": -1000, "stimulus": "/static/audio/400Hz.wav", "key_press": -1, "type": "PRE_RECALL_ALERT", "trial_type": "single-audio", "trial_index": 238, "time_elapsed": 1142301, "internal_node_id": "0.0-175.0"}}, {"uniqueid": "MTK0236:3F0BG9B9MQUFVAHH25VM32OCJ967Y8", "current_trial": 239, "dateTime": 1510674353927, "trialdata": {"rt": [3768, 5511, 10189, 11926, 13573, 15904, 17851, 21096, 25537, 43619], "recwords": ["quail", "friend", "rocket", "river", "missile", "tutu", "brook", "casket", "shortcake", "paddle"], "type": "FREE_RECALL", "conditions": [12, 800, "v", 12000], "trial": 6, "trial_type": "free-recall", "trial_index": 239, "time_elapsed": 1202305, "internal_node_id": "0.0-176.0-0.0"}}, {"uniqueid": "MTK0236:3F0BG9B9MQUFVAHH25VM32OCJ967Y8", "current_trial": 240, "dateTime": 1510674357535, "trialdata": {"rt": 1600, "key_press": 70, "type": "INSTRUCTIONS", "trial_type": "text", "trial_index": 240, "time_elapsed": 1205913, "internal_node_id": "0.0-177.0"}}, {"uniqueid": "MTK0236:3F0BG9B9MQUFVAHH25VM32OCJ967Y8", "current_trial": 241, "dateTime": 1510674383541, "trialdata": {"rt": [2264, 6613, 9220, 11347, 13242, 14972, 16888, 19128, 21047], "responses": ["16", "12", "12", "7", "15", "18", "19", "7", "17"], "num1": [6, 1, 2, 3, 2, 7, 9, 3, 6, 5], "num2": [2, 5, 2, 1, 9, 7, 2, 1, 7, 7], "num3": [8, 6, 8, 3, 4, 4, 8, 3, 4, 7], "type": "DISTRACTOR", "conditions": [12, 1600, "a", 24000], "trial": 7, "trial_type": "math-distractor", "trial_index": 241, "time_elapsed": 1231919, "internal_node_id": "0.0-178.0"}}, {"uniqueid": "MTK0236:3F0BG9B9MQUFVAHH25VM32OCJ967Y8", "current_trial": 242, "dateTime": 1510674386549, "trialdata": {"rt": -1, "stimulus": "<p id=\"stim\">10</p>", "key_press": -1, "trial_type": "single-stim", "trial_index": 242, "time_elapsed": 1234927, "internal_node_id": "0.0-179.0-0.0"}}, {"uniqueid": "MTK0236:3F0BG9B9MQUFVAHH25VM32OCJ967Y8", "current_trial": 243, "dateTime": 1510674387551, "trialdata": {"rt": -1, "stimulus": "<p id=\"stim\">9</p>", "key_press": -1, "trial_type": "single-stim", "trial_index": 243, "time_elapsed": 1235929, "internal_node_id": "0.0-179.0-1.0"}}, {"uniqueid": "MTK0236:3F0BG9B9MQUFVAHH25VM32OCJ967Y8", "current_trial": 244, "dateTime": 1510674388553, "trialdata": {"rt": -1, "stimulus": "<p id=\"stim\">8</p>", "key_press": -1, "trial_type": "single-stim", "trial_index": 244, "time_elapsed": 1236931, "internal_node_id": "0.0-179.0-2.0"}}, {"uniqueid": "MTK0236:3F0BG9B9MQUFVAHH25VM32OCJ967Y8", "current_trial": 245, "dateTime": 1510674389555, "trialdata": {"rt": -1, "stimulus": "<p id=\"stim\">7</p>", "key_press": -1, "trial_type": "single-stim", "trial_index": 245, "time_elapsed": 1237933, "internal_node_id": "0.0-179.0-3.0"}}, {"uniqueid": "MTK0236:3F0BG9B9MQUFVAHH25VM32OCJ967Y8", "current_trial": 246, "dateTime": 1510674390559, "trialdata": {"rt": -1, "stimulus": "<p id=\"stim\">6</p>", "key_press": -1, "trial_type": "single-stim", "trial_index": 246, "time_elapsed": 1238937, "internal_node_id": "0.0-179.0-4.0"}}, {"uniqueid": "MTK0236:3F0BG9B9MQUFVAHH25VM32OCJ967Y8", "current_trial": 247, "dateTime": 1510674391562, "trialdata": {"rt": -1, "stimulus": "<p id=\"stim\">5</p>", "key_press": -1, "trial_type": "single-stim", "trial_index": 247, "time_elapsed": 1239940, "internal_node_id": "0.0-179.0-5.0"}}, {"uniqueid": "MTK0236:3F0BG9B9MQUFVAHH25VM32OCJ967Y8", "current_trial": 248, "dateTime": 1510674392563, "trialdata": {"rt": -1, "stimulus": "<p id=\"stim\">4</p>", "key_press": -1, "trial_type": "single-stim", "trial_index": 248, "time_elapsed": 1240941, "internal_node_id": "0.0-179.0-6.0"}}, {"uniqueid": "MTK0236:3F0BG9B9MQUFVAHH25VM32OCJ967Y8", "current_trial": 249, "dateTime": 1510674393566, "trialdata": {"rt": -1, "stimulus": "<p id=\"stim\">3</p>", "key_press": -1, "trial_type": "single-stim", "trial_index": 249, "time_elapsed": 1241944, "internal_node_id": "0.0-179.0-7.0"}}, {"uniqueid": "MTK0236:3F0BG9B9MQUFVAHH25VM32OCJ967Y8", "current_trial": 250, "dateTime": 1510674394569, "trialdata": {"rt": -1, "stimulus": "<p id=\"stim\">2</p>", "key_press": -1, "trial_type": "single-stim", "trial_index": 250, "time_elapsed": 1242947, "internal_node_id": "0.0-179.0-8.0"}}, {"uniqueid": "MTK0236:3F0BG9B9MQUFVAHH25VM32OCJ967Y8", "current_trial": 251, "dateTime": 1510674395574, "trialdata": {"rt": -1, "stimulus": "<p id=\"stim\">1</p>", "key_press": -1, "trial_type": "single-stim", "trial_index": 251, "time_elapsed": 1243952, "internal_node_id": "0.0-179.0-9.0"}}, {"uniqueid": "MTK0236:3F0BG9B9MQUFVAHH25VM32OCJ967Y8", "current_trial": 252, "dateTime": 1510674397078, "trialdata": {"rt": -1, "stimulus": "<p id=\"stim\">+</p>", "key_press": -1, "type": "FIXATION", "trial_type": "single-stim", "trial_index": 252, "time_elapsed": 1245456, "internal_node_id": "0.0-180.0-0.0"}}, {"uniqueid": "MTK0236:3F0BG9B9MQUFVAHH25VM32OCJ967Y8", "current_trial": 253, "dateTime": 1510674399666, "trialdata": {"rt": -1000, "stimulus": "/static/audio/wordpool/DUST.wav", "key_press": -1, "type": "PRES_AUD", "word": "dust", "wordID": 507, "conditions": [12, 1600, "a", 24000], "trial": 7, "serialpos": 0, "trial_type": "single-audio", "trial_index": 253, "time_elapsed": 1248044, "internal_node_id": "0.0-181.0"}}, {"uniqueid": "MTK0236:3F0BG9B9MQUFVAHH25VM32OCJ967Y8", "current_trial": 254, "dateTime": 1510674402429, "trialdata": {"rt": -1000, "stimulus": "/static/audio/wordpool/BOYFRIEND.wav", "key_press": -1, "type": "PRES_AUD", "word": "boyfriend", "wordID": 161, "conditions": [12, 1600, "a", 24000], "trial": 7, "serialpos": 1, "trial_type": "single-audio", "trial_index": 254, "time_elapsed": 1250807, "internal_node_id": "0.0-182.0"}}, {"uniqueid": "MTK0236:3F0BG9B9MQUFVAHH25VM32OCJ967Y8", "current_trial": 255, "dateTime": 1510674405121, "trialdata": {"rt": -1000, "stimulus": "/static/audio/wordpool/SNACK.wav", "key_press": -1, "type": "PRES_AUD", "word": "snack", "wordID": 1330, "conditions": [12, 1600, "a", 24000], "trial": 7, "serialpos": 2, "trial_type": "single-audio", "trial_index": 255, "time_elapsed": 1253499, "internal_node_id": "0.0-183.0"}}, {"uniqueid": "MTK0236:3F0BG9B9MQUFVAHH25VM32OCJ967Y8", "current_trial": 256, "dateTime": 1510674407665, "trialdata": {"rt": -1000, "stimulus": "/static/audio/wordpool/FILM.wav", "key_press": -1, "type": "PRES_AUD", "word": "film", "wordID": 564, "conditions": [12, 1600, "a", 24000], "trial": 7, "serialpos": 3, "trial_type": "single-audio", "trial_index": 256, "time_elapsed": 1256042, "internal_node_id": "0.0-184.0"}}, {"uniqueid": "MTK0236:3F0BG9B9MQUFVAHH25VM32OCJ967Y8", "current_trial": 257, "dateTime": 1510674410437, "trialdata": {"rt": -1000, "stimulus": "/static/audio/wordpool/CRITIC.wav", "key_press": -1, "type": "PRES_AUD", "word": "critic", "wordID": 409, "conditions": [12, 1600, "a", 24000], "trial": 7, "serialpos": 4, "trial_type": "single-audio", "trial_index": 257, "time_elapsed": 1258815, "internal_node_id": "0.0-185.0"}}, {"uniqueid": "MTK0236:3F0BG9B9MQUFVAHH25VM32OCJ967Y8", "current_trial": 258, "dateTime": 1510674413107, "trialdata": {"rt": -1000, "stimulus": "/static/audio/wordpool/PLASTER.wav", "key_press": -1, "type": "PRES_AUD", "word": "plaster", "wordID": 1084, "conditions": [12, 1600, "a", 24000], "trial": 7, "serialpos": 5, "trial_type": "single-audio", "trial_index": 258, "time_elapsed": 1261485, "internal_node_id": "0.0-186.0"}}, {"uniqueid": "MTK0236:3F0BG9B9MQUFVAHH25VM32OCJ967Y8", "current_trial": 259, "dateTime": 1510674415813, "trialdata": {"rt": -1000, "stimulus": "/static/audio/wordpool/LUNCH.wav", "key_press": -1, "type": "PRES_AUD", "word": "lunch", "wordID": 848, "conditions": [12, 1600, "a", 24000], "trial": 7, "serialpos": 6, "trial_type": "single-audio", "trial_index": 259, "time_elapsed": 1264191, "internal_node_id": "0.0-187.0"}}, {"uniqueid": "MTK0236:3F0BG9B9MQUFVAHH25VM32OCJ967Y8", "current_trial": 260, "dateTime": 1510674418579, "trialdata": {"rt": -1000, "stimulus": "/static/audio/wordpool/GAVEL.wav", "key_press": -1, "type": "PRES_AUD", "word": "gavel", "wordID": 626, "conditions": [12, 1600, "a", 24000], "trial": 7, "serialpos": 7, "trial_type": "single-audio", "trial_index": 260, "time_elapsed": 1266957, "internal_node_id": "0.0-188.0"}}, {"uniqueid": "MTK0236:3F0BG9B9MQUFVAHH25VM32OCJ967Y8", "current_trial": 261, "dateTime": 1510674421207, "trialdata": {"rt": -1000, "stimulus": "/static/audio/wordpool/WAGON.wav", "key_press": -1, "type": "PRES_AUD", "word": "wagon", "wordID": 1577, "conditions": [12, 1600, "a", 24000], "trial": 7, "serialpos": 8, "trial_type": "single-audio", "trial_index": 261, "time_elapsed": 1269585, "internal_node_id": "0.0-189.0"}}, {"uniqueid": "MTK0236:3F0BG9B9MQUFVAHH25VM32OCJ967Y8", "current_trial": 262, "dateTime": 1510674423753, "trialdata": {"rt": -1000, "stimulus": "/static/audio/wordpool/HAWK.wav", "key_press": -1, "type": "PRES_AUD", "word": "hawk", "wordID": 691, "conditions": [12, 1600, "a", 24000], "trial": 7, "serialpos": 9, "trial_type": "single-audio", "trial_index": 262, "time_elapsed": 1272131, "internal_node_id": "0.0-190.0"}}, {"uniqueid": "MTK0236:3F0BG9B9MQUFVAHH25VM32OCJ967Y8", "current_trial": 263, "dateTime": 1510674426209, "trialdata": {"rt": -1000, "stimulus": "/static/audio/wordpool/ACTRESS.wav", "key_press": -1, "type": "PRES_AUD", "word": "actress", "wordID": 5, "conditions": [12, 1600, "a", 24000], "trial": 7, "serialpos": 10, "trial_type": "single-audio", "trial_index": 263, "time_elapsed": 1274587, "internal_node_id": "0.0-191.0"}}, {"uniqueid": "MTK0236:3F0BG9B9MQUFVAHH25VM32OCJ967Y8", "current_trial": 264, "dateTime": 1510674428647, "trialdata": {"rt": -1000, "stimulus": "/static/audio/wordpool/ACTOR.wav", "key_press": -1, "type": "PRES_AUD", "word": "actor", "wordID": 4, "conditions": [12, 1600, "a", 24000], "trial": 7, "serialpos": 11, "trial_type": "single-audio", "trial_index": 264, "time_elapsed": 1277025, "internal_node_id": "0.0-192.0"}}, {"uniqueid": "MTK0236:3F0BG9B9MQUFVAHH25VM32OCJ967Y8", "current_trial": 265, "dateTime": 1510674429953, "trialdata": {"rt": -1, "stimulus": "", "key_press": -1, "type": "PRE_RECALL_DELAY", "trial_type": "single-stim", "trial_index": 265, "time_elapsed": 1278331, "internal_node_id": "0.0-193.0-0.0"}}, {"uniqueid": "MTK0236:3F0BG9B9MQUFVAHH25VM32OCJ967Y8", "current_trial": 266, "dateTime": 1510674430455, "trialdata": {"rt": -1000, "stimulus": "/static/audio/400Hz.wav", "key_press": -1, "type": "PRE_RECALL_ALERT", "trial_type": "single-audio", "trial_index": 266, "time_elapsed": 1278833, "internal_node_id": "0.0-194.0"}}, {"uniqueid": "MTK0236:3F0BG9B9MQUFVAHH25VM32OCJ967Y8", "current_trial": 267, "dateTime": 1510674490459, "trialdata": {"rt": [2392, 5153, 9121, 11576, 15843, 19744, 21206, 22939, 25353, 29132, 32505, 35590], "recwords": ["actor", "actress", "boyfriend", "hawk", "gavel", "wagon", "snack", "film", "dust", "plaster", "lunch", "snack"], "type": "FREE_RECALL", "conditions": [12, 1600, "a", 24000], "trial": 7, "trial_type": "free-recall", "trial_index": 267, "time_elapsed": 1338837, "internal_node_id": "0.0-195.0-0.0"}}, {"uniqueid": "MTK0236:3F0BG9B9MQUFVAHH25VM32OCJ967Y8", "current_trial": 268, "dateTime": 1510674492763, "trialdata": {"rt": 299, "key_press": 74, "type": "INSTRUCTIONS", "trial_type": "text", "trial_index": 268, "time_elapsed": 1341141, "internal_node_id": "0.0-196.0"}}, {"uniqueid": "MTK0236:3F0BG9B9MQUFVAHH25VM32OCJ967Y8", "current_trial": 269, "dateTime": 1510674506772, "trialdata": {"rt": [1960, 4142, 7173, 8796], "responses": ["15", "11", "13", "7"], "num1": [5, 4, 2, 4, 2], "num2": [5, 4, 6, 2, 1], "num3": [5, 3, 5, 1, 2], "type": "DISTRACTOR", "conditions": [12, 800, "a", 12000], "trial": 8, "trial_type": "math-distractor", "trial_index": 269, "time_elapsed": 1355150, "internal_node_id": "0.0-197.0"}}, {"uniqueid": "MTK0236:3F0BG9B9MQUFVAHH25VM32OCJ967Y8", "current_trial": 270, "dateTime": 1510674509777, "trialdata": {"rt": -1, "stimulus": "<p id=\"stim\">10</p>", "key_press": -1, "trial_type": "single-stim", "trial_index": 270, "time_elapsed": 1358155, "internal_node_id": "0.0-198.0-0.0"}}, {"uniqueid": "MTK0236:3F0BG9B9MQUFVAHH25VM32OCJ967Y8", 