{"condition": 0, "counterbalance": 809, "assignmentId": "3YHH42UU5CMHD0AYYRLNUFCT3YI0LW", "workerId": "MTK0417", "hitId": "3T5ZXGO9DEVNJYY74O19SGIPHEKZQP", "currenttrial": 626, "bonus": 0, "data": [{"uniqueid": "MTK0417:3YHH42UU5CMHD0AYYRLNUFCT3YI0LW", "current_trial": 0, "dateTime": 1510945827443, "trialdata": {"rt": 40555, "key_press": 32, "type": "INSTRUCTIONS", "trial_type": "text", "trial_index": 0, "time_elapsed": 40560, "internal_node_id": "0.0-0.0"}}, {"uniqueid": "MTK0417:3YHH42UU5CMHD0AYYRLNUFCT3YI0LW", "current_trial": 1, "dateTime": 1510945946147, "trialdata": {"rt": 118702, "key_press": 32, "type": "INSTRUCTIONS", "trial_type": "text", "trial_index": 1, "time_elapsed": 159266, "internal_node_id": "0.0-1.0"}}, {"uniqueid": "MTK0417:3YHH42UU5CMHD0AYYRLNUFCT3YI0LW", "current_trial": 2, "dateTime": 1510945975691, "trialdata": {"rt": [29217], "responses": ["ocean"], "type": "AUDIO_TEST", "trial_type": "audio-test", "trial_index": 2, "time_elapsed": 188810, "internal_node_id": "0.0-2.0"}}, {"uniqueid": "MTK0417:3YHH42UU5CMHD0AYYRLNUFCT3YI0LW", "current_trial": 3, "dateTime": 1510945988727, "trialdata": {"rt": [13023], "responses": ["crystal"], "type": "AUDIO_TEST", "trial_type": "audio-test", "trial_index": 3, "time_elapsed": 201846, "internal_node_id": "0.0-3.0"}}, {"uniqueid": "MTK0417:3YHH42UU5CMHD0AYYRLNUFCT3YI0LW", "current_trial": 4, "dateTime": 1510945997431, "trialdata": {"rt": [8691], "responses": ["spice"], "type": "AUDIO_TEST", "trial_type": "audio-test", "trial_index": 4, "time_elapsed": 210549, "internal_node_id": "0.0-4.0"}}, {"uniqueid": "MTK0417:3YHH42UU5CMHD0AYYRLNUFCT3YI0LW", "current_trial": 5, "dateTime": 1510946019847, "trialdata": {"rt": 21661, "responses": "{\"Q0\":\"12:00\",\"Q1\":\"7:00\",\"Q2\":\"5\"}", "type": "SLEEP_SURVEY", "trial_type": "survey-text", "trial_index": 5, "time_elapsed": 232966, "internal_node_id": "0.0-5.0"}}, {"uniqueid": "MTK0417:3YHH42UU5CMHD0AYYRLNUFCT3YI0LW", "current_trial": 6, "dateTime": 1510946125886, "trialdata": {"rt": 105037, "key_press": 74, "type": "INSTRUCTIONS", "trial_type": "text", "trial_index": 6, "time_elapsed": 339005, "internal_node_id": "0.0-6.0"}}, {"uniqueid": "MTK0417:3YHH42UU5CMHD0AYYRLNUFCT3YI0LW", "current_trial": 7, "dateTime": 1510946142126, "trialdata": {"rt": 15735, "key_press": 74, "type": "INSTRUCTIONS", "trial_type": "text", "trial_index": 7, "time_elapsed": 355245, "internal_node_id": "0.0-7.0"}}, {"uniqueid": "MTK0417:3YHH42UU5CMHD0AYYRLNUFCT3YI0LW", "current_trial": 8, "dateTime": 1510946152162, "trialdata": {"rt": 9533, "key_press": 74, "type": "INSTRUCTIONS", "trial_type": "text", "trial_index": 8, "time_elapsed": 365281, "internal_node_id": "0.0-8.0"}}, {"uniqueid": "MTK0417:3YHH42UU5CMHD0AYYRLNUFCT3YI0LW", "current_trial": 9, "dateTime": 1510946171194, "trialdata": {"rt": [3241, 5454, 7713, 11319, 16450], "responses": ["17", "21", "17", "19", "20"], "num1": [8, 9, 6, 3, 8, 9], "num2": [6, 9, 8, 8, 5, 6], "num3": [3, 3, 3, 8, 7, 6], "type": "DISTRACTOR", "conditions": [18, 1200, "v", 18000], "trial": 0, "trial_type": "math-distractor", "trial_index": 9, "time_elapsed": 384313, "internal_node_id": "0.0-9.0"}}, {"uniqueid": "MTK0417:3YHH42UU5CMHD0AYYRLNUFCT3YI0LW", "current_trial": 10, "dateTime": 1510946174199, "trialdata": {"rt": -1, "stimulus": "<p id=\"stim\">10</p>", "key_press": -1, "trial_type": "single-stim", "trial_index": 10, "time_elapsed": 387318, "internal_node_id": "0.0-10.0-0.0"}}, {"uniqueid": "MTK0417:3YHH42UU5CMHD0AYYRLNUFCT3YI0LW", "current_trial": 11, "dateTime": 1510946175234, "trialdata": {"rt": -1, "stimulus": "<p id=\"stim\">9</p>", "key_press": -1, "trial_type": "single-stim", "trial_index": 11, "time_elapsed": 388352, "internal_node_id": "0.0-10.0-1.0"}}, {"uniqueid": "MTK0417:3YHH42UU5CMHD0AYYRLNUFCT3YI0LW", "current_trial": 12, "dateTime": 1510946176241, "trialdata": {"rt": -1, "stimulus": "<p id=\"stim\">8</p>", "key_press": -1, "trial_type": "single-stim", "trial_index": 12, "time_elapsed": 389360, "internal_node_id": "0.0-10.0-2.0"}}, {"uniqueid": "MTK0417:3YHH42UU5CMHD0AYYRLNUFCT3YI0LW", "current_trial": 13, "dateTime": 1510946177244, "trialdata": {"rt": -1, "stimulus": "<p id=\"stim\">7</p>", "key_press": -1, "trial_type": "single-stim", "trial_index": 13, "time_elapsed": 390363, "internal_node_id": "0.0-10.0-3.0"}}, {"uniqueid": "MTK0417:3YHH42UU5CMHD0AYYRLNUFCT3YI0LW", "current_trial": 14, "dateTime": 1510946178296, "trialdata": {"rt": -1, "stimulus": "<p id=\"stim\">6</p>", "key_press": -1, "trial_type": "single-stim", "trial_index": 14, "time_elapsed": 391414, "internal_node_id": "0.0-10.0-4.0"}}, {"uniqueid": "MTK0417:3YHH42UU5CMHD0AYYRLNUFCT3YI0LW", "current_trial": 15, "dateTime": 1510946179298, "trialdata": {"rt": -1, "stimulus": "<p id=\"stim\">5</p>", "key_press": -1, "trial_type": "single-stim", "trial_index": 15, "time_elapsed": 392417, "internal_node_id": "0.0-10.0-5.0"}}, {"uniqueid": "MTK0417:3YHH42UU5CMHD0AYYRLNUFCT3YI0LW", "current_trial": 16, "dateTime": 1510946180300, "trialdata": {"rt": -1, "stimulus": "<p id=\"stim\">4</p>", "key_press": -1, "trial_type": "single-stim", "trial_index": 16, "time_elapsed": 393419, "internal_node_id": "0.0-10.0-6.0"}}, {"uniqueid": "MTK0417:3YHH42UU5CMHD0AYYRLNUFCT3YI0LW", "current_trial": 17, "dateTime": 1510946181461, "trialdata": {"rt": -1, "stimulus": "<p id=\"stim\">3</p>", "key_press": -1, "trial_type": "single-stim", "trial_index": 17, "time_elapsed": 394580, "internal_node_id": "0.0-10.0-7.0"}}, {"uniqueid": "MTK0417:3YHH42UU5CMHD0AYYRLNUFCT3YI0LW", "current_trial": 18, "dateTime": 1510946182502, "trialdata": {"rt": -1, "stimulus": "<p id=\"stim\">2</p>", "key_press": -1, "trial_type": "single-stim", "trial_index": 18, "time_elapsed": 395621, "internal_node_id": "0.0-10.0-8.0"}}, {"uniqueid": "MTK0417:3YHH42UU5CMHD0AYYRLNUFCT3YI0LW", "current_trial": 19, "dateTime": 1510946183563, "trialdata": {"rt": -1, "stimulus": "<p id=\"stim\">1</p>", "key_press": -1, "trial_type": "single-stim", "trial_index": 19, "time_elapsed": 396682, "internal_node_id": "0.0-10.0-9.0"}}, {"uniqueid": "MTK0417:3YHH42UU5CMHD0AYYRLNUFCT3YI0LW", "current_trial": 20, "dateTime": 1510946185081, "trialdata": {"rt": -1, "stimulus": "<p id=\"stim\">+</p>", "key_press": -1, "type": "FIXATION", "trial_type": "single-stim", "trial_index": 20, "time_elapsed": 398200, "internal_node_id": "0.0-11.0-0.0"}}, {"uniqueid": "MTK0417:3YHH42UU5CMHD0AYYRLNUFCT3YI0LW", "current_trial": 21, "dateTime": 1510946186311, "trialdata": {"rt": -1, "stimulus": "<p id=\"stim\">BUREAU</p>", "key_press": -1, "type": "PRES_VIS", "word": "bureau", "wordID": 198, "conditions": [18, 1200, "v", 18000], "trial": 0, "serialpos": 0, "trial_type": "single-stim", "trial_index": 21, "time_elapsed": 399430, "internal_node_id": "0.0-12.0"}}, {"uniqueid": "MTK0417:3YHH42UU5CMHD0AYYRLNUFCT3YI0LW", "current_trial": 22, "dateTime": 1510946188653, "trialdata": {"rt": -1, "stimulus": "<p id=\"stim\">CROWN</p>", "key_press": -1, "type": "PRES_VIS", "word": "crown", "wordID": 414, "conditions": [18, 1200, "v", 18000], "trial": 0, "serialpos": 1, "trial_type": "single-stim", "trial_index": 22, "time_elapsed": 401772, "internal_node_id": "0.0-13.0"}}, {"uniqueid": "MTK0417:3YHH42UU5CMHD0AYYRLNUFCT3YI0LW", "current_trial": 23, "dateTime": 1510946190757, "trialdata": {"rt": -1, "stimulus": "<p id=\"stim\">WOMAN</p>", "key_press": -1, "type": "PRES_VIS", "word": "woman", "wordID": 1619, "conditions": [18, 1200, "v", 18000], "trial": 0, "serialpos": 2, "trial_type": "single-stim", "trial_index": 23, "time_elapsed": 403875, "internal_node_id": "0.0-14.0"}}, {"uniqueid": "MTK0417:3YHH42UU5CMHD0AYYRLNUFCT3YI0LW", "current_trial": 24, "dateTime": 1510946193024, "trialdata": {"rt": -1, "stimulus": "<p id=\"stim\">VENUS</p>", "key_press": -1, "type": "PRES_VIS", "word": "venus", "wordID": 1556, "conditions": [18, 1200, "v", 18000], "trial": 0, "serialpos": 3, "trial_type": "single-stim", "trial_index": 24, "time_elapsed": 406143, "internal_node_id": "0.0-15.0"}}, {"uniqueid": "MTK0417:3YHH42UU5CMHD0AYYRLNUFCT3YI0LW", "current_trial": 25, "dateTime": 1510946195317, "trialdata": {"rt": -1, "stimulus": "<p id=\"stim\">JOURNAL</p>", "key_press": -1, "type": "PRES_VIS", "word": "journal", "wordID": 759, "conditions": [18, 1200, "v", 18000], "trial": 0, "serialpos": 4, "trial_type": "single-stim", "trial_index": 25, "time_elapsed": 408436, "internal_node_id": "0.0-16.0"}}, {"uniqueid": "MTK0417:3YHH42UU5CMHD0AYYRLNUFCT3YI0LW", "current_trial": 26, "dateTime": 1510946197527, "trialdata": {"rt": -1, "stimulus": "<p id=\"stim\">KEEPER</p>", "key_press": -1, "type": "PRES_VIS", "word": "keeper", "wordID": 768, "conditions": [18, 1200, "v", 18000], "trial": 0, "serialpos": 5, "trial_type": "single-stim", "trial_index": 26, "time_elapsed": 410645, "internal_node_id": "0.0-17.0"}}, {"uniqueid": "MTK0417:3YHH42UU5CMHD0AYYRLNUFCT3YI0LW", "current_trial": 27, "dateTime": 1510946199927, "trialdata": {"rt": -1, "stimulus": "<p id=\"stim\">TILE</p>", "key_press": -1, "type": "PRES_VIS", "word": "tile", "wordID": 1467, "conditions": [18, 1200, "v", 18000], "trial": 0, "serialpos": 6, "trial_type": "single-stim", "trial_index": 27, "time_elapsed": 413045, "internal_node_id": "0.0-18.0"}}, {"uniqueid": "MTK0417:3YHH42UU5CMHD0AYYRLNUFCT3YI0LW", "current_trial": 28, "dateTime": 1510946202371, "trialdata": {"rt": -1, "stimulus": "<p id=\"stim\">WITNESS</p>", "key_press": -1, "type": "PRES_VIS", "word": "witness", "wordID": 1617, "conditions": [18, 1200, "v", 18000], "trial": 0, "serialpos": 7, "trial_type": "single-stim", "trial_index": 28, "time_elapsed": 415490, "internal_node_id": "0.0-19.0"}}, {"uniqueid": "MTK0417:3YHH42UU5CMHD0AYYRLNUFCT3YI0LW", "current_trial": 29, "dateTime": 1510946204441, "trialdata": {"rt": -1, "stimulus": "<p id=\"stim\">ISLAND</p>", "key_press": -1, "type": "PRES_VIS", "word": "island", "wordID": 744, "conditions": [18, 1200, "v", 18000], "trial": 0, "serialpos": 8, "trial_type": "single-stim", "trial_index": 29, "time_elapsed": 417560, "internal_node_id": "0.0-20.0"}}, {"uniqueid": "MTK0417:3YHH42UU5CMHD0AYYRLNUFCT3YI0LW", "current_trial": 30, "dateTime": 1510946206679, "trialdata": {"rt": -1, "stimulus": "<p id=\"stim\">ORCHID</p>", "key_press": -1, "type": "PRES_VIS", "word": "orchid", "wordID": 981, "conditions": [18, 1200, "v", 18000], "trial": 0, "serialpos": 9, "trial_type": "single-stim", "trial_index": 30, "time_elapsed": 419798, "internal_node_id": "0.0-21.0"}}, {"uniqueid": "MTK0417:3YHH42UU5CMHD0AYYRLNUFCT3YI0LW", "current_trial": 31, "dateTime": 1510946209042, "trialdata": {"rt": -1, "stimulus": "<p id=\"stim\">JUNGLE</p>", "key_press": -1, "type": "PRES_VIS", "word": "jungle", "wordID": 763, "conditions": [18, 1200, "v", 18000], "trial": 0, "serialpos": 10, "trial_type": "single-stim", "trial_index": 31, "time_elapsed": 422161, "internal_node_id": "0.0-22.0"}}, {"uniqueid": "MTK0417:3YHH42UU5CMHD0AYYRLNUFCT3YI0LW", "current_trial": 32, "dateTime": 1510946211253, "trialdata": {"rt": -1, "stimulus": "<p id=\"stim\">PARROT</p>", "key_press": -1, "type": "PRES_VIS", "word": "parrot", "wordID": 1014, "conditions": [18, 1200, "v", 18000], "trial": 0, "serialpos": 11, "trial_type": "single-stim", "trial_index": 32, "time_elapsed": 424372, "internal_node_id": "0.0-23.0"}}, {"uniqueid": "MTK0417:3YHH42UU5CMHD0AYYRLNUFCT3YI0LW", "current_trial": 33, "dateTime": 1510946213611, "trialdata": {"rt": -1, "stimulus": "<p id=\"stim\">INFANT</p>", "key_press": -1, "type": "PRES_VIS", "word": "infant", "wordID": 736, "conditions": [18, 1200, "v", 18000], "trial": 0, "serialpos": 12, "trial_type": "single-stim", "trial_index": 33, "time_elapsed": 426730, "internal_node_id": "0.0-24.0"}}, {"uniqueid": "MTK0417:3YHH42UU5CMHD0AYYRLNUFCT3YI0LW", "current_trial": 34, "dateTime": 1510946215696, "trialdata": {"rt": -1, "stimulus": "<p id=\"stim\">WIDOW</p>", "key_press": -1, "type": "PRES_VIS", "word": "widow", "wordID": 1607, "conditions": [18, 1200, "v", 18000], "trial": 0, "serialpos": 13, "trial_type": "single-stim", "trial_index": 34, "time_elapsed": 428815, "internal_node_id": "0.0-25.0"}}, {"uniqueid": "MTK0417:3YHH42UU5CMHD0AYYRLNUFCT3YI0LW", "current_trial": 35, "dateTime": 1510946218013, "trialdata": {"rt": -1, "stimulus": "<p id=\"stim\">BOUQUET</p>", "key_press": -1, "type": "PRES_VIS", "word": "bouquet", "wordID": 156, "conditions": [18, 1200, "v", 18000], "trial": 0, "serialpos": 14, "trial_type": "single-stim", "trial_index": 35, "time_elapsed": 431132, "internal_node_id": "0.0-26.0"}}, {"uniqueid": "MTK0417:3YHH42UU5CMHD0AYYRLNUFCT3YI0LW", "current_trial": 36, "dateTime": 1510946220191, "trialdata": {"rt": -1, "stimulus": "<p id=\"stim\">CASHIER</p>", "key_press": -1, "type": "PRES_VIS", "word": "cashier", "wordID": 253, "conditions": [18, 1200, "v", 18000], "trial": 0, "serialpos": 15, "trial_type": "single-stim", "trial_index": 36, "time_elapsed": 433310, "internal_node_id": "0.0-27.0"}}, {"uniqueid": "MTK0417:3YHH42UU5CMHD0AYYRLNUFCT3YI0LW", "current_trial": 37, "dateTime": 1510946222585, "trialdata": {"rt": -1, "stimulus": "<p id=\"stim\">WORLD</p>", "key_press": -1, "type": "PRES_VIS", "word": "world", "wordID": 1621, "conditions": [18, 1200, "v", 18000], "trial": 0, "serialpos": 16, "trial_type": "single-stim", "trial_index": 37, "time_elapsed": 435704, "internal_node_id": "0.0-28.0"}}, {"uniqueid": "MTK0417:3YHH42UU5CMHD0AYYRLNUFCT3YI0LW", "current_trial": 38, "dateTime": 1510946224641, "trialdata": {"rt": -1, "stimulus": "<p id=\"stim\">REPORT</p>", "key_press": -1, "type": "PRES_VIS", "word": "report", "wordID": 1183, "conditions": [18, 1200, "v", 18000], "trial": 0, "serialpos": 17, "trial_type": "single-stim", "trial_index": 38, "time_elapsed": 437760, "internal_node_id": "0.0-29.0"}}, {"uniqueid": "MTK0417:3YHH42UU5CMHD0AYYRLNUFCT3YI0LW", "current_trial": 39, "dateTime": 1510946226955, "trialdata": {"rt": -1, "stimulus": "", "key_press": -1, "type": "PRE_RECALL_DELAY", "trial_type": "single-stim", "trial_index": 39, "time_elapsed": 440074, "internal_node_id": "0.0-30.0-0.0"}}, {"uniqueid": "MTK0417:3YHH42UU5CMHD0AYYRLNUFCT3YI0LW", "current_trial": 40, "dateTime": 1510946227593, "trialdata": {"rt": -1000, "stimulus": "/static/audio/400Hz.wav", "key_press": -1, "type": "PRE_RECALL_ALERT", "trial_type": "single-audio", "trial_index": 40, "time_elapsed": 440712, "internal_node_id": "0.0-31.0"}}, {"uniqueid": "MTK0417:3YHH42UU5CMHD0AYYRLNUFCT3YI0LW", "current_trial": 41, "dateTime": 1510946287613, "trialdata": {"rt": [4943, 6575, 10923, 13753, 15821, 17575, 19795, 21480, 26944, 32659, 36306], "recwords": ["bureau", "crown", "bouquet", "infant", "woman", "widow", "tile", "report", "keeper", "world", "orchid"], "type": "FREE_RECALL", "conditions": [18, 1200, "v", 18000], "trial": 0, "trial_type": "free-recall", "trial_index": 41, "time_elapsed": 500719, "internal_node_id": "0.0-32.0-0.0"}}, {"uniqueid": "MTK0417:3YHH42UU5CMHD0AYYRLNUFCT3YI0LW", "current_trial": 42, "dateTime": 1510946291071, "trialdata": {"rt": 1450, "key_press": 13, "type": "INSTRUCTIONS", "trial_type": "text", "trial_index": 42, "time_elapsed": 504190, "internal_node_id": "0.0-33.0"}}, {"uniqueid": "MTK0417:3YHH42UU5CMHD0AYYRLNUFCT3YI0LW", "current_trial": 43, "dateTime": 1510946311182, "trialdata": {"rt": [5239, 7517, 9697, 11407, 13395, 15710, 17392], "responses": ["18", "16", "16", "10", "16", "8", "11"], "num1": [8, 6, 5, 3, 7, 3, 6, 2], "num2": [4, 9, 8, 2, 6, 3, 1, 2], "num3": [6, 1, 3, 5, 3, 2, 4, 5], "type": "DISTRACTOR", "conditions": [18, 1200, "a", 18000], "trial": 1, "trial_type": "math-distractor", "trial_index": 43, "time_elapsed": 524301, "internal_node_id": "0.0-34.0"}}, {"uniqueid": "MTK0417:3YHH42UU5CMHD0AYYRLNUFCT3YI0LW", "current_trial": 44, "dateTime": 1510946314301, "trialdata": {"rt": -1, "stimulus": "<p id=\"stim\">10</p>", "key_press": -1, "trial_type": "single-stim", "trial_index": 44, "time_elapsed": 527420, "internal_node_id": "0.0-35.0-0.0"}}, {"uniqueid": "MTK0417:3YHH42UU5CMHD0AYYRLNUFCT3YI0LW", "current_trial": 45, "dateTime": 1510946315342, "trialdata": {"rt": -1, "stimulus": "<p id=\"stim\">9</p>", "key_press": -1, "trial_type": "single-stim", "trial_index": 45, "time_elapsed": 528461, "internal_node_id": "0.0-35.0-1.0"}}, {"uniqueid": "MTK0417:3YHH42UU5CMHD0AYYRLNUFCT3YI0LW", "current_trial": 46, "dateTime": 1510946316465, "trialdata": {"rt": -1, "stimulus": "<p id=\"stim\">8</p>", "key_press": -1, "trial_type": "single-stim", "trial_index": 46, "time_elapsed": 529583, "internal_node_id": "0.0-35.0-2.0"}}, {"uniqueid": "MTK0417:3YHH42UU5CMHD0AYYRLNUFCT3YI0LW", "current_trial": 47, "dateTime": 1510946317517, "trialdata": {"rt": -1, "stimulus": "<p id=\"stim\">7</p>", "key_press": -1, "trial_type": "single-stim", "trial_index": 47, "time_elapsed": 530635, "internal_node_id": "0.0-35.0-3.0"}}, {"uniqueid": "MTK0417:3YHH42UU5CMHD0AYYRLNUFCT3YI0LW", "current_trial": 48, "dateTime": 1510946318592, "trialdata": {"rt": -1, "stimulus": "<p id=\"stim\">6</p>", "key_press": -1, "trial_type": "single-stim", "trial_index": 48, "time_elapsed": 531711, "internal_node_id": "0.0-35.0-4.0"}}, {"uniqueid": "MTK0417:3YHH42UU5CMHD0AYYRLNUFCT3YI0LW", "current_trial": 49, "dateTime": 1510946319625, "trialdata": {"rt": -1, "stimulus": "<p id=\"stim\">5</p>", "key_press": -1, "trial_type": "single-stim", "trial_index": 49, "time_elapsed": 532744, "internal_node_id": "0.0-35.0-5.0"}}, {"uniqueid": "MTK0417:3YHH42UU5CMHD0AYYRLNUFCT3YI0LW", "current_trial": 50, "dateTime": 1510946320645, "trialdata": {"rt": -1, "stimulus": "<p id=\"stim\">4</p>", "key_press": -1, "trial_type": "single-stim", "trial_index": 50, "time_elapsed": 533764, "internal_node_id": "0.0-35.0-6.0"}}, {"uniqueid": "MTK0417:3YHH42UU5CMHD0AYYRLNUFCT3YI0LW", "current_trial": 51, "dateTime": 1510946321670, "trialdata": {"rt": -1, "stimulus": "<p id=\"stim\">3</p>", "key_press": -1, "trial_type": "single-stim", "trial_index": 51, "time_elapsed": 534788, "internal_node_id": "0.0-35.0-7.0"}}, {"uniqueid": "MTK0417:3YHH42UU5CMHD0AYYRLNUFCT3YI0LW", "current_trial": 52, "dateTime": 1510946322672, "trialdata": {"rt": -1, "stimulus": "<p id=\"stim\">2</p>", "key_press": -1, "trial_type": "single-stim", "trial_index": 52, "time_elapsed": 535791, "internal_node_id": "0.0-35.0-8.0"}}, {"uniqueid": "MTK0417:3YHH42UU5CMHD0AYYRLNUFCT3YI0LW", "current_trial": 53, "dateTime": 1510946323674, "trialdata": {"rt": -1, "stimulus": "<p id=\"stim\">1</p>", "key_press": -1, "trial_type": "single-stim", "trial_index": 53, "time_elapsed": 536793, "internal_node_id": "0.0-35.0-9.0"}}, {"uniqueid": "MTK0417:3YHH42UU5CMHD0AYYRLNUFCT3YI0LW", "current_trial": 54, "dateTime": 1510946325176, "trialdata": {"rt": -1, "stimulus": "<p id=\"stim\">+</p>", "key_press": -1, "type": "FIXATION", "trial_type": "single-stim", "trial_index": 54, "time_elapsed": 538295, "internal_node_id": "0.0-36.0-0.0"}}, {"uniqueid": "MTK0417:3YHH42UU5CMHD0AYYRLNUFCT3YI0LW", "current_trial": 55, "dateTime": 1510946327429, "trialdata": {"rt": -1000, "stimulus": "/static/audio/wordpool/LIGHTNING.wav", "key_press": -1, "type": "PRES_AUD", "word": "lightning", "wordID": 819, "conditions": [18, 1200, "a", 18000], "trial": 1, "serialpos": 0, "trial_type": "single-audio", "trial_index": 55, "time_elapsed": 540548, "internal_node_id": "0.0-37.0"}}, {"uniqueid": "MTK0417:3YHH42UU5CMHD0AYYRLNUFCT3YI0LW", "current_trial": 56, "dateTime": 1510946329490, "trialdata": {"rt": -1000, "stimulus": "/static/audio/wordpool/CUPBOARD.wav", "key_press": -1, "type": "PRES_AUD", "word": "cupboard", "wordID": 424, "conditions": [18, 1200, "a", 18000], "trial": 1, "serialpos": 1, "trial_type": "single-audio", "trial_index": 56, "time_elapsed": 542609, "internal_node_id": "0.0-38.0"}}, {"uniqueid": "MTK0417:3YHH42UU5CMHD0AYYRLNUFCT3YI0LW", "current_trial": 57, "dateTime": 1510946331789, "trialdata": {"rt": -1000, "stimulus": "/static/audio/wordpool/POET.wav", "key_press": -1, "type": "PRES_AUD", "word": "poet", "wordID": 1094, "conditions": [18, 1200, "a", 18000], "trial": 1, "serialpos": 2, "trial_type": "single-audio", "trial_index": 57, "time_elapsed": 544908, "internal_node_id": "0.0-39.0"}}, {"uniqueid": "MTK0417:3YHH42UU5CMHD0AYYRLNUFCT3YI0LW", "current_trial": 58, "dateTime": 1510946334143, "trialdata": {"rt": -1000, "stimulus": "/static/audio/wordpool/CLIMBER.wav", "key_press": -1, "type": "PRES_AUD", "word": "climber", "wordID": 322, "conditions": [18, 1200, "a", 18000], "trial": 1, "serialpos": 3, "trial_type": "single-audio", "trial_index": 58, "time_elapsed": 547261, "internal_node_id": "0.0-40.0"}}, {"uniqueid": "MTK0417:3YHH42UU5CMHD0AYYRLNUFCT3YI0LW", "current_trial": 59, "dateTime": 1510946336165, "trialdata": {"rt": -1000, "stimulus": "/static/audio/wordpool/CUSTARD.wav", "key_press": -1, "type": "PRES_AUD", "word": "custard", "wordID": 428, "conditions": [18, 1200, "a", 18000], "trial": 1, "serialpos": 4, "trial_type": "single-audio", "trial_index": 59, "time_elapsed": 549284, "internal_node_id": "0.0-41.0"}}, {"uniqueid": "MTK0417:3YHH42UU5CMHD0AYYRLNUFCT3YI0LW", "current_trial": 60, "dateTime": 1510946338577, "trialdata": {"rt": -1000, "stimulus": "/static/audio/wordpool/SLIDE.wav", "key_press": -1, "type": "PRES_AUD", "word": "slide", "wordID": 1325, "conditions": [18, 1200, "a", 18000], "trial": 1, "serialpos": 5, "trial_type": "single-audio", "trial_index": 60, "time_elapsed": 551696, "internal_node_id": "0.0-42.0"}}, {"uniqueid": "MTK0417:3YHH42UU5CMHD0AYYRLNUFCT3YI0LW", "current_trial": 61, "dateTime": 1510946340686, "trialdata": {"rt": -1000, "stimulus": "/static/audio/wordpool/XEROX.wav", "key_press": -1, "type": "PRES_AUD", "word": "xerox", "wordID": 1627, "conditions": [18, 1200, "a", 18000], "trial": 1, "serialpos": 6, "trial_type": "single-audio", "trial_index": 61, "time_elapsed": 553805, "internal_node_id": "0.0-43.0"}}, {"uniqueid": "MTK0417:3YHH42UU5CMHD0AYYRLNUFCT3YI0LW", "current_trial": 62, "dateTime": 1510946343063, "trialdata": {"rt": -1000, "stimulus": "/static/audio/wordpool/STOMACH.wav", "key_press": -1, "type": "PRES_AUD", "word": "stomach", "wordID": 1383, "conditions": [18, 1200, "a", 18000], "trial": 1, "serialpos": 7, "trial_type": "single-audio", "trial_index": 62, "time_elapsed": 556182, "internal_node_id": "0.0-44.0"}}, {"uniqueid": "MTK0417:3YHH42UU5CMHD0AYYRLNUFCT3YI0LW", "current_trial": 63, "dateTime": 1510946345331, "trialdata": {"rt": -1000, "stimulus": "/static/audio/wordpool/ZIPPER.wav", "key_press": -1, "type": "PRES_AUD", "word": "zipper", "wordID": 1635, "conditions": [18, 1200, "a", 18000], "trial": 1, "serialpos": 8, "trial_type": "single-audio", "trial_index": 63, "time_elapsed": 558450, "internal_node_id": "0.0-45.0"}}, {"uniqueid": "MTK0417:3YHH42UU5CMHD0AYYRLNUFCT3YI0LW", "current_trial": 64, "dateTime": 1510946347457, "trialdata": {"rt": -1000, "stimulus": "/static/audio/wordpool/TEACHER.wav", "key_press": -1, "type": "PRES_AUD", "word": "teacher", "wordID": 1439, "conditions": [18, 1200, "a", 18000], "trial": 1, "serialpos": 9, "trial_type": "single-audio", "trial_index": 64, "time_elapsed": 560575, "internal_node_id": "0.0-46.0"}}, {"uniqueid": "MTK0417:3YHH42UU5CMHD0AYYRLNUFCT3YI0LW", "current_trial": 65, "dateTime": 1510946349550, "trialdata": {"rt": -1000, "stimulus": "/static/audio/wordpool/FILM.wav", "key_press": -1, "type": "PRES_AUD", "word": "film", "wordID": 564, "conditions": [18, 1200, "a", 18000], "trial": 1, "serialpos": 10, "trial_type": "single-audio", "trial_index": 65, "time_elapsed": 562669, "internal_node_id": "0.0-47.0"}}, {"uniqueid": "MTK0417:3YHH42UU5CMHD0AYYRLNUFCT3YI0LW", "current_trial": 66, "dateTime": 1510946351611, "trialdata": {"rt": -1000, "stimulus": "/static/audio/wordpool/LONDON.wav", "key_press": -1, "type": "PRES_AUD", "word": "london", "wordID": 842, "conditions": [18, 1200, "a", 18000], "trial": 1, "serialpos": 11, "trial_type": "single-audio", "trial_index": 66, "time_elapsed": 564730, "internal_node_id": "0.0-48.0"}}, {"uniqueid": "MTK0417:3YHH42UU5CMHD0AYYRLNUFCT3YI0LW", "current_trial": 67, "dateTime": 1510946353662, "trialdata": {"rt": -1000, "stimulus": "/static/audio/wordpool/FUNGUS.wav", "key_press": -1, "type": "PRES_AUD", "word": "fungus", "wordID": 613, "conditions": [18, 1200, "a", 18000], "trial": 1, "serialpos": 12, "trial_type": "single-audio", "trial_index": 67, "time_elapsed": 566780, "internal_node_id": "0.0-49.0"}}, {"uniqueid": "MTK0417:3YHH42UU5CMHD0AYYRLNUFCT3YI0LW", "current_trial": 68, "dateTime": 1510946355717, "trialdata": {"rt": -1000, "stimulus": "/static/audio/wordpool/TWEEZERS.wav", "key_press": -1, "type": "PRES_AUD", "word": "tweezers", "wordID": 1525, "conditions": [18, 1200, "a", 18000], "trial": 1, "serialpos": 13, "trial_type": "single-audio", "trial_index": 68, "time_elapsed": 568836, "internal_node_id": "0.0-50.0"}}, {"uniqueid": "MTK0417:3YHH42UU5CMHD0AYYRLNUFCT3YI0LW", "current_trial": 69, "dateTime": 1510946358113, "trialdata": {"rt": -1000, "stimulus": "/static/audio/wordpool/STOVE.wav", "key_press": -1, "type": "PRES_AUD", "word": "stove", "wordID": 1387, "conditions": [18, 1200, "a", 18000], "trial": 1, "serialpos": 14, "trial_type": "single-audio", "trial_index": 69, "time_elapsed": 571231, "internal_node_id": "0.0-51.0"}}, {"uniqueid": "MTK0417:3YHH42UU5CMHD0AYYRLNUFCT3YI0LW", "current_trial": 70, "dateTime": 1510946360499, "trialdata": {"rt": -1000, "stimulus": "/static/audio/wordpool/ITEM.wav", "key_press": -1, "type": "PRES_AUD", "word": "item", "wordID": 745, "conditions": [18, 1200, "a", 18000], "trial": 1, "serialpos": 15, "trial_type": "single-audio", "trial_index": 70, "time_elapsed": 573617, "internal_node_id": "0.0-52.0"}}, {"uniqueid": "MTK0417:3YHH42UU5CMHD0AYYRLNUFCT3YI0LW", "current_trial": 71, "dateTime": 1510946362546, "trialdata": {"rt": -1000, "stimulus": "/static/audio/wordpool/CATCHER.wav", "key_press": -1, "type": "PRES_AUD", "word": "catcher", "wordID": 257, "conditions": [18, 1200, "a", 18000], "trial": 1, "serialpos": 16, "trial_type": "single-audio", "trial_index": 71, "time_elapsed": 575664, "internal_node_id": "0.0-53.0"}}, {"uniqueid": "MTK0417:3YHH42UU5CMHD0AYYRLNUFCT3YI0LW", "current_trial": 72, "dateTime": 1510946364842, "trialdata": {"rt": -1000, "stimulus": "/static/audio/wordpool/TRUCK.wav", "key_press": -1, "type": "PRES_AUD", "word": "truck", "wordID": 1511, "conditions": [18, 1200, "a", 18000], "trial": 1, "serialpos": 17, "trial_type": "single-audio", "trial_index": 72, "time_elapsed": 577960, "internal_node_id": "0.0-54.0"}}, {"uniqueid": "MTK0417:3YHH42UU5CMHD0AYYRLNUFCT3YI0LW", "current_trial": 73, "dateTime": 1510946366139, "trialdata": {"rt": -1, "stimulus": "", "key_press": -1, "type": "PRE_RECALL_DELAY", "trial_type": "single-stim", "trial_index": 73, "time_elapsed": 579258, "internal_node_id": "0.0-55.0-0.0"}}, {"uniqueid": "MTK0417:3YHH42UU5CMHD0AYYRLNUFCT3YI0LW", "current_trial": 74, "dateTime": 1510946366642, "trialdata": {"rt": -1000, "stimulus": "/static/audio/400Hz.wav", "key_press": -1, "type": "PRE_RECALL_ALERT", "trial_type": "single-audio", "trial_index": 74, "time_elapsed": 579760, "internal_node_id": "0.0-56.0"}}, {"uniqueid": "MTK0417:3YHH42UU5CMHD0AYYRLNUFCT3YI0LW", "current_trial": 75, "dateTime": 1510946426702, "trialdata": {"rt": [2497, 3994, 13993, 18550, 37885, 42433], "recwords": ["truck", "item", "poet", "catcher", "cupboard", "tweezers"], "type": "FREE_RECALL", "conditions": [18, 1200, "a", 18000], "trial": 1, "trial_type": "free-recall", "trial_index": 75, "time_elapsed": 639807, "internal_node_id": "0.0-57.0-0.0"}}, {"uniqueid": "MTK0417:3YHH42UU5CMHD0AYYRLNUFCT3YI0LW", "current_trial": 76, "dateTime": 1510946431696, "trialdata": {"rt": 2918, "key_press": 13, "type": "INSTRUCTIONS", "trial_type": "text", "trial_index": 76, "time_elapsed": 644802, "internal_node_id": "0.0-58.0"}}, {"uniqueid": "MTK0417:3YHH42UU5CMHD0AYYRLNUFCT3YI0LW", "current_trial": 77, "dateTime": 1510946456704, "trialdata": {"rt": [1711, 4915, 7319, 9818, 11769, 14537, 17204, 19800, 21517], "responses": ["12", "18", "16", "23", "18", "19", "22", "17", "14"], "num1": [6, 8, 9, 9, 4, 7, 7, 5, 6, 2], "num2": [4, 6, 1, 8, 8, 8, 6, 7, 5, 6], "num3": [2, 4, 6, 6, 6, 4, 9, 5, 2, 3], "type": "DISTRACTOR", "conditions": [24, 800, "v", 24000], "trial": 2, "trial_type": "math-distractor", "trial_index": 77, "time_elapsed": 669823, "internal_node_id": "0.0-59.0"}}, {"uniqueid": "MTK0417:3YHH42UU5CMHD0AYYRLNUFCT3YI0LW", "current_trial": 78, "dateTime": 1510946459745, "trialdata": {"rt": -1, "stimulus": "<p id=\"stim\">10</p>", "key_press": -1, "trial_type": "single-stim", "trial_index": 78, "time_elapsed": 672834, "internal_node_id": "0.0-60.0-0.0"}}, {"uniqueid": "MTK0417:3YHH42UU5CMHD0AYYRLNUFCT3YI0LW", "current_trial": 79, "dateTime": 1510946460757, "trialdata": {"rt": -1, "stimulus": "<p id=\"stim\">9</p>", "key_press": -1, "trial_type": "single-stim", "trial_index": 79, "time_elapsed": 673875, "internal_node_id": "0.0-60.0-1.0"}}, {"uniqueid": "MTK0417:3YHH42UU5CMHD0AYYRLNUFCT3YI0LW", "current_trial": 80, "dateTime": 1510946461783, "trialdata": {"rt": -1, "stimulus": "<p id=\"stim\">8</p>", "key_press": -1, "trial_type": "single-stim", "trial_index": 80, "time_elapsed": 674901, "internal_node_id": "0.0-60.0-2.0"}}, {"uniqueid": "MTK0417:3YHH42UU5CMHD0AYYRLNUFCT3YI0LW", "current_trial": 81, "dateTime": 1510946462786, "trialdata": {"rt": -1, "stimulus": "<p id=\"stim\">7</p>", "key_press": -1, "trial_type": "single-stim", "trial_index": 81, "time_elapsed": 675905, "internal_node_id": "0.0-60.0-3.0"}}, {"uniqueid": "MTK0417:3YHH42UU5CMHD0AYYRLNUFCT3YI0LW", "current_trial": 82, "dateTime": 1510946463789, "trialdata": {"rt": -1, "stimulus": "<p id=\"stim\">6</p>", "key_press": -1, "trial_type": "single-stim", "trial_index": 82, "time_elapsed": 676908, "internal_node_id": "0.0-60.0-4.0"}}, {"uniqueid": "MTK0417:3YHH42UU5CMHD0AYYRLNUFCT3YI0LW", "current_trial": 83, "dateTime": 1510946464790, "trialdata": {"rt": -1, "stimulus": "<p id=\"stim\">5</p>", "key_press": -1, "trial_type": "single-stim", "trial_index": 83, "time_elapsed": 677909, "internal_node_id": "0.0-60.0-5.0"}}, {"uniqueid": "MTK0417:3YHH42UU5CMHD0AYYRLNUFCT3YI0LW", "current_trial": 84, "dateTime": 1510946465792, "trialdata": {"rt": -1, "stimulus": "<p id=\"stim\">4</p>", "key_press": -1, "trial_type": "single-stim", "trial_index": 84, "time_elapsed": 678911, "internal_node_id": "0.0-60.0-6.0"}}, {"uniqueid": "MTK0417:3YHH42UU5CMHD0AYYRLNUFCT3YI0LW", "current_trial": 85, "dateTime": 1510946466794, "trialdata": {"rt": -1, "stimulus": "<p id=\"stim\">3</p>", "key_press": -1, "trial_type": "single-stim", "trial_index": 85, "time_elapsed": 679913, "internal_node_id": "0.0-60.0-7.0"}}, {"uniqueid": "MTK0417:3YHH42UU5CMHD0AYYRLNUFCT3YI0LW", "current_trial": 86, "dateTime": 1510946467814, "trialdata": {"rt": -1, "stimulus": "<p id=\"stim\">2</p>", "key_press": -1, "trial_type": "single-stim", "trial_index": 86, "time_elapsed": 680933, "internal_node_id": "0.0-60.0-8.0"}}, {"uniqueid": "MTK0417:3YHH42UU5CMHD0AYYRLNUFCT3YI0LW", "current_trial": 87, "dateTime": 1510946468842, "trialdata": {"rt": -1, "stimulus": "<p id=\"stim\">1</p>", "key_press": -1, "trial_type": "single-stim", "trial_index": 87, "time_elapsed": 681960, "internal_node_id": "0.0-60.0-9.0"}}, {"uniqueid": "MTK0417:3YHH42UU5CMHD0AYYRLNUFCT3YI0LW", "current_trial": 88, "dateTime": 1510946470343, "trialdata": {"rt": -1, "stimulus": "<p id=\"stim\">+</p>", "key_press": -1, "type": "FIXATION", "trial_type": "single-stim", "trial_index": 88, "time_elapsed": 683462, "internal_node_id": "0.0-61.0-0.0"}}, {"uniqueid": "MTK0417:3YHH42UU5CMHD0AYYRLNUFCT3YI0LW", "current_trial": 89, "dateTime": 1510946471148, "trialdata": {"rt": -1, "stimulus": "<p id=\"stim\">BLENDER</p>", "key_press": -1, "type": "PRES_VIS", "word": "blender", "wordID": 135, "conditions": [24, 800, "v", 24000], "trial": 2, "serialpos": 0, "trial_type": "single-stim", "trial_index": 89, "time_elapsed": 684267, "internal_node_id": "0.0-62.0"}}, {"uniqueid": "MTK0417:3YHH42UU5CMHD0AYYRLNUFCT3YI0LW", "current_trial": 90, "dateTime": 1510946473002, "trialdata": {"rt": -1, "stimulus": "<p id=\"stim\">SIDEWALK</p>", "key_press": -1, "type": "PRES_VIS", "word": "sidewalk", "wordID": 1302, "conditions": [24, 800, "v", 24000], "trial": 2, "serialpos": 1, "trial_type": "single-stim", "trial_index": 90, "time_elapsed": 686121, "internal_node_id": "0.0-63.0"}}, {"uniqueid": "MTK0417:3YHH42UU5CMHD0AYYRLNUFCT3YI0LW", "current_trial": 91, "dateTime": 1510946474742, "trialdata": {"rt": -1, "stimulus": "<p id=\"stim\">PIANO</p>", "key_press": -1, "type": "PRES_VIS", "word": "piano", "wordID": 1056, "conditions": [24, 800, "v", 24000], "trial": 2, "serialpos": 2, "trial_type": "single-stim", "trial_index": 91, "time_elapsed": 687860, "internal_node_id": "0.0-64.0"}}, {"uniqueid": "MTK0417:3YHH42UU5CMHD0AYYRLNUFCT3YI0LW", "current_trial": 92, "dateTime": 1510946476448, "trialdata": {"rt": -1, "stimulus": "<p id=\"stim\">TUBA</p>", "key_press": -1, "type": "PRES_VIS", "word": "tuba", "wordID": 1514, "conditions": [24, 800, "v", 24000], "trial": 2, "serialpos": 3, "trial_type": "single-stim", "trial_index": 92, "time_elapsed": 689567, "internal_node_id": "0.0-65.0"}}, {"uniqueid": "MTK0417:3YHH42UU5CMHD0AYYRLNUFCT3YI0LW", "current_trial": 93, "dateTime": 1510946478463, "trialdata": {"rt": -1, "stimulus": "<p id=\"stim\">FINGER</p>", "key_press": -1, "type": "PRES_VIS", "word": "finger", "wordID": 566, "conditions": [24, 800, "v", 24000], "trial": 2, "serialpos": 4, "trial_type": "single-stim", "trial_index": 93, "time_elapsed": 691581, "internal_node_id": "0.0-66.0"}}, {"uniqueid": "MTK0417:3YHH42UU5CMHD0AYYRLNUFCT3YI0LW", "current_trial": 94, "dateTime": 1510946480483, "trialdata": {"rt": -1, "stimulus": "<p id=\"stim\">PISTOL</p>", "key_press": -1, "type": "PRES_VIS", "word": "pistol", "wordID": 1074, "conditions": [24, 800, "v", 24000], "trial": 2, "serialpos": 5, "trial_type": "single-stim", "trial_index": 94, "time_elapsed": 693602, "internal_node_id": "0.0-67.0"}}, {"uniqueid": "MTK0417:3YHH42UU5CMHD0AYYRLNUFCT3YI0LW", "current_trial": 95, "dateTime": 1510946482161, "trialdata": {"rt": -1, "stimulus": "<p id=\"stim\">TABLE</p>", "key_press": -1, "type": "PRES_VIS", "word": "table", "wordID": 1425, "conditions": [24, 800, "v", 24000], "trial": 2, "serialpos": 6, "trial_type": "single-stim", "trial_index": 95, "time_elapsed": 695280, "internal_node_id": "0.0-68.0"}}, {"uniqueid": "MTK0417:3YHH42UU5CMHD0AYYRLNUFCT3YI0LW", "current_trial": 96, "dateTime": 1510946483897, "trialdata": {"rt": -1, "stimulus": "<p id=\"stim\">PLAZA</p>", "key_press": -1, "type": "PRES_VIS", "word": "plaza", "wordID": 1087, "conditions": [24, 800, "v", 24000], "trial": 2, "serialpos": 7, "trial_type": "single-stim", "trial_index": 96, "time_elapsed": 697016, "internal_node_id": "0.0-69.0"}}, {"uniqueid": "MTK0417:3YHH42UU5CMHD0AYYRLNUFCT3YI0LW", "current_trial": 97, "dateTime": 1510946485849, "trialdata": {"rt": -1, "stimulus": "<p id=\"stim\">DUSTPAN</p>", "key_press": -1, "type": "PRES_VIS", "word": "dustpan", "wordID": 508, "conditions": [24, 800, "v", 24000], "trial": 2, "serialpos": 8, "trial_type": "single-stim", "trial_index": 97, "time_elapsed": 698968, "internal_node_id": "0.0-70.0"}}, {"uniqueid": "MTK0417:3YHH42UU5CMHD0AYYRLNUFCT3YI0LW", "current_trial": 98, "dateTime": 1510946487500, "trialdata": {"rt": -1, "stimulus": "<p id=\"stim\">LAPEL</p>", "key_press": -1, "type": "PRES_VIS", "word": "lapel", "wordID": 799, "conditions": [24, 800, "v", 24000], "trial": 2, "serialpos": 9, "trial_type": "single-stim", "trial_index": 98, "time_elapsed": 700619, "internal_node_id": "0.0-71.0"}}, {"uniqueid": "MTK0417:3YHH42UU5CMHD0AYYRLNUFCT3YI0LW", "current_trial": 99, "dateTime": 1510946489340, "trialdata": {"rt": -1, "stimulus": "<p id=\"stim\">MARS</p>", "key_press": -1, "type": "PRES_VIS", "word": "mars", "wordID": 872, "conditions": [24, 800, "v", 24000], "trial": 2, "serialpos": 10, "trial_type": "single-stim", "trial_index": 99, "time_elapsed": 702459, "internal_node_id": "0.0-72.0"}}, {"uniqueid": "MTK0417:3YHH42UU5CMHD0AYYRLNUFCT3YI0LW", "current_trial": 100, "dateTime": 1510946491396, "trialdata": {"rt": -1, "stimulus": "<p id=\"stim\">HOOD</p>", "key_press": -1, "type": "PRES_VIS", "word": "hood", "wordID": 713, "conditions": [24, 800, "v", 24000], "trial": 2, "serialpos": 11, "trial_type": "single-stim", "trial_index": 100, "time_elapsed": 704515, "internal_node_id": "0.0-73.0"}}, {"uniqueid": "MTK0417:3YHH42UU5CMHD0AYYRLNUFCT3YI0LW", "current_trial": 101, "dateTime": 1510946493117, "trialdata": {"rt": -1, "stimulus": "<p id=\"stim\">BANJO</p>", "key_press": -1, "type": "PRES_VIS", "word": "banjo", "wordID": 81, "conditions": [24, 800, "v", 24000], "trial": 2, "serialpos": 12, "trial_type": "single-stim", "trial_index": 101, "time_elapsed": 706236, "internal_node_id": "0.0-74.0"}}, {"uniqueid": "MTK0417:3YHH42UU5CMHD0AYYRLNUFCT3YI0LW", "current_trial": 102, "dateTime": 1510946494844, "trialdata": {"rt": -1, "stimulus": "<p id=\"stim\">RIVER</p>", "key_press": -1, "type": "PRES_VIS", "word": "river", "wordID": 1193, "conditions": [24, 800, "v", 24000], "trial": 2, "serialpos": 13, "trial_type": "single-stim", "trial_index": 102, "time_elapsed": 707963, "internal_node_id": "0.0-75.0"}}, {"uniqueid": "MTK0417:3YHH42UU5CMHD0AYYRLNUFCT3YI0LW", "current_trial": 103, "dateTime": 1510946496664, "trialdata": {"rt": -1, "stimulus": "<p id=\"stim\">CASKET</p>", "key_press": -1, "type": "PRES_VIS", "word": "casket", "wordID": 254, "conditions": [24, 800, "v", 24000], "trial": 2, "serialpos": 14, "trial_type": "single-stim", "trial_index": 103, "time_elapsed": 709783, "internal_node_id": "0.0-76.0"}}, {"uniqueid": "MTK0417:3YHH42UU5CMHD0AYYRLNUFCT3YI0LW", "current_trial": 104, "dateTime": 1510946498599, "trialdata": {"rt": -1, "stimulus": "<p id=\"stim\">RABBIT</p>", "key_press": -1, "type": "PRES_VIS", "word": "rabbit", "wordID": 1151, "conditions": [24, 800, "v", 24000], "trial": 2, "serialpos": 15, "trial_type": "single-stim", "trial_index": 104, "time_elapsed": 711718, "internal_node_id": "0.0-77.0"}}, {"uniqueid": "MTK0417:3YHH42UU5CMHD0AYYRLNUFCT3YI0LW", "current_trial": 105, "dateTime": 1510946500244, "trialdata": {"rt": -1, "stimulus": "<p id=\"stim\">ROOSTER</p>", "key_press": -1, "type": "PRES_VIS", "word": "rooster", "wordID": 1208, "conditions": [24, 800, "v", 24000], "trial": 2, "serialpos": 16, "trial_type": "single-stim", "trial_index": 105, "time_elapsed": 713363, "internal_node_id": "0.0-78.0"}}, {"uniqueid": "MTK0417:3YHH42UU5CMHD0AYYRLNUFCT3YI0LW", "current_trial": 106, "dateTime": 1510946501940, "trialdata": {"rt": -1, "stimulus": "<p id=\"stim\">COSTUME</p>", "key_press": -1, "type": "PRES_VIS", "word": "costume", "wordID": 382, "conditions": [24, 800, "v", 24000], "trial": 2, "serialpos": 17, "trial_type": "single-stim", "trial_index": 106, "time_elapsed": 715059, "internal_node_id": "0.0-79.0"}}, {"uniqueid": "MTK0417:3YHH42UU5CMHD0AYYRLNUFCT3YI0LW", "current_trial": 107, "dateTime": 1510946503806, "trialdata": {"rt": -1, "stimulus": "<p id=\"stim\">RECORD</p>", "key_press": -1, "type": "PRES_VIS", "word": "record", "wordID": 1175, "conditions": [24, 800, "v", 24000], "trial": 2, "serialpos": 18, "trial_type": "single-stim", "trial_index": 107, "time_elapsed": 716925, "internal_node_id": "0.0-80.0"}}, {"uniqueid": "MTK0417:3YHH42UU5CMHD0AYYRLNUFCT3YI0LW", "current_trial": 108, "dateTime": 1510946505644, "trialdata": {"rt": -1, "stimulus": "<p id=\"stim\">LETTUCE</p>", "key_press": -1, "type": "PRES_VIS", "word": "lettuce", "wordID": 813, "conditions": [24, 800, "v", 24000], "trial": 2, "serialpos": 19, "trial_type": "single-stim", "trial_index": 108, "time_elapsed": 718763, "internal_node_id": "0.0-81.0"}}, {"uniqueid": "MTK0417:3YHH42UU5CMHD0AYYRLNUFCT3YI0LW", "current_trial": 109, "dateTime": 1510946507502, "trialdata": {"rt": -1, "stimulus": "<p id=\"stim\">TOMBSTONE</p>", "key_press": -1, "type": "PRES_VIS", "word": "tombstone", "wordID": 1477, "conditions": [24, 800, "v", 24000], "trial": 2, "serialpos": 20, "trial_type": "single-stim", "trial_index": 109, "time_elapsed": 720621, "internal_node_id": "0.0-82.0"}}, {"uniqueid": "MTK0417:3YHH42UU5CMHD0AYYRLNUFCT3YI0LW", "current_trial": 110, "dateTime": 1510946509134, "trialdata": {"rt": -1, "stimulus": "<p id=\"stim\">ULCER</p>", "key_press": -1, "type": "PRES_VIS", "word": "ulcer", "wordID": 1532, "conditions": [24, 800, "v", 24000], "trial": 2, "serialpos": 21, "trial_type": "single-stim", "trial_index": 110, "time_elapsed": 722253, "internal_node_id": "0.0-83.0"}}, {"uniqueid": "MTK0417:3YHH42UU5CMHD0AYYRLNUFCT3YI0LW", "current_trial": 111, "dateTime": 1510946511082, "trialdata": {"rt": -1, "stimulus": "<p id=\"stim\">BLOCKADE</p>", "key_press": -1, "type": "PRES_VIS", "word": "blockade", "wordID": 136, "conditions": [24, 800, "v", 24000], "trial": 2, "serialpos": 22, "trial_type": "single-stim", "trial_index": 111, "time_elapsed": 724201, "internal_node_id": "0.0-84.0"}}, {"uniqueid": "MTK0417:3YHH42UU5CMHD0AYYRLNUFCT3YI0LW", "current_trial": 112, "dateTime": 1510946512964, "trialdata": {"rt": -1, "stimulus": "<p id=\"stim\">REBEL</p>", "key_press": -1, "type": "PRES_VIS", "word": "rebel", "wordID": 1171, "conditions": [24, 800, "v", 24000], "trial": 2, "serialpos": 23, "trial_type": "single-stim", "trial_index": 112, "time_elapsed": 726083, "internal_node_id": "0.0-85.0"}}, {"uniqueid": "MTK0417:3YHH42UU5CMHD0AYYRLNUFCT3YI0LW", "current_trial": 113, "dateTime": 1510946515183, "trialdata": {"rt": -1, "stimulus": "", "key_press": -1, "type": "PRE_RECALL_DELAY", "trial_type": "single-stim", "trial_index": 113, "time_elapsed": 728301, "internal_node_id": "0.0-86.0-0.0"}}, {"uniqueid": "MTK0417:3YHH42UU5CMHD0AYYRLNUFCT3YI0LW", "current_trial": 114, "dateTime": 1510946515690, "trialdata": {"rt": -1000, "stimulus": "/static/audio/400Hz.wav", "key_press": -1, "type": "PRE_RECALL_ALERT", "trial_type": "single-audio", "trial_index": 114, "time_elapsed": 728809, "internal_node_id": "0.0-87.0"}}, {"uniqueid": "MTK0417:3YHH42UU5CMHD0AYYRLNUFCT3YI0LW", "current_trial": 115, "dateTime": 1510946575722, "trialdata": {"rt": [3156, 5468, 7490, 10243, 11795, 14014, 23484, 32727, 39263, 53191], "recwords": ["casket", "tombstone", "rebel", "sidewalk", "finger", "piano", "lapel", "rabbit", "finger", "plaza"], "type": "FREE_RECALL", "conditions": [24, 800, "v", 24000], "trial": 2, "trial_type": "free-recall", "trial_index": 115, "time_elapsed": 788824, "internal_node_id": "0.0-88.0-0.0"}}, {"uniqueid": "MTK0417:3YHH42UU5CMHD0AYYRLNUFCT3YI0LW", "current_trial": 116, "dateTime": 1510946578889, "trialdata": {"rt": 1164, "key_press": 32, "type": "INSTRUCTIONS", "trial_type": "text", "trial_index": 116, "time_elapsed": 792008, "internal_node_id": "0.0-89.0"}}, {"uniqueid": "MTK0417:3YHH42UU5CMHD0AYYRLNUFCT3YI0LW", "current_trial": 117, "dateTime": 1510946592962, "trialdata": {"rt": [2151, 4172, 6257, 7637, 9528], "responses": ["13", "9", "18", "12", "10"], "num1": [2, 6, 4, 4, 4, 8], "num2": [3, 2, 5, 7, 5, 5], "num3": [8, 1, 9, 1, 1, 7], "type": "DISTRACTOR", "conditions": [24, 800, "a", 12000], "trial": 3, "trial_type": "math-distractor", "trial_index": 117, "time_elapsed": 806081, "internal_node_id": "0.0-90.0"}}, {"uniqueid": "MTK0417:3YHH42UU5CMHD0AYYRLNUFCT3YI0LW", "current_trial": 118, "dateTime": 1510946596039, "trialdata": {"rt": -1, "stimulus": "<p id=\"stim\">10</p>", "key_press": -1, "trial_type": "single-stim", "trial_index": 118, "time_elapsed": 809158, "internal_node_id": "0.0-91.0-0.0"}}, {"uniqueid": "MTK0417:3YHH42UU5CMHD0AYYRLNUFCT3YI0LW", "current_trial": 119, "dateTime": 1510946597040, "trialdata": {"rt": -1, "stimulus": "<p id=\"stim\">9</p>", "key_press": -1, "trial_type": "single-stim", "trial_index": 119, "time_elapsed": 810159, "internal_node_id": "0.0-91.0-1.0"}}, {"uniqueid": "MTK0417:3YHH42UU5CMHD0AYYRLNUFCT3YI0LW", "current_trial": 120, "dateTime": 1510946598056, "trialdata": {"rt": -1, "stimulus": "<p id=\"stim\">8</p>", "key_press": -1, "trial_type": "single-stim", "trial_index": 120, "time_elapsed": 811175, "internal_node_id": "0.0-91.0-2.0"}}, {"uniqueid": "MTK0417:3YHH42UU5CMHD0AYYRLNUFCT3YI0LW", "current_trial": 121, "dateTime": 1510946599057, "trialdata": {"rt": -1, "stimulus": "<p id=\"stim\">7</p>", "key_press": -1, "trial_type": "single-stim", "trial_index": 121, "time_elapsed": 812176, "internal_node_id": "0.0-91.0-3.0"}}, {"uniqueid": "MTK0417:3YHH42UU5CMHD0AYYRLNUFCT3YI0LW", "current_trial": 122, "dateTime": 1510946600059, "trialdata": {"rt": -1, "stimulus": "<p id=\"stim\">6</p>", "key_press": -1, "trial_type": "single-stim", "trial_index": 122, "time_elapsed": 813178, "internal_node_id": "0.0-91.0-4.0"}}, {"uniqueid": "MTK0417:3YHH42UU5CMHD0AYYRLNUFCT3YI0LW", "current_trial": 123, "dateTime": 1510946601061, "trialdata": {"rt": -1, "stimulus": "<p id=\"stim\">5</p>", "key_press": -1, "trial_type": "single-stim", "trial_index": 123, "time_elapsed": 814180, "internal_node_id": "0.0-91.0-5.0"}}, {"uniqueid": "MTK0417:3YHH42UU5CMHD0AYYRLNUFCT3YI0LW", "current_trial": 124, "dateTime": 1510946602084, "trialdata": {"rt": -1, "stimulus": "<p id=\"stim\">4</p>", "key_press": -1, "trial_type": "single-stim", "trial_index": 124, "time_elapsed": 815203, "internal_node_id": "0.0-91.0-6.0"}}, {"uniqueid": "MTK0417:3YHH42UU5CMHD0AYYRLNUFCT3YI0LW", "current_trial": 125, "dateTime": 1510946603098, "trialdata": {"rt": -1, "stimulus": "<p id=\"stim\">3</p>", "key_press": -1, "trial_type": "single-stim", "trial_index": 125, "time_elapsed": 816217, "internal_node_id": "0.0-91.0-7.0"}}, {"uniqueid": "MTK0417:3YHH42UU5CMHD0AYYRLNUFCT3YI0LW", "current_trial": 126, "dateTime": 1510946604123, "trialdata": {"rt": -1, "stimulus": "<p id=\"stim\">2</p>", "key_press": -1, "trial_type": "single-stim", "trial_index": 126, "time_elapsed": 817241, "internal_node_id": "0.0-91.0-8.0"}}, {"uniqueid": "MTK0417:3YHH42UU5CMHD0AYYRLNUFCT3YI0LW", "current_trial": 127, "dateTime": 1510946605142, "trialdata": {"rt": -1, "stimulus": "<p id=\"stim\">1</p>", "key_press": -1, "trial_type": "single-stim", "trial_index": 127, "time_elapsed": 818261, "internal_node_id": "0.0-91.0-9.0"}}, {"uniqueid": "MTK0417:3YHH42UU5CMHD0AYYRLNUFCT3YI0LW", "current_trial": 128, "dateTime": 1510946606643, "trialdata": {"rt": -1, "stimulus": "<p id=\"stim\">+</p>", "key_press": -1, "type": "FIXATION", "trial_type": "single-stim", "trial_index": 128, "time_elapsed": 819762, "internal_node_id": "0.0-92.0-0.0"}}, {"uniqueid": "MTK0417:3YHH42UU5CMHD0AYYRLNUFCT3YI0LW", "current_trial": 129, "dateTime": 1510946608306, "trialdata": {"rt": -1000, "stimulus": "/static/audio/wordpool/PEANUT.wav", "key_press": -1, "type": "PRES_AUD", "word": "peanut", "wordID": 1031, "conditions": [24, 800, "a", 12000], "trial": 3, "serialpos": 0, "trial_type": "single-audio", "trial_index": 129, "time_elapsed": 821425, "internal_node_id": "0.0-93.0"}}, {"uniqueid": "MTK0417:3YHH42UU5CMHD0AYYRLNUFCT3YI0LW", "current_trial": 130, "dateTime": 1510946609966, "trialdata": {"rt": -1000, "stimulus": "/static/audio/wordpool/PARSLEY.wav", "key_press": -1, "type": "PRES_AUD", "word": "parsley", "wordID": 1015, "conditions": [24, 800, "a", 12000], "trial": 3, "serialpos": 1, "trial_type": "single-audio", "trial_index": 130, "time_elapsed": 823084, "internal_node_id": "0.0-94.0"}}, {"uniqueid": "MTK0417:3YHH42UU5CMHD0AYYRLNUFCT3YI0LW", "current_trial": 131, "dateTime": 1510946611925, "trialdata": {"rt": -1000, "stimulus": "/static/audio/wordpool/THIEF.wav", "key_press": -1, "type": "PRES_AUD", "word": "thief", "wordID": 1455, "conditions": [24, 800, "a", 12000], "trial": 3, "serialpos": 2, "trial_type": "single-audio", "trial_index": 131, "time_elapsed": 825044, "internal_node_id": "0.0-95.0"}}, {"uniqueid": "MTK0417:3YHH42UU5CMHD0AYYRLNUFCT3YI0LW", "current_trial": 132, "dateTime": 1510946613749, "trialdata": {"rt": -1000, "stimulus": "/static/audio/wordpool/PEPPER.wav", "key_press": -1, "type": "PRES_AUD", "word": "pepper", "wordID": 1046, "conditions": [24, 800, "a", 12000], "trial": 3, "serialpos": 3, "trial_type": "single-audio", "trial_index": 132, "time_elapsed": 826868, "internal_node_id": "0.0-96.0"}}, {"uniqueid": "MTK0417:3YHH42UU5CMHD0AYYRLNUFCT3YI0LW", "current_trial": 133, "dateTime": 1510946615510, "trialdata": {"rt": -1000, "stimulus": "/static/audio/wordpool/HOUND.wav", "key_press": -1, "type": "PRES_AUD", "word": "hound", "wordID": 723, "conditions": [24, 800, "a", 12000], "trial": 3, "serialpos": 4, "trial_type": "single-audio", "trial_index": 133, "time_elapsed": 828629, "internal_node_id": "0.0-97.0"}}, {"uniqueid": "MTK0417:3YHH42UU5CMHD0AYYRLNUFCT3YI0LW", "current_trial": 134, "dateTime": 1510946617200, "trialdata": {"rt": -1000, "stimulus": "/static/audio/wordpool/ROBBER.wav", "key_press": -1, "type": "PRES_AUD", "word": "robber", "wordID": 1196, "conditions": [24, 800, "a", 12000], "trial": 3, "serialpos": 5, "trial_type": "single-audio", "trial_index": 134, "time_elapsed": 830319, "internal_node_id": "0.0-98.0"}}, {"uniqueid": "MTK0417:3YHH42UU5CMHD0AYYRLNUFCT3YI0LW", "current_trial": 135, "dateTime": 1510946619037, "trialdata": {"rt": -1000, "stimulus": "/static/audio/wordpool/CATTLE.wav", "key_press": -1, "type": "PRES_AUD", "word": "cattle", "wordID": 260, "conditions": [24, 800, "a", 12000], "trial": 3, "serialpos": 6, "trial_type": "single-audio", "trial_index": 135, "time_elapsed": 832156, "internal_node_id": "0.0-99.0"}}, {"uniqueid": "MTK0417:3YHH42UU5CMHD0AYYRLNUFCT3YI0LW", "current_trial": 136, "dateTime": 1510946620789, "trialdata": {"rt": -1000, "stimulus": "/static/audio/wordpool/SHORTS.wav", "key_press": -1, "type": "PRES_AUD", "word": "shorts", "wordID": 1292, "conditions": [24, 800, "a", 12000], "trial": 3, "serialpos": 7, "trial_type": "single-audio", "trial_index": 136, "time_elapsed": 833908, "internal_node_id": "0.0-100.0"}}, {"uniqueid": "MTK0417:3YHH42UU5CMHD0AYYRLNUFCT3YI0LW", "current_trial": 137, "dateTime": 1510946622475, "trialdata": {"rt": -1000, "stimulus": "/static/audio/wordpool/TURTLE.wav", "key_press": -1, "type": "PRES_AUD", "word": "turtle", "wordID": 1521, "conditions": [24, 800, "a", 12000], "trial": 3, "serialpos": 8, "trial_type": "single-audio", "trial_index": 137, "time_elapsed": 835594, "internal_node_id": "0.0-101.0"}}, {"uniqueid": "MTK0417:3YHH42UU5CMHD0AYYRLNUFCT3YI0LW", "current_trial": 138, "dateTime": 1510946624215, "trialdata": {"rt": -1000, "stimulus": "/static/audio/wordpool/PANTHER.wav", "key_press": -1, "type": "PRES_AUD", "word": "panther", "wordID": 1008, "conditions": [24, 800, "a", 12000], "trial": 3, "serialpos": 9, "trial_type": "single-audio", "trial_index": 138, "time_elapsed": 837334, "internal_node_id": "0.0-102.0"}}, {"uniqueid": "MTK0417:3YHH42UU5CMHD0AYYRLNUFCT3YI0LW", "current_trial": 139, "dateTime": 1510946626237, "trialdata": {"rt": -1000, "stimulus": "/static/audio/wordpool/GRAVE.wav", "key_press": -1, "type": "PRES_AUD", "word": "grave", "wordID": 657, "conditions": [24, 800, "a", 12000], "trial": 3, "serialpos": 10, "trial_type": "single-audio", "trial_index": 139, "time_elapsed": 839356, "internal_node_id": "0.0-103.0"}}, {"uniqueid": "MTK0417:3YHH42UU5CMHD0AYYRLNUFCT3YI0LW", "current_trial": 140, "dateTime": 1510946627978, "trialdata": {"rt": -1000, "stimulus": "/static/audio/wordpool/BRANCH.wav", "key_press": -1, "type": "PRES_AUD", "word": "branch", "wordID": 167, "conditions": [24, 800, "a", 12000], "trial": 3, "serialpos": 11, "trial_type": "single-audio", "trial_index": 140, "time_elapsed": 841095, "internal_node_id": "0.0-104.0"}}, {"uniqueid": "MTK0417:3YHH42UU5CMHD0AYYRLNUFCT3YI0LW", "current_trial": 141, "dateTime": 1510946629779, "trialdata": {"rt": -1000, "stimulus": "/static/audio/wordpool/THREAD.wav", "key_press": -1, "type": "PRES_AUD", "word": "thread", "wordID": 1459, "conditions": [24, 800, "a", 12000], "trial": 3, "serialpos": 12, "trial_type": "single-audio", "trial_index": 141, "time_elapsed": 842897, "internal_node_id": "0.0-105.0"}}, {"uniqueid": "MTK0417:3YHH42UU5CMHD0AYYRLNUFCT3YI0LW", "current_trial": 142, "dateTime": 1510946631786, "trialdata": {"rt": -1000, "stimulus": "/static/audio/wordpool/NOTEBOOK.wav", "key_press": -1, "type": "PRES_AUD", "word": "notebook", "wordID": 958, "conditions": [24, 800, "a", 12000], "trial": 3, "serialpos": 13, "trial_type": "single-audio", "trial_index": 142, "time_elapsed": 844904, "internal_node_id": "0.0-106.0"}}, {"uniqueid": "MTK0417:3YHH42UU5CMHD0AYYRLNUFCT3YI0LW", "current_trial": 143, "dateTime": 1510946633760, "trialdata": {"rt": -1000, "stimulus": "/static/audio/wordpool/VICTIM.wav", "key_press": -1, "type": "PRES_AUD", "word": "victim", "wordID": 1561, "conditions": [24, 800, "a", 12000], "trial": 3, "serialpos": 14, "trial_type": "single-audio", "trial_index": 143, "time_elapsed": 846878, "internal_node_id": "0.0-107.0"}}, {"uniqueid": "MTK0417:3YHH42UU5CMHD0AYYRLNUFCT3YI0LW", "current_trial": 144, "dateTime": 1510946635451, "trialdata": {"rt": -1000, "stimulus": "/static/audio/wordpool/HANDBAG.wav", "key_press": -1, "type": "PRES_AUD", "word": "handbag", "wordID": 683, "conditions": [24, 800, "a", 12000], "trial": 3, "serialpos": 15, "trial_type": "single-audio", "trial_index": 144, "time_elapsed": 848570, "internal_node_id": "0.0-108.0"}}, {"uniqueid": "MTK0417:3YHH42UU5CMHD0AYYRLNUFCT3YI0LW", "current_trial": 145, "dateTime": 1510946637453, "trialdata": {"rt": -1000, "stimulus": "/static/audio/wordpool/BOX.wav", "key_press": -1, "type": "PRES_AUD", "word": "box", "wordID": 158, "conditions": [24, 800, "a", 12000], "trial": 3, "serialpos": 16, "trial_type": "single-audio", "trial_index": 145, "time_elapsed": 850572, "internal_node_id": "0.0-109.0"}}, {"uniqueid": "MTK0417:3YHH42UU5CMHD0AYYRLNUFCT3YI0LW", "current_trial": 146, "dateTime": 1510946639114, "trialdata": {"rt": -1000, "stimulus": "/static/audio/wordpool/PICNIC.wav", "key_press": -1, "type": "PRES_AUD", "word": "picnic", "wordID": 1059, "conditions": [24, 800, "a", 12000], "trial": 3, "serialpos": 17, "trial_type": "single-audio", "trial_index": 146, "time_elapsed": 852233, "internal_node_id": "0.0-110.0"}}, {"uniqueid": "MTK0417:3YHH42UU5CMHD0AYYRLNUFCT3YI0LW", "current_trial": 147, "dateTime": 1510946640990, "trialdata": {"rt": -1000, "stimulus": "/static/audio/wordpool/SUITCASE.wav", "key_press": -1, "type": "PRES_AUD", "word": "suitcase", "wordID": 1402, "conditions": [24, 800, "a", 12000], "trial": 3, "serialpos": 18, "trial_type": "single-audio", "trial_index": 147, "time_elapsed": 854108, "internal_node_id": "0.0-111.0"}}, {"uniqueid": "MTK0417:3YHH42UU5CMHD0AYYRLNUFCT3YI0LW", "current_trial": 148, "dateTime": 1510946642768, "trialdata": {"rt": -1000, "stimulus": "/static/audio/wordpool/PISTON.wav", "key_press": -1, "type": "PRES_AUD", "word": "piston", "wordID": 1075, "conditions": [24, 800, "a", 12000], "trial": 3, "serialpos": 19, "trial_type": "single-audio", "trial_index": 148, "time_elapsed": 855886, "internal_node_id": "0.0-112.0"}}, {"uniqueid": "MTK0417:3YHH42UU5CMHD0AYYRLNUFCT3YI0LW", "current_trial": 149, "dateTime": 1510946644477, "trialdata": {"rt": -1000, "stimulus": "/static/audio/wordpool/VALVE.wav", "key_press": -1, "type": "PRES_AUD", "word": "valve", "wordID": 1545, "conditions": [24, 800, "a", 12000], "trial": 3, "serialpos": 20, "trial_type": "single-audio", "trial_index": 149, "time_elapsed": 857596, "internal_node_id": "0.0-113.0"}}, {"uniqueid": "MTK0417:3YHH42UU5CMHD0AYYRLNUFCT3YI0LW", "current_trial": 150, "dateTime": 1510946646196, "trialdata": {"rt": -1000, "stimulus": "/static/audio/wordpool/PLATE.wav", "key_press": -1, "type": "PRES_AUD", "word": "plate", "wordID": 1085, "conditions": [24, 800, "a", 12000], "trial": 3, "serialpos": 21, "trial_type": "single-audio", "trial_index": 150, "time_elapsed": 859315, "internal_node_id": "0.0-114.0"}}, {"uniqueid": "MTK0417:3YHH42UU5CMHD0AYYRLNUFCT3YI0LW", "current_trial": 151, "dateTime": 1510946648184, "trialdata": {"rt": -1000, "stimulus": "/static/audio/wordpool/DINER.wav", "key_press": -1, "type": "PRES_AUD", "word": "diner", "wordID": 466, "conditions": [24, 800, "a", 12000], "trial": 3, "serialpos": 22, "trial_type": "single-audio", "trial_index": 151, "time_elapsed": 861303, "internal_node_id": "0.0-115.0"}}, {"uniqueid": "MTK0417:3YHH42UU5CMHD0AYYRLNUFCT3YI0LW", "current_trial": 152, "dateTime": 1510946650204, "trialdata": {"rt": -1000, "stimulus": "/static/audio/wordpool/PUPPY.wav", "key_press": -1, "type": "PRES_AUD", "word": "puppy", "wordID": 1143, "conditions": [24, 800, "a", 12000], "trial": 3, "serialpos": 23, "trial_type": "single-audio", "trial_index": 152, "time_elapsed": 863323, "internal_node_id": "0.0-116.0"}}, {"uniqueid": "MTK0417:3YHH42UU5CMHD0AYYRLNUFCT3YI0LW", "current_trial": 153, "dateTime": 1510946651593, "trialdata": {"rt": -1, "stimulus": "", "key_press": -1, "type": "PRE_RECALL_DELAY", "trial_type": "single-stim", "trial_index": 153, "time_elapsed": 864712, "internal_node_id": "0.0-117.0-0.0"}}, {"uniqueid": "MTK0417:3YHH42UU5CMHD0AYYRLNUFCT3YI0LW", "current_trial": 154, "dateTime": 1510946652095, "trialdata": {"rt": -1000, "stimulus": "/static/audio/400Hz.wav", "key_press": -1, "type": "PRE_RECALL_ALERT", "trial_type": "single-audio", "trial_index": 154, "time_elapsed": 865213, "internal_node_id": "0.0-118.0"}}, {"uniqueid": "MTK0417:3YHH42UU5CMHD0AYYRLNUFCT3YI0LW", "current_trial": 155, "dateTime": 1510946712127, "trialdata": {"rt": [4500, 7226, 10772, 13447, 15629, 19170, 21709, 33690, 47286, 50589, 52706], "recwords": ["diner", "puppy", "suitcase", "grave", "branch", "hound", "robber", "turtle", "pistol", "piston", "valve"], "type": "FREE_RECALL", "conditions": [24, 800, "a", 12000], "trial": 3, "trial_type": "free-recall", "trial_index": 155, "time_elapsed": 925236, "internal_node_id": "0.0-119.0-0.0"}}, {"uniqueid": "MTK0417:3YHH42UU5CMHD0AYYRLNUFCT3YI0LW", "current_trial": 156, "dateTime": 1510946714985, "trialdata": {"rt": 857, "key_press": 74, "type": "INSTRUCTIONS", "trial_type": "text", "trial_index": 156, "time_elapsed": 928104, "internal_node_id": "0.0-120.0"}}, {"uniqueid": "MTK0417:3YHH42UU5CMHD0AYYRLNUFCT3YI0LW", "current_trial": 157, "dateTime": 1510946729014, "trialdata": {"rt": [2265, 4472, 6557, 8284, 10543], "responses": ["17", "15", "15", "12", "16"], "num1": [7, 2, 5, 4, 7, 2], "num2": [8, 8, 2, 3, 5, 3], "num3": [2, 5, 8, 5, 4, 4], "type": "DISTRACTOR", "conditions": [24, 1600, "a", 12000], "trial": 4, "trial_type": "math-distractor", "trial_index": 157, "time_elapsed": 942133, "internal_node_id": "0.0-121.0"}}, {"uniqueid": "MTK0417:3YHH42UU5CMHD0AYYRLNUFCT3YI0LW", "current_trial": 158, "dateTime": 1510946732118, "trialdata": {"rt": -1, "stimulus": "<p id=\"stim\">10</p>", "key_press": -1, "trial_type": "single-stim", "trial_index": 158, "time_elapsed": 945237, "internal_node_id": "0.0-122.0-0.0"}}, {"uniqueid": "MTK0417:3YHH42UU5CMHD0AYYRLNUFCT3YI0LW", "current_trial": 159, "dateTime": 1510946733124, "trialdata": {"rt": -1, "stimulus": "<p id=\"stim\">9</p>", "key_press": -1, "trial_type": "single-stim", "trial_index": 159, "time_elapsed": 946243, "internal_node_id": "0.0-122.0-1.0"}}, {"uniqueid": "MTK0417:3YHH42UU5CMHD0AYYRLNUFCT3YI0LW", "current_trial": 160, "dateTime": 1510946734163, "trialdata": {"rt": -1, "stimulus": "<p id=\"stim\">8</p>", "key_press": -1, "trial_type": "single-stim", "trial_index": 160, "time_elapsed": 947282, "internal_node_id": "0.0-122.0-2.0"}}, {"uniqueid": "MTK0417:3YHH42UU5CMHD0AYYRLNUFCT3YI0LW", "current_trial": 161, "dateTime": 1510946735200, "trialdata": {"rt": -1, "stimulus": "<p id=\"stim\">7</p>", "key_press": -1, "trial_type": "single-stim", "trial_index": 161, "time_elapsed": 948318, "internal_node_id": "0.0-122.0-3.0"}}, {"uniqueid": "MTK0417:3YHH42UU5CMHD0AYYRLNUFCT3YI0LW", "current_trial": 162, "dateTime": 1510946736237, "trialdata": {"rt": -1, "stimulus": "<p id=\"stim\">6</p>", "key_press": -1, "trial_type": "single-stim", "trial_index": 162, "time_elapsed": 949356, "internal_node_id": "0.0-122.0-4.0"}}, {"uniqueid": "MTK0417:3YHH42UU5CMHD0AYYRLNUFCT3YI0LW", "current_trial": 163, "dateTime": 1510946737239, "trialdata": {"rt": -1, "stimulus": "<p id=\"stim\">5</p>", "key_press": -1, "trial_type": "single-stim", "trial_index": 163, "time_elapsed": 950358, "internal_node_id": "0.0-122.0-5.0"}}, {"uniqueid": "MTK0417:3YHH42UU5CMHD0AYYRLNUFCT3YI0LW", "current_trial": 164, "dateTime": 1510946738242, "trialdata": {"rt": -1, "stimulus": "<p id=\"stim\">4</p>", "key_press": -1, "trial_type": "single-stim", "trial_index": 164, "time_elapsed": 951361, "internal_node_id": "0.0-122.0-6.0"}}, {"uniqueid": "MTK0417:3YHH42UU5CMHD0AYYRLNUFCT3YI0LW", "current_trial": 165, "dateTime": 1510946739245, "trialdata": {"rt": -1, "stimulus": "<p id=\"stim\">3</p>", "key_press": -1, "trial_type": "single-stim", "trial_index": 165, "time_elapsed": 952364, "internal_node_id": "0.0-122.0-7.0"}}, {"uniqueid": "MTK0417:3YHH42UU5CMHD0AYYRLNUFCT3YI0LW", "current_trial": 166, "dateTime": 1510946740247, "trialdata": {"rt": -1, "stimulus": "<p id=\"stim\">2</p>", "key_press": -1, "trial_type": "single-stim", "trial_index": 166, "time_elapsed": 953366, "internal_node_id": "0.0-122.0-8.0"}}, {"uniqueid": "MTK0417:3YHH42UU5CMHD0AYYRLNUFCT3YI0LW", "current_trial": 167, "dateTime": 1510946741270, "trialdata": {"rt": -1, "stimulus": "<p id=\"stim\">1</p>", "key_press": -1, "trial_type": "single-stim", "trial_index": 167, "time_elapsed": 954389, "internal_node_id": "0.0-122.0-9.0"}}, {"uniqueid": "MTK0417:3YHH42UU5CMHD0AYYRLNUFCT3YI0LW", "current_trial": 168, "dateTime": 1510946742771, "trialdata": {"rt": -1, "stimulus": "<p id=\"stim\">+</p>", "key_press": -1, "type": "FIXATION", "trial_type": "single-stim", "trial_index": 168, "time_elapsed": 955890, "internal_node_id": "0.0-123.0-0.0"}}, {"uniqueid": "MTK0417:3YHH42UU5CMHD0AYYRLNUFCT3YI0LW", "current_trial": 169, "dateTime": 1510946745441, "trialdata": {"rt": -1000, "stimulus": "/static/audio/wordpool/FRIEND.wav", "key_press": -1, "type": "PRES_AUD", "word": "friend", "wordID": 605, "conditions": [24, 1600, "a", 12000], "trial": 4, "serialpos": 0, "trial_type": "single-audio", "trial_index": 169, "time_elapsed": 958560, "internal_node_id": "0.0-124.0"}}, {"uniqueid": "MTK0417:3YHH42UU5CMHD0AYYRLNUFCT3YI0LW", "current_trial": 170, "dateTime": 1510946747941, "trialdata": {"rt": -1000, "stimulus": "/static/audio/wordpool/ANKLE.wav", "key_press": -1, "type": "PRES_AUD", "word": "ankle", "wordID": 23, "conditions": [24, 1600, "a", 12000], "trial": 4, "serialpos": 1, "trial_type": "single-audio", "trial_index": 170, "time_elapsed": 961059, "internal_node_id": "0.0-125.0"}}, {"uniqueid": "MTK0417:3YHH42UU5CMHD0AYYRLNUFCT3YI0LW", "current_trial": 171, "dateTime": 1510946750718, "trialdata": {"rt": -1000, "stimulus": "/static/audio/wordpool/SLUG.wav", "key_press": -1, "type": "PRES_AUD", "word": "slug", "wordID": 1328, "conditions": [24, 1600, "a", 12000], "trial": 4, "serialpos": 2, "trial_type": "single-audio", "trial_index": 171, "time_elapsed": 963837, "internal_node_id": "0.0-126.0"}}, {"uniqueid": "MTK0417:3YHH42UU5CMHD0AYYRLNUFCT3YI0LW", "current_trial": 172, "dateTime": 1510946753409, "trialdata": {"rt": -1000, "stimulus": "/static/audio/wordpool/MATTRESS.wav", "key_press": -1, "type": "PRES_AUD", "word": "mattress", "wordID": 878, "conditions": [24, 1600, "a", 12000], "trial": 4, "serialpos": 3, "trial_type": "single-audio", "trial_index": 172, "time_elapsed": 966527, "internal_node_id": "0.0-127.0"}}, {"uniqueid": "MTK0417:3YHH42UU5CMHD0AYYRLNUFCT3YI0LW", "current_trial": 173, "dateTime": 1510946755984, "trialdata": {"rt": -1000, "stimulus": "/static/audio/wordpool/WASHER.wav", "key_press": -1, "type": "PRES_AUD", "word": "washer", "wordID": 1591, "conditions": [24, 1600, "a", 12000], "trial": 4, "serialpos": 4, "trial_type": "single-audio", "trial_index": 173, "time_elapsed": 969103, "internal_node_id": "0.0-128.0"}}, {"uniqueid": "MTK0417:3YHH42UU5CMHD0AYYRLNUFCT3YI0LW", "current_trial": 174, "dateTime": 1510946758440, "trialdata": {"rt": -1000, "stimulus": "/static/audio/wordpool/CONTRACT.wav", "key_press": -1, "type": "PRES_AUD", "word": "contract", "wordID": 367, "conditions": [24, 1600, "a", 12000], "trial": 4, "serialpos": 5, "trial_type": "single-audio", "trial_index": 174, "time_elapsed": 971558, "internal_node_id": "0.0-129.0"}}, {"uniqueid": "MTK0417:3YHH42UU5CMHD0AYYRLNUFCT3YI0LW", "current_trial": 175, "dateTime": 1510946761119, "trialdata": {"rt": -1000, "stimulus": "/static/audio/wordpool/GARDEN.wav", "key_press": -1, "type": "PRES_AUD", "word": "garden", "wordID": 622, "conditions": [24, 1600, "a", 12000], "trial": 4, "serialpos": 6, "trial_type": "single-audio", "trial_index": 175, "time_elapsed": 974238, "internal_node_id": "0.0-130.0"}}, {"uniqueid": "MTK0417:3YHH42UU5CMHD0AYYRLNUFCT3YI0LW", "current_trial": 176, "dateTime": 1510946763600, "trialdata": {"rt": -1000, "stimulus": "/static/audio/wordpool/BROTHER.wav", "key_press": -1, "type": "PRES_AUD", "word": "brother", "wordID": 178, "conditions": [24, 1600, "a", 12000], "trial": 4, "serialpos": 7, "trial_type": "single-audio", "trial_index": 176, "time_elapsed": 976718, "internal_node_id": "0.0-131.0"}}, {"uniqueid": "MTK0417:3YHH42UU5CMHD0AYYRLNUFCT3YI0LW", "current_trial": 177, "dateTime": 1510946766392, "trialdata": {"rt": -1000, "stimulus": "/static/audio/wordpool/GLOBE.wav", "key_press": -1, "type": "PRES_AUD", "word": "globe", "wordID": 640, "conditions": [24, 1600, "a", 12000], "trial": 4, "serialpos": 8, "trial_type": "single-audio", "trial_index": 177, "time_elapsed": 979511, "internal_node_id": "0.0-132.0"}}, {"uniqueid": "MTK0417:3YHH42UU5CMHD0AYYRLNUFCT3YI0LW", "current_trial": 178, "dateTime": 1510946769075, "trialdata": {"rt": -1000, "stimulus": "/static/audio/wordpool/FRECKLE.wav", "key_press": -1, "type": "PRES_AUD", "word": "freckle", "wordID": 601, "conditions": [24, 1600, "a", 12000], "trial": 4, "serialpos": 9, "trial_type": "single-audio", "trial_index": 178, "time_elapsed": 982193, "internal_node_id": "0.0-133.0"}}, {"uniqueid": "MTK0417:3YHH42UU5CMHD0AYYRLNUFCT3YI0LW", "current_trial": 179, "dateTime": 1510946771781, "trialdata": {"rt": -1000, "stimulus": "/static/audio/wordpool/PIMPLE.wav", "key_press": -1, "type": "PRES_AUD", "word": "pimple", "wordID": 1070, "conditions": [24, 1600, "a", 12000], "trial": 4, "serialpos": 10, "trial_type": "single-audio", "trial_index": 179, "time_elapsed": 984900, "internal_node_id": "0.0-134.0"}}, {"uniqueid": "MTK0417:3YHH42UU5CMHD0AYYRLNUFCT3YI0LW", "current_trial": 180, "dateTime": 1510946774307, "trialdata": {"rt": -1000, "stimulus": "/static/audio/wordpool/MUFFIN.wav", "key_press": -1, "type": "PRES_AUD", "word": "muffin", "wordID": 928, "conditions": [24, 1600, "a", 12000], "trial": 4, "serialpos": 11, "trial_type": "single-audio", "trial_index": 180, "time_elapsed": 987426, "internal_node_id": "0.0-135.0"}}, {"uniqueid": "MTK0417:3YHH42UU5CMHD0AYYRLNUFCT3YI0LW", "current_trial": 181, "dateTime": 1510946776867, "trialdata": {"rt": -1000, "stimulus": "/static/audio/wordpool/SWIMMER.wav", "key_press": -1, "type": "PRES_AUD", "word": "swimmer", "wordID": 1419, "conditions": [24, 1600, "a", 12000], "trial": 4, "serialpos": 12, "trial_type": "single-audio", "trial_index": 181, "time_elapsed": 989986, "internal_node_id": "0.0-136.0"}}, {"uniqueid": "MTK0417:3YHH42UU5CMHD0AYYRLNUFCT3YI0LW", "current_trial": 182, "dateTime": 1510946779274, "trialdata": {"rt": -1000, "stimulus": "/static/audio/wordpool/PECAN.wav", "key_press": -1, "type": "PRES_AUD", "word": "pecan", "wordID": 1035, "conditions": [24, 1600, "a", 12000], "trial": 4, "serialpos": 13, "trial_type": "single-audio", "trial_index": 182, "time_elapsed": 992392, "internal_node_id": "0.0-137.0"}}, {"uniqueid": "MTK0417:3YHH42UU5CMHD0AYYRLNUFCT3YI0LW", "current_trial": 183, "dateTime": 1510946781763, "trialdata": {"rt": -1000, "stimulus": "/static/audio/wordpool/LAKE.wav", "key_press": -1, "type": "PRES_AUD", "word": "lake", "wordID": 795, "conditions": [24, 1600, "a", 12000], "trial": 4, "serialpos": 14, "trial_type": "single-audio", "trial_index": 183, "time_elapsed": 994881, "internal_node_id": "0.0-138.0"}}, {"uniqueid": "MTK0417:3YHH42UU5CMHD0AYYRLNUFCT3YI0LW", "current_trial": 184, "dateTime": 1510946784468, "trialdata": {"rt": -1000, "stimulus": "/static/audio/wordpool/FLAG.wav", "key_press": -1, "type": "PRES_AUD", "word": "flag", "wordID": 572, "conditions": [24, 1600, "a", 12000], "trial": 4, "serialpos": 15, "trial_type": "single-audio", "trial_index": 184, "time_elapsed": 997586, "internal_node_id": "0.0-139.0"}}, {"uniqueid": "MTK0417:3YHH42UU5CMHD0AYYRLNUFCT3YI0LW", "current_trial": 185, "dateTime": 1510946787233, "trialdata": {"rt": -1000, "stimulus": "/static/audio/wordpool/HELMET.wav", "key_press": -1, "type": "PRES_AUD", "word": "helmet", "wordID": 701, "conditions": [24, 1600, "a", 12000], "trial": 4, "serialpos": 16, "trial_type": "single-audio", "trial_index": 185, "time_elapsed": 1000351, "internal_node_id": "0.0-140.0"}}, {"uniqueid": "MTK0417:3YHH42UU5CMHD0AYYRLNUFCT3YI0LW", "current_trial": 186, "dateTime": 1510946789747, "trialdata": {"rt": -1000, "stimulus": "/static/audio/wordpool/BEAVER.wav", "key_press": -1, "type": "PRES_AUD", "word": "beaver", "wordID": 108, "conditions": [24, 1600, "a", 12000], "trial": 4, "serialpos": 17, "trial_type": "single-audio", "trial_index": 186, "time_elapsed": 1002866, "internal_node_id": "0.0-141.0"}}, {"uniqueid": "MTK0417:3YHH42UU5CMHD0AYYRLNUFCT3YI0LW", "current_trial": 187, "dateTime": 1510946792306, "trialdata": {"rt": -1000, "stimulus": "/static/audio/wordpool/DIVER.wav", "key_press": -1, "type": "PRES_AUD", "word": "diver", "wordID": 475, "conditions": [24, 1600, "a", 12000], "trial": 4, "serialpos": 18, "trial_type": "single-audio", "trial_index": 187, "time_elapsed": 1005425, "internal_node_id": "0.0-142.0"}}, {"uniqueid": "MTK0417:3YHH42UU5CMHD0AYYRLNUFCT3YI0LW", "current_trial": 188, "dateTime": 1510946794893, "trialdata": {"rt": -1000, "stimulus": "/static/audio/wordpool/CHILD.wav", "key_press": -1, "type": "PRES_AUD", "word": "child", "wordID": 298, "conditions": [24, 1600, "a", 12000], "trial": 4, "serialpos": 19, "trial_type": "single-audio", "trial_index": 188, "time_elapsed": 1008011, "internal_node_id": "0.0-143.0"}}, {"uniqueid": "MTK0417:3YHH42UU5CMHD0AYYRLNUFCT3YI0LW", "current_trial": 189, "dateTime": 1510946797493, "trialdata": {"rt": -1000, "stimulus": "/static/audio/wordpool/TOASTER.wav", "key_press": -1, "type": "PRES_AUD", "word": "toaster", "wordID": 1471, "conditions": [24, 1600, "a", 12000], "trial": 4, "serialpos": 20, "trial_type": "single-audio", "trial_index": 189, "time_elapsed": 1010611, "internal_node_id": "0.0-144.0"}}, {"uniqueid": "MTK0417:3YHH42UU5CMHD0AYYRLNUFCT3YI0LW", "current_trial": 190, "dateTime": 1510946799977, "trialdata": {"rt": -1000, "stimulus": "/static/audio/wordpool/QUEEN.wav", "key_press": -1, "type": "PRES_AUD", "word": "queen", "wordID": 1148, "conditions": [24, 1600, "a", 12000], "trial": 4, "serialpos": 21, "trial_type": "single-audio", "trial_index": 190, "time_elapsed": 1013096, "internal_node_id": "0.0-145.0"}}, {"uniqueid": "MTK0417:3YHH42UU5CMHD0AYYRLNUFCT3YI0LW", "current_trial": 191, "dateTime": 1510946802681, "trialdata": {"rt": -1000, "stimulus": "/static/audio/wordpool/PRINCESS.wav", "key_press": -1, "type": "PRES_AUD", "word": "princess", "wordID": 1124, "conditions": [24, 1600, "a", 12000], "trial": 4, "serialpos": 22, "trial_type": "single-audio", "trial_index": 191, "time_elapsed": 1015800, "internal_node_id": "0.0-146.0"}}, {"uniqueid": "MTK0417:3YHH42UU5CMHD0AYYRLNUFCT3YI0LW", "current_trial": 192, "dateTime": 1510946805219, "trialdata": {"rt": -1000, "stimulus": "/static/audio/wordpool/OINTMENT.wav", "key_press": -1, "type": "PRES_AUD", "word": "ointment", "wordID": 973, "conditions": [24, 1600, "a", 12000], "trial": 4, "serialpos": 23, "trial_type": "single-audio", "trial_index": 192, "time_elapsed": 1018337, "internal_node_id": "0.0-147.0"}}, {"uniqueid": "MTK0417:3YHH42UU5CMHD0AYYRLNUFCT3YI0LW", "current_trial": 193, "dateTime": 1510946806556, "trialdata": {"rt": -1, "stimulus": "", "key_press": -1, "type": "PRE_RECALL_DELAY", "trial_type": "single-stim", "trial_index": 193, "time_elapsed": 1019674, "internal_node_id": "0.0-148.0-0.0"}}, {"uniqueid": "MTK0417:3YHH42UU5CMHD0AYYRLNUFCT3YI0LW", "current_trial": 194, "dateTime": 1510946807058, "trialdata": {"rt": -1000, "stimulus": "/static/audio/400Hz.wav", "key_press": -1, "type": "PRE_RECALL_ALERT", "trial_type": "single-audio", "trial_index": 194, "time_elapsed": 1020176, "internal_node_id": "0.0-149.0"}}, {"uniqueid": "MTK0417:3YHH42UU5CMHD0AYYRLNUFCT3YI0LW", "current_trial": 195, "dateTime": 1510946867108, "trialdata": {"rt": [3574, 6486, 9732, 16468, 26402, 28956, 31344, 33588, 36556, 37659, 40042, 42247], "recwords": ["queen", "princess", "ointment", "washer", "brother", "ankle", "pimple", "freck", "freckle", "", "muffin", "friend"], "type": "FREE_RECALL", "conditions": [24, 1600, "a", 12000], "trial": 4, "trial_type": "free-recall", "trial_index": 195, "time_elapsed": 1080212, "internal_node_id": "0.0-150.0-0.0"}}, {"uniqueid": "MTK0417:3YHH42UU5CMHD0AYYRLNUFCT3YI0LW", "current_trial": 196, "dateTime": 1510946869818, "trialdata": {"rt": 708, "key_press": 32, "type": "INSTRUCTIONS", "trial_type": "text", "trial_index": 196, "time_elapsed": 1082936, "internal_node_id": "0.0-151.0"}}, {"uniqueid": "MTK0417:3YHH42UU5CMHD0AYYRLNUFCT3YI0LW", "current_trial": 197, "dateTime": 1510946895826, "trialdata": {"rt": [2726, 4950, 7202, 9728, 11476, 13308, 15249, 17324, 19416, 21017, 23211], "responses": ["17", "17", "7", "12", "9", "18", "15", "21", "15", "5", "8"], "num1": [3, 7, 2, 2, 2, 7, 6, 8, 5, 2, 2, 4], "num2": [8, 4, 2, 3, 6, 3, 7, 6, 6, 2, 3, 6], "num3": [6, 6, 3, 7, 1, 8, 2, 7, 4, 1, 3, 8], "type": "DISTRACTOR", "conditions": [12, 1600, "a", 24000], "trial": 5, "trial_type": "math-distractor", "trial_index": 197, "time_elapsed": 1108945, "internal_node_id": "0.0-152.0"}}, {"uniqueid": "MTK0417:3YHH42UU5CMHD0AYYRLNUFCT3YI0LW", "current_trial": 198, "dateTime": 1510946898833, "trialdata": {"rt": -1, "stimulus": "<p id=\"stim\">10</p>", "key_press": -1, "trial_type": "single-stim", "trial_index": 198, "time_elapsed": 1111952, "internal_node_id": "0.0-153.0-0.0"}}, {"uniqueid": "MTK0417:3YHH42UU5CMHD0AYYRLNUFCT3YI0LW", "current_trial": 199, "dateTime": 1510946899835, "trialdata": {"rt": -1, "stimulus": "<p id=\"stim\">9</p>", "key_press": -1, "trial_type": "single-stim", "trial_index": 199, "time_elapsed": 1112954, "internal_node_id": "0.0-153.0-1.0"}}, {"uniqueid": "MTK0417:3YHH42UU5CMHD0AYYRLNUFCT3YI0LW", "current_trial": 200, "dateTime": 1510946900837, "trialdata": {"rt": -1, "stimulus": "<p id=\"stim\">8</p>", "key_press": -1, "trial_type": "single-stim", "trial_index": 200, "time_elapsed": 1113956, "internal_node_id": "0.0-153.0-2.0"}}, {"uniqueid": "MTK0417:3YHH42UU5CMHD0AYYRLNUFCT3YI0LW", "current_trial": 201, "dateTime": 1510946901863, "trialdata": {"rt": -1, "stimulus": "<p id=\"stim\">7</p>", "key_press": -1, "trial_type": "single-stim", "trial_index": 201, "time_elapsed": 1114981, "internal_node_id": "0.0-153.0-3.0"}}, {"uniqueid": "MTK0417:3YHH42UU5CMHD0AYYRLNUFCT3YI0LW", "current_trial": 202, "dateTime": 1510946902865, "trialdata": {"rt": -1, "stimulus": "<p id=\"stim\">6</p>", "key_press": -1, "trial_type": "single-stim", "trial_index": 202, "time_elapsed": 1115984, "internal_node_id": "0.0-153.0-4.0"}}, {"uniqueid": "MTK0417:3YHH42UU5CMHD0AYYRLNUFCT3YI0LW", "current_trial": 203, "dateTime": 1510946903906, "trialdata": {"rt": -1, "stimulus": "<p id=\"stim\">5</p>", "key_press": -1, "trial_type": "single-stim", "trial_index": 203, "time_elapsed": 1117024, "internal_node_id": "0.0-153.0-5.0"}}, {"uniqueid": "MTK0417:3YHH42UU5CMHD0AYYRLNUFCT3YI0LW", "current_trial": 204, "dateTime": 1510946904963, "trialdata": {"rt": -1, "stimulus": "<p id=\"stim\">4</p>", "key_press": -1, "trial_type": "single-stim", "trial_index": 204, "time_elapsed": 1118081, "internal_node_id": "0.0-153.0-6.0"}}, {"uniqueid": "MTK0417:3YHH42UU5CMHD0AYYRLNUFCT3YI0LW", "current_trial": 205, "dateTime": 1510946905964, "trialdata": {"rt": -1, "stimulus": "<p id=\"stim\">3</p>", "key_press": -1, "trial_type": "single-stim", "trial_index": 205, "time_elapsed": 1119083, "internal_node_id": "0.0-153.0-7.0"}}, {"uniqueid": "MTK0417:3YHH42UU5CMHD0AYYRLNUFCT3YI0LW", "current_trial": 206, "dateTime": 1510946906967, "trialdata": {"rt": -1, "stimulus": "<p id=\"stim\">2</p>", "key_press": -1, "trial_type": "single-stim", "trial_index": 206, "time_elapsed": 1120086, "internal_node_id": "0.0-153.0-8.0"}}, {"uniqueid": "MTK0417:3YHH42UU5CMHD0AYYRLNUFCT3YI0LW", "current_trial": 207, "dateTime": 1510946907970, "trialdata": {"rt": -1, "stimulus": "<p id=\"stim\">1</p>", "key_press": -1, "trial_type": "single-stim", "trial_index": 207, "time_elapsed": 1121089, "internal_node_id": "0.0-153.0-9.0"}}, {"uniqueid": "MTK0417:3YHH42UU5CMHD0AYYRLNUFCT3YI0LW", "current_trial": 208, "dateTime": 1510946909493, "trialdata": {"rt": -1, "stimulus": "<p id=\"stim\">+</p>", "key_press": -1, "type": "FIXATION", "trial_type": "single-stim", "trial_index": 208, "time_elapsed": 1122612, "internal_node_id": "0.0-154.0-0.0"}}, {"uniqueid": "MTK0417:3YHH42UU5CMHD0AYYRLNUFCT3YI0LW", "current_trial": 209, "dateTime": 1510946912053, "trialdata": {"rt": -1000, "stimulus": "/static/audio/wordpool/CRAB.wav", "key_press": -1, "type": "PRES_AUD", "word": "crab", "wordID": 396, "conditions": [12, 1600, "a", 24000], "trial": 5, "serialpos": 0, "trial_type": "single-audio", "trial_index": 209, "time_elapsed": 1125172, "internal_node_id": "0.0-155.0"}}, {"uniqueid": "MTK0417:3YHH42UU5CMHD0AYYRLNUFCT3YI0LW", "current_trial": 210, "dateTime": 1510946914821, "trialdata": {"rt": -1000, "stimulus": "/static/audio/wordpool/ANTLER.wav", "key_press": -1, "type": "PRES_AUD", "word": "antler", "wordID": 28, "conditions": [12, 1600, "a", 24000], "trial": 5, "serialpos": 1, "trial_type": "single-audio", "trial_index": 210, "time_elapsed": 1127939, "internal_node_id": "0.0-156.0"}}, {"uniqueid": "MTK0417:3YHH42UU5CMHD0AYYRLNUFCT3YI0LW", "current_trial": 211, "dateTime": 1510946917502, "trialdata": {"rt": -1000, "stimulus": "/static/audio/wordpool/MAILBOX.wav", "key_press": -1, "type": "PRES_AUD", "word": "mailbox", "wordID": 856, "conditions": [12, 1600, "a", 24000], "trial": 5, "serialpos": 2, "trial_type": "single-audio", "trial_index": 211, "time_elapsed": 1130621, "internal_node_id": "0.0-157.0"}}, {"uniqueid": "MTK0417:3YHH42UU5CMHD0AYYRLNUFCT3YI0LW", "current_trial": 212, "dateTime": 1510946920280, "trialdata": {"rt": -1000, "stimulus": "/static/audio/wordpool/BUNNY.wav", "key_press": -1, "type": "PRES_AUD", "word": "bunny", "wordID": 197, "conditions": [12, 1600, "a", 24000], "trial": 5, "serialpos": 3, "trial_type": "single-audio", "trial_index": 212, "time_elapsed": 1133399, "internal_node_id": "0.0-158.0"}}, {"uniqueid": "MTK0417:3YHH42UU5CMHD0AYYRLNUFCT3YI0LW", "current_trial": 213, "dateTime": 1510946922780, "trialdata": {"rt": -1000, "stimulus": "/static/audio/wordpool/PENGUIN.wav", "key_press": -1, "type": "PRES_AUD", "word": "penguin", "wordID": 1043, "conditions": [12, 1600, "a", 24000], "trial": 5, "serialpos": 4, "trial_type": "single-audio", "trial_index": 213, "time_elapsed": 1135899, "internal_node_id": "0.0-159.0"}}, {"uniqueid": "MTK0417:3YHH42UU5CMHD0AYYRLNUFCT3YI0LW", "current_trial": 214, "dateTime": 1510946925531, "trialdata": {"rt": -1000, "stimulus": "/static/audio/wordpool/MAILMAN.wav", "key_press": -1, "type": "PRES_AUD", "word": "mailman", "wordID": 857, "conditions": [12, 1600, "a", 24000], "trial": 5, "serialpos": 5, "trial_type": "single-audio", "trial_index": 214, "time_elapsed": 1138649, "internal_node_id": "0.0-160.0"}}, {"uniqueid": "MTK0417:3YHH42UU5CMHD0AYYRLNUFCT3YI0LW", "current_trial": 215, "dateTime": 1510946928146, "trialdata": {"rt": -1000, "stimulus": "/static/audio/wordpool/VIKING.wav", "key_press": -1, "type": "PRES_AUD", "word": "viking", "wordID": 1564, "conditions": [12, 1600, "a", 24000], "trial": 5, "serialpos": 6, "trial_type": "single-audio", "trial_index": 215, "time_elapsed": 1141264, "internal_node_id": "0.0-161.0"}}, {"uniqueid": "MTK0417:3YHH42UU5CMHD0AYYRLNUFCT3YI0LW", "current_trial": 216, "dateTime": 1510946930730, "trialdata": {"rt": -1000, "stimulus": "/static/audio/wordpool/BROOK.wav", "key_press": -1, "type": "PRES_AUD", "word": "brook", "wordID": 176, "conditions": [12, 1600, "a", 24000], "trial": 5, "serialpos": 7, "trial_type": "single-audio", "trial_index": 216, "time_elapsed": 1143848, "internal_node_id": "0.0-162.0"}}, {"uniqueid": "MTK0417:3YHH42UU5CMHD0AYYRLNUFCT3YI0LW", "current_trial": 217, "dateTime": 1510946933453, "trialdata": {"rt": -1000, "stimulus": "/static/audio/wordpool/BANQUET.wav", "key_press": -1, "type": "PRES_AUD", "word": "banquet", "wordID": 85, "conditions": [12, 1600, "a", 24000], "trial": 5, "serialpos": 8, "trial_type": "single-audio", "trial_index": 217, "time_elapsed": 1146572, "internal_node_id": "0.0-163.0"}}, {"uniqueid": "MTK0417:3YHH42UU5CMHD0AYYRLNUFCT3YI0LW", "current_trial": 218, "dateTime": 1510946936312, "trialdata": {"rt": -1000, "stimulus": "/static/audio/wordpool/SAUSAGE.wav", "key_press": -1, "type": "PRES_AUD", "word": "sausage", "wordID": 1237, "conditions": [12, 1600, "a", 24000], "trial": 5, "serialpos": 9, "trial_type": "single-audio", "trial_index": 218, "time_elapsed": 1149431, "internal_node_id": "0.0-164.0"}}, {"uniqueid": "MTK0417:3YHH42UU5CMHD0AYYRLNUFCT3YI0LW", "current_trial": 219, "dateTime": 1510946938943, "trialdata": {"rt": -1000, "stimulus": "/static/audio/wordpool/STONE.wav", "key_press": -1, "type": "PRES_AUD", "word": "stone", "wordID": 1384, "conditions": [12, 1600, "a", 24000], "trial": 5, "serialpos": 10, "trial_type": "single-audio", "trial_index": 219, "time_elapsed": 1152061, "internal_node_id": "0.0-165.0"}}, {"uniqueid": "MTK0417:3YHH42UU5CMHD0AYYRLNUFCT3YI0LW", "current_trial": 220, "dateTime": 1510946941753, "trialdata": {"rt": -1000, "stimulus": "/static/audio/wordpool/DOUGHNUT.wav", "key_press": -1, "type": "PRES_AUD", "word": "doughnut", "wordID": 489, "conditions": [12, 1600, "a", 24000], "trial": 5, "serialpos": 11, "trial_type": "single-audio", "trial_index": 220, "time_elapsed": 1154872, "internal_node_id": "0.0-166.0"}}, {"uniqueid": "MTK0417:3YHH42UU5CMHD0AYYRLNUFCT3YI0LW", "current_trial": 221, "dateTime": 1510946943113, "trialdata": {"rt": -1, "stimulus": "", "key_press": -1, "type": "PRE_RECALL_DELAY", "trial_type": "single-stim", "trial_index": 221, "time_elapsed": 1156232, "internal_node_id": "0.0-167.0-0.0"}}, {"uniqueid": "MTK0417:3YHH42UU5CMHD0AYYRLNUFCT3YI0LW", "current_trial": 222, "dateTime": 1510946943615, "trialdata": {"rt": -1000, "stimulus": "/static/audio/400Hz.wav", "key_press": -1, "type": "PRE_RECALL_ALERT", "trial_type": "single-audio", "trial_index": 222, "time_elapsed": 1156733, "internal_node_id": "0.0-168.0"}}, {"uniqueid": "MTK0417:3YHH42UU5CMHD0AYYRLNUFCT3YI0LW", "current_trial": 223, "dateTime": 1510947003637, "trialdata": {"rt": [3071, 5295, 7508, 9162, 20982, 26146, 28461, 46865, 49799], "recwords": ["mailbox", "mailman", "donut", "stone", "brook", "antler", "crab", "bunny", "penguin"], "type": "FREE_RECALL", "conditions": [12, 1600, "a", 24000], "trial": 5, "trial_type": "free-recall", "trial_index": 223, "time_elapsed": 1216739, "internal_node_id": "0.0-169.0-0.0"}}, {"uniqueid": "MTK0417:3YHH42UU5CMHD0AYYRLNUFCT3YI0LW", "current_trial": 224, "dateTime": 1510947006011, "trialdata": {"rt": 370, "key_press": 74, "type": "INSTRUCTIONS", "trial_type": "text", "trial_index": 224, "time_elapsed": 1219129, "internal_node_id": "0.0-170.0"}}, {"uniqueid": "MTK0417:3YHH42UU5CMHD0AYYRLNUFCT3YI0LW", "current_trial": 225, "dateTime": 1510947020175, "trialdata": {"rt": [2735, 4397, 7539, 10001, 12115], "responses": ["7", "11", "22", "17", "15"], "num1": [4, 1, 4, 7, 8, 5], "num2": [3, 5, 9, 2, 5, 4], "num3": [2, 5, 9, 8, 2, 2], "type": "DISTRACTOR", "conditions": [24, 1600, "v", 12000], "trial": 6, "trial_type": "math-distractor", "trial_index": 225, "time_elapsed": 1233294, "internal_node_id": "0.0-171.0"}}, {"uniqueid": "MTK0417:3YHH42UU5CMHD0AYYRLNUFCT3YI0LW", "current_trial": 226, "dateTime": 1510947023178, "trialdata": {"rt": -1, "stimulus": "<p id=\"stim\">10</p>", "key_press": -1, "trial_type": "single-stim", "trial_index": 226, "time_elapsed": 1236297, "internal_node_id": "0.0-172.0-0.0"}}, {"uniqueid": "MTK0417:3YHH42UU5CMHD0AYYRLNUFCT3YI0LW", "current_trial": 227, "dateTime": 1510947024181, "trialdata": {"rt": -1, "stimulus": "<p id=\"stim\">9</p>", "key_press": -1, "trial_type": "single-stim", "trial_index": 227, "time_elapsed": 1237300, "internal_node_id": "0.0-172.0-1.0"}}, {"uniqueid": "MTK0417:3YHH42UU5CMHD0AYYRLNUFCT3YI0LW", "current_trial": 228, "dateTime": 1510947025184, "trialdata": {"rt": -1, "stimulus": "<p id=\"stim\">8</p>", "key_press": -1, "trial_type": "single-stim", "trial_index": 228, "time_elapsed": 1238303, "internal_node_id": "0.0-172.0-2.0"}}, {"uniqueid": "MTK0417:3YHH42UU5CMHD0AYYRLNUFCT3YI0LW", "current_trial": 229, "dateTime": 1510947026217, "trialdata": {"rt": -1, "stimulus": "<p id=\"stim\">7</p>", "key_press": -1, "trial_type": "single-stim", "trial_index": 229, "time_elapsed": 1239336, "internal_node_id": "0.0-172.0-3.0"}}, {"uniqueid": "MTK0417:3YHH42UU5CMHD0AYYRLNUFCT3YI0LW", "current_trial": 230, "dateTime": 1510947027220, "trialdata": {"rt": -1, "stimulus": "<p id=\"stim\">6</p>", "key_press": -1, "trial_type": "single-stim", "trial_index": 230, "time_elapsed": 1240339, "internal_node_id": "0.0-172.0-4.0"}}, {"uniqueid": "MTK0417:3YHH42UU5CMHD0AYYRLNUFCT3YI0LW", "current_trial": 231, "dateTime": 1510947028223, "trialdata": {"rt": -1, "stimulus": "<p id=\"stim\">5</p>", "key_press": -1, "trial_type": "single-stim", "trial_index": 231, "time_elapsed": 1241342, "internal_node_id": "0.0-172.0-5.0"}}, {"uniqueid": "MTK0417:3YHH42UU5CMHD0AYYRLNUFCT3YI0LW", "current_trial": 232, "dateTime": 1510947029226, "trialdata": {"rt": -1, "stimulus": "<p id=\"stim\">4</p>", "key_press": -1, "trial_type": "single-stim", "trial_index": 232, "time_elapsed": 1242345, "internal_node_id": "0.0-172.0-6.0"}}, {"uniqueid": "MTK0417:3YHH42UU5CMHD0AYYRLNUFCT3YI0LW", "current_trial": 233, "dateTime": 1510947030229, "trialdata": {"rt": -1, "stimulus": "<p id=\"stim\">3</p>", "key_press": -1, "trial_type": "single-stim", "trial_index": 233, "time_elapsed": 1243348, "internal_node_id": "0.0-172.0-7.0"}}, {"uniqueid": "MTK0417:3YHH42UU5CMHD0AYYRLNUFCT3YI0LW", "current_trial": 234, "dateTime": 1510947031247, "trialdata": {"rt": -1, "stimulus": "<p id=\"stim\">2</p>", "key_press": -1, "trial_type": "single-stim", "trial_index": 234, "time_elapsed": 1244363, "internal_node_id": "0.0-172.0-8.0"}}, {"uniqueid": "MTK0417:3YHH42UU5CMHD0AYYRLNUFCT3YI0LW", "current_trial": 235, "dateTime": 1510947032255, "trialdata": {"rt": -1, "stimulus": "<p id=\"stim\">1</p>", "key_press": -1, "trial_type": "single-stim", "trial_index": 235, "time_elapsed": 1245374, "internal_node_id": "0.0-172.0-9.0"}}, {"uniqueid": "MTK0417:3YHH42UU5CMHD0AYYRLNUFCT3YI0LW", "current_trial": 236, "dateTime": 1510947033756, "trialdata": {"rt": -1, "stimulus": "<p id=\"stim\">+</p>", "key_press": -1, "type": "FIXATION", "trial_type": "single-stim", "trial_index": 236, "time_elapsed": 1246875, "internal_node_id": "0.0-173.0-0.0"}}, {"uniqueid": "MTK0417:3YHH42UU5CMHD0AYYRLNUFCT3YI0LW", "current_trial": 237, "dateTime": 1510947035382, "trialdata": {"rt": -1, "stimulus": "<p id=\"stim\">TUTU</p>", "key_press": -1, "type": "PRES_VIS", "word": "tutu", "wordID": 1523, "conditions": [24, 1600, "v", 12000], "trial": 6, "serialpos": 0, "trial_type": "single-stim", "trial_index": 237, "time_elapsed": 1248501, "internal_node_id": "0.0-174.0"}}, {"uniqueid": "MTK0417:3YHH42UU5CMHD0AYYRLNUFCT3YI0LW", "current_trial": 238, "dateTime": 1510947037909, "trialdata": {"rt": -1, "stimulus": "<p id=\"stim\">BUBBLE</p>", "key_press": -1, "type": "PRES_VIS", "word": "bubble", "wordID": 182, "conditions": [24, 1600, "v", 12000], "trial": 6, "serialpos": 1, "trial_type": "single-stim", "trial_index": 238, "time_elapsed": 1251028, "internal_node_id": "0.0-175.0"}}, {"uniqueid": "MTK0417:3YHH42UU5CMHD0AYYRLNUFCT3YI0LW", "current_trial": 239, "dateTime": 1510947040647, "trialdata": {"rt": -1, "stimulus": "<p id=\"stim\">CHAMPAGNE</p>", "key_press": -1, "type": "PRES_VIS", "word": "champagne", "wordID": 277, "conditions": [24, 1600, "v", 12000], "trial": 6, "serialpos": 2, "trial_type": "single-stim", "trial_index": 239, "time_elapsed": 1253766, "internal_node_id": "0.0-176.0"}}, {"uniqueid": "MTK0417:3YHH42UU5CMHD0AYYRLNUFCT3YI0LW", "current_trial": 240, "dateTime": 1510947043475, "trialdata": {"rt": -1, "stimulus": "<p id=\"stim\">SUNSET</p>", "key_press": -1, "type": "PRES_VIS", "word": "sunset", "wordID": 1407, "conditions": [24, 1600, "v", 12000], "trial": 6, "serialpos": 3, "trial_type": "single-stim", "trial_index": 240, "time_elapsed": 1256594, "internal_node_id": "0.0-177.0"}}, {"uniqueid": "MTK0417:3YHH42UU5CMHD0AYYRLNUFCT3YI0LW", "current_trial": 241, "dateTime": 1510947046276, "trialdata": {"rt": -1, "stimulus": "<p id=\"stim\">SKIRT</p>", "key_press": -1, "type": "PRES_VIS", "word": "skirt", "wordID": 1318, "conditions": [24, 1600, "v", 12000], "trial": 6, "serialpos": 4, "trial_type": "single-stim", "trial_index": 241, "time_elapsed": 1259395, "internal_node_id": "0.0-178.0"}}, {"uniqueid": "MTK0417:3YHH42UU5CMHD0AYYRLNUFCT3YI0LW", "current_trial": 242, "dateTime": 1510947048760, "trialdata": {"rt": -1, "stimulus": "<p id=\"stim\">GLASS</p>", "key_press": -1, "type": "PRES_VIS", "word": "glass", "wordID": 638, "conditions": [24, 1600, "v", 12000], "trial": 6, "serialpos": 5, "trial_type": "single-stim", "trial_index": 242, "time_elapsed": 1261879, "internal_node_id": "0.0-179.0"}}, {"uniqueid": "MTK0417:3YHH42UU5CMHD0AYYRLNUFCT3YI0LW", "current_trial": 243, "dateTime": 1510947051414, "trialdata": {"rt": -1, "stimulus": "<p id=\"stim\">DAUGHTER</p>", "key_press": -1, "type": "PRES_VIS", "word": "daughter", "wordID": 441, "conditions": [24, 1600, "v", 12000], "trial": 6, "serialpos": 6, "trial_type": "single-stim", "trial_index": 243, "time_elapsed": 1264533, "internal_node_id": "0.0-180.0"}}, {"uniqueid": "MTK0417:3YHH42UU5CMHD0AYYRLNUFCT3YI0LW", "current_trial": 244, "dateTime": 1510947054270, "trialdata": {"rt": -1, "stimulus": "<p id=\"stim\">SHORTCAKE</p>", "key_press": -1, "type": "PRES_VIS", "word": "shortcake", "wordID": 1291, "conditions": [24, 1600, "v", 12000], "trial": 6, "serialpos": 7, "trial_type": "single-stim", "trial_index": 244, "time_elapsed": 1267389, "internal_node_id": "0.0-181.0"}}, {"uniqueid": "MTK0417:3YHH42UU5CMHD0AYYRLNUFCT3YI0LW", "current_trial": 245, "dateTime": 1510947056972, "trialdata": {"rt": -1, "stimulus": "<p id=\"stim\">OX</p>", "key_press": -1, "type": "PRES_VIS", "word": "ox", "wordID": 993, "conditions": [24, 1600, "v", 12000], "trial": 6, "serialpos": 8, "trial_type": "single-stim", "trial_index": 245, "time_elapsed": 1270090, "internal_node_id": "0.0-182.0"}}, {"uniqueid": "MTK0417:3YHH42UU5CMHD0AYYRLNUFCT3YI0LW", "current_trial": 246, "dateTime": 1510947059493, "trialdata": {"rt": -1, "stimulus": "<p id=\"stim\">HONEY</p>", "key_press": -1, "type": "PRES_VIS", "word": "honey", "wordID": 712, "conditions": [24, 1600, "v", 12000], "trial": 6, "serialpos": 9, "trial_type": "single-stim", "trial_index": 246, "time_elapsed": 1272612, "internal_node_id": "0.0-183.0"}}, {"uniqueid": "MTK0417:3YHH42UU5CMHD0AYYRLNUFCT3YI0LW", "current_trial": 247, "dateTime": 1510947062008, "trialdata": {"rt": -1, "stimulus": "<p id=\"stim\">MILK</p>", "key_press": -1, "type": "PRES_VIS", "word": "milk", "wordID": 894, "conditions": [24, 1600, "v", 12000], "trial": 6, "serialpos": 10, "trial_type": "single-stim", "trial_index": 247, "time_elapsed": 1275126, "internal_node_id": "0.0-184.0"}}, {"uniqueid": "MTK0417:3YHH42UU5CMHD0AYYRLNUFCT3YI0LW", "current_trial": 248, "dateTime": 1510947064848, "trialdata": {"rt": -1, "stimulus": "<p id=\"stim\">BOYFRIEND</p>", "key_press": -1, "type": "PRES_VIS", "word": "boyfriend", "wordID": 161, "conditions": [24, 1600, "v", 12000], "trial": 6, "serialpos": 11, "trial_type": "single-stim", "trial_index": 248, "time_elapsed": 1277967, "internal_node_id": "0.0-185.0"}}, {"uniqueid": "MTK0417:3YHH42UU5CMHD0AYYRLNUFCT3YI0LW", "current_trial": 249, "dateTime": 1510947067380, "trialdata": {"rt": -1, "stimulus": "<p id=\"stim\">VAGRANT</p>", "key_press": -1, "type": "PRES_VIS", "word": "vagrant", "wordID": 1543, "conditions": [24, 1600, "v", 12000], "trial": 6, "serialpos": 12, "trial_type": "single-stim", "trial_index": 249, "time_elapsed": 1280499, "internal_node_id": "0.0-186.0"}}, {"uniqueid": "MTK0417:3YHH42UU5CMHD0AYYRLNUFCT3YI0LW", "current_trial": 250, "dateTime": 1510947070122, "trialdata": {"rt": -1, "stimulus": "<p id=\"stim\">SPHINX</p>", "key_press": -1, "type": "PRES_VIS", "word": "sphinx", "wordID": 1348, "conditions": [24, 1600, "v", 12000], "trial": 6, "serialpos": 13, "trial_type": "single-stim", "trial_index": 250, "time_elapsed": 1283241, "internal_node_id": "0.0-187.0"}}, {"uniqueid": "MTK0417:3YHH42UU5CMHD0AYYRLNUFCT3YI0LW", "current_trial": 251, "dateTime": 1510947072552, "trialdata": {"rt": -1, "stimulus": "<p id=\"stim\">COLLEGE</p>", "key_press": -1, "type": "PRES_VIS", "word": "college", "wordID": 345, "conditions": [24, 1600, "v", 12000], "trial": 6, "serialpos": 14, "trial_type": "single-stim", "trial_index": 251, "time_elapsed": 1285671, "internal_node_id": "0.0-188.0"}}, {"uniqueid": "MTK0417:3YHH42UU5CMHD0AYYRLNUFCT3YI0LW", "current_trial": 252, "dateTime": 1510947075027, "trialdata": {"rt": -1, "stimulus": "<p id=\"stim\">PERMIT</p>", "key_press": -1, "type": "PRES_VIS", "word": "permit", "wordID": 1050, "conditions": [24, 1600, "v", 12000], "trial": 6, "serialpos": 15, "trial_type": "single-stim", "trial_index": 252, "time_elapsed": 1288146, "internal_node_id": "0.0-189.0"}}, {"uniqueid": "MTK0417:3YHH42UU5CMHD0AYYRLNUFCT3YI0LW", "current_trial": 253, "dateTime": 1510947077838, "trialdata": {"rt": -1, "stimulus": "<p id=\"stim\">CRIB</p>", "key_press": -1, "type": "PRES_VIS", "word": "crib", "wordID": 406, "conditions": [24, 1600, "v", 12000], "trial": 6, "serialpos": 16, "trial_type": "single-stim", "trial_index": 253, "time_elapsed": 1290957, "internal_node_id": "0.0-190.0"}}, {"uniqueid": "MTK0417:3YHH42UU5CMHD0AYYRLNUFCT3YI0LW", "current_trial": 254, "dateTime": 1510947080243, "trialdata": {"rt": -1, "stimulus": "<p id=\"stim\">TABLET</p>", "key_press": -1, "type": "PRES_VIS", "word": "tablet", "wordID": 1426, "conditions": [24, 1600, "v", 12000], "trial": 6, "serialpos": 17, "trial_type": "single-stim", "trial_index": 254, "time_elapsed": 1293362, "internal_node_id": "0.0-191.0"}}, {"uniqueid": "MTK0417:3YHH42UU5CMHD0AYYRLNUFCT3YI0LW", "current_trial": 255, "dateTime": 1510947082874, "trialdata": {"rt": -1, "stimulus": "<p id=\"stim\">LAGOON</p>", "key_press": -1, "type": "PRES_VIS", "word": "lagoon", "wordID": 794, "conditions": [24, 1600, "v", 12000], "trial": 6, "serialpos": 18, "trial_type": "single-stim", "trial_index": 255, "time_elapsed": 1295993, "internal_node_id": "0.0-192.0"}}, {"uniqueid": "MTK0417:3YHH42UU5CMHD0AYYRLNUFCT3YI0LW", "current_trial": 256, "dateTime": 1510947085545, "trialdata": {"rt": -1, "stimulus": "<p id=\"stim\">MARSH</p>", "key_press": -1, "type": "PRES_VIS", "word": "marsh", "wordID": 873, "conditions": [24, 1600, "v", 12000], "trial": 6, "serialpos": 19, "trial_type": "single-stim", "trial_index": 256, "time_elapsed": 1298663, "internal_node_id": "0.0-193.0"}}, {"uniqueid": "MTK0417:3YHH42UU5CMHD0AYYRLNUFCT3YI0LW", "current_trial": 257, "dateTime": 1510947088361, "trialdata": {"rt": -1, "stimulus": "<p id=\"stim\">MAMMAL</p>", "key_press": -1, "type": "PRES_VIS", "word": "mammal", "wordID": 860, "conditions": [24, 1600, "v", 12000], "trial": 6, "serialpos": 20, "trial_type": "single-stim", "trial_index": 257, "time_elapsed": 1301480, "internal_node_id": "0.0-194.0"}}, {"uniqueid": "MTK0417:3YHH42UU5CMHD0AYYRLNUFCT3YI0LW", "current_trial": 258, "dateTime": 1510947091300, "trialdata": {"rt": -1, "stimulus": "<p id=\"stim\">FLESH</p>", "key_press": -1, "type": "PRES_VIS", "word": "flesh", "wordID": 578, "conditions": [24, 1600, "v", 12000], "trial": 6, "serialpos": 21, "trial_type": "single-stim", "trial_index": 258, "time_elapsed": 1304419, "internal_node_id": "0.0-195.0"}}, {"uniqueid": "MTK0417:3YHH42UU5CMHD0AYYRLNUFCT3YI0LW", "current_trial": 259, "dateTime": 1510947093904, "trialdata": {"rt": -1, "stimulus": "<p id=\"stim\">PEBBLE</p>", "key_press": -1, "type": "PRES_VIS", "word": "pebble", "wordID": 1034, "conditions": [24, 1600, "v", 12000], "trial": 6, "serialpos": 22, "trial_type": "single-stim", "trial_index": 259, "time_elapsed": 1307022, "internal_node_id": "0.0-196.0"}}, {"uniqueid": "MTK0417:3YHH42UU5CMHD0AYYRLNUFCT3YI0LW", "current_trial": 260, "dateTime": 1510947096526, "trialdata": {"rt": -1, "stimulus": "<p id=\"stim\">PRIMATE</p>", "key_press": -1, "type": "PRES_VIS", "word": "primate", "wordID": 1122, "conditions": [24, 1600, "v", 12000], "trial": 6, "serialpos": 23, "trial_type": "single-stim", "trial_index": 260, "time_elapsed": 1309645, "internal_node_id": "0.0-197.0"}}, {"uniqueid": "MTK0417:3YHH42UU5CMHD0AYYRLNUFCT3YI0LW", "current_trial": 261, "dateTime": 1510947099222, "trialdata": {"rt": -1, "stimulus": "", "key_press": -1, "type": "PRE_RECALL_DELAY", "trial_type": "single-stim", "trial_index": 261, "time_elapsed": 1312341, "internal_node_id": "0.0-198.0-0.0"}}, {"uniqueid": "MTK0417:3YHH42UU5CMHD0AYYRLNUFCT3YI0LW", "current_trial": 262, "dateTime": 1510947099724, "trialdata": {"rt": -1000, "stimulus": "/static/audio/400Hz.wav", "key_press": -1, "type": "PRE_RECALL_ALERT", "trial_type": "single-audio", "trial_index": 262, "time_elapsed": 1312842, "internal_node_id": "0.0-199.0"}}, {"uniqueid": "MTK0417:3YHH42UU5CMHD0AYYRLNUFCT3YI0LW", "current_trial": 263, "dateTime": 1510947159748, "trialdata": {"rt": [2701, 4945, 6594, 8590, 10400, 13345, 15698, 17644, 19896, 22809], "recwords": ["primate", "daughter", "tutt", "tutu", "skirt", "bubble", "champagne", "glass", "lagoon", "marsh"], "type": "FREE_RECALL", "conditions": [24, 1600, "v", 12000], "trial": 6, "trial_type": "free-recall", "trial_index": 263, "time_elapsed": 1372848, "internal_node_id": "0.0-200.0-0.0"}}, {"uniqueid": "MTK0417:3YHH42UU5CMHD0AYYRLNUFCT3YI0LW", "current_trial": 264, "dateTime": 1510947162692, "trialdata": {"rt": 937, "key_press": 74, "type": "INSTRUCTIONS", "trial_type": "text", "trial_index": 264, "time_elapsed": 1375810, "internal_node_id": "0.0-201.0"}}, {"uniqueid": "MTK0417:3YHH42UU5CMHD0AYYRLNUFCT3YI0LW", "current_trial": 265, "dateTime": 1510947176698, "trialdata": {"rt": [2637, 4871, 6829, 9731, 11553], "responses": ["16", "16", "8", "12", "18"], "num1": [8, 8, 1, 2, 8, 1], "num2": [1, 4, 4, 9, 4, 2], "num3": [7, 4, 3, 1, 6, 1], "type": "DISTRACTOR", "conditions": [12, 1600, "a", 12000], "trial": 7, "trial_type": "math-distractor", "trial_index": 265, "time_elapsed": 1389817, "internal_node_id": "0.0-202.0"}}, {"uniqueid": "MTK0417:3YHH42UU5CMHD0AYYRLNUFCT3YI0LW", "current_trial": 266, "dateTime": 1510947179763, "trialdata": {"rt": -1, "stimulus": "<p id=\"stim\">10</p>", "key_press": -1, "trial_type": "single-stim", "trial_index": 266, "time_elapsed": 1392882, "internal_node_id": "0.0-203.0-0.0"}}, {"uniqueid": "MTK0417:3YHH42UU5CMHD0AYYRLNUFCT3YI0LW", "current_trial": 267, "dateTime": 1510947180765, "trialdata": {"rt": -1, "stimulus": "<p id=\"stim\">9</p>", "key_press": -1, "trial_type": "single-stim", "trial_index": 267, "time_elapsed": 1393884, "internal_node_id": "0.0-203.0-1.0"}}, {"uniqueid": "MTK0417:3YHH42UU5CMHD0AYYRLNUFCT3Y