{"condition": 0, "counterbalance": 326, "assignmentId": "3DIP6YHAPDZLPJ59C9BYAZSRBXR8EW", "workerId": "MTK0080", "hitId": "322ZSN9Z5GRK8H2A0Z5E3PG3Z3I4TN", "currenttrial": 625, "bonus": 0, "data": [{"uniqueid": "MTK0080:3DIP6YHAPDZLPJ59C9BYAZSRBXR8EW", "current_trial": 0, "dateTime": 1509131322254, "trialdata": {"rt": 5185, "key_press": 32, "type": "INSTRUCTIONS", "trial_type": "text", "trial_index": 0, "time_elapsed": 5186, "internal_node_id": "0.0-0.0"}}, {"uniqueid": "MTK0080:3DIP6YHAPDZLPJ59C9BYAZSRBXR8EW", "current_trial": 1, "dateTime": 1509131351278, "trialdata": {"rt": 29024, "key_press": 80, "type": "INSTRUCTIONS", "trial_type": "text", "trial_index": 1, "time_elapsed": 34211, "internal_node_id": "0.0-1.0"}}, {"uniqueid": "MTK0080:3DIP6YHAPDZLPJ59C9BYAZSRBXR8EW", "current_trial": 2, "dateTime": 1509131368382, "trialdata": {"rt": [17099], "responses": ["ocean"], "type": "AUDIO_TEST", "trial_type": "audio-test", "trial_index": 2, "time_elapsed": 51315, "internal_node_id": "0.0-2.0"}}, {"uniqueid": "MTK0080:3DIP6YHAPDZLPJ59C9BYAZSRBXR8EW", "current_trial": 3, "dateTime": 1509131384433, "trialdata": {"rt": [16048], "responses": ["crystal"], "type": "AUDIO_TEST", "trial_type": "audio-test", "trial_index": 3, "time_elapsed": 67366, "internal_node_id": "0.0-3.0"}}, {"uniqueid": "MTK0080:3DIP6YHAPDZLPJ59C9BYAZSRBXR8EW", "current_trial": 4, "dateTime": 1509131389192, "trialdata": {"rt": [4757], "responses": ["spice"], "type": "AUDIO_TEST", "trial_type": "audio-test", "trial_index": 4, "time_elapsed": 72125, "internal_node_id": "0.0-4.0"}}, {"uniqueid": "MTK0080:3DIP6YHAPDZLPJ59C9BYAZSRBXR8EW", "current_trial": 5, "dateTime": 1509131392566, "trialdata": {"rt": 2624, "key_press": 32, "type": "INSTRUCTIONS", "trial_type": "text", "trial_index": 5, "time_elapsed": 75499, "internal_node_id": "0.0-5.0"}}, {"uniqueid": "MTK0080:3DIP6YHAPDZLPJ59C9BYAZSRBXR8EW", "current_trial": 6, "dateTime": 1509131432437, "trialdata": {"rt": 39871, "key_press": 32, "type": "INSTRUCTIONS", "trial_type": "text", "trial_index": 6, "time_elapsed": 115370, "internal_node_id": "0.0-6.0"}}, {"uniqueid": "MTK0080:3DIP6YHAPDZLPJ59C9BYAZSRBXR8EW", "current_trial": 7, "dateTime": 1509131446927, "trialdata": {"rt": 14490, "key_press": 32, "type": "INSTRUCTIONS", "trial_type": "text", "trial_index": 7, "time_elapsed": 129860, "internal_node_id": "0.0-7.0"}}, {"uniqueid": "MTK0080:3DIP6YHAPDZLPJ59C9BYAZSRBXR8EW", "current_trial": 8, "dateTime": 1509131457086, "trialdata": {"rt": 10159, "key_press": 32, "type": "INSTRUCTIONS", "trial_type": "text", "trial_index": 8, "time_elapsed": 140019, "internal_node_id": "0.0-8.0"}}, {"uniqueid": "MTK0080:3DIP6YHAPDZLPJ59C9BYAZSRBXR8EW", "current_trial": 9, "dateTime": 1509131476091, "trialdata": {"rt": [3756, 6614, 8380, 13623, 15704], "responses": ["10", "17", "6", "19", "8"], "num1": [5, 2, 1, 7, 1, 6], "num2": [2, 8, 1, 4, 4, 7], "num3": [3, 7, 4, 8, 3, 9], "type": "DISTRACTOR", "conditions": [18, 1200, "a", 18000], "trial": 0, "trial_type": "math-distractor", "trial_index": 9, "time_elapsed": 159024, "internal_node_id": "0.0-9.0"}}, {"uniqueid": "MTK0080:3DIP6YHAPDZLPJ59C9BYAZSRBXR8EW", "current_trial": 10, "dateTime": 1509131479098, "trialdata": {"rt": -1, "stimulus": "<p id=\"stim\">10</p>", "key_press": -1, "trial_type": "single-stim", "trial_index": 10, "time_elapsed": 162031, "internal_node_id": "0.0-10.0-0.0"}}, {"uniqueid": "MTK0080:3DIP6YHAPDZLPJ59C9BYAZSRBXR8EW", "current_trial": 11, "dateTime": 1509131480101, "trialdata": {"rt": -1, "stimulus": "<p id=\"stim\">9</p>", "key_press": -1, "trial_type": "single-stim", "trial_index": 11, "time_elapsed": 163034, "internal_node_id": "0.0-10.0-1.0"}}, {"uniqueid": "MTK0080:3DIP6YHAPDZLPJ59C9BYAZSRBXR8EW", "current_trial": 12, "dateTime": 1509131481106, "trialdata": {"rt": -1, "stimulus": "<p id=\"stim\">8</p>", "key_press": -1, "trial_type": "single-stim", "trial_index": 12, "time_elapsed": 164039, "internal_node_id": "0.0-10.0-2.0"}}, {"uniqueid": "MTK0080:3DIP6YHAPDZLPJ59C9BYAZSRBXR8EW", "current_trial": 13, "dateTime": 1509131482109, "trialdata": {"rt": -1, "stimulus": "<p id=\"stim\">7</p>", "key_press": -1, "trial_type": "single-stim", "trial_index": 13, "time_elapsed": 165042, "internal_node_id": "0.0-10.0-3.0"}}, {"uniqueid": "MTK0080:3DIP6YHAPDZLPJ59C9BYAZSRBXR8EW", "current_trial": 14, "dateTime": 1509131483114, "trialdata": {"rt": -1, "stimulus": "<p id=\"stim\">6</p>", "key_press": -1, "trial_type": "single-stim", "trial_index": 14, "time_elapsed": 166047, "internal_node_id": "0.0-10.0-4.0"}}, {"uniqueid": "MTK0080:3DIP6YHAPDZLPJ59C9BYAZSRBXR8EW", "current_trial": 15, "dateTime": 1509131484117, "trialdata": {"rt": -1, "stimulus": "<p id=\"stim\">5</p>", "key_press": -1, "trial_type": "single-stim", "trial_index": 15, "time_elapsed": 167050, "internal_node_id": "0.0-10.0-5.0"}}, {"uniqueid": "MTK0080:3DIP6YHAPDZLPJ59C9BYAZSRBXR8EW", "current_trial": 16, "dateTime": 1509131485122, "trialdata": {"rt": -1, "stimulus": "<p id=\"stim\">4</p>", "key_press": -1, "trial_type": "single-stim", "trial_index": 16, "time_elapsed": 168055, "internal_node_id": "0.0-10.0-6.0"}}, {"uniqueid": "MTK0080:3DIP6YHAPDZLPJ59C9BYAZSRBXR8EW", "current_trial": 17, "dateTime": 1509131486126, "trialdata": {"rt": -1, "stimulus": "<p id=\"stim\">3</p>", "key_press": -1, "trial_type": "single-stim", "trial_index": 17, "time_elapsed": 169059, "internal_node_id": "0.0-10.0-7.0"}}, {"uniqueid": "MTK0080:3DIP6YHAPDZLPJ59C9BYAZSRBXR8EW", "current_trial": 18, "dateTime": 1509131487130, "trialdata": {"rt": -1, "stimulus": "<p id=\"stim\">2</p>", "key_press": -1, "trial_type": "single-stim", "trial_index": 18, "time_elapsed": 170063, "internal_node_id": "0.0-10.0-8.0"}}, {"uniqueid": "MTK0080:3DIP6YHAPDZLPJ59C9BYAZSRBXR8EW", "current_trial": 19, "dateTime": 1509131488134, "trialdata": {"rt": -1, "stimulus": "<p id=\"stim\">1</p>", "key_press": -1, "trial_type": "single-stim", "trial_index": 19, "time_elapsed": 171067, "internal_node_id": "0.0-10.0-9.0"}}, {"uniqueid": "MTK0080:3DIP6YHAPDZLPJ59C9BYAZSRBXR8EW", "current_trial": 20, "dateTime": 1509131489638, "trialdata": {"rt": -1, "stimulus": "<p id=\"stim\">+</p>", "key_press": -1, "type": "FIXATION", "trial_type": "single-stim", "trial_index": 20, "time_elapsed": 172570, "internal_node_id": "0.0-11.0-0.0"}}, {"uniqueid": "MTK0080:3DIP6YHAPDZLPJ59C9BYAZSRBXR8EW", "current_trial": 21, "dateTime": 1509131491851, "trialdata": {"rt": -1000, "stimulus": "/static/audio/wordpool/BIKE.wav", "key_press": -1, "type": "PRES_AUD", "word": "bike", "wordID": 124, "conditions": [18, 1200, "a", 18000], "trial": 0, "serialpos": 0, "trial_type": "single-audio", "trial_index": 21, "time_elapsed": 174784, "internal_node_id": "0.0-12.0"}}, {"uniqueid": "MTK0080:3DIP6YHAPDZLPJ59C9BYAZSRBXR8EW", "current_trial": 22, "dateTime": 1509131494044, "trialdata": {"rt": -1000, "stimulus": "/static/audio/wordpool/TERMITE.wav", "key_press": -1, "type": "PRES_AUD", "word": "termite", "wordID": 1450, "conditions": [18, 1200, "a", 18000], "trial": 0, "serialpos": 1, "trial_type": "single-audio", "trial_index": 22, "time_elapsed": 176977, "internal_node_id": "0.0-13.0"}}, {"uniqueid": "MTK0080:3DIP6YHAPDZLPJ59C9BYAZSRBXR8EW", "current_trial": 23, "dateTime": 1509131496280, "trialdata": {"rt": -1000, "stimulus": "/static/audio/wordpool/ATLAS.wav", "key_press": -1, "type": "PRES_AUD", "word": "atlas", "wordID": 52, "conditions": [18, 1200, "a", 18000], "trial": 0, "serialpos": 2, "trial_type": "single-audio", "trial_index": 23, "time_elapsed": 179213, "internal_node_id": "0.0-14.0"}}, {"uniqueid": "MTK0080:3DIP6YHAPDZLPJ59C9BYAZSRBXR8EW", "current_trial": 24, "dateTime": 1509131498637, "trialdata": {"rt": -1000, "stimulus": "/static/audio/wordpool/SCRIBBLE.wav", "key_press": -1, "type": "PRES_AUD", "word": "scribble", "wordID": 1255, "conditions": [18, 1200, "a", 18000], "trial": 0, "serialpos": 3, "trial_type": "single-audio", "trial_index": 24, "time_elapsed": 181570, "internal_node_id": "0.0-15.0"}}, {"uniqueid": "MTK0080:3DIP6YHAPDZLPJ59C9BYAZSRBXR8EW", "current_trial": 25, "dateTime": 1509131500884, "trialdata": {"rt": -1000, "stimulus": "/static/audio/wordpool/GRAVEL.wav", "key_press": -1, "type": "PRES_AUD", "word": "gravel", "wordID": 658, "conditions": [18, 1200, "a", 18000], "trial": 0, "serialpos": 4, "trial_type": "single-audio", "trial_index": 25, "time_elapsed": 183817, "internal_node_id": "0.0-16.0"}}, {"uniqueid": "MTK0080:3DIP6YHAPDZLPJ59C9BYAZSRBXR8EW", "current_trial": 26, "dateTime": 1509131503113, "trialdata": {"rt": -1000, "stimulus": "/static/audio/wordpool/SISTER.wav", "key_press": -1, "type": "PRES_AUD", "word": "sister", "wordID": 1311, "conditions": [18, 1200, "a", 18000], "trial": 0, "serialpos": 5, "trial_type": "single-audio", "trial_index": 26, "time_elapsed": 186046, "internal_node_id": "0.0-17.0"}}, {"uniqueid": "MTK0080:3DIP6YHAPDZLPJ59C9BYAZSRBXR8EW", "current_trial": 27, "dateTime": 1509131505225, "trialdata": {"rt": -1000, "stimulus": "/static/audio/wordpool/RADISH.wav", "key_press": -1, "type": "PRES_AUD", "word": "radish", "wordID": 1157, "conditions": [18, 1200, "a", 18000], "trial": 0, "serialpos": 6, "trial_type": "single-audio", "trial_index": 27, "time_elapsed": 188158, "internal_node_id": "0.0-18.0"}}, {"uniqueid": "MTK0080:3DIP6YHAPDZLPJ59C9BYAZSRBXR8EW", "current_trial": 28, "dateTime": 1509131507521, "trialdata": {"rt": -1000, "stimulus": "/static/audio/wordpool/KEEPER.wav", "key_press": -1, "type": "PRES_AUD", "word": "keeper", "wordID": 768, "conditions": [18, 1200, "a", 18000], "trial": 0, "serialpos": 7, "trial_type": "single-audio", "trial_index": 28, "time_elapsed": 190454, "internal_node_id": "0.0-19.0"}}, {"uniqueid": "MTK0080:3DIP6YHAPDZLPJ59C9BYAZSRBXR8EW", "current_trial": 29, "dateTime": 1509131509736, "trialdata": {"rt": -1000, "stimulus": "/static/audio/wordpool/WAITER.wav", "key_press": -1, "type": "PRES_AUD", "word": "waiter", "wordID": 1579, "conditions": [18, 1200, "a", 18000], "trial": 0, "serialpos": 8, "trial_type": "single-audio", "trial_index": 29, "time_elapsed": 192669, "internal_node_id": "0.0-20.0"}}, {"uniqueid": "MTK0080:3DIP6YHAPDZLPJ59C9BYAZSRBXR8EW", "current_trial": 30, "dateTime": 1509131511777, "trialdata": {"rt": -1000, "stimulus": "/static/audio/wordpool/BLUEPRINT.wav", "key_press": -1, "type": "PRES_AUD", "word": "blueprint", "wordID": 141, "conditions": [18, 1200, "a", 18000], "trial": 0, "serialpos": 9, "trial_type": "single-audio", "trial_index": 30, "time_elapsed": 194710, "internal_node_id": "0.0-21.0"}}, {"uniqueid": "MTK0080:3DIP6YHAPDZLPJ59C9BYAZSRBXR8EW", "current_trial": 31, "dateTime": 1509131514175, "trialdata": {"rt": -1000, "stimulus": "/static/audio/wordpool/DANCER.wav", "key_press": -1, "type": "PRES_AUD", "word": "dancer", "wordID": 436, "conditions": [18, 1200, "a", 18000], "trial": 0, "serialpos": 10, "trial_type": "single-audio", "trial_index": 31, "time_elapsed": 197108, "internal_node_id": "0.0-22.0"}}, {"uniqueid": "MTK0080:3DIP6YHAPDZLPJ59C9BYAZSRBXR8EW", "current_trial": 32, "dateTime": 1509131516500, "trialdata": {"rt": -1000, "stimulus": "/static/audio/wordpool/OUTFIT.wav", "key_press": -1, "type": "PRES_AUD", "word": "outfit", "wordID": 987, "conditions": [18, 1200, "a", 18000], "trial": 0, "serialpos": 11, "trial_type": "single-audio", "trial_index": 32, "time_elapsed": 199433, "internal_node_id": "0.0-23.0"}}, {"uniqueid": "MTK0080:3DIP6YHAPDZLPJ59C9BYAZSRBXR8EW", "current_trial": 33, "dateTime": 1509131518658, "trialdata": {"rt": -1000, "stimulus": "/static/audio/wordpool/HERO.wav", "key_press": -1, "type": "PRES_AUD", "word": "hero", "wordID": 705, "conditions": [18, 1200, "a", 18000], "trial": 0, "serialpos": 12, "trial_type": "single-audio", "trial_index": 33, "time_elapsed": 201591, "internal_node_id": "0.0-24.0"}}, {"uniqueid": "MTK0080:3DIP6YHAPDZLPJ59C9BYAZSRBXR8EW", "current_trial": 34, "dateTime": 1509131520775, "trialdata": {"rt": -1000, "stimulus": "/static/audio/wordpool/EMPIRE.wav", "key_press": -1, "type": "PRES_AUD", "word": "empire", "wordID": 529, "conditions": [18, 1200, "a", 18000], "trial": 0, "serialpos": 13, "trial_type": "single-audio", "trial_index": 34, "time_elapsed": 203708, "internal_node_id": "0.0-25.0"}}, {"uniqueid": "MTK0080:3DIP6YHAPDZLPJ59C9BYAZSRBXR8EW", "current_trial": 35, "dateTime": 1509131523064, "trialdata": {"rt": -1000, "stimulus": "/static/audio/wordpool/MARKET.wav", "key_press": -1, "type": "PRES_AUD", "word": "market", "wordID": 870, "conditions": [18, 1200, "a", 18000], "trial": 0, "serialpos": 14, "trial_type": "single-audio", "trial_index": 35, "time_elapsed": 205997, "internal_node_id": "0.0-26.0"}}, {"uniqueid": "MTK0080:3DIP6YHAPDZLPJ59C9BYAZSRBXR8EW", "current_trial": 36, "dateTime": 1509131525299, "trialdata": {"rt": -1000, "stimulus": "/static/audio/wordpool/DORM.wav", "key_press": -1, "type": "PRES_AUD", "word": "dorm", "wordID": 487, "conditions": [18, 1200, "a", 18000], "trial": 0, "serialpos": 15, "trial_type": "single-audio", "trial_index": 36, "time_elapsed": 208232, "internal_node_id": "0.0-27.0"}}, {"uniqueid": "MTK0080:3DIP6YHAPDZLPJ59C9BYAZSRBXR8EW", "current_trial": 37, "dateTime": 1509131527473, "trialdata": {"rt": -1000, "stimulus": "/static/audio/wordpool/BELLY.wav", "key_press": -1, "type": "PRES_AUD", "word": "belly", "wordID": 118, "conditions": [18, 1200, "a", 18000], "trial": 0, "serialpos": 16, "trial_type": "single-audio", "trial_index": 37, "time_elapsed": 210406, "internal_node_id": "0.0-28.0"}}, {"uniqueid": "MTK0080:3DIP6YHAPDZLPJ59C9BYAZSRBXR8EW", "current_trial": 38, "dateTime": 1509131529525, "trialdata": {"rt": -1000, "stimulus": "/static/audio/wordpool/HORNET.wav", "key_press": -1, "type": "PRES_AUD", "word": "hornet", "wordID": 717, "conditions": [18, 1200, "a", 18000], "trial": 0, "serialpos": 17, "trial_type": "single-audio", "trial_index": 38, "time_elapsed": 212458, "internal_node_id": "0.0-29.0"}}, {"uniqueid": "MTK0080:3DIP6YHAPDZLPJ59C9BYAZSRBXR8EW", "current_trial": 39, "dateTime": 1509131530920, "trialdata": {"rt": -1, "stimulus": "", "key_press": -1, "type": "PRE_RECALL_DELAY", "trial_type": "single-stim", "trial_index": 39, "time_elapsed": 213853, "internal_node_id": "0.0-30.0-0.0"}}, {"uniqueid": "MTK0080:3DIP6YHAPDZLPJ59C9BYAZSRBXR8EW", "current_trial": 40, "dateTime": 1509131531421, "trialdata": {"rt": -1000, "stimulus": "/static/audio/400Hz.wav", "key_press": -1, "type": "PRE_RECALL_ALERT", "trial_type": "single-audio", "trial_index": 40, "time_elapsed": 214354, "internal_node_id": "0.0-31.0"}}, {"uniqueid": "MTK0080:3DIP6YHAPDZLPJ59C9BYAZSRBXR8EW", "current_trial": 41, "dateTime": 1509131591425, "trialdata": {"rt": [2660, 3920, 5787, 7081, 8251, 9196, 15980, 20570, 29120], "recwords": ["hornet", "belly", "market", "empire", "waiter", "sister", "hornet", "belly", "termite"], "type": "FREE_RECALL", "conditions": [18, 1200, "a", 18000], "trial": 0, "trial_type": "free-recall", "trial_index": 41, "time_elapsed": 274357, "internal_node_id": "0.0-32.0-0.0"}}, {"uniqueid": "MTK0080:3DIP6YHAPDZLPJ59C9BYAZSRBXR8EW", "current_trial": 42, "dateTime": 1509131595182, "trialdata": {"rt": 1753, "key_press": 32, "type": "INSTRUCTIONS", "trial_type": "text", "trial_index": 42, "time_elapsed": 278114, "internal_node_id": "0.0-33.0"}}, {"uniqueid": "MTK0080:3DIP6YHAPDZLPJ59C9BYAZSRBXR8EW", "current_trial": 43, "dateTime": 1509131615187, "trialdata": {"rt": [3500, 8292, 10790, 12432, 15323], "responses": ["10", "21", "14", "12", "13"], "num1": [8, 7, 8, 6, 6, 7], "num2": [1, 9, 3, 4, 5, 6], "num3": [1, 5, 3, 2, 2, 1], "type": "DISTRACTOR", "conditions": [18, 1200, "v", 18000], "trial": 1, "trial_type": "math-distractor", "trial_index": 43, "time_elapsed": 298120, "internal_node_id": "0.0-34.0"}}, {"uniqueid": "MTK0080:3DIP6YHAPDZLPJ59C9BYAZSRBXR8EW", "current_trial": 44, "dateTime": 1509131618193, "trialdata": {"rt": -1, "stimulus": "<p id=\"stim\">10</p>", "key_press": -1, "trial_type": "single-stim", "trial_index": 44, "time_elapsed": 301126, "internal_node_id": "0.0-35.0-0.0"}}, {"uniqueid": "MTK0080:3DIP6YHAPDZLPJ59C9BYAZSRBXR8EW", "current_trial": 45, "dateTime": 1509131619197, "trialdata": {"rt": -1, "stimulus": "<p id=\"stim\">9</p>", "key_press": -1, "trial_type": "single-stim", "trial_index": 45, "time_elapsed": 302130, "internal_node_id": "0.0-35.0-1.0"}}, {"uniqueid": "MTK0080:3DIP6YHAPDZLPJ59C9BYAZSRBXR8EW", "current_trial": 46, "dateTime": 1509131620201, "trialdata": {"rt": -1, "stimulus": "<p id=\"stim\">8</p>", "key_press": -1, "trial_type": "single-stim", "trial_index": 46, "time_elapsed": 303134, "internal_node_id": "0.0-35.0-2.0"}}, {"uniqueid": "MTK0080:3DIP6YHAPDZLPJ59C9BYAZSRBXR8EW", "current_trial": 47, "dateTime": 1509131621206, "trialdata": {"rt": -1, "stimulus": "<p id=\"stim\">7</p>", "key_press": -1, "trial_type": "single-stim", "trial_index": 47, "time_elapsed": 304139, "internal_node_id": "0.0-35.0-3.0"}}, {"uniqueid": "MTK0080:3DIP6YHAPDZLPJ59C9BYAZSRBXR8EW", "current_trial": 48, "dateTime": 1509131622210, "trialdata": {"rt": -1, "stimulus": "<p id=\"stim\">6</p>", "key_press": -1, "trial_type": "single-stim", "trial_index": 48, "time_elapsed": 305143, "internal_node_id": "0.0-35.0-4.0"}}, {"uniqueid": "MTK0080:3DIP6YHAPDZLPJ59C9BYAZSRBXR8EW", "current_trial": 49, "dateTime": 1509131623214, "trialdata": {"rt": -1, "stimulus": "<p id=\"stim\">5</p>", "key_press": -1, "trial_type": "single-stim", "trial_index": 49, "time_elapsed": 306147, "internal_node_id": "0.0-35.0-5.0"}}, {"uniqueid": "MTK0080:3DIP6YHAPDZLPJ59C9BYAZSRBXR8EW", "current_trial": 50, "dateTime": 1509131624217, "trialdata": {"rt": -1, "stimulus": "<p id=\"stim\">4</p>", "key_press": -1, "trial_type": "single-stim", "trial_index": 50, "time_elapsed": 307150, "internal_node_id": "0.0-35.0-6.0"}}, {"uniqueid": "MTK0080:3DIP6YHAPDZLPJ59C9BYAZSRBXR8EW", "current_trial": 51, "dateTime": 1509131625222, "trialdata": {"rt": -1, "stimulus": "<p id=\"stim\">3</p>", "key_press": -1, "trial_type": "single-stim", "trial_index": 51, "time_elapsed": 308155, "internal_node_id": "0.0-35.0-7.0"}}, {"uniqueid": "MTK0080:3DIP6YHAPDZLPJ59C9BYAZSRBXR8EW", "current_trial": 52, "dateTime": 1509131626228, "trialdata": {"rt": -1, "stimulus": "<p id=\"stim\">2</p>", "key_press": -1, "trial_type": "single-stim", "trial_index": 52, "time_elapsed": 309160, "internal_node_id": "0.0-35.0-8.0"}}, {"uniqueid": "MTK0080:3DIP6YHAPDZLPJ59C9BYAZSRBXR8EW", "current_trial": 53, "dateTime": 1509131627230, "trialdata": {"rt": -1, "stimulus": "<p id=\"stim\">1</p>", "key_press": -1, "trial_type": "single-stim", "trial_index": 53, "time_elapsed": 310163, "internal_node_id": "0.0-35.0-9.0"}}, {"uniqueid": "MTK0080:3DIP6YHAPDZLPJ59C9BYAZSRBXR8EW", "current_trial": 54, "dateTime": 1509131628733, "trialdata": {"rt": -1, "stimulus": "<p id=\"stim\">+</p>", "key_press": -1, "type": "FIXATION", "trial_type": "single-stim", "trial_index": 54, "time_elapsed": 311666, "internal_node_id": "0.0-36.0-0.0"}}, {"uniqueid": "MTK0080:3DIP6YHAPDZLPJ59C9BYAZSRBXR8EW", "current_trial": 55, "dateTime": 1509131629935, "trialdata": {"rt": -1, "stimulus": "<p id=\"stim\">WHISKERS</p>", "key_press": -1, "type": "PRES_VIS", "word": "whiskers", "wordID": 1604, "conditions": [18, 1200, "v", 18000], "trial": 1, "serialpos": 0, "trial_type": "single-stim", "trial_index": 55, "time_elapsed": 312868, "internal_node_id": "0.0-37.0"}}, {"uniqueid": "MTK0080:3DIP6YHAPDZLPJ59C9BYAZSRBXR8EW", "current_trial": 56, "dateTime": 1509131632178, "trialdata": {"rt": -1, "stimulus": "<p id=\"stim\">SURVEY</p>", "key_press": -1, "type": "PRES_VIS", "word": "survey", "wordID": 1413, "conditions": [18, 1200, "v", 18000], "trial": 1, "serialpos": 1, "trial_type": "single-stim", "trial_index": 56, "time_elapsed": 315111, "internal_node_id": "0.0-38.0"}}, {"uniqueid": "MTK0080:3DIP6YHAPDZLPJ59C9BYAZSRBXR8EW", "current_trial": 57, "dateTime": 1509131634479, "trialdata": {"rt": -1, "stimulus": "<p id=\"stim\">PARTNER</p>", "key_press": -1, "type": "PRES_VIS", "word": "partner", "wordID": 1016, "conditions": [18, 1200, "v", 18000], "trial": 1, "serialpos": 2, "trial_type": "single-stim", "trial_index": 57, "time_elapsed": 317412, "internal_node_id": "0.0-39.0"}}, {"uniqueid": "MTK0080:3DIP6YHAPDZLPJ59C9BYAZSRBXR8EW", "current_trial": 58, "dateTime": 1509131636495, "trialdata": {"rt": -1, "stimulus": "<p id=\"stim\">SCOTCH</p>", "key_press": -1, "type": "PRES_VIS", "word": "scotch", "wordID": 1250, "conditions": [18, 1200, "v", 18000], "trial": 1, "serialpos": 3, "trial_type": "single-stim", "trial_index": 58, "time_elapsed": 319428, "internal_node_id": "0.0-40.0"}}, {"uniqueid": "MTK0080:3DIP6YHAPDZLPJ59C9BYAZSRBXR8EW", "current_trial": 59, "dateTime": 1509131638531, "trialdata": {"rt": -1, "stimulus": "<p id=\"stim\">BRANDY</p>", "key_press": -1, "type": "PRES_VIS", "word": "brandy", "wordID": 168, "conditions": [18, 1200, "v", 18000], "trial": 1, "serialpos": 4, "trial_type": "single-stim", "trial_index": 59, "time_elapsed": 321463, "internal_node_id": "0.0-41.0"}}, {"uniqueid": "MTK0080:3DIP6YHAPDZLPJ59C9BYAZSRBXR8EW", "current_trial": 60, "dateTime": 1509131640748, "trialdata": {"rt": -1, "stimulus": "<p id=\"stim\">COCKTAIL</p>", "key_press": -1, "type": "PRES_VIS", "word": "cocktail", "wordID": 337, "conditions": [18, 1200, "v", 18000], "trial": 1, "serialpos": 5, "trial_type": "single-stim", "trial_index": 60, "time_elapsed": 323681, "internal_node_id": "0.0-42.0"}}, {"uniqueid": "MTK0080:3DIP6YHAPDZLPJ59C9BYAZSRBXR8EW", "current_trial": 61, "dateTime": 1509131642798, "trialdata": {"rt": -1, "stimulus": "<p id=\"stim\">PIMPLE</p>", "key_press": -1, "type": "PRES_VIS", "word": "pimple", "wordID": 1070, "conditions": [18, 1200, "v", 18000], "trial": 1, "serialpos": 6, "trial_type": "single-stim", "trial_index": 61, "time_elapsed": 325731, "internal_node_id": "0.0-43.0"}}, {"uniqueid": "MTK0080:3DIP6YHAPDZLPJ59C9BYAZSRBXR8EW", "current_trial": 62, "dateTime": 1509131645193, "trialdata": {"rt": -1, "stimulus": "<p id=\"stim\">ORANGE</p>", "key_press": -1, "type": "PRES_VIS", "word": "orange", "wordID": 979, "conditions": [18, 1200, "v", 18000], "trial": 1, "serialpos": 7, "trial_type": "single-stim", "trial_index": 62, "time_elapsed": 328126, "internal_node_id": "0.0-44.0"}}, {"uniqueid": "MTK0080:3DIP6YHAPDZLPJ59C9BYAZSRBXR8EW", "current_trial": 63, "dateTime": 1509131647385, "trialdata": {"rt": -1, "stimulus": "<p id=\"stim\">HUMAN</p>", "key_press": -1, "type": "PRES_VIS", "word": "human", "wordID": 725, "conditions": [18, 1200, "v", 18000], "trial": 1, "serialpos": 8, "trial_type": "single-stim", "trial_index": 63, "time_elapsed": 330318, "internal_node_id": "0.0-45.0"}}, {"uniqueid": "MTK0080:3DIP6YHAPDZLPJ59C9BYAZSRBXR8EW", "current_trial": 64, "dateTime": 1509131649701, "trialdata": {"rt": -1, "stimulus": "<p id=\"stim\">TILE</p>", "key_press": -1, "type": "PRES_VIS", "word": "tile", "wordID": 1467, "conditions": [18, 1200, "v", 18000], "trial": 1, "serialpos": 9, "trial_type": "single-stim", "trial_index": 64, "time_elapsed": 332634, "internal_node_id": "0.0-46.0"}}, {"uniqueid": "MTK0080:3DIP6YHAPDZLPJ59C9BYAZSRBXR8EW", "current_trial": 65, "dateTime": 1509131651767, "trialdata": {"rt": -1, "stimulus": "<p id=\"stim\">HIGHWAY</p>", "key_press": -1, "type": "PRES_VIS", "word": "highway", "wordID": 706, "conditions": [18, 1200, "v", 18000], "trial": 1, "serialpos": 10, "trial_type": "single-stim", "trial_index": 65, "time_elapsed": 334700, "internal_node_id": "0.0-47.0"}}, {"uniqueid": "MTK0080:3DIP6YHAPDZLPJ59C9BYAZSRBXR8EW", "current_trial": 66, "dateTime": 1509131653813, "trialdata": {"rt": -1, "stimulus": "<p id=\"stim\">SALT</p>", "key_press": -1, "type": "PRES_VIS", "word": "salt", "wordID": 1228, "conditions": [18, 1200, "v", 18000], "trial": 1, "serialpos": 11, "trial_type": "single-stim", "trial_index": 66, "time_elapsed": 336745, "internal_node_id": "0.0-48.0"}}, {"uniqueid": "MTK0080:3DIP6YHAPDZLPJ59C9BYAZSRBXR8EW", "current_trial": 67, "dateTime": 1509131656210, "trialdata": {"rt": -1, "stimulus": "<p id=\"stim\">BEAVER</p>", "key_press": -1, "type": "PRES_VIS", "word": "beaver", "wordID": 108, "conditions": [18, 1200, "v", 18000], "trial": 1, "serialpos": 12, "trial_type": "single-stim", "trial_index": 67, "time_elapsed": 339142, "internal_node_id": "0.0-49.0"}}, {"uniqueid": "MTK0080:3DIP6YHAPDZLPJ59C9BYAZSRBXR8EW", "current_trial": 68, "dateTime": 1509131658607, "trialdata": {"rt": -1, "stimulus": "<p id=\"stim\">VALLEY</p>", "key_press": -1, "type": "PRES_VIS", "word": "valley", "wordID": 1544, "conditions": [18, 1200, "v", 18000], "trial": 1, "serialpos": 13, "trial_type": "single-stim", "trial_index": 68, "time_elapsed": 341539, "internal_node_id": "0.0-50.0"}}, {"uniqueid": "MTK0080:3DIP6YHAPDZLPJ59C9BYAZSRBXR8EW", "current_trial": 69, "dateTime": 1509131660742, "trialdata": {"rt": -1, "stimulus": "<p id=\"stim\">LASER</p>", "key_press": -1, "type": "PRES_VIS", "word": "laser", "wordID": 800, "conditions": [18, 1200, "v", 18000], "trial": 1, "serialpos": 14, "trial_type": "single-stim", "trial_index": 69, "time_elapsed": 343675, "internal_node_id": "0.0-51.0"}}, {"uniqueid": "MTK0080:3DIP6YHAPDZLPJ59C9BYAZSRBXR8EW", "current_trial": 70, "dateTime": 1509131663029, "trialdata": {"rt": -1, "stimulus": "<p id=\"stim\">CHIPMUNK</p>", "key_press": -1, "type": "PRES_VIS", "word": "chipmunk", "wordID": 303, "conditions": [18, 1200, "v", 18000], "trial": 1, "serialpos": 15, "trial_type": "single-stim", "trial_index": 70, "time_elapsed": 345962, "internal_node_id": "0.0-52.0"}}, {"uniqueid": "MTK0080:3DIP6YHAPDZLPJ59C9BYAZSRBXR8EW", "current_trial": 71, "dateTime": 1509131665130, "trialdata": {"rt": -1, "stimulus": "<p id=\"stim\">VAGRANT</p>", "key_press": -1, "type": "PRES_VIS", "word": "vagrant", "wordID": 1543, "conditions": [18, 1200, "v", 18000], "trial": 1, "serialpos": 16, "trial_type": "single-stim", "trial_index": 71, "time_elapsed": 348063, "internal_node_id": "0.0-53.0"}}, {"uniqueid": "MTK0080:3DIP6YHAPDZLPJ59C9BYAZSRBXR8EW", "current_trial": 72, "dateTime": 1509131667533, "trialdata": {"rt": -1, "stimulus": "<p id=\"stim\">PARROT</p>", "key_press": -1, "type": "PRES_VIS", "word": "parrot", "wordID": 1014, "conditions": [18, 1200, "v", 18000], "trial": 1, "serialpos": 17, "trial_type": "single-stim", "trial_index": 72, "time_elapsed": 350466, "internal_node_id": "0.0-54.0"}}, {"uniqueid": "MTK0080:3DIP6YHAPDZLPJ59C9BYAZSRBXR8EW", "current_trial": 73, "dateTime": 1509131669681, "trialdata": {"rt": -1, "stimulus": "", "key_press": -1, "type": "PRE_RECALL_DELAY", "trial_type": "single-stim", "trial_index": 73, "time_elapsed": 352614, "internal_node_id": "0.0-55.0-0.0"}}, {"uniqueid": "MTK0080:3DIP6YHAPDZLPJ59C9BYAZSRBXR8EW", "current_trial": 74, "dateTime": 1509131670181, "trialdata": {"rt": -1000, "stimulus": "/static/audio/400Hz.wav", "key_press": -1, "type": "PRE_RECALL_ALERT", "trial_type": "single-audio", "trial_index": 74, "time_elapsed": 353114, "internal_node_id": "0.0-56.0"}}, {"uniqueid": "MTK0080:3DIP6YHAPDZLPJ59C9BYAZSRBXR8EW", "current_trial": 75, "dateTime": 1509131730184, "trialdata": {"rt": [2929, 4234, 5821, 9319, 10478, 12211, 18769], "recwords": ["parrot", "whisker", "scoth", "scotch", "brandy", "cocktail", "whiskers"], "type": "FREE_RECALL", "conditions": [18, 1200, "v", 18000], "trial": 1, "trial_type": "free-recall", "trial_index": 75, "time_elapsed": 413116, "internal_node_id": "0.0-57.0-0.0"}}, {"uniqueid": "MTK0080:3DIP6YHAPDZLPJ59C9BYAZSRBXR8EW", "current_trial": 76, "dateTime": 1509131735122, "trialdata": {"rt": 2936, "key_press": 32, "type": "INSTRUCTIONS", "trial_type": "text", "trial_index": 76, "time_elapsed": 418055, "internal_node_id": "0.0-58.0"}}, {"uniqueid": "MTK0080:3DIP6YHAPDZLPJ59C9BYAZSRBXR8EW", "current_trial": 77, "dateTime": 1509131748129, "trialdata": {"rt": [2516, 3979, 5790, 7646, 9683], "responses": ["14", "13", "11", "6", "10"], "num1": [7, 2, 4, 1, 8, 4], "num2": [3, 8, 1, 2, 1, 9], "num3": [4, 3, 6, 3, 1, 6], "type": "DISTRACTOR", "conditions": [12, 800, "v", 12000], "trial": 2, "trial_type": "math-distractor", "trial_index": 77, "time_elapsed": 431062, "internal_node_id": "0.0-59.0"}}, {"uniqueid": "MTK0080:3DIP6YHAPDZLPJ59C9BYAZSRBXR8EW", "current_trial": 78, "dateTime": 1509131751136, "trialdata": {"rt": -1, "stimulus": "<p id=\"stim\">10</p>", "key_press": -1, "trial_type": "single-stim", "trial_index": 78, "time_elapsed": 434069, "internal_node_id": "0.0-60.0-0.0"}}, {"uniqueid": "MTK0080:3DIP6YHAPDZLPJ59C9BYAZSRBXR8EW", "current_trial": 79, "dateTime": 1509131752140, "trialdata": {"rt": -1, "stimulus": "<p id=\"stim\">9</p>", "key_press": -1, "trial_type": "single-stim", "trial_index": 79, "time_elapsed": 435073, "internal_node_id": "0.0-60.0-1.0"}}, {"uniqueid": "MTK0080:3DIP6YHAPDZLPJ59C9BYAZSRBXR8EW", "current_trial": 80, "dateTime": 1509131753144, "trialdata": {"rt": -1, "stimulus": "<p id=\"stim\">8</p>", "key_press": -1, "trial_type": "single-stim", "trial_index": 80, "time_elapsed": 436077, "internal_node_id": "0.0-60.0-2.0"}}, {"uniqueid": "MTK0080:3DIP6YHAPDZLPJ59C9BYAZSRBXR8EW", "current_trial": 81, "dateTime": 1509131754148, "trialdata": {"rt": -1, "stimulus": "<p id=\"stim\">7</p>", "key_press": -1, "trial_type": "single-stim", "trial_index": 81, "time_elapsed": 437081, "internal_node_id": "0.0-60.0-3.0"}}, {"uniqueid": "MTK0080:3DIP6YHAPDZLPJ59C9BYAZSRBXR8EW", "current_trial": 82, "dateTime": 1509131755152, "trialdata": {"rt": -1, "stimulus": "<p id=\"stim\">6</p>", "key_press": -1, "trial_type": "single-stim", "trial_index": 82, "time_elapsed": 438085, "internal_node_id": "0.0-60.0-4.0"}}, {"uniqueid": "MTK0080:3DIP6YHAPDZLPJ59C9BYAZSRBXR8EW", "current_trial": 83, "dateTime": 1509131756156, "trialdata": {"rt": -1, "stimulus": "<p id=\"stim\">5</p>", "key_press": -1, "trial_type": "single-stim", "trial_index": 83, "time_elapsed": 439089, "internal_node_id": "0.0-60.0-5.0"}}, {"uniqueid": "MTK0080:3DIP6YHAPDZLPJ59C9BYAZSRBXR8EW", "current_trial": 84, "dateTime": 1509131757160, "trialdata": {"rt": -1, "stimulus": "<p id=\"stim\">4</p>", "key_press": -1, "trial_type": "single-stim", "trial_index": 84, "time_elapsed": 440093, "internal_node_id": "0.0-60.0-6.0"}}, {"uniqueid": "MTK0080:3DIP6YHAPDZLPJ59C9BYAZSRBXR8EW", "current_trial": 85, "dateTime": 1509131758164, "trialdata": {"rt": -1, "stimulus": "<p id=\"stim\">3</p>", "key_press": -1, "trial_type": "single-stim", "trial_index": 85, "time_elapsed": 441097, "internal_node_id": "0.0-60.0-7.0"}}, {"uniqueid": "MTK0080:3DIP6YHAPDZLPJ59C9BYAZSRBXR8EW", "current_trial": 86, "dateTime": 1509131759168, "trialdata": {"rt": -1, "stimulus": "<p id=\"stim\">2</p>", "key_press": -1, "trial_type": "single-stim", "trial_index": 86, "time_elapsed": 442101, "internal_node_id": "0.0-60.0-8.0"}}, {"uniqueid": "MTK0080:3DIP6YHAPDZLPJ59C9BYAZSRBXR8EW", "current_trial": 87, "dateTime": 1509131760172, "trialdata": {"rt": -1, "stimulus": "<p id=\"stim\">1</p>", "key_press": -1, "trial_type": "single-stim", "trial_index": 87, "time_elapsed": 443105, "internal_node_id": "0.0-60.0-9.0"}}, {"uniqueid": "MTK0080:3DIP6YHAPDZLPJ59C9BYAZSRBXR8EW", "current_trial": 88, "dateTime": 1509131761676, "trialdata": {"rt": -1, "stimulus": "<p id=\"stim\">+</p>", "key_press": -1, "type": "FIXATION", "trial_type": "single-stim", "trial_index": 88, "time_elapsed": 444609, "internal_node_id": "0.0-61.0-0.0"}}, {"uniqueid": "MTK0080:3DIP6YHAPDZLPJ59C9BYAZSRBXR8EW", "current_trial": 89, "dateTime": 1509131762480, "trialdata": {"rt": -1, "stimulus": "<p id=\"stim\">GARLIC</p>", "key_press": -1, "type": "PRES_VIS", "word": "garlic", "wordID": 623, "conditions": [12, 800, "v", 12000], "trial": 2, "serialpos": 0, "trial_type": "single-stim", "trial_index": 89, "time_elapsed": 445413, "internal_node_id": "0.0-62.0"}}, {"uniqueid": "MTK0080:3DIP6YHAPDZLPJ59C9BYAZSRBXR8EW", "current_trial": 90, "dateTime": 1509131764096, "trialdata": {"rt": -1, "stimulus": "<p id=\"stim\">LUGGAGE</p>", "key_press": -1, "type": "PRES_VIS", "word": "luggage", "wordID": 846, "conditions": [12, 800, "v", 12000], "trial": 2, "serialpos": 1, "trial_type": "single-stim", "trial_index": 90, "time_elapsed": 447029, "internal_node_id": "0.0-63.0"}}, {"uniqueid": "MTK0080:3DIP6YHAPDZLPJ59C9BYAZSRBXR8EW", "current_trial": 91, "dateTime": 1509131766069, "trialdata": {"rt": -1, "stimulus": "<p id=\"stim\">STOVE</p>", "key_press": -1, "type": "PRES_VIS", "word": "stove", "wordID": 1387, "conditions": [12, 800, "v", 12000], "trial": 2, "serialpos": 2, "trial_type": "single-stim", "trial_index": 91, "time_elapsed": 449002, "internal_node_id": "0.0-64.0"}}, {"uniqueid": "MTK0080:3DIP6YHAPDZLPJ59C9BYAZSRBXR8EW", "current_trial": 92, "dateTime": 1509131768036, "trialdata": {"rt": -1, "stimulus": "<p id=\"stim\">SHELF</p>", "key_press": -1, "type": "PRES_VIS", "word": "shelf", "wordID": 1279, "conditions": [12, 800, "v", 12000], "trial": 2, "serialpos": 3, "trial_type": "single-stim", "trial_index": 92, "time_elapsed": 450969, "internal_node_id": "0.0-65.0"}}, {"uniqueid": "MTK0080:3DIP6YHAPDZLPJ59C9BYAZSRBXR8EW", "current_trial": 93, "dateTime": 1509131769955, "trialdata": {"rt": -1, "stimulus": "<p id=\"stim\">SCALPEL</p>", "key_press": -1, "type": "PRES_VIS", "word": "scalpel", "wordID": 1242, "conditions": [12, 800, "v", 12000], "trial": 2, "serialpos": 4, "trial_type": "single-stim", "trial_index": 93, "time_elapsed": 452888, "internal_node_id": "0.0-66.0"}}, {"uniqueid": "MTK0080:3DIP6YHAPDZLPJ59C9BYAZSRBXR8EW", "current_trial": 94, "dateTime": 1509131771606, "trialdata": {"rt": -1, "stimulus": "<p id=\"stim\">WASHER</p>", "key_press": -1, "type": "PRES_VIS", "word": "washer", "wordID": 1591, "conditions": [12, 800, "v", 12000], "trial": 2, "serialpos": 5, "trial_type": "single-stim", "trial_index": 94, "time_elapsed": 454539, "internal_node_id": "0.0-67.0"}}, {"uniqueid": "MTK0080:3DIP6YHAPDZLPJ59C9BYAZSRBXR8EW", "current_trial": 95, "dateTime": 1509131773562, "trialdata": {"rt": -1, "stimulus": "<p id=\"stim\">CREATURE</p>", "key_press": -1, "type": "PRES_VIS", "word": "creature", "wordID": 402, "conditions": [12, 800, "v", 12000], "trial": 2, "serialpos": 6, "trial_type": "single-stim", "trial_index": 95, "time_elapsed": 456495, "internal_node_id": "0.0-68.0"}}, {"uniqueid": "MTK0080:3DIP6YHAPDZLPJ59C9BYAZSRBXR8EW", "current_trial": 96, "dateTime": 1509131775539, "trialdata": {"rt": -1, "stimulus": "<p id=\"stim\">BLOUSE</p>", "key_press": -1, "type": "PRES_VIS", "word": "blouse", "wordID": 138, "conditions": [12, 800, "v", 12000], "trial": 2, "serialpos": 7, "trial_type": "single-stim", "trial_index": 96, "time_elapsed": 458472, "internal_node_id": "0.0-69.0"}}, {"uniqueid": "MTK0080:3DIP6YHAPDZLPJ59C9BYAZSRBXR8EW", "current_trial": 97, "dateTime": 1509131777364, "trialdata": {"rt": -1, "stimulus": "<p id=\"stim\">PATIENT</p>", "key_press": -1, "type": "PRES_VIS", "word": "patient", "wordID": 1023, "conditions": [12, 800, "v", 12000], "trial": 2, "serialpos": 8, "trial_type": "single-stim", "trial_index": 97, "time_elapsed": 460297, "internal_node_id": "0.0-70.0"}}, {"uniqueid": "MTK0080:3DIP6YHAPDZLPJ59C9BYAZSRBXR8EW", "current_trial": 98, "dateTime": 1509131779108, "trialdata": {"rt": -1, "stimulus": "<p id=\"stim\">NURSE</p>", "key_press": -1, "type": "PRES_VIS", "word": "nurse", "wordID": 962, "conditions": [12, 800, "v", 12000], "trial": 2, "serialpos": 9, "trial_type": "single-stim", "trial_index": 98, "time_elapsed": 462041, "internal_node_id": "0.0-71.0"}}, {"uniqueid": "MTK0080:3DIP6YHAPDZLPJ59C9BYAZSRBXR8EW", "current_trial": 99, "dateTime": 1509131780962, "trialdata": {"rt": -1, "stimulus": "<p id=\"stim\">LETTUCE</p>", "key_press": -1, "type": "PRES_VIS", "word": "lettuce", "wordID": 813, "conditions": [12, 800, "v", 12000], "trial": 2, "serialpos": 10, "trial_type": "single-stim", "trial_index": 99, "time_elapsed": 463895, "internal_node_id": "0.0-72.0"}}, {"uniqueid": "MTK0080:3DIP6YHAPDZLPJ59C9BYAZSRBXR8EW", "current_trial": 100, "dateTime": 1509131782704, "trialdata": {"rt": -1, "stimulus": "<p id=\"stim\">CROWN</p>", "key_press": -1, "type": "PRES_VIS", "word": "crown", "wordID": 414, "conditions": [12, 800, "v", 12000], "trial": 2, "serialpos": 11, "trial_type": "single-stim", "trial_index": 100, "time_elapsed": 465637, "internal_node_id": "0.0-73.0"}}, {"uniqueid": "MTK0080:3DIP6YHAPDZLPJ59C9BYAZSRBXR8EW", "current_trial": 101, "dateTime": 1509131785124, "trialdata": {"rt": -1, "stimulus": "", "key_press": -1, "type": "PRE_RECALL_DELAY", "trial_type": "single-stim", "trial_index": 101, "time_elapsed": 468057, "internal_node_id": "0.0-74.0-0.0"}}, {"uniqueid": "MTK0080:3DIP6YHAPDZLPJ59C9BYAZSRBXR8EW", "current_trial": 102, "dateTime": 1509131785626, "trialdata": {"rt": -1000, "stimulus": "/static/audio/400Hz.wav", "key_press": -1, "type": "PRE_RECALL_ALERT", "trial_type": "single-audio", "trial_index": 102, "time_elapsed": 468559, "internal_node_id": "0.0-75.0"}}, {"uniqueid": "MTK0080:3DIP6YHAPDZLPJ59C9BYAZSRBXR8EW", "current_trial": 103, "dateTime": 1509131845628, "trialdata": {"rt": [2709, 4858, 6455, 8706, 10202, 28877, 30036], "recwords": ["lettuce", "garlic", "crown", "patient", "nurse", "clown", "gown"], "type": "FREE_RECALL", "conditions": [12, 800, "v", 12000], "trial": 2, "trial_type": "free-recall", "trial_index": 103, "time_elapsed": 528560, "internal_node_id": "0.0-76.0-0.0"}}, {"uniqueid": "MTK0080:3DIP6YHAPDZLPJ59C9BYAZSRBXR8EW", "current_trial": 104, "dateTime": 1509131849143, "trialdata": {"rt": 1511, "key_press": 32, "type": "INSTRUCTIONS", "trial_type": "text", "trial_index": 104, "time_elapsed": 532075, "internal_node_id": "0.0-77.0"}}, {"uniqueid": "MTK0080:3DIP6YHAPDZLPJ59C9BYAZSRBXR8EW", "current_trial": 105, "dateTime": 1509131875153, "trialdata": {"rt": [3676, 6062, 7333, 10258, 12890, 17121, 19686, 21250, 22948], "responses": ["14", "12", "11", "16", "20", "17", "18", "11", "19"], "num1": [3, 3, 4, 8, 6, 3, 9, 8, 1, 9], "num2": [4, 1, 6, 4, 5, 7, 5, 1, 9, 1], "num3": [6, 8, 1, 4, 9, 7, 4, 2, 9, 2], "type": "DISTRACTOR", "conditions": [12, 1600, "a", 24000], "trial": 3, "trial_type": "math-distractor", "trial_index": 105, "time_elapsed": 558086, "internal_node_id": "0.0-78.0"}}, {"uniqueid": "MTK0080:3DIP6YHAPDZLPJ59C9BYAZSRBXR8EW", "current_trial": 106, "dateTime": 1509131878158, "trialdata": {"rt": -1, "stimulus": "<p id=\"stim\">10</p>", "key_press": -1, "trial_type": "single-stim", "trial_index": 106, "time_elapsed": 561091, "internal_node_id": "0.0-79.0-0.0"}}, {"uniqueid": "MTK0080:3DIP6YHAPDZLPJ59C9BYAZSRBXR8EW", "current_trial": 107, "dateTime": 1509131879163, "trialdata": {"rt": -1, "stimulus": "<p id=\"stim\">9</p>", "key_press": -1, "trial_type": "single-stim", "trial_index": 107, "time_elapsed": 562096, "internal_node_id": "0.0-79.0-1.0"}}, {"uniqueid": "MTK0080:3DIP6YHAPDZLPJ59C9BYAZSRBXR8EW", "current_trial": 108, "dateTime": 1509131880167, "trialdata": {"rt": -1, "stimulus": "<p id=\"stim\">8</p>", "key_press": -1, "trial_type": "single-stim", "trial_index": 108, "time_elapsed": 563100, "internal_node_id": "0.0-79.0-2.0"}}, {"uniqueid": "MTK0080:3DIP6YHAPDZLPJ59C9BYAZSRBXR8EW", "current_trial": 109, "dateTime": 1509131881172, "trialdata": {"rt": -1, "stimulus": "<p id=\"stim\">7</p>", "key_press": -1, "trial_type": "single-stim", "trial_index": 109, "time_elapsed": 564104, "internal_node_id": "0.0-79.0-3.0"}}, {"uniqueid": "MTK0080:3DIP6YHAPDZLPJ59C9BYAZSRBXR8EW", "current_trial": 110, "dateTime": 1509131882176, "trialdata": {"rt": -1, "stimulus": "<p id=\"stim\">6</p>", "key_press": -1, "trial_type": "single-stim", "trial_index": 110, "time_elapsed": 565108, "internal_node_id": "0.0-79.0-4.0"}}, {"uniqueid": "MTK0080:3DIP6YHAPDZLPJ59C9BYAZSRBXR8EW", "current_trial": 111, "dateTime": 1509131883182, "trialdata": {"rt": -1, "stimulus": "<p id=\"stim\">5</p>", "key_press": -1, "trial_type": "single-stim", "trial_index": 111, "time_elapsed": 566115, "internal_node_id": "0.0-79.0-5.0"}}, {"uniqueid": "MTK0080:3DIP6YHAPDZLPJ59C9BYAZSRBXR8EW", "current_trial": 112, "dateTime": 1509131884184, "trialdata": {"rt": -1, "stimulus": "<p id=\"stim\">4</p>", "key_press": -1, "trial_type": "single-stim", "trial_index": 112, "time_elapsed": 567117, "internal_node_id": "0.0-79.0-6.0"}}, {"uniqueid": "MTK0080:3DIP6YHAPDZLPJ59C9BYAZSRBXR8EW", "current_trial": 113, "dateTime": 1509131885188, "trialdata": {"rt": -1, "stimulus": "<p id=\"stim\">3</p>", "key_press": -1, "trial_type": "single-stim", "trial_index": 113, "time_elapsed": 568121, "internal_node_id": "0.0-79.0-7.0"}}, {"uniqueid": "MTK0080:3DIP6YHAPDZLPJ59C9BYAZSRBXR8EW", "current_trial": 114, "dateTime": 1509131886192, "trialdata": {"rt": -1, "stimulus": "<p id=\"stim\">2</p>", "key_press": -1, "trial_type": "single-stim", "trial_index": 114, "time_elapsed": 569125, "internal_node_id": "0.0-79.0-8.0"}}, {"uniqueid": "MTK0080:3DIP6YHAPDZLPJ59C9BYAZSRBXR8EW", "current_trial": 115, "dateTime": 1509131887196, "trialdata": {"rt": -1, "stimulus": "<p id=\"stim\">1</p>", "key_press": -1, "trial_type": "single-stim", "trial_index": 115, "time_elapsed": 570129, "internal_node_id": "0.0-79.0-9.0"}}, {"uniqueid": "MTK0080:3DIP6YHAPDZLPJ59C9BYAZSRBXR8EW", "current_trial": 116, "dateTime": 1509131888699, "trialdata": {"rt": -1, "stimulus": "<p id=\"stim\">+</p>", "key_press": -1, "type": "FIXATION", "trial_type": "single-stim", "trial_index": 116, "time_elapsed": 571632, "internal_node_id": "0.0-80.0-0.0"}}, {"uniqueid": "MTK0080:3DIP6YHAPDZLPJ59C9BYAZSRBXR8EW", "current_trial": 117, "dateTime": 1509131891250, "trialdata": {"rt": -1000, "stimulus": "/static/audio/wordpool/BACKBONE.wav", "key_press": -1, "type": "PRES_AUD", "word": "backbone", "wordID": 65, "conditions": [12, 1600, "a", 24000], "trial": 3, "serialpos": 0, "trial_type": "single-audio", "trial_index": 117, "time_elapsed": 574183, "internal_node_id": "0.0-81.0"}}, {"uniqueid": "MTK0080:3DIP6YHAPDZLPJ59C9BYAZSRBXR8EW", "current_trial": 118, "dateTime": 1509131893816, "trialdata": {"rt": -1000, "stimulus": "/static/audio/wordpool/SANDWICH.wav", "key_press": -1, "type": "PRES_AUD", "word": "sandwich", "wordID": 1231, "conditions": [12, 1600, "a", 24000], "trial": 3, "serialpos": 1, "trial_type": "single-audio", "trial_index": 118, "time_elapsed": 576749, "internal_node_id": "0.0-82.0"}}, {"uniqueid": "MTK0080:3DIP6YHAPDZLPJ59C9BYAZSRBXR8EW", "current_trial": 119, "dateTime": 1509131896369, "trialdata": {"rt": -1000, "stimulus": "/static/audio/wordpool/SODA.wav", "key_press": -1, "type": "PRES_AUD", "word": "soda", "wordID": 1340, "conditions": [12, 1600, "a", 24000], "trial": 3, "serialpos": 2, "trial_type": "single-audio", "trial_index": 119, "time_elapsed": 579302, "internal_node_id": "0.0-83.0"}}, {"uniqueid": "MTK0080:3DIP6YHAPDZLPJ59C9BYAZSRBXR8EW", "current_trial": 120, "dateTime": 1509131898843, "trialdata": {"rt": -1000, "stimulus": "/static/audio/wordpool/LILY.wav", "key_press": -1, "type": "PRES_AUD", "word": "lily", "wordID": 820, "conditions": [12, 1600, "a", 24000], "trial": 3, "serialpos": 3, "trial_type": "single-audio", "trial_index": 120, "time_elapsed": 581776, "internal_node_id": "0.0-84.0"}}, {"uniqueid": "MTK0080:3DIP6YHAPDZLPJ59C9BYAZSRBXR8EW", "current_trial": 121, "dateTime": 1509131901334, "trialdata": {"rt": -1000, "stimulus": "/static/audio/wordpool/CREVICE.wav", "key_press": -1, "type": "PRES_AUD", "word": "crevice", "wordID": 404, "conditions": [12, 1600, "a", 24000], "trial": 3, "serialpos": 4, "trial_type": "single-audio", "trial_index": 121, "time_elapsed": 584267, "internal_node_id": "0.0-85.0"}}, {"uniqueid": "MTK0080:3DIP6YHAPDZLPJ59C9BYAZSRBXR8EW", "current_trial": 122, "dateTime": 1509131903841, "trialdata": {"rt": -1000, "stimulus": "/static/audio/wordpool/FUNGUS.wav", "key_press": -1, "type": "PRES_AUD", "word": "fungus", "wordID": 613, "conditions": [12, 1600, "a", 24000], "trial": 3, "serialpos": 5, "trial_type": "single-audio", "trial_index": 122, "time_elapsed": 586774, "internal_node_id": "0.0-86.0"}}, {"uniqueid": "MTK0080:3DIP6YHAPDZLPJ59C9BYAZSRBXR8EW", "current_trial": 123, "dateTime": 1509131906622, "trialdata": {"rt": -1000, "stimulus": "/static/audio/wordpool/FRUIT.wav", "key_press": -1, "type": "PRES_AUD", "word": "fruit", "wordID": 609, "conditions": [12, 1600, "a", 24000], "trial": 3, "serialpos": 6, "trial_type": "single-audio", "trial_index": 123, "time_elapsed": 589555, "internal_node_id": "0.0-87.0"}}, {"uniqueid": "MTK0080:3DIP6YHAPDZLPJ59C9BYAZSRBXR8EW", "current_trial": 124, "dateTime": 1509131909032, "trialdata": {"rt": -1000, "stimulus": "/static/audio/wordpool/GRAPE.wav", "key_press": -1, "type": "PRES_AUD", "word": "grape", "wordID": 653, "conditions": [12, 1600, "a", 24000], "trial": 3, "serialpos": 7, "trial_type": "single-audio", "trial_index": 124, "time_elapsed": 591965, "internal_node_id": "0.0-88.0"}}, {"uniqueid": "MTK0080:3DIP6YHAPDZLPJ59C9BYAZSRBXR8EW", "current_trial": 125, "dateTime": 1509131911665, "trialdata": {"rt": -1000, "stimulus": "/static/audio/wordpool/OZONE.wav", "key_press": -1, "type": "PRES_AUD", "word": "ozone", "wordID": 995, "conditions": [12, 1600, "a", 24000], "trial": 3, "serialpos": 8, "trial_type": "single-audio", "trial_index": 125, "time_elapsed": 594598, "internal_node_id": "0.0-89.0"}}, {"uniqueid": "MTK0080:3DIP6YHAPDZLPJ59C9BYAZSRBXR8EW", "current_trial": 126, "dateTime": 1509131914278, "trialdata": {"rt": -1000, "stimulus": "/static/audio/wordpool/BUBBLE.wav", "key_press": -1, "type": "PRES_AUD", "word": "bubble", "wordID": 182, "conditions": [12, 1600, "a", 24000], "trial": 3, "serialpos": 9, "trial_type": "single-audio", "trial_index": 126, "time_elapsed": 597211, "internal_node_id": "0.0-90.0"}}, {"uniqueid": "MTK0080:3DIP6YHAPDZLPJ59C9BYAZSRBXR8EW", "current_trial": 127, "dateTime": 1509131916908, "trialdata": {"rt": -1000, "stimulus": "/static/audio/wordpool/DRINK.wav", "key_press": -1, "type": "PRES_AUD", "word": "drink", "wordID": 497, "conditions": [12, 1600, "a", 24000], "trial": 3, "serialpos": 10, "trial_type": "single-audio", "trial_index": 127, "time_elapsed": 599841, "internal_node_id": "0.0-91.0"}}, {"uniqueid": "MTK0080:3DIP6YHAPDZLPJ59C9BYAZSRBXR8EW", "current_trial": 128, "dateTime": 1509131919631, "trialdata": {"rt": -1000, "stimulus": "/static/audio/wordpool/MUSTARD.wav", "key_press": -1, "type": "PRES_AUD", "word": "mustard", "wordID": 934, "conditions": [12, 1600, "a", 24000], "trial": 3, "serialpos": 11, "trial_type": "single-audio", "trial_index": 128, "time_elapsed": 602564, "internal_node_id": "0.0-92.0"}}, {"uniqueid": "MTK0080:3DIP6YHAPDZLPJ59C9BYAZSRBXR8EW", "current_trial": 129, "dateTime": 1509131920894, "trialdata": {"rt": -1, "stimulus": "", "key_press": -1, "type": "PRE_RECALL_DELAY", "trial_type": "single-stim", "trial_index": 129, "time_elapsed": 603827, "internal_node_id": "0.0-93.0-0.0"}}, {"uniqueid": "MTK0080:3DIP6YHAPDZLPJ59C9BYAZSRBXR8EW", "current_trial": 130, "dateTime": 1509131921395, "trialdata": {"rt": -1000, "stimulus": "/static/audio/400Hz.wav", "key_press": -1, "type": "PRE_RECALL_ALERT", "trial_type": "single-audio", "trial_index": 130, "time_elapsed": 604328, "internal_node_id": "0.0-94.0"}}, {"uniqueid": "MTK0080:3DIP6YHAPDZLPJ59C9BYAZSRBXR8EW", "current_trial": 131, "dateTime": 1509131981398, "trialdata": {"rt": [2031, 3111, 4495, 5766, 7386, 8860, 9940, 14125], "recwords": ["mustard", "drink", "soda", "ozone", "lily", "fruit", "ozone", "backbone"], "type": "FREE_RECALL", "conditions": [12, 1600, "a", 24000], "trial": 3, "trial_type": "free-recall", "trial_index": 131, "time_elapsed": 664330, "internal_node_id": "0.0-95.0-0.0"}}, {"uniqueid": "MTK0080:3DIP6YHAPDZLPJ59C9BYAZSRBXR8EW", "current_trial": 132, "dateTime": 1509131984696, "trialdata": {"rt": 1291, "key_press": 32, "type": "INSTRUCTIONS", "trial_type": "text", "trial_index": 132, "time_elapsed": 667629, "internal_node_id": "0.0-96.0"}}, {"uniqueid": "MTK0080:3DIP6YHAPDZLPJ59C9BYAZSRBXR8EW", "current_trial": 133, "dateTime": 1509132010702, "trialdata": {"rt": [1926, 4097, 6617, 8293, 11252, 13885, 16405, 18362, 21625, 23121], "responses": ["18", "14", "16", "12", "16", "20", "15", "7", "21", "10"], "num1": [1, 1, 4, 2, 6, 9, 3, 4, 6, 1, 5], "num2": [9, 6, 8, 4, 3, 7, 8, 2, 7, 4, 2], "num3": [8, 7, 4, 6, 7, 4, 4, 1, 8, 5, 8], "type": "DISTRACTOR", "conditions": [24, 1600, "v", 24000], "trial": 4, "trial_type": "math-distractor", "trial_index": 133, "time_elapsed": 693634, "internal_node_id": "0.0-97.0"}}, {"uniqueid": "MTK0080:3DIP6YHAPDZLPJ59C9BYAZSRBXR8EW", "current_trial": 134, "dateTime": 1509132013708, "trialdata": {"rt": -1, "stimulus": "<p id=\"stim\">10</p>", "key_press": -1, "trial_type": "single-stim", "trial_index": 134, "time_elapsed": 696641, "internal_node_id": "0.0-98.0-0.0"}}, {"uniqueid": "MTK0080:3DIP6YHAPDZLPJ59C9BYAZSRBXR8EW", "current_trial": 135, "dateTime": 1509132014712, "trialdata": {"rt": -1, "stimulus": "<p id=\"stim\">9</p>", "key_press": -1, "trial_type": "single-stim", "trial_index": 135, "time_elapsed": 697645, "internal_node_id": "0.0-98.0-1.0"}}, {"uniqueid": "MTK0080:3DIP6YHAPDZLPJ59C9BYAZSRBXR8EW", "current_trial": 136, "dateTime": 1509132015715, "trialdata": {"rt": -1, "stimulus": "<p id=\"stim\">8</p>", "key_press": -1, "trial_type": "single-stim", "trial_index": 136, "time_elapsed": 698648, "internal_node_id": "0.0-98.0-2.0"}}, {"uniqueid": "MTK0080:3DIP6YHAPDZLPJ59C9BYAZSRBXR8EW", "current_trial": 137, "dateTime": 1509132016720, "trialdata": {"rt": -1, "stimulus": "<p id=\"stim\">7</p>", "key_press": -1, "trial_type": "single-stim", "trial_index": 137, "time_elapsed": 699652, "internal_node_id": "0.0-98.0-3.0"}}, {"uniqueid": "MTK0080:3DIP6YHAPDZLPJ59C9BYAZSRBXR8EW", "current_trial": 138, "dateTime": 1509132017724, "trialdata": {"rt": -1, "stimulus": "<p id=\"stim\">6</p>", "key_press": -1, "trial_type": "single-stim", "trial_index": 138, "time_elapsed": 700657, "internal_node_id": "0.0-98.0-4.0"}}, {"uniqueid": "MTK0080:3DIP6YHAPDZLPJ59C9BYAZSRBXR8EW", "current_trial": 139, "dateTime": 1509132018728, "trialdata": {"rt": -1, "stimulus": "<p id=\"stim\">5</p>", "key_press": -1, "trial_type": "single-stim", "trial_index": 139, "time_elapsed": 701661, "internal_node_id": "0.0-98.0-5.0"}}, {"uniqueid": "MTK0080:3DIP6YHAPDZLPJ59C9BYAZSRBXR8EW", "current_trial": 140, "dateTime": 1509132019732, "trialdata": {"rt": -1, "stimulus": "<p id=\"stim\">4</p>", "key_press": -1, "trial_type": "single-stim", "trial_index": 140, "time_elapsed": 702665, "internal_node_id": "0.0-98.0-6.0"}}, {"uniqueid": "MTK0080:3DIP6YHAPDZLPJ59C9BYAZSRBXR8EW", "current_trial": 141, "dateTime": 1509132020737, "trialdata": {"rt": -1, "stimulus": "<p id=\"stim\">3</p>", "key_press": -1, "trial_type": "single-stim", "trial_index": 141, "time_elapsed": 703669, "internal_node_id": "0.0-98.0-7.0"}}, {"uniqueid": "MTK0080:3DIP6YHAPDZLPJ59C9BYAZSRBXR8EW", "current_trial": 142, "dateTime": 1509132021741, "trialdata": {"rt": -1, "stimulus": "<p id=\"stim\">2</p>", "key_press": -1, "trial_type": "single-stim", "trial_index": 142, "time_elapsed": 704674, "internal_node_id": "0.0-98.0-8.0"}}, {"uniqueid": "MTK0080:3DIP6YHAPDZLPJ59C9BYAZSRBXR8EW", "current_trial": 143, "dateTime": 1509132022745, "trialdata": {"rt": -1, "stimulus": "<p id=\"stim\">1</p>", "key_press": -1, "trial_type": "single-stim", "trial_index": 143, "time_elapsed": 705678, "internal_node_id": "0.0-98.0-9.0"}}, {"uniqueid": "MTK0080:3DIP6YHAPDZLPJ59C9BYAZSRBXR8EW", "current_trial": 144, "dateTime": 1509132024250, "trialdata": {"rt": -1, "stimulus": "<p id=\"stim\">+</p>", "key_press": -1, "type": "FIXATION", "trial_type": "single-stim", "trial_index": 144, "time_elapsed": 707182, "internal_node_id": "0.0-99.0-0.0"}}, {"uniqueid": "MTK0080:3DIP6YHAPDZLPJ59C9BYAZSRBXR8EW", "current_trial": 145, "dateTime": 1509132025855, "trialdata": {"rt": -1, "stimulus": "<p id=\"stim\">POSSUM</p>", "key_press": -1, "type": "PRES_VIS", "word": "possum", "wordID": 1111, "conditions": [24, 1600, "v", 24000], "trial": 4, "serialpos": 0, "trial_type": "single-stim", "trial_index": 145, "time_elapsed": 708788, "internal_node_id": "0.0-100.0"}}, {"uniqueid": "MTK0080:3DIP6YHAPDZLPJ59C9BYAZSRBXR8EW", "current_trial": 146, "dateTime": 1509132028533, "trialdata": {"rt": -1, "stimulus": "<p id=\"stim\">BUGGY</p>", "key_press": -1, "type": "PRES_VIS", "word": "buggy", "wordID": 187, "conditions": [24, 1600, "v", 24000], "trial": 4, "serialpos": 1, "trial_type": "single-stim", "trial_index": 146, "time_elapsed": 711466, "internal_node_id": "0.0-101.0"}}, {"uniqueid": "MTK0080:3DIP6YHAPDZLPJ59C9BYAZSRBXR8EW", "current_trial": 147, "dateTime": 1509132031302, "trialdata": {"rt": -1, "stimulus": "<p id=\"stim\">STAMP</p>", "key_press": -1, "type": "PRES_VIS", "word": "stamp", "wordID": 1369, "conditions": [24, 1600, "v", 24000], "trial": 4, "serialpos": 2, "trial_type": "single-stim", "trial_index": 147, "time_elapsed": 714235, "internal_node_id": "0.0-102.0"}}, {"uniqueid": "MTK0080:3DIP6YHAPDZLPJ59C9BYAZSRBXR8EW", "current_trial": 148, "dateTime": 1509132033929, "trialdata": {"rt": -1, "stimulus": "<p id=\"stim\">EUROPE</p>", "key_press": -1, "type": "PRES_VIS", "word": "europe", "wordID": 540, "conditions": [24, 1600, "v", 24000], "trial": 4, "serialpos": 3, "trial_type": "single-stim", "trial_index": 148, "time_elapsed": 716862, "internal_node_id": "0.0-103.0"}}, {"uniqueid": "MTK0080:3DIP6YHAPDZLPJ59C9BYAZSRBXR8EW", "current_trial": 149, "dateTime": 1509132036355, "trialdata": {"rt": -1, "stimulus": "<p id=\"stim\">COSTUME</p>", "key_press": -1, "type": "PRES_VIS", "word": "costume", "wordID": 382, "conditions": [24, 1600, "v", 24000], "trial": 4, "serialpos": 4, "trial_type": "single-stim", "trial_index": 149, "time_elapsed": 719288, "internal_node_id": "0.0-104.0"}}, {"uniqueid": "MTK0080:3DIP6YHAPDZLPJ59C9BYAZSRBXR8EW", "current_trial": 150, "dateTime": 1509132038992, "trialdata": {"rt": -1, "stimulus": "<p id=\"stim\">SAUSAGE</p>", "key_press": -1, "type": "PRES_VIS", "word": "sausage", "wordID": 1237, "conditions": [24, 1600, "v", 24000], "trial": 4, "serialpos": 5, "trial_type": "single-stim", "trial_index": 150, "time_elapsed": 721924, "internal_node_id": "0.0-105.0"}}, {"uniqueid": "MTK0080:3DIP6YHAPDZLPJ59C9BYAZSRBXR8EW", "current_trial": 151, "dateTime": 1509132041734, "trialdata": {"rt": -1, "stimulus": "<p id=\"stim\">LUNCH</p>", "key_press": -1, "type": "PRES_VIS", "word": "lunch", "wordID": 848, "conditions": [24, 1600, "v", 24000], "trial": 4, "serialpos": 6, "trial_type": "single-stim", "trial_index": 151, "time_elapsed": 724667, "internal_node_id": "0.0-106.0"}}, {"uniqueid": "MTK0080:3DIP6YHAPDZLPJ59C9BYAZSRBXR8EW", "current_trial": 152, "dateTime": 1509132044158, "trialdata": {"rt": -1, "stimulus": "<p id=\"stim\">WASP</p>", "key_press": -1, "type": "PRES_VIS", "word": "wasp", "wordID": 1592, "conditions": [24, 1600, "v", 24000], "trial": 4, "serialpos": 7, "trial_type": "single-stim", "trial_index": 152, "time_elapsed": 727090, "internal_node_id": "0.0-107.0"}}, {"uniqueid": "MTK0080:3DIP6YHAPDZLPJ59C9BYAZSRBXR8EW", "current_trial": 153, "dateTime": 1509132046674, "trialdata": {"rt": -1, "stimulus": "<p id=\"stim\">COWBOY</p>", "key_press": -1, "type": "PRES_VIS", "word": "cowboy", "wordID": 394, "conditions": [24, 1600, "v", 24000], "trial": 4, "serialpos": 8, "trial_type": "single-stim", "trial_index": 153, "time_elapsed": 729607, "internal_node_id": "0.0-108.0"}}, {"uniqueid": "MTK0080:3DIP6YHAPDZLPJ59C9BYAZSRBXR8EW", "current_trial": 154, "dateTime": 1509132049263, "trialdata": {"rt": -1, "stimulus": "<p id=\"stim\">SUPPER</p>", "key_press": -1, "type": "PRES_VIS", "word": "supper", "wordID": 1410, "conditions": [24, 1600, "v", 24000], "trial": 4, "serialpos": 9, "trial_type": "single-stim", "trial_index": 154, "time_elapsed": 732196, "internal_node_id": "0.0-109.0"}}, {"uniqueid": "MTK0080:3DIP6YHAPDZLPJ59C9BYAZSRBXR8EW", "current_trial": 155, "dateTime": 1509132051910, "trialdata": {"rt": -1, "stimulus": "<p id=\"stim\">POLICE</p>", "key_press": -1, "type": "PRES_VIS", "word": "police", "wordID": 1097, "conditions": [24, 1600, "v", 24000], "trial": 4, "serialpos": 10, "trial_type": "single-stim", "trial_index": 155, "time_elapsed": 734843, "internal_node_id": "0.0-110.0"}}, {"uniqueid": "MTK0080:3DIP6YHAPDZLPJ59C9BYAZSRBXR8EW", "current_trial": 156, "dateTime": 1509132054487, "trialdata": {"rt": -1, "stimulus": "<p id=\"stim\">PATROL</p>", "key_press": -1, "type": "PRES_VIS", "word": "patrol", "wordID": 1026, "conditions": [24, 1600, "v", 24000], "trial": 4, "serialpos": 11, "trial_type": "single-stim", "trial_index": 156, "time_elapsed": 737420, "internal_node_id": "0.0-111.0"}}, {"uniqueid": "MTK0080:3DIP6YHAPDZLPJ59C9BYAZSRBXR8EW", "current_trial": 157, "dateTime": 1509132056965, "trialdata": {"rt": -1, "stimulus": "<p id=\"stim\">BREAST</p>", "key_press": -1, "type": "PRES_VIS", "word": "breast", "wordID": 170, "conditions": [24, 1600, "v", 24000], "trial": 4, "serialpos": 12, "trial_type": "single-stim", "trial_index": 157, "time_elapsed": 739898, "internal_node_id": "0.0-112.0"}}, {"uniqueid": "MTK0080:3DIP6YHAPDZLPJ59C9BYAZSRBXR8EW", "current_trial": 158, "dateTime": 1509132059635, "trialdata": {"rt": -1, "stimulus": "<p id=\"stim\">FRIEND</p>", "key_press": -1, "type": "PRES_VIS", "word": "friend", "wordID": 605, "conditions": [24, 1600, "v", 24000], "trial": 4, "serialpos": 13, "trial_type": "single-stim", "trial_index": 158, "time_elapsed": 742568, "internal_node_id": "0.0-113.0"}}, {"uniqueid": "MTK0080:3DIP6YHAPDZLPJ59C9BYAZSRBXR8EW", "current_trial": 159, "dateTime": 1509132062339, "trialdata": {"rt": -1, "stimulus": "<p id=\"stim\">HUSBAND</p>", "key_press": -1, "type": "PRES_VIS", "word": "husband", "wordID": 727, "conditions": [24, 1600, "v", 24000], "trial": 4, "serialpos": 14, "trial_type": "single-stim", "trial_index": 159, "time_elapsed": 745272, "internal_node_id": "0.0-114.0"}}, {"uniqueid": "MTK0080:3DIP6YHAPDZLPJ59C9BYAZSRBXR8EW", "current_trial": 160, "dateTime": 1509132065033, "trialdata": {"rt": -1, "stimulus": "<p id=\"stim\">SNAIL</p>", "key_press": -1, "type": "PRES_VIS", "word": "snail", "wordID": 1331, "conditions": [24, 1600, "v", 24000], "trial": 4, "serialpos": 15, "trial_type": "single-stim", "trial_index": 160, "time_elapsed": 747965, "internal_node_id": "0.0-115.0"}}, {"uniqueid": "MTK0080:3DIP6YHAPDZLPJ59C9BYAZSRBXR8EW", "current_trial": 161, "dateTime": 1509132067488, "trialdata": {"rt": -1, "stimulus": "<p id=\"stim\">AWARD</p>", "key_press": -1, "type": "PRES_VIS", "word": "award", "wordID": 62, "conditions": [24, 1600, "v", 24000], "trial": 4, "serialpos": 16, "trial_type": "single-stim", "trial_index": 161, "time_elapsed": 750421, "internal_node_id": "0.0-116.0"}}, {"uniqueid": "MTK0080:3DIP6YHAPDZLPJ59C9BYAZSRBXR8EW", "current_trial": 162, "dateTime": 1509132069960, "trialdata": {"rt": -1, "stimulus": "<p id=\"stim\">SHOULDER</p>", "key_press": -1, "type": "PRES_VIS", "word": "shoulder", "wordID": 1293, "conditions": [24, 1600, "v", 24000], "trial": 4, "serialpos": 17, "trial_type": "single-stim", "trial_index": 162, "time_elapsed": 752893, "internal_node_id": "0.0-117.0"}}, {"uniqueid": "MTK0080:3DIP6YHAPDZLPJ59C9BYAZSRBXR8EW", "current_trial": 163, "dateTime": 1509132072502, "trialdata": {"rt": -1, "stimulus": "<p id=\"stim\">MOTEL</p>", "key_press": -1, "type": "PRES_VIS", "word": "motel", "wordID": 918, "conditions": [24, 1600, "v", 24000], "trial": 4, "serialpos": 18, "trial_type": "single-stim", "trial_index": 163, "time_elapsed": 755435, "internal_node_id": "0.0-118.0"}}, {"uniqueid": "MTK0080:3DIP6YHAPDZLPJ59C9BYAZSRBXR8EW", "current_trial": 164, "dateTime": 1509132074909, "trialdata": {"rt": -1, "stimulus": "<p id=\"stim\">PUPPY</p>", "key_press": -1, "type": "PRES_VIS", "word": "puppy", "wordID": 1143, "conditions": [24, 1600, "v", 24000], "trial": 4, "serialpos": 19, "trial_type": "single-stim", "trial_index": 164, "time_elapsed": 757842, "internal_node_id": "0.0-119.0"}}, {"uniqueid": "MTK0080:3DIP6YHAPDZLPJ59C9BYAZSRBXR8EW", "current_trial": 165, "dateTime": 1509132077372, "trialdata": {"rt": -1, "stimulus": "<p id=\"stim\">TORTOISE</p>", "key_press": -1, "type": "PRES_VIS", "word": "tortoise", "wordID": 1485, "conditions": [24, 1600, "v", 24000], "trial": 4, "serialpos": 20, "trial_type": "single-stim", "trial_index": 165, "time_elapsed": 760305, "internal_node_id": "0.0-120.0"}}, {"uniqueid": "MTK0080:3DIP6YHAPDZLPJ59C9BYAZSRBXR8EW", "current_trial": 166, "dateTime": 1509132080164, "trialdata": {"rt": -1, "stimulus": "<p id=\"stim\">KIDNEY</p>", "key_press": -1, "type": "PRES_VIS", "word": "kidney", "wordID": 775, "conditions": [24, 1600, "v", 24000], "trial": 4, "serialpos": 21, "trial_type": "single-stim", "trial_index": 166, "time_elapsed": 763096, "internal_node_id": "0.0-121.0"}}, {"uniqueid": "MTK0080:3DIP6YHAPDZLPJ59C9BYAZSRBXR8EW", "current_trial": 167, "dateTime": 1509132082595, "trialdata": {"rt": -1, "stimulus": "<p id=\"stim\">TURKEY</p>", "key_press": -1, "type": "PRES_VIS", "word": "turkey", "wordID": 1519, "conditions": [24, 1600, "v", 24000], "trial": 4, "serialpos": 22, "trial_type": "single-stim", "trial_index": 167, "time_elapsed": 765528, "internal_node_id": "0.0-122.0"}}, {"uniqueid": "MTK0080:3DIP6YHAPDZLPJ59C9BYAZSRBXR8EW", "current_trial": 168, "dateTime": 1509132085213, "trialdata": {"rt": -1, "stimulus": "<p id=\"stim\">BINDER</p>", "key_press": -1, "type": "PRES_VIS", "word": "binder", "wordID": 126, "conditions": [24, 1600, "v", 24000], "trial": 4, "serialpos": 23, "trial_type": "single-stim", "trial_index": 168, "time_elapsed": 768146, "internal_node_id": "0.0-123.0"}}, {"uniqueid": "MTK0080:3DIP6YHAPDZLPJ59C9BYAZSRBXR8EW", "current_trial": 169, "dateTime": 1509132087468, "trialdata": {"rt": -1, "stimulus": "", "key_press": -1, "type": "PRE_RECALL_DELAY", "trial_type": "single-stim", "trial_index": 169, "time_elapsed": 770401, "internal_node_id": "0.0-124.0-0.0"}}, {"uniqueid": "MTK0080:3DIP6YHAPDZLPJ59C9BYAZSRBXR8EW", "current_trial": 170, "dateTime": 1509132087969, "trialdata": {"rt": -1000, "stimulus": "/static/audio/400Hz.wav", "key_press": -1, "type": "PRE_RECALL_ALERT", "trial_type": "single-audio", "trial_index": 170, "time_elapsed": 770901, "internal_node_id": "0.0-125.0"}}, {"uniqueid": "MTK0080:3DIP6YHAPDZLPJ59C9BYAZSRBXR8EW", "current_trial": 171, "dateTime": 1509132147971, "trialdata": {"rt": [1578, 3637, 4885, 6573, 7687, 8384, 10241, 11343, 17913, 23774], "recwords": ["binder", "tortoise", "possum", "police", "patrol", "best", "husband", "friend", "buggy", "kidney"], "type": "FREE_RECALL", "conditions": [24, 1600, "v", 24000], "trial": 4, "trial_type": "free-recall", "trial_index": 171, "time_elapsed": 830903, "internal_node_id": "0.0-126.0-0.0"}}, {"uniqueid": "MTK0080:3DIP6YHAPDZLPJ59C9BYAZSRBXR8EW", "current_trial": 172, "dateTime": 1509132151547, "trialdata": {"rt": 1573, "key_press": 32, "type": "INSTRUCTIONS", "trial_type": "text", "trial_index": 172, "time_elapsed": 834480, "internal_node_id": "0.0-127.0"}}, {"uniqueid": "MTK0080:3DIP6YHAPDZLPJ59C9BYAZSRBXR8EW", "current_trial": 173, "dateTime": 1509132165557, "trialdata": {"rt": [3767, 5499, 8559, 11766], "responses": ["19", "10", "11", "20"], "num1": [7, 7, 3, 6, 3], "num2": [5, 2, 5, 7, 3], "num3": [6, 1, 3, 7, 7], "type": "DISTRACTOR", "conditions": [12, 1600, "a", 12000], "trial": 5, "trial_type": "math-distractor", "trial_index": 173, "time_elapsed": 848490, "internal_node_id": "0.0-128.0"}}, {"uniqueid": "MTK0080:3DIP6YHAPDZLPJ59C9BYAZSRBXR8EW", "current_trial": 174, "dateTime": 1509132168563, "trialdata": {"rt": -1, "stimulus": "<p id=\"stim\">10</p>", "key_press": -1, "trial_type": "single-stim", "trial_index": 174, "time_elapsed": 851496, "internal_node_id": "0.0-129.0-0.0"}}, {"uniqueid": "MTK0080:3DIP6YHAPDZLPJ59C9BYAZSRBXR8EW", "current_trial": 175, "dateTime": 1509132169567, "trialdata": {"rt": -1, "stimulus": "<p id=\"stim\">9</p>", "key_press": -1, "trial_type": "single-stim", "trial_index": 175, "time_elapsed": 852500, "internal_node_id": "0.0-129.0-1.0"}}, {"uniqueid": "MTK0080:3DIP6YHAPDZLPJ59C9BYAZSRBXR8EW", "current_trial": 176, "dateTime": 1509132170571, "trialdata": {"rt": -1, "stimulus": "<p id=\"stim\">8</p>", "key_press": -1, "trial_type": "single-stim", "trial_index": 176, "time_elapsed": 853504, "internal_node_id": "0.0-129.0-2.0"}}, {"uniqueid": "MTK0080:3DIP6YHAPDZLPJ59C9BYAZSRBXR8EW", "current_trial": 177, "dateTime": 1509132171575, "trialdata": {"rt": -1, "stimulus": "<p id=\"stim\">7</p>", "key_press": -1, "trial_type": "single-stim", "trial_index": 177, "time_elapsed": 854508, "internal_node_id": "0.0-129.0-3.0"}}, {"uniqueid": "MTK0080:3DIP6YHAPDZLPJ59C9BYAZSRBXR8EW", "current_trial": 178, "dateTime": 1509132172579, "trialdata": {"rt": -1, "stimulus": "<p id=\"stim\">6</p>", "key_press": -1, "trial_type": "single-stim", "trial_index": 178, "time_elapsed": 855512, "internal_node_id": "0.0-129.0-4.0"}}, {"uniqueid": "MTK0080:3DIP6YHAPDZLPJ59C9BYAZSRBXR8EW", "current_trial": 179, "dateTime": 1509132173583, "trialdata": {"rt": -1, "stimulus": "<p id=\"stim\">5</p>", "key_press": -1, "trial_type": "single-stim", "trial_index": 179, "time_elapsed": 856516, "internal_node_id": "0.0-129.0-5.0"}}, {"uniqueid": "MTK0080:3DIP6YHAPDZLPJ59C9BYAZSRBXR8EW", "current_trial": 180, "dateTime": 1509132174588, "trialdata": {"rt": -1, "stimulus": "<p id=\"stim\">4</p>", "key_press": -1, "trial_type": "single-stim", "trial_index": 180, "time_elapsed": 857521, "internal_node_id": "0.0-129.0-6.0"}}, {"uniqueid": "MTK0080:3DIP6YHAPDZLPJ59C9BYAZSRBXR8EW", "current_trial": 181, "dateTime": 1509132175592, "trialdata": {"rt": -1, "stimulus": "<p id=\"stim\">3</p>", "key_press": -1, "trial_type": "single-stim", "trial_index": 181, "time_elapsed": 858525, "internal_node_id": "0.0-129.0-7.0"}}, {"uniqueid": "MTK0080:3DIP6YHAPDZLPJ59C9BYAZSRBXR8EW", "current_trial": 182, "dateTime": 1509132176596, "trialdata": {"rt": -1, "stimulus": "<p id=\"stim\">2</p>", "key_press": -1, "trial_type": "single-stim", "trial_index": 182, "time_elapsed": 859529, "internal_node_id": "0.0-129.0-8.0"}}, {"uniqueid": "MTK0080:3DIP6YHAPDZLPJ59C9BYAZSRBXR8EW", "current_trial": 183, "dateTime": 1509132177600, "trialdata": {"rt": -1, "stimulus": "<p id=\"stim\">1</p>", "key_press": -1, "trial_type": "single-stim", "trial_index": 183, "time_elapsed": 860533, "internal_node_id": "0.0-129.0-9.0"}}, {"uniqueid": "MTK0080:3DIP6YHAPDZLPJ59C9BYAZSRBXR8EW", "current_trial": 184, "dateTime": 1509132179103, "trialdata": {"rt": -1, "stimulus": "<p id=\"stim\">+</p>", "key_press": -1, "type": "FIXATION", "trial_type": "single-stim", "trial_index": 184, "time_elapsed": 862036, "internal_node_id": "0.0-130.0-0.0"}}, {"uniqueid": "MTK0080:3DIP6YHAPDZLPJ59C9BYAZSRBXR8EW", "current_trial": 185, "dateTime": 1509132181542, "trialdata": {"rt": -1000, "stimulus": "/static/audio/wordpool/BACON.wav", "key_press": -1, "type": "PRES_AUD", "word": "bacon", "wordID": 66, "conditions": [12, 1600, "a", 12000], "trial": 5, "serialpos": 0, "trial_type": "single-audio", "trial_index": 185, "time_elapsed": 864475, "internal_node_id": "0.0-131.0"}}, {"uniqueid": "MTK0080:3DIP6YHAPDZLPJ59C9BYAZSRBXR8EW", "current_trial": 186, "dateTime": 1509132184085, "trialdata": {"rt": -1000, "stimulus": "/static/audio/wordpool/LOFT.wav", "key_press": -1, "type": "PRES_AUD", "word": "loft", "wordID": 839, "conditions": [12, 1600, "a", 12000], "trial": 5, "serialpos": 1, "trial_type": "single-audio", "trial_index": 186, "time_elapsed": 867018, "internal_node_id": "0.0-132.0"}}, {"uniqueid": "MTK0080:3DIP6YHAPDZLPJ59C9BYAZSRBXR8EW", "current_trial": 187, "dateTime": 1509132186767, "trialdata": {"rt": -1000, "stimulus": "/static/audio/wordpool/JAPAN.wav", "key_press": -1, "type": "PRES_AUD", "word": "japan", "wordID": 748, "conditions": [12, 1600, "a", 12000], "trial": 5, "serialpos": 2, "trial_type": "single-audio", "trial_index": 187, "time_elapsed": 869700, "internal_node_id": "0.0-133.0"}}, {"uniqueid": "MTK0080:3DIP6YHAPDZLPJ59C9BYAZSRBXR8EW", "current_trial": 188, "dateTime": 1509132189257, "trialdata": {"rt": -1000, "stimulus": "/static/audio/wordpool/DRESSER.wav", "key_press": -1, "type": "PRES_AUD", "word": "dresser", "wordID": 495, "conditions": [12, 1600, "a", 12000], "trial": 5, "serialpos": 3, "trial_type": "single-audio", "trial_index": 188, "time_elapsed": 872190, "internal_node_id": "0.0-134.0"}}, {"uniqueid": "MTK0080:3DIP6YHAPDZLPJ59C9BYAZSRBXR8EW", "current_trial": 189, "dateTime": 1509132191829, "trialdata": {"rt": -1000, "stimulus": "/static/audio/wordpool/PLAZA.wav", "key_press": -1, "type": "PRES_AUD", "word": "plaza", "wordID": 1087, "conditions": [12, 1600, "a", 12000], "trial": 5, "serialpos": 4, "trial_type": "single-audio", "trial_index": 189, "time_elapsed": 874762, "internal_node_id": "0.0-135.0"}}, {"uniqueid": "MTK0080:3DIP6YHAPDZLPJ59C9BYAZSRBXR8EW", "current_trial": 190, "dateTime": 1509132194569, "trialdata": {"rt": -1000, "stimulus": "/static/audio/wordpool/AIRPORT.wav", "key_press": -1, "type": "PRES_AUD", "word": "airport", "wordID": 12, "conditions": [12, 1600, "a", 12000], "trial": 5, "serialpos": 5, "trial_type": "single-audio", "trial_index": 190, "time_elapsed": 877502, "internal_node_id": "0.0-136.0"}}, {"uniqueid": "MTK0080:3DIP6YHAPDZLPJ59C9BYAZSRBXR8EW", "current_trial": 191, "dateTime": 1509132197320, "trialdata": {"rt": -1000, "stimulus": "/static/audio/wordpool/CUPBOARD.wav", "key_press": -1, "type": "PRES_AUD", "word": "cupboard", "wordID": 424, "conditions": [12, 1600, "a", 12000], "trial": 5, "serialpos": 6, "trial_type": "single-audio", "trial_index": 191, "time_elapsed": 880252, "internal_node_id": "0.0-137.0"}}, {"uniqueid": "MTK0080:3DIP6YHAPDZLPJ59C9BYAZSRBXR8EW", "current_trial": 192, "dateTime": 1509132200102, "trialdata": {"rt": -1000, "stimulus": "/static/audio/wordpool/FLIPPER.wav", "key_press": -1, "type": "PRES_AUD", "word": "flipper", "wordID": 579, "conditions": [12, 1600, "a", 12000], "trial": 5, "serialpos": 7, "trial_type": "single-audio", "trial_index": 192, "time_elapsed": 883035, "internal_node_id": "0.0-138.0"}}, {"uniqueid": "MTK0080:3DIP6YHAPDZLPJ59C9BYAZSRBXR8EW", "current_trial": 193, "dateTime": 1509132202537, "trialdata": {"rt": -1000, "stimulus": "/static/audio/wordpool/WORLD.wav", "key_press": -1, "type": "PRES_AUD", "word": "world", "wordID": 1621, "conditions": [12, 1600, "a", 12000], "trial": 5, "serialpos": 8, "trial_type": "single-audio", "trial_index": 193, "time_elapsed": 885470, "internal_node_id": "0.0-139.0"}}, {"uniqueid": "MTK0080:3DIP6YHAPDZLPJ59C9BYAZSRBXR8EW", "current_trial": 194, "dateTime": 1509132205156, "trialdata": {"rt": -1000, "stimulus": "/static/audio/wordpool/COUNTRY.wav", "key_press": -1, "type": "PRES_AUD", "word": "country", "wordID": 387, "conditions": [12, 1600, "a", 12000], "trial": 5, "serialpos": 9, "trial_type": "single-audio", "trial_index": 194, "time_elapsed": 888089, "internal_node_id": "0.0-140.0"}}, {"uniqueid": "MTK0080:3DIP6YHAPDZLPJ59C9BYAZSRBXR8EW", "current_trial": 195, "dateTime": 1509132207773, "trialdata": {"rt": -1000, "stimulus": "/static/audio/wordpool/BUG.wav", "key_press": -1, "type": "PRES_AUD", "word": "bug", "wordID": 186, "conditions": [12, 1600, "a", 12000], "trial": 5, "serialpos": 10, "trial_type": "single-audio", "trial_index": 195, "time_elapsed": 890706, "internal_node_id": "0.0-141.0"}}, {"uniqueid": "MTK0080:3DIP6YHAPDZLPJ59C9BYAZSRBXR8EW", "current_trial": 196, "dateTime": 1509132210207, "trialdata": {"rt": -1000, "stimulus": "/static/audio/wordpool/TOASTER.wav", "key_press": -1, "type": "PRES_AUD", "word": "toaster", "wordID": 1471, "conditions": [12, 1600, "a", 12000], "trial": 5, "serialpos": 11, "trial_type": "single-audio", "trial_index": 196, "time_elapsed": 893140, "internal_node_id": "0.0-142.0"}}, {"uniqueid": "MTK0080:3DIP6YHAPDZLPJ59C9BYAZSRBXR8EW", "current_trial": 197, "dateTime": 1509132211573, "trialdata": {"rt": -1, "stimulus": "", "key_press": -1, "type": "PRE_RECALL_DELAY", "trial_type": "single-stim", "trial_index": 197, "time_elapsed": 894506, "internal_node_id": "0.0-143.0-0.0"}}, {"uniqueid": "MTK0080:3DIP6YHAPDZLPJ59C9BYAZSRBXR8EW", "current_trial": 198, "dateTime": 1509132212074, "trialdata": {"rt": -1000, "stimulus": "/static/audio/400Hz.wav", "key_press": -1, "type": "PRE_RECALL_ALERT", "trial_type": "single-audio", "trial_index": 198, "time_elapsed": 895007, "internal_node_id": "0.0-144.0"}}, {"uniqueid": "MTK0080:3DIP6YHAPDZLPJ59C9BYAZSRBXR8EW", "current_trial": 199, "dateTime": 1509132272079, "trialdata": {"rt": [3204, 4632, 6016, 7479, 8548, 9943, 30913, 32274], "recwords": ["toaster", "bug", "flipper", "airport", "world", "japan", "toaster", "cupboard"], "type": "FREE_RECALL", "conditions": [12, 1600, "a", 12000], "trial": 5, "trial_type": "free-recall", "trial_index": 199, "time_elapsed": 955011, "internal_node_id": "0.0-145.0-0.0"}}, {"uniqueid": "MTK0080:3DIP6YHAPDZLPJ59C9BYAZSRBXR8EW", "current_trial": 200, "dateTime": 1509132274680, "trialdata": {"rt": 599, "key_press": 32, "type": "INSTRUCTIONS", "trial_type": "text", "trial_index": 200, "time_elapsed": 957613, "internal_node_id": "0.0-146.0"}}, {"uniqueid": "MTK0080:3DIP6YHAPDZLPJ59C9BYAZSRBXR8EW", "current_trial": 201, "dateTime": 1509132300684, "trialdata": {"rt": [1846, 5750, 7606, 10284, 13299, 15459, 19408, 22029], "responses": ["7", "23", "11", "15", "20", "11", "21", "13"], "num1": [5, 9, 5, 5, 6, 2, 8, 5, 4], "num2": [1, 4, 1, 1, 5, 6, 7, 1, 3], "num3": [1, 9, 5, 9, 9, 3, 6, 7, 1], "type": "DISTRACTOR", "conditions": [12, 1600, "v", 24000], "trial": 6, "trial_type": "math-distractor", "trial_index": 201, "time_elapsed": 983617, "internal_node_id": "0.0-147.0"}}, {"uniqueid": "MTK0080:3DIP6YHAPDZLPJ59C9BYAZSRBXR8EW", "current_trial": 202, "dateTime": 1509132303693, "trialdata": {"rt": -1, "stimulus": "<p id=\"stim\">10</p>", "key_press": -1, "trial_type": "single-stim", "trial_index": 202, "time_elapsed": 986626, "internal_node_id": "0.0-148.0-0.0"}}, {"uniqueid": "MTK0080:3DIP6YHAPDZLPJ59C9BYAZSRBXR8EW", "current_trial": 203, "dateTime": 1509132304697, "trialdata": {"rt": -1, "stimulus": "<p id=\"stim\">9</p>", "key_press": -1, "trial_type": "single-stim", "trial_index": 203, "time_elapsed": 987630, "internal_node_id": "0.0-148.0-1.0"}}, {"uniqueid": "MTK0080:3DIP6YHAPDZLPJ59C9BYAZSRBXR8EW", "current_trial": 204, "dateTime": 1509132305701, "trialdata": {"rt": -1, "stimulus": "<p id=\"stim\">8</p>", "key_press": -1, "trial_type": "single-stim", "trial_index": 204, "time_elapsed": 988634, "internal_node_id": "0.0-148.0-2.0"}}, {"uniqueid": "MTK0080:3DIP6YHAPDZLPJ59C9BYAZSRBXR8EW", "current_trial": 205, "dateTime": 1509132306705, "trialdata": {"rt": -1, "stimulus": "<p id=\"stim\">7</p>", "key_press": -1, "trial_type": "single-stim", "trial_index": 205, "time_elapsed": 989638, "internal_node_id": "0.0-148.0-3.0"}}, {"uniqueid": "MTK0080:3DIP6YHAPDZLPJ59C9BYAZSRBXR8EW", "current_trial": 206, "dateTime": 1509132307709, "trialdata": {"rt": -1, "stimulus": "<p id=\"stim\">6</p>", "key_press": -1, "trial_type": "single-stim", "trial_index": 206, "time_elapsed": 990642, "internal_node_id": "0.0-148.0-4.0"}}, {"uniqueid": "MTK0080:3DIP6YHAPDZLPJ59C9BYAZSRBXR8EW", "current_trial": 207, "dateTime": 1509132308713, "trialdata": {"rt": -1, "stimulus": "<p id=\"stim\">5</p>", "key_press": -1, "trial_type": "single-stim", "trial_index": 207, "time_elapsed": 991646, "internal_node_id": "0.0-148.0-5.0"}}, {"uniqueid": "MTK0080:3DIP6YHAPDZLPJ59C9BYAZSRBXR8EW", "current_trial": 208, "dateTime": 1509132309717, "trialdata": {"rt": -1, "stimulus": "<p id=\"stim\">4</p>", "key_press": -1, "trial_type": "single-stim", "trial_index": 208, "time_elapsed": 992650, "internal_node_id": "0.0-148.0-6.0"}}, {"uniqueid": "MTK0080:3DIP6YHAPDZLPJ59C9BYAZSRBXR8EW", "current_trial": 209, "dateTime": 1509132310721, "trialdata": {"rt": -1, "stimulus": "<p id=\"stim\">3</p>", "key_press": -1, "trial_type": "single-stim", "trial_index": 209, "time_elapsed": 993654, "internal_node_id": "0.0-148.0-7.0"}}, {"uniqueid": "MTK0080:3DIP6YHAPDZLPJ59C9BYAZSRBXR8EW", "current_trial": 210, "dateTime": 1509132311725, "trialdata": {"rt": -1, "stimulus": "<p id=\"stim\">2</p>", "key_press": -1, "trial_type": "single-stim", "trial_index": 210, "time_elapsed": 994658, "internal_node_id": "0.0-148.0-8.0"}}, {"uniqueid": "MTK0080:3DIP6YHAPDZLPJ59C9BYAZSRBXR8EW", "current_trial": 211, "dateTime": 1509132312729, "trialdata": {"rt": -1, "stimulus": "<p id=\"stim\">1</p>", "key_press": -1, "trial_type": "single-stim", "trial_index": 211, "time_elapsed": 995662, "internal_node_id": "0.0-148.0-9.0"}}, {"uniqueid": "MTK0080:3DIP6YHAPDZLPJ59C9BYAZSRBXR8EW", "current_trial": 212, "dateTime": 1509132314233, "trialdata": {"rt": -1, "stimulus": "<p id=\"stim\">+</p>", "key_press": -1, "type": "FIXATION", "trial_type": "single-stim", "trial_index": 212, "time_elapsed": 997166, "internal_node_id": "0.0-149.0-0.0"}}, {"uniqueid": "MTK0080:3DIP6YHAPDZLPJ59C9BYAZSRBXR8EW", "current_trial": 213, "dateTime": 1509132315840, "trialdata": {"rt": -1, "stimulus": "<p id=\"stim\">OYSTER</p>", "key_press": -1, "type": "PRES_VIS", "word": "oyster", "wordID": 994, "conditions": [12, 1600, "v", 24000], "trial": 6, "serialpos": 0, "trial_type": "single-stim", "trial_index": 213, "time_elapsed": 998773, "internal_node_id": "0.0-150.0"}}, {"uniqueid": "MTK0080:3DIP6YHAPDZLPJ59C9BYAZSRBXR8EW", "current_trial": 214, "dateTime": 1509132318588, "trialdata": {"rt": -1, "stimulus": "<p id=\"stim\">GUITAR</p>", "key_press": -1, "type": "PRES_VIS", "word": "guitar", "wordID": 669, "conditions": [12, 1600, "v", 24000], "trial": 6, "serialpos": 1, "trial_type": "single-stim", "trial_index": 214, "time_elapsed": 1001521, "internal_node_id": "0.0-151.0"}}, {"uniqueid": "MTK0080:3DIP6YHAPDZLPJ59C9BYAZSRBXR8EW", "current_trial": 215, "dateTime": 1509132321161, "trialdata": {"rt": -1, "stimulus": "<p id=\"stim\">MATTRESS</p>", "key_press": -1, "type": "PRES_VIS", "word": "mattress", "wordID": 878, "conditions": [12, 1600, "v", 24000], "trial": 6, "serialpos": 2, "trial_type": "single-stim", "trial_index": 215, "time_elapsed": 1004094, "internal_node_id": "0.0-152.0"}}, {"uniqueid": "MTK0080:3DIP6YHAPDZLPJ59C9BYAZSRBXR8EW", "current_trial": 216, "dateTime": 1509132323844, "trialdata": {"rt": -1, "stimulus": "<p id=\"stim\">LOVER</p>", "key_press": -1, "type": "PRES_VIS", "word": "lover", "wordID": 845, "conditions": [12, 1600, "v", 24000], "trial": 6, "serialpos": 3, "trial_type": "single-stim", "trial_index": 216, "time_elapsed": 1006777, "internal_node_id": "0.0-153.0"}}, {"uniqueid": "MTK0080:3DIP6YHAPDZLPJ59C9BYAZSRBXR8EW", "current_trial": 217, "dateTime": 1509132326548, "trialdata": {"rt": -1, "stimulus": "<p id=\"stim\">BOYFRIEND</p>", "key_press": -1, "type": "PRES_VIS", "word": "boyfriend", "wordID": 161, "conditions": [12, 1600, "v", 24000], "trial": 6, "serialpos": 4, "trial_type": "single-stim", "trial_index": 217, "time_elapsed": 1009481, "internal_node_id": "0.0-154.0"}}, {"uniqueid": "MTK0080:3DIP6YHAPDZLPJ59C9BYAZSRBXR8EW", "current_trial": 218, "dateTime": 1509132329195, "trialdata": {"rt": -1, "stimulus": "<p id=\"stim\">DUST</p>", "key_press": -1, "type": "PRES_VIS", "word": "dust", "wordID": 507, "conditions": [12, 1600, "v", 24000], "trial": 6, "serialpos": 5, "trial_type": "single-stim", "trial_index": 218, "time_elapsed": 1012128, "internal_node_id": "0.0-155.0"}}, {"uniqueid": "MTK0080:3DIP6YHAPDZLPJ59C9BYAZSRBXR8EW", "current_trial": 219, "dateTime": 1509132331830, "trialdata": {"rt": -1, "stimulus": "<p id=\"stim\">THREAD</p>", "key_press": -1, "type": "PRES_VIS", "word": "thread", "wordID": 1459, "conditions": [12, 1600, "v", 24000], "trial": 6, "serialpos": 6, "trial_type": "single-stim", "trial_index": 219, "time_elapsed": 1014763, "internal_node_id": "0.0-156.0"}}, {"uniqueid": "MTK0080:3DIP6YHAPDZLPJ59C9BYAZSRBXR8EW", "current_trial": 220, "dateTime": 1509132334512, "trialdata": {"rt": -1, "stimulus": "<p id=\"stim\">CELLAR</p>", "key_press": -1, "type": "PRES_VIS", "word": "cellar", "wordID": 266, "conditions": [12, 1600, "v", 24000], "trial": 6, "serialpos": 7, "trial_type": "single-stim", "trial_index": 220, "time_elapsed": 1017445, "internal_node_id": "0.0-157.0"}}, {"uniqueid": "MTK0080:3DIP6YHAPDZLPJ59C9BYAZSRBXR8EW", "current_trial": 221, "dateTime": 1509132337048, "trialdata": {"rt": -1, "stimulus": "<p id=\"stim\">MAPLE</p>", "key_press": -1, "type": "PRES_VIS", "word": "maple", "wordID": 865, "conditions": [12, 1600, "v", 24000], "trial": 6, "serialpos": 8, "trial_type": "single-stim", "trial_index": 221, "time_elapsed": 1019981, "internal_node_id": "0.0-158.0"}}, {"uniqueid": "MTK0080:3DIP6YHAPDZLPJ59C9BYAZSRBXR8EW", "current_trial": 222, "dateTime": 1509132339834, "trialdata": {"rt": -1, "stimulus": "<p id=\"stim\">DRESS</p>", "key_press": -1, "type": "PRES_VIS", "word": "dress", "wordID": 494, "conditions": [12, 1600, "v", 24000], "trial": 6, "serialpos": 9, "trial_type": "single-stim", "trial_index": 222, "time_elapsed": 1022767, "internal_node_id": "0.0-159.0"}}, {"uniqueid": "MTK0080:3DIP6YHAPDZLPJ59C9BYAZSRBXR8EW", "current_trial": 223, "dateTime": 1509132342556, "trialdata": {"rt": -1, "stimulus": "<p id=\"stim\">LONDON</p>", "key_press": -1, "type": "PRES_VIS", "word": "london", "wordID": 842, "conditions": [12, 1600, "v", 24000], "trial": 6, "serialpos": 10, "trial_type": "single-stim", "trial_index": 223, "time_elapsed": 1025489, "internal_node_id": "0.0-160.0"}}, {"uniqueid": "MTK0080:3DIP6YHAPDZLPJ59C9BYAZSRBXR8EW", "current_trial": 224, "dateTime": 1509132345247, "trialdata": {"rt": -1, "stimulus": "<p id=\"stim\">PIANO</p>", "key_press": -1, "type": "PRES_VIS", "word": "piano", "wordID": 1056, "conditions": [12, 1600, "v", 24000], "trial": 6, "serialpos": 11, "trial_type": "single-stim", "trial_index": 224, "time_elapsed": 1028180, "internal_node_id": "0.0-161.0"}}, {"uniqueid": "MTK0080:3DIP6YHAPDZLPJ59C9BYAZSRBXR8EW", "current_trial": 225, "dateTime": 1509132347710, "trialdata": {"rt": -1, "stimulus": "", "key_press": -1, "type": "PRE_RECALL_DELAY", "trial_type": "single-stim", "trial_index": 225, "time_elapsed": 1030643, "internal_node_id": "0.0-162.0-0.0"}}, {"uniqueid": "MTK0080:3DIP6YHAPDZLPJ59C9BYAZSRBXR8EW", "current_trial": 226, "dateTime": 1509132348212, "trialdata": {"rt": -1000, "stimulus": "/static/audio/400Hz.wav", "key_press": -1, "type": "PRE_RECALL_ALERT", "trial_type": "single-audio", "trial_index": 226, "time_elapsed": 1031145, "internal_node_id": "0.0-163.0"}}, {"uniqueid": "MTK0080:3DIP6YHAPDZLPJ59C9BYAZSRBXR8EW", "current_trial": 227, "dateTime": 1509132408215, "trialdata": {"rt": [2316, 4094, 5376, 6928], "recwords": ["piano", "london", "dress", "oyster"], "type": "FREE_RECALL", "conditions": [12, 1600, "v", 24000], "trial": 6, "trial_type": "free-recall", "trial_index": 227, "time_elapsed": 1091147, "internal_node_id": "0.0-164.0-0.0"}}, {"uniqueid": "MTK0080:3DIP6YHAPDZLPJ59C9BYAZSRBXR8EW", "current_trial": 228, "dateTime": 1509132581021, "trialdata": {"rt": 170803, "key_press": 32, "type": "INSTRUCTIONS", "trial_type": "text", "trial_index": 228, "time_elapsed": 1263954, "internal_node_id": "0.0-165.0"}}, {"uniqueid": "MTK0080:3DIP6YHAPDZLPJ59C9BYAZSRBXR8EW", "current_trial": 229, "dateTime": 1509132595026, "trialdata": {"rt": [3151, 5255, 7662, 10114], "responses": ["15", "13", "10", "16"], "num1": [1, 4, 1, 3, 5], "num2": [5, 1, 1, 5, 7], "num3": [9, 8, 8, 8, 1], "type": "DISTRACTOR", "conditions": [24, 1600, "v", 12000], "trial": 7, "trial_type": "math-distractor", "trial_index": 229, "time_elapsed": 1277959, "internal_node_id": "0.0-166.0"}}, {"uniqueid": "MTK0080:3DIP6YHAPDZLPJ59C9BYAZSRBXR8EW", "current_trial": 230, "dateTime": 1509132598033, "trialdata": {"rt": -1, "stimulus": "<p id=\"stim\">10</p>", "key_press": -1, "trial_type": "single-stim", "trial_index": 230, "time_elapsed": 1280966, "internal_node_id": "0.0-167.0-0.0"}}, {"uniqueid": "MTK0080:3DIP6YHAPDZLPJ59C9BYAZSRBXR8EW", "current_trial": 231, "dateTime": 1509132599037, "trialdata": {"rt": -1, "stimulus": "<p id=\"stim\">9</p>", "key_press": -1, "trial_type": "single-stim", "trial_index": 231, "time_elapsed": 1281970, "internal_node_id": "0.0-167.0-1.0"}}, {"uniqueid": "MTK0080:3DIP6YHAPDZLPJ59C9BYAZSRBXR8EW", "current_trial": 232, "dateTime": 1509132600041, "trialdata": {"rt": -1, "stimulus": "<p id=\"stim\">8</p>", "key_press": -1, "trial_type": "single-stim", "trial_index": 232, "time_elapsed": 1282974, "internal_node_id": "0.0-167.0-2.0"}}, {"uniqueid": "MTK0080:3DIP6YHAPDZLPJ59C9BYAZSRBXR8EW", "current_trial": 233, "dateTime": 1509132601045, "trialdata": {"rt": -1, "stimulus": "<p id=\"stim\">7</p>", "key_press": -1, "trial_type": "single-stim", "trial_index": 233, "time_elapsed": 1283978, "internal_node_id": "0.0-167.0-3.0"}}, {"uniqueid": "MTK0080:3DIP6YHAPDZLPJ59C9BYAZSRBXR8EW", "current_trial": 234, "dateTime": 1509132602049, "trialdata": {"rt": -1, "stimulus": "<p id=\"stim\">6</p>", "key_press": -1, "trial_type": "single-stim", "trial_index": 234, "time_elapsed": 1284982, "internal_node_id": "0.0-167.0-4.0"}}, {"uniqueid": "MTK0080:3DIP6YHAPDZLPJ59C9BYAZSRBXR8EW", "current_trial": 235, "dateTime": 1509132603053, "trialdata": {"rt": -1, "stimulus": "<p id=\"stim\">5</p>", "key_press": -1, "trial_type": "single-stim", "trial_index": 235, "time_elapsed": 1285986, "internal_node_id": "0.0-167.0-5.0"}}, {"uniqueid": "MTK0080:3DIP6YHAPDZLPJ59C9BYAZSRBXR8EW", "current_trial": 236, "dateTime": 1509132604057, "trialdata": {"rt": -1, "stimulus": "<p id=\"stim\">4</p>", "key_press": -1, "trial_type": "single-stim", "trial_index": 236, "time_elapsed": 1286990, "internal_node_id": "0.0-167.0-6.0"}}, {"uniqueid": "MTK0080:3DIP6YHAPDZLPJ59C9BYAZSRBXR8EW", "current_trial": 237, "dateTime": 1509132605061, "trialdata": {"rt": -1, "stimulus": "<p id=\"stim\">3</p>", "key_press": -1, "trial_type": "single-stim", "trial_index": 237, "time_elapsed": 1287994, "internal_node_id": "0.0-167.0-7.0"}}, {"uniqueid": "MTK0080:3DIP6YHAPDZLPJ59C9BYAZSRBXR8EW", "current_trial": 238, "dateTime": 1509132606065, "trialdata": {"rt": -1, "stimulus": "<p id=\"stim\">2</p>", "key_press": -1, "trial_type": "single-stim", "trial_index": 238, "time_elapsed": 1288998, "internal_node_id": "0.0-167.0-8.0"}}, {"uniqueid": "MTK0080:3DIP6YHAPDZLPJ59C9BYAZSRBXR8EW", "current_trial": 239, "dateTime": 1509132607070, "trialdata": {"rt": -1, "stimulus": "<p id=\"stim\">1</p>", "key_press": -1, "trial_type": "single-stim", "trial_index": 239, "time_elapsed": 1290002, "internal_node_id": "0.0-167.0-9.0"}}, {"uniqueid": "MTK0080:3DIP6YHAPDZLPJ59C9BYAZSRBXR8EW", "current_trial": 240, "dateTime": 1509132608573, "trialdata": {"rt": -1, "stimulus": "<p id=\"stim\">+</p>", "key_press": -1, "type": "FIXATION", "trial_type": "single-stim", "trial_index": 240, "time_elapsed": 1291506, "internal_node_id": "0.0-168.0-0.0"}}, {"uniqueid": "MTK0080:3DIP6YHAPDZLPJ59C9BYAZSRBXR8EW", "current_trial": 241, "dateTime": 1509132610175, "trialdata": {"rt": -1, "stimulus": "<p id=\"stim\">SEAGULL</p>", "key_press": -1, "type": "PRES_VIS", "word": "seagull", "wordID": 1260, "conditions": [24, 1600, "v", 12000], "trial": 7, "serialpos": 0, "trial_type": "single-stim", "trial_index": 241, "time_elapsed": 1293108, "internal_node_id": "0.0-169.0"}}, {"uniqueid": "MTK0080:3DIP6YHAPDZLPJ59C9BYAZSRBXR8EW", "current_trial": 242, "dateTime": 1509132612815, "trialdata": {"rt": -1, "stimulus": "<p id=\"stim\">SHARK</p>", "key_press": -1, "type": "PRES_VIS", "word": "shark", "wordID": 1274, "conditions": [24, 1600, "v", 12000], "trial": 7, "serialpos": 1, "trial_type": "single-stim", "trial_index": 242, "time_elapsed": 1295748, "internal_node_id": "0.0-170.0"}}, {"uniqueid": "MTK0080:3DIP6YHAPDZLPJ59C9BYAZSRBXR8EW", "current_trial": 243, "dateTime": 1509132615265, "trialdata": {"rt": -1, "stimulus": "<p id=\"stim\">TRIBE</p>", "key_press": -1, "type": "PRES_VIS", "word": "tribe", "wordID": 1504, "conditions": [24, 1600, "v", 12000], "trial": 7, "serialpos": 2, "trial_type": "single-stim", "trial_index": 243, "time_elapsed": 1298198, "internal_node_id": "0.0-171.0"}}, {"uniqueid": "MTK0080:3DIP6YHAPDZLPJ59C9BYAZSRBXR8EW", "current_trial": 244, "dateTime": 1509132617726, "trialdata": {"rt": -1, "stimulus": "<p id=\"stim\">FOOTBALL</p>", "key_press": -1, "type": "PRES_VIS", "word": "football", "wordID": 590, "conditions": [24, 1600, "v", 12000], "trial": 7, "serialpos": 3, "trial_type": "single-stim", "trial_index": 244, "time_elapsed": 1300659, "internal_node_id": "0.0-172.0"}}, {"uniqueid": "MTK0080:3DIP6YHAPDZLPJ59C9BYAZSRBXR8EW", "current_trial": 245, "dateTime": 1509132620204, "trialdata": {"rt": -1, "stimulus": "<p id=\"stim\">LAGOON</p>", "key_press": -1, "type": "PRES_VIS", "word": "lagoon", "wordID": 794, "conditions": [24, 1600, "v", 12000], "trial": 7, "serialpos": 4, "trial_type": "single-stim", "trial_index": 245, "time_elapsed": 1303137, "internal_node_id": "0.0-173.0"}}, {"uniqueid": "MTK0080:3DIP6YHAPDZLPJ59C9BYAZSRBXR8EW", "current_trial": 246, "dateTime": 1509132622700, "trialdata": {"rt": -1, "stimulus": "<p id=\"stim\">FINGER</p>", "key_press": -1, "type": "PRES_VIS", "word": "finger", "wordID": 566, "conditions": [24, 1600, "v", 12000], "trial": 7, "serialpos": 5, "trial_type": "single-stim", "trial_index": 246, "time_elapsed": 1305633, "internal_node_id": "0.0-174.0"}}, {"uniqueid": "MTK0080:3DIP6YHAPDZLPJ59C9BYAZSRBXR8EW", "current_trial": 247, "dateTime": 1509132625462, "trialdata": {"rt": -1, "stimulus": "<p id=\"stim\">CRUTCH</p>", "key_press": -1, "type": "PRES_VIS", "word": "crutch", "wordID": 416, "conditions": [24, 1600, "v", 12000], "trial": 7, "serialpos": 6, "trial_type": "single-stim", "trial_index": 247, "time_elapsed": 1308394, "internal_node_id": "0.0-175.0"}}, {"uniqueid": "MTK0080:3DIP6YHAPDZLPJ59C9BYAZSRBXR8EW", "current_trial": 248, "dateTime": 1509132627952, "trialdata": {"rt": -1, "stimulus": "<p id=\"stim\">HOOK</p>", "key_press": -1, "type": "PRES_VIS", "word": "hook", "wordID": 714, "conditions": [24, 1600, "v", 12000], "trial": 7, "serialpos": 7, "trial_type": "single-stim", "trial_index": 248, "time_elapsed": 1310885, "internal_node_id": "0.0-176.0"}}, {"uniqueid": "MTK0080:3DIP6YHAPDZLPJ59C9BYAZSRBXR8EW", "current_trial": 249, "dateTime": 1509132630610, "trialdata": {"rt": -1, "stimulus": "<p id=\"stim\">GIRL</p>", "key_press": -1, "type": "PRES_VIS", "word": "girl", "wordID": 636, "conditions": [24, 1600, "v", 12000], "trial": 7, "serialpos": 8, "trial_type": "single-stim", "trial_index": 249, "time_elapsed": 1313543, "internal_node_id": "0.0-177.0"}}, {"uniqueid": "MTK0080:3DIP6YHAPDZLPJ59C9BYAZSRBXR8EW", "current_trial": 250, "dateTime": 1509132633187, "trialdata": {"rt": -1, "stimulus": "<p id=\"stim\">CHILD</p>", "key_press": -1, "type": "PRES_VIS", "word": "child", "wordID": 298, "conditions": [24, 1600, "v", 12000], "trial": 7, "serialpos": 9, "trial_type": "single-stim", "trial_index": 250, "time_elapsed": 1316120, "internal_node_id": "0.0-178.0"}}, {"uniqueid": "MTK0080:3DIP6YHAPDZLPJ59C9BYAZSRBXR8EW", "current_trial": 251, "dateTime": 1509132635642, "trialdata": {"rt": -1, "stimulus": "<p id=\"stim\">CAFE</p>", "key_press": -1, "type": "PRES_VIS", "word": "cafe", "wordID": 215, "conditions": [24, 1600, "v", 12000], "trial": 7, "serialpos": 10, "trial_type": "single-stim", "trial_index": 251, "time_elapsed": 1318575, "internal_node_id": "0.0-179.0"}}, {"uniqueid": "MTK0080:3DIP6YHAPDZLPJ59C9BYAZSRBXR8EW", "current_trial": 252, "dateTime": 1509132638336, "trialdata": {"rt": -1, "stimulus": "<p id=\"stim\">CANAL</p>", "key_press": -1, "type": "PRES_VIS", "word": "canal", "wordID": 225, "conditions": [24, 1600, "v", 12000], "trial": 7, "serialpos": 11, "trial_type": "single-stim", "trial_index": 252, "time_elapsed": 1321269, "internal_node_id": "0.0-180.0"}}, {"uniqueid": "MTK0080:3DIP6YHAPDZLPJ59C9BYAZSRBXR8EW", "current_trial": 253, "dateTime": 1509132641116, "trialdata": {"rt": -1, "stimulus": "<p id=\"stim\">BADGE</p>", "key_press": -1, "type": "PRES_VIS", "word": "badge", "wordID": 67, "conditions": [24, 1600, "v", 12000], "trial": 7, "serialpos": 12, "trial_type": "single-stim", "trial_index": 253, "time_elapsed": 1324049, "internal_node_id": "0.0-181.0"}}, {"uniqueid": "MTK0080:3DIP6YHAPDZLPJ59C9BYAZSRBXR8EW", "current_trial": 254, "dateTime": 1509132643542, "trialdata": {"rt": -1, "stimulus": "<p id=\"stim\">STICKER</p>", "key_press": -1, "type": "PRES_VIS", "word": "sticker", "wordID": 1381, "conditions": [24, 1600, "v", 12000], "trial": 7, "serialpos": 13, "trial_type": "single-stim", "trial_index": 254, "time_elapsed": 1326475, "internal_node_id": "0.0-182.0"}}, {"uniqueid": "MTK0080:3DIP6YHAPDZLPJ59C9BYAZSRBXR8EW", "current_trial": 255, "dateTime": 1509132646096, "trialdata": {"rt": -1, "stimulus": "<p id=\"stim\">PAPER</p>", "key_press": -1, "type": "PRES_VIS", "word": "paper", "wordID": 1010, "conditions": [24, 1600, "v", 12000], "trial": 7, "serialpos": 14, "trial_type": "single-stim", "trial_index": 255, "time_elapsed": 1329028, "internal_node_id": "0.0-183.0"}}, {"uniqueid": "MTK0080:3DIP6YHAPDZLPJ59C9BYAZSRBXR8EW", "current_trial": 256, "dateTime": 1509132648533, "trialdata": {"rt": -1, "stimulus": "<p id=\"stim\">SWORD</p>", "key_press": -1, "type": "PRES_VIS", "word": "sword", "wordID": 1422, "conditions": [24, 1600, "v", 12000], "trial": 7, "serialpos": 15, "trial_type": "single-stim", "trial_index": 256, "time_elapsed": 1331466, "internal_node_id": "0.0-184.0"}}, {"uniqueid": "MTK0080:3DIP6YHAPDZLPJ59C9BYAZSRBXR8EW", "current_trial": 257, "dateTime": 1509132651087, "trialdata": {"rt": -1, "stimulus": "<p id=\"stim\">COUCH</p>", "key_press": -1, "type": "PRES_VIS", "word": "couch", "wordID": 385, "conditions": [24, 1600, "v", 12000], "trial": 7, "serialpos": 16, "trial_type": "single-stim", "trial_index": 257, "time_elapsed": 1334020, "internal_node_id": "0.0-185.0"}}, {"uniqueid": "MTK0080:3DIP6YHAPDZLPJ59C9BYAZSRBXR8EW", "current_trial": 258, "dateTime": 1509132653885, "trialdata": {"rt": -1, "stimulus": "<p id=\"stim\">COUNTY</p>", "key_press": -1, "type": "PRES_VIS", "word": "county", "wordID": 388, "conditions": [24, 1600, "v", 12000], "trial": 7, "serialpos": 17, "trial_type": "single-stim", "trial_index": 258, "time_elapsed": 1336817, "internal_node_id": "0.0-186.0"}}, {"uniqueid": "MTK0080:3DIP6YHAPDZLPJ59C9BYAZSRBXR8EW", "current_trial": 259, "dateTime": 1509132656688, "trialdata": {"rt": -1, "stimulus": "<p id=\"stim\">RAZOR</p>", "key_press": -1, "type": "PRES_VIS", "word": "razor", "wordID": 1170, "conditions": [24, 1600, "v", 12000], "trial": 7, "serialpos": 18, "trial_type": "single-stim", "trial_index": 259, "time_elapsed": 1339621, "internal_node_id": "0.0-187.0"}}, {"uniqueid": "MTK0080:3DIP6YHAPDZLPJ59C9BYAZSRBXR8EW", "current_trial": 260, "dateTime": 1509132659149, "trialdata": {"rt": -1, "stimulus": "<p id=\"stim\">EGYPT</p>", "key_press": -1, "type": "PRES_VIS", "word": "egypt", "wordID": 518, "conditions": [24, 1600, "v", 12000], "trial": 7, "serialpos": 19, "trial_type": "single-stim", "trial_index": 260, "time_elapsed": 1342082, "internal_node_id": "0.0-188.0"}}, {"uniqueid": "MTK0080:3DIP6YHAPDZLPJ59C9BYAZSRBXR8EW", "current_trial": 261, "dateTime": 1509132661598, "trialdata": {"rt": -1, "stimulus": "<p id=\"stim\">AUTHOR</p>", "key_press": -1, "type": "PRES_VIS", "word": "author", "wordID": 60, "conditions": [24, 1600, "v", 12000], "trial": 7, "serialpos": 20, "trial_type": "single-stim", "trial_index": 261, "time_elapsed": 1344531, "internal_node_id": "0.0-189.0"}}, {"uniqueid": "MTK0080:3DIP6YHAPDZLPJ59C9BYAZSRBXR8EW", "current_trial": 262, "dateTime": 1509132664314, "trialdata": {"rt": -1, "stimulus": "<p id=\"stim\">KNIFE</p>", "key_press": -1, "type": "PRES_VIS", "word": "knife", "wordID": 784, "conditions": [24, 1600, "v", 12000], "trial": 7, "serialpos": 21, "trial_type": "single-stim", "trial_index": 262, "time_elapsed": 1347247, "internal_node_id": "0.0-190.0"}}, {"uniqueid": "MTK0080:3DIP6YHAPDZLPJ59C9BYAZSRBXR8EW", "current_trial": 263, "dateTime": 1509132667077, "trialdata": {"rt": -1, "stimulus": "<p id=\"stim\">CIGAR</p>", "key_press": -1, "type": "PRES_VIS", "word": "cigar", "wordID": 307, "conditions": [24, 1600, "v", 12000], "trial": 7, "serialpos": 22, "trial_type": "single-stim", "trial_index": 263, "time_elapsed": 1350010, "internal_node_id": "0.0-191.0"}}, {"uniqueid": "MTK0080:3DIP6YHAPDZLPJ59C9BYAZSRBXR8EW", "current_trial": 264, "dateTime": 1509132669735, "trialdata": {"rt": -1, "stimulus": "<p id=\"stim\">CHAUFFEUR</p>", "key_press": -1, "type": "PRES_VIS", "word": "chauffeur", "wordID": 282, "conditions": [24, 1600, "v", 12000], "trial": 7, "serialpos": 23, "trial_type": "single-stim", "trial_index": 264, "time_elapsed": 1352668, "internal_node_id": "0.0-192.0"}}, {"uniqueid": "MTK0080:3DIP6YHAPDZLPJ59C9BYAZSRBXR8EW", "current_trial": 265, "dateTime": 1509132672115, "trialdata": {"rt": -1, "stimulus": "", "key_press": -1, "type": "PRE_RECALL_DELAY", "trial_type": "single-stim", "trial_index": 265, "time_elapsed": 1355048, "internal_node_id": "0.0-193.0-0.0"}}, {"uniqueid": "MTK0080:3DIP6YHAPDZLPJ59C9BYAZSRBXR8EW", "current_trial": 266, "dateTime": 1509132672616, "trialdata": {"rt": -1000, "stimulus": "/static/audio/400Hz.wav", "key_press": -1, "type": "PRE_RECALL_ALERT", "trial_type": "single-audio", "trial_index": 266, "time_elapsed": 1355549, "internal_node_id": "0.0-194.0"}}, {"uniqueid": "MTK0080:3DIP6YHAPDZLPJ59C9BYAZSRBXR8EW", "current_trial": 267, "dateTime": 1509132732623, "trialdata": {"rt": [2141, 3964, 5213, 7755, 8914, 9949, 11108, 14179, 18015, 23843, 25159], "recwords": ["chauffer", "seagall", "shark", "lagoon", "canal", "hook", "girl", "child", "badge", "sword", "knife"], "type": "FREE_RECALL", "conditions": [24, 1600, "v", 12000], "trial": 7, "trial_type": "free-recall", "trial_index": 267, "time_elapsed": 1415554, "internal_node_id": "0.0-195.0-0.0"}}, {"uniqueid": "MTK0080:3DIP6YHAPDZLPJ59C9BYAZSRBXR8EW", "current_trial": 268, "dateTime": 1509132736419, "trialdata": {"rt": 1796, "key_press": 32, "type": "INSTRUCTIONS", "trial_type": "text", "trial_index": 268, "time_elapsed": 1419352, "internal_node_id": "0.0-196.0"}}, {"uniqueid": "MTK0080:3DIP6YHAPDZLPJ59C9BYAZSRBXR8EW", "current_trial": 269, "dateTime": 1509132750428, "trialdata": {"rt": [3833, 6533, 10549], "responses": ["18", "8", "21"], "num1": [7, 3, 7, 6], "num2": [8, 1, 8, 8], "num3": [7, 4, 6, 1], "type": "DISTRACTOR", "conditions": [24, 1600, "a", 12000], "trial": 8, "trial_type": "math-distractor", "trial_index": 269, "time_elapsed": 1433361, "internal_node_id": "0.0-197.0"}}, {"uniqueid": "MTK0080:3DIP6YHAPDZLPJ59C9BYAZSRBXR8EW", "current_trial": 270, "dateTime": 1509132753434, "trialdata": {"rt": -1, "stimulus": "<p id=\"stim\">10</p>", "key_press": -1, "trial_type": "single-stim", "trial_index": 270, "time_elapsed": 1436367, "internal_node_id": "0.0-198.0-0.0"}}, {"uniqueid": "MTK0080:3DIP6YHAPDZLPJ59C9BYAZSRBXR8EW", "current_trial": 271, "dateTime": 1509132754438, "trialdata": {"rt": -1, "stimulus": "<p id=\"stim\">9</p>", "key_press": -1, "trial_type": "single-stim", "trial_index": 271, "time_elapsed": 1437371, "internal_node_id": "0.0-198.0-1.0"}}, {"uniqueid": "MTK0080:3DIP6YHAPDZLPJ59C9BYAZSRBXR8EW", "current_trial": 272, "dateTime": 1509132755442, "trialdata": {"rt": -1, "stimulus": "<p id=\"stim\">8</p>", "key_press": -1, "trial_type": "single-stim", "trial_index": 272, "time_elapsed": 1438375, "internal_node_id": "0.0-198.0-2.0"}}, {"uniqueid": "MTK0080:3DIP6YHAPDZLPJ59C9BYAZSRBXR8EW", "current_trial": 273, "dateTime": 1509132756447, "trialdata": {"rt": -1, "stimulus": "<p id=\"stim\">7</p>", "key_press": -1, "trial_type": "single-stim", "trial_index": 273, "time_elapsed": 1439380, "internal_node_id": "0.0-198.0-3.0"}}, {"uniqueid": "MTK0080:3DIP6YHAPDZLPJ59C9BYAZSRBXR8EW", "current_trial": 274, "dateTime": 1509132757451, "trialdata": {"rt": -1, "stimulus": "<p id=\"stim\">6</p>", "key_press": -1, "trial_type": "single-stim", "trial_ind