{"condition": 0, "counterbalance": 2534, "assignmentId": "3NJM2BJS4XDRYDKC2Z7E6XNEJOZPCF", "workerId": "MTK0901", "hitId": "360ZO6N6J1QHSSI28X0TYJWRSQV9MP", "currenttrial": 626, "bonus": 0, "data": [{"uniqueid": "MTK0901:3NJM2BJS4XDRYDKC2Z7E6XNEJOZPCF", "current_trial": 0, "dateTime": 1512868662813, "trialdata": {"rt": 1610, "key_press": 32, "type": "INSTRUCTIONS", "trial_type": "text", "trial_index": 0, "time_elapsed": 1614, "internal_node_id": "0.0-0.0"}}, {"uniqueid": "MTK0901:3NJM2BJS4XDRYDKC2Z7E6XNEJOZPCF", "current_trial": 1, "dateTime": 1512868679275, "trialdata": {"rt": 16460, "key_press": 32, "type": "INSTRUCTIONS", "trial_type": "text", "trial_index": 1, "time_elapsed": 18078, "internal_node_id": "0.0-1.0"}}, {"uniqueid": "MTK0901:3NJM2BJS4XDRYDKC2Z7E6XNEJOZPCF", "current_trial": 2, "dateTime": 1512868697883, "trialdata": {"rt": [18499], "responses": ["ocean"], "type": "AUDIO_TEST", "trial_type": "audio-test", "trial_index": 2, "time_elapsed": 36686, "internal_node_id": "0.0-2.0"}}, {"uniqueid": "MTK0901:3NJM2BJS4XDRYDKC2Z7E6XNEJOZPCF", "current_trial": 3, "dateTime": 1512868704070, "trialdata": {"rt": [6178], "responses": ["crystal"], "type": "AUDIO_TEST", "trial_type": "audio-test", "trial_index": 3, "time_elapsed": 42873, "internal_node_id": "0.0-3.0"}}, {"uniqueid": "MTK0901:3NJM2BJS4XDRYDKC2Z7E6XNEJOZPCF", "current_trial": 4, "dateTime": 1512868713568, "trialdata": {"rt": [9489], "responses": ["spice"], "type": "AUDIO_TEST", "trial_type": "audio-test", "trial_index": 4, "time_elapsed": 52371, "internal_node_id": "0.0-4.0"}}, {"uniqueid": "MTK0901:3NJM2BJS4XDRYDKC2Z7E6XNEJOZPCF", "current_trial": 5, "dateTime": 1512868746682, "trialdata": {"rt": 32357, "responses": "{\"Q0\":\"11:30pm\",\"Q1\":\"6:30am\",\"Q2\":\"5\"}", "type": "SLEEP_SURVEY", "trial_type": "survey-text", "trial_index": 5, "time_elapsed": 85484, "internal_node_id": "0.0-5.0"}}, {"uniqueid": "MTK0901:3NJM2BJS4XDRYDKC2Z7E6XNEJOZPCF", "current_trial": 6, "dateTime": 1512868791802, "trialdata": {"rt": 44118, "key_press": 40, "type": "INSTRUCTIONS", "trial_type": "text", "trial_index": 6, "time_elapsed": 130604, "internal_node_id": "0.0-6.0"}}, {"uniqueid": "MTK0901:3NJM2BJS4XDRYDKC2Z7E6XNEJOZPCF", "current_trial": 7, "dateTime": 1512868812688, "trialdata": {"rt": 20385, "key_press": 32, "type": "INSTRUCTIONS", "trial_type": "text", "trial_index": 7, "time_elapsed": 151491, "internal_node_id": "0.0-7.0"}}, {"uniqueid": "MTK0901:3NJM2BJS4XDRYDKC2Z7E6XNEJOZPCF", "current_trial": 8, "dateTime": 1512868824240, "trialdata": {"rt": 11049, "key_press": 32, "type": "INSTRUCTIONS", "trial_type": "text", "trial_index": 8, "time_elapsed": 163043, "internal_node_id": "0.0-8.0"}}, {"uniqueid": "MTK0901:3NJM2BJS4XDRYDKC2Z7E6XNEJOZPCF", "current_trial": 9, "dateTime": 1512868843259, "trialdata": {"rt": [4150, 8910, 12917, 16608], "responses": ["17", "15", "12", "20"], "num1": [6, 2, 4, 9, 8], "num2": [5, 4, 1, 6, 9], "num3": [6, 9, 7, 5, 5], "type": "DISTRACTOR", "conditions": [18, 1200, "a", 18000], "trial": 0, "trial_type": "math-distractor", "trial_index": 9, "time_elapsed": 182062, "internal_node_id": "0.0-9.0"}}, {"uniqueid": "MTK0901:3NJM2BJS4XDRYDKC2Z7E6XNEJOZPCF", "current_trial": 10, "dateTime": 1512868846262, "trialdata": {"rt": -1, "stimulus": "<p id=\"stim\">10</p>", "key_press": -1, "trial_type": "single-stim", "trial_index": 10, "time_elapsed": 185065, "internal_node_id": "0.0-10.0-0.0"}}, {"uniqueid": "MTK0901:3NJM2BJS4XDRYDKC2Z7E6XNEJOZPCF", "current_trial": 11, "dateTime": 1512868847265, "trialdata": {"rt": -1, "stimulus": "<p id=\"stim\">9</p>", "key_press": -1, "trial_type": "single-stim", "trial_index": 11, "time_elapsed": 186067, "internal_node_id": "0.0-10.0-1.0"}}, {"uniqueid": "MTK0901:3NJM2BJS4XDRYDKC2Z7E6XNEJOZPCF", "current_trial": 12, "dateTime": 1512868848266, "trialdata": {"rt": -1, "stimulus": "<p id=\"stim\">8</p>", "key_press": -1, "trial_type": "single-stim", "trial_index": 12, "time_elapsed": 187069, "internal_node_id": "0.0-10.0-2.0"}}, {"uniqueid": "MTK0901:3NJM2BJS4XDRYDKC2Z7E6XNEJOZPCF", "current_trial": 13, "dateTime": 1512868849268, "trialdata": {"rt": -1, "stimulus": "<p id=\"stim\">7</p>", "key_press": -1, "trial_type": "single-stim", "trial_index": 13, "time_elapsed": 188071, "internal_node_id": "0.0-10.0-3.0"}}, {"uniqueid": "MTK0901:3NJM2BJS4XDRYDKC2Z7E6XNEJOZPCF", "current_trial": 14, "dateTime": 1512868850271, "trialdata": {"rt": -1, "stimulus": "<p id=\"stim\">6</p>", "key_press": -1, "trial_type": "single-stim", "trial_index": 14, "time_elapsed": 189073, "internal_node_id": "0.0-10.0-4.0"}}, {"uniqueid": "MTK0901:3NJM2BJS4XDRYDKC2Z7E6XNEJOZPCF", "current_trial": 15, "dateTime": 1512868851273, "trialdata": {"rt": -1, "stimulus": "<p id=\"stim\">5</p>", "key_press": -1, "trial_type": "single-stim", "trial_index": 15, "time_elapsed": 190075, "internal_node_id": "0.0-10.0-5.0"}}, {"uniqueid": "MTK0901:3NJM2BJS4XDRYDKC2Z7E6XNEJOZPCF", "current_trial": 16, "dateTime": 1512868852275, "trialdata": {"rt": -1, "stimulus": "<p id=\"stim\">4</p>", "key_press": -1, "trial_type": "single-stim", "trial_index": 16, "time_elapsed": 191077, "internal_node_id": "0.0-10.0-6.0"}}, {"uniqueid": "MTK0901:3NJM2BJS4XDRYDKC2Z7E6XNEJOZPCF", "current_trial": 17, "dateTime": 1512868853279, "trialdata": {"rt": -1, "stimulus": "<p id=\"stim\">3</p>", "key_press": -1, "trial_type": "single-stim", "trial_index": 17, "time_elapsed": 192081, "internal_node_id": "0.0-10.0-7.0"}}, {"uniqueid": "MTK0901:3NJM2BJS4XDRYDKC2Z7E6XNEJOZPCF", "current_trial": 18, "dateTime": 1512868854280, "trialdata": {"rt": -1, "stimulus": "<p id=\"stim\">2</p>", "key_press": -1, "trial_type": "single-stim", "trial_index": 18, "time_elapsed": 193083, "internal_node_id": "0.0-10.0-8.0"}}, {"uniqueid": "MTK0901:3NJM2BJS4XDRYDKC2Z7E6XNEJOZPCF", "current_trial": 19, "dateTime": 1512868855283, "trialdata": {"rt": -1, "stimulus": "<p id=\"stim\">1</p>", "key_press": -1, "trial_type": "single-stim", "trial_index": 19, "time_elapsed": 194086, "internal_node_id": "0.0-10.0-9.0"}}, {"uniqueid": "MTK0901:3NJM2BJS4XDRYDKC2Z7E6XNEJOZPCF", "current_trial": 20, "dateTime": 1512868856786, "trialdata": {"rt": -1, "stimulus": "<p id=\"stim\">+</p>", "key_press": -1, "type": "FIXATION", "trial_type": "single-stim", "trial_index": 20, "time_elapsed": 195588, "internal_node_id": "0.0-11.0-0.0"}}, {"uniqueid": "MTK0901:3NJM2BJS4XDRYDKC2Z7E6XNEJOZPCF", "current_trial": 21, "dateTime": 1512868859145, "trialdata": {"rt": -1000, "stimulus": "/static/audio/wordpool/PLUTO.wav", "key_press": -1, "type": "PRES_AUD", "word": "pluto", "wordID": 1091, "conditions": [18, 1200, "a", 18000], "trial": 0, "serialpos": 0, "trial_type": "single-audio", "trial_index": 21, "time_elapsed": 197948, "internal_node_id": "0.0-12.0"}}, {"uniqueid": "MTK0901:3NJM2BJS4XDRYDKC2Z7E6XNEJOZPCF", "current_trial": 22, "dateTime": 1512868861208, "trialdata": {"rt": -1000, "stimulus": "/static/audio/wordpool/BACON.wav", "key_press": -1, "type": "PRES_AUD", "word": "bacon", "wordID": 66, "conditions": [18, 1200, "a", 18000], "trial": 0, "serialpos": 1, "trial_type": "single-audio", "trial_index": 22, "time_elapsed": 200011, "internal_node_id": "0.0-13.0"}}, {"uniqueid": "MTK0901:3NJM2BJS4XDRYDKC2Z7E6XNEJOZPCF", "current_trial": 23, "dateTime": 1512868863582, "trialdata": {"rt": -1000, "stimulus": "/static/audio/wordpool/CONCERT.wav", "key_press": -1, "type": "PRES_AUD", "word": "concert", "wordID": 359, "conditions": [18, 1200, "a", 18000], "trial": 0, "serialpos": 2, "trial_type": "single-audio", "trial_index": 23, "time_elapsed": 202385, "internal_node_id": "0.0-14.0"}}, {"uniqueid": "MTK0901:3NJM2BJS4XDRYDKC2Z7E6XNEJOZPCF", "current_trial": 24, "dateTime": 1512868865744, "trialdata": {"rt": -1000, "stimulus": "/static/audio/wordpool/SNAKE.wav", "key_press": -1, "type": "PRES_AUD", "word": "snake", "wordID": 1332, "conditions": [18, 1200, "a", 18000], "trial": 0, "serialpos": 3, "trial_type": "single-audio", "trial_index": 24, "time_elapsed": 204547, "internal_node_id": "0.0-15.0"}}, {"uniqueid": "MTK0901:3NJM2BJS4XDRYDKC2Z7E6XNEJOZPCF", "current_trial": 25, "dateTime": 1512868867911, "trialdata": {"rt": -1000, "stimulus": "/static/audio/wordpool/QUAIL.wav", "key_press": -1, "type": "PRES_AUD", "word": "quail", "wordID": 1146, "conditions": [18, 1200, "a", 18000], "trial": 0, "serialpos": 4, "trial_type": "single-audio", "trial_index": 25, "time_elapsed": 206713, "internal_node_id": "0.0-16.0"}}, {"uniqueid": "MTK0901:3NJM2BJS4XDRYDKC2Z7E6XNEJOZPCF", "current_trial": 26, "dateTime": 1512868870154, "trialdata": {"rt": -1000, "stimulus": "/static/audio/wordpool/DONKEY.wav", "key_press": -1, "type": "PRES_AUD", "word": "donkey", "wordID": 483, "conditions": [18, 1200, "a", 18000], "trial": 0, "serialpos": 5, "trial_type": "single-audio", "trial_index": 26, "time_elapsed": 208957, "internal_node_id": "0.0-17.0"}}, {"uniqueid": "MTK0901:3NJM2BJS4XDRYDKC2Z7E6XNEJOZPCF", "current_trial": 27, "dateTime": 1512868872507, "trialdata": {"rt": -1000, "stimulus": "/static/audio/wordpool/FRAME.wav", "key_press": -1, "type": "PRES_AUD", "word": "frame", "wordID": 599, "conditions": [18, 1200, "a", 18000], "trial": 0, "serialpos": 6, "trial_type": "single-audio", "trial_index": 27, "time_elapsed": 211310, "internal_node_id": "0.0-18.0"}}, {"uniqueid": "MTK0901:3NJM2BJS4XDRYDKC2Z7E6XNEJOZPCF", "current_trial": 28, "dateTime": 1512868874562, "trialdata": {"rt": -1000, "stimulus": "/static/audio/wordpool/GROUND.wav", "key_press": -1, "type": "PRES_AUD", "word": "ground", "wordID": 665, "conditions": [18, 1200, "a", 18000], "trial": 0, "serialpos": 7, "trial_type": "single-audio", "trial_index": 28, "time_elapsed": 213364, "internal_node_id": "0.0-19.0"}}, {"uniqueid": "MTK0901:3NJM2BJS4XDRYDKC2Z7E6XNEJOZPCF", "current_trial": 29, "dateTime": 1512868876611, "trialdata": {"rt": -1000, "stimulus": "/static/audio/wordpool/WAGON.wav", "key_press": -1, "type": "PRES_AUD", "word": "wagon", "wordID": 1577, "conditions": [18, 1200, "a", 18000], "trial": 0, "serialpos": 8, "trial_type": "single-audio", "trial_index": 29, "time_elapsed": 215413, "internal_node_id": "0.0-20.0"}}, {"uniqueid": "MTK0901:3NJM2BJS4XDRYDKC2Z7E6XNEJOZPCF", "current_trial": 30, "dateTime": 1512868878793, "trialdata": {"rt": -1000, "stimulus": "/static/audio/wordpool/BODY.wav", "key_press": -1, "type": "PRES_AUD", "word": "body", "wordID": 144, "conditions": [18, 1200, "a", 18000], "trial": 0, "serialpos": 9, "trial_type": "single-audio", "trial_index": 30, "time_elapsed": 217596, "internal_node_id": "0.0-21.0"}}, {"uniqueid": "MTK0901:3NJM2BJS4XDRYDKC2Z7E6XNEJOZPCF", "current_trial": 31, "dateTime": 1512868881090, "trialdata": {"rt": -1000, "stimulus": "/static/audio/wordpool/CASHIER.wav", "key_press": -1, "type": "PRES_AUD", "word": "cashier", "wordID": 253, "conditions": [18, 1200, "a", 18000], "trial": 0, "serialpos": 10, "trial_type": "single-audio", "trial_index": 31, "time_elapsed": 219893, "internal_node_id": "0.0-22.0"}}, {"uniqueid": "MTK0901:3NJM2BJS4XDRYDKC2Z7E6XNEJOZPCF", "current_trial": 32, "dateTime": 1512868883293, "trialdata": {"rt": -1000, "stimulus": "/static/audio/wordpool/GANGSTER.wav", "key_press": -1, "type": "PRES_AUD", "word": "gangster", "wordID": 619, "conditions": [18, 1200, "a", 18000], "trial": 0, "serialpos": 11, "trial_type": "single-audio", "trial_index": 32, "time_elapsed": 222096, "internal_node_id": "0.0-23.0"}}, {"uniqueid": "MTK0901:3NJM2BJS4XDRYDKC2Z7E6XNEJOZPCF", "current_trial": 33, "dateTime": 1512868885622, "trialdata": {"rt": -1000, "stimulus": "/static/audio/wordpool/CHAMPAGNE.wav", "key_press": -1, "type": "PRES_AUD", "word": "champagne", "wordID": 277, "conditions": [18, 1200, "a", 18000], "trial": 0, "serialpos": 12, "trial_type": "single-audio", "trial_index": 33, "time_elapsed": 224425, "internal_node_id": "0.0-24.0"}}, {"uniqueid": "MTK0901:3NJM2BJS4XDRYDKC2Z7E6XNEJOZPCF", "current_trial": 34, "dateTime": 1512868887754, "trialdata": {"rt": -1000, "stimulus": "/static/audio/wordpool/DIME.wav", "key_press": -1, "type": "PRES_AUD", "word": "dime", "wordID": 465, "conditions": [18, 1200, "a", 18000], "trial": 0, "serialpos": 13, "trial_type": "single-audio", "trial_index": 34, "time_elapsed": 226557, "internal_node_id": "0.0-25.0"}}, {"uniqueid": "MTK0901:3NJM2BJS4XDRYDKC2Z7E6XNEJOZPCF", "current_trial": 35, "dateTime": 1512868889779, "trialdata": {"rt": -1000, "stimulus": "/static/audio/wordpool/SURVEY.wav", "key_press": -1, "type": "PRES_AUD", "word": "survey", "wordID": 1413, "conditions": [18, 1200, "a", 18000], "trial": 0, "serialpos": 14, "trial_type": "single-audio", "trial_index": 35, "time_elapsed": 228582, "internal_node_id": "0.0-26.0"}}, {"uniqueid": "MTK0901:3NJM2BJS4XDRYDKC2Z7E6XNEJOZPCF", "current_trial": 36, "dateTime": 1512868892160, "trialdata": {"rt": -1000, "stimulus": "/static/audio/wordpool/CASKET.wav", "key_press": -1, "type": "PRES_AUD", "word": "casket", "wordID": 254, "conditions": [18, 1200, "a", 18000], "trial": 0, "serialpos": 15, "trial_type": "single-audio", "trial_index": 36, "time_elapsed": 230963, "internal_node_id": "0.0-27.0"}}, {"uniqueid": "MTK0901:3NJM2BJS4XDRYDKC2Z7E6XNEJOZPCF", "current_trial": 37, "dateTime": 1512868894400, "trialdata": {"rt": -1000, "stimulus": "/static/audio/wordpool/GARBAGE.wav", "key_press": -1, "type": "PRES_AUD", "word": "garbage", "wordID": 621, "conditions": [18, 1200, "a", 18000], "trial": 0, "serialpos": 16, "trial_type": "single-audio", "trial_index": 37, "time_elapsed": 233203, "internal_node_id": "0.0-28.0"}}, {"uniqueid": "MTK0901:3NJM2BJS4XDRYDKC2Z7E6XNEJOZPCF", "current_trial": 38, "dateTime": 1512868896793, "trialdata": {"rt": -1000, "stimulus": "/static/audio/wordpool/HEDGE.wav", "key_press": -1, "type": "PRES_AUD", "word": "hedge", "wordID": 698, "conditions": [18, 1200, "a", 18000], "trial": 0, "serialpos": 17, "trial_type": "single-audio", "trial_index": 38, "time_elapsed": 235596, "internal_node_id": "0.0-29.0"}}, {"uniqueid": "MTK0901:3NJM2BJS4XDRYDKC2Z7E6XNEJOZPCF", "current_trial": 39, "dateTime": 1512868898008, "trialdata": {"rt": -1, "stimulus": "", "key_press": -1, "type": "PRE_RECALL_DELAY", "trial_type": "single-stim", "trial_index": 39, "time_elapsed": 236811, "internal_node_id": "0.0-30.0-0.0"}}, {"uniqueid": "MTK0901:3NJM2BJS4XDRYDKC2Z7E6XNEJOZPCF", "current_trial": 40, "dateTime": 1512868898510, "trialdata": {"rt": -1000, "stimulus": "/static/audio/400Hz.wav", "key_press": -1, "type": "PRE_RECALL_ALERT", "trial_type": "single-audio", "trial_index": 40, "time_elapsed": 237313, "internal_node_id": "0.0-31.0"}}, {"uniqueid": "MTK0901:3NJM2BJS4XDRYDKC2Z7E6XNEJOZPCF", "current_trial": 41, "dateTime": 1512868958579, "trialdata": {"rt": [4290, 5738, 14705, 18018, 19854, 20914, 30784, 32470, 33074], "recwords": ["pluto", "bacon", "gangster", "garbage", "hedge", "", "", "", ""], "type": "FREE_RECALL", "conditions": [18, 1200, "a", 18000], "trial": 0, "trial_type": "free-recall", "trial_index": 41, "time_elapsed": 297318, "internal_node_id": "0.0-32.0-0.0"}}, {"uniqueid": "MTK0901:3NJM2BJS4XDRYDKC2Z7E6XNEJOZPCF", "current_trial": 42, "dateTime": 1512868978536, "trialdata": {"rt": 17956, "key_press": 32, "type": "INSTRUCTIONS", "trial_type": "text", "trial_index": 42, "time_elapsed": 317339, "internal_node_id": "0.0-33.0"}}, {"uniqueid": "MTK0901:3NJM2BJS4XDRYDKC2Z7E6XNEJOZPCF", "current_trial": 43, "dateTime": 1512868998542, "trialdata": {"rt": [4264, 6942, 9569, 12108, 14877, 17843], "responses": ["11", "11", "24", "13", "12", "19"], "num1": [3, 5, 8, 4, 5, 9, 1], "num2": [5, 3, 8, 8, 3, 4, 5], "num3": [3, 3, 8, 1, 4, 6, 4], "type": "DISTRACTOR", "conditions": [18, 1200, "v", 18000], "trial": 1, "trial_type": "math-distractor", "trial_index": 43, "time_elapsed": 337345, "internal_node_id": "0.0-34.0"}}, {"uniqueid": "MTK0901:3NJM2BJS4XDRYDKC2Z7E6XNEJOZPCF", "current_trial": 44, "dateTime": 1512869001545, "trialdata": {"rt": -1, "stimulus": "<p id=\"stim\">10</p>", "key_press": -1, "trial_type": "single-stim", "trial_index": 44, "time_elapsed": 340348, "internal_node_id": "0.0-35.0-0.0"}}, {"uniqueid": "MTK0901:3NJM2BJS4XDRYDKC2Z7E6XNEJOZPCF", "current_trial": 45, "dateTime": 1512869002547, "trialdata": {"rt": -1, "stimulus": "<p id=\"stim\">9</p>", "key_press": -1, "trial_type": "single-stim", "trial_index": 45, "time_elapsed": 341350, "internal_node_id": "0.0-35.0-1.0"}}, {"uniqueid": "MTK0901:3NJM2BJS4XDRYDKC2Z7E6XNEJOZPCF", "current_trial": 46, "dateTime": 1512869003548, "trialdata": {"rt": -1, "stimulus": "<p id=\"stim\">8</p>", "key_press": -1, "trial_type": "single-stim", "trial_index": 46, "time_elapsed": 342351, "internal_node_id": "0.0-35.0-2.0"}}, {"uniqueid": "MTK0901:3NJM2BJS4XDRYDKC2Z7E6XNEJOZPCF", "current_trial": 47, "dateTime": 1512869004550, "trialdata": {"rt": -1, "stimulus": "<p id=\"stim\">7</p>", "key_press": -1, "trial_type": "single-stim", "trial_index": 47, "time_elapsed": 343352, "internal_node_id": "0.0-35.0-3.0"}}, {"uniqueid": "MTK0901:3NJM2BJS4XDRYDKC2Z7E6XNEJOZPCF", "current_trial": 48, "dateTime": 1512869005551, "trialdata": {"rt": -1, "stimulus": "<p id=\"stim\">6</p>", "key_press": -1, "trial_type": "single-stim", "trial_index": 48, "time_elapsed": 344354, "internal_node_id": "0.0-35.0-4.0"}}, {"uniqueid": "MTK0901:3NJM2BJS4XDRYDKC2Z7E6XNEJOZPCF", "current_trial": 49, "dateTime": 1512869006553, "trialdata": {"rt": -1, "stimulus": "<p id=\"stim\">5</p>", "key_press": -1, "trial_type": "single-stim", "trial_index": 49, "time_elapsed": 345356, "internal_node_id": "0.0-35.0-5.0"}}, {"uniqueid": "MTK0901:3NJM2BJS4XDRYDKC2Z7E6XNEJOZPCF", "current_trial": 50, "dateTime": 1512869007555, "trialdata": {"rt": -1, "stimulus": "<p id=\"stim\">4</p>", "key_press": -1, "trial_type": "single-stim", "trial_index": 50, "time_elapsed": 346358, "internal_node_id": "0.0-35.0-6.0"}}, {"uniqueid": "MTK0901:3NJM2BJS4XDRYDKC2Z7E6XNEJOZPCF", "current_trial": 51, "dateTime": 1512869008556, "trialdata": {"rt": -1, "stimulus": "<p id=\"stim\">3</p>", "key_press": -1, "trial_type": "single-stim", "trial_index": 51, "time_elapsed": 347359, "internal_node_id": "0.0-35.0-7.0"}}, {"uniqueid": "MTK0901:3NJM2BJS4XDRYDKC2Z7E6XNEJOZPCF", "current_trial": 52, "dateTime": 1512869009559, "trialdata": {"rt": -1, "stimulus": "<p id=\"stim\">2</p>", "key_press": -1, "trial_type": "single-stim", "trial_index": 52, "time_elapsed": 348361, "internal_node_id": "0.0-35.0-8.0"}}, {"uniqueid": "MTK0901:3NJM2BJS4XDRYDKC2Z7E6XNEJOZPCF", "current_trial": 53, "dateTime": 1512869010560, "trialdata": {"rt": -1, "stimulus": "<p id=\"stim\">1</p>", "key_press": -1, "trial_type": "single-stim", "trial_index": 53, "time_elapsed": 349363, "internal_node_id": "0.0-35.0-9.0"}}, {"uniqueid": "MTK0901:3NJM2BJS4XDRYDKC2Z7E6XNEJOZPCF", "current_trial": 54, "dateTime": 1512869012061, "trialdata": {"rt": -1, "stimulus": "<p id=\"stim\">+</p>", "key_press": -1, "type": "FIXATION", "trial_type": "single-stim", "trial_index": 54, "time_elapsed": 350864, "internal_node_id": "0.0-36.0-0.0"}}, {"uniqueid": "MTK0901:3NJM2BJS4XDRYDKC2Z7E6XNEJOZPCF", "current_trial": 55, "dateTime": 1512869013263, "trialdata": {"rt": -1, "stimulus": "<p id=\"stim\">CRAB</p>", "key_press": -1, "type": "PRES_VIS", "word": "crab", "wordID": 396, "conditions": [18, 1200, "v", 18000], "trial": 1, "serialpos": 0, "trial_type": "single-stim", "trial_index": 55, "time_elapsed": 352066, "internal_node_id": "0.0-37.0"}}, {"uniqueid": "MTK0901:3NJM2BJS4XDRYDKC2Z7E6XNEJOZPCF", "current_trial": 56, "dateTime": 1512869015335, "trialdata": {"rt": -1, "stimulus": "<p id=\"stim\">TUTU</p>", "key_press": -1, "type": "PRES_VIS", "word": "tutu", "wordID": 1523, "conditions": [18, 1200, "v", 18000], "trial": 1, "serialpos": 1, "trial_type": "single-stim", "trial_index": 56, "time_elapsed": 354138, "internal_node_id": "0.0-38.0"}}, {"uniqueid": "MTK0901:3NJM2BJS4XDRYDKC2Z7E6XNEJOZPCF", "current_trial": 57, "dateTime": 1512869017501, "trialdata": {"rt": -1, "stimulus": "<p id=\"stim\">POET</p>", "key_press": -1, "type": "PRES_VIS", "word": "poet", "wordID": 1094, "conditions": [18, 1200, "v", 18000], "trial": 1, "serialpos": 2, "trial_type": "single-stim", "trial_index": 57, "time_elapsed": 356304, "internal_node_id": "0.0-39.0"}}, {"uniqueid": "MTK0901:3NJM2BJS4XDRYDKC2Z7E6XNEJOZPCF", "current_trial": 58, "dateTime": 1512869019713, "trialdata": {"rt": -1, "stimulus": "<p id=\"stim\">SCOTCH</p>", "key_press": -1, "type": "PRES_VIS", "word": "scotch", "wordID": 1250, "conditions": [18, 1200, "v", 18000], "trial": 1, "serialpos": 3, "trial_type": "single-stim", "trial_index": 58, "time_elapsed": 358516, "internal_node_id": "0.0-40.0"}}, {"uniqueid": "MTK0901:3NJM2BJS4XDRYDKC2Z7E6XNEJOZPCF", "current_trial": 59, "dateTime": 1512869021722, "trialdata": {"rt": -1, "stimulus": "<p id=\"stim\">MARINE</p>", "key_press": -1, "type": "PRES_VIS", "word": "marine", "wordID": 868, "conditions": [18, 1200, "v", 18000], "trial": 1, "serialpos": 4, "trial_type": "single-stim", "trial_index": 59, "time_elapsed": 360525, "internal_node_id": "0.0-41.0"}}, {"uniqueid": "MTK0901:3NJM2BJS4XDRYDKC2Z7E6XNEJOZPCF", "current_trial": 60, "dateTime": 1512869023997, "trialdata": {"rt": -1, "stimulus": "<p id=\"stim\">BUTCHER</p>", "key_press": -1, "type": "PRES_VIS", "word": "butcher", "wordID": 202, "conditions": [18, 1200, "v", 18000], "trial": 1, "serialpos": 5, "trial_type": "single-stim", "trial_index": 60, "time_elapsed": 362800, "internal_node_id": "0.0-42.0"}}, {"uniqueid": "MTK0901:3NJM2BJS4XDRYDKC2Z7E6XNEJOZPCF", "current_trial": 61, "dateTime": 1512869026384, "trialdata": {"rt": -1, "stimulus": "<p id=\"stim\">LIGHTNING</p>", "key_press": -1, "type": "PRES_VIS", "word": "lightning", "wordID": 819, "conditions": [18, 1200, "v", 18000], "trial": 1, "serialpos": 6, "trial_type": "single-stim", "trial_index": 61, "time_elapsed": 365187, "internal_node_id": "0.0-43.0"}}, {"uniqueid": "MTK0901:3NJM2BJS4XDRYDKC2Z7E6XNEJOZPCF", "current_trial": 62, "dateTime": 1512869028496, "trialdata": {"rt": -1, "stimulus": "<p id=\"stim\">TUBA</p>", "key_press": -1, "type": "PRES_VIS", "word": "tuba", "wordID": 1514, "conditions": [18, 1200, "v", 18000], "trial": 1, "serialpos": 7, "trial_type": "single-stim", "trial_index": 62, "time_elapsed": 367299, "internal_node_id": "0.0-44.0"}}, {"uniqueid": "MTK0901:3NJM2BJS4XDRYDKC2Z7E6XNEJOZPCF", "current_trial": 63, "dateTime": 1512869030643, "trialdata": {"rt": -1, "stimulus": "<p id=\"stim\">MESSAGE</p>", "key_press": -1, "type": "PRES_VIS", "word": "message", "wordID": 887, "conditions": [18, 1200, "v", 18000], "trial": 1, "serialpos": 8, "trial_type": "single-stim", "trial_index": 63, "time_elapsed": 369445, "internal_node_id": "0.0-45.0"}}, {"uniqueid": "MTK0901:3NJM2BJS4XDRYDKC2Z7E6XNEJOZPCF", "current_trial": 64, "dateTime": 1512869033033, "trialdata": {"rt": -1, "stimulus": "<p id=\"stim\">KITCHEN</p>", "key_press": -1, "type": "PRES_VIS", "word": "kitchen", "wordID": 777, "conditions": [18, 1200, "v", 18000], "trial": 1, "serialpos": 9, "trial_type": "single-stim", "trial_index": 64, "time_elapsed": 371836, "internal_node_id": "0.0-46.0"}}, {"uniqueid": "MTK0901:3NJM2BJS4XDRYDKC2Z7E6XNEJOZPCF", "current_trial": 65, "dateTime": 1512869035106, "trialdata": {"rt": -1, "stimulus": "<p id=\"stim\">BANJO</p>", "key_press": -1, "type": "PRES_VIS", "word": "banjo", "wordID": 81, "conditions": [18, 1200, "v", 18000], "trial": 1, "serialpos": 10, "trial_type": "single-stim", "trial_index": 65, "time_elapsed": 373909, "internal_node_id": "0.0-47.0"}}, {"uniqueid": "MTK0901:3NJM2BJS4XDRYDKC2Z7E6XNEJOZPCF", "current_trial": 66, "dateTime": 1512869037163, "trialdata": {"rt": -1, "stimulus": "<p id=\"stim\">SALAD</p>", "key_press": -1, "type": "PRES_VIS", "word": "salad", "wordID": 1223, "conditions": [18, 1200, "v", 18000], "trial": 1, "serialpos": 11, "trial_type": "single-stim", "trial_index": 66, "time_elapsed": 375966, "internal_node_id": "0.0-48.0"}}, {"uniqueid": "MTK0901:3NJM2BJS4XDRYDKC2Z7E6XNEJOZPCF", "current_trial": 67, "dateTime": 1512869039473, "trialdata": {"rt": -1, "stimulus": "<p id=\"stim\">GLOVE</p>", "key_press": -1, "type": "PRES_VIS", "word": "glove", "wordID": 641, "conditions": [18, 1200, "v", 18000], "trial": 1, "serialpos": 12, "trial_type": "single-stim", "trial_index": 67, "time_elapsed": 378276, "internal_node_id": "0.0-49.0"}}, {"uniqueid": "MTK0901:3NJM2BJS4XDRYDKC2Z7E6XNEJOZPCF", "current_trial": 68, "dateTime": 1512869041635, "trialdata": {"rt": -1, "stimulus": "<p id=\"stim\">FREEZER</p>", "key_press": -1, "type": "PRES_VIS", "word": "freezer", "wordID": 603, "conditions": [18, 1200, "v", 18000], "trial": 1, "serialpos": 13, "trial_type": "single-stim", "trial_index": 68, "time_elapsed": 380434, "internal_node_id": "0.0-50.0"}}, {"uniqueid": "MTK0901:3NJM2BJS4XDRYDKC2Z7E6XNEJOZPCF", "current_trial": 69, "dateTime": 1512869043971, "trialdata": {"rt": -1, "stimulus": "<p id=\"stim\">FIDDLE</p>", "key_press": -1, "type": "PRES_VIS", "word": "fiddle", "wordID": 560, "conditions": [18, 1200, "v", 18000], "trial": 1, "serialpos": 14, "trial_type": "single-stim", "trial_index": 69, "time_elapsed": 382774, "internal_node_id": "0.0-51.0"}}, {"uniqueid": "MTK0901:3NJM2BJS4XDRYDKC2Z7E6XNEJOZPCF", "current_trial": 70, "dateTime": 1512869046232, "trialdata": {"rt": -1, "stimulus": "<p id=\"stim\">PIGEON</p>", "key_press": -1, "type": "PRES_VIS", "word": "pigeon", "wordID": 1064, "conditions": [18, 1200, "v", 18000], "trial": 1, "serialpos": 15, "trial_type": "single-stim", "trial_index": 70, "time_elapsed": 385035, "internal_node_id": "0.0-52.0"}}, {"uniqueid": "MTK0901:3NJM2BJS4XDRYDKC2Z7E6XNEJOZPCF", "current_trial": 71, "dateTime": 1512869048526, "trialdata": {"rt": -1, "stimulus": "<p id=\"stim\">PEANUT</p>", "key_press": -1, "type": "PRES_VIS", "word": "peanut", "wordID": 1031, "conditions": [18, 1200, "v", 18000], "trial": 1, "serialpos": 16, "trial_type": "single-stim", "trial_index": 71, "time_elapsed": 387329, "internal_node_id": "0.0-53.0"}}, {"uniqueid": "MTK0901:3NJM2BJS4XDRYDKC2Z7E6XNEJOZPCF", "current_trial": 72, "dateTime": 1512869050580, "trialdata": {"rt": -1, "stimulus": "<p id=\"stim\">PORK</p>", "key_press": -1, "type": "PRES_VIS", "word": "pork", "wordID": 1107, "conditions": [18, 1200, "v", 18000], "trial": 1, "serialpos": 17, "trial_type": "single-stim", "trial_index": 72, "time_elapsed": 389383, "internal_node_id": "0.0-54.0"}}, {"uniqueid": "MTK0901:3NJM2BJS4XDRYDKC2Z7E6XNEJOZPCF", "current_trial": 73, "dateTime": 1512869052849, "trialdata": {"rt": -1, "stimulus": "", "key_press": -1, "type": "PRE_RECALL_DELAY", "trial_type": "single-stim", "trial_index": 73, "time_elapsed": 391652, "internal_node_id": "0.0-55.0-0.0"}}, {"uniqueid": "MTK0901:3NJM2BJS4XDRYDKC2Z7E6XNEJOZPCF", "current_trial": 74, "dateTime": 1512869053351, "trialdata": {"rt": -1000, "stimulus": "/static/audio/400Hz.wav", "key_press": -1, "type": "PRE_RECALL_ALERT", "trial_type": "single-audio", "trial_index": 74, "time_elapsed": 392154, "internal_node_id": "0.0-56.0"}}, {"uniqueid": "MTK0901:3NJM2BJS4XDRYDKC2Z7E6XNEJOZPCF", "current_trial": 75, "dateTime": 1512869113359, "trialdata": {"rt": [3908, 6809, 10341, 13678, 18404], "recwords": ["crab", "tutu", "tuba", "fiddle", "peanut"], "type": "FREE_RECALL", "conditions": [18, 1200, "v", 18000], "trial": 1, "trial_type": "free-recall", "trial_index": 75, "time_elapsed": 452158, "internal_node_id": "0.0-57.0-0.0"}}, {"uniqueid": "MTK0901:3NJM2BJS4XDRYDKC2Z7E6XNEJOZPCF", "current_trial": 76, "dateTime": 1512869118690, "trialdata": {"rt": 3304, "key_press": 32, "type": "INSTRUCTIONS", "trial_type": "text", "trial_index": 76, "time_elapsed": 457468, "internal_node_id": "0.0-58.0"}}, {"uniqueid": "MTK0901:3NJM2BJS4XDRYDKC2Z7E6XNEJOZPCF", "current_trial": 77, "dateTime": 1512869131696, "trialdata": {"rt": [3693, 6024, 8367, 10775], "responses": ["15", "19", "8", "11"], "num1": [4, 5, 3, 4, 3], "num2": [2, 9, 3, 3, 4], "num3": [9, 5, 2, 4, 1], "type": "DISTRACTOR", "conditions": [24, 800, "v", 12000], "trial": 2, "trial_type": "math-distractor", "trial_index": 77, "time_elapsed": 470499, "internal_node_id": "0.0-59.0"}}, {"uniqueid": "MTK0901:3NJM2BJS4XDRYDKC2Z7E6XNEJOZPCF", "current_trial": 78, "dateTime": 1512869134698, "trialdata": {"rt": -1, "stimulus": "<p id=\"stim\">10</p>", "key_press": -1, "trial_type": "single-stim", "trial_index": 78, "time_elapsed": 473501, "internal_node_id": "0.0-60.0-0.0"}}, {"uniqueid": "MTK0901:3NJM2BJS4XDRYDKC2Z7E6XNEJOZPCF", "current_trial": 79, "dateTime": 1512869135700, "trialdata": {"rt": -1, "stimulus": "<p id=\"stim\">9</p>", "key_press": -1, "trial_type": "single-stim", "trial_index": 79, "time_elapsed": 474503, "internal_node_id": "0.0-60.0-1.0"}}, {"uniqueid": "MTK0901:3NJM2BJS4XDRYDKC2Z7E6XNEJOZPCF", "current_trial": 80, "dateTime": 1512869136701, "trialdata": {"rt": -1, "stimulus": "<p id=\"stim\">8</p>", "key_press": -1, "trial_type": "single-stim", "trial_index": 80, "time_elapsed": 475504, "internal_node_id": "0.0-60.0-2.0"}}, {"uniqueid": "MTK0901:3NJM2BJS4XDRYDKC2Z7E6XNEJOZPCF", "current_trial": 81, "dateTime": 1512869137703, "trialdata": {"rt": -1, "stimulus": "<p id=\"stim\">7</p>", "key_press": -1, "trial_type": "single-stim", "trial_index": 81, "time_elapsed": 476506, "internal_node_id": "0.0-60.0-3.0"}}, {"uniqueid": "MTK0901:3NJM2BJS4XDRYDKC2Z7E6XNEJOZPCF", "current_trial": 82, "dateTime": 1512869138705, "trialdata": {"rt": -1, "stimulus": "<p id=\"stim\">6</p>", "key_press": -1, "trial_type": "single-stim", "trial_index": 82, "time_elapsed": 477508, "internal_node_id": "0.0-60.0-4.0"}}, {"uniqueid": "MTK0901:3NJM2BJS4XDRYDKC2Z7E6XNEJOZPCF", "current_trial": 83, "dateTime": 1512869139707, "trialdata": {"rt": -1, "stimulus": "<p id=\"stim\">5</p>", "key_press": -1, "trial_type": "single-stim", "trial_index": 83, "time_elapsed": 478510, "internal_node_id": "0.0-60.0-5.0"}}, {"uniqueid": "MTK0901:3NJM2BJS4XDRYDKC2Z7E6XNEJOZPCF", "current_trial": 84, "dateTime": 1512869140709, "trialdata": {"rt": -1, "stimulus": "<p id=\"stim\">4</p>", "key_press": -1, "trial_type": "single-stim", "trial_index": 84, "time_elapsed": 479512, "internal_node_id": "0.0-60.0-6.0"}}, {"uniqueid": "MTK0901:3NJM2BJS4XDRYDKC2Z7E6XNEJOZPCF", "current_trial": 85, "dateTime": 1512869141711, "trialdata": {"rt": -1, "stimulus": "<p id=\"stim\">3</p>", "key_press": -1, "trial_type": "single-stim", "trial_index": 85, "time_elapsed": 480514, "internal_node_id": "0.0-60.0-7.0"}}, {"uniqueid": "MTK0901:3NJM2BJS4XDRYDKC2Z7E6XNEJOZPCF", "current_trial": 86, "dateTime": 1512869142712, "trialdata": {"rt": -1, "stimulus": "<p id=\"stim\">2</p>", "key_press": -1, "trial_type": "single-stim", "trial_index": 86, "time_elapsed": 481515, "internal_node_id": "0.0-60.0-8.0"}}, {"uniqueid": "MTK0901:3NJM2BJS4XDRYDKC2Z7E6XNEJOZPCF", "current_trial": 87, "dateTime": 1512869143715, "trialdata": {"rt": -1, "stimulus": "<p id=\"stim\">1</p>", "key_press": -1, "trial_type": "single-stim", "trial_index": 87, "time_elapsed": 482517, "internal_node_id": "0.0-60.0-9.0"}}, {"uniqueid": "MTK0901:3NJM2BJS4XDRYDKC2Z7E6XNEJOZPCF", "current_trial": 88, "dateTime": 1512869145217, "trialdata": {"rt": -1, "stimulus": "<p id=\"stim\">+</p>", "key_press": -1, "type": "FIXATION", "trial_type": "single-stim", "trial_index": 88, "time_elapsed": 484020, "internal_node_id": "0.0-61.0-0.0"}}, {"uniqueid": "MTK0901:3NJM2BJS4XDRYDKC2Z7E6XNEJOZPCF", "current_trial": 89, "dateTime": 1512869146018, "trialdata": {"rt": -1, "stimulus": "<p id=\"stim\">POSTAGE</p>", "key_press": -1, "type": "PRES_VIS", "word": "postage", "wordID": 1112, "conditions": [24, 800, "v", 12000], "trial": 2, "serialpos": 0, "trial_type": "single-stim", "trial_index": 89, "time_elapsed": 484821, "internal_node_id": "0.0-62.0"}}, {"uniqueid": "MTK0901:3NJM2BJS4XDRYDKC2Z7E6XNEJOZPCF", "current_trial": 90, "dateTime": 1512869147887, "trialdata": {"rt": -1, "stimulus": "<p id=\"stim\">GYMNAST</p>", "key_press": -1, "type": "PRES_VIS", "word": "gymnast", "wordID": 674, "conditions": [24, 800, "v", 12000], "trial": 2, "serialpos": 1, "trial_type": "single-stim", "trial_index": 90, "time_elapsed": 486690, "internal_node_id": "0.0-63.0"}}, {"uniqueid": "MTK0901:3NJM2BJS4XDRYDKC2Z7E6XNEJOZPCF", "current_trial": 91, "dateTime": 1512869149621, "trialdata": {"rt": -1, "stimulus": "<p id=\"stim\">SCARECROW</p>", "key_press": -1, "type": "PRES_VIS", "word": "scarecrow", "wordID": 1244, "conditions": [24, 800, "v", 12000], "trial": 2, "serialpos": 2, "trial_type": "single-stim", "trial_index": 91, "time_elapsed": 488423, "internal_node_id": "0.0-64.0"}}, {"uniqueid": "MTK0901:3NJM2BJS4XDRYDKC2Z7E6XNEJOZPCF", "current_trial": 92, "dateTime": 1512869151384, "trialdata": {"rt": -1, "stimulus": "<p id=\"stim\">BUG</p>", "key_press": -1, "type": "PRES_VIS", "word": "bug", "wordID": 186, "conditions": [24, 800, "v", 12000], "trial": 2, "serialpos": 3, "trial_type": "single-stim", "trial_index": 92, "time_elapsed": 490187, "internal_node_id": "0.0-65.0"}}, {"uniqueid": "MTK0901:3NJM2BJS4XDRYDKC2Z7E6XNEJOZPCF", "current_trial": 93, "dateTime": 1512869153036, "trialdata": {"rt": -1, "stimulus": "<p id=\"stim\">PARROT</p>", "key_press": -1, "type": "PRES_VIS", "word": "parrot", "wordID": 1014, "conditions": [24, 800, "v", 12000], "trial": 2, "serialpos": 4, "trial_type": "single-stim", "trial_index": 93, "time_elapsed": 491839, "internal_node_id": "0.0-66.0"}}, {"uniqueid": "MTK0901:3NJM2BJS4XDRYDKC2Z7E6XNEJOZPCF", "current_trial": 94, "dateTime": 1512869154983, "trialdata": {"rt": -1, "stimulus": "<p id=\"stim\">WASP</p>", "key_press": -1, "type": "PRES_VIS", "word": "wasp", "wordID": 1592, "conditions": [24, 800, "v", 12000], "trial": 2, "serialpos": 5, "trial_type": "single-stim", "trial_index": 94, "time_elapsed": 493785, "internal_node_id": "0.0-67.0"}}, {"uniqueid": "MTK0901:3NJM2BJS4XDRYDKC2Z7E6XNEJOZPCF", "current_trial": 95, "dateTime": 1512869156890, "trialdata": {"rt": -1, "stimulus": "<p id=\"stim\">SPIDER</p>", "key_press": -1, "type": "PRES_VIS", "word": "spider", "wordID": 1350, "conditions": [24, 800, "v", 12000], "trial": 2, "serialpos": 6, "trial_type": "single-stim", "trial_index": 95, "time_elapsed": 495693, "internal_node_id": "0.0-68.0"}}, {"uniqueid": "MTK0901:3NJM2BJS4XDRYDKC2Z7E6XNEJOZPCF", "current_trial": 96, "dateTime": 1512869158838, "trialdata": {"rt": -1, "stimulus": "<p id=\"stim\">TURKEY</p>", "key_press": -1, "type": "PRES_VIS", "word": "turkey", "wordID": 1519, "conditions": [24, 800, "v", 12000], "trial": 2, "serialpos": 7, "trial_type": "single-stim", "trial_index": 96, "time_elapsed": 497641, "internal_node_id": "0.0-69.0"}}, {"uniqueid": "MTK0901:3NJM2BJS4XDRYDKC2Z7E6XNEJOZPCF", "current_trial": 97, "dateTime": 1512869160724, "trialdata": {"rt": -1, "stimulus": "<p id=\"stim\">CIGAR</p>", "key_press": -1, "type": "PRES_VIS", "word": "cigar", "wordID": 307, "conditions": [24, 800, "v", 12000], "trial": 2, "serialpos": 8, "trial_type": "single-stim", "trial_index": 97, "time_elapsed": 499527, "internal_node_id": "0.0-70.0"}}, {"uniqueid": "MTK0901:3NJM2BJS4XDRYDKC2Z7E6XNEJOZPCF", "current_trial": 98, "dateTime": 1512869162526, "trialdata": {"rt": -1, "stimulus": "<p id=\"stim\">STAR</p>", "key_press": -1, "type": "PRES_VIS", "word": "star", "wordID": 1372, "conditions": [24, 800, "v", 12000], "trial": 2, "serialpos": 9, "trial_type": "single-stim", "trial_index": 98, "time_elapsed": 501329, "internal_node_id": "0.0-71.0"}}, {"uniqueid": "MTK0901:3NJM2BJS4XDRYDKC2Z7E6XNEJOZPCF", "current_trial": 99, "dateTime": 1512869164423, "trialdata": {"rt": -1, "stimulus": "<p id=\"stim\">DANCER</p>", "key_press": -1, "type": "PRES_VIS", "word": "dancer", "wordID": 436, "conditions": [24, 800, "v", 12000], "trial": 2, "serialpos": 10, "trial_type": "single-stim", "trial_index": 99, "time_elapsed": 503225, "internal_node_id": "0.0-72.0"}}, {"uniqueid": "MTK0901:3NJM2BJS4XDRYDKC2Z7E6XNEJOZPCF", "current_trial": 100, "dateTime": 1512869166214, "trialdata": {"rt": -1, "stimulus": "<p id=\"stim\">JUNGLE</p>", "key_press": -1, "type": "PRES_VIS", "word": "jungle", "wordID": 763, "conditions": [24, 800, "v", 12000], "trial": 2, "serialpos": 11, "trial_type": "single-stim", "trial_index": 100, "time_elapsed": 505017, "internal_node_id": "0.0-73.0"}}, {"uniqueid": "MTK0901:3NJM2BJS4XDRYDKC2Z7E6XNEJOZPCF", "current_trial": 101, "dateTime": 1512869168133, "trialdata": {"rt": -1, "stimulus": "<p id=\"stim\">TRENCH</p>", "key_press": -1, "type": "PRES_VIS", "word": "trench", "wordID": 1502, "conditions": [24, 800, "v", 12000], "trial": 2, "serialpos": 12, "trial_type": "single-stim", "trial_index": 101, "time_elapsed": 506936, "internal_node_id": "0.0-74.0"}}, {"uniqueid": "MTK0901:3NJM2BJS4XDRYDKC2Z7E6XNEJOZPCF", "current_trial": 102, "dateTime": 1512869170011, "trialdata": {"rt": -1, "stimulus": "<p id=\"stim\">RABBIT</p>", "key_press": -1, "type": "PRES_VIS", "word": "rabbit", "wordID": 1151, "conditions": [24, 800, "v", 12000], "trial": 2, "serialpos": 13, "trial_type": "single-stim", "trial_index": 102, "time_elapsed": 508813, "internal_node_id": "0.0-75.0"}}, {"uniqueid": "MTK0901:3NJM2BJS4XDRYDKC2Z7E6XNEJOZPCF", "current_trial": 103, "dateTime": 1512869171801, "trialdata": {"rt": -1, "stimulus": "<p id=\"stim\">HERO</p>", "key_press": -1, "type": "PRES_VIS", "word": "hero", "wordID": 705, "conditions": [24, 800, "v", 12000], "trial": 2, "serialpos": 14, "trial_type": "single-stim", "trial_index": 103, "time_elapsed": 510604, "internal_node_id": "0.0-76.0"}}, {"uniqueid": "MTK0901:3NJM2BJS4XDRYDKC2Z7E6XNEJOZPCF", "current_trial": 104, "dateTime": 1512869173417, "trialdata": {"rt": -1, "stimulus": "<p id=\"stim\">HOOK</p>", "key_press": -1, "type": "PRES_VIS", "word": "hook", "wordID": 714, "conditions": [24, 800, "v", 12000], "trial": 2, "serialpos": 15, "trial_type": "single-stim", "trial_index": 104, "time_elapsed": 512219, "internal_node_id": "0.0-77.0"}}, {"uniqueid": "MTK0901:3NJM2BJS4XDRYDKC2Z7E6XNEJOZPCF", "current_trial": 105, "dateTime": 1512869175033, "trialdata": {"rt": -1, "stimulus": "<p id=\"stim\">MISTER</p>", "key_press": -1, "type": "PRES_VIS", "word": "mister", "wordID": 900, "conditions": [24, 800, "v", 12000], "trial": 2, "serialpos": 16, "trial_type": "single-stim", "trial_index": 105, "time_elapsed": 513836, "internal_node_id": "0.0-78.0"}}, {"uniqueid": "MTK0901:3NJM2BJS4XDRYDKC2Z7E6XNEJOZPCF", "current_trial": 106, "dateTime": 1512869176973, "trialdata": {"rt": -1, "stimulus": "<p id=\"stim\">SPOOL</p>", "key_press": -1, "type": "PRES_VIS", "word": "spool", "wordID": 1355, "conditions": [24, 800, "v", 12000], "trial": 2, "serialpos": 17, "trial_type": "single-stim", "trial_index": 106, "time_elapsed": 515776, "internal_node_id": "0.0-79.0"}}, {"uniqueid": "MTK0901:3NJM2BJS4XDRYDKC2Z7E6XNEJOZPCF", "current_trial": 107, "dateTime": 1512869178906, "trialdata": {"rt": -1, "stimulus": "<p id=\"stim\">LAKE</p>", "key_press": -1, "type": "PRES_VIS", "word": "lake", "wordID": 795, "conditions": [24, 800, "v", 12000], "trial": 2, "serialpos": 18, "trial_type": "single-stim", "trial_index": 107, "time_elapsed": 517709, "internal_node_id": "0.0-80.0"}}, {"uniqueid": "MTK0901:3NJM2BJS4XDRYDKC2Z7E6XNEJOZPCF", "current_trial": 108, "dateTime": 1512869180793, "trialdata": {"rt": -1, "stimulus": "<p id=\"stim\">BRICK</p>", "key_press": -1, "type": "PRES_VIS", "word": "brick", "wordID": 171, "conditions": [24, 800, "v", 12000], "trial": 2, "serialpos": 19, "trial_type": "single-stim", "trial_index": 108, "time_elapsed": 519596, "internal_node_id": "0.0-81.0"}}, {"uniqueid": "MTK0901:3NJM2BJS4XDRYDKC2Z7E6XNEJOZPCF", "current_trial": 109, "dateTime": 1512869182750, "trialdata": {"rt": -1, "stimulus": "<p id=\"stim\">STONE</p>", "key_press": -1, "type": "PRES_VIS", "word": "stone", "wordID": 1384, "conditions": [24, 800, "v", 12000], "trial": 2, "serialpos": 20, "trial_type": "single-stim", "trial_index": 109, "time_elapsed": 521553, "internal_node_id": "0.0-82.0"}}, {"uniqueid": "MTK0901:3NJM2BJS4XDRYDKC2Z7E6XNEJOZPCF", "current_trial": 110, "dateTime": 1512869184750, "trialdata": {"rt": -1, "stimulus": "<p id=\"stim\">PASTA</p>", "key_press": -1, "type": "PRES_VIS", "word": "pasta", "wordID": 1020, "conditions": [24, 800, "v", 12000], "trial": 2, "serialpos": 21, "trial_type": "single-stim", "trial_index": 110, "time_elapsed": 523553, "internal_node_id": "0.0-83.0"}}, {"uniqueid": "MTK0901:3NJM2BJS4XDRYDKC2Z7E6XNEJOZPCF", "current_trial": 111, "dateTime": 1512869186355, "trialdata": {"rt": -1, "stimulus": "<p id=\"stim\">SHORTS</p>", "key_press": -1, "type": "PRES_VIS", "word": "shorts", "wordID": 1292, "conditions": [24, 800, "v", 12000], "trial": 2, "serialpos": 22, "trial_type": "single-stim", "trial_index": 111, "time_elapsed": 525157, "internal_node_id": "0.0-84.0"}}, {"uniqueid": "MTK0901:3NJM2BJS4XDRYDKC2Z7E6XNEJOZPCF", "current_trial": 112, "dateTime": 1512869188007, "trialdata": {"rt": -1, "stimulus": "<p id=\"stim\">CANAL</p>", "key_press": -1, "type": "PRES_VIS", "word": "canal", "wordID": 225, "conditions": [24, 800, "v", 12000], "trial": 2, "serialpos": 23, "trial_type": "single-stim", "trial_index": 112, "time_elapsed": 526810, "internal_node_id": "0.0-85.0"}}, {"uniqueid": "MTK0901:3NJM2BJS4XDRYDKC2Z7E6XNEJOZPCF", "current_trial": 113, "dateTime": 1512869190151, "trialdata": {"rt": -1, "stimulus": "", "key_press": -1, "type": "PRE_RECALL_DELAY", "trial_type": "single-stim", "trial_index": 113, "time_elapsed": 528954, "internal_node_id": "0.0-86.0-0.0"}}, {"uniqueid": "MTK0901:3NJM2BJS4XDRYDKC2Z7E6XNEJOZPCF", "current_trial": 114, "dateTime": 1512869190653, "trialdata": {"rt": -1000, "stimulus": "/static/audio/400Hz.wav", "key_press": -1, "type": "PRE_RECALL_ALERT", "trial_type": "single-audio", "trial_index": 114, "time_elapsed": 529456, "internal_node_id": "0.0-87.0"}}, {"uniqueid": "MTK0901:3NJM2BJS4XDRYDKC2Z7E6XNEJOZPCF", "current_trial": 115, "dateTime": 1512869250663, "trialdata": {"rt": [4203, 6295, 8095, 9545, 12944], "recwords": ["message", "spool", "brick", "stone", "lake"], "type": "FREE_RECALL", "conditions": [24, 800, "v", 12000], "trial": 2, "trial_type": "free-recall", "trial_index": 115, "time_elapsed": 589460, "internal_node_id": "0.0-88.0-0.0"}}, {"uniqueid": "MTK0901:3NJM2BJS4XDRYDKC2Z7E6XNEJOZPCF", "current_trial": 116, "dateTime": 1512869254063, "trialdata": {"rt": 1399, "key_press": 32, "type": "INSTRUCTIONS", "trial_type": "text", "trial_index": 116, "time_elapsed": 592865, "internal_node_id": "0.0-89.0"}}, {"uniqueid": "MTK0901:3NJM2BJS4XDRYDKC2Z7E6XNEJOZPCF", "current_trial": 117, "dateTime": 1512869280068, "trialdata": {"rt": [2303, 5836, 9137, 11233, 13914, 16152, 18837, 20756, 23075], "responses": ["13", "19", "17", "8", "16", "9", "11", "16", "9"], "num1": [8, 3, 6, 1, 4, 1, 2, 8, 1, 4], "num2": [2, 8, 8, 3, 5, 6, 5, 2, 5, 9], "num3": [3, 8, 3, 4, 7, 2, 4, 6, 3, 6], "type": "DISTRACTOR", "conditions": [12, 800, "a", 24000], "trial": 3, "trial_type": "math-distractor", "trial_index": 117, "time_elapsed": 618870, "internal_node_id": "0.0-90.0"}}, {"uniqueid": "MTK0901:3NJM2BJS4XDRYDKC2Z7E6XNEJOZPCF", "current_trial": 118, "dateTime": 1512869283071, "trialdata": {"rt": -1, "stimulus": "<p id=\"stim\">10</p>", "key_press": -1, "trial_type": "single-stim", "trial_index": 118, "time_elapsed": 621874, "internal_node_id": "0.0-91.0-0.0"}}, {"uniqueid": "MTK0901:3NJM2BJS4XDRYDKC2Z7E6XNEJOZPCF", "current_trial": 119, "dateTime": 1512869284072, "trialdata": {"rt": -1, "stimulus": "<p id=\"stim\">9</p>", "key_press": -1, "trial_type": "single-stim", "trial_index": 119, "time_elapsed": 622875, "internal_node_id": "0.0-91.0-1.0"}}, {"uniqueid": "MTK0901:3NJM2BJS4XDRYDKC2Z7E6XNEJOZPCF", "current_trial": 120, "dateTime": 1512869285075, "trialdata": {"rt": -1, "stimulus": "<p id=\"stim\">8</p>", "key_press": -1, "trial_type": "single-stim", "trial_index": 120, "time_elapsed": 623877, "internal_node_id": "0.0-91.0-2.0"}}, {"uniqueid": "MTK0901:3NJM2BJS4XDRYDKC2Z7E6XNEJOZPCF", "current_trial": 121, "dateTime": 1512869286077, "trialdata": {"rt": -1, "stimulus": "<p id=\"stim\">7</p>", "key_press": -1, "trial_type": "single-stim", "trial_index": 121, "time_elapsed": 624879, "internal_node_id": "0.0-91.0-3.0"}}, {"uniqueid": "MTK0901:3NJM2BJS4XDRYDKC2Z7E6XNEJOZPCF", "current_trial": 122, "dateTime": 1512869287079, "trialdata": {"rt": -1, "stimulus": "<p id=\"stim\">6</p>", "key_press": -1, "trial_type": "single-stim", "trial_index": 122, "time_elapsed": 625882, "internal_node_id": "0.0-91.0-4.0"}}, {"uniqueid": "MTK0901:3NJM2BJS4XDRYDKC2Z7E6XNEJOZPCF", "current_trial": 123, "dateTime": 1512869288081, "trialdata": {"rt": -1, "stimulus": "<p id=\"stim\">5</p>", "key_press": -1, "trial_type": "single-stim", "trial_index": 123, "time_elapsed": 626883, "internal_node_id": "0.0-91.0-5.0"}}, {"uniqueid": "MTK0901:3NJM2BJS4XDRYDKC2Z7E6XNEJOZPCF", "current_trial": 124, "dateTime": 1512869289083, "trialdata": {"rt": -1, "stimulus": "<p id=\"stim\">4</p>", "key_press": -1, "trial_type": "single-stim", "trial_index": 124, "time_elapsed": 627886, "internal_node_id": "0.0-91.0-6.0"}}, {"uniqueid": "MTK0901:3NJM2BJS4XDRYDKC2Z7E6XNEJOZPCF", "current_trial": 125, "dateTime": 1512869290085, "trialdata": {"rt": -1, "stimulus": "<p id=\"stim\">3</p>", "key_press": -1, "trial_type": "single-stim", "trial_index": 125, "time_elapsed": 628888, "internal_node_id": "0.0-91.0-7.0"}}, {"uniqueid": "MTK0901:3NJM2BJS4XDRYDKC2Z7E6XNEJOZPCF", "current_trial": 126, "dateTime": 1512869291087, "trialdata": {"rt": -1, "stimulus": "<p id=\"stim\">2</p>", "key_press": -1, "trial_type": "single-stim", "trial_index": 126, "time_elapsed": 629890, "internal_node_id": "0.0-91.0-8.0"}}, {"uniqueid": "MTK0901:3NJM2BJS4XDRYDKC2Z7E6XNEJOZPCF", "current_trial": 127, "dateTime": 1512869292088, "trialdata": {"rt": -1, "stimulus": "<p id=\"stim\">1</p>", "key_press": -1, "trial_type": "single-stim", "trial_index": 127, "time_elapsed": 630891, "internal_node_id": "0.0-91.0-9.0"}}, {"uniqueid": "MTK0901:3NJM2BJS4XDRYDKC2Z7E6XNEJOZPCF", "current_trial": 128, "dateTime": 1512869293591, "trialdata": {"rt": -1, "stimulus": "<p id=\"stim\">+</p>", "key_press": -1, "type": "FIXATION", "trial_type": "single-stim", "trial_index": 128, "time_elapsed": 632393, "internal_node_id": "0.0-92.0-0.0"}}, {"uniqueid": "MTK0901:3NJM2BJS4XDRYDKC2Z7E6XNEJOZPCF", "current_trial": 129, "dateTime": 1512869295431, "trialdata": {"rt": -1000, "stimulus": "/static/audio/wordpool/NIGHTGOWN.wav", "key_press": -1, "type": "PRES_AUD", "word": "nightgown", "wordID": 952, "conditions": [12, 800, "a", 24000], "trial": 3, "serialpos": 0, "trial_type": "single-audio", "trial_index": 129, "time_elapsed": 634234, "internal_node_id": "0.0-93.0"}}, {"uniqueid": "MTK0901:3NJM2BJS4XDRYDKC2Z7E6XNEJOZPCF", "current_trial": 130, "dateTime": 1512869297114, "trialdata": {"rt": -1000, "stimulus": "/static/audio/wordpool/OYSTER.wav", "key_press": -1, "type": "PRES_AUD", "word": "oyster", "wordID": 994, "conditions": [12, 800, "a", 24000], "trial": 3, "serialpos": 1, "trial_type": "single-audio", "trial_index": 130, "time_elapsed": 635916, "internal_node_id": "0.0-94.0"}}, {"uniqueid": "MTK0901:3NJM2BJS4XDRYDKC2Z7E6XNEJOZPCF", "current_trial": 131, "dateTime": 1512869299030, "trialdata": {"rt": -1000, "stimulus": "/static/audio/wordpool/ORCHID.wav", "key_press": -1, "type": "PRES_AUD", "word": "orchid", "wordID": 981, "conditions": [12, 800, "a", 24000], "trial": 3, "serialpos": 2, "trial_type": "single-audio", "trial_index": 131, "time_elapsed": 637833, "internal_node_id": "0.0-95.0"}}, {"uniqueid": "MTK0901:3NJM2BJS4XDRYDKC2Z7E6XNEJOZPCF", "current_trial": 132, "dateTime": 1512869300657, "trialdata": {"rt": 390.66666666656147, "stimulus": "/static/audio/wordpool/SCARF.wav", "key_press": 175, "type": "PRES_AUD", "word": "scarf", "wordID": 1245, "conditions": [12, 800, "a", 24000], "trial": 3, "serialpos": 3, "trial_type": "single-audio", "trial_index": 132, "time_elapsed": 639460, "internal_node_id": "0.0-96.0"}}, {"uniqueid": "MTK0901:3NJM2BJS4XDRYDKC2Z7E6XNEJOZPCF", "current_trial": 133, "dateTime": 1512869302388, "trialdata": {"rt": -1000, "stimulus": "/static/audio/wordpool/TURNIP.wav", "key_press": -1, "type": "PRES_AUD", "word": "turnip", "wordID": 1520, "conditions": [12, 800, "a", 24000], "trial": 3, "serialpos": 4, "trial_type": "single-audio", "trial_index": 133, "time_elapsed": 641191, "internal_node_id": "0.0-97.0"}}, {"uniqueid": "MTK0901:3NJM2BJS4XDRYDKC2Z7E6XNEJOZPCF", "current_trial": 134, "dateTime": 1512869304153, "trialdata": {"rt": -28.00000000002001, "stimulus": "/static/audio/wordpool/MOTOR.wav", "key_press": 175, "type": "PRES_AUD", "word": "motor", "wordID": 921, "conditions": [12, 800, "a", 24000], "trial": 3, "serialpos": 5, "trial_type": "single-audio", "trial_index": 134, "time_elapsed": 642956, "internal_node_id": "0.0-98.0"}}, {"uniqueid": "MTK0901:3NJM2BJS4XDRYDKC2Z7E6XNEJOZPCF", "current_trial": 135, "dateTime": 1512869305995, "trialdata": {"rt": -1000, "stimulus": "/static/audio/wordpool/MILDEW.wav", "key_press": -1, "type": "PRES_AUD", "word": "mildew", "wordID": 892, "conditions": [12, 800, "a", 24000], "trial": 3, "serialpos": 6, "trial_type": "single-audio", "trial_index": 135, "time_elapsed": 644798, "internal_node_id": "0.0-99.0"}}, {"uniqueid": "MTK0901:3NJM2BJS4XDRYDKC2Z7E6XNEJOZPCF", "current_trial": 136, "dateTime": 1512869307974, "trialdata": {"rt": -1000, "stimulus": "/static/audio/wordpool/GALLON.wav", "key_press": -1, "type": "PRES_AUD", "word": "gallon", "wordID": 617, "conditions": [12, 800, "a", 24000], "trial": 3, "serialpos": 7, "trial_type": "single-audio", "trial_index": 136, "time_elapsed": 646777, "internal_node_id": "0.0-100.0"}}, {"uniqueid": "MTK0901:3NJM2BJS4XDRYDKC2Z7E6XNEJOZPCF", "current_trial": 137, "dateTime": 1512869309768, "trialdata": {"rt": -1000, "stimulus": "/static/audio/wordpool/BARREL.wav", "key_press": -1, "type": "PRES_AUD", "word": "barrel", "wordID": 90, "conditions": [12, 800, "a", 24000], "trial": 3, "serialpos": 8, "trial_type": "single-audio", "trial_index": 137, "time_elapsed": 648571, "internal_node_id": "0.0-101.0"}}, {"uniqueid": "MTK0901:3NJM2BJS4XDRYDKC2Z7E6XNEJOZPCF", "current_trial": 138, "dateTime": 1512869311568, "trialdata": {"rt": -1000, "stimulus": "/static/audio/wordpool/SKETCH.wav", "key_press": -1, "type": "PRES_AUD", "word": "sketch", "wordID": 1314, "conditions": [12, 800, "a", 24000], "trial": 3, "serialpos": 9, "trial_type": "single-audio", "trial_index": 138, "time_elapsed": 650371, "internal_node_id": "0.0-102.0"}}, {"uniqueid": "MTK0901:3NJM2BJS4XDRYDKC2Z7E6XNEJOZPCF", "current_trial": 139, "dateTime": 1512869313226, "trialdata": {"rt": -1000, "stimulus": "/static/audio/wordpool/SHIRT.wav", "key_press": -1, "type": "PRES_AUD", "word": "shirt", "wordID": 1286, "conditions": [12, 800, "a", 24000], "trial": 3, "serialpos": 10, "trial_type": "single-audio", "trial_index": 139, "time_elapsed": 652029, "internal_node_id": "0.0-103.0"}}, {"uniqueid": "MTK0901:3NJM2BJS4XDRYDKC2Z7E6XNEJOZPCF", "current_trial": 140, "dateTime": 1512869315147, "trialdata": {"rt": -1000, "stimulus": "/static/audio/wordpool/WINDOW.wav", "key_press": -1, "type": "PRES_AUD", "word": "window", "wordID": 1610, "conditions": [12, 800, "a", 24000], "trial": 3, "serialpos": 11, "trial_type": "single-audio", "trial_index": 140, "time_elapsed": 653950, "internal_node_id": "0.0-104.0"}}, {"uniqueid": "MTK0901:3NJM2BJS4XDRYDKC2Z7E6XNEJOZPCF", "current_trial": 141, "dateTime": 1512869316489, "trialdata": {"rt": -1, "stimulus": "", "key_press": -1, "type": "PRE_RECALL_DELAY", "trial_type": "single-stim", "trial_index": 141, "time_elapsed": 655292, "internal_node_id": "0.0-105.0-0.0"}}, {"uniqueid": "MTK0901:3NJM2BJS4XDRYDKC2Z7E6XNEJOZPCF", "current_trial": 142, "dateTime": 1512869316992, "trialdata": {"rt": -1000, "stimulus": "/static/audio/400Hz.wav", "key_press": -1, "type": "PRE_RECALL_ALERT", "trial_type": "single-audio", "trial_index": 142, "time_elapsed": 655795, "internal_node_id": "0.0-106.0"}}, {"uniqueid": "MTK0901:3NJM2BJS4XDRYDKC2Z7E6XNEJOZPCF", "current_trial": 143, "dateTime": 1512869377001, "trialdata": {"rt": [4025, 5804, 7260, 8198, 9426, 14779], "recwords": ["nightgown", "orchid", "gallon", "shirt", "window", "oyster"], "type": "FREE_RECALL", "conditions": [12, 800, "a", 24000], "trial": 3, "trial_type": "free-recall", "trial_index": 143, "time_elapsed": 715799, "internal_node_id": "0.0-107.0-0.0"}}, {"uniqueid": "MTK0901:3NJM2BJS4XDRYDKC2Z7E6XNEJOZPCF", "current_trial": 144, "dateTime": 1512869380344, "trialdata": {"rt": 1340, "key_press": 96, "type": "INSTRUCTIONS", "trial_type": "text", "trial_index": 144, "time_elapsed": 719146, "internal_node_id": "0.0-108.0"}}, {"uniqueid": "MTK0901:3NJM2BJS4XDRYDKC2Z7E6XNEJOZPCF", "current_trial": 145, "dateTime": 1512869394347, "trialdata": {"rt": [1957, 5676, 8162, 11244], "responses": ["8", "23", "16", "17"], "num1": [3, 9, 6, 8, 7], "num2": [3, 4, 6, 8, 1], "num3": [2, 9, 4, 1, 6], "type": "DISTRACTOR", "conditions": [12, 800, "a", 12000], "trial": 4, "trial_type": "math-distractor", "trial_index": 145, "time_elapsed": 733150, "internal_node_id": "0.0-109.0"}}, {"uniqueid": "MTK0901:3NJM2BJS4XDRYDKC2Z7E6XNEJOZPCF", "current_trial": 146, "dateTime": 1512869397349, "trialdata": {"rt": -1, "stimulus": "<p id=\"stim\">10</p>", "key_press": -1, "trial_type": "single-stim", "trial_index": 146, "time_elapsed": 736152, "internal_node_id": "0.0-110.0-0.0"}}, {"uniqueid": "MTK0901:3NJM2BJS4XDRYDKC2Z7E6XNEJOZPCF", "current_trial": 147, "dateTime": 1512869398352, "trialdata": {"rt": -1, "stimulus": "<p id=\"stim\">9</p>", "key_press": -1, "trial_type": "single-stim", "trial_index": 147, "time_elapsed": 737154, "internal_node_id": "0.0-110.0-1.0"}}, {"uniqueid": "MTK0901:3NJM2BJS4XDRYDKC2Z7E6XNEJOZPCF", "current_trial": 148, "dateTime": 1512869399353, "trialdata": {"rt": -1, "stimulus": "<p id=\"stim\">8</p>", "key_press": -1, "trial_type": "single-stim", "trial_index": 148, "time_elapsed": 738156, "internal_node_id": "0.0-110.0-2.0"}}, {"uniqueid": "MTK0901:3NJM2BJS4XDRYDKC2Z7E6XNEJOZPCF", "current_trial": 149, "dateTime": 1512869400355, "trialdata": {"rt": -1, "stimulus": "<p id=\"stim\">7</p>", "key_press": -1, "trial_type": "single-stim", "trial_index": 149, "time_elapsed": 739157, "internal_node_id": "0.0-110.0-3.0"}}, {"uniqueid": "MTK0901:3NJM2BJS4XDRYDKC2Z7E6XNEJOZPCF", "current_trial": 150, "dateTime": 1512869401356, "trialdata": {"rt": -1, "stimulus": "<p id=\"stim\">6</p>", "key_press": -1, "trial_type": "single-stim", "trial_index": 150, "time_elapsed": 740159, "internal_node_id": "0.0-110.0-4.0"}}, {"uniqueid": "MTK0901:3NJM2BJS4XDRYDKC2Z7E6XNEJOZPCF", "current_trial": 151, "dateTime": 1512869402358, "trialdata": {"rt": -1, "stimulus": "<p id=\"stim\">5</p>", "key_press": -1, "trial_type": "single-stim", "trial_index": 151, "time_elapsed": 741161, "internal_node_id": "0.0-110.0-5.0"}}, {"uniqueid": "MTK0901:3NJM2BJS4XDRYDKC2Z7E6XNEJOZPCF", "current_trial": 152, "dateTime": 1512869403362, "trialdata": {"rt": -1, "stimulus": "<p id=\"stim\">4</p>", "key_press": -1, "trial_type": "single-stim", "trial_index": 152, "time_elapsed": 742164, "internal_node_id": "0.0-110.0-6.0"}}, {"uniqueid": "MTK0901:3NJM2BJS4XDRYDKC2Z7E6XNEJOZPCF", "current_trial": 153, "dateTime": 1512869404362, "trialdata": {"rt": -1, "stimulus": "<p id=\"stim\">3</p>", "key_press": -1, "trial_type": "single-stim", "trial_index": 153, "time_elapsed": 743165, "internal_node_id": "0.0-110.0-7.0"}}, {"uniqueid": "MTK0901:3NJM2BJS4XDRYDKC2Z7E6XNEJOZPCF", "current_trial": 154, "dateTime": 1512869405364, "trialdata": {"rt": -1, "stimulus": "<p id=\"stim\">2</p>", "key_press": -1, "trial_type": "single-stim", "trial_index": 154, "time_elapsed": 744167, "internal_node_id": "0.0-110.0-8.0"}}, {"uniqueid": "MTK0901:3NJM2BJS4XDRYDKC2Z7E6XNEJOZPCF", "current_trial": 155, "dateTime": 1512869406367, "trialdata": {"rt": -1, "stimulus": "<p id=\"stim\">1</p>", "key_press": -1, "trial_type": "single-stim", "trial_index": 155, "time_elapsed": 745169, "internal_node_id": "0.0-110.0-9.0"}}, {"uniqueid": "MTK0901:3NJM2BJS4XDRYDKC2Z7E6XNEJOZPCF", "current_trial": 156, "dateTime": 1512869407867, "trialdata": {"rt": -1, "stimulus": "<p id=\"stim\">+</p>", "key_press": -1, "type": "FIXATION", "trial_type": "single-stim", "trial_index": 156, "time_elapsed": 746670, "internal_node_id": "0.0-111.0-0.0"}}, {"uniqueid": "MTK0901:3NJM2BJS4XDRYDKC2Z7E6XNEJOZPCF", "current_trial": 157, "dateTime": 1512869409507, "trialdata": {"rt": -1000, "stimulus": "/static/audio/wordpool/BANQUET.wav", "key_press": -1, "type": "PRES_AUD", "word": "banquet", "wordID": 85, "conditions": [12, 800, "a", 12000], "trial": 4, "serialpos": 0, "trial_type": "single-audio", "trial_index": 157, "time_elapsed": 748310, "internal_node_id": "0.0-112.0"}}, {"uniqueid": "MTK0901:3NJM2BJS4XDRYDKC2Z7E6XNEJOZPCF", "current_trial": 158, "dateTime": 1512869411457, "trialdata": {"rt": -1000, "stimulus": "/static/audio/wordpool/BROOK.wav", "key_press": -1, "type": "PRES_AUD", "word": "brook", "wordID": 176, "conditions": [12, 800, "a", 12000], "trial": 4, "serialpos": 1, "trial_type": "single-audio", "trial_index": 158, "time_elapsed": 750260, "internal_node_id": "0.0-113.0"}}, {"uniqueid": "MTK0901:3NJM2BJS4XDRYDKC2Z7E6XNEJOZPCF", "current_trial": 159, "dateTime": 1512869413108, "trialdata": {"rt": -1000, "stimulus": "/static/audio/wordpool/GUITAR.wav", "key_press": -1, "type": "PRES_AUD", "word": "guitar", "wordID": 669, "conditions": [12, 800, "a", 12000], "trial": 4, "serialpos": 2, "trial_type": "single-audio", "trial_index": 159, "time_elapsed": 751911, "internal_node_id": "0.0-114.0"}}, {"uniqueid": "MTK0901:3NJM2BJS4XDRYDKC2Z7E6XNEJOZPCF", "current_trial": 160, "dateTime": 1512869415083, "trialdata": {"rt": -1000, "stimulus": "/static/audio/wordpool/DENIM.wav", "key_press": -1, "type": "PRES_AUD", "word": "denim", "wordID": 445, "conditions": [12, 800, "a", 12000], "trial": 4, "serialpos": 3, "trial_type": "single-audio", "trial_index": 160, "time_elapsed": 753886, "internal_node_id": "0.0-115.0"}}, {"uniqueid": "MTK0901:3NJM2BJS4XDRYDKC2Z7E6XNEJOZPCF", "current_trial": 161, "dateTime": 1512869416870, "trialdata": {"rt": -1000, "stimulus": "/static/audio/wordpool/JOURNAL.wav", "key_press": -1, "type": "PRES_AUD", "word": "journal", "wordID": 759, "conditions": [12, 800, "a", 12000], "trial": 4, "serialpos": 4, "trial_type": "single-audio", "trial_index": 161, "time_elapsed": 755673, "internal_node_id": "0.0-116.0"}}, {"uniqueid": "MTK0901:3NJM2BJS4XDRYDKC2Z7E6XNEJOZPCF", "current_trial": 162, "dateTime": 1512869418536, "trialdata": {"rt": -1000, "stimulus": "/static/audio/wordpool/COMPASS.wav", "key_press": -1, "type": "PRES_AUD", "word": "compass", "wordID": 357, "conditions": [12, 800, "a", 12000], "trial": 4, "serialpos": 5, "trial_type": "single-audio", "trial_index": 162, "time_elapsed": 757339, "internal_node_id": "0.0-117.0"}}, {"uniqueid": "MTK0901:3NJM2BJS4XDRYDKC2Z7E6XNEJOZPCF", "current_trial": 163, "dateTime": 1512869420155, "trialdata": {"rt": -1000, "stimulus": "/static/audio/wordpool/LEADER.wav", "key_press": -1, "type": "PRES_AUD", "word": "leader", "wordID": 806, "conditions": [12, 800, "a", 12000], "trial": 4, "serialpos": 6, "trial_type": "single-audio", "trial_index": 163, "time_elapsed": 758958, "internal_node_id": "0.0-118.0"}}, {"uniqueid": "MTK0901:3NJM2BJS4XDRYDKC2Z7E6XNEJOZPCF", "current_trial": 164, "dateTime": 1512869421858, "trialdata": {"rt": -1000, "stimulus": "/static/audio/wordpool/CATCHER.wav", "key_press": -1, "type": "PRES_AUD", "word": "catcher", "wordID": 257, "conditions": [12, 800, "a", 12000], "trial": 4, "serialpos": 7, "trial_type": "single-audio", "trial_index": 164, "time_elapsed": 760661, "internal_node_id": "0.0-119.0"}}, {"uniqueid": "MTK0901:3NJM2BJS4XDRYDKC2Z7E6XNEJOZPCF", "current_trial": 165, "dateTime": 1512869423469, "trialdata": {"rt": -1000, "stimulus": "/static/audio/wordpool/CANYON.wav", "key_press": -1, "type": "PRES_AUD", "word": "canyon", "wordID": 234, "conditions": [12, 800, "a", 12000], "trial": 4, "serialpos": 8, "trial_type": "single-audio", "trial_index": 165, "time_elapsed": 762272, "internal_node_id": "0.0-120.0"}}, {"uniqueid": "MTK0901:3NJM2BJS4XDRYDKC2Z7E6XNEJOZPCF", "current_trial": 166, "dateTime": 1512869425178, "trialdata": {"rt": -1000, "stimulus": "/static/audio/wordpool/SUPPER.wav", "key_press": -1, "type": "PRES_AUD", "word": "supper", "wordID": 1410, "conditions": [12, 800, "a", 12000], "trial": 4, "serialpos": 9, "trial_type": "single-audio", "trial_index": 166, "time_elapsed": 763981, "internal_node_id": "0.0-121.0"}}, {"uniqueid": "MTK0901:3NJM2BJS4XDRYDKC2Z7E6XNEJOZPCF", "current_trial": 167, "dateTime": 1512869427037, "trialdata": {"rt": -1000, "stimulus": "/static/audio/wordpool/CHURCH.wav", "key_press": -1, "type": "PRES_AUD", "word": "church", "wordID": 306, "conditions": [12, 800, "a", 12000], "trial": 4, "serialpos": 10, "trial_type": "single-audio", "trial_index": 167, "time_elapsed": 765839, "internal_node_id": "0.0-122.0"}}, {"uniqueid": "MTK0901:3NJM2BJS4XDRYDKC2Z7E6XNEJOZPCF", "current_trial": 168, "dateTime": 1512869429007, "trialdata": {"rt": -1000, "stimulus": "/static/audio/wordpool/CHAPEL.wav", "key_press": -1, "type": "PRES_AUD", "word": "chapel", "wordID": 279, "conditions": [12, 800, "a", 12000], "trial": 4, "serialpos": 11, "trial_type": "single-audio", "trial_index": 168, "time_elapsed": 767810, "internal_node_id": "0.0-123.0"}}, {"uniqueid": "MTK0901:3NJM2BJS4XDRYDKC2Z7E6XNEJOZPCF", "current_trial": 169, "dateTime": 1512869430372, "trialdata": {"rt": -1, "stimulus": "", "key_press": -1, "type": "PRE_RECALL_DELAY", "trial_type": "single-stim", "trial_index": 169, "time_elapsed": 769175, "internal_node_id": "0.0-124.0-0.0"}}, {"uniqueid": "MTK0901:3NJM2BJS4XDRYDKC2Z7E6XNEJOZPCF", "current_trial": 170, "dateTime": 1512869430873, "trialdata": {"rt": -1000, "stimulus": "/static/audio/400Hz.wav", "key_press": -1, "type": "PRE_RECALL_ALERT", "trial_type": "single-audio", "trial_index": 170, "time_elapsed": 769676, "internal_node_id": "0.0-125.0"}}, {"uniqueid": "MTK0901:3NJM2BJS4XDRYDKC2Z7E6XNEJOZPCF", "current_trial": 171, "dateTime": 1512869490885, "trialdata": {"rt": [3519, 5587, 6695, 8009, 9486], "recwords": ["banquet", "canyon", "leader", "church", "chapel"], "type": "FREE_RECALL", "conditions": [12, 800, "a", 12000], "trial": 4, "trial_type": "free-recall", "trial_index": 171, "time_elapsed": 829681, "internal_node_id": "0.0-126.0-0.0"}}, {"uniqueid": "MTK0901:3NJM2BJS4XDRYDKC2Z7E6XNEJOZPCF", "current_trial": 172, "dateTime": 1512869495201, "trialdata": {"rt": 2316, "key_press": 96, "type": "INSTRUCTIONS", "trial_type": "text", "trial_index": 172, "time_elapsed": 834004, "internal_node_id": "0.0-127.0"}}, {"uniqueid": "MTK0901:3NJM2BJS4XDRYDKC2Z7E6XNEJOZPCF", "current_trial": 173, "dateTime": 1512869509206, "trialdata": {"rt": [3796, 5754, 7858, 10989], "responses": ["20", "19", "17", "14"], "num1": [6, 6, 4, 3, 2], "num2": [8, 4, 5, 5, 1], "num3": [6, 9, 8, 6, 6], "type": "DISTRACTOR", "conditions": [24, 800, "a", 12000], "trial": 5, "trial_type": "math-distractor", "trial_index": 173, "time_elapsed": 848009, "internal_node_id": "0.0-128.0"}}, {"uniqueid": "MTK0901:3NJM2BJS4XDRYDKC2Z7E6XNEJOZPCF", "current_trial": 174, "dateTime": 1512869512208, "trialdata": {"rt": -1, "stimulus": "<p id=\"stim\">10</p>", "key_press": -1, "trial_type": "single-stim", "trial_index": 174, "time_elapsed": 851011, "internal_node_id": "0.0-129.0-0.0"}}, {"uniqueid": "MTK0901:3NJM2BJS4XDRYDKC2Z7E6XNEJOZPCF", "current_trial": 175, "dateTime": 1512869513212, "trialdata": {"rt": -1, "stimulus": "<p id=\"stim\">9</p>", "key_press": -1, "trial_type": "single-stim", "trial_index": 175, "time_elapsed": 852014, "internal_node_id": "0.0-129.0-1.0"}}, {"uniqueid": "MTK0901:3NJM2BJS4XDRYDKC2Z7E6XNEJOZPCF", "current_trial": 176, "dateTime": 1512869514212, "trialdata": {"rt": -1, "stimulus": "<p id=\"stim\">8</p>", "key_press": -1, "trial_type": "single-stim", "trial_index": 176, "time_elapsed": 853015, "internal_node_id": "0.0-129.0-2.0"}}, {"uniqueid": "MTK0901:3NJM2BJS4XDRYDKC2Z7E6XNEJOZPCF", "current_trial": 177, "dateTime": 1512869515214, "trialdata": {"rt": -1, "stimulus": "<p id=\"stim\">7</p>", "key_press": -1, "trial_type": "single-stim", "trial_index": 177, "time_elapsed": 854017, "internal_node_id": "0.0-129.0-3.0"}}, {"uniqueid": "MTK0901:3NJM2BJS4XDRYDKC2Z7E6XNEJOZPCF", "current_trial": 178, "dateTime": 1512869516216, "trialdata": {"rt": -1, "stimulus": "<p id=\"stim\">6</p>", "key_press": -1, "trial_type": "single-stim", "trial_index": 178, "time_elapsed": 855019, "internal_node_id": "0.0-129.0-4.0"}}, {"uniqueid": "MTK0901:3NJM2BJS4XDRYDKC2Z7E6XNEJOZPCF", "current_trial": 179, "dateTime": 1512869517219, "trialdata": {"rt": -1, "stimulus": "<p id=\"stim\">5</p>", "key_press": -1, "trial_type": "single-stim", "trial_index": 179, "time_elapsed": 856021, "internal_node_id": "0.0-129.0-5.0"}}, {"uniqueid": "MTK0901:3NJM2BJS4XDRYDKC2Z7E6XNEJOZPCF", "current_trial": 180, "dateTime": 1512869518221, "trialdata": {"rt": -1, "stimulus": "<p id=\"stim\">4</p>", "key_press": -1, "trial_type": "single-stim", "trial_index": 180, "time_elapsed": 857023, "internal_node_id": "0.0-129.0-6.0"}}, {"uniqueid": "MTK0901:3NJM2BJS4XDRYDKC2Z7E6XNEJOZPCF", "current_trial": 181, "dateTime": 1512869519222, "trialdata": {"rt": -1, "stimulus": "<p id=\"stim\">3</p>", "key_press": -1, "trial_type": "single-stim", "trial_index": 181, "time_elapsed": 858025, "internal_node_id": "0.0-129.0-7.0"}}, {"uniqueid": "MTK0901:3NJM2BJS4XDRYDKC2Z7E6XNEJOZPCF", "current_trial": 182, "dateTime": 1512869520225, "trialdata": {"rt": -1, "stimulus": "<p id=\"stim\">2</p>", "key_press": -1, "trial_type": "single-stim", "trial_index": 182, "time_elapsed": 859027, "internal_node_id": "0.0-129.0-8.0"}}, {"uniqueid": "MTK0901:3NJM2BJS4XDRYDKC2Z7E6XNEJOZPCF", "current_trial": 183, "dateTime": 1512869521227, "trialdata": {"rt": -1, "stimulus": "<p id=\"stim\">1</p>", "key_press": -1, "trial_type": "single-stim", "trial_index": 183, "time_elapsed": 860029, "internal_node_id": "0.0-129.0-9.0"}}, {"uniqueid": "MTK0901:3NJM2BJS4XDRYDKC2Z7E6XNEJOZPCF", "current_trial": 184, "dateTime": 1512869522729, "trialdata": {"rt": -1, "stimulus": "<p id=\"stim\">+</p>", "key_press": -1, "type": "FIXATION", "trial_type": "single-stim", "trial_index": 184, "time_elapsed": 861531, "internal_node_id": "0.0-130.0-0.0"}}, {"uniqueid": "MTK0901:3NJM2BJS4XDRYDKC2Z7E6XNEJOZPCF", "current_trial": 185, "dateTime": 1512869524674, "trialdata": {"rt": -1000, "stimulus": "/static/audio/wordpool/MARSH.wav", "key_press": -1, "type": "PRES_AUD", "word": "marsh", "wordID": 873, "conditions": [24, 800, "a", 12000], "trial": 5, "serialpos": 0, "trial_type": "single-audio", "trial_index": 185, "time_elapsed": 863477, "internal_node_id": "0.0-131.0"}}, {"uniqueid": "MTK0901:3NJM2BJS4XDRYDKC2Z7E6XNEJOZPCF", "current_trial": 186, "dateTime": 1512869526456, "trialdata": {"rt": -1000, "stimulus": "/static/audio/wordpool/PERFUME.wav", "key_press": -1, "type": "PRES_AUD", "word": "perfume", "wordID": 1048, "conditions": [24, 800, "a", 12000], "trial": 5, "serialpos": 1, "trial_type": "single-audio", "trial_index": 186, "time_elapsed": 865258, "internal_node_id": "0.0-132.0"}}, {"uniqueid": "MTK0901:3NJM2BJS4XDRYDKC2Z7E6XNEJOZPCF", "current_trial": 187, "dateTime": 1512869528159, "trialdata": {"rt": -1000, "stimulus": "/static/audio/wordpool/LASER.wav", "key_press": -1, "type": "PRES_AUD", "word": "laser", "wordID": 800, "conditions": [24, 800, "a", 12000], "trial": 5, "serialpos": 2, "trial_type": "single-audio", "trial_index": 187, "time_elapsed": 866961, "internal_node_id": "0.0-133.0"}}, {"uniqueid": "MTK0901:3NJM2BJS4XDRYDKC2Z7E6XNEJOZPCF", "current_trial": 188, "dateTime": 1512869529857, "trialdata": {"rt": -1000, "stimulus": "/static/audio/wordpool/SLIDE.wav", "key_press": -1, "type": "PRES_AUD", "word": "slide", "wordID": 1325, "conditions": [24, 800, "a", 12000], "trial": 5, "serialpos": 3, "trial_type": "single-audio", "trial_index": 188, "time_elapsed": 868660, "internal_node_id": "0.0-134.0"}}, {"uniqueid": "MTK0901:3NJM2BJS4XDRYDKC2Z7E6XNEJOZPCF", "current_trial": 189, "dateTime": 1512869531601, "trialdata": {"rt": -1000, "stimulus": "/static/audio/wordpool/FLIPPER.wav", "key_press": -1, "type": "PRES_AUD", "word": "flipper", "wordID": 579, "conditions": [24, 800, "a", 12000], "trial": 5, "serialpos": 4, "trial_type": "single-audio", "trial_index": 189, "time_elapsed": 870403, "internal_node_id": "0.0-135.0"}}, {"uniqueid": "MTK0901:3NJM2BJS4XDRYDKC2Z7E6XNEJOZPCF", "current_trial": 190, "dateTime": 1512869533245, "trialdata": {"rt": -1000, "stimulus": "/static/audio/wordpool/DANDRUFF.wav", "key_press": -1, "type": "PRES_AUD", "word": "dandruff", "wordID": 438, "conditions": [24, 800, "a", 12000], "trial": 5, "serialpos": 5, "trial_type": "single-audio", "trial_index": 190, "time_elapsed": 872048, "internal_node_id": "0.0-136.0"}}, {"uniqueid": "MTK0901:3NJM2BJS4XDRYDKC2Z7E6XNEJOZPCF", "current_trial": 191, "dateTime": 1512869534961, "trialdata": {"rt": -1000, "stimulus": "/static/audio/wordpool/BANKER.wav", "key_press": -1, "type": "PRES_AUD", "word": "banker", "wordID": 83, "conditions": [24, 800, "a", 12000], "trial": 5, "serialpos": 6, "trial_type": "single-audio", "trial_index": 191, "time_elapsed": 873764, "internal_node_id": "0.0-137.0"}}, {"uniqueid": "MTK0901:3NJM2BJS4XDRYDKC2Z7E6XNEJOZPCF", "current_trial": 192, "dateTime": 1512869536581, "trialdata": {"rt": -1000, "stimulus": "/static/audio/wordpool/BANK.wav", "key_press": -1, "type": "PRES_AUD", "word": "bank", "wordID": 82, "conditions": [24, 800, "a", 12000], "trial": 5, "serialpos": 7, "trial_type": "single-audio", "trial_index": 192, "time_elapsed": 875384, "internal_node_id": "0.0-138.0"}}, {"uniqueid": "MTK0901:3NJM2BJS4XDRYDKC2Z7E6XNEJOZPCF", "current_trial": 193, "dateTime": 1512869538186, "trialdata": {"rt": -1000, "stimulus": "/static/audio/wordpool/PLAYGROUND.wav", "key_press": -1, "type": "PRES_AUD", "word": "playground", "wordID": 1086, "conditions": [24, 800, "a", 12000], "trial": 5, "serialpos": 8, "trial_type": "single-audio", "trial_index": 193, "time_elapsed": 876989, "internal_node_id": "0.0-139.0"}}, {"uniqueid": "MTK0901:3NJM2BJS4XDRYDKC2Z7E6XNEJOZPCF", "current_trial": 194, "dateTime": 1512869539901, "trialdata": {"rt": -1000, "stimulus": "/static/audio/wordpool/BADGE.wav", "key_press": -1, "type": "PRES_AUD", "word": "badge", "wordID": 67, "conditions": [24, 800, "a", 12000], "trial": 5, "serialpos": 9, "trial_type": "single-audio", "trial_index": 194, "time_elapsed": 878704, "internal_node_id": "0.0-140.0"}}, {"uniqueid": "MTK0901:3NJM2BJS4XDRYDKC2Z7E6XNEJOZPCF", "current_trial": 195, "dateTime": 1512869541606, "trialdata": {"rt": -1000, "stimulus": "/static/audio/wordpool/HORNET.wav", "key_press": -1, "type": "PRES_AUD", "word": "hornet", "wordID": 717, "conditions": [24, 800, "a", 12000], "trial": 5, "serialpos": 10, "trial_type": "single-audio", "trial_index": 195, "time_elapsed": 880409, "internal_node_id": "0.0-141.0"}}, {"uniqueid": "MTK0901:3NJM2BJS4XDRYDKC2Z7E6XNEJOZPCF", "current_trial": 196, "dateTime": 1512869543217, "trialdata": {"rt": -1000, "stimulus": "/static/audio/wordpool/RIVER.wav", "key_press": -1, "type": "PRES_AUD", "word": "river", "wordID": 1193, "conditions": [24, 800, "a", 12000], "trial": 5, "serialpos": 11, "trial_type": "single-audio", "trial_index": 196, "time_elapsed": 882020, "internal_node_id": "0.0-142.0"}}, {"uniqueid": "MTK0901:3NJM2BJS4XDRYDKC2Z7E6XNEJOZPCF", "current_trial": 197, "dateTime": 1512869545108, "trialdata": {"rt": -1000, "stimulus": "/static/audio/wordpool/MACHINE.wav", "key_press": -1, "type": "PRES_AUD", "word": "machine", "wordID": 851, "conditions": [24, 800, "a", 12000], "trial": 5, "serialpos": 12, "trial_type": "single-audio", "trial_index": 197, "time_elapsed": 883911, "internal_node_id": "0.0-143.0"}}, {"uniqueid": "MTK0901:3NJM2BJS4XDRYDKC2Z7E6XNEJOZPCF", "current_trial": 198, "dateTime": 1512869547078, "trialdata": {"rt": -1000, "stimulus": "/static/audio/wordpool/PANTHER.wav", "key_press": -1, "type": "PRES_AUD", "word": "panther", "wordID": 1008, "conditions": [24, 800, "a", 12000], "trial": 5, "serialpos": 13, "trial_type": "single-audio", "trial_index": 198, "time_elapsed": 885881, "internal_node_id": "0.0-144.0"}}, {"uniqueid": "MTK0901:3NJM2BJS4XDRYDKC2Z7E6XNEJOZPCF", "current_trial": 199, "dateTime": 1512869548783, "trialdata": {"rt": -1000, "stimulus": "/static/audio/wordpool/GIRL.wav", "key_press": -1, "type": "PRES_AUD", "word": "girl", "wordID": 636, "conditions": [24, 800, "a", 12000], "trial": 5, "serialpos": 14, "trial_type": "single-audio", "trial_index": 199, "time_elapsed": 887586, "internal_node_id": "0.0-145.0"}}, {"uniqueid": "MTK0901:3NJM2BJS4XDRYDKC2Z7E6XNEJOZPCF", "current_trial": 200, "dateTime": 1512869550442, "trialdata": {"rt": -1000, "stimulus": "/static/audio/wordpool/CHIPMUNK.wav", "key_press": -1, "type": "PRES_AUD", "word": "chipmunk", "wordID": 303, "conditions": [24, 800, "a", 12000], "trial": 5, "serialpos": 15, "trial_type": "single-audio", "trial_index": 200, "time_elapsed": 889245, "internal_node_id": "0.0-146.0"}}, {"uniqueid": "MTK0901:3NJM2BJS4XDRYDKC2Z7E6XNEJOZPCF", "current_trial": 201, "dateTime": 1512869552433, "trialdata": {"rt": -1000, "stimulus": "/static/audio/wordpool/JELLY.wav", "key_press": -1, "type": "PRES_AUD", "word": "jelly", "wordID": 754, "conditions": [24, 800, "a", 12000], "trial": 5, "serialpos": 16, "trial_type": "single-audio", "trial_index": 201, "time_elapsed": 891236, "internal_node_id": "0.0-147.0"}}, {"uniqueid": "MTK0901:3NJM2BJS4XDRYDKC2Z7E6XNEJOZPCF", "current_trial": 202, "dateTime": 1512869554045, "trialdata": {"rt": -1000, "stimulus": "/static/audio/wordpool/PEPPER.wav", "key_press": -1, "type": "PRES_AUD", "word": "pepper", "wordID": 1046, "conditions": [24, 800, "a", 12000], "trial": 5, "serialpos": 17, "trial_type": "single-audio", "trial_index": 202, "time_elapsed": 892848, "internal_node_id": "0.0-148.0"}}, {"uniqueid": "MTK0901:3NJM2BJS4XDRYDKC2Z7E6XNEJOZPCF", "current_trial": 203, "dateTime": 1512869555921, "trialdata": {"rt": -1000, "stimulus": "/static/audio/wordpool/TWIG.wav", "key_press": -1, "type": "PRES_AUD", "word": "twig", "wordID": 1526, "conditions": [24, 800, "a", 12000], "trial": 5, "serialpos": 18, "trial_type": "single-audio", "trial_index": 203, "time_elapsed": 894723, "internal_node_id": "0.0-149.0"}}, {"uniqueid": "MTK0901:3NJM2BJS4XDRYDKC2Z7E6XNEJOZPCF", "current_trial": 204, "dateTime": 1512869557700, "trialdata": {"rt": -1000, "stimulus": "/static/audio/wordpool/DONOR.wav", "key_press": -1, "type": "PRES_AUD", "word": "donor", "wordID": 484, "conditions": [24, 800, "a", 12000], "trial": 5, "serialpos": 19, "trial_type": "single-audio", "trial_index": 204, "time_elapsed": 896502, "internal_node_id": "0.0-150.0"}}, {"uniqueid": "MTK0901:3NJM2BJS4XDRYDKC2Z7E6XNEJOZPCF", "current_trial": 205, "dateTime": 1512869559654, "trialdata": {"rt": -1000, "stimulus": "/static/audio/wordpool/HUSBAND.wav", "key_press": -1, "type": "PRES_AUD", "word": "husband", "wordID": 727, "conditions": [24, 800, "a", 12000], "trial": 5, "serialpos": 20, "trial_type": "single-audio", "trial_index": 205, "time_elapsed": 898456, "internal_node_id": "0.0-151.0"}}, {"uniqueid": "MTK0901:3NJM2BJS4XDRYDKC2Z7E6XNEJOZPCF", "current_trial": 206, "dateTime": 1512869561256, "trialdata": {"rt": -1000, "stimulus": "/static/audio/wordpool/WIFE.wav", "key_press": -1, "type": "PRES_AUD", "word": "wife", "wordID": 1608, "conditions": [24, 800, "a", 12000], "trial": 5, "serialpos": 21, "trial_type": "single-audio", "trial_index": 206, "time_elapsed": 900059, "internal_node_id": "0.0-152.0"}}, {"uniqueid": "MTK0901:3NJM2BJS4XDRYDKC2Z7E6XNEJOZPCF", "current_trial": 207, "dateTime": 1512869562962, "trialdata": {"rt": -1000, "stimulus": "/static/audio/wordpool/TURTLE.wav", "key_press": -1, "type": "PRES_AUD", "word": "turtle", "wordID": 1521, "conditions": [24, 800, "a", 12000], "trial": 5, "serialpos": 22, "trial_type": "single-audio", "trial_index": 207, "time_elapsed": 901765, "internal_node_id": "0.0-153.0"}}, {"uniqueid": "MTK0901:3NJM2BJS4XDRYDKC2Z7E6XNEJOZPCF", "current_trial": 208, "dateTime": 1512869564887, "trialdata": {"rt": -1000, "stimulus": "/static/audio/wordpool/SISTER.wav", "key_press": -1, "type": "PRES_AUD", "word": "sister", "wordID": 1311, "conditions": [24, 800, "a", 12000], "trial": 5, "serialpos": 23, "trial_type": "single-audio", "trial_index": 208, "time_elapsed": 903689, "internal_node_id": "0.0-154.0"}}, {"uniqueid": "MTK0901:3NJM2BJS4XDRYDKC2Z7E6XNEJOZPCF", "current_trial": 209, "dateTime": 1512869566114, "trialdata": {"rt": -1, "stimulus": "", "key_press": -1, "type": "PRE_RECALL_DELAY", "trial_type": "single-stim", "trial_index": 209, "time_elapsed": 904917, "internal_node_id": "0.0-155.0-0.0"}}, {"uniqueid": "MTK0901:3NJM2BJS4XDRYDKC2Z7E6XNEJOZPCF", "current_trial": 210, "dateTime": 1512869566616, "trialdata": {"rt": -1000, "stimulus": "/static/audio/400Hz.wav", "key_press": -1, "type": "PRE_RECALL_ALERT", "trial_type": "single-audio", "trial_index": 210, "time_elapsed": 905419, "internal_node_id": "0.0-156.0"}}, {"uniqueid": "MTK0901:3NJM2BJS4XDRYDKC2Z7E6XNEJOZPCF", "current_trial": 211, "dateTime": 1512869626626, "trialdata": {"rt": [5664, 9070, 10333, 12123, 13874], "recwords": ["marsh", "banker", "bank", "wife", "sister"], "type": "FREE_RECALL", "conditions": [24, 800, "a", 12000], "trial": 5, "trial_type": "free-recall", "trial_index": 211, "time_elapsed": 965424, "internal_node_id": "0.0-157.0-0.0"}}, {"uniqueid": "MTK0901:3NJM2BJS4XDRYDKC2Z7E6XNEJOZPCF", "current_trial": 212, "dateTime": 1512869631923, "trialdata": {"rt": 3294, "key_press": 32, "type": "INSTRUCTIONS", "trial_type": "text", "trial_index": 212, "time_elapsed": 970725, "internal_node_id": "0.0-158.0"}}, {"uniqueid": "MTK0901:3NJM2BJS4XDRYDKC2Z7E6XNEJOZPCF", "current_trial": 213, "dateTime": 1512869657928, "trialdata": {"rt": [2589, 5145, 6804, 8252, 10401, 12553, 14353, 16705, 19164, 21249], "responses": ["18", "6", "18", "9", "19", "17", "14", "19", "14", "18"], "num1": [9, 3, 8, 1, 3, 7, 4, 9, 7, 1, 7], "num2": [3, 2, 2, 2, 8, 9, 6, 2, 2, 9, 9], "num3": [6, 1, 8, 6, 8, 1, 4, 8, 5, 8, 2], "type": "DISTRACTOR", "conditions": [12, 1600, "v", 24000], "trial": 6, "trial_type": "math-distractor", "trial_index": 213, "time_elapsed": 996731, "internal_node_id": "0.0-159.0"}}, {"uniqueid": "MTK0901:3NJM2BJS4XDRYDKC2Z7E6XNEJOZPCF", "current_trial": 214, "dateTime": 1512869660930, "trialdata": {"rt": -1, "stimulus": "<p id=\"stim\">10</p>", "key_press": -1, "trial_type": "single-stim", "trial_index": 214, "time_elapsed": 999733, "internal_node_id": "0.0-160.0-0.0"}}, {"uniqueid": "MTK0901:3NJM2BJS4XDRYDKC2Z7E6XNEJOZPCF", "current_trial": 215, "dateTime": 1512869661933, "trialdata": {"rt": -1, "stimulus": "<p id=\"stim\">9</p>", "key_press": -1, "trial_type": "single-stim", "trial_index": 215, "time_elapsed": 1000736, "internal_node_id": "0.0-160.0-1.0"}}, {"uniqueid": "MTK0901:3NJM2BJS4XDRYDKC2Z7E6XNEJOZPCF", "current_trial": 216, "dateTime": 1512869662934, "trialdata": {"rt": -1, "stimulus": "<p id=\"stim\">8</p>", "key_press": -1, "trial_type": "single-stim", "trial_index": 216, "time_elapsed": 1001737, "internal_node_id": "0.0-160.0-2.0"}}, {"uniqueid": "MTK0901:3NJM2BJS4XDRYDKC2Z7E6XNEJOZPCF", "current_trial": 217, "dateTime": 1512869663936, "trialdata": {"rt": -1, "stimulus": "<p id=\"stim\">7</p>", "key_press": -1, "trial_type": "single-stim", "trial_index": 217, "time_elapsed": 1002739, "internal_node_id": "0.0-160.0-3.0"}}, {"uniqueid": "MTK0901:3NJM2BJS4XDRYDKC2Z7E6XNEJOZPCF", "current_trial": 218, "dateTime": 1512869664938, "trialdata": {"rt": -1, "stimulus": "<p id=\"stim\">6</p>", "key_press": -1, "trial_type": "single-stim", "trial_index": 218, "time_elapsed": 1003741, "internal_node_id": "0.0-160.0-4.0"}}, {"uniqueid": "MTK0901:3NJM2BJS4XDRYDKC2Z7E6XNEJOZPCF", "current_trial": 219, "dateTime": 1512869665939, "trialdata": {"rt": -1, "stimulus": "<p id=\"stim\">5</p>", "key_press": -1, "trial_type": "single-stim", "trial_index": 219, "time_elapsed": 1004742, "internal_node_id": "0.0-160.0-5.0"}}, {"uniqueid": "MTK0901:3NJM2BJS4XDRYDKC2Z7E6XNEJOZPCF", "current_trial": 220, "dateTime": 1512869666942, "trialdata": {"rt": -1, "stimulus": "<p id=\"stim\">4</p>", "key_press": -1, "trial_type": "single-stim", "trial_index": 220, "time_elapsed": 1005745, "internal_node_id": "0.0-160.0-6.0"}}, {"uniqueid": "MTK0901:3NJM2BJS4XDRYDKC2Z7E6XNEJOZPCF", "current_trial": 221, "dateTime": 1512869667944, "trialdata": {"rt": -1, "stimulus": "<p id=\"stim\">3</p>", "key_press": -1, "trial_type": "single-stim", "trial_index": 221, "time_elapsed": 1006746, "internal_node_id": "0.0-160.0-7.0"}}, {"uniqueid": "MTK0901:3NJM2BJS4XDRYDKC2Z7E6XNEJOZPCF", "current_trial": 222, "dateTime": 1512869668945, "trialdata": {"rt": -1, "stimulus": "<p id=\"stim\">2</p>", "key_press": -1, "trial_type": "single-stim", "trial_index": 222, "time_elapsed": 1007748, "internal_node_id": "0.0-160.0-8.0"}}, {"uniqueid": "MTK0901:3NJM2BJS4XDRYDKC2Z7E6XNEJOZPCF", "current_trial": 223, "dateTime": 1512869669948, "trialdata": {"rt": -1, "stimulus": "<p id=\"stim\">1</p>", "key_press": -1, "trial_type": "single-stim", "trial_index": 223, "time_elapsed": 1008751, "internal_node_id": "0.0-160.0-9.0"}}, {"uniqueid": "MTK0901:3NJM2BJS4XDRYDKC2Z7E6XNEJOZPCF", "current_trial": 224, "dateTime": 1512869671451, "trialdata": {"rt": -1, "stimulus": "<p id=\"stim\">+</p>", "key_press": -1, "type": "FIXATION", "trial_type": "single-stim", "trial_index": 224, "time_elapsed": 1010253, "internal_node_id": "0.0-161.0-0.0"}}, {"uniqueid": "MTK0901:3NJM2BJS4XDRYDKC2Z7E6XNEJOZPCF", "current_trial": 225, "dateTime": 1512869673051, "trialdata": {"rt": -1, "stimulus": "<p id=\"stim\">ZIPPER</p>", "key_press": -1, "type": "PRES_VIS", "word": "zipper", "wordID": 1635, "conditions": [12, 1600, "v", 24000], "trial": 6, "serialpos": 0, "trial_type": "single-stim", "trial_index": 225, "time_elapsed": 1011854, "internal_node_id": "0.0-162.0"}}, {"uniqueid": "MTK0901:3NJM2BJS4XDRYDKC2Z7E6XNEJOZPCF", "current_trial": 226, "dateTime": 1512869675501, "trialdata": {"rt": -1, "stimulus": "<p id=\"stim\">DRAGON</p>", "key_press": -1, "type": "PRES_VIS", "word": "dragon", "wordID": 491, "conditions": [12, 1600, "v", 24000], "trial": 6, "serialpos": 1, "trial_type": "single-stim", "trial_index": 226, "time_elapsed": 1014303, "internal_node_id": "0.0-163.0"}}, {"uniqueid": "MTK0901:3NJM2BJS4XDRYDKC2Z7E6XNEJOZPCF", "current_trial": 227, "dateTime": 1512869678108, "trialdata": {"rt": -1, "stimulus": "<p id=\"stim\">PASTRY</p>", "key_press": -1, "type": "PRES_VIS", "word": "pastry", "wordID": 1021, "conditions": [12, 1600, "v", 24000], "trial": 6, "serialpos": 2, "trial_type": "single-stim", "trial_index": 227, "time_elapsed": 1016911, "internal_node_id": "0.0-164.0"}}, {"uniqueid": "MTK0901:3NJM2BJS4XDRYDKC2Z7E6XNEJOZPCF", "current_trial": 228, "dateTime": 1512869680610, "trialdata": {"rt": -1, "stimulus": "<p id=\"stim\">LACE</p>", "key_press": -1, "type": "PRES_VIS", "word": "lace", "wordID": 791, "conditions": [12, 1600, "v", 24000], "trial": 6, "serialpos": 3, "trial_type": "single-stim", "trial_index": 228, "time_elapsed": 1019413, "internal_node_id": "0.0-165.0"}}, {"uniqueid": "MTK0901:3NJM2BJS4XDRYDKC2Z7E6XNEJOZPCF", "current_trial": 229, "dateTime": 1512869683134, "trialdata": {"rt": -1, "stimulus": "<p id=\"stim\">COLLEGE</p>", "key_press": -1, "type": "PRES_VIS", "word": "college", "wordID": 345, "conditions": [12, 1600, "v", 24000], "trial": 6, "serialpos": 4, "trial_type": "single-stim", "trial_index": 229, "time_elapsed": 1021937, "internal_node_id": "0.0-166.0"}}, {"uniqueid": "MTK0901:3NJM2BJS4XDRYDKC2Z7E6XNEJOZPCF", "current_trial": 230, "dateTime": 1512869685815, "trialdata": {"rt": -1, "stimulus": "<p id=\"stim\">CROWN</p>", "key_press": -1, "type": "PRES_VIS", "word": "crown", "wordID": 414, "conditions": [12, 1600, "v", 24000], "trial": 6, "serialpos": 5, "trial_type": "single-stim", "trial_index": 230, "time_elapsed": 1024617, "internal_node_id": "0.0-167.0"}}, {"uniqueid": "MTK0901:3NJM2BJS4XDRYDKC2Z7E6XNEJOZPCF", "current_trial": 231, "dateTime": 1512869688313, "trialdata": {"rt": -1, "stimulus": "<p id=\"stim\">QUEEN</p>", "key_press": -1, "type": "PRES_VIS", "word": "queen", "wordID": 1148, "conditions": [12, 1600, "v", 24000], "trial": 6, "serialpos": 6, "trial_type": "single-stim", "trial_index": 231, "time_elapsed": 1027113, "internal_node_id": "0.0-168.0"}}, {"uniqueid": "MTK0901:3NJM2BJS4XDRYDKC2Z7E6XNEJOZPCF", "current_trial": 232, "dateTime": 1512869691034, "trialdata": {"rt": -1, "stimulus": "<p id=\"stim\">PACKAGE</p>", "key_press": -1, "type": "PRES_VIS", "word": "package", "wordID": 996, "conditions": [12, 1600, "v", 24000], "trial": 6, "serialpos": 7, "trial_type": "single-stim", "trial_index": 232, "time_elapsed": 1029837, "internal_node_id": "0.0-169.0"}}, {"uniqueid": "MTK0901:3NJM2BJS4XDRYDKC2Z7E6XNEJOZPCF", "current_trial": 233, "dateTime": 1512869693480, "trialdata": {"rt": -1, "stimulus": "<p id=\"stim\">VELVET</p>", "key_press": -1, "type": "PRES_VIS", "word": "velvet", "wordID": 1554, "conditions": [12, 1600, "v", 24000], "trial": 6, "serialpos": 8, "trial_type": "single-stim", "trial_index": 233, "time_elapsed": 1032283, "internal_node_id": "0.0-170.0"}}, {"uniqueid": "MTK0901:3NJM2BJS4XDRYDKC2Z7E6XNEJOZPCF", "current_trial": 234, "dateTime": 1512869695939, "trialdata": {"rt": -1, "stimulus": "<p id=\"stim\">BEAST</p>", "key_press": -1, "type": "PRES_VIS", "word": "beast", "wordID": 107, "conditions": [12, 1600, "v", 24000], "trial": 6, "serialpos": 9, "trial_type": "single-stim", "trial_index": 234, "time_elapsed": 1034742, "internal_node_id": "0.0-171.0"}}, {"uniqueid": "MTK0901:3NJM2BJS4XDRYDKC2Z7E6XNEJOZPCF", "current_trial": 235, "dateTime": 1512869698487, "trialdata": {"rt": -1, "stimulus": "<p id=\"stim\">MONSTER</p>", "key_press": -1, "type": "PRES_VIS", "word": "monster", "wordID": 911, "conditions": [12, 1600, "v", 24000], "trial": 6, "serialpos": 10, "trial_type": "single-stim", "trial_index": 235, "time_elapsed": 1037290, "internal_node_id": "0.0-172.0"}}, {"uniqueid": "MTK0901:3NJM2BJS4XDRYDKC2Z7E6XNEJOZPCF", "current_trial": 236, "dateTime": 1512869701112, "trialdata": {"rt": -1, "stimulus": "<p id=\"stim\">BELLY</p>", "key_press": -1, "type": "PRES_VIS", "word": "belly", "wordID": 118, "conditions": [12, 1600, "v", 24000], "trial": 6, "serialpos": 11, "trial_type": "single-stim", "trial_index": 236, "time_elapsed": 1039914, "internal_node_id": "0.0-173.0"}}, {"uniqueid": "MTK0901:3NJM2BJS4XDRYDKC2Z7E6XNEJOZPCF", "current_trial": 237, "dateTime": 1512869703255, "trialdata": {"rt": -1, "stimulus": "", "key_press": -1, "type": "PRE_RECALL_DELAY", "trial_type": "single-stim", "trial_index": 237, "time_elapsed": 1042057, "internal_node_id": "0.0-174.0-0.0"}}, {"uniqueid": "MTK0901:3NJM2BJS4XDRYDKC2Z7E6XNEJOZPCF", "current_trial": 238, "dateTime": 1512869703757, "trialdata": {"rt": -1000, "stimulus": "/static/audio/400Hz.wav", "key_press": -1, "type": "PRE_RECALL_ALERT", "trial_type": "single-audio", "trial_index": 238, "time_elapsed": 1042560, "internal_node_id": "0.0-175.0"}}, {"uniqueid": "MTK0901:3NJM2BJS4XDRYDKC2Z7E6XNEJOZPCF", "current_trial": 239, "dateTime": 1512869763766, "trialdata": {"rt": [3733, 6757, 8223, 10465, 13055], "recwords": ["zipper", "crown", "queen", "belly", "beast"], "type": "FREE_RECALL", "conditions": [12, 1600, "v", 24000], "trial": 6, "trial_type": "free-recall", "trial_index": 239, "time_elapsed": 1102564, "internal_node_id": "0.0-176.0-0.0"}}, {"uniqueid": "MTK0901:3NJM2BJS4XDRYDKC2Z7E6XNEJOZPCF", "current_trial": 240, "dateTime": 1512869779957, "trialdata": {"rt": 14190, "key_press": 32, "type": "INSTRUCTIONS", "trial_type": "text", "trial_index": 240, "time_elapsed": 1118760, "internal_node_id": "0.0-177.0"}}, {"uniqueid": "MTK0901:3NJM2BJS4XDRYDKC2Z7E6XNEJOZPCF", "current_trial": 241, "dateTime": 1512869805963, "trialdata": {"rt": [2487, 5525, 7928, 10852, 12884, 15675, 17347, 21080, 23525], "responses": ["15", "17", "11", "18", "20", "20", "9", "22", "21"], "num1": [2, 8, 2, 8, 8, 3, 4, 9, 9, 4], "num2": [7, 3, 1, 4, 7, 8, 1, 8, 9, 9], "num3": [6, 6, 9, 6, 5, 9, 4, 5, 3, 5], "type": "DISTRACTOR", "conditions": [24, 1600, "a", 24000], "trial": 7, "trial_type": "math-distractor", "trial_index": 241, "time_elapsed": 1144766, "internal_node_id": "0.0-178.0"}}, {"uniqueid": "MTK0901:3NJM2BJS4XDRYDKC2Z7E6XNEJOZPCF", "current_trial": 242, "dateTime": 1512869808966, "trialdata": {"rt": -1, "stimulus": "<p id=\"stim\">10</p>", "key_press": -1, "trial_type": "single-stim", "trial_index": 242, "time_elapsed": 1147769, "internal_node_id": "0.0-179.0-0.0"}}, {"uniqueid": "MTK0901:3NJM2BJS4XDRYDKC2Z7E6XNEJOZPCF", "current_trial": 243, "dateTime": 1512869809968, "trialdata": {"rt": -1, "stimulus": "<p id=\"stim\">9</p>", "key_press": -1, "trial_type": "single-stim", "trial_index": 243, "time_elapsed": 1148771, "internal_node_id": "0.0-179.0-1.0"}}, {"uniqueid": "MTK0901:3NJM2BJS4XDRYDKC2Z7E6XNEJOZPCF", "current_trial": 244, "dateTime": 1512869810971, "trialdata": {"rt": -1, "stimulus": "<p id=\"stim\">8</p>", "key_press": -1, "trial_type": "single-stim", "trial_index": 244, "time_elapsed": 1149772, "internal_node_id": "0.0-179.0-2.0"}}, {"uniqueid": "MTK0901:3NJM2BJS4XDRYDKC2Z7E6XNEJOZPCF", "current_trial": 245, "dateTime": 1512869811974, "trialdata": {"rt": -1, "stimulus": "<p id=\"stim\">7</p>", "key_press": -1, "trial_type": "single-stim", "trial_index": 245, "time_elapsed": 1150774, "internal_node_id": "0.0-179.0-3.0"}}, {"uniqueid": "MTK0901:3NJM2BJS4XDRYDKC2Z7E6XNEJOZPCF", "current_trial": 246, "dateTime": 1512869812975, "trialdata": {"rt": -1, "stimulus": "<p id=\"stim\">6</p>", "key_press": -1, "trial_type": "single-stim", "trial_index": 246, "time_elapsed": 1151778, "internal_node_id": "0.0-179.0-4.0"}}, {"uniqueid": "MTK0901:3NJM2BJS4XDRYDKC2Z7E6XNEJOZPCF", "current_trial": 247, "dateTime": 1512869813977, "trialdata": {"rt": -1, "stimulus": "<p id=\"stim\">5</p>", "key_press": -1, "trial_type": "single-stim", "trial_index": 247, "time_elapsed": 1152780, "internal_node_id": "0.0-179.0-5.0"}}, {"uniqueid": "MTK0901:3NJM2BJS4XDRYDKC2Z7E6XNEJOZPCF", "current_trial": 248, "dateTime": 1512869814979, "trialdata": {"rt": -1, "stimulus": "<p id=\"stim\">4</p>", "key_press": -1, "trial_type": "single-stim", "trial_index": 248, "time_elapsed": 1153782, "internal_node_id": "0.0-179.0-6.0"}}, {"uniqueid": "MTK0901:3NJM2BJS4XDRYDKC2Z7E6XNEJOZPCF", "current_trial": 249, "dateTime": 1512869815981, "trialdata": {"rt": -1, "stimulus": "<p id=\"stim\">3</p>", "key_press": -1, "trial_type": "single-stim", "trial_index": 249, "time_elapsed": 1154784, "internal_node_id": "0.0-179.0-7.0"}}, {"uniqueid": "MTK0901:3NJM2BJS4XDRYDKC2Z7E6XNEJOZPCF", "current_trial": 250, "dateTime": 1512869816983, "trialdata": {"rt": -1, "stimulus": "<p id=\"stim\">2</p>", "key_press": -1, "trial_type": "single-stim", "trial_index": 250, "time_elapsed": 1155785, "internal_node_id": "0.0-179.0-8.0"}}, {"uniqueid": "MTK0901:3NJM2BJS4XDRYDKC2Z7E6XNEJOZPCF", "current_trial": 251, "dateTime": 1512869817985, "trialdata": {"rt": -1, "stimulus": "<p id=\"stim\">1</p>", "key_press": -1, "trial_type": "single-stim", "trial_index": 251, "time_elapsed": 1156788, "internal_node_id": "0.0-179.0-9.0"}}, {"uniqueid": "MTK0901:3NJM2BJS4XDRYDKC2Z7E6XNEJOZPCF", "current_trial": 252, "dateTime": 1512869819486, "trialdata": {"rt": -1, "stimulus": "<p id=\"stim\">+</p>", "key_press": -1, "type": "FIXATION", "trial_type": "single-stim", "trial_index": 252, "time_elapsed": 1158289, "internal_node_id": "0.0-180.0-0.0"}}, {"uniqueid": "MTK0901:3NJM2BJS4XDRYDKC2Z7E6XNEJOZPCF", "current_trial": 253, "dateTime": 1512869822164, "trialdata": {"rt": -1000, "stimulus": "/static/audio/wordpool/CITRUS.wav", "key_press": -1, "type": "PRES_AUD", "word": "citrus", "wordID": 312, "conditions": [24, 1600, "a", 24000], "trial": 7, "serialpos": 0, "trial_type": "single-audio", "trial_index": 253, "time_elapsed": 1160967, "internal_node_id": "0.0-181.0"}}, {"uniqueid": "MTK0901:3NJM2BJS4XDRYDKC2Z7E6XNEJOZPCF", "current_trial": 254, "dateTime": 1512869824928, "trialdata": {"rt": -1000, "stimulus": "/static/audio/wordpool/SPHINX.wav", "key_press": -1, "type": "PRES_AUD", "word": "sphinx", "wordID": 1348, "conditions": [24, 1600, "a", 24000], "trial": 7, "serialpos": 1, "trial_type": "single-audio", "trial_index": 254, "time_elapsed": 1163730, "internal_node_id": "0.0-182.0"}}, {"uniqueid": "MTK0901:3NJM2BJS4XDRYDKC2Z7E6XNEJOZPCF", "current_trial": 255, "dateTime": 1512869827338, "trialdata": {"rt": -1000, "stimulus": "/static/audio/wordpool/PENGUIN.wav", "key_press": -1, "type": "PRES_AUD", "word": "penguin", "wordID": 1043, "conditions": [24, 1600, "a", 24000], "trial": 7, "serialpos": 2, "trial_type": "single-audio", "trial_index": 255, "time_elapsed": 1166141, "internal_node_id": "0.0-183.0"}}, {"uniqueid": "MTK0901:3NJM2BJS4XDRYDKC2Z7E6XNEJOZPCF", "current_trial": 256, "dateTime": 1512869829892, "trialdata": {"rt": -1000, "stimulus": "/static/audio/wordpool/KIDNEY.wav", "key_press": -1, "type": "PRES_AUD", "word": "kidney", "wordID": 775, "conditions": [24, 1600, "a", 24000], "trial": 7, "serialpos": 3, "trial_type": "single-audio", "trial_index": 256, "time_elapsed": 1168695, "internal_node_id": "0.0-184.0"}}, {"uniqueid": "MTK0901:3NJM2BJS4XDRYDKC2Z7E6XNEJOZPCF", "current_trial": 257, "dateTime": 1512869832431, "trialdata": {"rt": -1000, "stimulus": "/static/audio/wordpool/CRAYON.wav", "key_press": -1, "type": "PRES_AUD", "word": "crayon", "wordID": 400, "conditions": [24, 1600, "a", 24000], "trial": 7, "serialpos": 4, "trial_type": "single-audio", "trial_index": 257, "time_elapsed": 1171233, "internal_node_id": "0.0-185.0"}}, {"uniqueid": "MTK0901:3NJM2BJS4XDRYDKC2Z7E6XNEJOZPCF", "current_trial": 258, "dateTime": 1512869834873, "trialdata": {"rt": -1000, "stimulus": "/static/audio/wordpool/SUITCASE.wav", "key_press": -1, "type": "PRES_AUD", "word": "suitcase", "wordID": 1402, "conditions": [24, 1600, "a", 24000], "trial": 7, "serialpos": 5, "trial_type": "single-audio", "trial_index": 258, "time_elapsed": 1173675, "internal_node_id": "0.0-186.0"}}, {"uniqueid": "MTK0901:3NJM2BJS4XDRYDKC2Z7E6XNEJOZPCF", "current_trial": 259, "dateTime": 1512869837660, "trialdata": {"rt": -1000, "stimulus": "/static/audio/wordpool/DRUG.wav", "key_press": -1, "type": "PRES_AUD", "word": "drug", "wordID": 500, "conditions": [24, 1600, "a", 24000], "trial": 7, "serialpos": 6, "trial_type": "single-audio", "trial_index": 259, "time_elapsed": 1176463, "internal_node_id": "0.0-187.0"}}, {"uniqueid": "MTK0901:3NJM2BJS4XDRYDKC2Z7E6XNEJOZPCF", "current_trial": 260, "dateTime": 1512869840307, "trialdata": {"rt": -1000, "stimulus": "/static/audio/wordpool/GRAPE.wav", "key_press": -1, "type": "PRES_AUD", "word": "grape", "wordID": 653, "conditions": [24, 1600, "a", 24000], "trial": 7, "serialpos": 7, "trial_type": "single-audio", "trial_index": 260, "time_elapsed": 1179109, "internal_node_id": "0.0-188.0"}}, {"uniqueid": "MTK0901:3NJM2BJS4XDRYDKC2Z7E6XNEJOZPCF", "current_trial": 261, "dateTime": 1512869842909, "trialdata": {"rt": -1000, "stimulus": "/static/audio/wordpool/FRANCE.wav", "key_press": -1, "type": "PRES_AUD", "word": "france", "wordID": 600, "conditions": [24, 1600, "a", 24000], "trial": 7, "serialpos": 8, "trial_type": "single-audio", "trial_index": 261, "time_elapsed": 1181711, "internal_node_id": "0.0-189.0"}}, {"uniqueid": "MTK0901:3NJM2BJS4XDRYDKC2Z7E6XNEJOZPCF", "current_trial": 262, "dateTime": 1512869845590, "trialdata": {"rt": -1000, "stimulus": "/static/audio/wordpool/COUSIN.wav", "key_press": -1, "type": "PRES_AUD", "word": "cousin", "wordID": 391, "conditions": [24, 1600, "a", 24000], "trial": 7, "serialpos": 9, "trial_type": "single-audio", "trial_index": 262, "time_elapsed": 1184393, "internal_node_id": "0.0-190.0"}}, {"uniqueid": "MTK0901:3NJM2BJS4XDRYDKC2Z7E6XNEJOZPCF", "current_trial": 263, "dateTime": 1512869848038, "trialdata": {"rt": -1000, "stimulus": "/static/audio/wordpool/UNCLE.wav", "key_press": -1, "type": "PRES_AUD", "word": "uncle", "wordID": 1535, "conditions": [24, 1600, "a", 24000], "trial": 7, "serialpos": 10, "trial_type": "single-audio", "trial_index": 263, "time_elapsed": 1186840, "internal_node_id": "0.0-191.0"}}, {"uniqueid": "MTK0901:3NJM2BJS4XDRYDKC2Z7E6XNEJOZPCF", "current_trial": 264, "dateTime": 1512869850748, "trialdata": {"rt": -1000, "stimulus": "/static/audio/wordpool/MAMMAL.wav", "key_press": -1, "type": "PRES_AUD", "word": "mammal", "wordID": 860, "conditions": [24, 1600, "a", 24000], "trial": 7, "serialpos": 11, "trial_type": "single-audio", "trial_index": 264, "time_elapsed": 1189551, "internal_node_id": "0.0-192.0"}}, {"uniqueid": "MTK0901:3NJM2BJS4XDRYDKC2Z7E6XNEJOZPCF", "current_trial": 265, "dateTime": 1512869853398, "trialdata": {"rt": -1000, "stimulus": "/static/audio/wordpool/VICTIM.wav", "key_press": -1, "type": "PRES_AUD", "word": "victim", "wordID": 1561, "conditions": [24, 1600, "a", 24000], "trial": 7, "serialpos": 12, "trial_type": "single-audio", "trial_index": 265, "time_elapsed": 1192200, "internal_node_id": "0.0-193.0"}}, {"uniqueid": "MTK0901:3NJM2BJS4XDRYDKC2Z7E6XNEJOZPCF", "current_trial": 266, "dateTime": 1512869855986, "trialdata": {"rt": -1000, "stimulus": "/static/audio/wordpool/LAMP.wav", "key_press": -1, "type": "PRES_AUD", "word": "lamp", "wordID": 797, "conditions": [24, 1600, "a", 24000], "trial": 7, "serialpos": 13, "trial_type": "single-audio", "trial_index": 266, "time_elapsed": 1194789, "internal_node_id": "0.0-194.0"}}, {"uniqueid": "MTK0901:3NJM2BJS4XDRYDKC2Z7E6XNEJOZPCF", "current_trial": 267, "dateTime": 1512869858477, "trialdata": {"rt": -1000, "stimulus": "/static/audio/wordpool/SMOG.wav", "key_press": -1, "type": "PRES_AUD", "word": "smog", "wordID": 1329, "conditions": [24, 1600, "a", 24000], "trial": 7, "serialpos": 14, "trial_type": "single-audio", "trial_index": 267, "time_elapsed": 1197280, "internal_node_id": "0.0-195.0"}}, {"uniqueid": "MTK0901:3NJM2BJS4XDRYDKC2Z7E6XNEJOZPCF", "current_trial": 268, "dateTime": 1512869860985, "trialdata": {"rt": -1000, "stimulus": "/static/audio/wordpool/OZONE.wav", "key_press": -1, "type": "PRES_AUD", "word": "ozone", "wordID": 995, "conditions": [24, 1600, "a", 24000], "trial": 7, "serialpos": 15, "trial_type": "single-audio", "trial_index": 268, "time_elapsed": 1199788, "internal_node_id": "0.0-196.0"}}, {"uniqueid": "MTK0901:3NJM2BJS4XDRYDKC2Z7E6XNEJOZPCF", "current_trial": 269, "dateTime": 1512869863403, "trialdata": {"rt": -1000, "stimulus": "/static/audio/wordpool/SUSPECT.wav", "key_press": -1, "type": "PRES_AUD", "word": "suspect", "wordID": 1414, "conditions": [24, 1600, "a", 24000], "trial": 7, "serialpos": 16, "trial_type": "single-audio", "trial_index": 269, "time_elapsed": 1202206, "internal_node_id": "0.0-197.0"}}, {"uniqueid": "MTK0901:3NJM2BJS4XDRYDKC2Z7E6XNEJOZPCF", "current_trial": 270, "dateTime": 1512869865947, "trialdata": {"rt": -1000, "stimulus": "/static/audio/wordpool/DASHBOARD.wav", "key_press": -1, "type": "PRES_AUD", "word": "dashboard", "wordID": 440, "conditions": [24, 1600, "a", 24000], "trial": 7, "serialpos": 17, "trial_type": "single-audio", "trial_index": 270, "time_elapsed": 1204749, "internal_node_id": "0.0-198.0"}}, {"uniqueid": "MTK0901:3NJM2BJS4XDRYDKC2Z7E6XNEJOZPCF", "current_trial": 271, "dateTime": 1512869868500, "trialdata": {"rt": -1000, "stimulus": "/static/audio/wordpool/PIMPLE.wav", "key_press": -1, "type": "PRES_AUD", "word": "pimple", "wordID": 1070, "conditions": [24, 1600, "a", 24000], "trial": 7, "serialpos": 18, "trial_type": "single-audio", "trial_index": 271, "time_elapsed": 1207302, "internal_node_id": "0.0-199.0"}}, {"uniqueid": "MTK0901:3NJM2BJS4XDR