{"condition": 0, "counterbalance": 1977, "assignmentId": "3F0BG9B9MQUFVAHH25VM32OCKAJ7YO", "workerId": "MTK0617", "hitId": "3KTCJ4SCVG8Z3NF74KL0JDE8U4IM1K", "currenttrial": 626, "bonus": 0, "data": [{"uniqueid": "MTK0617:3F0BG9B9MQUFVAHH25VM32OCKAJ7YO", "current_trial": 0, "dateTime": 1511565367534, "trialdata": {"rt": 5108, "key_press": 78, "type": "INSTRUCTIONS", "trial_type": "text", "trial_index": 0, "time_elapsed": 5110, "internal_node_id": "0.0-0.0"}}, {"uniqueid": "MTK0617:3F0BG9B9MQUFVAHH25VM32OCKAJ7YO", "current_trial": 1, "dateTime": 1511565371649, "trialdata": {"rt": 4114, "key_press": 175, "type": "INSTRUCTIONS", "trial_type": "text", "trial_index": 1, "time_elapsed": 9226, "internal_node_id": "0.0-1.0"}}, {"uniqueid": "MTK0617:3F0BG9B9MQUFVAHH25VM32OCKAJ7YO", "current_trial": 2, "dateTime": 1511565399626, "trialdata": {"rt": [27965], "responses": ["ocean"], "type": "AUDIO_TEST", "trial_type": "audio-test", "trial_index": 2, "time_elapsed": 37202, "internal_node_id": "0.0-2.0"}}, {"uniqueid": "MTK0617:3F0BG9B9MQUFVAHH25VM32OCKAJ7YO", "current_trial": 3, "dateTime": 1511565435973, "trialdata": {"rt": [36342], "responses": ["crystal"], "type": "AUDIO_TEST", "trial_type": "audio-test", "trial_index": 3, "time_elapsed": 73550, "internal_node_id": "0.0-3.0"}}, {"uniqueid": "MTK0617:3F0BG9B9MQUFVAHH25VM32OCKAJ7YO", "current_trial": 4, "dateTime": 1511565481740, "trialdata": {"rt": [7212, 45761], "responses": ["fight", "spice"], "type": "AUDIO_TEST", "trial_type": "audio-test", "trial_index": 4, "time_elapsed": 119317, "internal_node_id": "0.0-4.0"}}, {"uniqueid": "MTK0617:3F0BG9B9MQUFVAHH25VM32OCKAJ7YO", "current_trial": 5, "dateTime": 1511565515375, "trialdata": {"rt": 32882, "responses": "{\"Q0\":\"2:00 AM\",\"Q1\":\"9:00 AM\",\"Q2\":\"5\"}", "type": "SLEEP_SURVEY", "trial_type": "survey-text", "trial_index": 5, "time_elapsed": 152952, "internal_node_id": "0.0-5.0"}}, {"uniqueid": "MTK0617:3F0BG9B9MQUFVAHH25VM32OCKAJ7YO", "current_trial": 6, "dateTime": 1511565569184, "trialdata": {"rt": 52808, "key_press": 78, "type": "INSTRUCTIONS", "trial_type": "text", "trial_index": 6, "time_elapsed": 206761, "internal_node_id": "0.0-6.0"}}, {"uniqueid": "MTK0617:3F0BG9B9MQUFVAHH25VM32OCKAJ7YO", "current_trial": 7, "dateTime": 1511565586353, "trialdata": {"rt": 16668, "key_press": 78, "type": "INSTRUCTIONS", "trial_type": "text", "trial_index": 7, "time_elapsed": 223930, "internal_node_id": "0.0-7.0"}}, {"uniqueid": "MTK0617:3F0BG9B9MQUFVAHH25VM32OCKAJ7YO", "current_trial": 8, "dateTime": 1511565603174, "trialdata": {"rt": 16319, "key_press": 78, "type": "INSTRUCTIONS", "trial_type": "text", "trial_index": 8, "time_elapsed": 240751, "internal_node_id": "0.0-8.0"}}, {"uniqueid": "MTK0617:3F0BG9B9MQUFVAHH25VM32OCKAJ7YO", "current_trial": 9, "dateTime": 1511565622187, "trialdata": {"rt": [4903, 10315, 14063, 17634], "responses": ["13", "26", "11", "13"], "num1": [3, 9, 2, 4, 8], "num2": [3, 8, 5, 5, 5], "num3": [7, 9, 4, 4, 4], "type": "DISTRACTOR", "conditions": [18, 1200, "a", 18000], "trial": 0, "trial_type": "math-distractor", "trial_index": 9, "time_elapsed": 259764, "internal_node_id": "0.0-9.0"}}, {"uniqueid": "MTK0617:3F0BG9B9MQUFVAHH25VM32OCKAJ7YO", "current_trial": 10, "dateTime": 1511565625190, "trialdata": {"rt": -1, "stimulus": "<p id=\"stim\">10</p>", "key_press": -1, "trial_type": "single-stim", "trial_index": 10, "time_elapsed": 262767, "internal_node_id": "0.0-10.0-0.0"}}, {"uniqueid": "MTK0617:3F0BG9B9MQUFVAHH25VM32OCKAJ7YO", "current_trial": 11, "dateTime": 1511565626190, "trialdata": {"rt": -1, "stimulus": "<p id=\"stim\">9</p>", "key_press": -1, "trial_type": "single-stim", "trial_index": 11, "time_elapsed": 263767, "internal_node_id": "0.0-10.0-1.0"}}, {"uniqueid": "MTK0617:3F0BG9B9MQUFVAHH25VM32OCKAJ7YO", "current_trial": 12, "dateTime": 1511565627192, "trialdata": {"rt": -1, "stimulus": "<p id=\"stim\">8</p>", "key_press": -1, "trial_type": "single-stim", "trial_index": 12, "time_elapsed": 264768, "internal_node_id": "0.0-10.0-2.0"}}, {"uniqueid": "MTK0617:3F0BG9B9MQUFVAHH25VM32OCKAJ7YO", "current_trial": 13, "dateTime": 1511565628192, "trialdata": {"rt": -1, "stimulus": "<p id=\"stim\">7</p>", "key_press": -1, "trial_type": "single-stim", "trial_index": 13, "time_elapsed": 265769, "internal_node_id": "0.0-10.0-3.0"}}, {"uniqueid": "MTK0617:3F0BG9B9MQUFVAHH25VM32OCKAJ7YO", "current_trial": 14, "dateTime": 1511565629194, "trialdata": {"rt": -1, "stimulus": "<p id=\"stim\">6</p>", "key_press": -1, "trial_type": "single-stim", "trial_index": 14, "time_elapsed": 266771, "internal_node_id": "0.0-10.0-4.0"}}, {"uniqueid": "MTK0617:3F0BG9B9MQUFVAHH25VM32OCKAJ7YO", "current_trial": 15, "dateTime": 1511565630196, "trialdata": {"rt": -1, "stimulus": "<p id=\"stim\">5</p>", "key_press": -1, "trial_type": "single-stim", "trial_index": 15, "time_elapsed": 267773, "internal_node_id": "0.0-10.0-5.0"}}, {"uniqueid": "MTK0617:3F0BG9B9MQUFVAHH25VM32OCKAJ7YO", "current_trial": 16, "dateTime": 1511565631198, "trialdata": {"rt": -1, "stimulus": "<p id=\"stim\">4</p>", "key_press": -1, "trial_type": "single-stim", "trial_index": 16, "time_elapsed": 268775, "internal_node_id": "0.0-10.0-6.0"}}, {"uniqueid": "MTK0617:3F0BG9B9MQUFVAHH25VM32OCKAJ7YO", "current_trial": 17, "dateTime": 1511565632199, "trialdata": {"rt": -1, "stimulus": "<p id=\"stim\">3</p>", "key_press": -1, "trial_type": "single-stim", "trial_index": 17, "time_elapsed": 269776, "internal_node_id": "0.0-10.0-7.0"}}, {"uniqueid": "MTK0617:3F0BG9B9MQUFVAHH25VM32OCKAJ7YO", "current_trial": 18, "dateTime": 1511565633201, "trialdata": {"rt": -1, "stimulus": "<p id=\"stim\">2</p>", "key_press": -1, "trial_type": "single-stim", "trial_index": 18, "time_elapsed": 270777, "internal_node_id": "0.0-10.0-8.0"}}, {"uniqueid": "MTK0617:3F0BG9B9MQUFVAHH25VM32OCKAJ7YO", "current_trial": 19, "dateTime": 1511565634201, "trialdata": {"rt": -1, "stimulus": "<p id=\"stim\">1</p>", "key_press": -1, "trial_type": "single-stim", "trial_index": 19, "time_elapsed": 271778, "internal_node_id": "0.0-10.0-9.0"}}, {"uniqueid": "MTK0617:3F0BG9B9MQUFVAHH25VM32OCKAJ7YO", "current_trial": 20, "dateTime": 1511565635703, "trialdata": {"rt": -1, "stimulus": "<p id=\"stim\">+</p>", "key_press": -1, "type": "FIXATION", "trial_type": "single-stim", "trial_index": 20, "time_elapsed": 273279, "internal_node_id": "0.0-11.0-0.0"}}, {"uniqueid": "MTK0617:3F0BG9B9MQUFVAHH25VM32OCKAJ7YO", "current_trial": 21, "dateTime": 1511565637977, "trialdata": {"rt": -1000, "stimulus": "/static/audio/wordpool/TURTLE.wav", "key_press": -1, "type": "PRES_AUD", "word": "turtle", "wordID": 1521, "conditions": [18, 1200, "a", 18000], "trial": 0, "serialpos": 0, "trial_type": "single-audio", "trial_index": 21, "time_elapsed": 275554, "internal_node_id": "0.0-12.0"}}, {"uniqueid": "MTK0617:3F0BG9B9MQUFVAHH25VM32OCKAJ7YO", "current_trial": 22, "dateTime": 1511565640048, "trialdata": {"rt": -1000, "stimulus": "/static/audio/wordpool/TRENCH.wav", "key_press": -1, "type": "PRES_AUD", "word": "trench", "wordID": 1502, "conditions": [18, 1200, "a", 18000], "trial": 0, "serialpos": 1, "trial_type": "single-audio", "trial_index": 22, "time_elapsed": 277624, "internal_node_id": "0.0-13.0"}}, {"uniqueid": "MTK0617:3F0BG9B9MQUFVAHH25VM32OCKAJ7YO", "current_trial": 23, "dateTime": 1511565642179, "trialdata": {"rt": -1000, "stimulus": "/static/audio/wordpool/PISTOL.wav", "key_press": -1, "type": "PRES_AUD", "word": "pistol", "wordID": 1074, "conditions": [18, 1200, "a", 18000], "trial": 0, "serialpos": 2, "trial_type": "single-audio", "trial_index": 23, "time_elapsed": 279756, "internal_node_id": "0.0-14.0"}}, {"uniqueid": "MTK0617:3F0BG9B9MQUFVAHH25VM32OCKAJ7YO", "current_trial": 24, "dateTime": 1511565644264, "trialdata": {"rt": -1000, "stimulus": "/static/audio/wordpool/CLOUD.wav", "key_press": -1, "type": "PRES_AUD", "word": "cloud", "wordID": 327, "conditions": [18, 1200, "a", 18000], "trial": 0, "serialpos": 3, "trial_type": "single-audio", "trial_index": 24, "time_elapsed": 281841, "internal_node_id": "0.0-15.0"}}, {"uniqueid": "MTK0617:3F0BG9B9MQUFVAHH25VM32OCKAJ7YO", "current_trial": 25, "dateTime": 1511565646442, "trialdata": {"rt": -1000, "stimulus": "/static/audio/wordpool/PIMPLE.wav", "key_press": -1, "type": "PRES_AUD", "word": "pimple", "wordID": 1070, "conditions": [18, 1200, "a", 18000], "trial": 0, "serialpos": 4, "trial_type": "single-audio", "trial_index": 25, "time_elapsed": 284019, "internal_node_id": "0.0-16.0"}}, {"uniqueid": "MTK0617:3F0BG9B9MQUFVAHH25VM32OCKAJ7YO", "current_trial": 26, "dateTime": 1511565648668, "trialdata": {"rt": -1000, "stimulus": "/static/audio/wordpool/KIDNEY.wav", "key_press": -1, "type": "PRES_AUD", "word": "kidney", "wordID": 775, "conditions": [18, 1200, "a", 18000], "trial": 0, "serialpos": 5, "trial_type": "single-audio", "trial_index": 26, "time_elapsed": 286245, "internal_node_id": "0.0-17.0"}}, {"uniqueid": "MTK0617:3F0BG9B9MQUFVAHH25VM32OCKAJ7YO", "current_trial": 27, "dateTime": 1511565651018, "trialdata": {"rt": -1000, "stimulus": "/static/audio/wordpool/FRECKLE.wav", "key_press": -1, "type": "PRES_AUD", "word": "freckle", "wordID": 601, "conditions": [18, 1200, "a", 18000], "trial": 0, "serialpos": 6, "trial_type": "single-audio", "trial_index": 27, "time_elapsed": 288594, "internal_node_id": "0.0-18.0"}}, {"uniqueid": "MTK0617:3F0BG9B9MQUFVAHH25VM32OCKAJ7YO", "current_trial": 28, "dateTime": 1511565653271, "trialdata": {"rt": -1000, "stimulus": "/static/audio/wordpool/BREAST.wav", "key_press": -1, "type": "PRES_AUD", "word": "breast", "wordID": 170, "conditions": [18, 1200, "a", 18000], "trial": 0, "serialpos": 7, "trial_type": "single-audio", "trial_index": 28, "time_elapsed": 290848, "internal_node_id": "0.0-19.0"}}, {"uniqueid": "MTK0617:3F0BG9B9MQUFVAHH25VM32OCKAJ7YO", "current_trial": 29, "dateTime": 1511565655582, "trialdata": {"rt": -1000, "stimulus": "/static/audio/wordpool/LIGHTNING.wav", "key_press": -1, "type": "PRES_AUD", "word": "lightning", "wordID": 819, "conditions": [18, 1200, "a", 18000], "trial": 0, "serialpos": 8, "trial_type": "single-audio", "trial_index": 29, "time_elapsed": 293158, "internal_node_id": "0.0-20.0"}}, {"uniqueid": "MTK0617:3F0BG9B9MQUFVAHH25VM32OCKAJ7YO", "current_trial": 30, "dateTime": 1511565657871, "trialdata": {"rt": -1000, "stimulus": "/static/audio/wordpool/GLOVE.wav", "key_press": -1, "type": "PRES_AUD", "word": "glove", "wordID": 641, "conditions": [18, 1200, "a", 18000], "trial": 0, "serialpos": 9, "trial_type": "single-audio", "trial_index": 30, "time_elapsed": 295448, "internal_node_id": "0.0-21.0"}}, {"uniqueid": "MTK0617:3F0BG9B9MQUFVAHH25VM32OCKAJ7YO", "current_trial": 31, "dateTime": 1511565659889, "trialdata": {"rt": -1000, "stimulus": "/static/audio/wordpool/SUNSET.wav", "key_press": -1, "type": "PRES_AUD", "word": "sunset", "wordID": 1407, "conditions": [18, 1200, "a", 18000], "trial": 0, "serialpos": 10, "trial_type": "single-audio", "trial_index": 31, "time_elapsed": 297466, "internal_node_id": "0.0-22.0"}}, {"uniqueid": "MTK0617:3F0BG9B9MQUFVAHH25VM32OCKAJ7YO", "current_trial": 32, "dateTime": 1511565662129, "trialdata": {"rt": -1000, "stimulus": "/static/audio/wordpool/BEAKER.wav", "key_press": -1, "type": "PRES_AUD", "word": "beaker", "wordID": 103, "conditions": [18, 1200, "a", 18000], "trial": 0, "serialpos": 11, "trial_type": "single-audio", "trial_index": 32, "time_elapsed": 299705, "internal_node_id": "0.0-23.0"}}, {"uniqueid": "MTK0617:3F0BG9B9MQUFVAHH25VM32OCKAJ7YO", "current_trial": 33, "dateTime": 1511565664191, "trialdata": {"rt": -1000, "stimulus": "/static/audio/wordpool/SWORD.wav", "key_press": -1, "type": "PRES_AUD", "word": "sword", "wordID": 1422, "conditions": [18, 1200, "a", 18000], "trial": 0, "serialpos": 12, "trial_type": "single-audio", "trial_index": 33, "time_elapsed": 301768, "internal_node_id": "0.0-24.0"}}, {"uniqueid": "MTK0617:3F0BG9B9MQUFVAHH25VM32OCKAJ7YO", "current_trial": 34, "dateTime": 1511565666207, "trialdata": {"rt": -1000, "stimulus": "/static/audio/wordpool/VELVET.wav", "key_press": -1, "type": "PRES_AUD", "word": "velvet", "wordID": 1554, "conditions": [18, 1200, "a", 18000], "trial": 0, "serialpos": 13, "trial_type": "single-audio", "trial_index": 34, "time_elapsed": 303784, "internal_node_id": "0.0-25.0"}}, {"uniqueid": "MTK0617:3F0BG9B9MQUFVAHH25VM32OCKAJ7YO", "current_trial": 35, "dateTime": 1511565668389, "trialdata": {"rt": -1000, "stimulus": "/static/audio/wordpool/MOTEL.wav", "key_press": -1, "type": "PRES_AUD", "word": "motel", "wordID": 918, "conditions": [18, 1200, "a", 18000], "trial": 0, "serialpos": 14, "trial_type": "single-audio", "trial_index": 35, "time_elapsed": 305966, "internal_node_id": "0.0-26.0"}}, {"uniqueid": "MTK0617:3F0BG9B9MQUFVAHH25VM32OCKAJ7YO", "current_trial": 36, "dateTime": 1511565670567, "trialdata": {"rt": -1000, "stimulus": "/static/audio/wordpool/MARKET.wav", "key_press": -1, "type": "PRES_AUD", "word": "market", "wordID": 870, "conditions": [18, 1200, "a", 18000], "trial": 0, "serialpos": 15, "trial_type": "single-audio", "trial_index": 36, "time_elapsed": 308144, "internal_node_id": "0.0-27.0"}}, {"uniqueid": "MTK0617:3F0BG9B9MQUFVAHH25VM32OCKAJ7YO", "current_trial": 37, "dateTime": 1511565672925, "trialdata": {"rt": -1000, "stimulus": "/static/audio/wordpool/COMPASS.wav", "key_press": -1, "type": "PRES_AUD", "word": "compass", "wordID": 357, "conditions": [18, 1200, "a", 18000], "trial": 0, "serialpos": 16, "trial_type": "single-audio", "trial_index": 37, "time_elapsed": 310502, "internal_node_id": "0.0-28.0"}}, {"uniqueid": "MTK0617:3F0BG9B9MQUFVAHH25VM32OCKAJ7YO", "current_trial": 38, "dateTime": 1511565675029, "trialdata": {"rt": -1000, "stimulus": "/static/audio/wordpool/DRESSER.wav", "key_press": -1, "type": "PRES_AUD", "word": "dresser", "wordID": 495, "conditions": [18, 1200, "a", 18000], "trial": 0, "serialpos": 17, "trial_type": "single-audio", "trial_index": 38, "time_elapsed": 312605, "internal_node_id": "0.0-29.0"}}, {"uniqueid": "MTK0617:3F0BG9B9MQUFVAHH25VM32OCKAJ7YO", "current_trial": 39, "dateTime": 1511565676349, "trialdata": {"rt": -1, "stimulus": "", "key_press": -1, "type": "PRE_RECALL_DELAY", "trial_type": "single-stim", "trial_index": 39, "time_elapsed": 313926, "internal_node_id": "0.0-30.0-0.0"}}, {"uniqueid": "MTK0617:3F0BG9B9MQUFVAHH25VM32OCKAJ7YO", "current_trial": 40, "dateTime": 1511565676856, "trialdata": {"rt": -1000, "stimulus": "/static/audio/400Hz.wav", "key_press": -1, "type": "PRE_RECALL_ALERT", "trial_type": "single-audio", "trial_index": 40, "time_elapsed": 314433, "internal_node_id": "0.0-31.0"}}, {"uniqueid": "MTK0617:3F0BG9B9MQUFVAHH25VM32OCKAJ7YO", "current_trial": 41, "dateTime": 1511565736862, "trialdata": {"rt": [4375, 7482, 13024, 17524, 23302, 29528, 38081], "recwords": ["dresser", "compass", "breast", "lightning", "turtle", "trench", "motel"], "type": "FREE_RECALL", "conditions": [18, 1200, "a", 18000], "trial": 0, "trial_type": "free-recall", "trial_index": 41, "time_elapsed": 374437, "internal_node_id": "0.0-32.0-0.0"}}, {"uniqueid": "MTK0617:3F0BG9B9MQUFVAHH25VM32OCKAJ7YO", "current_trial": 42, "dateTime": 1511565740672, "trialdata": {"rt": 1808, "key_press": 78, "type": "INSTRUCTIONS", "trial_type": "text", "trial_index": 42, "time_elapsed": 378249, "internal_node_id": "0.0-33.0"}}, {"uniqueid": "MTK0617:3F0BG9B9MQUFVAHH25VM32OCKAJ7YO", "current_trial": 43, "dateTime": 1511565760676, "trialdata": {"rt": [3625, 6667, 9513, 13388, 16794], "responses": ["14", "16", "17", "20", "8"], "num1": [3, 7, 7, 7, 4, 2], "num2": [6, 6, 7, 5, 3, 2], "num3": [5, 3, 3, 8, 1, 5], "type": "DISTRACTOR", "conditions": [18, 1200, "v", 18000], "trial": 1, "trial_type": "math-distractor", "trial_index": 43, "time_elapsed": 398253, "internal_node_id": "0.0-34.0"}}, {"uniqueid": "MTK0617:3F0BG9B9MQUFVAHH25VM32OCKAJ7YO", "current_trial": 44, "dateTime": 1511565763678, "trialdata": {"rt": -1, "stimulus": "<p id=\"stim\">10</p>", "key_press": -1, "trial_type": "single-stim", "trial_index": 44, "time_elapsed": 401255, "internal_node_id": "0.0-35.0-0.0"}}, {"uniqueid": "MTK0617:3F0BG9B9MQUFVAHH25VM32OCKAJ7YO", "current_trial": 45, "dateTime": 1511565764679, "trialdata": {"rt": -1, "stimulus": "<p id=\"stim\">9</p>", "key_press": -1, "trial_type": "single-stim", "trial_index": 45, "time_elapsed": 402256, "internal_node_id": "0.0-35.0-1.0"}}, {"uniqueid": "MTK0617:3F0BG9B9MQUFVAHH25VM32OCKAJ7YO", "current_trial": 46, "dateTime": 1511565765681, "trialdata": {"rt": -1, "stimulus": "<p id=\"stim\">8</p>", "key_press": -1, "trial_type": "single-stim", "trial_index": 46, "time_elapsed": 403257, "internal_node_id": "0.0-35.0-2.0"}}, {"uniqueid": "MTK0617:3F0BG9B9MQUFVAHH25VM32OCKAJ7YO", "current_trial": 47, "dateTime": 1511565766682, "trialdata": {"rt": -1, "stimulus": "<p id=\"stim\">7</p>", "key_press": -1, "trial_type": "single-stim", "trial_index": 47, "time_elapsed": 404258, "internal_node_id": "0.0-35.0-3.0"}}, {"uniqueid": "MTK0617:3F0BG9B9MQUFVAHH25VM32OCKAJ7YO", "current_trial": 48, "dateTime": 1511565767683, "trialdata": {"rt": -1, "stimulus": "<p id=\"stim\">6</p>", "key_press": -1, "trial_type": "single-stim", "trial_index": 48, "time_elapsed": 405259, "internal_node_id": "0.0-35.0-4.0"}}, {"uniqueid": "MTK0617:3F0BG9B9MQUFVAHH25VM32OCKAJ7YO", "current_trial": 49, "dateTime": 1511565768684, "trialdata": {"rt": -1, "stimulus": "<p id=\"stim\">5</p>", "key_press": -1, "trial_type": "single-stim", "trial_index": 49, "time_elapsed": 406260, "internal_node_id": "0.0-35.0-5.0"}}, {"uniqueid": "MTK0617:3F0BG9B9MQUFVAHH25VM32OCKAJ7YO", "current_trial": 50, "dateTime": 1511565769685, "trialdata": {"rt": -1, "stimulus": "<p id=\"stim\">4</p>", "key_press": -1, "trial_type": "single-stim", "trial_index": 50, "time_elapsed": 407262, "internal_node_id": "0.0-35.0-6.0"}}, {"uniqueid": "MTK0617:3F0BG9B9MQUFVAHH25VM32OCKAJ7YO", "current_trial": 51, "dateTime": 1511565770686, "trialdata": {"rt": -1, "stimulus": "<p id=\"stim\">3</p>", "key_press": -1, "trial_type": "single-stim", "trial_index": 51, "time_elapsed": 408263, "internal_node_id": "0.0-35.0-7.0"}}, {"uniqueid": "MTK0617:3F0BG9B9MQUFVAHH25VM32OCKAJ7YO", "current_trial": 52, "dateTime": 1511565771687, "trialdata": {"rt": -1, "stimulus": "<p id=\"stim\">2</p>", "key_press": -1, "trial_type": "single-stim", "trial_index": 52, "time_elapsed": 409263, "internal_node_id": "0.0-35.0-8.0"}}, {"uniqueid": "MTK0617:3F0BG9B9MQUFVAHH25VM32OCKAJ7YO", "current_trial": 53, "dateTime": 1511565772688, "trialdata": {"rt": -1, "stimulus": "<p id=\"stim\">1</p>", "key_press": -1, "trial_type": "single-stim", "trial_index": 53, "time_elapsed": 410264, "internal_node_id": "0.0-35.0-9.0"}}, {"uniqueid": "MTK0617:3F0BG9B9MQUFVAHH25VM32OCKAJ7YO", "current_trial": 54, "dateTime": 1511565774189, "trialdata": {"rt": -1, "stimulus": "<p id=\"stim\">+</p>", "key_press": -1, "type": "FIXATION", "trial_type": "single-stim", "trial_index": 54, "time_elapsed": 411766, "internal_node_id": "0.0-36.0-0.0"}}, {"uniqueid": "MTK0617:3F0BG9B9MQUFVAHH25VM32OCKAJ7YO", "current_trial": 55, "dateTime": 1511565775391, "trialdata": {"rt": -1, "stimulus": "<p id=\"stim\">LIPSTICK</p>", "key_press": -1, "type": "PRES_VIS", "word": "lipstick", "wordID": 828, "conditions": [18, 1200, "v", 18000], "trial": 1, "serialpos": 0, "trial_type": "single-stim", "trial_index": 55, "time_elapsed": 412967, "internal_node_id": "0.0-37.0"}}, {"uniqueid": "MTK0617:3F0BG9B9MQUFVAHH25VM32OCKAJ7YO", "current_trial": 56, "dateTime": 1511565777657, "trialdata": {"rt": -1, "stimulus": "<p id=\"stim\">PEBBLE</p>", "key_press": -1, "type": "PRES_VIS", "word": "pebble", "wordID": 1034, "conditions": [18, 1200, "v", 18000], "trial": 1, "serialpos": 1, "trial_type": "single-stim", "trial_index": 56, "time_elapsed": 415234, "internal_node_id": "0.0-38.0"}}, {"uniqueid": "MTK0617:3F0BG9B9MQUFVAHH25VM32OCKAJ7YO", "current_trial": 57, "dateTime": 1511565779934, "trialdata": {"rt": -1, "stimulus": "<p id=\"stim\">EUROPE</p>", "key_press": -1, "type": "PRES_VIS", "word": "europe", "wordID": 540, "conditions": [18, 1200, "v", 18000], "trial": 1, "serialpos": 2, "trial_type": "single-stim", "trial_index": 57, "time_elapsed": 417510, "internal_node_id": "0.0-39.0"}}, {"uniqueid": "MTK0617:3F0BG9B9MQUFVAHH25VM32OCKAJ7YO", "current_trial": 58, "dateTime": 1511565782239, "trialdata": {"rt": -1, "stimulus": "<p id=\"stim\">STALLION</p>", "key_press": -1, "type": "PRES_VIS", "word": "stallion", "wordID": 1368, "conditions": [18, 1200, "v", 18000], "trial": 1, "serialpos": 3, "trial_type": "single-stim", "trial_index": 58, "time_elapsed": 419815, "internal_node_id": "0.0-40.0"}}, {"uniqueid": "MTK0617:3F0BG9B9MQUFVAHH25VM32OCKAJ7YO", "current_trial": 59, "dateTime": 1511565784280, "trialdata": {"rt": -1, "stimulus": "<p id=\"stim\">PICNIC</p>", "key_press": -1, "type": "PRES_VIS", "word": "picnic", "wordID": 1059, "conditions": [18, 1200, "v", 18000], "trial": 1, "serialpos": 4, "trial_type": "single-stim", "trial_index": 59, "time_elapsed": 421857, "internal_node_id": "0.0-41.0"}}, {"uniqueid": "MTK0617:3F0BG9B9MQUFVAHH25VM32OCKAJ7YO", "current_trial": 60, "dateTime": 1511565786510, "trialdata": {"rt": -1, "stimulus": "<p id=\"stim\">BACKBONE</p>", "key_press": -1, "type": "PRES_VIS", "word": "backbone", "wordID": 65, "conditions": [18, 1200, "v", 18000], "trial": 1, "serialpos": 5, "trial_type": "single-stim", "trial_index": 60, "time_elapsed": 424087, "internal_node_id": "0.0-42.0"}}, {"uniqueid": "MTK0617:3F0BG9B9MQUFVAHH25VM32OCKAJ7YO", "current_trial": 61, "dateTime": 1511565788819, "trialdata": {"rt": -1, "stimulus": "<p id=\"stim\">WOMAN</p>", "key_press": -1, "type": "PRES_VIS", "word": "woman", "wordID": 1619, "conditions": [18, 1200, "v", 18000], "trial": 1, "serialpos": 6, "trial_type": "single-stim", "trial_index": 61, "time_elapsed": 426396, "internal_node_id": "0.0-43.0"}}, {"uniqueid": "MTK0617:3F0BG9B9MQUFVAHH25VM32OCKAJ7YO", "current_trial": 62, "dateTime": 1511565791140, "trialdata": {"rt": -1, "stimulus": "<p id=\"stim\">PADDING</p>", "key_press": -1, "type": "PRES_VIS", "word": "padding", "wordID": 998, "conditions": [18, 1200, "v", 18000], "trial": 1, "serialpos": 7, "trial_type": "single-stim", "trial_index": 62, "time_elapsed": 428716, "internal_node_id": "0.0-44.0"}}, {"uniqueid": "MTK0617:3F0BG9B9MQUFVAHH25VM32OCKAJ7YO", "current_trial": 63, "dateTime": 1511565793225, "trialdata": {"rt": -1, "stimulus": "<p id=\"stim\">DRIVER</p>", "key_press": -1, "type": "PRES_VIS", "word": "driver", "wordID": 498, "conditions": [18, 1200, "v", 18000], "trial": 1, "serialpos": 8, "trial_type": "single-stim", "trial_index": 63, "time_elapsed": 430801, "internal_node_id": "0.0-45.0"}}, {"uniqueid": "MTK0617:3F0BG9B9MQUFVAHH25VM32OCKAJ7YO", "current_trial": 64, "dateTime": 1511565795516, "trialdata": {"rt": -1, "stimulus": "<p id=\"stim\">RECORD</p>", "key_press": -1, "type": "PRES_VIS", "word": "record", "wordID": 1175, "conditions": [18, 1200, "v", 18000], "trial": 1, "serialpos": 9, "trial_type": "single-stim", "trial_index": 64, "time_elapsed": 433093, "internal_node_id": "0.0-46.0"}}, {"uniqueid": "MTK0617:3F0BG9B9MQUFVAHH25VM32OCKAJ7YO", "current_trial": 65, "dateTime": 1511565797673, "trialdata": {"rt": -1, "stimulus": "<p id=\"stim\">DOUGHNUT</p>", "key_press": -1, "type": "PRES_VIS", "word": "doughnut", "wordID": 489, "conditions": [18, 1200, "v", 18000], "trial": 1, "serialpos": 10, "trial_type": "single-stim", "trial_index": 65, "time_elapsed": 435250, "internal_node_id": "0.0-47.0"}}, {"uniqueid": "MTK0617:3F0BG9B9MQUFVAHH25VM32OCKAJ7YO", "current_trial": 66, "dateTime": 1511565799711, "trialdata": {"rt": -1, "stimulus": "<p id=\"stim\">VIRUS</p>", "key_press": -1, "type": "PRES_VIS", "word": "virus", "wordID": 1571, "conditions": [18, 1200, "v", 18000], "trial": 1, "serialpos": 11, "trial_type": "single-stim", "trial_index": 66, "time_elapsed": 437288, "internal_node_id": "0.0-48.0"}}, {"uniqueid": "MTK0617:3F0BG9B9MQUFVAHH25VM32OCKAJ7YO", "current_trial": 67, "dateTime": 1511565801868, "trialdata": {"rt": -1, "stimulus": "<p id=\"stim\">GANGSTER</p>", "key_press": -1, "type": "PRES_VIS", "word": "gangster", "wordID": 619, "conditions": [18, 1200, "v", 18000], "trial": 1, "serialpos": 12, "trial_type": "single-stim", "trial_index": 67, "time_elapsed": 439444, "internal_node_id": "0.0-49.0"}}, {"uniqueid": "MTK0617:3F0BG9B9MQUFVAHH25VM32OCKAJ7YO", "current_trial": 68, "dateTime": 1511565804247, "trialdata": {"rt": -1, "stimulus": "<p id=\"stim\">INFANT</p>", "key_press": -1, "type": "PRES_VIS", "word": "infant", "wordID": 736, "conditions": [18, 1200, "v", 18000], "trial": 1, "serialpos": 13, "trial_type": "single-stim", "trial_index": 68, "time_elapsed": 441820, "internal_node_id": "0.0-50.0"}}, {"uniqueid": "MTK0617:3F0BG9B9MQUFVAHH25VM32OCKAJ7YO", "current_trial": 69, "dateTime": 1511565806578, "trialdata": {"rt": -1, "stimulus": "<p id=\"stim\">CRATER</p>", "key_press": -1, "type": "PRES_VIS", "word": "crater", "wordID": 399, "conditions": [18, 1200, "v", 18000], "trial": 1, "serialpos": 14, "trial_type": "single-stim", "trial_index": 69, "time_elapsed": 444154, "internal_node_id": "0.0-51.0"}}, {"uniqueid": "MTK0617:3F0BG9B9MQUFVAHH25VM32OCKAJ7YO", "current_trial": 70, "dateTime": 1511565808621, "trialdata": {"rt": -1, "stimulus": "<p id=\"stim\">STICKER</p>", "key_press": -1, "type": "PRES_VIS", "word": "sticker", "wordID": 1381, "conditions": [18, 1200, "v", 18000], "trial": 1, "serialpos": 15, "trial_type": "single-stim", "trial_index": 70, "time_elapsed": 446198, "internal_node_id": "0.0-52.0"}}, {"uniqueid": "MTK0617:3F0BG9B9MQUFVAHH25VM32OCKAJ7YO", "current_trial": 71, "dateTime": 1511565810896, "trialdata": {"rt": -1, "stimulus": "<p id=\"stim\">ITEM</p>", "key_press": -1, "type": "PRES_VIS", "word": "item", "wordID": 745, "conditions": [18, 1200, "v", 18000], "trial": 1, "serialpos": 16, "trial_type": "single-stim", "trial_index": 71, "time_elapsed": 448473, "internal_node_id": "0.0-53.0"}}, {"uniqueid": "MTK0617:3F0BG9B9MQUFVAHH25VM32OCKAJ7YO", "current_trial": 72, "dateTime": 1511565812907, "trialdata": {"rt": -1, "stimulus": "<p id=\"stim\">FRAME</p>", "key_press": -1, "type": "PRES_VIS", "word": "frame", "wordID": 599, "conditions": [18, 1200, "v", 18000], "trial": 1, "serialpos": 17, "trial_type": "single-stim", "trial_index": 72, "time_elapsed": 450483, "internal_node_id": "0.0-54.0"}}, {"uniqueid": "MTK0617:3F0BG9B9MQUFVAHH25VM32OCKAJ7YO", "current_trial": 73, "dateTime": 1511565815430, "trialdata": {"rt": -1, "stimulus": "", "key_press": -1, "type": "PRE_RECALL_DELAY", "trial_type": "single-stim", "trial_index": 73, "time_elapsed": 453007, "internal_node_id": "0.0-55.0-0.0"}}, {"uniqueid": "MTK0617:3F0BG9B9MQUFVAHH25VM32OCKAJ7YO", "current_trial": 74, "dateTime": 1511565815932, "trialdata": {"rt": -1000, "stimulus": "/static/audio/400Hz.wav", "key_press": -1, "type": "PRE_RECALL_ALERT", "trial_type": "single-audio", "trial_index": 74, "time_elapsed": 453509, "internal_node_id": "0.0-56.0"}}, {"uniqueid": "MTK0617:3F0BG9B9MQUFVAHH25VM32OCKAJ7YO", "current_trial": 75, "dateTime": 1511565875938, "trialdata": {"rt": [4154, 6532, 8795, 11460, 14533, 20877, 24876], "recwords": ["infant", "sticker", "item", "frame", "woman", "pebble", "lipstick"], "type": "FREE_RECALL", "conditions": [18, 1200, "v", 18000], "trial": 1, "trial_type": "free-recall", "trial_index": 75, "time_elapsed": 513513, "internal_node_id": "0.0-57.0-0.0"}}, {"uniqueid": "MTK0617:3F0BG9B9MQUFVAHH25VM32OCKAJ7YO", "current_trial": 76, "dateTime": 1511565887092, "trialdata": {"rt": 9147, "key_press": 77, "type": "INSTRUCTIONS", "trial_type": "text", "trial_index": 76, "time_elapsed": 524664, "internal_node_id": "0.0-58.0"}}, {"uniqueid": "MTK0617:3F0BG9B9MQUFVAHH25VM32OCKAJ7YO", "current_trial": 77, "dateTime": 1511565900095, "trialdata": {"rt": [4592, 8149, 10598], "responses": ["10", "21", "7"], "num1": [3, 8, 5, 4], "num2": [5, 6, 1, 8], "num3": [2, 7, 1, 1], "type": "DISTRACTOR", "conditions": [24, 800, "v", 12000], "trial": 2, "trial_type": "math-distractor", "trial_index": 77, "time_elapsed": 537672, "internal_node_id": "0.0-59.0"}}, {"uniqueid": "MTK0617:3F0BG9B9MQUFVAHH25VM32OCKAJ7YO", "current_trial": 78, "dateTime": 1511565903096, "trialdata": {"rt": -1, "stimulus": "<p id=\"stim\">10</p>", "key_press": -1, "trial_type": "single-stim", "trial_index": 78, "time_elapsed": 540673, "internal_node_id": "0.0-60.0-0.0"}}, {"uniqueid": "MTK0617:3F0BG9B9MQUFVAHH25VM32OCKAJ7YO", "current_trial": 79, "dateTime": 1511565904097, "trialdata": {"rt": -1, "stimulus": "<p id=\"stim\">9</p>", "key_press": -1, "trial_type": "single-stim", "trial_index": 79, "time_elapsed": 541674, "internal_node_id": "0.0-60.0-1.0"}}, {"uniqueid": "MTK0617:3F0BG9B9MQUFVAHH25VM32OCKAJ7YO", "current_trial": 80, "dateTime": 1511565905098, "trialdata": {"rt": -1, "stimulus": "<p id=\"stim\">8</p>", "key_press": -1, "trial_type": "single-stim", "trial_index": 80, "time_elapsed": 542675, "internal_node_id": "0.0-60.0-2.0"}}, {"uniqueid": "MTK0617:3F0BG9B9MQUFVAHH25VM32OCKAJ7YO", "current_trial": 81, "dateTime": 1511565906100, "trialdata": {"rt": -1, "stimulus": "<p id=\"stim\">7</p>", "key_press": -1, "trial_type": "single-stim", "trial_index": 81, "time_elapsed": 543677, "internal_node_id": "0.0-60.0-3.0"}}, {"uniqueid": "MTK0617:3F0BG9B9MQUFVAHH25VM32OCKAJ7YO", "current_trial": 82, "dateTime": 1511565907102, "trialdata": {"rt": -1, "stimulus": "<p id=\"stim\">6</p>", "key_press": -1, "trial_type": "single-stim", "trial_index": 82, "time_elapsed": 544679, "internal_node_id": "0.0-60.0-4.0"}}, {"uniqueid": "MTK0617:3F0BG9B9MQUFVAHH25VM32OCKAJ7YO", "current_trial": 83, "dateTime": 1511565908102, "trialdata": {"rt": -1, "stimulus": "<p id=\"stim\">5</p>", "key_press": -1, "trial_type": "single-stim", "trial_index": 83, "time_elapsed": 545679, "internal_node_id": "0.0-60.0-5.0"}}, {"uniqueid": "MTK0617:3F0BG9B9MQUFVAHH25VM32OCKAJ7YO", "current_trial": 84, "dateTime": 1511565909104, "trialdata": {"rt": -1, "stimulus": "<p id=\"stim\">4</p>", "key_press": -1, "trial_type": "single-stim", "trial_index": 84, "time_elapsed": 546681, "internal_node_id": "0.0-60.0-6.0"}}, {"uniqueid": "MTK0617:3F0BG9B9MQUFVAHH25VM32OCKAJ7YO", "current_trial": 85, "dateTime": 1511565910106, "trialdata": {"rt": -1, "stimulus": "<p id=\"stim\">3</p>", "key_press": -1, "trial_type": "single-stim", "trial_index": 85, "time_elapsed": 547683, "internal_node_id": "0.0-60.0-7.0"}}, {"uniqueid": "MTK0617:3F0BG9B9MQUFVAHH25VM32OCKAJ7YO", "current_trial": 86, "dateTime": 1511565911107, "trialdata": {"rt": -1, "stimulus": "<p id=\"stim\">2</p>", "key_press": -1, "trial_type": "single-stim", "trial_index": 86, "time_elapsed": 548684, "internal_node_id": "0.0-60.0-8.0"}}, {"uniqueid": "MTK0617:3F0BG9B9MQUFVAHH25VM32OCKAJ7YO", "current_trial": 87, "dateTime": 1511565912109, "trialdata": {"rt": -1, "stimulus": "<p id=\"stim\">1</p>", "key_press": -1, "trial_type": "single-stim", "trial_index": 87, "time_elapsed": 549686, "internal_node_id": "0.0-60.0-9.0"}}, {"uniqueid": "MTK0617:3F0BG9B9MQUFVAHH25VM32OCKAJ7YO", "current_trial": 88, "dateTime": 1511565913611, "trialdata": {"rt": -1, "stimulus": "<p id=\"stim\">+</p>", "key_press": -1, "type": "FIXATION", "trial_type": "single-stim", "trial_index": 88, "time_elapsed": 551188, "internal_node_id": "0.0-61.0-0.0"}}, {"uniqueid": "MTK0617:3F0BG9B9MQUFVAHH25VM32OCKAJ7YO", "current_trial": 89, "dateTime": 1511565914412, "trialdata": {"rt": -1, "stimulus": "<p id=\"stim\">ROBBER</p>", "key_press": -1, "type": "PRES_VIS", "word": "robber", "wordID": 1196, "conditions": [24, 800, "v", 12000], "trial": 2, "serialpos": 0, "trial_type": "single-stim", "trial_index": 89, "time_elapsed": 551989, "internal_node_id": "0.0-62.0"}}, {"uniqueid": "MTK0617:3F0BG9B9MQUFVAHH25VM32OCKAJ7YO", "current_trial": 90, "dateTime": 1511565916371, "trialdata": {"rt": -1, "stimulus": "<p id=\"stim\">PICTURE</p>", "key_press": -1, "type": "PRES_VIS", "word": "picture", "wordID": 1060, "conditions": [24, 800, "v", 12000], "trial": 2, "serialpos": 1, "trial_type": "single-stim", "trial_index": 90, "time_elapsed": 553947, "internal_node_id": "0.0-63.0"}}, {"uniqueid": "MTK0617:3F0BG9B9MQUFVAHH25VM32OCKAJ7YO", "current_trial": 91, "dateTime": 1511565918035, "trialdata": {"rt": -1, "stimulus": "<p id=\"stim\">JUNGLE</p>", "key_press": -1, "type": "PRES_VIS", "word": "jungle", "wordID": 763, "conditions": [24, 800, "v", 12000], "trial": 2, "serialpos": 2, "trial_type": "single-stim", "trial_index": 91, "time_elapsed": 555612, "internal_node_id": "0.0-64.0"}}, {"uniqueid": "MTK0617:3F0BG9B9MQUFVAHH25VM32OCKAJ7YO", "current_trial": 92, "dateTime": 1511565919642, "trialdata": {"rt": -1, "stimulus": "<p id=\"stim\">BROTHER</p>", "key_press": -1, "type": "PRES_VIS", "word": "brother", "wordID": 178, "conditions": [24, 800, "v", 12000], "trial": 2, "serialpos": 3, "trial_type": "single-stim", "trial_index": 92, "time_elapsed": 557219, "internal_node_id": "0.0-65.0"}}, {"uniqueid": "MTK0617:3F0BG9B9MQUFVAHH25VM32OCKAJ7YO", "current_trial": 93, "dateTime": 1511565921263, "trialdata": {"rt": -1, "stimulus": "<p id=\"stim\">PLAZA</p>", "key_press": -1, "type": "PRES_VIS", "word": "plaza", "wordID": 1087, "conditions": [24, 800, "v", 12000], "trial": 2, "serialpos": 4, "trial_type": "single-stim", "trial_index": 93, "time_elapsed": 558840, "internal_node_id": "0.0-66.0"}}, {"uniqueid": "MTK0617:3F0BG9B9MQUFVAHH25VM32OCKAJ7YO", "current_trial": 94, "dateTime": 1511565923174, "trialdata": {"rt": -1, "stimulus": "<p id=\"stim\">GLOBE</p>", "key_press": -1, "type": "PRES_VIS", "word": "globe", "wordID": 640, "conditions": [24, 800, "v", 12000], "trial": 2, "serialpos": 5, "trial_type": "single-stim", "trial_index": 94, "time_elapsed": 560751, "internal_node_id": "0.0-67.0"}}, {"uniqueid": "MTK0617:3F0BG9B9MQUFVAHH25VM32OCKAJ7YO", "current_trial": 95, "dateTime": 1511565925171, "trialdata": {"rt": -1, "stimulus": "<p id=\"stim\">COUNTRY</p>", "key_press": -1, "type": "PRES_VIS", "word": "country", "wordID": 387, "conditions": [24, 800, "v", 12000], "trial": 2, "serialpos": 6, "trial_type": "single-stim", "trial_index": 95, "time_elapsed": 562748, "internal_node_id": "0.0-68.0"}}, {"uniqueid": "MTK0617:3F0BG9B9MQUFVAHH25VM32OCKAJ7YO", "current_trial": 96, "dateTime": 1511565926868, "trialdata": {"rt": -1, "stimulus": "<p id=\"stim\">SUSPECT</p>", "key_press": -1, "type": "PRES_VIS", "word": "suspect", "wordID": 1414, "conditions": [24, 800, "v", 12000], "trial": 2, "serialpos": 7, "trial_type": "single-stim", "trial_index": 96, "time_elapsed": 564445, "internal_node_id": "0.0-69.0"}}, {"uniqueid": "MTK0617:3F0BG9B9MQUFVAHH25VM32OCKAJ7YO", "current_trial": 97, "dateTime": 1511565928491, "trialdata": {"rt": -1, "stimulus": "<p id=\"stim\">BRANCH</p>", "key_press": -1, "type": "PRES_VIS", "word": "branch", "wordID": 167, "conditions": [24, 800, "v", 12000], "trial": 2, "serialpos": 8, "trial_type": "single-stim", "trial_index": 97, "time_elapsed": 566067, "internal_node_id": "0.0-70.0"}}, {"uniqueid": "MTK0617:3F0BG9B9MQUFVAHH25VM32OCKAJ7YO", "current_trial": 98, "dateTime": 1511565930288, "trialdata": {"rt": -1, "stimulus": "<p id=\"stim\">PUDDING</p>", "key_press": -1, "type": "PRES_VIS", "word": "pudding", "wordID": 1138, "conditions": [24, 800, "v", 12000], "trial": 2, "serialpos": 9, "trial_type": "single-stim", "trial_index": 98, "time_elapsed": 567865, "internal_node_id": "0.0-71.0"}}, {"uniqueid": "MTK0617:3F0BG9B9MQUFVAHH25VM32OCKAJ7YO", "current_trial": 99, "dateTime": 1511565932237, "trialdata": {"rt": -1, "stimulus": "<p id=\"stim\">SCULPTURE</p>", "key_press": -1, "type": "PRES_VIS", "word": "sculpture", "wordID": 1257, "conditions": [24, 800, "v", 12000], "trial": 2, "serialpos": 10, "trial_type": "single-stim", "trial_index": 99, "time_elapsed": 569814, "internal_node_id": "0.0-72.0"}}, {"uniqueid": "MTK0617:3F0BG9B9MQUFVAHH25VM32OCKAJ7YO", "current_trial": 100, "dateTime": 1511565934178, "trialdata": {"rt": -1, "stimulus": "<p id=\"stim\">STATUE</p>", "key_press": -1, "type": "PRES_VIS", "word": "statue", "wordID": 1373, "conditions": [24, 800, "v", 12000], "trial": 2, "serialpos": 11, "trial_type": "single-stim", "trial_index": 100, "time_elapsed": 571754, "internal_node_id": "0.0-73.0"}}, {"uniqueid": "MTK0617:3F0BG9B9MQUFVAHH25VM32OCKAJ7YO", "current_trial": 101, "dateTime": 1511565936087, "trialdata": {"rt": -1, "stimulus": "<p id=\"stim\">SODA</p>", "key_press": -1, "type": "PRES_VIS", "word": "soda", "wordID": 1340, "conditions": [24, 800, "v", 12000], "trial": 2, "serialpos": 12, "trial_type": "single-stim", "trial_index": 101, "time_elapsed": 573664, "internal_node_id": "0.0-74.0"}}, {"uniqueid": "MTK0617:3F0BG9B9MQUFVAHH25VM32OCKAJ7YO", "current_trial": 102, "dateTime": 1511565937858, "trialdata": {"rt": -1, "stimulus": "<p id=\"stim\">BIKE</p>", "key_press": -1, "type": "PRES_VIS", "word": "bike", "wordID": 124, "conditions": [24, 800, "v", 12000], "trial": 2, "serialpos": 13, "trial_type": "single-stim", "trial_index": 102, "time_elapsed": 575435, "internal_node_id": "0.0-75.0"}}, {"uniqueid": "MTK0617:3F0BG9B9MQUFVAHH25VM32OCKAJ7YO", "current_trial": 103, "dateTime": 1511565939479, "trialdata": {"rt": -1, "stimulus": "<p id=\"stim\">SLUG</p>", "key_press": -1, "type": "PRES_VIS", "word": "slug", "wordID": 1328, "conditions": [24, 800, "v", 12000], "trial": 2, "serialpos": 14, "trial_type": "single-stim", "trial_index": 103, "time_elapsed": 577055, "internal_node_id": "0.0-76.0"}}, {"uniqueid": "MTK0617:3F0BG9B9MQUFVAHH25VM32OCKAJ7YO", "current_trial": 104, "dateTime": 1511565941175, "trialdata": {"rt": -1, "stimulus": "<p id=\"stim\">CRAYON</p>", "key_press": -1, "type": "PRES_VIS", "word": "crayon", "wordID": 400, "conditions": [24, 800, "v", 12000], "trial": 2, "serialpos": 15, "trial_type": "single-stim", "trial_index": 104, "time_elapsed": 578752, "internal_node_id": "0.0-77.0"}}, {"uniqueid": "MTK0617:3F0BG9B9MQUFVAHH25VM32OCKAJ7YO", "current_trial": 105, "dateTime": 1511565942952, "trialdata": {"rt": -1, "stimulus": "<p id=\"stim\">MAILMAN</p>", "key_press": -1, "type": "PRES_VIS", "word": "mailman", "wordID": 857, "conditions": [24, 800, "v", 12000], "trial": 2, "serialpos": 16, "trial_type": "single-stim", "trial_index": 105, "time_elapsed": 580529, "internal_node_id": "0.0-78.0"}}, {"uniqueid": "MTK0617:3F0BG9B9MQUFVAHH25VM32OCKAJ7YO", "current_trial": 106, "dateTime": 1511565944895, "trialdata": {"rt": -1, "stimulus": "<p id=\"stim\">PILOT</p>", "key_press": -1, "type": "PRES_VIS", "word": "pilot", "wordID": 1069, "conditions": [24, 800, "v", 12000], "trial": 2, "serialpos": 17, "trial_type": "single-stim", "trial_index": 106, "time_elapsed": 582472, "internal_node_id": "0.0-79.0"}}, {"uniqueid": "MTK0617:3F0BG9B9MQUFVAHH25VM32OCKAJ7YO", "current_trial": 107, "dateTime": 1511565946593, "trialdata": {"rt": -1, "stimulus": "<p id=\"stim\">ARM</p>", "key_press": -1, "type": "PRES_VIS", "word": "arm", "wordID": 37, "conditions": [24, 800, "v", 12000], "trial": 2, "serialpos": 18, "trial_type": "single-stim", "trial_index": 107, "time_elapsed": 584170, "internal_node_id": "0.0-80.0"}}, {"uniqueid": "MTK0617:3F0BG9B9MQUFVAHH25VM32OCKAJ7YO", "current_trial": 108, "dateTime": 1511565948391, "trialdata": {"rt": -1, "stimulus": "<p id=\"stim\">OUTDOORS</p>", "key_press": -1, "type": "PRES_VIS", "word": "outdoors", "wordID": 986, "conditions": [24, 800, "v", 12000], "trial": 2, "serialpos": 19, "trial_type": "single-stim", "trial_index": 108, "time_elapsed": 585968, "internal_node_id": "0.0-81.0"}}, {"uniqueid": "MTK0617:3F0BG9B9MQUFVAHH25VM32OCKAJ7YO", "current_trial": 109, "dateTime": 1511565950351, "trialdata": {"rt": -1, "stimulus": "<p id=\"stim\">FLASHLIGHT</p>", "key_press": -1, "type": "PRES_VIS", "word": "flashlight", "wordID": 574, "conditions": [24, 800, "v", 12000], "trial": 2, "serialpos": 20, "trial_type": "single-stim", "trial_index": 109, "time_elapsed": 587928, "internal_node_id": "0.0-82.0"}}, {"uniqueid": "MTK0617:3F0BG9B9MQUFVAHH25VM32OCKAJ7YO", "current_trial": 110, "dateTime": 1511565951970, "trialdata": {"rt": -1, "stimulus": "<p id=\"stim\">COFFEE</p>", "key_press": -1, "type": "PRES_VIS", "word": "coffee", "wordID": 340, "conditions": [24, 800, "v", 12000], "trial": 2, "serialpos": 21, "trial_type": "single-stim", "trial_index": 110, "time_elapsed": 589547, "internal_node_id": "0.0-83.0"}}, {"uniqueid": "MTK0617:3F0BG9B9MQUFVAHH25VM32OCKAJ7YO", "current_trial": 111, "dateTime": 1511565953831, "trialdata": {"rt": -1, "stimulus": "<p id=\"stim\">CREATURE</p>", "key_press": -1, "type": "PRES_VIS", "word": "creature", "wordID": 402, "conditions": [24, 800, "v", 12000], "trial": 2, "serialpos": 22, "trial_type": "single-stim", "trial_index": 111, "time_elapsed": 591408, "internal_node_id": "0.0-84.0"}}, {"uniqueid": "MTK0617:3F0BG9B9MQUFVAHH25VM32OCKAJ7YO", "current_trial": 112, "dateTime": 1511565955639, "trialdata": {"rt": -1, "stimulus": "<p id=\"stim\">MONSTER</p>", "key_press": -1, "type": "PRES_VIS", "word": "monster", "wordID": 911, "conditions": [24, 800, "v", 12000], "trial": 2, "serialpos": 23, "trial_type": "single-stim", "trial_index": 112, "time_elapsed": 593215, "internal_node_id": "0.0-85.0"}}, {"uniqueid": "MTK0617:3F0BG9B9MQUFVAHH25VM32OCKAJ7YO", "current_trial": 113, "dateTime": 1511565958105, "trialdata": {"rt": -1, "stimulus": "", "key_press": -1, "type": "PRE_RECALL_DELAY", "trial_type": "single-stim", "trial_index": 113, "time_elapsed": 595682, "internal_node_id": "0.0-86.0-0.0"}}, {"uniqueid": "MTK0617:3F0BG9B9MQUFVAHH25VM32OCKAJ7YO", "current_trial": 114, "dateTime": 1511565958612, "trialdata": {"rt": -1000, "stimulus": "/static/audio/400Hz.wav", "key_press": -1, "type": "PRE_RECALL_ALERT", "trial_type": "single-audio", "trial_index": 114, "time_elapsed": 596189, "internal_node_id": "0.0-87.0"}}, {"uniqueid": "MTK0617:3F0BG9B9MQUFVAHH25VM32OCKAJ7YO", "current_trial": 115, "dateTime": 1511566018618, "trialdata": {"rt": [3547, 6183, 8915, 11418, 14920], "recwords": ["slug", "coffee", "creature", "monster", "crayon"], "type": "FREE_RECALL", "conditions": [24, 800, "v", 12000], "trial": 2, "trial_type": "free-recall", "trial_index": 115, "time_elapsed": 656192, "internal_node_id": "0.0-88.0-0.0"}}, {"uniqueid": "MTK0617:3F0BG9B9MQUFVAHH25VM32OCKAJ7YO", "current_trial": 116, "dateTime": 1511566023728, "trialdata": {"rt": 3109, "key_press": 78, "type": "INSTRUCTIONS", "trial_type": "text", "trial_index": 116, "time_elapsed": 661304, "internal_node_id": "0.0-89.0"}}, {"uniqueid": "MTK0617:3F0BG9B9MQUFVAHH25VM32OCKAJ7YO", "current_trial": 117, "dateTime": 1511566037730, "trialdata": {"rt": [3269, 6146, 8914], "responses": ["18", "19", "13"], "num1": [3, 5, 1, 9], "num2": [8, 5, 6, 4], "num3": [7, 9, 6, 5], "type": "DISTRACTOR", "conditions": [24, 1600, "v", 12000], "trial": 3, "trial_type": "math-distractor", "trial_index": 117, "time_elapsed": 675307, "internal_node_id": "0.0-90.0"}}, {"uniqueid": "MTK0617:3F0BG9B9MQUFVAHH25VM32OCKAJ7YO", "current_trial": 118, "dateTime": 1511566040732, "trialdata": {"rt": -1, "stimulus": "<p id=\"stim\">10</p>", "key_press": -1, "trial_type": "single-stim", "trial_index": 118, "time_elapsed": 678309, "internal_node_id": "0.0-91.0-0.0"}}, {"uniqueid": "MTK0617:3F0BG9B9MQUFVAHH25VM32OCKAJ7YO", "current_trial": 119, "dateTime": 1511566041733, "trialdata": {"rt": -1, "stimulus": "<p id=\"stim\">9</p>", "key_press": -1, "trial_type": "single-stim", "trial_index": 119, "time_elapsed": 679310, "internal_node_id": "0.0-91.0-1.0"}}, {"uniqueid": "MTK0617:3F0BG9B9MQUFVAHH25VM32OCKAJ7YO", "current_trial": 120, "dateTime": 1511566042735, "trialdata": {"rt": -1, "stimulus": "<p id=\"stim\">8</p>", "key_press": -1, "trial_type": "single-stim", "trial_index": 120, "time_elapsed": 680311, "internal_node_id": "0.0-91.0-2.0"}}, {"uniqueid": "MTK0617:3F0BG9B9MQUFVAHH25VM32OCKAJ7YO", "current_trial": 121, "dateTime": 1511566043735, "trialdata": {"rt": -1, "stimulus": "<p id=\"stim\">7</p>", "key_press": -1, "trial_type": "single-stim", "trial_index": 121, "time_elapsed": 681312, "internal_node_id": "0.0-91.0-3.0"}}, {"uniqueid": "MTK0617:3F0BG9B9MQUFVAHH25VM32OCKAJ7YO", "current_trial": 122, "dateTime": 1511566044737, "trialdata": {"rt": -1, "stimulus": "<p id=\"stim\">6</p>", "key_press": -1, "trial_type": "single-stim", "trial_index": 122, "time_elapsed": 682314, "internal_node_id": "0.0-91.0-4.0"}}, {"uniqueid": "MTK0617:3F0BG9B9MQUFVAHH25VM32OCKAJ7YO", "current_trial": 123, "dateTime": 1511566045738, "trialdata": {"rt": -1, "stimulus": "<p id=\"stim\">5</p>", "key_press": -1, "trial_type": "single-stim", "trial_index": 123, "time_elapsed": 683315, "internal_node_id": "0.0-91.0-5.0"}}, {"uniqueid": "MTK0617:3F0BG9B9MQUFVAHH25VM32OCKAJ7YO", "current_trial": 124, "dateTime": 1511566046739, "trialdata": {"rt": -1, "stimulus": "<p id=\"stim\">4</p>", "key_press": -1, "trial_type": "single-stim", "trial_index": 124, "time_elapsed": 684316, "internal_node_id": "0.0-91.0-6.0"}}, {"uniqueid": "MTK0617:3F0BG9B9MQUFVAHH25VM32OCKAJ7YO", "current_trial": 125, "dateTime": 1511566047741, "trialdata": {"rt": -1, "stimulus": "<p id=\"stim\">3</p>", "key_press": -1, "trial_type": "single-stim", "trial_index": 125, "time_elapsed": 685318, "internal_node_id": "0.0-91.0-7.0"}}, {"uniqueid": "MTK0617:3F0BG9B9MQUFVAHH25VM32OCKAJ7YO", "current_trial": 126, "dateTime": 1511566048744, "trialdata": {"rt": -1, "stimulus": "<p id=\"stim\">2</p>", "key_press": -1, "trial_type": "single-stim", "trial_index": 126, "time_elapsed": 686321, "internal_node_id": "0.0-91.0-8.0"}}, {"uniqueid": "MTK0617:3F0BG9B9MQUFVAHH25VM32OCKAJ7YO", "current_trial": 127, "dateTime": 1511566049752, "trialdata": {"rt": -1, "stimulus": "<p id=\"stim\">1</p>", "key_press": -1, "trial_type": "single-stim", "trial_index": 127, "time_elapsed": 687329, "internal_node_id": "0.0-91.0-9.0"}}, {"uniqueid": "MTK0617:3F0BG9B9MQUFVAHH25VM32OCKAJ7YO", "current_trial": 128, "dateTime": 1511566051253, "trialdata": {"rt": -1, "stimulus": "<p id=\"stim\">+</p>", "key_press": -1, "type": "FIXATION", "trial_type": "single-stim", "trial_index": 128, "time_elapsed": 688830, "internal_node_id": "0.0-92.0-0.0"}}, {"uniqueid": "MTK0617:3F0BG9B9MQUFVAHH25VM32OCKAJ7YO", "current_trial": 129, "dateTime": 1511566052856, "trialdata": {"rt": -1, "stimulus": "<p id=\"stim\">RADISH</p>", "key_press": -1, "type": "PRES_VIS", "word": "radish", "wordID": 1157, "conditions": [24, 1600, "v", 12000], "trial": 3, "serialpos": 0, "trial_type": "single-stim", "trial_index": 129, "time_elapsed": 690433, "internal_node_id": "0.0-93.0"}}, {"uniqueid": "MTK0617:3F0BG9B9MQUFVAHH25VM32OCKAJ7YO", "current_trial": 130, "dateTime": 1511566055502, "trialdata": {"rt": -1, "stimulus": "<p id=\"stim\">CAFE</p>", "key_press": -1, "type": "PRES_VIS", "word": "cafe", "wordID": 215, "conditions": [24, 1600, "v", 12000], "trial": 3, "serialpos": 1, "trial_type": "single-stim", "trial_index": 130, "time_elapsed": 693079, "internal_node_id": "0.0-94.0"}}, {"uniqueid": "MTK0617:3F0BG9B9MQUFVAHH25VM32OCKAJ7YO", "current_trial": 131, "dateTime": 1511566057945, "trialdata": {"rt": -1, "stimulus": "<p id=\"stim\">DINER</p>", "key_press": -1, "type": "PRES_VIS", "word": "diner", "wordID": 466, "conditions": [24, 1600, "v", 12000], "trial": 3, "serialpos": 2, "trial_type": "single-stim", "trial_index": 131, "time_elapsed": 695522, "internal_node_id": "0.0-95.0"}}, {"uniqueid": "MTK0617:3F0BG9B9MQUFVAHH25VM32OCKAJ7YO", "current_trial": 132, "dateTime": 1511566060562, "trialdata": {"rt": -1, "stimulus": "<p id=\"stim\">WINDOW</p>", "key_press": -1, "type": "PRES_VIS", "word": "window", "wordID": 1610, "conditions": [24, 1600, "v", 12000], "trial": 3, "serialpos": 3, "trial_type": "single-stim", "trial_index": 132, "time_elapsed": 698139, "internal_node_id": "0.0-96.0"}}, {"uniqueid": "MTK0617:3F0BG9B9MQUFVAHH25VM32OCKAJ7YO", "current_trial": 133, "dateTime": 1511566063080, "trialdata": {"rt": -1, "stimulus": "<p id=\"stim\">SUMMIT</p>", "key_press": -1, "type": "PRES_VIS", "word": "summit", "wordID": 1404, "conditions": [24, 1600, "v", 12000], "trial": 3, "serialpos": 4, "trial_type": "single-stim", "trial_index": 133, "time_elapsed": 700657, "internal_node_id": "0.0-97.0"}}, {"uniqueid": "MTK0617:3F0BG9B9MQUFVAHH25VM32OCKAJ7YO", "current_trial": 134, "dateTime": 1511566065750, "trialdata": {"rt": -1, "stimulus": "<p id=\"stim\">IGLOO</p>", "key_press": -1, "type": "PRES_VIS", "word": "igloo", "wordID": 733, "conditions": [24, 1600, "v", 12000], "trial": 3, "serialpos": 5, "trial_type": "single-stim", "trial_index": 134, "time_elapsed": 703326, "internal_node_id": "0.0-98.0"}}, {"uniqueid": "MTK0617:3F0BG9B9MQUFVAHH25VM32OCKAJ7YO", "current_trial": 135, "dateTime": 1511566068407, "trialdata": {"rt": -1, "stimulus": "<p id=\"stim\">BEAST</p>", "key_press": -1, "type": "PRES_VIS", "word": "beast", "wordID": 107, "conditions": [24, 1600, "v", 12000], "trial": 3, "serialpos": 6, "trial_type": "single-stim", "trial_index": 135, "time_elapsed": 705984, "internal_node_id": "0.0-99.0"}}, {"uniqueid": "MTK0617:3F0BG9B9MQUFVAHH25VM32OCKAJ7YO", "current_trial": 136, "dateTime": 1511566070881, "trialdata": {"rt": -1, "stimulus": "<p id=\"stim\">PARSLEY</p>", "key_press": -1, "type": "PRES_VIS", "word": "parsley", "wordID": 1015, "conditions": [24, 1600, "v", 12000], "trial": 3, "serialpos": 7, "trial_type": "single-stim", "trial_index": 136, "time_elapsed": 708458, "internal_node_id": "0.0-100.0"}}, {"uniqueid": "MTK0617:3F0BG9B9MQUFVAHH25VM32OCKAJ7YO", "current_trial": 137, "dateTime": 1511566073516, "trialdata": {"rt": -1, "stimulus": "<p id=\"stim\">YACHT</p>", "key_press": -1, "type": "PRES_VIS", "word": "yacht", "wordID": 1628, "conditions": [24, 1600, "v", 12000], "trial": 3, "serialpos": 8, "trial_type": "single-stim", "trial_index": 137, "time_elapsed": 711092, "internal_node_id": "0.0-101.0"}}, {"uniqueid": "MTK0617:3F0BG9B9MQUFVAHH25VM32OCKAJ7YO", "current_trial": 138, "dateTime": 1511566075952, "trialdata": {"rt": -1, "stimulus": "<p id=\"stim\">CHAMPAGNE</p>", "key_press": -1, "type": "PRES_VIS", "word": "champagne", "wordID": 277, "conditions": [24, 1600, "v", 12000], "trial": 3, "serialpos": 9, "trial_type": "single-stim", "trial_index": 138, "time_elapsed": 713529, "internal_node_id": "0.0-102.0"}}, {"uniqueid": "MTK0617:3F0BG9B9MQUFVAHH25VM32OCKAJ7YO", "current_trial": 139, "dateTime": 1511566078642, "trialdata": {"rt": -1, "stimulus": "<p id=\"stim\">CANDY</p>", "key_press": -1, "type": "PRES_VIS", "word": "candy", "wordID": 229, "conditions": [24, 1600, "v", 12000], "trial": 3, "serialpos": 10, "trial_type": "single-stim", "trial_index": 139, "time_elapsed": 716219, "internal_node_id": "0.0-103.0"}}, {"uniqueid": "MTK0617:3F0BG9B9MQUFVAHH25VM32OCKAJ7YO", "current_trial": 140, "dateTime": 1511566081212, "trialdata": {"rt": -1, "stimulus": "<p id=\"stim\">THIEF</p>", "key_press": -1, "type": "PRES_VIS", "word": "thief", "wordID": 1455, "conditions": [24, 1600, "v", 12000], "trial": 3, "serialpos": 11, "trial_type": "single-stim", "trial_index": 140, "time_elapsed": 718788, "internal_node_id": "0.0-104.0"}}, {"uniqueid": "MTK0617:3F0BG9B9MQUFVAHH25VM32OCKAJ7YO", "current_trial": 141, "dateTime": 1511566083902, "trialdata": {"rt": -1, "stimulus": "<p id=\"stim\">ROD</p>", "key_press": -1, "type": "PRES_VIS", "word": "rod", "wordID": 1202, "conditions": [24, 1600, "v", 12000], "trial": 3, "serialpos": 12, "trial_type": "single-stim", "trial_index": 141, "time_elapsed": 721479, "internal_node_id": "0.0-105.0"}}, {"uniqueid": "MTK0617:3F0BG9B9MQUFVAHH25VM32OCKAJ7YO", "current_trial": 142, "dateTime": 1511566086615, "trialdata": {"rt": -1, "stimulus": "<p id=\"stim\">GARBAGE</p>", "key_press": -1, "type": "PRES_VIS", "word": "garbage", "wordID": 621, "conditions": [24, 1600, "v", 12000], "trial": 3, "serialpos": 13, "trial_type": "single-stim", "trial_index": 142, "time_elapsed": 724192, "internal_node_id": "0.0-106.0"}}, {"uniqueid": "MTK0617:3F0BG9B9MQUFVAHH25VM32OCKAJ7YO", "current_trial": 143, "dateTime": 1511566089091, "trialdata": {"rt": -1, "stimulus": "<p id=\"stim\">TRUCK</p>", "key_press": -1, "type": "PRES_VIS", "word": "truck", "wordID": 1511, "conditions": [24, 1600, "v", 12000], "trial": 3, "serialpos": 14, "trial_type": "single-stim", "trial_index": 143, "time_elapsed": 726668, "internal_node_id": "0.0-107.0"}}, {"uniqueid": "MTK0617:3F0BG9B9MQUFVAHH25VM32OCKAJ7YO", "current_trial": 144, "dateTime": 1511566091544, "trialdata": {"rt": -1, "stimulus": "<p id=\"stim\">COWBOY</p>", "key_press": -1, "type": "PRES_VIS", "word": "cowboy", "wordID": 394, "conditions": [24, 1600, "v", 12000], "trial": 3, "serialpos": 15, "trial_type": "single-stim", "trial_index": 144, "time_elapsed": 729120, "internal_node_id": "0.0-108.0"}}, {"uniqueid": "MTK0617:3F0BG9B9MQUFVAHH25VM32OCKAJ7YO", "current_trial": 145, "dateTime": 1511566094330, "trialdata": {"rt": -1, "stimulus": "<p id=\"stim\">SERVANT</p>", "key_press": -1, "type": "PRES_VIS", "word": "servant", "wordID": 1270, "conditions": [24, 1600, "v", 12000], "trial": 3, "serialpos": 16, "trial_type": "single-stim", "trial_index": 145, "time_elapsed": 731907, "internal_node_id": "0.0-109.0"}}, {"uniqueid": "MTK0617:3F0BG9B9MQUFVAHH25VM32OCKAJ7YO", "current_trial": 146, "dateTime": 1511566096899, "trialdata": {"rt": -1, "stimulus": "<p id=\"stim\">MUSTARD</p>", "key_press": -1, "type": "PRES_VIS", "word": "mustard", "wordID": 934, "conditions": [24, 1600, "v", 12000], "trial": 3, "serialpos": 17, "trial_type": "single-stim", "trial_index": 146, "time_elapsed": 734475, "internal_node_id": "0.0-110.0"}}, {"uniqueid": "MTK0617:3F0BG9B9MQUFVAHH25VM32OCKAJ7YO", "current_trial": 147, "dateTime": 1511566099335, "trialdata": {"rt": -1, "stimulus": "<p id=\"stim\">WAGON</p>", "key_press": -1, "type": "PRES_VIS", "word": "wagon", "wordID": 1577, "conditions": [24, 1600, "v", 12000], "trial": 3, "serialpos": 18, "trial_type": "single-stim", "trial_index": 147, "time_elapsed": 736912, "internal_node_id": "0.0-111.0"}}, {"uniqueid": "MTK0617:3F0BG9B9MQUFVAHH25VM32OCKAJ7YO", "current_trial": 148, "dateTime": 1511566102065, "trialdata": {"rt": -1, "stimulus": "<p id=\"stim\">PIGEON</p>", "key_press": -1, "type": "PRES_VIS", "word": "pigeon", "wordID": 1064, "conditions": [24, 1600, "v", 12000], "trial": 3, "serialpos": 19, "trial_type": "single-stim", "trial_index": 148, "time_elapsed": 739642, "internal_node_id": "0.0-112.0"}}, {"uniqueid": "MTK0617:3F0BG9B9MQUFVAHH25VM32OCKAJ7YO", "current_trial": 149, "dateTime": 1511566104835, "trialdata": {"rt": -1, "stimulus": "<p id=\"stim\">BLADE</p>", "key_press": -1, "type": "PRES_VIS", "word": "blade", "wordID": 133, "conditions": [24, 1600, "v", 12000], "trial": 3, "serialpos": 20, "trial_type": "single-stim", "trial_index": 149, "time_elapsed": 742412, "internal_node_id": "0.0-113.0"}}, {"uniqueid": "MTK0617:3F0BG9B9MQUFVAHH25VM32OCKAJ7YO", "current_trial": 150, "dateTime": 1511566107546, "trialdata": {"rt": -1, "stimulus": "<p id=\"stim\">KNIFE</p>", "key_press": -1, "type": "PRES_VIS", "word": "knife", "wordID": 784, "conditions": [24, 1600, "v", 12000], "trial": 3, "serialpos": 21, "trial_type": "single-stim", "trial_index": 150, "time_elapsed": 745123, "internal_node_id": "0.0-114.0"}}, {"uniqueid": "MTK0617:3F0BG9B9MQUFVAHH25VM32OCKAJ7YO", "current_trial": 151, "dateTime": 1511566110271, "trialdata": {"rt": -1, "stimulus": "<p id=\"stim\">WITNESS</p>", "key_press": -1, "type": "PRES_VIS", "word": "witness", "wordID": 1617, "conditions": [24, 1600, "v", 12000], "trial": 3, "serialpos": 22, "trial_type": "single-stim", "trial_index": 151, "time_elapsed": 747848, "internal_node_id": "0.0-115.0"}}, {"uniqueid": "MTK0617:3F0BG9B9MQUFVAHH25VM32OCKAJ7YO", "current_trial": 152, "dateTime": 1511566112760, "trialdata": {"rt": -1, "stimulus": "<p id=\"stim\">PORK</p>", "key_press": -1, "type": "PRES_VIS", "word": "pork", "wordID": 1107, "conditions": [24, 1600, "v", 12000], "trial": 3, "serialpos": 23, "trial_type": "single-stim", "trial_index": 152, "time_elapsed": 750336, "internal_node_id": "0.0-116.0"}}, {"uniqueid": "MTK0617:3F0BG9B9MQUFVAHH25VM32OCKAJ7YO", "current_trial": 153, "dateTime": 1511566115154, "trialdata": {"rt": -1, "stimulus": "", "key_press": -1, "type": "PRE_RECALL_DELAY", "trial_type": "single-stim", "trial_index": 153, "time_elapsed": 752730, "internal_node_id": "0.0-117.0-0.0"}}, {"uniqueid": "MTK0617:3F0BG9B9MQUFVAHH25VM32OCKAJ7YO", "current_trial": 154, "dateTime": 1511566115655, "trialdata": {"rt": -1000, "stimulus": "/static/audio/400Hz.wav", "key_press": -1, "type": "PRE_RECALL_ALERT", "trial_type": "single-audio", "trial_index": 154, "time_elapsed": 753232, "internal_node_id": "0.0-118.0"}}, {"uniqueid": "MTK0617:3F0BG9B9MQUFVAHH25VM32OCKAJ7YO", "current_trial": 155, "dateTime": 1511566175661, "trialdata": {"rt": [3762, 7289, 9906, 11866, 15273, 42853, 46350], "recwords": ["mustard", "witness", "blade", "knife", "pork", "garbage", "truck"], "type": "FREE_RECALL", "conditions": [24, 1600, "v", 12000], "trial": 3, "trial_type": "free-recall", "trial_index": 155, "time_elapsed": 813235, "internal_node_id": "0.0-119.0-0.0"}}, {"uniqueid": "MTK0617:3F0BG9B9MQUFVAHH25VM32OCKAJ7YO", "current_trial": 156, "dateTime": 1511566180773, "trialdata": {"rt": 3111, "key_press": 77, "type": "INSTRUCTIONS", "trial_type": "text", "trial_index": 156, "time_elapsed": 818349, "internal_node_id": "0.0-120.0"}}, {"uniqueid": "MTK0617:3F0BG9B9MQUFVAHH25VM32OCKAJ7YO", "current_trial": 157, "dateTime": 1511566206776, "trialdata": {"rt": [2476, 5352, 9035, 11265, 14297, 17316, 21106], "responses": ["7", "17", "21", "16", "13", "17", "12"], "num1": [1, 3, 9, 2, 6, 8, 1, 8], "num2": [1, 7, 6, 8, 1, 8, 3, 3], "num3": [5, 7, 6, 6, 6, 1, 8, 9], "type": "DISTRACTOR", "conditions": [24, 1600, "v", 24000], "trial": 4, "trial_type": "math-distractor", "trial_index": 157, "time_elapsed": 844353, "internal_node_id": "0.0-121.0"}}, {"uniqueid": "MTK0617:3F0BG9B9MQUFVAHH25VM32OCKAJ7YO", "current_trial": 158, "dateTime": 1511566209777, "trialdata": {"rt": -1, "stimulus": "<p id=\"stim\">10</p>", "key_press": -1, "trial_type": "single-stim", "trial_index": 158, "time_elapsed": 847354, "internal_node_id": "0.0-122.0-0.0"}}, {"uniqueid": "MTK0617:3F0BG9B9MQUFVAHH25VM32OCKAJ7YO", "current_trial": 159, "dateTime": 1511566210780, "trialdata": {"rt": -1, "stimulus": "<p id=\"stim\">9</p>", "key_press": -1, "trial_type": "single-stim", "trial_index": 159, "time_elapsed": 848356, "internal_node_id": "0.0-122.0-1.0"}}, {"uniqueid": "MTK0617:3F0BG9B9MQUFVAHH25VM32OCKAJ7YO", "current_trial": 160, "dateTime": 1511566211781, "trialdata": {"rt": -1, "stimulus": "<p id=\"stim\">8</p>", "key_press": -1, "trial_type": "single-stim", "trial_index": 160, "time_elapsed": 849358, "internal_node_id": "0.0-122.0-2.0"}}, {"uniqueid": "MTK0617:3F0BG9B9MQUFVAHH25VM32OCKAJ7YO", "current_trial": 161, "dateTime": 1511566212782, "trialdata": {"rt": -1, "stimulus": "<p id=\"stim\">7</p>", "key_press": -1, "trial_type": "single-stim", "trial_index": 161, "time_elapsed": 850359, "internal_node_id": "0.0-122.0-3.0"}}, {"uniqueid": "MTK0617:3F0BG9B9MQUFVAHH25VM32OCKAJ7YO", "current_trial": 162, "dateTime": 1511566213784, "trialdata": {"rt": -1, "stimulus": "<p id=\"stim\">6</p>", "key_press": -1, "trial_type": "single-stim", "trial_index": 162, "time_elapsed": 851361, "internal_node_id": "0.0-122.0-4.0"}}, {"uniqueid": "MTK0617:3F0BG9B9MQUFVAHH25VM32OCKAJ7YO", "current_trial": 163, "dateTime": 1511566214786, "trialdata": {"rt": -1, "stimulus": "<p id=\"stim\">5</p>", "key_press": -1, "trial_type": "single-stim", "trial_index": 163, "time_elapsed": 852362, "internal_node_id": "0.0-122.0-5.0"}}, {"uniqueid": "MTK0617:3F0BG9B9MQUFVAHH25VM32OCKAJ7YO", "current_trial": 164, "dateTime": 1511566215787, "trialdata": {"rt": -1, "stimulus": "<p id=\"stim\">4</p>", "key_press": -1, "trial_type": "single-stim", "trial_index": 164, "time_elapsed": 853364, "internal_node_id": "0.0-122.0-6.0"}}, {"uniqueid": "MTK0617:3F0BG9B9MQUFVAHH25VM32OCKAJ7YO", "current_trial": 165, "dateTime": 1511566216789, "trialdata": {"rt": -1, "stimulus": "<p id=\"stim\">3</p>", "key_press": -1, "trial_type": "single-stim", "trial_index": 165, "time_elapsed": 854366, "internal_node_id": "0.0-122.0-7.0"}}, {"uniqueid": "MTK0617:3F0BG9B9MQUFVAHH25VM32OCKAJ7YO", "current_trial": 166, "dateTime": 1511566217792, "trialdata": {"rt": -1, "stimulus": "<p id=\"stim\">2</p>", "key_press": -1, "trial_type": "single-stim", "trial_index": 166, "time_elapsed": 855368, "internal_node_id": "0.0-122.0-8.0"}}, {"uniqueid": "MTK0617:3F0BG9B9MQUFVAHH25VM32OCKAJ7YO", "current_trial": 167, "dateTime": 1511566218794, "trialdata": {"rt": -1, "stimulus": "<p id=\"stim\">1</p>", "key_press": -1, "trial_type": "single-stim", "trial_index": 167, "time_elapsed": 856370, "internal_node_id": "0.0-122.0-9.0"}}, {"uniqueid": "MTK0617:3F0BG9B9MQUFVAHH25VM32OCKAJ7YO", "current_trial": 168, "dateTime": 1511566220295, "trialdata": {"rt": -1, "stimulus": "<p id=\"stim\">+</p>", "key_press": -1, "type": "FIXATION", "trial_type": "single-stim", "trial_index": 168, "time_elapsed": 857871, "internal_node_id": "0.0-123.0-0.0"}}, {"uniqueid": "MTK0617:3F0BG9B9MQUFVAHH25VM32OCKAJ7YO", "current_trial": 169, "dateTime": 1511566221895, "trialdata": {"rt": -1, "stimulus": "<p id=\"stim\">BABY</p>", "key_press": -1, "type": "PRES_VIS", "word": "baby", "wordID": 63, "conditions": [24, 1600, "v", 24000], "trial": 4, "serialpos": 0, "trial_type": "single-stim", "trial_index": 169, "time_elapsed": 859472, "internal_node_id": "0.0-124.0"}}, {"uniqueid": "MTK0617:3F0BG9B9MQUFVAHH25VM32OCKAJ7YO", "current_trial": 170, "dateTime": 1511566224478, "trialdata": {"rt": -1, "stimulus": "<p id=\"stim\">GIRL</p>", "key_press": -1, "type": "PRES_VIS", "word": "girl", "wordID": 636, "conditions": [24, 1600, "v", 24000], "trial": 4, "serialpos": 1, "trial_type": "single-stim", "trial_index": 170, "time_elapsed": 862054, "internal_node_id": "0.0-125.0"}}, {"uniqueid": "MTK0617:3F0BG9B9MQUFVAHH25VM32OCKAJ7YO", "current_trial": 171, "dateTime": 1511566226920, "trialdata": {"rt": -1, "stimulus": "<p id=\"stim\">ELBOW</p>", "key_press": -1, "type": "PRES_VIS", "word": "elbow", "wordID": 519, "conditions": [24, 1600, "v", 24000], "trial": 4, "serialpos": 2, "trial_type": "single-stim", "trial_index": 171, "time_elapsed": 864497, "internal_node_id": "0.0-126.0"}}, {"uniqueid": "MTK0617:3F0BG9B9MQUFVAHH25VM32OCKAJ7YO", "current_trial": 172, "dateTime": 1511566229387, "trialdata": {"rt": -1, "stimulus": "<p id=\"stim\">SPOOL</p>", "key_press": -1, "type": "PRES_VIS", "word": "spool", "wordID": 1355, "conditions": [24, 1600, "v", 24000], "trial": 4, "serialpos": 3, "trial_type": "single-stim", "trial_index": 172, "time_elapsed": 866963, "internal_node_id": "0.0-127.0"}}, {"uniqueid": "MTK0617:3F0BG9B9MQUFVAHH25VM32OCKAJ7YO", "current_trial": 173, "dateTime": 1511566232004, "trialdata": {"rt": -1, "stimulus": "<p id=\"stim\">LOFT</p>", "key_press": -1, "type": "PRES_VIS", "word": "loft", "wordID": 839, "conditions": [24, 1600, "v", 24000], "trial": 4, "serialpos": 4, "trial_type": "single-stim", "trial_index": 173, "time_elapsed": 869581, "internal_node_id": "0.0-128.0"}}, {"uniqueid": "MTK0617:3F0BG9B9MQUFVAHH25VM32OCKAJ7YO", "current_trial": 174, "dateTime": 1511566234482, "trialdata": {"rt": -1, "stimulus": "<p id=\"stim\">DONKEY</p>", "key_press": -1, "type": "PRES_VIS", "word": "donkey", "wordID": 483, "conditions": [24, 1600, "v", 24000], "trial": 4, "serialpos": 5, "trial_type": "single-stim", "trial_index": 174, "time_elapsed": 872059, "internal_node_id": "0.0-129.0"}}, {"uniqueid": "MTK0617:3F0BG9B9MQUFVAHH25VM32OCKAJ7YO", "current_trial": 175, "dateTime": 1511566236941, "trialdata": {"rt": -1, "stimulus": "<p id=\"stim\">POET</p>", "key_press": -1, "type": "PRES_VIS", "word": "poet", "wordID": 1094, "conditions": [24, 1600, "v", 24000], "trial": 4, "serialpos": 6, "trial_type": "single-stim", "trial_index": 175, "time_elapsed": 874517, "internal_node_id": "0.0-130.0"}}, {"uniqueid": "MTK0617:3F0BG9B9MQUFVAHH25VM32OCKAJ7YO", "current_trial": 176, "dateTime": 1511566239375, "trialdata": {"rt": -1, "stimulus": "<p id=\"stim\">CASHIER</p>", "key_press": -1, "type": "PRES_VIS", "word": "cashier", "wordID": 253, "conditions": [24, 1600, "v", 24000], "trial": 4, "serialpos": 7, "trial_type": "single-stim", "trial_index": 176, "time_elapsed": 876952, "internal_node_id": "0.0-131.0"}}, {"uniqueid": "MTK0617:3F0BG9B9MQUFVAHH25VM32OCKAJ7YO", "current_trial": 177, "dateTime": 1511566242079, "trialdata": {"rt": -1, "stimulus": "<p id=\"stim\">CAMEL</p>", "key_press": -1, "type": "PRES_VIS", "word": "camel", "wordID": 222, "conditions": [24, 1600, "v", 24000], "trial": 4, "serialpos": 8, "trial_type": "single-stim", "trial_index": 177, "time_elapsed": 879655, "internal_node_id": "0.0-132.0"}}, {"uniqueid": "MTK0617:3F0BG9B9MQUFVAHH25VM32OCKAJ7YO", "current_trial": 178, "dateTime": 1511566244682, "trialdata": {"rt": -1, "stimulus": "<p id=\"stim\">PREACHER</p>", "key_press": -1, "type": "PRES_VIS", "word": "preacher", "wordID": 1118, "conditions": [24, 1600, "v", 24000], "trial": 4, "serialpos": 9, "trial_type": "single-stim", "trial_index": 178, "time_elapsed": 882258, "internal_node_id": "0.0-133.0"}}, {"uniqueid": "MTK0617:3F0BG9B9MQUFVAHH25VM32OCKAJ7YO", "current_trial": 179, "dateTime": 1511566247113, "trialdata": {"rt": -1, "stimulus": "<p id=\"stim\">PENGUIN</p>", "key_press": -1, "type": "PRES_VIS", "word": "penguin", "wordID": 1043, "conditions": [24, 1600, "v", 24000], "trial": 4, "serialpos": 10, "trial_type": "single-stim", "trial_index": 179, "time_elapsed": 884689, "internal_node_id": "0.0-134.0"}}, {"uniqueid": "MTK0617:3F0BG9B9MQUFVAHH25VM32OCKAJ7YO", "current_trial": 180, "dateTime": 1511566249838, "trialdata": {"rt": -1, "stimulus": "<p id=\"stim\">SHERIFF</p>", "key_press": -1, "type": "PRES_VIS", "word": "sheriff", "wordID": 1283, "conditions": [24, 1600, "v", 24000], "trial": 4, "serialpos": 11, "trial_type": "single-stim", "trial_index": 180, "time_elapsed": 887415, "internal_node_id": "0.0-135.0"}}, {"uniqueid": "MTK0617:3F0BG9B9MQUFVAHH25VM32OCKAJ7YO", "current_trial": 181, "dateTime": 1511566252269, "trialdata": {"rt": -1, "stimulus": "<p id=\"stim\">GRAPE</p>", "key_press": -1, "type": "PRES_VIS", "word": "grape", "wordID": 653, "conditions": [24, 1600, "v", 24000], "trial": 4, "serialpos": 12, "trial_type": "single-stim", "trial_index": 181, "time_elapsed": 889846, "internal_node_id": "0.0-136.0"}}, {"uniqueid": "MTK0617:3F0BG9B9MQUFVAHH25VM32OCKAJ7YO", "current_trial": 182, "dateTime": 1511566254955, "trialdata": {"rt": -1, "stimulus": "<p id=\"stim\">HERO</p>", "key_press": -1, "type": "PRES_VIS", "word": "hero", "wordID": 705, "conditions": [24, 1600, "v", 24000], "trial": 4, "serialpos": 13, "trial_type": "single-stim", "trial_index": 182, "time_elapsed": 892532, "internal_node_id": "0.0-137.0"}}, {"uniqueid": "MTK0617:3F0BG9B9MQUFVAHH25VM32OCKAJ7YO", "current_trial": 183, "dateTime": 1511566257741, "trialdata": {"rt": -1, "stimulus": "<p id=\"stim\">ATOM</p>", "key_press": -1, "type": "PRES_VIS", "word": "atom", "wordID": 54, "conditions": [24, 1600, "v", 24000], "trial": 4, "serialpos": 14, "trial_type": "single-stim", "trial_index": 183, "time_elapsed": 895318, "internal_node_id": "0.0-138.0"}}, {"uniqueid": "MTK0617:3F0BG9B9MQUFVAHH25VM32OCKAJ7YO", "current_trial": 184, "dateTime": 1511566260331, "trialdata": {"rt": -1, "stimulus": "<p id=\"stim\">PAPER</p>", "key_press": -1, "type": "PRES_VIS", "word": "paper", "wordID": 1010, "conditions": [24, 1600, "v", 24000], "trial": 4, "serialpos": 15, "trial_type": "single-stim", "trial_index": 184, "time_elapsed": 897908, "internal_node_id": "0.0-139.0"}}, {"uniqueid": "MTK0617:3F0BG9B9MQUFVAHH25VM32OCKAJ7YO", "current_trial": 185, "dateTime": 1511566262798, "trialdata": {"rt": -1, "stimulus": "<p id=\"stim\">KLEENEX</p>", "key_press": -1, "type": "PRES_VIS", "word": "kleenex", "wordID": 781, "conditions": [24, 1600, "v", 24000], "trial": 4, "serialpos": 16, "trial_type": "single-stim", "trial_index": 185, "time_elapsed": 900375, "internal_node_id": "0.0-140.0"}}, {"uniqueid": "MTK0617:3F0BG9B9MQUFVAHH25VM32OCKAJ7YO", "current_trial": 186, "dateTime": 1511566265361, "trialdata": {"rt": -1, "stimulus": "<p id=\"stim\">CLOCK</p>", "key_press": -1, "type": "PRES_VIS", "word": "clock", "wordID": 324, "conditions": [24, 1600, "v", 24000], "trial": 4, "serialpos": 17, "trial_type": "single-stim", "trial_index": 186, "time_elapsed": 902938, "internal_node_id": "0.0-141.0"}}, {"uniqueid": "MTK0617:3F0BG9B9MQUFVAHH25VM32OCKAJ7YO", "current_trial": 187, "dateTime": 1511566268083, "trialdata": {"rt": -1, "stimulus": "<p id=\"stim\">PECAN</p>", "key_press": -1, "type": "PRES_VIS", "word": "pecan", "wordID": 1035, "conditions": [24, 1600, "v", 24000], "trial": 4, "serialpos": 18, "trial_type": "single-stim", "trial_index": 187, "time_elapsed": 905660, "internal_node_id": "0.0-142.0"}}, {"uniqueid": "MTK0617:3F0BG9B9MQUFVAHH25VM32OCKAJ7YO", "current_trial": 188, "dateTime": 1511566270712, "trialdata": {"rt": -1, "stimulus": "<p id=\"stim\">SLIDE</p>", "key_press": -1, "type": "PRES_VIS", "word": "slide", "wordID": 1325, "conditions": [24, 1600, "v", 24000], "trial": 4, "serialpos": 19, "trial_type": "single-stim", "trial_index": 188, "time_elapsed": 908289, "internal_node_id": "0.0-143.0"}}, {"uniqueid": "MTK0617:3F0BG9B9MQUFVAHH25VM32OCKAJ7YO", "current_trial": 189, "dateTime": 1511566273327, "trialdata": {"rt": -1, "stimulus": "<p id=\"stim\">CANYON</p>", "key_press": -1, "type": "PRES_VIS", "word": "canyon", "wordID": 234, "conditions": [24, 1600, "v", 24000], "trial": 4, "serialpos": 20, "trial_type": "single-stim", "trial_index": 189, "time_elapsed": 910903, "internal_node_id": "0.0-144.0"}}, {"uniqueid": "MTK0617:3F0BG9B9MQUFVAHH25VM32OCKAJ7YO", "current_trial": 190, "dateTime": 1511566275862, "trialdata": {"rt": -1, "stimulus": "<p id=\"stim\">VALLEY</p>", "key_press": -1, "type": "PRES_VIS", "word": "valley", "wordID": 1544, "conditions": [24, 1600, "v", 24000], "trial": 4, "serialpos": 21, "trial_type": "single-stim", "trial_index": 190, "time_elapsed": 913439, "internal_node_id": "0.0-145.0"}}, {"uniqueid": "MTK0617:3F0BG9B9MQUFVAHH25VM32OCKAJ7YO", "current_trial": 191, "dateTime": 1511566278288, "trialdata": {"rt": -1, "stimulus": "<p id=\"stim\">SUNRISE</p>", "key_press": -1, "type": "PRES_VIS", "word": "sunrise", "wordID": 1406, "conditions": [24, 1600, "v", 24000], "trial": 4, "serialpos": 22, "trial_type": "single-stim", "trial_index": 191, "time_elapsed": 915865, "internal_node_id": "0.0-146.0"}}, {"uniqueid": "MTK0617:3F0BG9B9MQUFVAHH25VM32OCKAJ7YO", "current_trial": 192, "dateTime": 1511566280694, "trialdata": {"rt": -1, "stimulus": "<p id=\"stim\">PEANUT</p>", "key_press": -1, "type": "PRES_VIS", "word": "peanut", "wordID": 1031, "conditions": [24, 1600, "v", 24000], "trial": 4, "serialpos": 23, "trial_type": "single-stim", "trial_index": 192, "time_elapsed": 918271, "internal_node_id": "0.0-147.0"}}, {"uniqueid": "MTK0617:3F0BG9B9MQUFVAHH25VM32OCKAJ7YO", "current_trial": 193, "dateTime": 1511566283026, "trialdata": {"rt": -1, "stimulus": "", "key_press": -1, "type": "PRE_RECALL_DELAY", "trial_type": "single-stim", "trial_index": 193, "time_elapsed": 920603, "internal_node_id": "0.0-148.0-0.0"}}, {"uniqueid": "MTK0617:3F0BG9B9MQUFVAHH25VM32OCKAJ7YO", "current_trial": 194, "dateTime": 1511566283533, "trialdata": {"rt": -1000, "stimulus": "/static/audio/400Hz.wav", "key_press": -1, "type": "PRE_RECALL_ALERT", "trial_type": "single-audio", "trial_index": 194, "time_elapsed": 921109, "internal_node_id": "0.0-149.0"}}, {"uniqueid": "MTK0617:3F0BG9B9MQUFVAHH25VM32OCKAJ7YO", "current_trial": 195, "dateTime": 1511566343539, "trialdata": {"rt": [2870, 6054, 8711, 11248, 13574, 16358, 19105, 37306, 44019, 47363], "recwords": ["peanut", "pecan", "sunrise", "baby", "girl", "slide", "sunrise", "preacher", "valley", "canyon"], "type": "FREE_RECALL", "conditions": [24, 1600, "v", 24000], "trial": 4, "trial_type": "free-recall", "trial_index": 195, "time_elapsed": 981113, "internal_node_id": "0.0-150.0-0.0"}}, {"uniqueid": "MTK0617:3F0BG9B9MQUFVAHH25VM32OCKAJ7YO", "current_trial": 196, "dateTime": 1511566347027, "trialdata": {"rt": 1486, "key_press": 78, "type": "INSTRUCTIONS", "trial_type": "text", "trial_index": 196, "time_elapsed": 984604, "internal_node_id": "0.0-151.0"}}, {"uniqueid": "MTK0617:3F0BG9B9MQUFVAHH25VM32OCKAJ7YO", "current_trial": 197, "dateTime": 1511566373028, "trialdata": {"rt": [3023, 5269, 8328, 12693, 14757, 17799, 20377], "responses": ["13", "10", "21", "13", "13", "20", "18"], "num1": [8, 1, 7, 4, 3, 9, 8, 1], "num2": [1, 2, 8, 7, 7, 8, 3, 3], "num3": [4, 7, 9, 2, 3, 3, 7, 5], "type": "DISTRACTOR", "conditions": [24, 800, "a", 24000], "trial": 5, "trial_type": "math-distractor", "trial_index": 197, "time_elapsed": 1010604, "internal_node_id": "0.0-152.0"}}, {"uniqueid": "MTK0617:3F0BG9B9MQUFVAHH25VM32OCKAJ7YO", "current_trial": 198, "dateTime": 1511566376029, "trialdata": {"rt": -1, "stimulus": "<p id=\"stim\">10</p>", "key_press": -1, "trial_type": "single-stim", "trial_index": 198, "time_elapsed": 1013606, "internal_node_id": "0.0-153.0-0.0"}}, {"uniqueid": "MTK0617:3F0BG9B9MQUFVAHH25VM32OCKAJ7YO", "current_trial": 199, "dateTime": 1511566377030, "trialdata": {"rt": -1, "stimulus": "<p id=\"stim\">9</p>", "key_press": -1, "trial_type": "single-stim", "trial_index": 199, "time_elapsed": 1014607, "internal_node_id": "0.0-153.0-1.0"}}, {"uniqueid": "MTK0617:3F0BG9B9MQUFVAHH25VM32OCKAJ7YO", "current_trial": 200, "dateTime": 1511566378031, "trialdata": {"rt": -1, "stimulus": "<p id=\"stim\">8</p>", "key_press": -1, "trial_type": "single-stim", "trial_index": 200, "time_elapsed": 1015608, "internal_node_id": "0.0-153.0-2.0"}}, {"uniqueid": "MTK0617:3F0BG9B9MQUFVAHH25VM32OCKAJ7YO", "current_trial": 201, "dateTime": 1511566379033, "trialdata": {"rt": -1, "stimulus": "<p id=\"stim\">7</p>", "key_press": -1, "trial_type": "single-stim", "trial_index": 201, "time_elapsed": 1016609, "internal_node_id": "0.0-153.0-3.0"}}, {"uniqueid": "MTK0617:3F0BG9B9MQUFVAHH25VM32OCKAJ7YO", "current_trial": 202, "dateTime": 1511566380034, "trialdata": {"rt": -1, "stimulus": "<p id=\"stim\">6</p>", "key_press": -1, "trial_type": "single-stim", "trial_index": 202, "time_elapsed": 1017611, "internal_node_id": "0.0-153.0-4.0"}}, {"uniqueid": "MTK0617:3F0BG9B9MQUFVAHH25VM32OCKAJ7YO", "current_trial": 203, "dateTime": 1511566381035, "trialdata": {"rt": -1, "stimulus": "<p id=\"stim\">5</p>", "key_press": -1, "trial_type": "single-stim", "trial_index": 203, "time_elapsed": 1018611, "internal_node_id": "0.0-153.0-5.0"}}, {"uniqueid": "MTK0617:3F0BG9B9MQUFVAHH25VM32OCKAJ7YO", "current_trial": 204, "dateTime": 1511566382036, "trialdata": {"rt": -1, "stimulus": "<p id=\"stim\">4</p>", "key_press": -1, "trial_type": "single-stim", "trial_index": 204, "time_elapsed": 1019613, "internal_node_id": "0.0-153.0-6.0"}}, {"uniqueid": "MTK0617:3F0BG9B9MQUFVAHH25VM32OCKAJ7YO", "current_trial": 205, "dateTime": 1511566383038, "trialdata": {"rt": -1, "stimulus": "<p id=\"stim\">3</p>", "key_press": -1, "trial_type": "single-stim", "trial_index": 205, "time_elapsed": 1020615, "internal_node_id": "0.0-153.0-7.0"}}, {"uniqueid": "MTK0617:3F0BG9B9MQUFVAHH25VM32OCKAJ7YO", "current_trial": 206, "dateTime": 1511566384041, "trialdata": {"rt": -1, "stimulus": "<p id=\"stim\">2</p>", "key_press": -1, "trial_type": "single-stim", "trial_index": 206, "time_elapsed": 1021618, "internal_node_id": "0.0-153.0-8.0"}}, {"uniqueid": "MTK0617:3F0BG9B9MQUFVAHH25VM32OCKAJ7YO", "current_trial": 207, "dateTime": 1511566385044, "trialdata": {"rt": -1, "stimulus": "<p id=\"stim\">1</p>", "key_press": -1, "trial_type": "single-stim", "trial_index": 207, "time_elapsed": 1022620, "internal_node_id": "0.0-153.0-9.0"}}, {"uniqueid": "MTK0617:3F0BG9B9MQUFVAHH25VM32OCKAJ7YO", "current_trial": 208, "dateTime": 1511566386544, "trialdata": {"rt": -1, "stimulus": "<p id=\"stim\">+</p>", "key_press": -1, "type": "FIXATION", "trial_type": "single-stim", "trial_index": 208, "time_elapsed": 1024121, "internal_node_id": "0.0-154.0-0.0"}}, {"uniqueid": "MTK0617:3F0BG9B9MQUFVAHH25VM32OCKAJ7YO", "current_trial": 209, "dateTime": 1511566388313, "trialdata": {"rt": -1000, "stimulus": "/static/audio/wordpool/CHEMIST.wav", "key_press": -1, "type": "PRES_AUD", "word": "chemist", "wordID": 291, "conditions": [24, 800, "a", 24000], "trial": 5, "serialpos": 0, "trial_type": "single-audio", "trial_index": 209, "time_elapsed": 1025890, "internal_node_id": "0.0-155.0"}}, {"uniqueid": "MTK0617:3F0BG9B9MQUFVAHH25VM32OCKAJ7YO", "current_trial": 210, "dateTime": 1511566390004, "trialdata": {"rt": -1000, "stimulus": "/static/audio/wordpool/PASTRY.wav", "key_press": -1, "type": "PRES_AUD", "word": "pastry", "wordID": 1021, "conditions": [24, 800, "a", 24000], "trial": 5, "serialpos": 1, "trial_type": "single-audio", "trial_index": 210, "time_elapsed": 1027581, "internal_node_id": "0.0-156.0"}}, {"uniqueid": "MTK0617:3F0BG9B9MQUFVAHH25VM32OCKAJ7YO", "current_trial": 211, "dateTime": 1511566391875, "trialdata": {"rt": -1000, "stimulus": "/static/audio/wordpool/GARDEN.wav", "key_press": -1, "type": "PRES_AUD", "word": "garden", "wordID": 622, "conditions": [24, 800, "a", 24000], "trial": 5, "serialpos": 2, "trial_type": "single-audio", "trial_index": 211, "time_elapsed": 1029451, "internal_node_id": "0.0-157.0"}}, {"uniqueid": "MTK0617:3F0BG9B9MQUFVAHH25VM32OCKAJ7YO", "current_trial": 212, "dateTime": 1511566393687, "trialdata": {"rt": -1000, "stimulus": "/static/audio/wordpool/PANTHER.wav", "key_press": -1, "type": "PRES_AUD", "word": "panther", "wordID": 1008, "conditions": [24, 800, "a", 24000], "trial": 5, "serialpos": 3, "trial_type": "single-audio", "trial_index": 212, "time_elapsed": 1031264, "internal_node_id": "0.0-158.0"}}, {"uniqueid": "MTK0617:3F0BG9B9MQUFVAHH25VM32OCKAJ7YO", "current_trial": 213, "dateTime": 1511566395343, "trialdata": {"rt": -1000, "stimulus": "/static/audio/wordpool/PISTON.wav", "key_press": -1, "type": "PRES_AUD", "word": "piston", "wordID": 1075, "conditions": [24, 800, "a", 24000], "trial": 5, "serialpos": 4, "trial_type": "single-audio", "trial_index": 213, "time_elapsed": 1032919, "internal_node_id": "0.0-159.0"}}, {"uniqueid": "MTK0617:3F0BG9B9MQUFVAHH25VM32OCKAJ7YO", "current_trial": 214, "dateTime": 1511566397055, "trialdata": {"rt": -1000, "stimulus": "/static/audio/wordpool/LEOPARD.wav", "key_press": -1, "type": "PRES_AUD", "word": "leopard", "wordID": 811, "conditions": [24, 800, "a", 24000], "trial": 5, "serialpos": 5, "trial_type": "single-audio", "trial_index": 214, "time_elapsed": 1034632, "internal_node_id": "0.0-160.0"}}, {"uniqueid": "MTK0617:3F0BG9B9MQUFVAHH25VM32OCKAJ7YO", "current_trial": 215, "dateTime": 1511566398888, "trialdata": {"rt": -1000, "stimulus": "/static/audio/wordpool/SHRUB.wav", "key_press": -1, "type": "PRES_AUD", "word": "shrub", "wordID": 1298, "conditions": [24, 800, "a", 24000], "trial": 5, "serialpos": 6, "trial_type": "single-audio", "trial_index": 215, "time_elapsed": 1036464, "internal_node_id": "0.0-161.0"}}, {"uniqueid": "MTK0617:3F0BG9B9MQUFVAHH25VM32OCKAJ7YO", "current_trial": 216, "dateTime": 1511566400566, "trialdata": {"rt": -1000, "stimulus": "/static/audio/wordpool/CHEST.wav", "key_press": -1, "type": "PRES_AUD", "word": "chest", "wordID": 294, "conditions": [24, 800, "a", 24000], "trial": 5, "serialpos": 7, "trial_type": "single-audio", "trial_index": 216, "time_elapsed": 1038142, "internal_node_id": "0.0-162.0"}}, {"uniqueid": "MTK0617:3F0BG9B9MQUFVAHH25VM32OCKAJ7YO", "current_trial": 217, "dateTime": 1511566402520, "trialdata": {"rt": -1000, "stimulus": "/static/audio/wordpool/COD.wav", "key_press": -1, "type": "PRES_AUD", "word": "cod", "wordID": 339, "conditions": [24, 800, "a", 24000], "trial": 5, "serialpos": 8, "trial_type": "single-audio", "trial_index": 217, "time_elapsed": 1040097, "internal_node_id": "0.0-163.0"}}, {"uniqueid": "MTK0617:3F0BG9B9MQUFVAHH25VM32OCKAJ7YO", "current_trial": 218, "dateTime": 1511566404421, "trialdata": {"rt": -1000, "stimulus": "/static/audio/wordpool/SCALLOP.wav", "key_press": -1, "type": "PRES_AUD", "word": "scallop", "wordID": 1241, "conditions": [24, 800, "a", 24000], "trial": 5, "serialpos": 9, "trial_type": "single-audio", "trial_index": 218, "time_elapsed": 1041998, "internal_node_id": "0.0-164.0"}}, {"uniqueid": "MTK0617:3F0BG9B9MQUFVAHH25VM32OCKAJ7YO", "current_trial": 219, "dateTime": 1511566406195, "trialdata": {"rt": -1000, "stimulus": "/static/audio/wordpool/KNAPSACK.wav", "key_press": -1, "type": "PRES_AUD", "word": "knapsack", "wordID": 782, "conditions": [24, 800, "a", 24000], "trial": 5, "serialpos": 10, "trial_type": "single-audio", "trial_index": 219, "time_elapsed": 1043772, "internal_node_id": "0.0-165.0"}}, {"uniqueid": "MTK0617:3F0BG9B9MQUFVAHH25VM32OCKAJ7YO", "current_trial": 220, "dateTime": 1511566407961, "trialdata": {"rt": -1000, "stimulus": "/static/audio/wordpool/BODY.wav", "key_press": -1, "type": "PRES_AUD", "word": "body", "wordID": 144, "conditions": [24, 800, "a", 24000], "trial": 5, "serialpos": 11, "trial_type": "single-audio", "trial_index": 220, "time_elapsed": 1045538, "internal_node_id": "0.0-166.0"}}, {"uniqueid": "MTK0617:3F0BG9B9MQUFVAHH25VM32OCKAJ7YO", "current_trial": 221, "dateTime": 1511566409868, "trialdata": {"rt": -1000, "stimulus": "/static/audio/wordpool/EXPERT.wav", "key_press": -1, "type": "PRES_AUD", "word": "expert", "wordID": 542, "conditions": [24, 800, "a", 24000], "trial": 5, "serialpos": 12, "trial_type": "single-audio", "trial_index": 221, "time_elapsed": 1047445, "internal_node_id": "0.0-167.0"}}, {"uniqueid": "MTK0617:3F0BG9B9MQUFVAHH25VM32OCKAJ7YO", "current_trial": 222, "dateTime": 1511566411750, "trialdata": {"rt": -1000, "stimulus": "/static/audio/wordpool/AUTHOR.wav", "key_press": -1, "type": "PRES_AUD", "word": "author", "wordID": 60, "conditions": [24, 800, "a", 24000], "trial": 5, "serialpos": 13, "trial_type": "single-audio", "trial_index": 222, "time_elapsed": 1049326, "internal_node_id": "0.0-168.0"}}, {"uniqueid": "MTK0617:3F0BG9B9MQUFVAHH25VM32OCKAJ7YO", "current_trial": 223, "dateTime": 1511566413635, "trialdata": {"rt": -1000, "stimulus": "/static/audio/wordpool/SPHINX.wav", "key_press": -1, "type": "PRES_AUD", "word": "sphinx", "wordID": 1348, "conditions": [24, 800, "a", 24000], "trial": 5, "serialpos": 14, "trial_type": "single-audio", "trial_index": 223, "time_elapsed": 1051211, "internal_node_id": "0.0-169.0"}}, {"uniqueid": "MTK0617:3F0BG9B9MQUFVAHH25VM32OCKAJ7YO", "current_trial": 224, "dateTime": 1511566415539, "trialdata": {"rt": -1000, "stimulus": "/static/audio/wordpool/PERCH.wav", "key_press": -1, "type": "PRES_AUD", "word": "perch", "wordID": 1047, "conditions": [24, 800, "a", 24000], "trial": 5, "serialpos": 15, "trial_type": "single-audio", "trial_index": 224, "time_elapsed": 1053116, "internal_node_id": "0.0-170.0"}}, {"uniqueid": "MTK0617:3F0BG9B9MQUFVAHH25VM32OCKAJ7YO", "current_trial": 225, "dateTime": 1511566417290, "trialdata": {"rt": -1000, "stimulus": "/static/audio/wordpool/SALAD.wav", "key_press": -1, "type": "PRES_AUD", "word": "salad", "wordID": 1223, "conditions": [24, 800, "a", 24000], "trial": 5, "serialpos": 16, "trial_type": "single-audio", "trial_index": 225, "time_elapsed": 1054867, "internal_node_id": "0.0-171.0"}}, {"uniqueid": "MTK0617:3F0BG9B9MQUFVAHH25VM32OCKAJ7YO", "current_trial": 226, "dateTime": 1511566418907, "trialdata": {"rt": -1000, "stimulus": "/static/audio/wordpool/BACON.wav", "key_press": -1, "type": "PRES_AUD", "word": "bacon", "wordID": 66, "conditions": [24, 800, "a", 24000], "trial": 5, "serialpos": 17, "trial_type": "single-audio", "trial_index": 226, "time_elapsed": 1056484, "internal_node_id": "0.0-172.0"}}, {"uniqueid": "MTK0617:3F0BG9B9MQUFVAHH25VM32OCKAJ7YO", "current_trial": 227, "dateTime": 1511566420910, "trialdata": {"rt": -1000, "stimulus": "/static/audio/wordpool/LAKE.wav", "key_press": -1, "type": "PRES_AUD", "word": "lake", "wordID": 795, "conditions": [24, 800, "a", 24000], "trial": 5, "serialpos": 18, "trial_type": "single-audio", "trial_index": 227, "time_elapsed": 1058487, "internal_node_id": "0.0-173.0"}}, {"uniqueid": "MTK0617:3F0BG9B9MQUFVAHH25VM32OCKAJ7YO", "current_trial": 228, "dateTime": 1511566422848, "trialdata": {"rt": -1000, "stimulus": "/static/audio/wordpool/JELLO.wav", "key_press": -1, "type": "PRES_AUD", "word": "jello", "wordID": 753, "conditions": [24, 800, "a", 24000], "trial": 5, "serialpos": 19, "trial_type": "single-audio", "trial_index": 228, "time_elapsed": 1060425, "internal_node_id": "0.0-174.0"}}, {"uniqueid": "MTK0617:3F0BG9B9MQUFVAHH25VM32OCKAJ7YO", "current_trial": 229, "dateTime": 1511566424663, "trialdata": {"rt": -1000, "stimulus": "/static/audio/wordpool/LETTUCE.wav", "key_press": -1, "type": "PRES_AUD", "word": "lettuce", "wordID": 813, "conditions": [24, 800, "a", 24000], "trial": 5, "serialpos": 20, "trial_type": "single-audio", "trial_index": 229, "time_elapsed": 1062240, "internal_node_id": "0.0-175.0"}}, {"uniqueid": "MTK0617:3F0BG9B9MQUFVAHH25VM32OCKAJ7YO", "current_trial": 230, "dateTime": 1511566426435, "trialdata": {"rt": -1000, "stimulus": "/static/audio/wordpool/TURNIP.wav", "key_press": -1, "type": "PRES_AUD", "word": "turnip", "wordID": 1520, "conditions": [24, 800, "a", 24000], "trial": 5, "serialpos": 21, "trial_type": "single-audio", "trial_index": 230, "time_elapsed": 1064011, "internal_node_id": "0.0-176.0"}}, {"uniqueid": "MTK0617:3F0BG9B9MQUFVAHH25VM32OCKAJ7YO", "current_trial": 231, "dateTime": 1511566428233, "trialdata": {"rt": -1000, "stimulus": "/static/audio/wordpool/COUCH.wav", "key_press": -1, "type": "PRES_AUD", "word": "couch", "wordID": 385, "conditions": [24, 800, "a", 24000], "trial": 5, "serialpos": 22, "trial_type": "single-audio", "trial_index": 231, "time_elapsed": 1065810, "internal_node_id": "0.0-177.0"}}, {"uniqueid": "MTK0617:3F0BG9B9MQUFVAHH25VM32OCKAJ7YO", "current_trial": 232, "dateTime": 1511566429889, "trialdata": {"rt": -1000, "stimulus": "/static/audio/wordpool/CABBAGE.wav", "key_press": -1, "type": "PRES_AUD", "word": "cabbage", "wordID": 209, "conditions": [24, 800, "a", 24000], "trial": 5, "serialpos": 23, "trial_type": "single-audio", "trial_index": 232, "time_elapsed": 1067466, "internal_node_id": "0.0-178.0"}}, {"uniqueid": "MTK0617:3F0BG9B9MQUFVAHH25VM32OCKAJ7YO", "current_trial": 233, "dateTime": 1511566431213, "trialdata": {"rt": -1, "stimulus": "", "key_press": -1, "type": "PRE_RECALL_DELAY", "trial_type": "single-stim", "trial_index": 233, "time_elapsed": 1068790, "internal_node_id": "0.0-179.0-0.0"}}, {"uniqueid": "MTK0617:3F0BG9B9MQUFVAHH25VM32OCKAJ7YO", "current_trial": 234, "dateTime": 1511566431719, "trialdata": {"rt": -1000, "stimulus": "/static/audio/400Hz.wav", "key_press": -1, "type": "PRE_RECALL_ALERT", "trial_type": "single-audio", "trial_index": 234, "time_elapsed": 1069296, "internal_node_id": "0.0-180.0"}}, {"uniqueid": "MTK0617:3F0BG9B9MQUFVAHH25VM32OCKAJ7YO", "current_trial": 235, "dateTime": 1511566491727, "trialdata": {"rt": [3347, 6438, 8427, 11343, 27861, 30755], "recwords": ["cabbage", "turnip", "lake", "couch", "leopard", "jaguar"], "type": "FREE_RECALL", "conditions": [24, 800, "a", 24000], "trial": 5, "trial_type": "free-recall", "trial_index": 235, "time_elapsed": 1129301, "internal_node_id": "0.0-181.0-0.0"}}, {"uniqueid": "MTK0617:3F0BG9B9MQUFVAHH25VM32OCKAJ7YO", "current_trial": 236, "dateTime": 1511566496609, "trialdata": {"rt": 2880, "key_press": 78, "type": "INSTRUCTIONS", "trial_type": "text", "trial_index": 236, "time_elapsed": 1134185, "internal_node_id": "0.0-182.0"}}, {"uniqueid": "MTK0617:3F0BG9B9MQUFVAHH25VM32OCKAJ7YO", "current_trial": 237, "dateTime": 1511566510612, "trialdata": {"rt": [3232, 6485, 9291], "responses": ["12", "16", "6"], "num1": [1, 1, 1, 4], "num2": [3, 8, 3, 1], "num3": [8, 7, 2, 8], "type": "DISTRACTOR", "conditions": [12, 800, "a", 12000], "trial": 6, "trial_type": "math-distractor", "trial_index": 237, "time_elapsed": 1148189, "internal_node_id": "0.0-183.0"}}, {"uniqueid": "MTK0617:3F0BG9B9MQUFVAHH25VM32OCKAJ7YO", "current_trial": 238, "dateTime": 1511566513615, "trialdata": {"rt": -1, "stimulus": "<p id=\"stim\">10</p>", "key_press": -1, "trial_type": "single-stim", "trial_index": 238, "time_elapsed": 1151192, "internal_node_id": "0.0-184.0-0.0"}}, {"uniqueid": "MTK0617:3F0BG9B9MQUFVAHH25VM32OCKAJ7YO", "current_trial": 239, "dateTime": 1511566514616, "trialdata": {"rt": -1, "stimulus": "<p id=\"stim\">9</p>", "key_press": -1, "trial_type": "single-stim", "trial_index": 239, "time_elapsed": 1152192, "internal_node_id": "0.0-184.0-1.0"}}, {"uniqueid": "MTK0617:3F0BG9B9MQUFVAHH25VM32OCKAJ7YO", "current_trial": 240, "dateTime": 1511566515617, "trialdata": {"rt": -1, "stimulus": "<p id=\"stim\">8</p>", "key_press": -1, "trial_type": "single-stim", "trial_index": 240, "time_elapsed": 1153193, "internal_node_id": "0.0-184.0-2.0"}}, {"uniqueid": "MTK0617:3F0BG9B9MQUFVAHH25VM32OCKAJ7YO", "current_trial": 241, "dateTime": 1511566516618, "trialdata": {"rt": -1, "stimulus": "<p id=\"stim\">7</p>", "key_press": -1, "trial_type": "single-stim", "trial_index": 241, "time_elapsed": 1154194, "internal_node_id": "0.0-184.0-3.0"}}, {"uniqueid": "MTK0617:3F0BG9B9MQUFVAHH25VM32OCKAJ7YO", "current_trial": 242, "dateTime": 1511566517619, "trialdata": {"rt": -1, "stimulus": "<p id=\"stim\">6</p>", "key_press": -1, "trial_type": "single-stim", "trial_index": 242, "time_elapsed": 1155195, "internal_node_id": "0.0-184.0-4.0"}}, {"uniqueid": "MTK0617:3F0BG9B9MQUFVAHH25VM32OCKAJ7YO", "current_trial": 243, "dateTime": 1511566518620, "trialdata": {"rt": -1, "stimulus": "<p id=\"stim\">5</p>", "key_press": -1, "trial_type": "single-stim", "trial_index": 243, "time_elapsed": 1156196, "internal_node_id": "0.0-184.0-5.0"}}, {"uniqueid": "MTK0617:3F0BG9B9MQUFVAHH25VM32OCKAJ7YO", "current_trial": 244, "dateTime": 1511566519621, "trialdata": {"rt": -1, "stimulus": "<p id=\"stim\">4</p>", "key_press": -1, "trial_type": "single-stim", "trial_index": 244, "time_elapsed": 1157197, "internal_node_id": "0.0-184.0-6.0"}}, {"uniqueid": "MTK0617:3F0BG9B9MQUFVAHH25VM32OCKAJ7YO", "current_trial": 245, "dateTime": 1511566520622, "trialdata": {"rt": -1, "stimulus": "<p id=\"stim\">3</p>", "key_press": -1, "trial_type": "single-stim", "trial_index": 245, "time_elapsed": 1158198, "internal_node_id": "0.0-184.0-7.0"}}, {"uniqueid": "MTK0617:3F0BG9B9MQUFVAHH25VM32OCKAJ7YO", "current_trial": 246, "dateTime": 1511566521623, "trialdata": {"rt": -1, "stimulus": "<p id=\"stim\">2</p>", "key_press": -1, "trial_type": "single-stim", "trial_index": 246, "time_elapsed": 1159199, "internal_node_id": "0.0-184.0-8.0"}}, {"uniqueid": "MTK0617:3F0BG9B9MQUFVAHH25VM32OCKAJ7YO", "current_trial": 247, "dateTime": 1511566522624, "trialdata": {"rt": -1, "stimulus": "<p id=\"stim\">1</p>", "key_press": -1, "trial_type": "single-stim", "trial_index": 247, "time_elapsed": 1160201, "internal_node_id": "0.0-184.0-9.0"}}, {"uniqueid": "MTK0617:3F0BG9B9MQUFVAHH25VM32OCKAJ7YO", "current_trial": 248, "dateTime": 1511566524125, "trialdata": {"rt": -1, "stimulus": "<p id=\"stim\">+</p>", "key_press": -1, "type": "FIXATION", "trial_type": "single-stim", "trial_index": 248, "time_elapsed": 1161702, "internal_node_id": "0.0-185.0-0.0"}}, {"uniqueid": "MTK0617:3F0BG9B9MQUFVAHH25VM32OCKAJ7YO", "current_trial": 249, "dateTime": 1511566526086, "trialdata": {"rt": -1000, "stimulus": "/static/audio/wordpool/HOOD.wav", "key_press": -1, "type": "PRES_AUD", "word": "hood", "wordID": 713, "conditions": [12, 800, "a", 12000], "trial": 6, "serialpos": 0, "trial_type": "single-audio", "trial_index": 249, "time_elapsed": 1163663, "internal_node_id": "0.0-186.0"}}, {"uniqueid": "MTK0617:3F0BG9B9MQUFVAHH25VM32OCKAJ7YO", "current_trial": 250, "dateTime": 1511566527687, "trialdata": {"rt": -1000, "stimulus": "/static/audio/wordpool/CHAPEL.wav", "key_press": -1, "type": "PRES_AUD", "word": "chapel", "wordID": 279, "conditions": [12, 800, "a", 12000], "trial": 6, "serialpos": 1, "trial_type": "single-audio", "trial_index": 250, "time_elapsed": 1165264, "internal_node_id": "0.0-187.0"}}, {"uniqueid": "MTK0617:3F0BG9B9MQUFVAHH25VM32OCKAJ7YO", "current_trial": 251, "dateTime": 1511566529582, "trialdata": {"rt": -1000, "stimulus": "/static/audio/wordpool/CHURCH.wav", "key_press": -1, "type": "PRES_AUD", "word": "church", "wordID": 306, "conditions": [12, 800, "a", 12000], "trial": 6, "serialpos": 2, "trial_type": "single-audio", "trial_index": 251, "time_elapsed": 1167159, "internal_node_id": "0.0-188.0"}}, {"uniqueid": "MTK0617:3F0BG9B9MQUFVAHH25VM32OCKAJ7YO", "current_trial": 252, "dateTime": 1511566531206, "trialdata": {"rt": -1000, "stimulus": "/static/audio/wordpool/PIZZA.wav", "key_press": -1, "type": "PRES_AUD", "word": "pizza", "wordID": 1078, "conditions": [12, 800, "a", 12000], "trial": 6, "serialpos": 3, "trial_type": "single-audio", "trial_index": 252, "time_elapsed": 1168783, "internal_node_id": "0.0-189.0"}}, {"uniqueid": "MTK0617:3F0BG9B9MQUFVAHH25VM32OCKAJ7YO", "current_trial": 253, "dateTime": 1511566533126, "trialdata": {"rt": -1000, "stimulus": "/static/audio/wordpool/BANQUET.wav", "key_press": -1, "type": "PRES_AUD", "word": "banquet", "wordID": 85, "conditions": [12, 800, "a", 12000], "trial": 6, "serialpos": 4, "trial_type": "single-audio", "trial_index": 253, "time_elapsed": 1170702, "internal_node_id": "0.0-190.0"}}, {"uniqueid": "MTK0617:3F0BG9B9MQUFVAHH25VM32OCKAJ7YO", "current_trial": 254, "dateTime": 1511566534794, "trialdata": {"rt": -1000, "stimulus": "/static/audio/wordpool/GALLON.wav", "key_press": -1, "type": "PRES_AUD", "word": "gallon", "wordID": 617, "conditions": [12, 800, "a", 12000], "trial": 6, "serialpos": 5, "trial_type": "single-audio", "trial_index": 254, "time_elapsed": 1172371, "internal_node_id": "0.0-191.0"}}, {"uniqueid": "MTK0617:3F0BG9B9MQUFVAHH25VM32OCKAJ7YO", "current_trial": 255, "dateTime": 1511566536610, "trialdata": {"rt": -1000, "stimulus": "/static/audio/wordpool/OYSTER.wav", "key_press": -1, "type": "PRES_AUD", "word": "oyster", "wordID": 994, "conditions": [12, 800, "a", 12000], "trial": 6, "serialpos": 6, "trial_type": "single-audio", "trial_index": 255, "time_elapsed": 1174187, "internal_node_id": "0.0-192.0"}}, {"uniqueid": "MTK0617:3F0BG9B9MQUFVAHH25VM32OCKAJ7YO", "current_trial": 256, "dateTime": 1511566538570, "trialdata": {"rt": -1000, "stimulus": "/static/audio/wordpool/VAGRANT.wav", "key_press": -1, "type": "PRES_AUD", "word": "vagrant", "wordID": 1543, "conditions": [12, 800, "a", 12000], "trial": 6, "serialpos": 7, "trial_type": "single-audio", "trial_index": 256, "time_elapsed": 1176147, "internal_node_id": "0.0-193.0"}}, {"uniqueid": "MTK0617:3F0BG9B9MQUFVAHH25VM32OCKAJ7YO", "current_trial": 257, "dateTime": 1511566540452, "trialdata": {"rt": -1000, "stimulus": "/static/audio/wordpool/CHILD.wav", "key_press": -1, "type": "PRES_AUD", "word": "child", "wordID": 298, "conditions": [12, 800, "a", 12000], "trial": 6, "serialpos": 8, "trial_type": "single-audio", "trial_index": 257, "time_elapsed": 1178029, "internal_node_id": "0.0-194.0"}}, {"uniqueid": "MTK0617:3F0BG9B9MQUFVAHH25VM32OCKAJ7YO", "current_trial": 258, "dateTime": 1511566542170, "trialdata": {"rt": -1000, "stimulus": "/static/audio/wordpool/ANKLE.wav", "key_press": -1, "type": "PRES_AUD", "word": "ankle", "wordID": 23, "conditions": [12, 800, "a", 12000], "trial": 6, "serialpos": 9, "trial_type": "single-audio", "trial_index": 258, "time_elapsed": 1179747, "internal_node_id": "0.0-195.0"}}, {"uniqueid": "MTK0617:3F0BG9B9MQUFVAHH25VM32OCKAJ7YO", "current_trial": 259, "dateTime": 1511566544021, "trialdata": {"rt": -1000, "stimulus": "/static/audio/wordpool/NAPKIN.wav", "key_press": -1, "type": "PRES_AUD", "word": "napkin", "wordID": 936, "conditions": [12, 800, "a", 12000], "trial": 6, "serialpos": 10, "trial_type": "single-audio", "trial_index": 259, "time_elapsed": 1181597, "internal_node_id": "0.0-196.0"}}, {"uniqueid": "MTK0617:3F0BG9B9MQUFVAHH25VM32OCKAJ7YO", "current_trial": 260, "dateTime": 1511566545860, "trialdata": {"rt": -1000, "stimulus": "/static/audio/wordpool/SANDWICH.wav", "key_press": -1, "type": "PRES_AUD", "word": "sandwich", "wordID": 1231, "conditions": [12, 800, "a", 12000], "trial": 6, "serialpos": 11, "trial_type": "single-audio", "trial_index": 260, "time_elapsed": 1183436, "internal_node_id": "0.0-197.0"}}, {"uniqueid": "MTK0617:3F0BG9B9MQUFVAHH25VM32OCKAJ7YO", "current_trial": 261, "dateTime": 1511566547259, "trialdata": {"rt": -1, "stimulus": "", "key_press": -1, "type": "PRE_RECALL_DELAY", "trial_type": "single-stim", "trial_index": 261, "time_elapsed": 1184836, "internal_node_id": "0.0-198.0-0.0"}}, {"uniqueid": "MTK0617:3F0BG9B9MQUFVAHH25VM32OCKAJ7YO", "current_trial": 262, "dateTime": 1511566547761, "trialdata": {"rt": -1000, "stimulus": "/static/audio/400Hz.wav", "key_press": -1, "type": "PRE_RECALL_ALERT", "trial_type": "single-audio", "trial_index": 262, "time_elapsed": 1185338, "internal_node_id": "0.0-199.0"}}, {"uniqueid": "MTK0617:3F0BG9B9MQUFVAHH25VM32OCKAJ7YO", "current_trial": 263, "dateTime": 1511566607766, "trialdata": {"rt": [4601, 7576, 11063, 14297, 20523, 27957, 48991], "recwords": ["oyster", "napkin", "sandwich", "chape", "church", "scallop", "chapel"], "type": "FREE_RECALL", "conditions": [12, 800, "a", 12000], "trial": 6, "trial_type": "free-recall", "trial_index": 263, "time_elapsed": 1245339, "internal_node_id": "0.0-200.0-0.0"}}, {"uniqueid": "MTK0617:3F0BG9B9MQUFVAHH25VM32OCKAJ7YO", "current_trial": 264, "dateTime": 1511566611655, "trialdata": {"rt": 1888, "key_press": 78, "type": "INSTRUCTIONS", "trial_type": "text", "trial_index": 264, "time_elapsed": 1249232, "internal_node_id": "0.0-201.0"}}, {"uniqueid": "MTK0617:3F0BG9B9MQUFVAHH25VM32OCKAJ7YO", "current_trial": 265, "dateTime": 1511566637658, "trialdata": {"rt": [7147, 10369, 14501, 16935, 19143, 22344], "responses": ["21", "18", "18", "10", "19", "16"], "num1": [7, 5, 7, 4, 5, 9, 7], "num2": [5, 9, 9, 5, 9, 4, 6], "num3": [9, 4, 2, 1, 5, 3, 6], "type": "DISTRACTOR", "conditions": [24, 800, "v", 24000], "trial": 7, "trial_type": "math-distractor", "trial_index": 265, "time_elapsed": 1275235, "internal_node_id": "0.0-202.0"}}, {"uniqueid": "MTK0617:3F0BG9B9MQUFVAHH25VM32OCKAJ7YO", "current_trial": 266, "dateTime": 1511566640659, "trialdata": {"rt": -1, "stimulus": "<p id=\"stim\">10</p>", "key_press": -1, "trial_type": "single-stim", "trial_index": 266, "time_elapsed": 1278236, "internal_node_id": "0.0-203.0-0.0"}}, {"uniqueid": "MTK0617:3F0BG9B9MQUFVAHH25VM32OCKAJ7YO", "current_trial": 267, "dateTime": 1511566641659, "trialdata": {"rt": -1, "stimulus": "<p id=\"stim\">9</p>", "key_press": -1, "trial_type": "single-stim", "trial_index": 267, "time_elapsed": 1279236, "internal_node_id": "0.0-203.0-1.0"}}, {"uniqueid": "MTK0617:3F0BG9B9MQUFVAHH25VM32OCKAJ7YO", "current_trial": 268, "dateTime": 1511566642661, "trialdata": {"rt": -1, "stimulus": "<p id=\"stim\">8</p>", "key_press": -1, "trial_type": "single-stim", "trial_index": 268, "time_elapsed": 1280238, "internal_node_id": "0.0-203.0-2.0"}}, {"uniqueid": "MTK0617:3F0BG9B9MQUFVAHH25VM32OCKAJ7YO", "current_trial": 269, "dateTime": 1511566643662, "trialdata": {"rt": -1, "stimulus": "<p id=\"stim\">7</p>", "key_press": -1, "trial_type": "single-stim", "trial_index": 269, "time_elapsed": 1281239, "internal_node_id": "0.0-203.0-3.0"}}, {"uniqueid": "MTK0617:3F0BG9B9MQUFVAHH25VM32OCKAJ7YO", "current_trial": 270, "dateTime": 1511566644664, "trialdata": {"rt": -1, "stimulus": "<p id=\"stim\">6</p>", "key_press": -1, "trial_type": "single-stim", "trial_index": 270, "time_elapsed": 1282241, "internal_node_id": "0.0-203.0-4.0"}}, {"uniqueid": "MTK0617:3F0BG9B9MQUFVAHH25VM32OCKAJ7YO", "current_trial": 271, "dateTime": 1511566645667, "tria